,subjID,experimentName,versionName,sequenceName,url,selected_row,windowWidth,windowHeight,screenWidth,screenHeight,startDate,startTime,trial,stimulus,duration,actual_depth,depth_estimate,trial_RT,log_sceneDuration,unitSelection,seq_filepath,experimentTime,totalTime,age,gender
0,739821,DepthScenes,duration_manipulation_targetAtFixation,jsons/v1_VE1000_randls_26.json,http://54.235.29.9/FacialAge/BNav_EC2/DepthDuration/v2_depth_duration_MTurk/v2_DepthDuration_HTML.html#248,248,1366,768,1366,768,8-29-2022,7-6-57,1,depth_duration_stimuli/000810_2014-06-08_17-20-01_260595134347_rgbf000105-resize_0/000810_2014-06-08_17-20-01_260595134347_rgbf000105-resize_0-target.png,1000,1.4865,4,4754,1000,meters,jsons/v1_VE1000_randls_26.json,1894334,2042948,47,Man
1,739821,DepthScenes,duration_manipulation_targetAtFixation,jsons/v1_VE1000_randls_26.json,http://54.235.29.9/FacialAge/BNav_EC2/DepthDuration/v2_depth_duration_MTurk/v2_DepthDuration_HTML.html#248,248,1366,768,1366,768,8-29-2022,7-6-57,2,depth_duration_stimuli/001214_2014-06-17_16-13-55_260595134347_rgbf000111-resize_0/001214_2014-06-17_16-13-55_260595134347_rgbf000111-resize_0-target.png,1000,2.6505,3,4809,999,meters,jsons/v1_VE1000_randls_26.json,1894334,2042948,47,Man
2,739821,DepthScenes,duration_manipulation_targetAtFixation,jsons/v1_VE1000_randls_26.json,http://54.235.29.9/FacialAge/BNav_EC2/DepthDuration/v2_depth_duration_MTurk/v2_DepthDuration_HTML.html#248,248,1366,768,1366,768,8-29-2022,7-6-57,3,depth_duration_stimuli/002213_2014-06-28_18-37-58_260595134347_rgbf000055-resize_1/002213_2014-06-28_18-37-58_260595134347_rgbf000055-resize_1-target.png,1000,3.62,6,4972,1000,meters,jsons/v1_VE1000_randls_26.json,1894334,2042948,47,Man
3,739821,DepthScenes,duration_manipulation_targetAtFixation,jsons/v1_VE1000_randls_26.json,http://54.235.29.9/FacialAge/BNav_EC2/DepthDuration/v2_depth_duration_MTurk/v2_DepthDuration_HTML.html#248,248,1366,768,1366,768,8-29-2022,7-6-57,4,depth_duration_stimuli/000691_2014-06-08_13-08-50_260595134347_rgbf000132-resize_3/000691_2014-06-08_13-08-50_260595134347_rgbf000132-resize_3-target.png,1000,4.1530000000000005,6,5019,999,meters,jsons/v1_VE1000_randls_26.json,1894334,2042948,47,Man
4,739821,DepthScenes,duration_manipulation_targetAtFixation,jsons/v1_VE1000_randls_26.json,http://54.235.29.9/FacialAge/BNav_EC2/DepthDuration/v2_depth_duration_MTurk/v2_DepthDuration_HTML.html#248,248,1366,768,1366,768,8-29-2022,7-6-57,5,depth_duration_stimuli/002989_2014-06-15_12-25-03_094959634447_rgbf000150-resize_3/002989_2014-06-15_12-25-03_094959634447_rgbf000150-resize_3-target.png,1000,4.1975,5,640811,1001,meters,jsons/v1_VE1000_randls_26.json,1894334,2042948,47,Man
5,739821,DepthScenes,duration_manipulation_targetAtFixation,jsons/v1_VE1000_randls_26.json,http://54.235.29.9/FacialAge/BNav_EC2/DepthDuration/v2_depth_duration_MTurk/v2_DepthDuration_HTML.html#248,248,1366,768,1366,768,8-29-2022,7-6-57,6,depth_duration_stimuli/000866_2014-06-09_20-45-42_260595134347_rgbf000139-resize_1/000866_2014-06-09_20-45-42_260595134347_rgbf000139-resize_1-target.png,1000,3.2155,7,5495,995,meters,jsons/v1_VE1000_randls_26.json,1894334,2042948,47,Man
6,739821,DepthScenes,duration_manipulation_targetAtFixation,jsons/v1_VE1000_randls_26.json,http://54.235.29.9/FacialAge/BNav_EC2/DepthDuration/v2_depth_duration_MTurk/v2_DepthDuration_HTML.html#248,248,1366,768,1366,768,8-29-2022,7-6-57,7,depth_duration_stimuli/002043_2014-06-24_20-29-38_260595134347_rgbf000039-resize_4/002043_2014-06-24_20-29-38_260595134347_rgbf000039-resize_4-target.png,1000,2.8435,7,4515,1000,meters,jsons/v1_VE1000_randls_26.json,1894334,2042948,47,Man
7,739821,DepthScenes,duration_manipulation_targetAtFixation,jsons/v1_VE1000_randls_26.json,http://54.235.29.9/FacialAge/BNav_EC2/DepthDuration/v2_depth_duration_MTurk/v2_DepthDuration_HTML.html#248,248,1366,768,1366,768,8-29-2022,7-6-57,8,depth_duration_stimuli/003048_2014-06-15_13-49-43_094959634447_rgbf000150-resize_1/003048_2014-06-15_13-49-43_094959634447_rgbf000150-resize_1-target.png,1000,4.0035,8,3923,998,meters,jsons/v1_VE1000_randls_26.json,1894334,2042948,47,Man
8,739821,DepthScenes,duration_manipulation_targetAtFixation,jsons/v1_VE1000_randls_26.json,http://54.235.29.9/FacialAge/BNav_EC2/DepthDuration/v2_depth_duration_MTurk/v2_DepthDuration_HTML.html#248,248,1366,768,1366,768,8-29-2022,7-6-57,9,depth_duration_stimuli/001110_2014-06-15_17-25-28_260595134347_rgbf000150-resize_1/001110_2014-06-15_17-25-28_260595134347_rgbf000150-resize_1-target.png,1000,1.7115,5,4339,999,meters,jsons/v1_VE1000_randls_26.json,1894334,2042948,47,Man
9,739821,DepthScenes,duration_manipulation_targetAtFixation,jsons/v1_VE1000_randls_26.json,http://54.235.29.9/FacialAge/BNav_EC2/DepthDuration/v2_depth_duration_MTurk/v2_DepthDuration_HTML.html#248,248,1366,768,1366,768,8-29-2022,7-6-57,10,depth_duration_stimuli/000927_2014-06-09_16-32-30_260595134347_rgbf000123-resize_3/000927_2014-06-09_16-32-30_260595134347_rgbf000123-resize_3-target.png,1000,2.6785,5,29311,999,meters,jsons/v1_VE1000_randls_26.json,1894334,2042948,47,Man
10,739821,DepthScenes,duration_manipulation_targetAtFixation,jsons/v1_VE1000_randls_26.json,http://54.235.29.9/FacialAge/BNav_EC2/DepthDuration/v2_depth_duration_MTurk/v2_DepthDuration_HTML.html#248,248,1366,768,1366,768,8-29-2022,7-6-57,11,depth_duration_stimuli/000436_2014-06-09_22-25-11_260595134347_rgbf000137-resize_1/000436_2014-06-09_22-25-11_260595134347_rgbf000137-resize_1-target.png,1000,4.0705,6,4057,998,meters,jsons/v1_VE1000_randls_26.json,1894334,2042948,47,Man
11,739821,DepthScenes,duration_manipulation_targetAtFixation,jsons/v1_VE1000_randls_26.json,http://54.235.29.9/FacialAge/BNav_EC2/DepthDuration/v2_depth_duration_MTurk/v2_DepthDuration_HTML.html#248,248,1366,768,1366,768,8-29-2022,7-6-57,12,depth_duration_stimuli/002444_2014-06-28_20-32-08_260595134347_rgbf000027-resize_0/002444_2014-06-28_20-32-08_260595134347_rgbf000027-resize_0-target.png,1000,4.388999999999999,4,4351,1000,meters,jsons/v1_VE1000_randls_26.json,1894334,2042948,47,Man
12,739821,DepthScenes,duration_manipulation_targetAtFixation,jsons/v1_VE1000_randls_26.json,http://54.235.29.9/FacialAge/BNav_EC2/DepthDuration/v2_depth_duration_MTurk/v2_DepthDuration_HTML.html#248,248,1366,768,1366,768,8-29-2022,7-6-57,13,depth_duration_stimuli/000569_2014-06-09_22-51-47_260595134347_rgbf000141-resize_3/000569_2014-06-09_22-51-47_260595134347_rgbf000141-resize-original.jpg,1000,4.512,0,3924,1000,meters,jsons/v1_VE1000_randls_26.json,1894334,2042948,47,Man
13,739821,DepthScenes,duration_manipulation_targetAtFixation,jsons/v1_VE1000_randls_26.json,http://54.235.29.9/FacialAge/BNav_EC2/DepthDuration/v2_depth_duration_MTurk/v2_DepthDuration_HTML.html#248,248,1366,768,1366,768,8-29-2022,7-6-57,14,depth_duration_stimuli/000493_2014-06-09_21-01-18_260595134347_rgbf000196-resize_3/000493_2014-06-09_21-01-18_260595134347_rgbf000196-resize_3-target.png,1000,3.44,5,3867,999,meters,jsons/v1_VE1000_randls_26.json,1894334,2042948,47,Man
14,739821,DepthScenes,duration_manipulation_targetAtFixation,jsons/v1_VE1000_randls_26.json,http://54.235.29.9/FacialAge/BNav_EC2/DepthDuration/v2_depth_duration_MTurk/v2_DepthDuration_HTML.html#248,248,1366,768,1366,768,8-29-2022,7-6-57,15,depth_duration_stimuli/000191_2014-05-12_17-07-38_260595134347_rgbf000199-resize_0/000191_2014-05-12_17-07-38_260595134347_rgbf000199-resize_0-target.png,1000,3.7995,6,4739,999,meters,jsons/v1_VE1000_randls_26.json,1894334,2042948,47,Man
15,739821,DepthScenes,duration_manipulation_targetAtFixation,jsons/v1_VE1000_randls_26.json,http://54.235.29.9/FacialAge/BNav_EC2/DepthDuration/v2_depth_duration_MTurk/v2_DepthDuration_HTML.html#248,248,1366,768,1366,768,8-29-2022,7-6-57,16,depth_duration_stimuli/000878_2014-06-08_22-52-45_260595134347_rgbf000045-resize_2/000878_2014-06-08_22-52-45_260595134347_rgbf000045-resize_2-target.png,1000,2.092,7,6202,999,meters,jsons/v1_VE1000_randls_26.json,1894334,2042948,47,Man
16,739821,DepthScenes,duration_manipulation_targetAtFixation,jsons/v1_VE1000_randls_26.json,http://54.235.29.9/FacialAge/BNav_EC2/DepthDuration/v2_depth_duration_MTurk/v2_DepthDuration_HTML.html#248,248,1366,768,1366,768,8-29-2022,7-6-57,17,depth_duration_stimuli/002953_2014-06-08_17-32-18_094959634447_rgbf000059-resize_5/002953_2014-06-08_17-32-18_094959634447_rgbf000059-resize_5-target.png,1000,1.551,2,4411,1000,meters,jsons/v1_VE1000_randls_26.json,1894334,2042948,47,Man
17,739821,DepthScenes,duration_manipulation_targetAtFixation,jsons/v1_VE1000_randls_26.json,http://54.235.29.9/FacialAge/BNav_EC2/DepthDuration/v2_depth_duration_MTurk/v2_DepthDuration_HTML.html#248,248,1366,768,1366,768,8-29-2022,7-6-57,18,depth_duration_stimuli/000929_2014-06-09_16-33-19_260595134347_rgbf000139-resize_0/000929_2014-06-09_16-33-19_260595134347_rgbf000139-resize_0-target.png,1000,2.8680000000000003,3,4458,999,meters,jsons/v1_VE1000_randls_26.json,1894334,2042948,47,Man
18,739821,DepthScenes,duration_manipulation_targetAtFixation,jsons/v1_VE1000_randls_26.json,http://54.235.29.9/FacialAge/BNav_EC2/DepthDuration/v2_depth_duration_MTurk/v2_DepthDuration_HTML.html#248,248,1366,768,1366,768,8-29-2022,7-6-57,19,depth_duration_stimuli/000457_2014-06-08_16-52-43_260595134347_rgbf000199-resize_1/000457_2014-06-08_16-52-43_260595134347_rgbf000199-resize_1-target.png,1000,3.6489999999999996,4,4052,999,meters,jsons/v1_VE1000_randls_26.json,1894334,2042948,47,Man
19,739821,DepthScenes,duration_manipulation_targetAtFixation,jsons/v1_VE1000_randls_26.json,http://54.235.29.9/FacialAge/BNav_EC2/DepthDuration/v2_depth_duration_MTurk/v2_DepthDuration_HTML.html#248,248,1366,768,1366,768,8-29-2022,7-6-57,20,depth_duration_stimuli/002630_2014-06-24_14-47-50_094959634447_rgbf000055-resize_1/002630_2014-06-24_14-47-50_094959634447_rgbf000055-resize_1-target.png,1000,3.0095,5,5329,1000,meters,jsons/v1_VE1000_randls_26.json,1894334,2042948,47,Man
20,739821,DepthScenes,duration_manipulation_targetAtFixation,jsons/v1_VE1000_randls_26.json,http://54.235.29.9/FacialAge/BNav_EC2/DepthDuration/v2_depth_duration_MTurk/v2_DepthDuration_HTML.html#248,248,1366,768,1366,768,8-29-2022,7-6-57,21,depth_duration_stimuli/002758_2014-06-22_19-11-20_094959634447_rgbf000128-resize_1/002758_2014-06-22_19-11-20_094959634447_rgbf000128-resize_1-target.png,1000,2.555,3,3931,998,meters,jsons/v1_VE1000_randls_26.json,1894334,2042948,47,Man
21,739821,DepthScenes,duration_manipulation_targetAtFixation,jsons/v1_VE1000_randls_26.json,http://54.235.29.9/FacialAge/BNav_EC2/DepthDuration/v2_depth_duration_MTurk/v2_DepthDuration_HTML.html#248,248,1366,768,1366,768,8-29-2022,7-6-57,22,depth_duration_stimuli/000368_2014-06-09_15-53-01_260595134347_rgbf000155-resize_2/000368_2014-06-09_15-53-01_260595134347_rgbf000155-resize_2-target.png,1000,2.4859999999999998,2,4066,999,meters,jsons/v1_VE1000_randls_26.json,1894334,2042948,47,Man
22,739821,DepthScenes,duration_manipulation_targetAtFixation,jsons/v1_VE1000_randls_26.json,http://54.235.29.9/FacialAge/BNav_EC2/DepthDuration/v2_depth_duration_MTurk/v2_DepthDuration_HTML.html#248,248,1366,768,1366,768,8-29-2022,7-6-57,23,depth_duration_stimuli/002678_2014-06-13_16-15-32_094959634447_rgbf000151-resize_6/002678_2014-06-13_16-15-32_094959634447_rgbf000151-resize_6-target.png,1000,2.1830000000000003,4,4210,997,meters,jsons/v1_VE1000_randls_26.json,1894334,2042948,47,Man
23,739821,DepthScenes,duration_manipulation_targetAtFixation,jsons/v1_VE1000_randls_26.json,http://54.235.29.9/FacialAge/BNav_EC2/DepthDuration/v2_depth_duration_MTurk/v2_DepthDuration_HTML.html#248,248,1366,768,1366,768,8-29-2022,7-6-57,24,depth_duration_stimuli/002784_2014-06-22_19-26-30_094959634447_rgbf000083-resize_3/002784_2014-06-22_19-26-30_094959634447_rgbf000083-resize_3-target.png,1000,1.8046666666667,2,4003,1000,meters,jsons/v1_VE1000_randls_26.json,1894334,2042948,47,Man
24,739821,DepthScenes,duration_manipulation_targetAtFixation,jsons/v1_VE1000_randls_26.json,http://54.235.29.9/FacialAge/BNav_EC2/DepthDuration/v2_depth_duration_MTurk/v2_DepthDuration_HTML.html#248,248,1366,768,1366,768,8-29-2022,7-6-57,25,depth_duration_stimuli/001100_2014-06-15_17-46-26_260595134347_rgbf000225-resize_2/001100_2014-06-15_17-46-26_260595134347_rgbf000225-resize_2-target.png,1000,2.24,2,9147,1000,meters,jsons/v1_VE1000_randls_26.json,1894334,2042948,47,Man
25,739821,DepthScenes,duration_manipulation_targetAtFixation,jsons/v1_VE1000_randls_26.json,http://54.235.29.9/FacialAge/BNav_EC2/DepthDuration/v2_depth_duration_MTurk/v2_DepthDuration_HTML.html#248,248,1366,768,1366,768,8-29-2022,7-6-57,26,depth_duration_stimuli/001150_2014-06-17_15-27-34_260595134347_rgbf000108-resize_2/001150_2014-06-17_15-27-34_260595134347_rgbf000108-resize_2-target.png,1000,4.0325,6,4322,999,meters,jsons/v1_VE1000_randls_26.json,1894334,2042948,47,Man
26,739821,DepthScenes,duration_manipulation_targetAtFixation,jsons/v1_VE1000_randls_26.json,http://54.235.29.9/FacialAge/BNav_EC2/DepthDuration/v2_depth_duration_MTurk/v2_DepthDuration_HTML.html#248,248,1366,768,1366,768,8-29-2022,7-6-57,27,depth_duration_stimuli/000665_2014-06-09_20-42-35_260595134347_rgbf000110-resize_1/000665_2014-06-09_20-42-35_260595134347_rgbf000110-resize_1-target.png,1000,3.057,5,3970,999,meters,jsons/v1_VE1000_randls_26.json,1894334,2042948,47,Man
27,739821,DepthScenes,duration_manipulation_targetAtFixation,jsons/v1_VE1000_randls_26.json,http://54.235.29.9/FacialAge/BNav_EC2/DepthDuration/v2_depth_duration_MTurk/v2_DepthDuration_HTML.html#248,248,1366,768,1366,768,8-29-2022,7-6-57,28,depth_duration_stimuli/001158_2014-06-17_15-32-16_260595134347_rgbf000138-resize_2/001158_2014-06-17_15-32-16_260595134347_rgbf000138-resize_2-target.png,1000,4.5315,6,3579,997,meters,jsons/v1_VE1000_randls_26.json,1894334,2042948,47,Man
28,739821,DepthScenes,duration_manipulation_targetAtFixation,jsons/v1_VE1000_randls_26.json,http://54.235.29.9/FacialAge/BNav_EC2/DepthDuration/v2_depth_duration_MTurk/v2_DepthDuration_HTML.html#248,248,1366,768,1366,768,8-29-2022,7-6-57,29,depth_duration_stimuli/000556_2014-06-09_22-42-56_260595134347_rgbf000214-resize_1/000556_2014-06-09_22-42-56_260595134347_rgbf000214-resize_1-target.png,1000,4.8415,5,4139,999,meters,jsons/v1_VE1000_randls_26.json,1894334,2042948,47,Man
29,739821,DepthScenes,duration_manipulation_targetAtFixation,jsons/v1_VE1000_randls_26.json,http://54.235.29.9/FacialAge/BNav_EC2/DepthDuration/v2_depth_duration_MTurk/v2_DepthDuration_HTML.html#248,248,1366,768,1366,768,8-29-2022,7-6-57,30,depth_duration_stimuli/000375_2014-06-08_11-17-29_260595134347_rgbf000133-resize_2/000375_2014-06-08_11-17-29_260595134347_rgbf000133-resize-original.jpg,1000,4.718,0,4187,998,meters,jsons/v1_VE1000_randls_26.json,1894334,2042948,47,Man
30,739821,DepthScenes,duration_manipulation_targetAtFixation,jsons/v1_VE1000_randls_26.json,http://54.235.29.9/FacialAge/BNav_EC2/DepthDuration/v2_depth_duration_MTurk/v2_DepthDuration_HTML.html#248,248,1366,768,1366,768,8-29-2022,7-6-57,31,depth_duration_stimuli/002445_2014-06-28_20-32-16_260595134347_rgbf000029-resize_4/002445_2014-06-28_20-32-16_260595134347_rgbf000029-resize_4-target.png,1000,2.5315,3,3945,1000,meters,jsons/v1_VE1000_randls_26.json,1894334,2042948,47,Man
31,739821,DepthScenes,duration_manipulation_targetAtFixation,jsons/v1_VE1000_randls_26.json,http://54.235.29.9/FacialAge/BNav_EC2/DepthDuration/v2_depth_duration_MTurk/v2_DepthDuration_HTML.html#248,248,1366,768,1366,768,8-29-2022,7-6-57,32,depth_duration_stimuli/000780_2014-06-08_22-28-29_260595134347_rgbf000126-resize_1/000780_2014-06-08_22-28-29_260595134347_rgbf000126-resize_1-target.png,1000,3.3825,5,4042,1002,meters,jsons/v1_VE1000_randls_26.json,1894334,2042948,47,Man
32,739821,DepthScenes,duration_manipulation_targetAtFixation,jsons/v1_VE1000_randls_26.json,http://54.235.29.9/FacialAge/BNav_EC2/DepthDuration/v2_depth_duration_MTurk/v2_DepthDuration_HTML.html#248,248,1366,768,1366,768,8-29-2022,7-6-57,33,depth_duration_stimuli/002788_2014-06-22_19-36-03_094959634447_rgbf000088-resize_2/002788_2014-06-22_19-36-03_094959634447_rgbf000088-resize_2-target.png,1000,1.6465,5,3708,999,meters,jsons/v1_VE1000_randls_26.json,1894334,2042948,47,Man
33,739821,DepthScenes,duration_manipulation_targetAtFixation,jsons/v1_VE1000_randls_26.json,http://54.235.29.9/FacialAge/BNav_EC2/DepthDuration/v2_depth_duration_MTurk/v2_DepthDuration_HTML.html#248,248,1366,768,1366,768,8-29-2022,7-6-57,34,depth_duration_stimuli/000749_2014-06-08_21-55-06_260595134347_rgbf000070-resize_2/000749_2014-06-08_21-55-06_260595134347_rgbf000070-resize_2-target.png,1000,2.331,4,4561,998,meters,jsons/v1_VE1000_randls_26.json,1894334,2042948,47,Man
34,739821,DepthScenes,duration_manipulation_targetAtFixation,jsons/v1_VE1000_randls_26.json,http://54.235.29.9/FacialAge/BNav_EC2/DepthDuration/v2_depth_duration_MTurk/v2_DepthDuration_HTML.html#248,248,1366,768,1366,768,8-29-2022,7-6-57,35,depth_duration_stimuli/002057_2014-06-24_21-00-13_260595134347_rgbf000120-resize_1/002057_2014-06-24_21-00-13_260595134347_rgbf000120-resize_1-target.png,1000,2.967,5,4530,999,meters,jsons/v1_VE1000_randls_26.json,1894334,2042948,47,Man
35,739821,DepthScenes,duration_manipulation_targetAtFixation,jsons/v1_VE1000_randls_26.json,http://54.235.29.9/FacialAge/BNav_EC2/DepthDuration/v2_depth_duration_MTurk/v2_DepthDuration_HTML.html#248,248,1366,768,1366,768,8-29-2022,7-6-57,36,depth_duration_stimuli/000709_2014-06-08_13-51-55_260595134347_rgbf000068-resize_3/000709_2014-06-08_13-51-55_260595134347_rgbf000068-resize_3-target.png,1000,1.8030000000000002,4,5363,999,meters,jsons/v1_VE1000_randls_26.json,1894334,2042948,47,Man
36,739821,DepthScenes,duration_manipulation_targetAtFixation,jsons/v1_VE1000_randls_26.json,http://54.235.29.9/FacialAge/BNav_EC2/DepthDuration/v2_depth_duration_MTurk/v2_DepthDuration_HTML.html#248,248,1366,768,1366,768,8-29-2022,7-6-57,37,depth_duration_stimuli/000906_2014-06-08_13-35-43_260595134347_rgbf000155-resize_1/000906_2014-06-08_13-35-43_260595134347_rgbf000155-resize_1-target.png,1000,2.8489999999999998,6,4216,999,meters,jsons/v1_VE1000_randls_26.json,1894334,2042948,47,Man
37,739821,DepthScenes,duration_manipulation_targetAtFixation,jsons/v1_VE1000_randls_26.json,http://54.235.29.9/FacialAge/BNav_EC2/DepthDuration/v2_depth_duration_MTurk/v2_DepthDuration_HTML.html#248,248,1366,768,1366,768,8-29-2022,7-6-57,38,depth_duration_stimuli/002805_2014-06-22_19-54-03_094959634447_rgbf000079-resize_1/002805_2014-06-22_19-54-03_094959634447_rgbf000079-resize_1-target.png,1000,3.1439999999999997,5,3859,1000,meters,jsons/v1_VE1000_randls_26.json,1894334,2042948,47,Man
38,739821,DepthScenes,duration_manipulation_targetAtFixation,jsons/v1_VE1000_randls_26.json,http://54.235.29.9/FacialAge/BNav_EC2/DepthDuration/v2_depth_duration_MTurk/v2_DepthDuration_HTML.html#248,248,1366,768,1366,768,8-29-2022,7-6-57,39,depth_duration_stimuli/002725_2014-06-22_11-47-51_094959634447_rgbf000070-resize_1/002725_2014-06-22_11-47-51_094959634447_rgbf000070-resize_1-target.png,1000,2.195,5,3489,999,meters,jsons/v1_VE1000_randls_26.json,1894334,2042948,47,Man
39,739821,DepthScenes,duration_manipulation_targetAtFixation,jsons/v1_VE1000_randls_26.json,http://54.235.29.9/FacialAge/BNav_EC2/DepthDuration/v2_depth_duration_MTurk/v2_DepthDuration_HTML.html#248,248,1366,768,1366,768,8-29-2022,7-6-57,40,depth_duration_stimuli/002344_2014-06-28_20-06-29_260595134347_rgbf000030-resize_1/002344_2014-06-28_20-06-29_260595134347_rgbf000030-resize_1-target.png,1000,1.5795,5,5900,1000,meters,jsons/v1_VE1000_randls_26.json,1894334,2042948,47,Man
40,739821,DepthScenes,duration_manipulation_targetAtFixation,jsons/v1_VE1000_randls_26.json,http://54.235.29.9/FacialAge/BNav_EC2/DepthDuration/v2_depth_duration_MTurk/v2_DepthDuration_HTML.html#248,248,1366,768,1366,768,8-29-2022,7-6-57,41,depth_duration_stimuli/002549_2014-06-24_13-41-39_094959634447_rgbf000022-resize_3/002549_2014-06-24_13-41-39_094959634447_rgbf000022-resize_3-target.png,1000,1.476,3,4195,1000,meters,jsons/v1_VE1000_randls_26.json,1894334,2042948,47,Man
41,739821,DepthScenes,duration_manipulation_targetAtFixation,jsons/v1_VE1000_randls_26.json,http://54.235.29.9/FacialAge/BNav_EC2/DepthDuration/v2_depth_duration_MTurk/v2_DepthDuration_HTML.html#248,248,1366,768,1366,768,8-29-2022,7-6-57,42,depth_duration_stimuli/002750_2014-06-22_19-08-03_094959634447_rgbf000094-resize_4/002750_2014-06-22_19-08-03_094959634447_rgbf000094-resize_4-target.png,1000,2.354,4,3829,999,meters,jsons/v1_VE1000_randls_26.json,1894334,2042948,47,Man
42,739821,DepthScenes,duration_manipulation_targetAtFixation,jsons/v1_VE1000_randls_26.json,http://54.235.29.9/FacialAge/BNav_EC2/DepthDuration/v2_depth_duration_MTurk/v2_DepthDuration_HTML.html#248,248,1366,768,1366,768,8-29-2022,7-6-57,43,depth_duration_stimuli/003070_2014-06-15_14-58-27_094959634447_rgbf000150-resize_3/003070_2014-06-15_14-58-27_094959634447_rgbf000150-resize_3-target.png,1000,2.9415,5,4245,998,meters,jsons/v1_VE1000_randls_26.json,1894334,2042948,47,Man
43,739821,DepthScenes,duration_manipulation_targetAtFixation,jsons/v1_VE1000_randls_26.json,http://54.235.29.9/FacialAge/BNav_EC2/DepthDuration/v2_depth_duration_MTurk/v2_DepthDuration_HTML.html#248,248,1366,768,1366,768,8-29-2022,7-6-57,44,depth_duration_stimuli/000943_2014-06-09_19-31-07_260595134347_rgbf000128-resize_1/000943_2014-06-09_19-31-07_260595134347_rgbf000128-resize_1-target.png,1000,1.9765,4,3323,998,meters,jsons/v1_VE1000_randls_26.json,1894334,2042948,47,Man
44,739821,DepthScenes,duration_manipulation_targetAtFixation,jsons/v1_VE1000_randls_26.json,http://54.235.29.9/FacialAge/BNav_EC2/DepthDuration/v2_depth_duration_MTurk/v2_DepthDuration_HTML.html#248,248,1366,768,1366,768,8-29-2022,7-6-57,45,depth_duration_stimuli/000787_2014-06-08_22-33-53_260595134347_rgbf000175-resize_1/000787_2014-06-08_22-33-53_260595134347_rgbf000175-resize-original.jpg,1000,4.784,0,4266,999,meters,jsons/v1_VE1000_randls_26.json,1894334,2042948,47,Man
45,739821,DepthScenes,duration_manipulation_targetAtFixation,jsons/v1_VE1000_randls_26.json,http://54.235.29.9/FacialAge/BNav_EC2/DepthDuration/v2_depth_duration_MTurk/v2_DepthDuration_HTML.html#248,248,1366,768,1366,768,8-29-2022,7-6-57,46,depth_duration_stimuli/001555_2014-06-20_17-12-10_260595134347_rgbf000065-resize_4/001555_2014-06-20_17-12-10_260595134347_rgbf000065-resize_4-target.png,1000,1.633,2,3426,999,meters,jsons/v1_VE1000_randls_26.json,1894334,2042948,47,Man
46,739821,DepthScenes,duration_manipulation_targetAtFixation,jsons/v1_VE1000_randls_26.json,http://54.235.29.9/FacialAge/BNav_EC2/DepthDuration/v2_depth_duration_MTurk/v2_DepthDuration_HTML.html#248,248,1366,768,1366,768,8-29-2022,7-6-57,47,depth_duration_stimuli/000103_2014-05-14_22-01-17_260595134347_rgbf000152-resize_5/000103_2014-05-14_22-01-17_260595134347_rgbf000152-resize_5-target.png,1000,1.993,4,3587,999,meters,jsons/v1_VE1000_randls_26.json,1894334,2042948,47,Man
47,739821,DepthScenes,duration_manipulation_targetAtFixation,jsons/v1_VE1000_randls_26.json,http://54.235.29.9/FacialAge/BNav_EC2/DepthDuration/v2_depth_duration_MTurk/v2_DepthDuration_HTML.html#248,248,1366,768,1366,768,8-29-2022,7-6-57,48,depth_duration_stimuli/002600_2014-06-24_14-27-04_094959634447_rgbf000074-resize_2/002600_2014-06-24_14-27-04_094959634447_rgbf000074-resize_2-target.png,1000,2.7575,4,4043,998,meters,jsons/v1_VE1000_randls_26.json,1894334,2042948,47,Man
48,739821,DepthScenes,duration_manipulation_targetAtFixation,jsons/v1_VE1000_randls_26.json,http://54.235.29.9/FacialAge/BNav_EC2/DepthDuration/v2_depth_duration_MTurk/v2_DepthDuration_HTML.html#248,248,1366,768,1366,768,8-29-2022,7-6-57,49,depth_duration_stimuli/003228_2014-05-14_13-42-35_094959634447_rgbf000101-resize_1/003228_2014-05-14_13-42-35_094959634447_rgbf000101-resize_1-target.png,1000,1.9680000000000002,4,4524,1010,meters,jsons/v1_VE1000_randls_26.json,1894334,2042948,47,Man
49,739821,DepthScenes,duration_manipulation_targetAtFixation,jsons/v1_VE1000_randls_26.json,http://54.235.29.9/FacialAge/BNav_EC2/DepthDuration/v2_depth_duration_MTurk/v2_DepthDuration_HTML.html#248,248,1366,768,1366,768,8-29-2022,7-6-57,50,depth_duration_stimuli/002663_2014-06-13_15-50-26_094959634447_rgbf000075-resize_1/002663_2014-06-13_15-50-26_094959634447_rgbf000075-resize_1-target.png,1000,4.7495,5,3834,999,meters,jsons/v1_VE1000_randls_26.json,1894334,2042948,47,Man
50,739821,DepthScenes,duration_manipulation_targetAtFixation,jsons/v1_VE1000_randls_26.json,http://54.235.29.9/FacialAge/BNav_EC2/DepthDuration/v2_depth_duration_MTurk/v2_DepthDuration_HTML.html#248,248,1366,768,1366,768,8-29-2022,7-6-57,51,depth_duration_stimuli/000409_2014-06-04_19-23-33_260595134347_rgbf000067-resize_0/000409_2014-06-04_19-23-33_260595134347_rgbf000067-resize_0-target.png,1000,3.7335,4,3978,999,meters,jsons/v1_VE1000_randls_26.json,1894334,2042948,47,Man
51,739821,DepthScenes,duration_manipulation_targetAtFixation,jsons/v1_VE1000_randls_26.json,http://54.235.29.9/FacialAge/BNav_EC2/DepthDuration/v2_depth_duration_MTurk/v2_DepthDuration_HTML.html#248,248,1366,768,1366,768,8-29-2022,7-6-57,52,depth_duration_stimuli/000788_2014-06-08_22-34-36_260595134347_rgbf000131-resize_1/000788_2014-06-08_22-34-36_260595134347_rgbf000131-resize_1-target.png,1000,3.359,5,3440,998,meters,jsons/v1_VE1000_randls_26.json,1894334,2042948,47,Man
52,739821,DepthScenes,duration_manipulation_targetAtFixation,jsons/v1_VE1000_randls_26.json,http://54.235.29.9/FacialAge/BNav_EC2/DepthDuration/v2_depth_duration_MTurk/v2_DepthDuration_HTML.html#248,248,1366,768,1366,768,8-29-2022,7-6-57,53,depth_duration_stimuli/001235_2014-06-17_16-37-36_260595134347_rgbf000084-resize_4/001235_2014-06-17_16-37-36_260595134347_rgbf000084-resize_4-target.png,1000,3.6605,3,4052,999,meters,jsons/v1_VE1000_randls_26.json,1894334,2042948,47,Man
53,739821,DepthScenes,duration_manipulation_targetAtFixation,jsons/v1_VE1000_randls_26.json,http://54.235.29.9/FacialAge/BNav_EC2/DepthDuration/v2_depth_duration_MTurk/v2_DepthDuration_HTML.html#248,248,1366,768,1366,768,8-29-2022,7-6-57,54,depth_duration_stimuli/001810_2014-06-26_20-51-35_260595134347_rgbf000040-resize_3/001810_2014-06-26_20-51-35_260595134347_rgbf000040-resize_3-target.png,1000,2.2525,3,4115,999,meters,jsons/v1_VE1000_randls_26.json,1894334,2042948,47,Man
54,739821,DepthScenes,duration_manipulation_targetAtFixation,jsons/v1_VE1000_randls_26.json,http://54.235.29.9/FacialAge/BNav_EC2/DepthDuration/v2_depth_duration_MTurk/v2_DepthDuration_HTML.html#248,248,1366,768,1366,768,8-29-2022,7-6-57,55,depth_duration_stimuli/003010_2014-06-15_12-54-35_094959634447_rgbf000112-resize_0/003010_2014-06-15_12-54-35_094959634447_rgbf000112-resize_0-target.png,1000,3.1185,6,4283,999,meters,jsons/v1_VE1000_randls_26.json,1894334,2042948,47,Man
55,739821,DepthScenes,duration_manipulation_targetAtFixation,jsons/v1_VE1000_randls_26.json,http://54.235.29.9/FacialAge/BNav_EC2/DepthDuration/v2_depth_duration_MTurk/v2_DepthDuration_HTML.html#248,248,1366,768,1366,768,8-29-2022,7-6-57,56,depth_duration_stimuli/001570_2014-06-20_17-21-09_260595134347_rgbf000135-resize_4/001570_2014-06-20_17-21-09_260595134347_rgbf000135-resize_4-target.png,1000,4.467,5,4362,1000,meters,jsons/v1_VE1000_randls_26.json,1894334,2042948,47,Man
56,739821,DepthScenes,duration_manipulation_targetAtFixation,jsons/v1_VE1000_randls_26.json,http://54.235.29.9/FacialAge/BNav_EC2/DepthDuration/v2_depth_duration_MTurk/v2_DepthDuration_HTML.html#248,248,1366,768,1366,768,8-29-2022,7-6-57,57,depth_duration_stimuli/001392_2014-06-19_16-07-59_260595134347_rgbf000046-resize_1/001392_2014-06-19_16-07-59_260595134347_rgbf000046-resize_1-target.png,1000,4.135,5,3434,998,meters,jsons/v1_VE1000_randls_26.json,1894334,2042948,47,Man
57,739821,DepthScenes,duration_manipulation_targetAtFixation,jsons/v1_VE1000_randls_26.json,http://54.235.29.9/FacialAge/BNav_EC2/DepthDuration/v2_depth_duration_MTurk/v2_DepthDuration_HTML.html#248,248,1366,768,1366,768,8-29-2022,7-6-57,58,depth_duration_stimuli/001133_2014-06-17_14-49-16_260595134347_rgbf000100-resize_0/001133_2014-06-17_14-49-16_260595134347_rgbf000100-resize_0-target.png,1000,4.2115,3,5494,998,meters,jsons/v1_VE1000_randls_26.json,1894334,2042948,47,Man
58,739821,DepthScenes,duration_manipulation_targetAtFixation,jsons/v1_VE1000_randls_26.json,http://54.235.29.9/FacialAge/BNav_EC2/DepthDuration/v2_depth_duration_MTurk/v2_DepthDuration_HTML.html#248,248,1366,768,1366,768,8-29-2022,7-6-57,59,depth_duration_stimuli/001132_2014-06-17_14-48-54_260595134347_rgbf000100-resize_2/001132_2014-06-17_14-48-54_260595134347_rgbf000100-resize_2-target.png,1000,3.753,5,30520,1000,meters,jsons/v1_VE1000_randls_26.json,1894334,2042948,47,Man
59,739821,DepthScenes,duration_manipulation_targetAtFixation,jsons/v1_VE1000_randls_26.json,http://54.235.29.9/FacialAge/BNav_EC2/DepthDuration/v2_depth_duration_MTurk/v2_DepthDuration_HTML.html#248,248,1366,768,1366,768,8-29-2022,7-6-57,60,depth_duration_stimuli/002118_2014-06-25_20-32-08_260595134347_rgbf000078-resize_1/002118_2014-06-25_20-32-08_260595134347_rgbf000078-resize_1-target.png,1000,2.6460000000000004,3,25297,999,meters,jsons/v1_VE1000_randls_26.json,1894334,2042948,47,Man
60,739821,DepthScenes,duration_manipulation_targetAtFixation,jsons/v1_VE1000_randls_26.json,http://54.235.29.9/FacialAge/BNav_EC2/DepthDuration/v2_depth_duration_MTurk/v2_DepthDuration_HTML.html#248,248,1366,768,1366,768,8-29-2022,7-6-57,61,depth_duration_stimuli/001516_2014-06-20_16-25-09_260595134347_rgbf000076-resize_2/001516_2014-06-20_16-25-09_260595134347_rgbf000076-resize_2-target.png,1000,1.7445,4,4481,998,meters,jsons/v1_VE1000_randls_26.json,1894334,2042948,47,Man
61,739821,DepthScenes,duration_manipulation_targetAtFixation,jsons/v1_VE1000_randls_26.json,http://54.235.29.9/FacialAge/BNav_EC2/DepthDuration/v2_depth_duration_MTurk/v2_DepthDuration_HTML.html#248,248,1366,768,1366,768,8-29-2022,7-6-57,62,depth_duration_stimuli/001806_2014-06-26_20-50-20_260595134347_rgbf000091-resize_1/001806_2014-06-26_20-50-20_260595134347_rgbf000091-resize_1-target.png,1000,2.7305,3,4207,1000,meters,jsons/v1_VE1000_randls_26.json,1894334,2042948,47,Man
62,739821,DepthScenes,duration_manipulation_targetAtFixation,jsons/v1_VE1000_randls_26.json,http://54.235.29.9/FacialAge/BNav_EC2/DepthDuration/v2_depth_duration_MTurk/v2_DepthDuration_HTML.html#248,248,1366,768,1366,768,8-29-2022,7-6-57,63,depth_duration_stimuli/001617_2014-06-20_11-35-32_260595134347_rgbf000066-resize_1/001617_2014-06-20_11-35-32_260595134347_rgbf000066-resize_1-target.png,1000,3.7910000000000004,5,3575,999,meters,jsons/v1_VE1000_randls_26.json,1894334,2042948,47,Man
63,739821,DepthScenes,duration_manipulation_targetAtFixation,jsons/v1_VE1000_randls_26.json,http://54.235.29.9/FacialAge/BNav_EC2/DepthDuration/v2_depth_duration_MTurk/v2_DepthDuration_HTML.html#248,248,1366,768,1366,768,8-29-2022,7-6-57,64,depth_duration_stimuli/001066_2014-06-08_22-03-20_260595134347_rgbf000066-resize_4/001066_2014-06-08_22-03-20_260595134347_rgbf000066-resize_4-target.png,1000,4.2330000000000005,5,3193,999,meters,jsons/v1_VE1000_randls_26.json,1894334,2042948,47,Man
64,739821,DepthScenes,duration_manipulation_targetAtFixation,jsons/v1_VE1000_randls_26.json,http://54.235.29.9/FacialAge/BNav_EC2/DepthDuration/v2_depth_duration_MTurk/v2_DepthDuration_HTML.html#248,248,1366,768,1366,768,8-29-2022,7-6-57,65,depth_duration_stimuli/000742_2014-06-08_18-48-09_260595134347_rgbf000164-resize_4/000742_2014-06-08_18-48-09_260595134347_rgbf000164-resize_4-target.png,1000,4.632,5,3314,999,meters,jsons/v1_VE1000_randls_26.json,1894334,2042948,47,Man
65,739821,DepthScenes,duration_manipulation_targetAtFixation,jsons/v1_VE1000_randls_26.json,http://54.235.29.9/FacialAge/BNav_EC2/DepthDuration/v2_depth_duration_MTurk/v2_DepthDuration_HTML.html#248,248,1366,768,1366,768,8-29-2022,7-6-57,66,depth_duration_stimuli/001222_2014-06-17_16-24-06_260595134347_rgbf000073-resize_0/001222_2014-06-17_16-24-06_260595134347_rgbf000073-resize-original.jpg,1000,1.4385,0,4499,999,meters,jsons/v1_VE1000_randls_26.json,1894334,2042948,47,Man
66,739821,DepthScenes,duration_manipulation_targetAtFixation,jsons/v1_VE1000_randls_26.json,http://54.235.29.9/FacialAge/BNav_EC2/DepthDuration/v2_depth_duration_MTurk/v2_DepthDuration_HTML.html#248,248,1366,768,1366,768,8-29-2022,7-6-57,67,depth_duration_stimuli/001244_2014-06-17_16-47-45_260595134347_rgbf000030-resize_4/001244_2014-06-17_16-47-45_260595134347_rgbf000030-resize_4-target.png,1000,2.0425,4,3618,999,meters,jsons/v1_VE1000_randls_26.json,1894334,2042948,47,Man
67,739821,DepthScenes,duration_manipulation_targetAtFixation,jsons/v1_VE1000_randls_26.json,http://54.235.29.9/FacialAge/BNav_EC2/DepthDuration/v2_depth_duration_MTurk/v2_DepthDuration_HTML.html#248,248,1366,768,1366,768,8-29-2022,7-6-57,68,depth_duration_stimuli/003495_2014-05-21_16-01-51_094959634447_rgbf000100-resize_3/003495_2014-05-21_16-01-51_094959634447_rgbf000100-resize_3-target.png,1000,1.6255,1,3882,999,meters,jsons/v1_VE1000_randls_26.json,1894334,2042948,47,Man
68,739821,DepthScenes,duration_manipulation_targetAtFixation,jsons/v1_VE1000_randls_26.json,http://54.235.29.9/FacialAge/BNav_EC2/DepthDuration/v2_depth_duration_MTurk/v2_DepthDuration_HTML.html#248,248,1366,768,1366,768,8-29-2022,7-6-57,69,depth_duration_stimuli/000522_2014-06-08_13-35-06_260595134347_rgbf000244-resize_1/000522_2014-06-08_13-35-06_260595134347_rgbf000244-resize_1-target.png,1000,2.3715,1,3467,999,meters,jsons/v1_VE1000_randls_26.json,1894334,2042948,47,Man
69,739821,DepthScenes,duration_manipulation_targetAtFixation,jsons/v1_VE1000_randls_26.json,http://54.235.29.9/FacialAge/BNav_EC2/DepthDuration/v2_depth_duration_MTurk/v2_DepthDuration_HTML.html#248,248,1366,768,1366,768,8-29-2022,7-6-57,70,depth_duration_stimuli/002949_2014-06-26_15-57-42_094959634447_rgbf000079-resize_1/002949_2014-06-26_15-57-42_094959634447_rgbf000079-resize_1-target.png,1000,1.8915,2,4048,999,meters,jsons/v1_VE1000_randls_26.json,1894334,2042948,47,Man
70,739821,DepthScenes,duration_manipulation_targetAtFixation,jsons/v1_VE1000_randls_26.json,http://54.235.29.9/FacialAge/BNav_EC2/DepthDuration/v2_depth_duration_MTurk/v2_DepthDuration_HTML.html#248,248,1366,768,1366,768,8-29-2022,7-6-57,71,depth_duration_stimuli/001167_2014-06-17_15-38-07_260595134347_rgbf000108-resize_0/001167_2014-06-17_15-38-07_260595134347_rgbf000108-resize_0-target.png,1000,1.8505,2,3999,998,meters,jsons/v1_VE1000_randls_26.json,1894334,2042948,47,Man
71,739821,DepthScenes,duration_manipulation_targetAtFixation,jsons/v1_VE1000_randls_26.json,http://54.235.29.9/FacialAge/BNav_EC2/DepthDuration/v2_depth_duration_MTurk/v2_DepthDuration_HTML.html#248,248,1366,768,1366,768,8-29-2022,7-6-57,72,depth_duration_stimuli/003587_2014-05-23_16-48-02_094959634447_rgbf002384-resize_2/003587_2014-05-23_16-48-02_094959634447_rgbf002384-resize_2-target.png,1000,1.357,2,3476,1001,meters,jsons/v1_VE1000_randls_26.json,1894334,2042948,47,Man
72,739821,DepthScenes,duration_manipulation_targetAtFixation,jsons/v1_VE1000_randls_26.json,http://54.235.29.9/FacialAge/BNav_EC2/DepthDuration/v2_depth_duration_MTurk/v2_DepthDuration_HTML.html#248,248,1366,768,1366,768,8-29-2022,7-6-57,73,depth_duration_stimuli/000773_2014-06-08_22-24-54_260595134347_rgbf000093-resize_1/000773_2014-06-08_22-24-54_260595134347_rgbf000093-resize_1-target.png,1000,4.973,4,3954,999,meters,jsons/v1_VE1000_randls_26.json,1894334,2042948,47,Man
73,739821,DepthScenes,duration_manipulation_targetAtFixation,jsons/v1_VE1000_randls_26.json,http://54.235.29.9/FacialAge/BNav_EC2/DepthDuration/v2_depth_duration_MTurk/v2_DepthDuration_HTML.html#248,248,1366,768,1366,768,8-29-2022,7-6-57,74,depth_duration_stimuli/002414_2014-06-28_20-24-58_260595134347_rgbf000067-resize_4/002414_2014-06-28_20-24-58_260595134347_rgbf000067-resize_4-target.png,1000,4.363,5,4110,998,meters,jsons/v1_VE1000_randls_26.json,1894334,2042948,47,Man
74,739821,DepthScenes,duration_manipulation_targetAtFixation,jsons/v1_VE1000_randls_26.json,http://54.235.29.9/FacialAge/BNav_EC2/DepthDuration/v2_depth_duration_MTurk/v2_DepthDuration_HTML.html#248,248,1366,768,1366,768,8-29-2022,7-6-57,75,depth_duration_stimuli/000414_2014-06-04_19-49-13_260595134347_rgbf000044-resize_0/000414_2014-06-04_19-49-13_260595134347_rgbf000044-resize_0-target.png,1000,4.329,5,3199,999,meters,jsons/v1_VE1000_randls_26.json,1894334,2042948,47,Man
75,739821,DepthScenes,duration_manipulation_targetAtFixation,jsons/v1_VE1000_randls_26.json,http://54.235.29.9/FacialAge/BNav_EC2/DepthDuration/v2_depth_duration_MTurk/v2_DepthDuration_HTML.html#248,248,1366,768,1366,768,8-29-2022,7-6-57,76,depth_duration_stimuli/003129_2014-05-12_10-48-10_094959634447_rgbf000100-resize_0/003129_2014-05-12_10-48-10_094959634447_rgbf000100-resize_0-target.png,1000,4.9305,5,3218,999,meters,jsons/v1_VE1000_randls_26.json,1894334,2042948,47,Man
76,739821,DepthScenes,duration_manipulation_targetAtFixation,jsons/v1_VE1000_randls_26.json,http://54.235.29.9/FacialAge/BNav_EC2/DepthDuration/v2_depth_duration_MTurk/v2_DepthDuration_HTML.html#248,248,1366,768,1366,768,8-29-2022,7-6-57,77,depth_duration_stimuli/000739_2014-06-08_18-45-58_260595134347_rgbf000068-resize_1/000739_2014-06-08_18-45-58_260595134347_rgbf000068-resize_1-target.png,1000,3.534,5,3424,1000,meters,jsons/v1_VE1000_randls_26.json,1894334,2042948,47,Man
77,739821,DepthScenes,duration_manipulation_targetAtFixation,jsons/v1_VE1000_randls_26.json,http://54.235.29.9/FacialAge/BNav_EC2/DepthDuration/v2_depth_duration_MTurk/v2_DepthDuration_HTML.html#248,248,1366,768,1366,768,8-29-2022,7-6-57,78,depth_duration_stimuli/000734_2014-06-08_17-39-11_260595134347_rgbf000128-resize_2/000734_2014-06-08_17-39-11_260595134347_rgbf000128-resize_2-target.png,1000,4.098,6,3936,999,meters,jsons/v1_VE1000_randls_26.json,1894334,2042948,47,Man
78,739821,DepthScenes,duration_manipulation_targetAtFixation,jsons/v1_VE1000_randls_26.json,http://54.235.29.9/FacialAge/BNav_EC2/DepthDuration/v2_depth_duration_MTurk/v2_DepthDuration_HTML.html#248,248,1366,768,1366,768,8-29-2022,7-6-57,79,depth_duration_stimuli/000469_2014-06-09_19-42-10_260595134347_rgbf000081-resize_1/000469_2014-06-09_19-42-10_260595134347_rgbf000081-resize_1-target.png,1000,1.652,3,5530,999,meters,jsons/v1_VE1000_randls_26.json,1894334,2042948,47,Man
79,739821,DepthScenes,duration_manipulation_targetAtFixation,jsons/v1_VE1000_randls_26.json,http://54.235.29.9/FacialAge/BNav_EC2/DepthDuration/v2_depth_duration_MTurk/v2_DepthDuration_HTML.html#248,248,1366,768,1366,768,8-29-2022,7-6-57,80,depth_duration_stimuli/000483_2014-06-09_20-41-45_260595134347_rgbf000116-resize_4/000483_2014-06-09_20-41-45_260595134347_rgbf000116-resize_4-target.png,1000,1.337,3,3403,1000,meters,jsons/v1_VE1000_randls_26.json,1894334,2042948,47,Man
80,739821,DepthScenes,duration_manipulation_targetAtFixation,jsons/v1_VE1000_randls_26.json,http://54.235.29.9/FacialAge/BNav_EC2/DepthDuration/v2_depth_duration_MTurk/v2_DepthDuration_HTML.html#248,248,1366,768,1366,768,8-29-2022,7-6-57,81,depth_duration_stimuli/003534_2014-05-22_15-06-10_094959634447_rgbf000102-resize_4/003534_2014-05-22_15-06-10_094959634447_rgbf000102-resize_4-target.png,1000,1.426,2,3995,1002,meters,jsons/v1_VE1000_randls_26.json,1894334,2042948,47,Man
81,739821,DepthScenes,duration_manipulation_targetAtFixation,jsons/v1_VE1000_randls_26.json,http://54.235.29.9/FacialAge/BNav_EC2/DepthDuration/v2_depth_duration_MTurk/v2_DepthDuration_HTML.html#248,248,1366,768,1366,768,8-29-2022,7-6-57,82,depth_duration_stimuli/002637_2014-06-24_14-51-13_094959634447_rgbf000066-resize_4/002637_2014-06-24_14-51-13_094959634447_rgbf000066-resize_4-target.png,1000,1.9955,5,4337,999,meters,jsons/v1_VE1000_randls_26.json,1894334,2042948,47,Man
82,739821,DepthScenes,duration_manipulation_targetAtFixation,jsons/v1_VE1000_randls_26.json,http://54.235.29.9/FacialAge/BNav_EC2/DepthDuration/v2_depth_duration_MTurk/v2_DepthDuration_HTML.html#248,248,1366,768,1366,768,8-29-2022,7-6-57,83,depth_duration_stimuli/000642_2014-06-08_16-59-25_260595134347_rgbf000098-resize_2/000642_2014-06-08_16-59-25_260595134347_rgbf000098-resize_2-target.png,1000,2.8815,2,3986,999,meters,jsons/v1_VE1000_randls_26.json,1894334,2042948,47,Man
83,739821,DepthScenes,duration_manipulation_targetAtFixation,jsons/v1_VE1000_randls_26.json,http://54.235.29.9/FacialAge/BNav_EC2/DepthDuration/v2_depth_duration_MTurk/v2_DepthDuration_HTML.html#248,248,1366,768,1366,768,8-29-2022,7-6-57,84,depth_duration_stimuli/002425_2014-06-28_20-27-29_260595134347_rgbf000031-resize_8/002425_2014-06-28_20-27-29_260595134347_rgbf000031-resize_8-target.png,1000,3.8960000000000004,5,3661,998,meters,jsons/v1_VE1000_randls_26.json,1894334,2042948,47,Man
84,739821,DepthScenes,duration_manipulation_targetAtFixation,jsons/v1_VE1000_randls_26.json,http://54.235.29.9/FacialAge/BNav_EC2/DepthDuration/v2_depth_duration_MTurk/v2_DepthDuration_HTML.html#248,248,1366,768,1366,768,8-29-2022,7-6-57,85,depth_duration_stimuli/001011_2014-06-08_23-18-54_260595134347_rgbf000044-resize_4/001011_2014-06-08_23-18-54_260595134347_rgbf000044-resize_4-target.png,1000,2.4730000000000003,6,4433,1000,meters,jsons/v1_VE1000_randls_26.json,1894334,2042948,47,Man
85,739821,DepthScenes,duration_manipulation_targetAtFixation,jsons/v1_VE1000_randls_26.json,http://54.235.29.9/FacialAge/BNav_EC2/DepthDuration/v2_depth_duration_MTurk/v2_DepthDuration_HTML.html#248,248,1366,768,1366,768,8-29-2022,7-6-57,86,depth_duration_stimuli/002875_2014-06-01_15-19-00_094959634447_rgbf000151-resize_1/002875_2014-06-01_15-19-00_094959634447_rgbf000151-resize_1-target.png,1000,1.9675,4,4410,999,meters,jsons/v1_VE1000_randls_26.json,1894334,2042948,47,Man
86,739821,DepthScenes,duration_manipulation_targetAtFixation,jsons/v1_VE1000_randls_26.json,http://54.235.29.9/FacialAge/BNav_EC2/DepthDuration/v2_depth_duration_MTurk/v2_DepthDuration_HTML.html#248,248,1366,768,1366,768,8-29-2022,7-6-57,87,depth_duration_stimuli/001092_2014-06-15_17-34-58_260595134347_rgbf000171-resize_3/001092_2014-06-15_17-34-58_260595134347_rgbf000171-resize_3-target.png,1000,2.6935,3,4051,998,meters,jsons/v1_VE1000_randls_26.json,1894334,2042948,47,Man
87,739821,DepthScenes,duration_manipulation_targetAtFixation,jsons/v1_VE1000_randls_26.json,http://54.235.29.9/FacialAge/BNav_EC2/DepthDuration/v2_depth_duration_MTurk/v2_DepthDuration_HTML.html#248,248,1366,768,1366,768,8-29-2022,7-6-57,88,depth_duration_stimuli/002545_2014-06-24_13-38-53_094959634447_rgbf000080-resize_4/002545_2014-06-24_13-38-53_094959634447_rgbf000080-resize_4-target.png,1000,1.9205,4,3390,999,meters,jsons/v1_VE1000_randls_26.json,1894334,2042948,47,Man
88,739821,DepthScenes,duration_manipulation_targetAtFixation,jsons/v1_VE1000_randls_26.json,http://54.235.29.9/FacialAge/BNav_EC2/DepthDuration/v2_depth_duration_MTurk/v2_DepthDuration_HTML.html#248,248,1366,768,1366,768,8-29-2022,7-6-57,89,depth_duration_stimuli/002375_2014-06-28_20-13-44_260595134347_rgbf000032-resize_1/002375_2014-06-28_20-13-44_260595134347_rgbf000032-resize_1-target.png,1000,4.0175,5,4054,998,meters,jsons/v1_VE1000_randls_26.json,1894334,2042948,47,Man
89,739821,DepthScenes,duration_manipulation_targetAtFixation,jsons/v1_VE1000_randls_26.json,http://54.235.29.9/FacialAge/BNav_EC2/DepthDuration/v2_depth_duration_MTurk/v2_DepthDuration_HTML.html#248,248,1366,768,1366,768,8-29-2022,7-6-57,90,depth_duration_stimuli/002657_2014-06-13_15-29-54_094959634447_rgbf000150-resize_1/002657_2014-06-13_15-29-54_094959634447_rgbf000150-resize_1-target.png,1000,4.919,5,3818,1000,meters,jsons/v1_VE1000_randls_26.json,1894334,2042948,47,Man
90,739821,DepthScenes,duration_manipulation_targetAtFixation,jsons/v1_VE1000_randls_26.json,http://54.235.29.9/FacialAge/BNav_EC2/DepthDuration/v2_depth_duration_MTurk/v2_DepthDuration_HTML.html#248,248,1366,768,1366,768,8-29-2022,7-6-57,91,depth_duration_stimuli/000682_2014-06-08_23-14-58_260595134347_rgbf000041-resize_5/000682_2014-06-08_23-14-58_260595134347_rgbf000041-resize_5-target.png,1000,2.7239999999999998,4,4372,999,meters,jsons/v1_VE1000_randls_26.json,1894334,2042948,47,Man
91,739821,DepthScenes,duration_manipulation_targetAtFixation,jsons/v1_VE1000_randls_26.json,http://54.235.29.9/FacialAge/BNav_EC2/DepthDuration/v2_depth_duration_MTurk/v2_DepthDuration_HTML.html#248,248,1366,768,1366,768,8-29-2022,7-6-57,92,depth_duration_stimuli/001650_2014-06-20_12-09-00_260595134347_rgbf000087-resize_3/001650_2014-06-20_12-09-00_260595134347_rgbf000087-resize_3-target.png,1000,1.9505,5,4418,999,meters,jsons/v1_VE1000_randls_26.json,1894334,2042948,47,Man
92,739821,DepthScenes,duration_manipulation_targetAtFixation,jsons/v1_VE1000_randls_26.json,http://54.235.29.9/FacialAge/BNav_EC2/DepthDuration/v2_depth_duration_MTurk/v2_DepthDuration_HTML.html#248,248,1366,768,1366,768,8-29-2022,7-6-57,93,depth_duration_stimuli/003292_2014-05-14_21-53-49_094959634447_rgbf000100-resize_2/003292_2014-05-14_21-53-49_094959634447_rgbf000100-resize_2-target.png,1000,3.4815,4,3923,1000,meters,jsons/v1_VE1000_randls_26.json,1894334,2042948,47,Man
93,739821,DepthScenes,duration_manipulation_targetAtFixation,jsons/v1_VE1000_randls_26.json,http://54.235.29.9/FacialAge/BNav_EC2/DepthDuration/v2_depth_duration_MTurk/v2_DepthDuration_HTML.html#248,248,1366,768,1366,768,8-29-2022,7-6-57,94,depth_duration_stimuli/002639_2014-06-24_14-51-37_094959634447_rgbf000074-resize_4/002639_2014-06-24_14-51-37_094959634447_rgbf000074-resize_4-target.png,1000,4.0375,5,3468,999,meters,jsons/v1_VE1000_randls_26.json,1894334,2042948,47,Man
94,739821,DepthScenes,duration_manipulation_targetAtFixation,jsons/v1_VE1000_randls_26.json,http://54.235.29.9/FacialAge/BNav_EC2/DepthDuration/v2_depth_duration_MTurk/v2_DepthDuration_HTML.html#248,248,1366,768,1366,768,8-29-2022,7-6-57,95,depth_duration_stimuli/000486_2014-06-09_20-47-20_260595134347_rgbf000143-resize_2/000486_2014-06-09_20-47-20_260595134347_rgbf000143-resize_2-target.png,1000,4.8325,6,3537,999,meters,jsons/v1_VE1000_randls_26.json,1894334,2042948,47,Man
95,739821,DepthScenes,duration_manipulation_targetAtFixation,jsons/v1_VE1000_randls_26.json,http://54.235.29.9/FacialAge/BNav_EC2/DepthDuration/v2_depth_duration_MTurk/v2_DepthDuration_HTML.html#248,248,1366,768,1366,768,8-29-2022,7-6-57,96,depth_duration_stimuli/003083_2014-06-15_15-21-03_094959634447_rgbf000063-resize_1/003083_2014-06-15_15-21-03_094959634447_rgbf000063-resize_1-target.png,1000,4.1405,6,3890,998,meters,jsons/v1_VE1000_randls_26.json,1894334,2042948,47,Man
96,739821,DepthScenes,duration_manipulation_targetAtFixation,jsons/v1_VE1000_randls_26.json,http://54.235.29.9/FacialAge/BNav_EC2/DepthDuration/v2_depth_duration_MTurk/v2_DepthDuration_HTML.html#248,248,1366,768,1366,768,8-29-2022,7-6-57,97,depth_duration_stimuli/001175_2014-06-17_15-45-55_260595134347_rgbf000129-resize_4/001175_2014-06-17_15-45-55_260595134347_rgbf000129-resize_4-target.png,1000,4.255,5,4147,999,meters,jsons/v1_VE1000_randls_26.json,1894334,2042948,47,Man
97,739821,DepthScenes,duration_manipulation_targetAtFixation,jsons/v1_VE1000_randls_26.json,http://54.235.29.9/FacialAge/BNav_EC2/DepthDuration/v2_depth_duration_MTurk/v2_DepthDuration_HTML.html#248,248,1366,768,1366,768,8-29-2022,7-6-57,98,depth_duration_stimuli/003490_2014-05-21_15-50-11_094959634447_rgbf000101-resize_3/003490_2014-05-21_15-50-11_094959634447_rgbf000101-resize_3-target.png,1000,3.6445,5,3432,1000,meters,jsons/v1_VE1000_randls_26.json,1894334,2042948,47,Man
98,739821,DepthScenes,duration_manipulation_targetAtFixation,jsons/v1_VE1000_randls_26.json,http://54.235.29.9/FacialAge/BNav_EC2/DepthDuration/v2_depth_duration_MTurk/v2_DepthDuration_HTML.html#248,248,1366,768,1366,768,8-29-2022,7-6-57,99,depth_duration_stimuli/001540_2014-06-20_17-01-05_260595134347_rgbf000086-resize_2/001540_2014-06-20_17-01-05_260595134347_rgbf000086-resize-original.jpg,1000,1.459,4,16603,1000,meters,jsons/v1_VE1000_randls_26.json,1894334,2042948,47,Man
99,739821,DepthScenes,duration_manipulation_targetAtFixation,jsons/v1_VE1000_randls_26.json,http://54.235.29.9/FacialAge/BNav_EC2/DepthDuration/v2_depth_duration_MTurk/v2_DepthDuration_HTML.html#248,248,1366,768,1366,768,8-29-2022,7-6-57,100,depth_duration_stimuli/001808_2014-06-26_20-50-58_260595134347_rgbf000029-resize_1/001808_2014-06-26_20-50-58_260595134347_rgbf000029-resize_1-target.png,1000,4.249,5,3891,1000,meters,jsons/v1_VE1000_randls_26.json,1894334,2042948,47,Man
100,739821,DepthScenes,duration_manipulation_targetAtFixation,jsons/v1_VE1000_randls_26.json,http://54.235.29.9/FacialAge/BNav_EC2/DepthDuration/v2_depth_duration_MTurk/v2_DepthDuration_HTML.html#248,248,1366,768,1366,768,8-29-2022,7-6-57,101,depth_duration_stimuli/001815_2014-06-26_20-52-55_260595134347_rgbf000020-resize_0/001815_2014-06-26_20-52-55_260595134347_rgbf000020-resize_0-target.png,1000,3.3865,5,4130,1000,meters,jsons/v1_VE1000_randls_26.json,1894334,2042948,47,Man
101,739821,DepthScenes,duration_manipulation_targetAtFixation,jsons/v1_VE1000_randls_26.json,http://54.235.29.9/FacialAge/BNav_EC2/DepthDuration/v2_depth_duration_MTurk/v2_DepthDuration_HTML.html#248,248,1366,768,1366,768,8-29-2022,7-6-57,102,depth_duration_stimuli/003492_2014-05-21_15-50-55_094959634447_rgbf000828-resize_1/003492_2014-05-21_15-50-55_094959634447_rgbf000828-resize_1-target.png,1000,4.06875,6,3756,999,meters,jsons/v1_VE1000_randls_26.json,1894334,2042948,47,Man
102,739821,DepthScenes,duration_manipulation_targetAtFixation,jsons/v1_VE1000_randls_26.json,http://54.235.29.9/FacialAge/BNav_EC2/DepthDuration/v2_depth_duration_MTurk/v2_DepthDuration_HTML.html#248,248,1366,768,1366,768,8-29-2022,7-6-57,103,depth_duration_stimuli/002568_2014-06-24_13-59-21_094959634447_rgbf000062-resize_4/002568_2014-06-24_13-59-21_094959634447_rgbf000062-resize_4-target.png,1000,3.015,5,4058,1001,meters,jsons/v1_VE1000_randls_26.json,1894334,2042948,47,Man
103,739821,DepthScenes,duration_manipulation_targetAtFixation,jsons/v1_VE1000_randls_26.json,http://54.235.29.9/FacialAge/BNav_EC2/DepthDuration/v2_depth_duration_MTurk/v2_DepthDuration_HTML.html#248,248,1366,768,1366,768,8-29-2022,7-6-57,104,depth_duration_stimuli/003621_2014-05-23_18-06-08_094959634447_rgbf000101-resize_1/003621_2014-05-23_18-06-08_094959634447_rgbf000101-resize_1-target.png,1000,3.9835,5,3643,1000,meters,jsons/v1_VE1000_randls_26.json,1894334,2042948,47,Man
104,739821,DepthScenes,duration_manipulation_targetAtFixation,jsons/v1_VE1000_randls_26.json,http://54.235.29.9/FacialAge/BNav_EC2/DepthDuration/v2_depth_duration_MTurk/v2_DepthDuration_HTML.html#248,248,1366,768,1366,768,8-29-2022,7-6-57,105,depth_duration_stimuli/001584_2014-06-20_11-07-43_260595134347_rgbf000002-resize_1/001584_2014-06-20_11-07-43_260595134347_rgbf000002-resize_1-target.png,1000,3.53,5,3883,1001,meters,jsons/v1_VE1000_randls_26.json,1894334,2042948,47,Man
105,739821,DepthScenes,duration_manipulation_targetAtFixation,jsons/v1_VE1000_randls_26.json,http://54.235.29.9/FacialAge/BNav_EC2/DepthDuration/v2_depth_duration_MTurk/v2_DepthDuration_HTML.html#248,248,1366,768,1366,768,8-29-2022,7-6-57,106,depth_duration_stimuli/001059_2014-06-08_21-53-27_260595134347_rgbf000061-resize_4/001059_2014-06-08_21-53-27_260595134347_rgbf000061-resize_4-target.png,1000,2.4185,4,5913,999,meters,jsons/v1_VE1000_randls_26.json,1894334,2042948,47,Man
106,739821,DepthScenes,duration_manipulation_targetAtFixation,jsons/v1_VE1000_randls_26.json,http://54.235.29.9/FacialAge/BNav_EC2/DepthDuration/v2_depth_duration_MTurk/v2_DepthDuration_HTML.html#248,248,1366,768,1366,768,8-29-2022,7-6-57,107,depth_duration_stimuli/001032_2014-06-08_13-23-17_260595134347_rgbf000021-resize_3/001032_2014-06-08_13-23-17_260595134347_rgbf000021-resize_3-target.png,1000,3.2725,3,4098,999,meters,jsons/v1_VE1000_randls_26.json,1894334,2042948,47,Man
107,739821,DepthScenes,duration_manipulation_targetAtFixation,jsons/v1_VE1000_randls_26.json,http://54.235.29.9/FacialAge/BNav_EC2/DepthDuration/v2_depth_duration_MTurk/v2_DepthDuration_HTML.html#248,248,1366,768,1366,768,8-29-2022,7-6-57,108,depth_duration_stimuli/002748_2014-06-22_19-07-22_094959634447_rgbf000078-resize_1/002748_2014-06-22_19-07-22_094959634447_rgbf000078-resize_1-target.png,1000,4.6705,6,3442,998,meters,jsons/v1_VE1000_randls_26.json,1894334,2042948,47,Man
108,739821,DepthScenes,duration_manipulation_targetAtFixation,jsons/v1_VE1000_randls_26.json,http://54.235.29.9/FacialAge/BNav_EC2/DepthDuration/v2_depth_duration_MTurk/v2_DepthDuration_HTML.html#248,248,1366,768,1366,768,8-29-2022,7-6-57,109,depth_duration_stimuli/002995_2014-06-15_12-31-26_094959634447_rgbf000150-resize_1/002995_2014-06-15_12-31-26_094959634447_rgbf000150-resize_1-target.png,1000,3.8360000000000003,5,4460,1000,meters,jsons/v1_VE1000_randls_26.json,1894334,2042948,47,Man
109,739821,DepthScenes,duration_manipulation_targetAtFixation,jsons/v1_VE1000_randls_26.json,http://54.235.29.9/FacialAge/BNav_EC2/DepthDuration/v2_depth_duration_MTurk/v2_DepthDuration_HTML.html#248,248,1366,625,1366,768,8-29-2022,7-6-57,110,depth_duration_stimuli/002763_2014-06-22_19-13-10_094959634447_rgbf000075-resize_4/002763_2014-06-22_19-13-10_094959634447_rgbf000075-resize_4-target.png,1000,1.68375,4,393831,998,meters,jsons/v1_VE1000_randls_26.json,1894334,2042948,47,Man
110,739821,DepthScenes,duration_manipulation_targetAtFixation,jsons/v1_VE1000_randls_26.json,http://54.235.29.9/FacialAge/BNav_EC2/DepthDuration/v2_depth_duration_MTurk/v2_DepthDuration_HTML.html#248,248,1366,768,1366,768,8-29-2022,7-6-57,111,depth_duration_stimuli/002209_2014-06-28_18-36-10_260595134347_rgbf000051-resize_1/002209_2014-06-28_18-36-10_260595134347_rgbf000051-resize_1-target.png,1000,2.057,3,4177,999,meters,jsons/v1_VE1000_randls_26.json,1894334,2042948,47,Man
111,739821,DepthScenes,duration_manipulation_targetAtFixation,jsons/v1_VE1000_randls_26.json,http://54.235.29.9/FacialAge/BNav_EC2/DepthDuration/v2_depth_duration_MTurk/v2_DepthDuration_HTML.html#248,248,1366,768,1366,768,8-29-2022,7-6-57,112,depth_duration_stimuli/001417_2014-06-19_16-25-36_260595134347_rgbf000115-resize_5/001417_2014-06-19_16-25-36_260595134347_rgbf000115-resize_5-target.png,1000,4.6255,5,3660,1001,meters,jsons/v1_VE1000_randls_26.json,1894334,2042948,47,Man
112,739821,DepthScenes,duration_manipulation_targetAtFixation,jsons/v1_VE1000_randls_26.json,http://54.235.29.9/FacialAge/BNav_EC2/DepthDuration/v2_depth_duration_MTurk/v2_DepthDuration_HTML.html#248,248,1366,768,1366,768,8-29-2022,7-6-57,113,depth_duration_stimuli/003081_2014-06-15_15-19-16_094959634447_rgbf000150-resize_1/003081_2014-06-15_15-19-16_094959634447_rgbf000150-resize_1-target.png,1000,3.9125,5,3794,999,meters,jsons/v1_VE1000_randls_26.json,1894334,2042948,47,Man
113,739821,DepthScenes,duration_manipulation_targetAtFixation,jsons/v1_VE1000_randls_26.json,http://54.235.29.9/FacialAge/BNav_EC2/DepthDuration/v2_depth_duration_MTurk/v2_DepthDuration_HTML.html#248,248,1366,768,1366,768,8-29-2022,7-6-57,114,depth_duration_stimuli/001056_2014-06-08_18-46-44_260595134347_rgbf000068-resize_0/001056_2014-06-08_18-46-44_260595134347_rgbf000068-resize_0-target.png,1000,2.6625,4,3307,1000,meters,jsons/v1_VE1000_randls_26.json,1894334,2042948,47,Man
114,739821,DepthScenes,duration_manipulation_targetAtFixation,jsons/v1_VE1000_randls_26.json,http://54.235.29.9/FacialAge/BNav_EC2/DepthDuration/v2_depth_duration_MTurk/v2_DepthDuration_HTML.html#248,248,1366,768,1366,768,8-29-2022,7-6-57,115,depth_duration_stimuli/002199_2014-06-28_18-33-56_260595134347_rgbf000074-resize_0/002199_2014-06-28_18-33-56_260595134347_rgbf000074-resize_0-target.png,1000,1.996,2,3363,999,meters,jsons/v1_VE1000_randls_26.json,1894334,2042948,47,Man
115,739821,DepthScenes,duration_manipulation_targetAtFixation,jsons/v1_VE1000_randls_26.json,http://54.235.29.9/FacialAge/BNav_EC2/DepthDuration/v2_depth_duration_MTurk/v2_DepthDuration_HTML.html#248,248,1366,768,1366,768,8-29-2022,7-6-57,116,depth_duration_stimuli/001170_2014-06-17_15-43-44_260595134347_rgbf000096-resize_6/001170_2014-06-17_15-43-44_260595134347_rgbf000096-resize-original.jpg,1000,1.1909999999999998,0,3899,999,meters,jsons/v1_VE1000_randls_26.json,1894334,2042948,47,Man
116,739821,DepthScenes,duration_manipulation_targetAtFixation,jsons/v1_VE1000_randls_26.json,http://54.235.29.9/FacialAge/BNav_EC2/DepthDuration/v2_depth_duration_MTurk/v2_DepthDuration_HTML.html#248,248,1366,768,1366,768,8-29-2022,7-6-57,117,depth_duration_stimuli/001199_2014-06-17_16-03-48_260595134347_rgbf000077-resize_0/001199_2014-06-17_16-03-48_260595134347_rgbf000077-resize_0-target.png,1000,3.4375,5,3451,1000,meters,jsons/v1_VE1000_randls_26.json,1894334,2042948,47,Man
117,739821,DepthScenes,duration_manipulation_targetAtFixation,jsons/v1_VE1000_randls_26.json,http://54.235.29.9/FacialAge/BNav_EC2/DepthDuration/v2_depth_duration_MTurk/v2_DepthDuration_HTML.html#248,248,1366,768,1366,768,8-29-2022,7-6-57,118,depth_duration_stimuli/000502_2014-06-08_23-02-32_260595134347_rgbf000063-resize_4/000502_2014-06-08_23-02-32_260595134347_rgbf000063-resize_4-target.png,1000,2.431,2,3715,1001,meters,jsons/v1_VE1000_randls_26.json,1894334,2042948,47,Man
118,739821,DepthScenes,duration_manipulation_targetAtFixation,jsons/v1_VE1000_randls_26.json,http://54.235.29.9/FacialAge/BNav_EC2/DepthDuration/v2_depth_duration_MTurk/v2_DepthDuration_HTML.html#248,248,1366,768,1366,768,8-29-2022,7-6-57,119,depth_duration_stimuli/000506_2014-06-08_23-21-00_260595134347_rgbf000070-resize_7/000506_2014-06-08_23-21-00_260595134347_rgbf000070-resize_7-target.png,1000,4.0585,4,3356,1000,meters,jsons/v1_VE1000_randls_26.json,1894334,2042948,47,Man
119,739821,DepthScenes,duration_manipulation_targetAtFixation,jsons/v1_VE1000_randls_26.json,http://54.235.29.9/FacialAge/BNav_EC2/DepthDuration/v2_depth_duration_MTurk/v2_DepthDuration_HTML.html#248,248,1366,768,1366,768,8-29-2022,7-6-57,120,depth_duration_stimuli/003079_2014-06-15_15-18-20_094959634447_rgbf000152-resize_8/003079_2014-06-15_15-18-20_094959634447_rgbf000152-resize_8-target.png,1000,2.8775,5,4547,998,meters,jsons/v1_VE1000_randls_26.json,1894334,2042948,47,Man
120,739821,DepthScenes,duration_manipulation_targetAtFixation,jsons/v1_VE1000_randls_26.json,http://54.235.29.9/FacialAge/BNav_EC2/DepthDuration/v2_depth_duration_MTurk/v2_DepthDuration_HTML.html#248,248,1366,768,1366,768,8-29-2022,7-6-57,121,depth_duration_stimuli/002964_2014-06-08_17-46-11_094959634447_rgbf000091-resize_4/002964_2014-06-08_17-46-11_094959634447_rgbf000091-resize_4-target.png,1000,1.6909999999999998,2,4210,999,meters,jsons/v1_VE1000_randls_26.json,1894334,2042948,47,Man
121,739821,DepthScenes,duration_manipulation_targetAtFixation,jsons/v1_VE1000_randls_26.json,http://54.235.29.9/FacialAge/BNav_EC2/DepthDuration/v2_depth_duration_MTurk/v2_DepthDuration_HTML.html#248,248,1366,768,1366,768,8-29-2022,7-6-57,122,depth_duration_stimuli/002136_2014-06-25_21-18-03_260595134347_rgbf000109-resize_3/002136_2014-06-25_21-18-03_260595134347_rgbf000109-resize_3-target.png,1000,1.9569999999999999,3,3821,999,meters,jsons/v1_VE1000_randls_26.json,1894334,2042948,47,Man
122,739821,DepthScenes,duration_manipulation_targetAtFixation,jsons/v1_VE1000_randls_26.json,http://54.235.29.9/FacialAge/BNav_EC2/DepthDuration/v2_depth_duration_MTurk/v2_DepthDuration_HTML.html#248,248,1366,768,1366,768,8-29-2022,7-6-57,123,depth_duration_stimuli/000736_2014-06-08_18-24-15_260595134347_rgbf000206-resize_3/000736_2014-06-08_18-24-15_260595134347_rgbf000206-resize_3-target.png,1000,3.515,2,3351,999,meters,jsons/v1_VE1000_randls_26.json,1894334,2042948,47,Man
123,739821,DepthScenes,duration_manipulation_targetAtFixation,jsons/v1_VE1000_randls_26.json,http://54.235.29.9/FacialAge/BNav_EC2/DepthDuration/v2_depth_duration_MTurk/v2_DepthDuration_HTML.html#248,248,1366,768,1366,768,8-29-2022,7-6-57,124,depth_duration_stimuli/000137_2014-05-20_17-04-49_260595134347_rgbf000120-resize_1/000137_2014-05-20_17-04-49_260595134347_rgbf000120-resize_1-target.png,1000,3.786,5,3138,998,meters,jsons/v1_VE1000_randls_26.json,1894334,2042948,47,Man
124,739821,DepthScenes,duration_manipulation_targetAtFixation,jsons/v1_VE1000_randls_26.json,http://54.235.29.9/FacialAge/BNav_EC2/DepthDuration/v2_depth_duration_MTurk/v2_DepthDuration_HTML.html#248,248,1366,768,1366,768,8-29-2022,7-6-57,125,depth_duration_stimuli/002570_2014-06-24_13-59-54_094959634447_rgbf000059-resize_0/002570_2014-06-24_13-59-54_094959634447_rgbf000059-resize_0-target.png,1000,4.037,4,3203,1000,meters,jsons/v1_VE1000_randls_26.json,1894334,2042948,47,Man
125,739821,DepthScenes,duration_manipulation_targetAtFixation,jsons/v1_VE1000_randls_26.json,http://54.235.29.9/FacialAge/BNav_EC2/DepthDuration/v2_depth_duration_MTurk/v2_DepthDuration_HTML.html#248,248,1366,768,1366,768,8-29-2022,7-6-57,126,depth_duration_stimuli/002467_2014-06-28_20-38-07_260595134347_rgbf000026-resize_2/002467_2014-06-28_20-38-07_260595134347_rgbf000026-resize_2-target.png,1000,4.742,5,4307,999,meters,jsons/v1_VE1000_randls_26.json,1894334,2042948,47,Man
126,739821,DepthScenes,duration_manipulation_targetAtFixation,jsons/v1_VE1000_randls_26.json,http://54.235.29.9/FacialAge/BNav_EC2/DepthDuration/v2_depth_duration_MTurk/v2_DepthDuration_HTML.html#248,248,1366,768,1366,768,8-29-2022,7-6-57,127,depth_duration_stimuli/001449_2014-06-19_17-01-27_260595134347_rgbf000116-resize_2/001449_2014-06-19_17-01-27_260595134347_rgbf000116-resize_2-target.png,1000,3.452,5,3875,999,meters,jsons/v1_VE1000_randls_26.json,1894334,2042948,47,Man
127,739821,DepthScenes,duration_manipulation_targetAtFixation,jsons/v1_VE1000_randls_26.json,http://54.235.29.9/FacialAge/BNav_EC2/DepthDuration/v2_depth_duration_MTurk/v2_DepthDuration_HTML.html#248,248,1366,768,1366,768,8-29-2022,7-6-57,128,depth_duration_stimuli/001450_2014-06-19_17-02-03_260595134347_rgbf000203-resize_4/001450_2014-06-19_17-02-03_260595134347_rgbf000203-resize_4-target.png,1000,4.0106666666667,5,3721,998,meters,jsons/v1_VE1000_randls_26.json,1894334,2042948,47,Man
128,739821,DepthScenes,duration_manipulation_targetAtFixation,jsons/v1_VE1000_randls_26.json,http://54.235.29.9/FacialAge/BNav_EC2/DepthDuration/v2_depth_duration_MTurk/v2_DepthDuration_HTML.html#248,248,1366,768,1366,768,8-29-2022,7-6-57,129,depth_duration_stimuli/001055_2014-06-08_18-45-35_260595134347_rgbf000111-resize_4/001055_2014-06-08_18-45-35_260595134347_rgbf000111-resize_4-target.png,1000,2.4290000000000003,5,3395,997,meters,jsons/v1_VE1000_randls_26.json,1894334,2042948,47,Man
129,739821,DepthScenes,duration_manipulation_targetAtFixation,jsons/v1_VE1000_randls_26.json,http://54.235.29.9/FacialAge/BNav_EC2/DepthDuration/v2_depth_duration_MTurk/v2_DepthDuration_HTML.html#248,248,1366,768,1366,768,8-29-2022,7-6-57,130,depth_duration_stimuli/000549_2014-06-08_22-10-24_260595134347_rgbf000247-resize_3/000549_2014-06-08_22-10-24_260595134347_rgbf000247-resize_3-target.png,1000,1.841,2,4034,999,meters,jsons/v1_VE1000_randls_26.json,1894334,2042948,47,Man
130,739821,DepthScenes,duration_manipulation_targetAtFixation,jsons/v1_VE1000_randls_26.json,http://54.235.29.9/FacialAge/BNav_EC2/DepthDuration/v2_depth_duration_MTurk/v2_DepthDuration_HTML.html#248,248,1366,768,1366,768,8-29-2022,7-6-57,131,depth_duration_stimuli/001029_2014-06-08_13-17-57_260595134347_rgbf000065-resize_1/001029_2014-06-08_13-17-57_260595134347_rgbf000065-resize_1-target.png,1000,3.0835,4,4194,999,meters,jsons/v1_VE1000_randls_26.json,1894334,2042948,47,Man
131,739821,DepthScenes,duration_manipulation_targetAtFixation,jsons/v1_VE1000_randls_26.json,http://54.235.29.9/FacialAge/BNav_EC2/DepthDuration/v2_depth_duration_MTurk/v2_DepthDuration_HTML.html#248,248,1366,768,1366,768,8-29-2022,7-6-57,132,depth_duration_stimuli/000677_2014-06-08_23-10-32_260595134347_rgbf000158-resize_6/000677_2014-06-08_23-10-32_260595134347_rgbf000158-resize_6-target.png,1000,3.556,4,4043,999,meters,jsons/v1_VE1000_randls_26.json,1894334,2042948,47,Man
132,739821,DepthScenes,duration_manipulation_targetAtFixation,jsons/v1_VE1000_randls_26.json,http://54.235.29.9/FacialAge/BNav_EC2/DepthDuration/v2_depth_duration_MTurk/v2_DepthDuration_HTML.html#248,248,1366,768,1366,768,8-29-2022,7-6-57,133,depth_duration_stimuli/002153_2014-06-25_21-27-18_260595134347_rgbf000038-resize_5/002153_2014-06-25_21-27-18_260595134347_rgbf000038-resize_5-target.png,1000,2.505,3,3674,999,meters,jsons/v1_VE1000_randls_26.json,1894334,2042948,47,Man
133,739821,DepthScenes,duration_manipulation_targetAtFixation,jsons/v1_VE1000_randls_26.json,http://54.235.29.9/FacialAge/BNav_EC2/DepthDuration/v2_depth_duration_MTurk/v2_DepthDuration_HTML.html#248,248,1366,768,1366,768,8-29-2022,7-6-57,134,depth_duration_stimuli/002660_2014-06-13_15-44-18_094959634447_rgbf001878-resize_2/002660_2014-06-13_15-44-18_094959634447_rgbf001878-resize_2-target.png,1000,3.576,4,3490,998,meters,jsons/v1_VE1000_randls_26.json,1894334,2042948,47,Man
134,739821,DepthScenes,duration_manipulation_targetAtFixation,jsons/v1_VE1000_randls_26.json,http://54.235.29.9/FacialAge/BNav_EC2/DepthDuration/v2_depth_duration_MTurk/v2_DepthDuration_HTML.html#248,248,1366,768,1366,768,8-29-2022,7-6-57,135,depth_duration_stimuli/002072_2014-06-24_21-48-06_260595134347_rgbf000115-resize_0/002072_2014-06-24_21-48-06_260595134347_rgbf000115-resize-original.jpg,1000,4.702,0,3764,999,meters,jsons/v1_VE1000_randls_26.json,1894334,2042948,47,Man
135,739821,DepthScenes,duration_manipulation_targetAtFixation,jsons/v1_VE1000_randls_26.json,http://54.235.29.9/FacialAge/BNav_EC2/DepthDuration/v2_depth_duration_MTurk/v2_DepthDuration_HTML.html#248,248,1366,768,1366,768,8-29-2022,7-6-57,136,depth_duration_stimuli/000470_2014-06-09_19-42-40_260595134347_rgbf000094-resize_1/000470_2014-06-09_19-42-40_260595134347_rgbf000094-resize_1-target.png,1000,1.831,2,3280,999,meters,jsons/v1_VE1000_randls_26.json,1894334,2042948,47,Man
136,739821,DepthScenes,duration_manipulation_targetAtFixation,jsons/v1_VE1000_randls_26.json,http://54.235.29.9/FacialAge/BNav_EC2/DepthDuration/v2_depth_duration_MTurk/v2_DepthDuration_HTML.html#248,248,1366,768,1366,768,8-29-2022,7-6-57,137,depth_duration_stimuli/000109_2014-05-14_23-41-52_260595134347_rgbf000035-resize_9/000109_2014-05-14_23-41-52_260595134347_rgbf000035-resize_9-target.png,1000,1.3545,2,3507,999,meters,jsons/v1_VE1000_randls_26.json,1894334,2042948,47,Man
137,739821,DepthScenes,duration_manipulation_targetAtFixation,jsons/v1_VE1000_randls_26.json,http://54.235.29.9/FacialAge/BNav_EC2/DepthDuration/v2_depth_duration_MTurk/v2_DepthDuration_HTML.html#248,248,1366,768,1366,768,8-29-2022,7-6-57,138,depth_duration_stimuli/000692_2014-06-08_13-09-42_260595134347_rgbf000199-resize_2/000692_2014-06-08_13-09-42_260595134347_rgbf000199-resize_2-target.png,1000,3.661,4,3443,1000,meters,jsons/v1_VE1000_randls_26.json,1894334,2042948,47,Man
138,739821,DepthScenes,duration_manipulation_targetAtFixation,jsons/v1_VE1000_randls_26.json,http://54.235.29.9/FacialAge/BNav_EC2/DepthDuration/v2_depth_duration_MTurk/v2_DepthDuration_HTML.html#248,248,1366,768,1366,768,8-29-2022,7-6-57,139,depth_duration_stimuli/001094_2014-06-15_17-36-00_260595134347_rgbf000205-resize_0/001094_2014-06-15_17-36-00_260595134347_rgbf000205-resize_0-target.png,1000,4.2175,5,22323,1000,meters,jsons/v1_VE1000_randls_26.json,1894334,2042948,47,Man
139,739821,DepthScenes,duration_manipulation_targetAtFixation,jsons/v1_VE1000_randls_26.json,http://54.235.29.9/FacialAge/BNav_EC2/DepthDuration/v2_depth_duration_MTurk/v2_DepthDuration_HTML.html#248,248,1366,768,1366,768,8-29-2022,7-6-57,140,depth_duration_stimuli/002905_2014-06-03_18-04-43_094959634447_rgbf000151-resize_2/002905_2014-06-03_18-04-43_094959634447_rgbf000151-resize_2-target.png,1000,2.0295,3,3914,999,meters,jsons/v1_VE1000_randls_26.json,1894334,2042948,47,Man
140,739821,DepthScenes,duration_manipulation_targetAtFixation,jsons/v1_VE1000_randls_26.json,http://54.235.29.9/FacialAge/BNav_EC2/DepthDuration/v2_depth_duration_MTurk/v2_DepthDuration_HTML.html#248,248,1366,768,1366,768,8-29-2022,7-6-57,141,depth_duration_stimuli/003423_2014-05-21_10-23-26_094959634447_rgbf002665-resize_2/003423_2014-05-21_10-23-26_094959634447_rgbf002665-resize_2-target.png,1000,3.2575,4,3594,999,meters,jsons/v1_VE1000_randls_26.json,1894334,2042948,47,Man
141,739821,DepthScenes,duration_manipulation_targetAtFixation,jsons/v1_VE1000_randls_26.json,http://54.235.29.9/FacialAge/BNav_EC2/DepthDuration/v2_depth_duration_MTurk/v2_DepthDuration_HTML.html#248,248,1366,768,1366,768,8-29-2022,7-6-57,142,depth_duration_stimuli/002988_2014-06-15_12-24-20_094959634447_rgbf000150-resize_1/002988_2014-06-15_12-24-20_094959634447_rgbf000150-resize_1-target.png,1000,4.7669999999999995,5,3850,999,meters,jsons/v1_VE1000_randls_26.json,1894334,2042948,47,Man
142,739821,DepthScenes,duration_manipulation_targetAtFixation,jsons/v1_VE1000_randls_26.json,http://54.235.29.9/FacialAge/BNav_EC2/DepthDuration/v2_depth_duration_MTurk/v2_DepthDuration_HTML.html#248,248,1366,768,1366,768,8-29-2022,7-6-57,143,depth_duration_stimuli/001052_2014-06-08_18-24-54_260595134347_rgbf000130-resize_1/001052_2014-06-08_18-24-54_260595134347_rgbf000130-resize_1-target.png,1000,4.1045,5,3194,999,meters,jsons/v1_VE1000_randls_26.json,1894334,2042948,47,Man
143,739821,DepthScenes,duration_manipulation_targetAtFixation,jsons/v1_VE1000_randls_26.json,http://54.235.29.9/FacialAge/BNav_EC2/DepthDuration/v2_depth_duration_MTurk/v2_DepthDuration_HTML.html#248,248,1366,768,1366,768,8-29-2022,7-6-57,144,depth_duration_stimuli/001164_2014-06-17_15-35-46_260595134347_rgbf000085-resize_3/001164_2014-06-17_15-35-46_260595134347_rgbf000085-resize_3-target.png,1000,2.354,5,3324,999,meters,jsons/v1_VE1000_randls_26.json,1894334,2042948,47,Man
144,739821,DepthScenes,duration_manipulation_targetAtFixation,jsons/v1_VE1000_randls_26.json,http://54.235.29.9/FacialAge/BNav_EC2/DepthDuration/v2_depth_duration_MTurk/v2_DepthDuration_HTML.html#248,248,1366,768,1366,768,8-29-2022,7-6-57,145,depth_duration_stimuli/001136_2014-06-17_15-19-41_260595134347_rgbf000076-resize_3/001136_2014-06-17_15-19-41_260595134347_rgbf000076-resize_3-target.png,1000,1.8655,4,3201,999,meters,jsons/v1_VE1000_randls_26.json,1894334,2042948,47,Man
145,739821,DepthScenes,duration_manipulation_targetAtFixation,jsons/v1_VE1000_randls_26.json,http://54.235.29.9/FacialAge/BNav_EC2/DepthDuration/v2_depth_duration_MTurk/v2_DepthDuration_HTML.html#248,248,1366,768,1366,768,8-29-2022,7-6-57,146,depth_duration_stimuli/001498_2014-06-19_17-45-14_260595134347_rgbf000129-resize_4/001498_2014-06-19_17-45-14_260595134347_rgbf000129-resize-original.jpg,1000,1.4075,0,3616,999,meters,jsons/v1_VE1000_randls_26.json,1894334,2042948,47,Man
146,739821,DepthScenes,duration_manipulation_targetAtFixation,jsons/v1_VE1000_randls_26.json,http://54.235.29.9/FacialAge/BNav_EC2/DepthDuration/v2_depth_duration_MTurk/v2_DepthDuration_HTML.html#248,248,1366,768,1366,768,8-29-2022,7-6-57,147,depth_duration_stimuli/002272_2014-06-28_18-53-56_260595134347_rgbf000067-resize_2/002272_2014-06-28_18-53-56_260595134347_rgbf000067-resize_2-target.png,1000,1.138,3,3683,999,meters,jsons/v1_VE1000_randls_26.json,1894334,2042948,47,Man
147,739821,DepthScenes,duration_manipulation_targetAtFixation,jsons/v1_VE1000_randls_26.json,http://54.235.29.9/FacialAge/BNav_EC2/DepthDuration/v2_depth_duration_MTurk/v2_DepthDuration_HTML.html#248,248,1366,768,1366,768,8-29-2022,7-6-57,148,depth_duration_stimuli/001571_2014-06-20_17-21-32_260595134347_rgbf000089-resize_1/001571_2014-06-20_17-21-32_260595134347_rgbf000089-resize_1-target.png,1000,1.86,3,3391,999,meters,jsons/v1_VE1000_randls_26.json,1894334,2042948,47,Man
148,739821,DepthScenes,duration_manipulation_targetAtFixation,jsons/v1_VE1000_randls_26.json,http://54.235.29.9/FacialAge/BNav_EC2/DepthDuration/v2_depth_duration_MTurk/v2_DepthDuration_HTML.html#248,248,1366,768,1366,768,8-29-2022,7-6-57,149,depth_duration_stimuli/000447_2014-06-08_16-15-46_260595134347_rgbf000130-resize_1/000447_2014-06-08_16-15-46_260595134347_rgbf000130-resize_1-target.png,1000,4.479,5,3843,1001,meters,jsons/v1_VE1000_randls_26.json,1894334,2042948,47,Man
149,739821,DepthScenes,duration_manipulation_targetAtFixation,jsons/v1_VE1000_randls_26.json,http://54.235.29.9/FacialAge/BNav_EC2/DepthDuration/v2_depth_duration_MTurk/v2_DepthDuration_HTML.html#248,248,1366,768,1366,768,8-29-2022,7-6-57,150,depth_duration_stimuli/001447_2014-06-19_17-00-32_260595134347_rgbf000082-resize_5/001447_2014-06-19_17-00-32_260595134347_rgbf000082-resize_5-target.png,1000,4.13775,5,3058,999,meters,jsons/v1_VE1000_randls_26.json,1894334,2042948,47,Man
150,739821,DepthScenes,duration_manipulation_targetAtFixation,jsons/v1_VE1000_randls_26.json,http://54.235.29.9/FacialAge/BNav_EC2/DepthDuration/v2_depth_duration_MTurk/v2_DepthDuration_HTML.html#248,248,1366,768,1366,768,8-29-2022,7-6-57,151,depth_duration_stimuli/000758_2014-06-08_22-05-08_260595134347_rgbf000085-resize_0/000758_2014-06-08_22-05-08_260595134347_rgbf000085-resize_0-target.png,1000,3.3810000000000002,5,3410,999,meters,jsons/v1_VE1000_randls_26.json,1894334,2042948,47,Man
151,739821,DepthScenes,duration_manipulation_targetAtFixation,jsons/v1_VE1000_randls_26.json,http://54.235.29.9/FacialAge/BNav_EC2/DepthDuration/v2_depth_duration_MTurk/v2_DepthDuration_HTML.html#248,248,1366,768,1366,768,8-29-2022,7-6-57,152,depth_duration_stimuli/000854_2014-06-09_19-43-13_260595134347_rgbf000066-resize_0/000854_2014-06-09_19-43-13_260595134347_rgbf000066-resize_0-target.png,1000,3.068,4,3283,998,meters,jsons/v1_VE1000_randls_26.json,1894334,2042948,47,Man
152,739821,DepthScenes,duration_manipulation_targetAtFixation,jsons/v1_VE1000_randls_26.json,http://54.235.29.9/FacialAge/BNav_EC2/DepthDuration/v2_depth_duration_MTurk/v2_DepthDuration_HTML.html#248,248,1366,768,1366,768,8-29-2022,7-6-57,153,depth_duration_stimuli/002509_2014-06-24_13-19-22_094959634447_rgbf000077-resize_0/002509_2014-06-24_13-19-22_094959634447_rgbf000077-resize_0-target.png,1000,1.3065,3,7378,999,meters,jsons/v1_VE1000_randls_26.json,1894334,2042948,47,Man
153,739821,DepthScenes,duration_manipulation_targetAtFixation,jsons/v1_VE1000_randls_26.json,http://54.235.29.9/FacialAge/BNav_EC2/DepthDuration/v2_depth_duration_MTurk/v2_DepthDuration_HTML.html#248,248,1366,768,1366,768,8-29-2022,7-6-57,154,depth_duration_stimuli/003338_2014-05-20_11-01-23_094959634447_rgbf000051-resize_6/003338_2014-05-20_11-01-23_094959634447_rgbf000051-resize_6-target.png,1000,1.693,2,3257,999,meters,jsons/v1_VE1000_randls_26.json,1894334,2042948,47,Man
154,739821,DepthScenes,duration_manipulation_targetAtFixation,jsons/v1_VE1000_randls_26.json,http://54.235.29.9/FacialAge/BNav_EC2/DepthDuration/v2_depth_duration_MTurk/v2_DepthDuration_HTML.html#248,248,1366,768,1366,768,8-29-2022,7-6-57,155,depth_duration_stimuli/002279_2014-06-28_18-55-32_260595134347_rgbf000040-resize_5/002279_2014-06-28_18-55-32_260595134347_rgbf000040-resize_5-target.png,1000,1.5043333333333,3,27997,998,meters,jsons/v1_VE1000_randls_26.json,1894334,2042948,47,Man
155,739821,DepthScenes,duration_manipulation_targetAtFixation,jsons/v1_VE1000_randls_26.json,http://54.235.29.9/FacialAge/BNav_EC2/DepthDuration/v2_depth_duration_MTurk/v2_DepthDuration_HTML.html#248,248,1366,768,1366,768,8-29-2022,7-6-57,156,depth_duration_stimuli/000635_2014-06-08_16-38-42_260595134347_rgbf000106-resize_1/000635_2014-06-08_16-38-42_260595134347_rgbf000106-resize_1-target.png,1000,2.074,5,3976,999,meters,jsons/v1_VE1000_randls_26.json,1894334,2042948,47,Man
156,739821,DepthScenes,duration_manipulation_targetAtFixation,jsons/v1_VE1000_randls_26.json,http://54.235.29.9/FacialAge/BNav_EC2/DepthDuration/v2_depth_duration_MTurk/v2_DepthDuration_HTML.html#248,248,1366,768,1366,768,8-29-2022,7-6-57,157,depth_duration_stimuli/002039_2014-06-24_20-22-38_260595134347_rgbf000084-resize_1/002039_2014-06-24_20-22-38_260595134347_rgbf000084-resize_1-target.png,1000,4.408,6,3313,999,meters,jsons/v1_VE1000_randls_26.json,1894334,2042948,47,Man
157,739821,DepthScenes,duration_manipulation_targetAtFixation,jsons/v1_VE1000_randls_26.json,http://54.235.29.9/FacialAge/BNav_EC2/DepthDuration/v2_depth_duration_MTurk/v2_DepthDuration_HTML.html#248,248,1366,768,1366,768,8-29-2022,7-6-57,158,depth_duration_stimuli/002103_2014-06-25_20-00-40_260595134347_rgbf000049-resize_0/002103_2014-06-25_20-00-40_260595134347_rgbf000049-resize_0-target.png,1000,4.105,5,4467,998,meters,jsons/v1_VE1000_randls_26.json,1894334,2042948,47,Man
158,739821,DepthScenes,duration_manipulation_targetAtFixation,jsons/v1_VE1000_randls_26.json,http://54.235.29.9/FacialAge/BNav_EC2/DepthDuration/v2_depth_duration_MTurk/v2_DepthDuration_HTML.html#248,248,1366,768,1366,768,8-29-2022,7-6-57,159,depth_duration_stimuli/000009_2014-05-26_14-32-05_260595134347_rgbf000034-resize_3/000009_2014-05-26_14-32-05_260595134347_rgbf000034-resize_3-target.png,1000,3.8715,6,3218,998,meters,jsons/v1_VE1000_randls_26.json,1894334,2042948,47,Man
159,739821,DepthScenes,duration_manipulation_targetAtFixation,jsons/v1_VE1000_randls_26.json,http://54.235.29.9/FacialAge/BNav_EC2/DepthDuration/v2_depth_duration_MTurk/v2_DepthDuration_HTML.html#248,248,1366,768,1366,768,8-29-2022,7-6-57,160,depth_duration_stimuli/001828_2014-06-26_21-40-03_260595134347_rgbf000024-resize_0/001828_2014-06-26_21-40-03_260595134347_rgbf000024-resize_0-target.png,1000,4.8260000000000005,5,3234,998,meters,jsons/v1_VE1000_randls_26.json,1894334,2042948,47,Man
160,739821,DepthScenes,duration_manipulation_targetAtFixation,jsons/v1_VE1000_randls_26.json,http://54.235.29.9/FacialAge/BNav_EC2/DepthDuration/v2_depth_duration_MTurk/v2_DepthDuration_HTML.html#248,248,1366,768,1366,768,8-29-2022,7-6-57,161,depth_duration_stimuli/001016_2014-06-09_16-16-10_260595134347_rgbf000112-resize_5/001016_2014-06-09_16-16-10_260595134347_rgbf000112-resize_5-target.png,1000,1.6565,5,3210,999,meters,jsons/v1_VE1000_randls_26.json,1894334,2042948,47,Man
161,739821,DepthScenes,duration_manipulation_targetAtFixation,jsons/v1_VE1000_randls_26.json,http://54.235.29.9/FacialAge/BNav_EC2/DepthDuration/v2_depth_duration_MTurk/v2_DepthDuration_HTML.html#248,248,1366,768,1366,768,8-29-2022,7-6-57,162,depth_duration_stimuli/002340_2014-06-28_20-05-46_260595134347_rgbf000113-resize_0/002340_2014-06-28_20-05-46_260595134347_rgbf000113-resize_0-target.png,1000,2.4735,6,3014,995,meters,jsons/v1_VE1000_randls_26.json,1894334,2042948,47,Man
162,739821,DepthScenes,duration_manipulation_targetAtFixation,jsons/v1_VE1000_randls_26.json,http://54.235.29.9/FacialAge/BNav_EC2/DepthDuration/v2_depth_duration_MTurk/v2_DepthDuration_HTML.html#248,248,1366,768,1366,768,8-29-2022,7-6-57,163,depth_duration_stimuli/000917_2014-06-09_22-45-29_260595134347_rgbf000149-resize_3/000917_2014-06-09_22-45-29_260595134347_rgbf000149-resize_3-target.png,1000,4.1865,5,3994,998,meters,jsons/v1_VE1000_randls_26.json,1894334,2042948,47,Man
163,739821,DepthScenes,duration_manipulation_targetAtFixation,jsons/v1_VE1000_randls_26.json,http://54.235.29.9/FacialAge/BNav_EC2/DepthDuration/v2_depth_duration_MTurk/v2_DepthDuration_HTML.html#248,248,1366,768,1366,768,8-29-2022,7-6-57,164,depth_duration_stimuli/002323_2014-06-28_20-01-54_260595134347_rgbf000051-resize_4/002323_2014-06-28_20-01-54_260595134347_rgbf000051-resize_4-target.png,1000,3.7310000000000003,5,3297,998,meters,jsons/v1_VE1000_randls_26.json,1894334,2042948,47,Man
