,subjID,experimentName,versionName,sequenceName,url,selected_row,windowWidth,windowHeight,screenWidth,screenHeight,startDate,startTime,trial,stimulus,duration,actual_depth,depth_estimate,trial_RT,log_sceneDuration,unitSelection,seq_filepath,experimentTime,totalTime,age,gender
0,740754,DepthScenes,duration_manipulation_targetAtFixation,jsons/VE125_randls_56_rotated.json,http://54.235.29.9/FacialAge/BNav_EC2/DepthDuration/v2_depth_duration_MTurk/v2_DepthDuration_HTML.html#358,358,1705,781,1364,768,8-29-2022,11-27-0,1,depth_duration_stimuli/002805_2014-06-22_19-54-03_094959634447_rgbf000079-resize_1/002805_2014-06-22_19-54-03_094959634447_rgbf000079-resize_1-target.png,125,3.1439999999999997,5,4787,123,meters,jsons/VE125_randls_56_rotated.json,636918,826754,62,Man
1,740754,DepthScenes,duration_manipulation_targetAtFixation,jsons/VE125_randls_56_rotated.json,http://54.235.29.9/FacialAge/BNav_EC2/DepthDuration/v2_depth_duration_MTurk/v2_DepthDuration_HTML.html#358,358,1705,781,1364,768,8-29-2022,11-27-0,2,depth_duration_stimuli/000906_2014-06-08_13-35-43_260595134347_rgbf000155-resize_1/000906_2014-06-08_13-35-43_260595134347_rgbf000155-resize_1-target.png,125,2.8489999999999998,2,5036,124,meters,jsons/VE125_randls_56_rotated.json,636918,826754,62,Man
2,740754,DepthScenes,duration_manipulation_targetAtFixation,jsons/VE125_randls_56_rotated.json,http://54.235.29.9/FacialAge/BNav_EC2/DepthDuration/v2_depth_duration_MTurk/v2_DepthDuration_HTML.html#358,358,1705,781,1364,768,8-29-2022,11-27-0,3,depth_duration_stimuli/002637_2014-06-24_14-51-13_094959634447_rgbf000066-resize_4/002637_2014-06-24_14-51-13_094959634447_rgbf000066-resize_4-target.png,125,1.9955,2,7933,126,meters,jsons/VE125_randls_56_rotated.json,636918,826754,62,Man
3,740754,DepthScenes,duration_manipulation_targetAtFixation,jsons/VE125_randls_56_rotated.json,http://54.235.29.9/FacialAge/BNav_EC2/DepthDuration/v2_depth_duration_MTurk/v2_DepthDuration_HTML.html#358,358,1705,781,1364,768,8-29-2022,11-27-0,4,depth_duration_stimuli/003534_2014-05-22_15-06-10_094959634447_rgbf000102-resize_4/003534_2014-05-22_15-06-10_094959634447_rgbf000102-resize_4-target.png,125,1.426,7,4231,124,meters,jsons/VE125_randls_56_rotated.json,636918,826754,62,Man
4,740754,DepthScenes,duration_manipulation_targetAtFixation,jsons/VE125_randls_56_rotated.json,http://54.235.29.9/FacialAge/BNav_EC2/DepthDuration/v2_depth_duration_MTurk/v2_DepthDuration_HTML.html#358,358,1705,781,1364,768,8-29-2022,11-27-0,5,depth_duration_stimuli/001214_2014-06-17_16-13-55_260595134347_rgbf000111-resize_0/001214_2014-06-17_16-13-55_260595134347_rgbf000111-resize_0-target.png,125,2.6505,6,6905,126,meters,jsons/VE125_randls_56_rotated.json,636918,826754,62,Man
5,740754,DepthScenes,duration_manipulation_targetAtFixation,jsons/VE125_randls_56_rotated.json,http://54.235.29.9/FacialAge/BNav_EC2/DepthDuration/v2_depth_duration_MTurk/v2_DepthDuration_HTML.html#358,358,1705,781,1364,768,8-29-2022,11-27-0,6,depth_duration_stimuli/000810_2014-06-08_17-20-01_260595134347_rgbf000105-resize_0/000810_2014-06-08_17-20-01_260595134347_rgbf000105-resize_0-target.png,125,1.4865,7,2538,125,meters,jsons/VE125_randls_56_rotated.json,636918,826754,62,Man
6,740754,DepthScenes,duration_manipulation_targetAtFixation,jsons/VE125_randls_56_rotated.json,http://54.235.29.9/FacialAge/BNav_EC2/DepthDuration/v2_depth_duration_MTurk/v2_DepthDuration_HTML.html#358,358,1705,781,1364,768,8-29-2022,11-27-0,7,depth_duration_stimuli/003081_2014-06-15_15-19-16_094959634447_rgbf000150-resize_1/003081_2014-06-15_15-19-16_094959634447_rgbf000150-resize_1-target.png,125,3.9125,5,4199,125,meters,jsons/VE125_randls_56_rotated.json,636918,826754,62,Man
7,740754,DepthScenes,duration_manipulation_targetAtFixation,jsons/VE125_randls_56_rotated.json,http://54.235.29.9/FacialAge/BNav_EC2/DepthDuration/v2_depth_duration_MTurk/v2_DepthDuration_HTML.html#358,358,1705,781,1364,768,8-29-2022,11-27-0,8,depth_duration_stimuli/001417_2014-06-19_16-25-36_260595134347_rgbf000115-resize_5/001417_2014-06-19_16-25-36_260595134347_rgbf000115-resize_5-target.png,125,4.6255,5,2116,125,meters,jsons/VE125_randls_56_rotated.json,636918,826754,62,Man
8,740754,DepthScenes,duration_manipulation_targetAtFixation,jsons/VE125_randls_56_rotated.json,http://54.235.29.9/FacialAge/BNav_EC2/DepthDuration/v2_depth_duration_MTurk/v2_DepthDuration_HTML.html#358,358,1705,781,1364,768,8-29-2022,11-27-0,9,depth_duration_stimuli/002678_2014-06-13_16-15-32_094959634447_rgbf000151-resize_6/002678_2014-06-13_16-15-32_094959634447_rgbf000151-resize_6-target.png,125,2.1830000000000003,8,3821,125,meters,jsons/VE125_randls_56_rotated.json,636918,826754,62,Man
9,740754,DepthScenes,duration_manipulation_targetAtFixation,jsons/VE125_randls_56_rotated.json,http://54.235.29.9/FacialAge/BNav_EC2/DepthDuration/v2_depth_duration_MTurk/v2_DepthDuration_HTML.html#358,358,1705,781,1364,768,8-29-2022,11-27-0,10,depth_duration_stimuli/000368_2014-06-09_15-53-01_260595134347_rgbf000155-resize_2/000368_2014-06-09_15-53-01_260595134347_rgbf000155-resize_2-target.png,125,2.4859999999999998,7,2738,124,meters,jsons/VE125_randls_56_rotated.json,636918,826754,62,Man
10,740754,DepthScenes,duration_manipulation_targetAtFixation,jsons/VE125_randls_56_rotated.json,http://54.235.29.9/FacialAge/BNav_EC2/DepthDuration/v2_depth_duration_MTurk/v2_DepthDuration_HTML.html#358,358,1705,781,1364,768,8-29-2022,11-27-0,11,depth_duration_stimuli/001815_2014-06-26_20-52-55_260595134347_rgbf000020-resize_0/001815_2014-06-26_20-52-55_260595134347_rgbf000020-resize_0-target.png,125,3.3865,5,3597,125,meters,jsons/VE125_randls_56_rotated.json,636918,826754,62,Man
11,740754,DepthScenes,duration_manipulation_targetAtFixation,jsons/VE125_randls_56_rotated.json,http://54.235.29.9/FacialAge/BNav_EC2/DepthDuration/v2_depth_duration_MTurk/v2_DepthDuration_HTML.html#358,358,1705,781,1364,768,8-29-2022,11-27-0,12,depth_duration_stimuli/001808_2014-06-26_20-50-58_260595134347_rgbf000029-resize_1/001808_2014-06-26_20-50-58_260595134347_rgbf000029-resize_1-target.png,125,4.249,4,2614,121,meters,jsons/VE125_randls_56_rotated.json,636918,826754,62,Man
12,740754,DepthScenes,duration_manipulation_targetAtFixation,jsons/VE125_randls_56_rotated.json,http://54.235.29.9/FacialAge/BNav_EC2/DepthDuration/v2_depth_duration_MTurk/v2_DepthDuration_HTML.html#358,358,1705,781,1364,768,8-29-2022,11-27-0,13,depth_duration_stimuli/003338_2014-05-20_11-01-23_094959634447_rgbf000051-resize_6/003338_2014-05-20_11-01-23_094959634447_rgbf000051-resize_6-target.png,125,1.693,5,4315,126,meters,jsons/VE125_randls_56_rotated.json,636918,826754,62,Man
13,740754,DepthScenes,duration_manipulation_targetAtFixation,jsons/VE125_randls_56_rotated.json,http://54.235.29.9/FacialAge/BNav_EC2/DepthDuration/v2_depth_duration_MTurk/v2_DepthDuration_HTML.html#358,358,1705,781,1364,768,8-29-2022,11-27-0,14,depth_duration_stimuli/002509_2014-06-24_13-19-22_094959634447_rgbf000077-resize_0/002509_2014-06-24_13-19-22_094959634447_rgbf000077-resize_0-target.png,125,1.3065,7,3200,126,meters,jsons/VE125_randls_56_rotated.json,636918,826754,62,Man
14,740754,DepthScenes,duration_manipulation_targetAtFixation,jsons/VE125_randls_56_rotated.json,http://54.235.29.9/FacialAge/BNav_EC2/DepthDuration/v2_depth_duration_MTurk/v2_DepthDuration_HTML.html#358,358,1705,781,1364,768,8-29-2022,11-27-0,15,depth_duration_stimuli/002344_2014-06-28_20-06-29_260595134347_rgbf000030-resize_1/002344_2014-06-28_20-06-29_260595134347_rgbf000030-resize_1-target.png,125,1.5795,5,2849,123,meters,jsons/VE125_randls_56_rotated.json,636918,826754,62,Man
15,740754,DepthScenes,duration_manipulation_targetAtFixation,jsons/VE125_randls_56_rotated.json,http://54.235.29.9/FacialAge/BNav_EC2/DepthDuration/v2_depth_duration_MTurk/v2_DepthDuration_HTML.html#358,358,1705,781,1364,768,8-29-2022,11-27-0,16,depth_duration_stimuli/002725_2014-06-22_11-47-51_094959634447_rgbf000070-resize_1/002725_2014-06-22_11-47-51_094959634447_rgbf000070-resize_1-target.png,125,2.195,7,1737,125,meters,jsons/VE125_randls_56_rotated.json,636918,826754,62,Man
16,740754,DepthScenes,duration_manipulation_targetAtFixation,jsons/VE125_randls_56_rotated.json,http://54.235.29.9/FacialAge/BNav_EC2/DepthDuration/v2_depth_duration_MTurk/v2_DepthDuration_HTML.html#358,358,1705,781,1364,768,8-29-2022,11-27-0,17,depth_duration_stimuli/000742_2014-06-08_18-48-09_260595134347_rgbf000164-resize_4/000742_2014-06-08_18-48-09_260595134347_rgbf000164-resize_4-target.png,125,4.632,5,2669,124,meters,jsons/VE125_randls_56_rotated.json,636918,826754,62,Man
17,740754,DepthScenes,duration_manipulation_targetAtFixation,jsons/VE125_randls_56_rotated.json,http://54.235.29.9/FacialAge/BNav_EC2/DepthDuration/v2_depth_duration_MTurk/v2_DepthDuration_HTML.html#358,358,1705,781,1364,768,8-29-2022,11-27-0,18,depth_duration_stimuli/001066_2014-06-08_22-03-20_260595134347_rgbf000066-resize_4/001066_2014-06-08_22-03-20_260595134347_rgbf000066-resize_4-target.png,125,4.2330000000000005,5,2648,123,meters,jsons/VE125_randls_56_rotated.json,636918,826754,62,Man
18,740754,DepthScenes,duration_manipulation_targetAtFixation,jsons/VE125_randls_56_rotated.json,http://54.235.29.9/FacialAge/BNav_EC2/DepthDuration/v2_depth_duration_MTurk/v2_DepthDuration_HTML.html#358,358,1705,781,1364,768,8-29-2022,11-27-0,19,depth_duration_stimuli/001498_2014-06-19_17-45-14_260595134347_rgbf000129-resize_4/001498_2014-06-19_17-45-14_260595134347_rgbf000129-resize-original.jpg,125,1.4075,0,4664,124,meters,jsons/VE125_randls_56_rotated.json,636918,826754,62,Man
19,740754,DepthScenes,duration_manipulation_targetAtFixation,jsons/VE125_randls_56_rotated.json,http://54.235.29.9/FacialAge/BNav_EC2/DepthDuration/v2_depth_duration_MTurk/v2_DepthDuration_HTML.html#358,358,1705,781,1364,768,8-29-2022,11-27-0,20,depth_duration_stimuli/001584_2014-06-20_11-07-43_260595134347_rgbf000002-resize_1/001584_2014-06-20_11-07-43_260595134347_rgbf000002-resize_1-target.png,125,3.53,5,4192,125,meters,jsons/VE125_randls_56_rotated.json,636918,826754,62,Man
20,740754,DepthScenes,duration_manipulation_targetAtFixation,jsons/VE125_randls_56_rotated.json,http://54.235.29.9/FacialAge/BNav_EC2/DepthDuration/v2_depth_duration_MTurk/v2_DepthDuration_HTML.html#358,358,1705,781,1364,768,8-29-2022,11-27-0,21,depth_duration_stimuli/003621_2014-05-23_18-06-08_094959634447_rgbf000101-resize_1/003621_2014-05-23_18-06-08_094959634447_rgbf000101-resize_1-target.png,125,3.9835,6,2943,124,meters,jsons/VE125_randls_56_rotated.json,636918,826754,62,Man
21,740754,DepthScenes,duration_manipulation_targetAtFixation,jsons/VE125_randls_56_rotated.json,http://54.235.29.9/FacialAge/BNav_EC2/DepthDuration/v2_depth_duration_MTurk/v2_DepthDuration_HTML.html#358,358,1705,781,1364,768,8-29-2022,11-27-0,22,depth_duration_stimuli/003048_2014-06-15_13-49-43_094959634447_rgbf000150-resize_1/003048_2014-06-15_13-49-43_094959634447_rgbf000150-resize_1-target.png,125,4.0035,8,5263,125,meters,jsons/VE125_randls_56_rotated.json,636918,826754,62,Man
22,740754,DepthScenes,duration_manipulation_targetAtFixation,jsons/VE125_randls_56_rotated.json,http://54.235.29.9/FacialAge/BNav_EC2/DepthDuration/v2_depth_duration_MTurk/v2_DepthDuration_HTML.html#358,358,1705,781,1364,768,8-29-2022,11-27-0,23,depth_duration_stimuli/002043_2014-06-24_20-29-38_260595134347_rgbf000039-resize_4/002043_2014-06-24_20-29-38_260595134347_rgbf000039-resize_4-target.png,125,2.8435,8,5928,125,meters,jsons/VE125_randls_56_rotated.json,636918,826754,62,Man
23,740754,DepthScenes,duration_manipulation_targetAtFixation,jsons/VE125_randls_56_rotated.json,http://54.235.29.9/FacialAge/BNav_EC2/DepthDuration/v2_depth_duration_MTurk/v2_DepthDuration_HTML.html#358,358,1705,781,1364,768,8-29-2022,11-27-0,24,depth_duration_stimuli/001392_2014-06-19_16-07-59_260595134347_rgbf000046-resize_1/001392_2014-06-19_16-07-59_260595134347_rgbf000046-resize_1-target.png,125,4.135,4,12711,125,meters,jsons/VE125_randls_56_rotated.json,636918,826754,62,Man
24,740754,DepthScenes,duration_manipulation_targetAtFixation,jsons/VE125_randls_56_rotated.json,http://54.235.29.9/FacialAge/BNav_EC2/DepthDuration/v2_depth_duration_MTurk/v2_DepthDuration_HTML.html#358,358,1705,781,1364,768,8-29-2022,11-27-0,25,depth_duration_stimuli/001570_2014-06-20_17-21-09_260595134347_rgbf000135-resize_4/001570_2014-06-20_17-21-09_260595134347_rgbf000135-resize_4-target.png,125,4.467,3,2857,125,meters,jsons/VE125_randls_56_rotated.json,636918,826754,62,Man
25,740754,DepthScenes,duration_manipulation_targetAtFixation,jsons/VE125_randls_56_rotated.json,http://54.235.29.9/FacialAge/BNav_EC2/DepthDuration/v2_depth_duration_MTurk/v2_DepthDuration_HTML.html#358,358,1705,781,1364,768,8-29-2022,11-27-0,26,depth_duration_stimuli/002444_2014-06-28_20-32-08_260595134347_rgbf000027-resize_0/002444_2014-06-28_20-32-08_260595134347_rgbf000027-resize_0-target.png,125,4.388999999999999,4,4569,125,meters,jsons/VE125_randls_56_rotated.json,636918,826754,62,Man
26,740754,DepthScenes,duration_manipulation_targetAtFixation,jsons/VE125_randls_56_rotated.json,http://54.235.29.9/FacialAge/BNav_EC2/DepthDuration/v2_depth_duration_MTurk/v2_DepthDuration_HTML.html#358,358,1705,781,1364,768,8-29-2022,11-27-0,27,depth_duration_stimuli/000436_2014-06-09_22-25-11_260595134347_rgbf000137-resize_1/000436_2014-06-09_22-25-11_260595134347_rgbf000137-resize_1-target.png,125,4.0705,2,2500,126,meters,jsons/VE125_randls_56_rotated.json,636918,826754,62,Man
27,740754,DepthScenes,duration_manipulation_targetAtFixation,jsons/VE125_randls_56_rotated.json,http://54.235.29.9/FacialAge/BNav_EC2/DepthDuration/v2_depth_duration_MTurk/v2_DepthDuration_HTML.html#358,358,1705,781,1364,768,8-29-2022,11-27-0,28,depth_duration_stimuli/002949_2014-06-26_15-57-42_094959634447_rgbf000079-resize_1/002949_2014-06-26_15-57-42_094959634447_rgbf000079-resize_1-target.png,125,1.8915,44,8448,124,meters,jsons/VE125_randls_56_rotated.json,636918,826754,62,Man
28,740754,DepthScenes,duration_manipulation_targetAtFixation,jsons/VE125_randls_56_rotated.json,http://54.235.29.9/FacialAge/BNav_EC2/DepthDuration/v2_depth_duration_MTurk/v2_DepthDuration_HTML.html#358,358,1705,781,1364,768,8-29-2022,11-27-0,29,depth_duration_stimuli/000522_2014-06-08_13-35-06_260595134347_rgbf000244-resize_1/000522_2014-06-08_13-35-06_260595134347_rgbf000244-resize_1-target.png,125,2.3715,4,4448,124,meters,jsons/VE125_randls_56_rotated.json,636918,826754,62,Man
29,740754,DepthScenes,duration_manipulation_targetAtFixation,jsons/VE125_randls_56_rotated.json,http://54.235.29.9/FacialAge/BNav_EC2/DepthDuration/v2_depth_duration_MTurk/v2_DepthDuration_HTML.html#358,358,1705,781,1364,768,8-29-2022,11-27-0,30,depth_duration_stimuli/002072_2014-06-24_21-48-06_260595134347_rgbf000115-resize_0/002072_2014-06-24_21-48-06_260595134347_rgbf000115-resize-original.jpg,125,4.702,0,6261,124,meters,jsons/VE125_randls_56_rotated.json,636918,826754,62,Man
30,740754,DepthScenes,duration_manipulation_targetAtFixation,jsons/VE125_randls_56_rotated.json,http://54.235.29.9/FacialAge/BNav_EC2/DepthDuration/v2_depth_duration_MTurk/v2_DepthDuration_HTML.html#358,358,1705,781,1364,768,8-29-2022,11-27-0,31,depth_duration_stimuli/003079_2014-06-15_15-18-20_094959634447_rgbf000152-resize_8/003079_2014-06-15_15-18-20_094959634447_rgbf000152-resize_8-target.png,125,2.8775,2,4056,124,meters,jsons/VE125_randls_56_rotated.json,636918,826754,62,Man
31,740754,DepthScenes,duration_manipulation_targetAtFixation,jsons/VE125_randls_56_rotated.json,http://54.235.29.9/FacialAge/BNav_EC2/DepthDuration/v2_depth_duration_MTurk/v2_DepthDuration_HTML.html#358,358,1705,781,1364,768,8-29-2022,11-27-0,32,depth_duration_stimuli/000506_2014-06-08_23-21-00_260595134347_rgbf000070-resize_7/000506_2014-06-08_23-21-00_260595134347_rgbf000070-resize_7-target.png,125,4.0585,4,2367,125,meters,jsons/VE125_randls_56_rotated.json,636918,826754,62,Man
32,740754,DepthScenes,duration_manipulation_targetAtFixation,jsons/VE125_randls_56_rotated.json,http://54.235.29.9/FacialAge/BNav_EC2/DepthDuration/v2_depth_duration_MTurk/v2_DepthDuration_HTML.html#358,358,1705,781,1364,768,8-29-2022,11-27-0,33,depth_duration_stimuli/002467_2014-06-28_20-38-07_260595134347_rgbf000026-resize_2/002467_2014-06-28_20-38-07_260595134347_rgbf000026-resize_2-target.png,125,4.742,5,3399,125,meters,jsons/VE125_randls_56_rotated.json,636918,826754,62,Man
33,740754,DepthScenes,duration_manipulation_targetAtFixation,jsons/VE125_randls_56_rotated.json,http://54.235.29.9/FacialAge/BNav_EC2/DepthDuration/v2_depth_duration_MTurk/v2_DepthDuration_HTML.html#358,358,1705,781,1364,768,8-29-2022,11-27-0,34,depth_duration_stimuli/002570_2014-06-24_13-59-54_094959634447_rgbf000059-resize_0/002570_2014-06-24_13-59-54_094959634447_rgbf000059-resize_0-target.png,125,4.037,4,1668,124,meters,jsons/VE125_randls_56_rotated.json,636918,826754,62,Man
34,740754,DepthScenes,duration_manipulation_targetAtFixation,jsons/VE125_randls_56_rotated.json,http://54.235.29.9/FacialAge/BNav_EC2/DepthDuration/v2_depth_duration_MTurk/v2_DepthDuration_HTML.html#358,358,1705,781,1364,768,8-29-2022,11-27-0,35,depth_duration_stimuli/001450_2014-06-19_17-02-03_260595134347_rgbf000203-resize_4/001450_2014-06-19_17-02-03_260595134347_rgbf000203-resize_4-target.png,125,4.0106666666667,4,3079,126,meters,jsons/VE125_randls_56_rotated.json,636918,826754,62,Man
35,740754,DepthScenes,duration_manipulation_targetAtFixation,jsons/VE125_randls_56_rotated.json,http://54.235.29.9/FacialAge/BNav_EC2/DepthDuration/v2_depth_duration_MTurk/v2_DepthDuration_HTML.html#358,358,1705,781,1364,768,8-29-2022,11-27-0,36,depth_duration_stimuli/001449_2014-06-19_17-01-27_260595134347_rgbf000116-resize_2/001449_2014-06-19_17-01-27_260595134347_rgbf000116-resize_2-target.png,125,3.452,4,2198,124,meters,jsons/VE125_randls_56_rotated.json,636918,826754,62,Man
36,740754,DepthScenes,duration_manipulation_targetAtFixation,jsons/VE125_randls_56_rotated.json,http://54.235.29.9/FacialAge/BNav_EC2/DepthDuration/v2_depth_duration_MTurk/v2_DepthDuration_HTML.html#358,358,1705,781,1364,768,8-29-2022,11-27-0,37,depth_duration_stimuli/000409_2014-06-04_19-23-33_260595134347_rgbf000067-resize_0/000409_2014-06-04_19-23-33_260595134347_rgbf000067-resize_0-target.png,125,3.7335,6,2329,125,meters,jsons/VE125_randls_56_rotated.json,636918,826754,62,Man
37,740754,DepthScenes,duration_manipulation_targetAtFixation,jsons/VE125_randls_56_rotated.json,http://54.235.29.9/FacialAge/BNav_EC2/DepthDuration/v2_depth_duration_MTurk/v2_DepthDuration_HTML.html#358,358,1705,781,1364,768,8-29-2022,11-27-0,38,depth_duration_stimuli/002663_2014-06-13_15-50-26_094959634447_rgbf000075-resize_1/002663_2014-06-13_15-50-26_094959634447_rgbf000075-resize_1-target.png,125,4.7495,5,2010,125,meters,jsons/VE125_randls_56_rotated.json,636918,826754,62,Man
38,740754,DepthScenes,duration_manipulation_targetAtFixation,jsons/VE125_randls_56_rotated.json,http://54.235.29.9/FacialAge/BNav_EC2/DepthDuration/v2_depth_duration_MTurk/v2_DepthDuration_HTML.html#358,358,1705,781,1364,768,8-29-2022,11-27-0,39,depth_duration_stimuli/003228_2014-05-14_13-42-35_094959634447_rgbf000101-resize_1/003228_2014-05-14_13-42-35_094959634447_rgbf000101-resize_1-target.png,125,1.9680000000000002,4,2500,66,meters,jsons/VE125_randls_56_rotated.json,636918,826754,62,Man
39,740754,DepthScenes,duration_manipulation_targetAtFixation,jsons/VE125_randls_56_rotated.json,http://54.235.29.9/FacialAge/BNav_EC2/DepthDuration/v2_depth_duration_MTurk/v2_DepthDuration_HTML.html#358,358,1705,781,1364,768,8-29-2022,11-27-0,40,depth_duration_stimuli/002600_2014-06-24_14-27-04_094959634447_rgbf000074-resize_2/002600_2014-06-24_14-27-04_094959634447_rgbf000074-resize_2-target.png,125,2.7575,5,2090,125,meters,jsons/VE125_randls_56_rotated.json,636918,826754,62,Man
40,740754,DepthScenes,duration_manipulation_targetAtFixation,jsons/VE125_randls_56_rotated.json,http://54.235.29.9/FacialAge/BNav_EC2/DepthDuration/v2_depth_duration_MTurk/v2_DepthDuration_HTML.html#358,358,1705,781,1364,768,8-29-2022,11-27-0,41,depth_duration_stimuli/000734_2014-06-08_17-39-11_260595134347_rgbf000128-resize_2/000734_2014-06-08_17-39-11_260595134347_rgbf000128-resize_2-target.png,125,4.098,5,5477,127,meters,jsons/VE125_randls_56_rotated.json,636918,826754,62,Man
41,740754,DepthScenes,duration_manipulation_targetAtFixation,jsons/VE125_randls_56_rotated.json,http://54.235.29.9/FacialAge/BNav_EC2/DepthDuration/v2_depth_duration_MTurk/v2_DepthDuration_HTML.html#358,358,1705,781,1364,768,8-29-2022,11-27-0,42,depth_duration_stimuli/000739_2014-06-08_18-45-58_260595134347_rgbf000068-resize_1/000739_2014-06-08_18-45-58_260595134347_rgbf000068-resize_1-target.png,125,3.534,4,2066,130,meters,jsons/VE125_randls_56_rotated.json,636918,826754,62,Man
42,740754,DepthScenes,duration_manipulation_targetAtFixation,jsons/VE125_randls_56_rotated.json,http://54.235.29.9/FacialAge/BNav_EC2/DepthDuration/v2_depth_duration_MTurk/v2_DepthDuration_HTML.html#358,358,1705,781,1364,768,8-29-2022,11-27-0,43,depth_duration_stimuli/001052_2014-06-08_18-24-54_260595134347_rgbf000130-resize_1/001052_2014-06-08_18-24-54_260595134347_rgbf000130-resize_1-target.png,125,4.1045,5,2577,124,meters,jsons/VE125_randls_56_rotated.json,636918,826754,62,Man
43,740754,DepthScenes,duration_manipulation_targetAtFixation,jsons/VE125_randls_56_rotated.json,http://54.235.29.9/FacialAge/BNav_EC2/DepthDuration/v2_depth_duration_MTurk/v2_DepthDuration_HTML.html#358,358,1705,781,1364,768,8-29-2022,11-27-0,44,depth_duration_stimuli/002988_2014-06-15_12-24-20_094959634447_rgbf000150-resize_1/002988_2014-06-15_12-24-20_094959634447_rgbf000150-resize_1-target.png,125,4.7669999999999995,9,2362,125,meters,jsons/VE125_randls_56_rotated.json,636918,826754,62,Man
44,740754,DepthScenes,duration_manipulation_targetAtFixation,jsons/VE125_randls_56_rotated.json,http://54.235.29.9/FacialAge/BNav_EC2/DepthDuration/v2_depth_duration_MTurk/v2_DepthDuration_HTML.html#358,358,1705,781,1364,768,8-29-2022,11-27-0,45,depth_duration_stimuli/000749_2014-06-08_21-55-06_260595134347_rgbf000070-resize_2/000749_2014-06-08_21-55-06_260595134347_rgbf000070-resize_2-target.png,125,2.331,4,3357,125,meters,jsons/VE125_randls_56_rotated.json,636918,826754,62,Man
45,740754,DepthScenes,duration_manipulation_targetAtFixation,jsons/VE125_randls_56_rotated.json,http://54.235.29.9/FacialAge/BNav_EC2/DepthDuration/v2_depth_duration_MTurk/v2_DepthDuration_HTML.html#358,358,1705,781,1364,768,8-29-2022,11-27-0,46,depth_duration_stimuli/002788_2014-06-22_19-36-03_094959634447_rgbf000088-resize_2/002788_2014-06-22_19-36-03_094959634447_rgbf000088-resize_2-target.png,125,1.6465,2,1954,124,meters,jsons/VE125_randls_56_rotated.json,636918,826754,62,Man
46,740754,DepthScenes,duration_manipulation_targetAtFixation,jsons/VE125_randls_56_rotated.json,http://54.235.29.9/FacialAge/BNav_EC2/DepthDuration/v2_depth_duration_MTurk/v2_DepthDuration_HTML.html#358,358,1705,781,1364,768,8-29-2022,11-27-0,47,depth_duration_stimuli/002545_2014-06-24_13-38-53_094959634447_rgbf000080-resize_4/002545_2014-06-24_13-38-53_094959634447_rgbf000080-resize_4-target.png,125,1.9205,3,2603,124,meters,jsons/VE125_randls_56_rotated.json,636918,826754,62,Man
47,740754,DepthScenes,duration_manipulation_targetAtFixation,jsons/VE125_randls_56_rotated.json,http://54.235.29.9/FacialAge/BNav_EC2/DepthDuration/v2_depth_duration_MTurk/v2_DepthDuration_HTML.html#358,358,1705,781,1364,768,8-29-2022,11-27-0,48,depth_duration_stimuli/001092_2014-06-15_17-34-58_260595134347_rgbf000171-resize_3/001092_2014-06-15_17-34-58_260595134347_rgbf000171-resize_3-target.png,125,2.6935,5,1868,125,meters,jsons/VE125_randls_56_rotated.json,636918,826754,62,Man
48,740754,DepthScenes,duration_manipulation_targetAtFixation,jsons/VE125_randls_56_rotated.json,http://54.235.29.9/FacialAge/BNav_EC2/DepthDuration/v2_depth_duration_MTurk/v2_DepthDuration_HTML.html#358,358,1705,781,1364,768,8-29-2022,11-27-0,49,depth_duration_stimuli/001170_2014-06-17_15-43-44_260595134347_rgbf000096-resize_6/001170_2014-06-17_15-43-44_260595134347_rgbf000096-resize-original.jpg,125,1.1909999999999998,3,2519,125,meters,jsons/VE125_randls_56_rotated.json,636918,826754,62,Man
49,740754,DepthScenes,duration_manipulation_targetAtFixation,jsons/VE125_randls_56_rotated.json,http://54.235.29.9/FacialAge/BNav_EC2/DepthDuration/v2_depth_duration_MTurk/v2_DepthDuration_HTML.html#358,358,1705,781,1364,768,8-29-2022,11-27-0,50,depth_duration_stimuli/000137_2014-05-20_17-04-49_260595134347_rgbf000120-resize_1/000137_2014-05-20_17-04-49_260595134347_rgbf000120-resize_1-target.png,125,3.786,5,2610,124,meters,jsons/VE125_randls_56_rotated.json,636918,826754,62,Man
50,740754,DepthScenes,duration_manipulation_targetAtFixation,jsons/VE125_randls_56_rotated.json,http://54.235.29.9/FacialAge/BNav_EC2/DepthDuration/v2_depth_duration_MTurk/v2_DepthDuration_HTML.html#358,358,1705,781,1364,768,8-29-2022,11-27-0,51,depth_duration_stimuli/000736_2014-06-08_18-24-15_260595134347_rgbf000206-resize_3/000736_2014-06-08_18-24-15_260595134347_rgbf000206-resize_3-target.png,125,3.515,4,2246,125,meters,jsons/VE125_randls_56_rotated.json,636918,826754,62,Man
51,740754,DepthScenes,duration_manipulation_targetAtFixation,jsons/VE125_randls_56_rotated.json,http://54.235.29.9/FacialAge/BNav_EC2/DepthDuration/v2_depth_duration_MTurk/v2_DepthDuration_HTML.html#358,358,1705,781,1364,768,8-29-2022,11-27-0,52,depth_duration_stimuli/002414_2014-06-28_20-24-58_260595134347_rgbf000067-resize_4/002414_2014-06-28_20-24-58_260595134347_rgbf000067-resize_4-target.png,125,4.363,2,2248,125,meters,jsons/VE125_randls_56_rotated.json,636918,826754,62,Man
52,740754,DepthScenes,duration_manipulation_targetAtFixation,jsons/VE125_randls_56_rotated.json,http://54.235.29.9/FacialAge/BNav_EC2/DepthDuration/v2_depth_duration_MTurk/v2_DepthDuration_HTML.html#358,358,1705,781,1364,768,8-29-2022,11-27-0,53,depth_duration_stimuli/000773_2014-06-08_22-24-54_260595134347_rgbf000093-resize_1/000773_2014-06-08_22-24-54_260595134347_rgbf000093-resize_1-target.png,125,4.973,5,2550,126,meters,jsons/VE125_randls_56_rotated.json,636918,826754,62,Man
53,740754,DepthScenes,duration_manipulation_targetAtFixation,jsons/VE125_randls_56_rotated.json,http://54.235.29.9/FacialAge/BNav_EC2/DepthDuration/v2_depth_duration_MTurk/v2_DepthDuration_HTML.html#358,358,1705,781,1364,768,8-29-2022,11-27-0,54,depth_duration_stimuli/003495_2014-05-21_16-01-51_094959634447_rgbf000100-resize_3/003495_2014-05-21_16-01-51_094959634447_rgbf000100-resize_3-target.png,125,1.6255,4,3342,125,meters,jsons/VE125_randls_56_rotated.json,636918,826754,62,Man
54,740754,DepthScenes,duration_manipulation_targetAtFixation,jsons/VE125_randls_56_rotated.json,http://54.235.29.9/FacialAge/BNav_EC2/DepthDuration/v2_depth_duration_MTurk/v2_DepthDuration_HTML.html#358,358,1705,781,1364,768,8-29-2022,11-27-0,55,depth_duration_stimuli/001244_2014-06-17_16-47-45_260595134347_rgbf000030-resize_4/001244_2014-06-17_16-47-45_260595134347_rgbf000030-resize_4-target.png,125,2.0425,5,1767,123,meters,jsons/VE125_randls_56_rotated.json,636918,826754,62,Man
55,740754,DepthScenes,duration_manipulation_targetAtFixation,jsons/VE125_randls_56_rotated.json,http://54.235.29.9/FacialAge/BNav_EC2/DepthDuration/v2_depth_duration_MTurk/v2_DepthDuration_HTML.html#358,358,1705,781,1364,768,8-29-2022,11-27-0,56,depth_duration_stimuli/003490_2014-05-21_15-50-11_094959634447_rgbf000101-resize_3/003490_2014-05-21_15-50-11_094959634447_rgbf000101-resize_3-target.png,125,3.6445,4,12163,126,meters,jsons/VE125_randls_56_rotated.json,636918,826754,62,Man
56,740754,DepthScenes,duration_manipulation_targetAtFixation,jsons/VE125_randls_56_rotated.json,http://54.235.29.9/FacialAge/BNav_EC2/DepthDuration/v2_depth_duration_MTurk/v2_DepthDuration_HTML.html#358,358,1705,781,1364,768,8-29-2022,11-27-0,57,depth_duration_stimuli/001175_2014-06-17_15-45-55_260595134347_rgbf000129-resize_4/001175_2014-06-17_15-45-55_260595134347_rgbf000129-resize_4-target.png,125,4.255,7,7245,124,meters,jsons/VE125_randls_56_rotated.json,636918,826754,62,Man
57,740754,DepthScenes,duration_manipulation_targetAtFixation,jsons/VE125_randls_56_rotated.json,http://54.235.29.9/FacialAge/BNav_EC2/DepthDuration/v2_depth_duration_MTurk/v2_DepthDuration_HTML.html#358,358,1705,781,1364,768,8-29-2022,11-27-0,58,depth_duration_stimuli/000665_2014-06-09_20-42-35_260595134347_rgbf000110-resize_1/000665_2014-06-09_20-42-35_260595134347_rgbf000110-resize_1-target.png,125,3.057,2,6336,112,meters,jsons/VE125_randls_56_rotated.json,636918,826754,62,Man
58,740754,DepthScenes,duration_manipulation_targetAtFixation,jsons/VE125_randls_56_rotated.json,http://54.235.29.9/FacialAge/BNav_EC2/DepthDuration/v2_depth_duration_MTurk/v2_DepthDuration_HTML.html#358,358,1705,781,1364,768,8-29-2022,11-27-0,59,depth_duration_stimuli/001150_2014-06-17_15-27-34_260595134347_rgbf000108-resize_2/001150_2014-06-17_15-27-34_260595134347_rgbf000108-resize_2-target.png,125,4.0325,3,4007,125,meters,jsons/VE125_randls_56_rotated.json,636918,826754,62,Man
59,740754,DepthScenes,duration_manipulation_targetAtFixation,jsons/VE125_randls_56_rotated.json,http://54.235.29.9/FacialAge/BNav_EC2/DepthDuration/v2_depth_duration_MTurk/v2_DepthDuration_HTML.html#358,358,1705,781,1364,768,8-29-2022,11-27-0,60,depth_duration_stimuli/001650_2014-06-20_12-09-00_260595134347_rgbf000087-resize_3/001650_2014-06-20_12-09-00_260595134347_rgbf000087-resize_3-target.png,125,1.9505,5,5471,125,meters,jsons/VE125_randls_56_rotated.json,636918,826754,62,Man
60,740754,DepthScenes,duration_manipulation_targetAtFixation,jsons/VE125_randls_56_rotated.json,http://54.235.29.9/FacialAge/BNav_EC2/DepthDuration/v2_depth_duration_MTurk/v2_DepthDuration_HTML.html#358,358,1705,781,1364,768,8-29-2022,11-27-0,61,depth_duration_stimuli/000682_2014-06-08_23-14-58_260595134347_rgbf000041-resize_5/000682_2014-06-08_23-14-58_260595134347_rgbf000041-resize_5-target.png,125,2.7239999999999998,7,4217,124,meters,jsons/VE125_randls_56_rotated.json,636918,826754,62,Man
61,740754,DepthScenes,duration_manipulation_targetAtFixation,jsons/VE125_randls_56_rotated.json,http://54.235.29.9/FacialAge/BNav_EC2/DepthDuration/v2_depth_duration_MTurk/v2_DepthDuration_HTML.html#358,358,1705,781,1364,768,8-29-2022,11-27-0,62,depth_duration_stimuli/001136_2014-06-17_15-19-41_260595134347_rgbf000076-resize_3/001136_2014-06-17_15-19-41_260595134347_rgbf000076-resize_3-target.png,125,1.8655,5,4558,124,meters,jsons/VE125_randls_56_rotated.json,636918,826754,62,Man
62,740754,DepthScenes,duration_manipulation_targetAtFixation,jsons/VE125_randls_56_rotated.json,http://54.235.29.9/FacialAge/BNav_EC2/DepthDuration/v2_depth_duration_MTurk/v2_DepthDuration_HTML.html#358,358,1705,781,1364,768,8-29-2022,11-27-0,63,depth_duration_stimuli/001164_2014-06-17_15-35-46_260595134347_rgbf000085-resize_3/001164_2014-06-17_15-35-46_260595134347_rgbf000085-resize_3-target.png,125,2.354,7,1853,126,meters,jsons/VE125_randls_56_rotated.json,636918,826754,62,Man
63,740754,DepthScenes,duration_manipulation_targetAtFixation,jsons/VE125_randls_56_rotated.json,http://54.235.29.9/FacialAge/BNav_EC2/DepthDuration/v2_depth_duration_MTurk/v2_DepthDuration_HTML.html#358,358,1705,781,1364,768,8-29-2022,11-27-0,64,depth_duration_stimuli/000635_2014-06-08_16-38-42_260595134347_rgbf000106-resize_1/000635_2014-06-08_16-38-42_260595134347_rgbf000106-resize_1-target.png,125,2.074,4,3915,124,meters,jsons/VE125_randls_56_rotated.json,636918,826754,62,Man
64,740754,DepthScenes,duration_manipulation_targetAtFixation,jsons/VE125_randls_56_rotated.json,http://54.235.29.9/FacialAge/BNav_EC2/DepthDuration/v2_depth_duration_MTurk/v2_DepthDuration_HTML.html#358,358,1705,781,1364,768,8-29-2022,11-27-0,65,depth_duration_stimuli/002279_2014-06-28_18-55-32_260595134347_rgbf000040-resize_5/002279_2014-06-28_18-55-32_260595134347_rgbf000040-resize_5-target.png,125,1.5043333333333,7,2877,124,meters,jsons/VE125_randls_56_rotated.json,636918,826754,62,Man
65,740754,DepthScenes,duration_manipulation_targetAtFixation,jsons/VE125_randls_56_rotated.json,http://54.235.29.9/FacialAge/BNav_EC2/DepthDuration/v2_depth_duration_MTurk/v2_DepthDuration_HTML.html#358,358,1705,781,1364,768,8-29-2022,11-27-0,66,depth_duration_stimuli/001540_2014-06-20_17-01-05_260595134347_rgbf000086-resize_2/001540_2014-06-20_17-01-05_260595134347_rgbf000086-resize-original.jpg,125,1.459,8,4249,124,meters,jsons/VE125_randls_56_rotated.json,636918,826754,62,Man
66,740754,DepthScenes,duration_manipulation_targetAtFixation,jsons/VE125_randls_56_rotated.json,http://54.235.29.9/FacialAge/BNav_EC2/DepthDuration/v2_depth_duration_MTurk/v2_DepthDuration_HTML.html#358,358,1705,781,1364,768,8-29-2022,11-27-0,67,depth_duration_stimuli/000866_2014-06-09_20-45-42_260595134347_rgbf000139-resize_1/000866_2014-06-09_20-45-42_260595134347_rgbf000139-resize_1-target.png,125,3.2155,7,3807,124,meters,jsons/VE125_randls_56_rotated.json,636918,826754,62,Man
67,740754,DepthScenes,duration_manipulation_targetAtFixation,jsons/VE125_randls_56_rotated.json,http://54.235.29.9/FacialAge/BNav_EC2/DepthDuration/v2_depth_duration_MTurk/v2_DepthDuration_HTML.html#358,358,1705,781,1364,768,8-29-2022,11-27-0,68,depth_duration_stimuli/002989_2014-06-15_12-25-03_094959634447_rgbf000150-resize_3/002989_2014-06-15_12-25-03_094959634447_rgbf000150-resize_3-target.png,125,4.1975,9,3709,124,meters,jsons/VE125_randls_56_rotated.json,636918,826754,62,Man
68,740754,DepthScenes,duration_manipulation_targetAtFixation,jsons/VE125_randls_56_rotated.json,http://54.235.29.9/FacialAge/BNav_EC2/DepthDuration/v2_depth_duration_MTurk/v2_DepthDuration_HTML.html#358,358,1705,781,1364,768,8-29-2022,11-27-0,69,depth_duration_stimuli/000943_2014-06-09_19-31-07_260595134347_rgbf000128-resize_1/000943_2014-06-09_19-31-07_260595134347_rgbf000128-resize_1-target.png,125,1.9765,5,7389,95,meters,jsons/VE125_randls_56_rotated.json,636918,826754,62,Man
69,740754,DepthScenes,duration_manipulation_targetAtFixation,jsons/VE125_randls_56_rotated.json,http://54.235.29.9/FacialAge/BNav_EC2/DepthDuration/v2_depth_duration_MTurk/v2_DepthDuration_HTML.html#358,358,1705,781,1364,768,8-29-2022,11-27-0,70,depth_duration_stimuli/003070_2014-06-15_14-58-27_094959634447_rgbf000150-resize_3/003070_2014-06-15_14-58-27_094959634447_rgbf000150-resize_3-target.png,125,2.9415,5,2138,123,meters,jsons/VE125_randls_56_rotated.json,636918,826754,62,Man
70,740754,DepthScenes,duration_manipulation_targetAtFixation,jsons/VE125_randls_56_rotated.json,http://54.235.29.9/FacialAge/BNav_EC2/DepthDuration/v2_depth_duration_MTurk/v2_DepthDuration_HTML.html#358,358,1705,781,1364,768,8-29-2022,11-27-0,71,depth_duration_stimuli/002875_2014-06-01_15-19-00_094959634447_rgbf000151-resize_1/002875_2014-06-01_15-19-00_094959634447_rgbf000151-resize_1-target.png,125,1.9675,5,3675,120,meters,jsons/VE125_randls_56_rotated.json,636918,826754,62,Man
71,740754,DepthScenes,duration_manipulation_targetAtFixation,jsons/VE125_randls_56_rotated.json,http://54.235.29.9/FacialAge/BNav_EC2/DepthDuration/v2_depth_duration_MTurk/v2_DepthDuration_HTML.html#358,358,1705,781,1364,768,8-29-2022,11-27-0,72,depth_duration_stimuli/001011_2014-06-08_23-18-54_260595134347_rgbf000044-resize_4/001011_2014-06-08_23-18-54_260595134347_rgbf000044-resize_4-target.png,125,2.4730000000000003,5,2239,124,meters,jsons/VE125_randls_56_rotated.json,636918,826754,62,Man
72,740754,DepthScenes,duration_manipulation_targetAtFixation,jsons/VE125_randls_56_rotated.json,http://54.235.29.9/FacialAge/BNav_EC2/DepthDuration/v2_depth_duration_MTurk/v2_DepthDuration_HTML.html#358,358,1705,781,1364,768,8-29-2022,11-27-0,73,depth_duration_stimuli/002995_2014-06-15_12-31-26_094959634447_rgbf000150-resize_1/002995_2014-06-15_12-31-26_094959634447_rgbf000150-resize_1-target.png,125,3.8360000000000003,7,8638,124,meters,jsons/VE125_randls_56_rotated.json,636918,826754,62,Man
73,740754,DepthScenes,duration_manipulation_targetAtFixation,jsons/VE125_randls_56_rotated.json,http://54.235.29.9/FacialAge/BNav_EC2/DepthDuration/v2_depth_duration_MTurk/v2_DepthDuration_HTML.html#358,358,1705,781,1364,768,8-29-2022,11-27-0,74,depth_duration_stimuli/002748_2014-06-22_19-07-22_094959634447_rgbf000078-resize_1/002748_2014-06-22_19-07-22_094959634447_rgbf000078-resize_1-target.png,125,4.6705,7,2588,125,meters,jsons/VE125_randls_56_rotated.json,636918,826754,62,Man
74,740754,DepthScenes,duration_manipulation_targetAtFixation,jsons/VE125_randls_56_rotated.json,http://54.235.29.9/FacialAge/BNav_EC2/DepthDuration/v2_depth_duration_MTurk/v2_DepthDuration_HTML.html#358,358,1705,781,1364,768,8-29-2022,11-27-0,75,depth_duration_stimuli/002750_2014-06-22_19-08-03_094959634447_rgbf000094-resize_4/002750_2014-06-22_19-08-03_094959634447_rgbf000094-resize_4-target.png,125,2.354,7,4708,125,meters,jsons/VE125_randls_56_rotated.json,636918,826754,62,Man
75,740754,DepthScenes,duration_manipulation_targetAtFixation,jsons/VE125_randls_56_rotated.json,http://54.235.29.9/FacialAge/BNav_EC2/DepthDuration/v2_depth_duration_MTurk/v2_DepthDuration_HTML.html#358,358,1705,781,1364,768,8-29-2022,11-27-0,76,depth_duration_stimuli/002549_2014-06-24_13-41-39_094959634447_rgbf000022-resize_3/002549_2014-06-24_13-41-39_094959634447_rgbf000022-resize_3-target.png,125,1.476,8,2548,124,meters,jsons/VE125_randls_56_rotated.json,636918,826754,62,Man
76,740754,DepthScenes,duration_manipulation_targetAtFixation,jsons/VE125_randls_56_rotated.json,http://54.235.29.9/FacialAge/BNav_EC2/DepthDuration/v2_depth_duration_MTurk/v2_DepthDuration_HTML.html#358,358,1705,781,1364,768,8-29-2022,11-27-0,77,depth_duration_stimuli/002199_2014-06-28_18-33-56_260595134347_rgbf000074-resize_0/002199_2014-06-28_18-33-56_260595134347_rgbf000074-resize_0-target.png,125,1.996,7,3399,123,meters,jsons/VE125_randls_56_rotated.json,636918,826754,62,Man
77,740754,DepthScenes,duration_manipulation_targetAtFixation,jsons/VE125_randls_56_rotated.json,http://54.235.29.9/FacialAge/BNav_EC2/DepthDuration/v2_depth_duration_MTurk/v2_DepthDuration_HTML.html#358,358,1705,781,1364,768,8-29-2022,11-27-0,78,depth_duration_stimuli/001056_2014-06-08_18-46-44_260595134347_rgbf000068-resize_0/001056_2014-06-08_18-46-44_260595134347_rgbf000068-resize_0-target.png,125,2.6625,7,1795,124,meters,jsons/VE125_randls_56_rotated.json,636918,826754,62,Man
78,740754,DepthScenes,duration_manipulation_targetAtFixation,jsons/VE125_randls_56_rotated.json,http://54.235.29.9/FacialAge/BNav_EC2/DepthDuration/v2_depth_duration_MTurk/v2_DepthDuration_HTML.html#358,358,1705,781,1364,768,8-29-2022,11-27-0,79,depth_duration_stimuli/001617_2014-06-20_11-35-32_260595134347_rgbf000066-resize_1/001617_2014-06-20_11-35-32_260595134347_rgbf000066-resize_1-target.png,125,3.7910000000000004,7,4941,124,meters,jsons/VE125_randls_56_rotated.json,636918,826754,62,Man
79,740754,DepthScenes,duration_manipulation_targetAtFixation,jsons/VE125_randls_56_rotated.json,http://54.235.29.9/FacialAge/BNav_EC2/DepthDuration/v2_depth_duration_MTurk/v2_DepthDuration_HTML.html#358,358,1705,781,1364,768,8-29-2022,11-27-0,80,depth_duration_stimuli/001806_2014-06-26_20-50-20_260595134347_rgbf000091-resize_1/001806_2014-06-26_20-50-20_260595134347_rgbf000091-resize_1-target.png,125,2.7305,4,2237,125,meters,jsons/VE125_randls_56_rotated.json,636918,826754,62,Man
80,740754,DepthScenes,duration_manipulation_targetAtFixation,jsons/VE125_randls_56_rotated.json,http://54.235.29.9/FacialAge/BNav_EC2/DepthDuration/v2_depth_duration_MTurk/v2_DepthDuration_HTML.html#358,358,1705,781,1364,768,8-29-2022,11-27-0,81,depth_duration_stimuli/002758_2014-06-22_19-11-20_094959634447_rgbf000128-resize_1/002758_2014-06-22_19-11-20_094959634447_rgbf000128-resize_1-target.png,125,2.555,7,4489,125,meters,jsons/VE125_randls_56_rotated.json,636918,826754,62,Man
81,740754,DepthScenes,duration_manipulation_targetAtFixation,jsons/VE125_randls_56_rotated.json,http://54.235.29.9/FacialAge/BNav_EC2/DepthDuration/v2_depth_duration_MTurk/v2_DepthDuration_HTML.html#358,358,1705,781,1364,768,8-29-2022,11-27-0,82,depth_duration_stimuli/002630_2014-06-24_14-47-50_094959634447_rgbf000055-resize_1/002630_2014-06-24_14-47-50_094959634447_rgbf000055-resize_1-target.png,125,3.0095,9,2669,147,meters,jsons/VE125_randls_56_rotated.json,636918,826754,62,Man
82,740754,DepthScenes,duration_manipulation_targetAtFixation,jsons/VE125_randls_56_rotated.json,http://54.235.29.9/FacialAge/BNav_EC2/DepthDuration/v2_depth_duration_MTurk/v2_DepthDuration_HTML.html#358,358,1705,781,1364,768,8-29-2022,11-27-0,83,depth_duration_stimuli/000502_2014-06-08_23-02-32_260595134347_rgbf000063-resize_4/000502_2014-06-08_23-02-32_260595134347_rgbf000063-resize_4-target.png,125,2.431,4,2875,125,meters,jsons/VE125_randls_56_rotated.json,636918,826754,62,Man
83,740754,DepthScenes,duration_manipulation_targetAtFixation,jsons/VE125_randls_56_rotated.json,http://54.235.29.9/FacialAge/BNav_EC2/DepthDuration/v2_depth_duration_MTurk/v2_DepthDuration_HTML.html#358,358,1705,781,1364,768,8-29-2022,11-27-0,84,depth_duration_stimuli/001199_2014-06-17_16-03-48_260595134347_rgbf000077-resize_0/001199_2014-06-17_16-03-48_260595134347_rgbf000077-resize_0-target.png,125,3.4375,4,2092,124,meters,jsons/VE125_randls_56_rotated.json,636918,826754,62,Man
84,740754,DepthScenes,duration_manipulation_targetAtFixation,jsons/VE125_randls_56_rotated.json,http://54.235.29.9/FacialAge/BNav_EC2/DepthDuration/v2_depth_duration_MTurk/v2_DepthDuration_HTML.html#358,358,1705,781,1364,768,8-29-2022,11-27-0,85,depth_duration_stimuli/000709_2014-06-08_13-51-55_260595134347_rgbf000068-resize_3/000709_2014-06-08_13-51-55_260595134347_rgbf000068-resize_3-target.png,125,1.8030000000000002,4,2598,125,meters,jsons/VE125_randls_56_rotated.json,636918,826754,62,Man
85,740754,DepthScenes,duration_manipulation_targetAtFixation,jsons/VE125_randls_56_rotated.json,http://54.235.29.9/FacialAge/BNav_EC2/DepthDuration/v2_depth_duration_MTurk/v2_DepthDuration_HTML.html#358,358,1705,781,1364,768,8-29-2022,11-27-0,86,depth_duration_stimuli/002057_2014-06-24_21-00-13_260595134347_rgbf000120-resize_1/002057_2014-06-24_21-00-13_260595134347_rgbf000120-resize_1-target.png,125,2.967,4,2228,124,meters,jsons/VE125_randls_56_rotated.json,636918,826754,62,Man
86,740754,DepthScenes,duration_manipulation_targetAtFixation,jsons/VE125_randls_56_rotated.json,http://54.235.29.9/FacialAge/BNav_EC2/DepthDuration/v2_depth_duration_MTurk/v2_DepthDuration_HTML.html#358,358,1705,781,1364,768,8-29-2022,11-27-0,87,depth_duration_stimuli/001132_2014-06-17_14-48-54_260595134347_rgbf000100-resize_2/001132_2014-06-17_14-48-54_260595134347_rgbf000100-resize_2-target.png,125,3.753,7,3029,124,meters,jsons/VE125_randls_56_rotated.json,636918,826754,62,Man
87,740754,DepthScenes,duration_manipulation_targetAtFixation,jsons/VE125_randls_56_rotated.json,http://54.235.29.9/FacialAge/BNav_EC2/DepthDuration/v2_depth_duration_MTurk/v2_DepthDuration_HTML.html#358,358,1705,781,1364,768,8-29-2022,11-27-0,88,depth_duration_stimuli/001133_2014-06-17_14-49-16_260595134347_rgbf000100-resize_0/001133_2014-06-17_14-49-16_260595134347_rgbf000100-resize_0-target.png,125,4.2115,7,2209,125,meters,jsons/VE125_randls_56_rotated.json,636918,826754,62,Man
88,740754,DepthScenes,duration_manipulation_targetAtFixation,jsons/VE125_randls_56_rotated.json,http://54.235.29.9/FacialAge/BNav_EC2/DepthDuration/v2_depth_duration_MTurk/v2_DepthDuration_HTML.html#358,358,1705,781,1364,768,8-29-2022,11-27-0,89,depth_duration_stimuli/001235_2014-06-17_16-37-36_260595134347_rgbf000084-resize_4/001235_2014-06-17_16-37-36_260595134347_rgbf000084-resize_4-target.png,125,3.6605,4,3158,124,meters,jsons/VE125_randls_56_rotated.json,636918,826754,62,Man
89,740754,DepthScenes,duration_manipulation_targetAtFixation,jsons/VE125_randls_56_rotated.json,http://54.235.29.9/FacialAge/BNav_EC2/DepthDuration/v2_depth_duration_MTurk/v2_DepthDuration_HTML.html#358,358,1705,781,1364,768,8-29-2022,11-27-0,90,depth_duration_stimuli/000788_2014-06-08_22-34-36_260595134347_rgbf000131-resize_1/000788_2014-06-08_22-34-36_260595134347_rgbf000131-resize_1-target.png,125,3.359,6,2700,123,meters,jsons/VE125_randls_56_rotated.json,636918,826754,62,Man
90,740754,DepthScenes,duration_manipulation_targetAtFixation,jsons/VE125_randls_56_rotated.json,http://54.235.29.9/FacialAge/BNav_EC2/DepthDuration/v2_depth_duration_MTurk/v2_DepthDuration_HTML.html#358,358,1705,781,1364,768,8-29-2022,11-27-0,91,depth_duration_stimuli/003083_2014-06-15_15-21-03_094959634447_rgbf000063-resize_1/003083_2014-06-15_15-21-03_094959634447_rgbf000063-resize_1-target.png,125,4.1405,5,3048,132,meters,jsons/VE125_randls_56_rotated.json,636918,826754,62,Man
91,740754,DepthScenes,duration_manipulation_targetAtFixation,jsons/VE125_randls_56_rotated.json,http://54.235.29.9/FacialAge/BNav_EC2/DepthDuration/v2_depth_duration_MTurk/v2_DepthDuration_HTML.html#358,358,1705,781,1364,768,8-29-2022,11-27-0,92,depth_duration_stimuli/000486_2014-06-09_20-47-20_260595134347_rgbf000143-resize_2/000486_2014-06-09_20-47-20_260595134347_rgbf000143-resize_2-target.png,125,4.8325,5,2578,125,meters,jsons/VE125_randls_56_rotated.json,636918,826754,62,Man
92,740754,DepthScenes,duration_manipulation_targetAtFixation,jsons/VE125_randls_56_rotated.json,http://54.235.29.9/FacialAge/BNav_EC2/DepthDuration/v2_depth_duration_MTurk/v2_DepthDuration_HTML.html#358,358,1705,781,1364,768,8-29-2022,11-27-0,93,depth_duration_stimuli/001516_2014-06-20_16-25-09_260595134347_rgbf000076-resize_2/001516_2014-06-20_16-25-09_260595134347_rgbf000076-resize_2-target.png,125,1.7445,5,2638,124,meters,jsons/VE125_randls_56_rotated.json,636918,826754,62,Man
93,740754,DepthScenes,duration_manipulation_targetAtFixation,jsons/VE125_randls_56_rotated.json,http://54.235.29.9/FacialAge/BNav_EC2/DepthDuration/v2_depth_duration_MTurk/v2_DepthDuration_HTML.html#358,358,1705,781,1364,768,8-29-2022,11-27-0,94,depth_duration_stimuli/002118_2014-06-25_20-32-08_260595134347_rgbf000078-resize_1/002118_2014-06-25_20-32-08_260595134347_rgbf000078-resize_1-target.png,125,2.6460000000000004,2,3009,122,meters,jsons/VE125_randls_56_rotated.json,636918,826754,62,Man
94,740754,DepthScenes,duration_manipulation_targetAtFixation,jsons/VE125_randls_56_rotated.json,http://54.235.29.9/FacialAge/BNav_EC2/DepthDuration/v2_depth_duration_MTurk/v2_DepthDuration_HTML.html#358,358,1705,781,1364,768,8-29-2022,11-27-0,95,depth_duration_stimuli/002425_2014-06-28_20-27-29_260595134347_rgbf000031-resize_8/002425_2014-06-28_20-27-29_260595134347_rgbf000031-resize_8-target.png,125,3.8960000000000004,5,2367,125,meters,jsons/VE125_randls_56_rotated.json,636918,826754,62,Man
95,740754,DepthScenes,duration_manipulation_targetAtFixation,jsons/VE125_randls_56_rotated.json,http://54.235.29.9/FacialAge/BNav_EC2/DepthDuration/v2_depth_duration_MTurk/v2_DepthDuration_HTML.html#358,358,1705,781,1364,768,8-29-2022,11-27-0,96,depth_duration_stimuli/000642_2014-06-08_16-59-25_260595134347_rgbf000098-resize_2/000642_2014-06-08_16-59-25_260595134347_rgbf000098-resize_2-target.png,125,2.8815,7,2638,125,meters,jsons/VE125_randls_56_rotated.json,636918,826754,62,Man
96,740754,DepthScenes,duration_manipulation_targetAtFixation,jsons/VE125_randls_56_rotated.json,http://54.235.29.9/FacialAge/BNav_EC2/DepthDuration/v2_depth_duration_MTurk/v2_DepthDuration_HTML.html#358,358,1705,781,1364,768,8-29-2022,11-27-0,97,depth_duration_stimuli/000483_2014-06-09_20-41-45_260595134347_rgbf000116-resize_4/000483_2014-06-09_20-41-45_260595134347_rgbf000116-resize_4-target.png,125,1.337,5,5189,126,meters,jsons/VE125_randls_56_rotated.json,636918,826754,62,Man
97,740754,DepthScenes,duration_manipulation_targetAtFixation,jsons/VE125_randls_56_rotated.json,http://54.235.29.9/FacialAge/BNav_EC2/DepthDuration/v2_depth_duration_MTurk/v2_DepthDuration_HTML.html#358,358,1705,781,1364,768,8-29-2022,11-27-0,98,depth_duration_stimuli/000469_2014-06-09_19-42-10_260595134347_rgbf000081-resize_1/000469_2014-06-09_19-42-10_260595134347_rgbf000081-resize_1-target.png,125,1.652,4,9872,125,meters,jsons/VE125_randls_56_rotated.json,636918,826754,62,Man
98,740754,DepthScenes,duration_manipulation_targetAtFixation,jsons/VE125_randls_56_rotated.json,http://54.235.29.9/FacialAge/BNav_EC2/DepthDuration/v2_depth_duration_MTurk/v2_DepthDuration_HTML.html#358,358,1705,781,1364,768,8-29-2022,11-27-0,99,depth_duration_stimuli/001222_2014-06-17_16-24-06_260595134347_rgbf000073-resize_0/001222_2014-06-17_16-24-06_260595134347_rgbf000073-resize-original.jpg,125,1.4385,6,5076,125,meters,jsons/VE125_randls_56_rotated.json,636918,826754,62,Man
99,740754,DepthScenes,duration_manipulation_targetAtFixation,jsons/VE125_randls_56_rotated.json,http://54.235.29.9/FacialAge/BNav_EC2/DepthDuration/v2_depth_duration_MTurk/v2_DepthDuration_HTML.html#358,358,1705,781,1364,768,8-29-2022,11-27-0,100,depth_duration_stimuli/000691_2014-06-08_13-08-50_260595134347_rgbf000132-resize_3/000691_2014-06-08_13-08-50_260595134347_rgbf000132-resize_3-target.png,125,4.1530000000000005,5,3160,123,meters,jsons/VE125_randls_56_rotated.json,636918,826754,62,Man
100,740754,DepthScenes,duration_manipulation_targetAtFixation,jsons/VE125_randls_56_rotated.json,http://54.235.29.9/FacialAge/BNav_EC2/DepthDuration/v2_depth_duration_MTurk/v2_DepthDuration_HTML.html#358,358,1705,781,1364,768,8-29-2022,11-27-0,101,depth_duration_stimuli/002213_2014-06-28_18-37-58_260595134347_rgbf000055-resize_1/002213_2014-06-28_18-37-58_260595134347_rgbf000055-resize_1-target.png,125,3.62,6,1653,124,meters,jsons/VE125_randls_56_rotated.json,636918,826754,62,Man
101,740754,DepthScenes,duration_manipulation_targetAtFixation,jsons/VE125_randls_56_rotated.json,http://54.235.29.9/FacialAge/BNav_EC2/DepthDuration/v2_depth_duration_MTurk/v2_DepthDuration_HTML.html#358,358,1705,781,1364,768,8-29-2022,11-27-0,102,depth_duration_stimuli/002657_2014-06-13_15-29-54_094959634447_rgbf000150-resize_1/002657_2014-06-13_15-29-54_094959634447_rgbf000150-resize_1-target.png,125,4.919,2,2891,125,meters,jsons/VE125_randls_56_rotated.json,636918,826754,62,Man
102,740754,DepthScenes,duration_manipulation_targetAtFixation,jsons/VE125_randls_56_rotated.json,http://54.235.29.9/FacialAge/BNav_EC2/DepthDuration/v2_depth_duration_MTurk/v2_DepthDuration_HTML.html#358,358,1705,781,1364,768,8-29-2022,11-27-0,103,depth_duration_stimuli/002375_2014-06-28_20-13-44_260595134347_rgbf000032-resize_1/002375_2014-06-28_20-13-44_260595134347_rgbf000032-resize_1-target.png,125,4.0175,3,2039,125,meters,jsons/VE125_randls_56_rotated.json,636918,826754,62,Man
103,740754,DepthScenes,duration_manipulation_targetAtFixation,jsons/VE125_randls_56_rotated.json,http://54.235.29.9/FacialAge/BNav_EC2/DepthDuration/v2_depth_duration_MTurk/v2_DepthDuration_HTML.html#358,358,1705,781,1364,768,8-29-2022,11-27-0,104,depth_duration_stimuli/000927_2014-06-09_16-32-30_260595134347_rgbf000123-resize_3/000927_2014-06-09_16-32-30_260595134347_rgbf000123-resize_3-target.png,125,2.6785,2,2046,125,meters,jsons/VE125_randls_56_rotated.json,636918,826754,62,Man
104,740754,DepthScenes,duration_manipulation_targetAtFixation,jsons/VE125_randls_56_rotated.json,http://54.235.29.9/FacialAge/BNav_EC2/DepthDuration/v2_depth_duration_MTurk/v2_DepthDuration_HTML.html#358,358,1705,781,1364,768,8-29-2022,11-27-0,105,depth_duration_stimuli/001110_2014-06-15_17-25-28_260595134347_rgbf000150-resize_1/001110_2014-06-15_17-25-28_260595134347_rgbf000150-resize_1-target.png,125,1.7115,3,2321,125,meters,jsons/VE125_randls_56_rotated.json,636918,826754,62,Man
105,740754,DepthScenes,duration_manipulation_targetAtFixation,jsons/VE125_randls_56_rotated.json,http://54.235.29.9/FacialAge/BNav_EC2/DepthDuration/v2_depth_duration_MTurk/v2_DepthDuration_HTML.html#358,358,1705,781,1364,768,8-29-2022,11-27-0,106,depth_duration_stimuli/001447_2014-06-19_17-00-32_260595134347_rgbf000082-resize_5/001447_2014-06-19_17-00-32_260595134347_rgbf000082-resize_5-target.png,125,4.13775,5,2557,124,meters,jsons/VE125_randls_56_rotated.json,636918,826754,62,Man
106,740754,DepthScenes,duration_manipulation_targetAtFixation,jsons/VE125_randls_56_rotated.json,http://54.235.29.9/FacialAge/BNav_EC2/DepthDuration/v2_depth_duration_MTurk/v2_DepthDuration_HTML.html#358,358,1705,781,1364,768,8-29-2022,11-27-0,107,depth_duration_stimuli/000447_2014-06-08_16-15-46_260595134347_rgbf000130-resize_1/000447_2014-06-08_16-15-46_260595134347_rgbf000130-resize_1-target.png,125,4.479,1,1707,125,meters,jsons/VE125_randls_56_rotated.json,636918,826754,62,Man
107,740754,DepthScenes,duration_manipulation_targetAtFixation,jsons/VE125_randls_56_rotated.json,http://54.235.29.9/FacialAge/BNav_EC2/DepthDuration/v2_depth_duration_MTurk/v2_DepthDuration_HTML.html#358,358,1705,781,1364,768,8-29-2022,11-27-0,108,depth_duration_stimuli/000854_2014-06-09_19-43-13_260595134347_rgbf000066-resize_0/000854_2014-06-09_19-43-13_260595134347_rgbf000066-resize_0-target.png,125,3.068,4,2446,124,meters,jsons/VE125_randls_56_rotated.json,636918,826754,62,Man
108,740754,DepthScenes,duration_manipulation_targetAtFixation,jsons/VE125_randls_56_rotated.json,http://54.235.29.9/FacialAge/BNav_EC2/DepthDuration/v2_depth_duration_MTurk/v2_DepthDuration_HTML.html#358,358,1705,781,1364,768,8-29-2022,11-27-0,109,depth_duration_stimuli/000758_2014-06-08_22-05-08_260595134347_rgbf000085-resize_0/000758_2014-06-08_22-05-08_260595134347_rgbf000085-resize_0-target.png,125,3.3810000000000002,3,4828,124,meters,jsons/VE125_randls_56_rotated.json,636918,826754,62,Man
109,740754,DepthScenes,duration_manipulation_targetAtFixation,jsons/VE125_randls_56_rotated.json,http://54.235.29.9/FacialAge/BNav_EC2/DepthDuration/v2_depth_duration_MTurk/v2_DepthDuration_HTML.html#358,358,1705,781,1364,768,8-29-2022,11-27-0,110,depth_duration_stimuli/000780_2014-06-08_22-28-29_260595134347_rgbf000126-resize_1/000780_2014-06-08_22-28-29_260595134347_rgbf000126-resize_1-target.png,125,3.3825,5,3568,124,meters,jsons/VE125_randls_56_rotated.json,636918,826754,62,Man
110,740754,DepthScenes,duration_manipulation_targetAtFixation,jsons/VE125_randls_56_rotated.json,http://54.235.29.9/FacialAge/BNav_EC2/DepthDuration/v2_depth_duration_MTurk/v2_DepthDuration_HTML.html#358,358,1705,781,1364,768,8-29-2022,11-27-0,111,depth_duration_stimuli/002445_2014-06-28_20-32-16_260595134347_rgbf000029-resize_4/002445_2014-06-28_20-32-16_260595134347_rgbf000029-resize_4-target.png,125,2.5315,4,2089,124,meters,jsons/VE125_randls_56_rotated.json,636918,826754,62,Man
111,740754,DepthScenes,duration_manipulation_targetAtFixation,jsons/VE125_randls_56_rotated.json,http://54.235.29.9/FacialAge/BNav_EC2/DepthDuration/v2_depth_duration_MTurk/v2_DepthDuration_HTML.html#358,358,1705,781,1364,768,8-29-2022,11-27-0,112,depth_duration_stimuli/001032_2014-06-08_13-23-17_260595134347_rgbf000021-resize_3/001032_2014-06-08_13-23-17_260595134347_rgbf000021-resize_3-target.png,125,3.2725,5,3666,122,meters,jsons/VE125_randls_56_rotated.json,636918,826754,62,Man
112,740754,DepthScenes,duration_manipulation_targetAtFixation,jsons/VE125_randls_56_rotated.json,http://54.235.29.9/FacialAge/BNav_EC2/DepthDuration/v2_depth_duration_MTurk/v2_DepthDuration_HTML.html#358,358,1705,781,1364,768,8-29-2022,11-27-0,113,depth_duration_stimuli/001059_2014-06-08_21-53-27_260595134347_rgbf000061-resize_4/001059_2014-06-08_21-53-27_260595134347_rgbf000061-resize_4-target.png,125,2.4185,2,3614,125,meters,jsons/VE125_randls_56_rotated.json,636918,826754,62,Man
113,740754,DepthScenes,duration_manipulation_targetAtFixation,jsons/VE125_randls_56_rotated.json,http://54.235.29.9/FacialAge/BNav_EC2/DepthDuration/v2_depth_duration_MTurk/v2_DepthDuration_HTML.html#358,358,1705,781,1364,768,8-29-2022,11-27-0,114,depth_duration_stimuli/003587_2014-05-23_16-48-02_094959634447_rgbf002384-resize_2/003587_2014-05-23_16-48-02_094959634447_rgbf002384-resize_2-target.png,125,1.357,5,3649,124,meters,jsons/VE125_randls_56_rotated.json,636918,826754,62,Man
114,740754,DepthScenes,duration_manipulation_targetAtFixation,jsons/VE125_randls_56_rotated.json,http://54.235.29.9/FacialAge/BNav_EC2/DepthDuration/v2_depth_duration_MTurk/v2_DepthDuration_HTML.html#358,358,1705,781,1364,768,8-29-2022,11-27-0,115,depth_duration_stimuli/001167_2014-06-17_15-38-07_260595134347_rgbf000108-resize_0/001167_2014-06-17_15-38-07_260595134347_rgbf000108-resize_0-target.png,125,1.8505,6,1755,126,meters,jsons/VE125_randls_56_rotated.json,636918,826754,62,Man
115,740754,DepthScenes,duration_manipulation_targetAtFixation,jsons/VE125_randls_56_rotated.json,http://54.235.29.9/FacialAge/BNav_EC2/DepthDuration/v2_depth_duration_MTurk/v2_DepthDuration_HTML.html#358,358,1705,781,1364,768,8-29-2022,11-27-0,116,depth_duration_stimuli/000457_2014-06-08_16-52-43_260595134347_rgbf000199-resize_1/000457_2014-06-08_16-52-43_260595134347_rgbf000199-resize_1-target.png,125,3.6489999999999996,5,2718,124,meters,jsons/VE125_randls_56_rotated.json,636918,826754,62,Man
116,740754,DepthScenes,duration_manipulation_targetAtFixation,jsons/VE125_randls_56_rotated.json,http://54.235.29.9/FacialAge/BNav_EC2/DepthDuration/v2_depth_duration_MTurk/v2_DepthDuration_HTML.html#358,358,1705,781,1364,768,8-29-2022,11-27-0,117,depth_duration_stimuli/000929_2014-06-09_16-33-19_260595134347_rgbf000139-resize_0/000929_2014-06-09_16-33-19_260595134347_rgbf000139-resize_0-target.png,125,2.8680000000000003,4,3290,125,meters,jsons/VE125_randls_56_rotated.json,636918,826754,62,Man
117,740754,DepthScenes,duration_manipulation_targetAtFixation,jsons/VE125_randls_56_rotated.json,http://54.235.29.9/FacialAge/BNav_EC2/DepthDuration/v2_depth_duration_MTurk/v2_DepthDuration_HTML.html#358,358,1705,781,1364,768,8-29-2022,11-27-0,118,depth_duration_stimuli/002660_2014-06-13_15-44-18_094959634447_rgbf001878-resize_2/002660_2014-06-13_15-44-18_094959634447_rgbf001878-resize_2-target.png,125,3.576,5,3138,123,meters,jsons/VE125_randls_56_rotated.json,636918,826754,62,Man
118,740754,DepthScenes,duration_manipulation_targetAtFixation,jsons/VE125_randls_56_rotated.json,http://54.235.29.9/FacialAge/BNav_EC2/DepthDuration/v2_depth_duration_MTurk/v2_DepthDuration_HTML.html#358,358,1705,781,1364,768,8-29-2022,11-27-0,119,depth_duration_stimuli/002153_2014-06-25_21-27-18_260595134347_rgbf000038-resize_5/002153_2014-06-25_21-27-18_260595134347_rgbf000038-resize_5-target.png,125,2.505,5,2027,124,meters,jsons/VE125_randls_56_rotated.json,636918,826754,62,Man
119,740754,DepthScenes,duration_manipulation_targetAtFixation,jsons/VE125_randls_56_rotated.json,http://54.235.29.9/FacialAge/BNav_EC2/DepthDuration/v2_depth_duration_MTurk/v2_DepthDuration_HTML.html#358,358,1705,781,1364,768,8-29-2022,11-27-0,120,depth_duration_stimuli/000787_2014-06-08_22-33-53_260595134347_rgbf000175-resize_1/000787_2014-06-08_22-33-53_260595134347_rgbf000175-resize-original.jpg,125,4.784,5,2278,124,meters,jsons/VE125_randls_56_rotated.json,636918,826754,62,Man
120,740754,DepthScenes,duration_manipulation_targetAtFixation,jsons/VE125_randls_56_rotated.json,http://54.235.29.9/FacialAge/BNav_EC2/DepthDuration/v2_depth_duration_MTurk/v2_DepthDuration_HTML.html#358,358,1705,781,1364,768,8-29-2022,11-27-0,121,depth_duration_stimuli/002953_2014-06-08_17-32-18_094959634447_rgbf000059-resize_5/002953_2014-06-08_17-32-18_094959634447_rgbf000059-resize_5-target.png,125,1.551,8,3420,125,meters,jsons/VE125_randls_56_rotated.json,636918,826754,62,Man
121,740754,DepthScenes,duration_manipulation_targetAtFixation,jsons/VE125_randls_56_rotated.json,http://54.235.29.9/FacialAge/BNav_EC2/DepthDuration/v2_depth_duration_MTurk/v2_DepthDuration_HTML.html#358,358,1705,781,1364,768,8-29-2022,11-27-0,122,depth_duration_stimuli/000878_2014-06-08_22-52-45_260595134347_rgbf000045-resize_2/000878_2014-06-08_22-52-45_260595134347_rgbf000045-resize_2-target.png,125,2.092,5,2520,124,meters,jsons/VE125_randls_56_rotated.json,636918,826754,62,Man
122,740754,DepthScenes,duration_manipulation_targetAtFixation,jsons/VE125_randls_56_rotated.json,http://54.235.29.9/FacialAge/BNav_EC2/DepthDuration/v2_depth_duration_MTurk/v2_DepthDuration_HTML.html#358,358,1705,781,1364,768,8-29-2022,11-27-0,123,depth_duration_stimuli/003423_2014-05-21_10-23-26_094959634447_rgbf002665-resize_2/003423_2014-05-21_10-23-26_094959634447_rgbf002665-resize_2-target.png,125,3.2575,4,3846,124,meters,jsons/VE125_randls_56_rotated.json,636918,826754,62,Man
123,740754,DepthScenes,duration_manipulation_targetAtFixation,jsons/VE125_randls_56_rotated.json,http://54.235.29.9/FacialAge/BNav_EC2/DepthDuration/v2_depth_duration_MTurk/v2_DepthDuration_HTML.html#358,358,1705,781,1364,768,8-29-2022,11-27-0,124,depth_duration_stimuli/002905_2014-06-03_18-04-43_094959634447_rgbf000151-resize_2/002905_2014-06-03_18-04-43_094959634447_rgbf000151-resize_2-target.png,125,2.0295,5,2548,124,meters,jsons/VE125_randls_56_rotated.json,636918,826754,62,Man
124,740754,DepthScenes,duration_manipulation_targetAtFixation,jsons/VE125_randls_56_rotated.json,http://54.235.29.9/FacialAge/BNav_EC2/DepthDuration/v2_depth_duration_MTurk/v2_DepthDuration_HTML.html#358,358,1705,781,1364,768,8-29-2022,11-27-0,125,depth_duration_stimuli/000191_2014-05-12_17-07-38_260595134347_rgbf000199-resize_0/000191_2014-05-12_17-07-38_260595134347_rgbf000199-resize_0-target.png,125,3.7995,4,6060,126,meters,jsons/VE125_randls_56_rotated.json,636918,826754,62,Man
125,740754,DepthScenes,duration_manipulation_targetAtFixation,jsons/VE125_randls_56_rotated.json,http://54.235.29.9/FacialAge/BNav_EC2/DepthDuration/v2_depth_duration_MTurk/v2_DepthDuration_HTML.html#358,358,1705,781,1364,768,8-29-2022,11-27-0,126,depth_duration_stimuli/000493_2014-06-09_21-01-18_260595134347_rgbf000196-resize_3/000493_2014-06-09_21-01-18_260595134347_rgbf000196-resize_3-target.png,125,3.44,7,1828,203,meters,jsons/VE125_randls_56_rotated.json,636918,826754,62,Man
126,740754,DepthScenes,duration_manipulation_targetAtFixation,jsons/VE125_randls_56_rotated.json,http://54.235.29.9/FacialAge/BNav_EC2/DepthDuration/v2_depth_duration_MTurk/v2_DepthDuration_HTML.html#358,358,1705,781,1364,768,8-29-2022,11-27-0,127,depth_duration_stimuli/001571_2014-06-20_17-21-32_260595134347_rgbf000089-resize_1/001571_2014-06-20_17-21-32_260595134347_rgbf000089-resize_1-target.png,125,1.86,5,3091,125,meters,jsons/VE125_randls_56_rotated.json,636918,826754,62,Man
127,740754,DepthScenes,duration_manipulation_targetAtFixation,jsons/VE125_randls_56_rotated.json,http://54.235.29.9/FacialAge/BNav_EC2/DepthDuration/v2_depth_duration_MTurk/v2_DepthDuration_HTML.html#358,358,1705,781,1364,768,8-29-2022,11-27-0,128,depth_duration_stimuli/002272_2014-06-28_18-53-56_260595134347_rgbf000067-resize_2/002272_2014-06-28_18-53-56_260595134347_rgbf000067-resize_2-target.png,125,1.138,7,2156,166,meters,jsons/VE125_randls_56_rotated.json,636918,826754,62,Man
128,740754,DepthScenes,duration_manipulation_targetAtFixation,jsons/VE125_randls_56_rotated.json,http://54.235.29.9/FacialAge/BNav_EC2/DepthDuration/v2_depth_duration_MTurk/v2_DepthDuration_HTML.html#358,358,1705,781,1364,768,8-29-2022,11-27-0,129,depth_duration_stimuli/002568_2014-06-24_13-59-21_094959634447_rgbf000062-resize_4/002568_2014-06-24_13-59-21_094959634447_rgbf000062-resize_4-target.png,125,3.015,5,2130,124,meters,jsons/VE125_randls_56_rotated.json,636918,826754,62,Man
129,740754,DepthScenes,duration_manipulation_targetAtFixation,jsons/VE125_randls_56_rotated.json,http://54.235.29.9/FacialAge/BNav_EC2/DepthDuration/v2_depth_duration_MTurk/v2_DepthDuration_HTML.html#358,358,1705,781,1364,768,8-29-2022,11-27-0,130,depth_duration_stimuli/003492_2014-05-21_15-50-55_094959634447_rgbf000828-resize_1/003492_2014-05-21_15-50-55_094959634447_rgbf000828-resize_1-target.png,125,4.06875,5,1695,125,meters,jsons/VE125_randls_56_rotated.json,636918,826754,62,Man
130,740754,DepthScenes,duration_manipulation_targetAtFixation,jsons/VE125_randls_56_rotated.json,http://54.235.29.9/FacialAge/BNav_EC2/DepthDuration/v2_depth_duration_MTurk/v2_DepthDuration_HTML.html#358,358,1705,781,1364,768,8-29-2022,11-27-0,131,depth_duration_stimuli/000549_2014-06-08_22-10-24_260595134347_rgbf000247-resize_3/000549_2014-06-08_22-10-24_260595134347_rgbf000247-resize_3-target.png,125,1.841,5,2483,126,meters,jsons/VE125_randls_56_rotated.json,636918,826754,62,Man
131,740754,DepthScenes,duration_manipulation_targetAtFixation,jsons/VE125_randls_56_rotated.json,http://54.235.29.9/FacialAge/BNav_EC2/DepthDuration/v2_depth_duration_MTurk/v2_DepthDuration_HTML.html#358,358,1705,781,1364,768,8-29-2022,11-27-0,132,depth_duration_stimuli/001055_2014-06-08_18-45-35_260595134347_rgbf000111-resize_4/001055_2014-06-08_18-45-35_260595134347_rgbf000111-resize_4-target.png,125,2.4290000000000003,6,2445,124,meters,jsons/VE125_randls_56_rotated.json,636918,826754,62,Man
132,740754,DepthScenes,duration_manipulation_targetAtFixation,jsons/VE125_randls_56_rotated.json,http://54.235.29.9/FacialAge/BNav_EC2/DepthDuration/v2_depth_duration_MTurk/v2_DepthDuration_HTML.html#358,358,1705,781,1364,768,8-29-2022,11-27-0,133,depth_duration_stimuli/002323_2014-06-28_20-01-54_260595134347_rgbf000051-resize_4/002323_2014-06-28_20-01-54_260595134347_rgbf000051-resize_4-target.png,125,3.7310000000000003,4,5707,124,meters,jsons/VE125_randls_56_rotated.json,636918,826754,62,Man
133,740754,DepthScenes,duration_manipulation_targetAtFixation,jsons/VE125_randls_56_rotated.json,http://54.235.29.9/FacialAge/BNav_EC2/DepthDuration/v2_depth_duration_MTurk/v2_DepthDuration_HTML.html#358,358,1705,781,1364,768,8-29-2022,11-27-0,134,depth_duration_stimuli/000917_2014-06-09_22-45-29_260595134347_rgbf000149-resize_3/000917_2014-06-09_22-45-29_260595134347_rgbf000149-resize_3-target.png,125,4.1865,6,2698,124,meters,jsons/VE125_randls_56_rotated.json,636918,826754,62,Man
134,740754,DepthScenes,duration_manipulation_targetAtFixation,jsons/VE125_randls_56_rotated.json,http://54.235.29.9/FacialAge/BNav_EC2/DepthDuration/v2_depth_duration_MTurk/v2_DepthDuration_HTML.html#358,358,1705,781,1364,768,8-29-2022,11-27-0,135,depth_duration_stimuli/000375_2014-06-08_11-17-29_260595134347_rgbf000133-resize_2/000375_2014-06-08_11-17-29_260595134347_rgbf000133-resize-original.jpg,125,4.718,4,2439,125,meters,jsons/VE125_randls_56_rotated.json,636918,826754,62,Man
135,740754,DepthScenes,duration_manipulation_targetAtFixation,jsons/VE125_randls_56_rotated.json,http://54.235.29.9/FacialAge/BNav_EC2/DepthDuration/v2_depth_duration_MTurk/v2_DepthDuration_HTML.html#358,358,1705,781,1364,768,8-29-2022,11-27-0,136,depth_duration_stimuli/001828_2014-06-26_21-40-03_260595134347_rgbf000024-resize_0/001828_2014-06-26_21-40-03_260595134347_rgbf000024-resize_0-target.png,125,4.8260000000000005,2,5328,126,meters,jsons/VE125_randls_56_rotated.json,636918,826754,62,Man
136,740754,DepthScenes,duration_manipulation_targetAtFixation,jsons/VE125_randls_56_rotated.json,http://54.235.29.9/FacialAge/BNav_EC2/DepthDuration/v2_depth_duration_MTurk/v2_DepthDuration_HTML.html#358,358,1705,781,1364,768,8-29-2022,11-27-0,137,depth_duration_stimuli/000009_2014-05-26_14-32-05_260595134347_rgbf000034-resize_3/000009_2014-05-26_14-32-05_260595134347_rgbf000034-resize_3-target.png,125,3.8715,4,4535,126,meters,jsons/VE125_randls_56_rotated.json,636918,826754,62,Man
137,740754,DepthScenes,duration_manipulation_targetAtFixation,jsons/VE125_randls_56_rotated.json,http://54.235.29.9/FacialAge/BNav_EC2/DepthDuration/v2_depth_duration_MTurk/v2_DepthDuration_HTML.html#358,358,1705,781,1364,768,8-29-2022,11-27-0,138,depth_duration_stimuli/001100_2014-06-15_17-46-26_260595134347_rgbf000225-resize_2/001100_2014-06-15_17-46-26_260595134347_rgbf000225-resize_2-target.png,125,2.24,2,4203,125,meters,jsons/VE125_randls_56_rotated.json,636918,826754,62,Man
138,740754,DepthScenes,duration_manipulation_targetAtFixation,jsons/VE125_randls_56_rotated.json,http://54.235.29.9/FacialAge/BNav_EC2/DepthDuration/v2_depth_duration_MTurk/v2_DepthDuration_HTML.html#358,358,1705,781,1364,768,8-29-2022,11-27-0,139,depth_duration_stimuli/002784_2014-06-22_19-26-30_094959634447_rgbf000083-resize_3/002784_2014-06-22_19-26-30_094959634447_rgbf000083-resize_3-target.png,125,1.8046666666667,3,3299,125,meters,jsons/VE125_randls_56_rotated.json,636918,826754,62,Man
139,740754,DepthScenes,duration_manipulation_targetAtFixation,jsons/VE125_randls_56_rotated.json,http://54.235.29.9/FacialAge/BNav_EC2/DepthDuration/v2_depth_duration_MTurk/v2_DepthDuration_HTML.html#358,358,1705,781,1364,768,8-29-2022,11-27-0,140,depth_duration_stimuli/002103_2014-06-25_20-00-40_260595134347_rgbf000049-resize_0/002103_2014-06-25_20-00-40_260595134347_rgbf000049-resize_0-target.png,125,4.105,4,2509,125,meters,jsons/VE125_randls_56_rotated.json,636918,826754,62,Man
140,740754,DepthScenes,duration_manipulation_targetAtFixation,jsons/VE125_randls_56_rotated.json,http://54.235.29.9/FacialAge/BNav_EC2/DepthDuration/v2_depth_duration_MTurk/v2_DepthDuration_HTML.html#358,358,1705,781,1364,768,8-29-2022,11-27-0,141,depth_duration_stimuli/002039_2014-06-24_20-22-38_260595134347_rgbf000084-resize_1/002039_2014-06-24_20-22-38_260595134347_rgbf000084-resize_1-target.png,125,4.408,3,1667,124,meters,jsons/VE125_randls_56_rotated.json,636918,826754,62,Man
141,740754,DepthScenes,duration_manipulation_targetAtFixation,jsons/VE125_randls_56_rotated.json,http://54.235.29.9/FacialAge/BNav_EC2/DepthDuration/v2_depth_duration_MTurk/v2_DepthDuration_HTML.html#358,358,1705,781,1364,768,8-29-2022,11-27-0,142,depth_duration_stimuli/002639_2014-06-24_14-51-37_094959634447_rgbf000074-resize_4/002639_2014-06-24_14-51-37_094959634447_rgbf000074-resize_4-target.png,125,4.0375,3,2681,125,meters,jsons/VE125_randls_56_rotated.json,636918,826754,62,Man
142,740754,DepthScenes,duration_manipulation_targetAtFixation,jsons/VE125_randls_56_rotated.json,http://54.235.29.9/FacialAge/BNav_EC2/DepthDuration/v2_depth_duration_MTurk/v2_DepthDuration_HTML.html#358,358,1705,781,1364,768,8-29-2022,11-27-0,143,depth_duration_stimuli/003292_2014-05-14_21-53-49_094959634447_rgbf000100-resize_2/003292_2014-05-14_21-53-49_094959634447_rgbf000100-resize_2-target.png,125,3.4815,3,2176,125,meters,jsons/VE125_randls_56_rotated.json,636918,826754,62,Man
143,740754,DepthScenes,duration_manipulation_targetAtFixation,jsons/VE125_randls_56_rotated.json,http://54.235.29.9/FacialAge/BNav_EC2/DepthDuration/v2_depth_duration_MTurk/v2_DepthDuration_HTML.html#358,358,1705,781,1364,768,8-29-2022,11-27-0,144,depth_duration_stimuli/000109_2014-05-14_23-41-52_260595134347_rgbf000035-resize_9/000109_2014-05-14_23-41-52_260595134347_rgbf000035-resize_9-target.png,125,1.3545,3,2630,125,meters,jsons/VE125_randls_56_rotated.json,636918,826754,62,Man
144,740754,DepthScenes,duration_manipulation_targetAtFixation,jsons/VE125_randls_56_rotated.json,http://54.235.29.9/FacialAge/BNav_EC2/DepthDuration/v2_depth_duration_MTurk/v2_DepthDuration_HTML.html#358,358,1705,781,1364,768,8-29-2022,11-27-0,145,depth_duration_stimuli/000470_2014-06-09_19-42-40_260595134347_rgbf000094-resize_1/000470_2014-06-09_19-42-40_260595134347_rgbf000094-resize_1-target.png,125,1.831,3,2081,129,meters,jsons/VE125_randls_56_rotated.json,636918,826754,62,Man
145,740754,DepthScenes,duration_manipulation_targetAtFixation,jsons/VE125_randls_56_rotated.json,http://54.235.29.9/FacialAge/BNav_EC2/DepthDuration/v2_depth_duration_MTurk/v2_DepthDuration_HTML.html#358,358,1705,781,1364,768,8-29-2022,11-27-0,146,depth_duration_stimuli/001094_2014-06-15_17-36-00_260595134347_rgbf000205-resize_0/001094_2014-06-15_17-36-00_260595134347_rgbf000205-resize_0-target.png,125,4.2175,3,2583,125,meters,jsons/VE125_randls_56_rotated.json,636918,826754,62,Man
146,740754,DepthScenes,duration_manipulation_targetAtFixation,jsons/VE125_randls_56_rotated.json,http://54.235.29.9/FacialAge/BNav_EC2/DepthDuration/v2_depth_duration_MTurk/v2_DepthDuration_HTML.html#358,358,1705,781,1364,768,8-29-2022,11-27-0,147,depth_duration_stimuli/000692_2014-06-08_13-09-42_260595134347_rgbf000199-resize_2/000692_2014-06-08_13-09-42_260595134347_rgbf000199-resize_2-target.png,125,3.661,3,1828,124,meters,jsons/VE125_randls_56_rotated.json,636918,826754,62,Man
147,740754,DepthScenes,duration_manipulation_targetAtFixation,jsons/VE125_randls_56_rotated.json,http://54.235.29.9/FacialAge/BNav_EC2/DepthDuration/v2_depth_duration_MTurk/v2_DepthDuration_HTML.html#358,358,1705,781,1364,768,8-29-2022,11-27-0,148,depth_duration_stimuli/000556_2014-06-09_22-42-56_260595134347_rgbf000214-resize_1/000556_2014-06-09_22-42-56_260595134347_rgbf000214-resize_1-target.png,125,4.8415,3,2417,125,meters,jsons/VE125_randls_56_rotated.json,636918,826754,62,Man
148,740754,DepthScenes,duration_manipulation_targetAtFixation,jsons/VE125_randls_56_rotated.json,http://54.235.29.9/FacialAge/BNav_EC2/DepthDuration/v2_depth_duration_MTurk/v2_DepthDuration_HTML.html#358,358,1705,781,1364,768,8-29-2022,11-27-0,149,depth_duration_stimuli/001158_2014-06-17_15-32-16_260595134347_rgbf000138-resize_2/001158_2014-06-17_15-32-16_260595134347_rgbf000138-resize_2-target.png,125,4.5315,4,1891,130,meters,jsons/VE125_randls_56_rotated.json,636918,826754,62,Man
149,740754,DepthScenes,duration_manipulation_targetAtFixation,jsons/VE125_randls_56_rotated.json,http://54.235.29.9/FacialAge/BNav_EC2/DepthDuration/v2_depth_duration_MTurk/v2_DepthDuration_HTML.html#358,358,1705,781,1364,768,8-29-2022,11-27-0,150,depth_duration_stimuli/003010_2014-06-15_12-54-35_094959634447_rgbf000112-resize_0/003010_2014-06-15_12-54-35_094959634447_rgbf000112-resize_0-target.png,125,3.1185,0,4899,125,meters,jsons/VE125_randls_56_rotated.json,636918,826754,62,Man
150,740754,DepthScenes,duration_manipulation_targetAtFixation,jsons/VE125_randls_56_rotated.json,http://54.235.29.9/FacialAge/BNav_EC2/DepthDuration/v2_depth_duration_MTurk/v2_DepthDuration_HTML.html#358,358,1705,781,1364,768,8-29-2022,11-27-0,151,depth_duration_stimuli/001810_2014-06-26_20-51-35_260595134347_rgbf000040-resize_3/001810_2014-06-26_20-51-35_260595134347_rgbf000040-resize_3-target.png,125,2.2525,2,1683,124,meters,jsons/VE125_randls_56_rotated.json,636918,826754,62,Man
151,740754,DepthScenes,duration_manipulation_targetAtFixation,jsons/VE125_randls_56_rotated.json,http://54.235.29.9/FacialAge/BNav_EC2/DepthDuration/v2_depth_duration_MTurk/v2_DepthDuration_HTML.html#358,358,1705,781,1364,768,8-29-2022,11-27-0,152,depth_duration_stimuli/000569_2014-06-09_22-51-47_260595134347_rgbf000141-resize_3/000569_2014-06-09_22-51-47_260595134347_rgbf000141-resize-original.jpg,125,4.512,3,1843,124,meters,jsons/VE125_randls_56_rotated.json,636918,826754,62,Man
152,740754,DepthScenes,duration_manipulation_targetAtFixation,jsons/VE125_randls_56_rotated.json,http://54.235.29.9/FacialAge/BNav_EC2/DepthDuration/v2_depth_duration_MTurk/v2_DepthDuration_HTML.html#358,358,1705,781,1364,768,8-29-2022,11-27-0,153,depth_duration_stimuli/002136_2014-06-25_21-18-03_260595134347_rgbf000109-resize_3/002136_2014-06-25_21-18-03_260595134347_rgbf000109-resize_3-target.png,125,1.9569999999999999,2,2378,125,meters,jsons/VE125_randls_56_rotated.json,636918,826754,62,Man
153,740754,DepthScenes,duration_manipulation_targetAtFixation,jsons/VE125_randls_56_rotated.json,http://54.235.29.9/FacialAge/BNav_EC2/DepthDuration/v2_depth_duration_MTurk/v2_DepthDuration_HTML.html#358,358,1705,781,1364,768,8-29-2022,11-27-0,154,depth_duration_stimuli/002964_2014-06-08_17-46-11_094959634447_rgbf000091-resize_4/002964_2014-06-08_17-46-11_094959634447_rgbf000091-resize_4-target.png,125,1.6909999999999998,4,1719,126,meters,jsons/VE125_randls_56_rotated.json,636918,826754,62,Man
154,740754,DepthScenes,duration_manipulation_targetAtFixation,jsons/VE125_randls_56_rotated.json,http://54.235.29.9/FacialAge/BNav_EC2/DepthDuration/v2_depth_duration_MTurk/v2_DepthDuration_HTML.html#358,358,1705,781,1364,768,8-29-2022,11-27-0,155,depth_duration_stimuli/002209_2014-06-28_18-36-10_260595134347_rgbf000051-resize_1/002209_2014-06-28_18-36-10_260595134347_rgbf000051-resize_1-target.png,125,2.057,2,2126,124,meters,jsons/VE125_randls_56_rotated.json,636918,826754,62,Man
155,740754,DepthScenes,duration_manipulation_targetAtFixation,jsons/VE125_randls_56_rotated.json,http://54.235.29.9/FacialAge/BNav_EC2/DepthDuration/v2_depth_duration_MTurk/v2_DepthDuration_HTML.html#358,358,1705,781,1364,768,8-29-2022,11-27-0,156,depth_duration_stimuli/002763_2014-06-22_19-13-10_094959634447_rgbf000075-resize_4/002763_2014-06-22_19-13-10_094959634447_rgbf000075-resize_4-target.png,125,1.68375,4,4188,124,meters,jsons/VE125_randls_56_rotated.json,636918,826754,62,Man
156,740754,DepthScenes,duration_manipulation_targetAtFixation,jsons/VE125_randls_56_rotated.json,http://54.235.29.9/FacialAge/BNav_EC2/DepthDuration/v2_depth_duration_MTurk/v2_DepthDuration_HTML.html#358,358,1705,781,1364,768,8-29-2022,11-27-0,157,depth_duration_stimuli/000103_2014-05-14_22-01-17_260595134347_rgbf000152-resize_5/000103_2014-05-14_22-01-17_260595134347_rgbf000152-resize_5-target.png,125,1.993,3,2515,125,meters,jsons/VE125_randls_56_rotated.json,636918,826754,62,Man
157,740754,DepthScenes,duration_manipulation_targetAtFixation,jsons/VE125_randls_56_rotated.json,http://54.235.29.9/FacialAge/BNav_EC2/DepthDuration/v2_depth_duration_MTurk/v2_DepthDuration_HTML.html#358,358,1705,781,1364,768,8-29-2022,11-27-0,158,depth_duration_stimuli/001555_2014-06-20_17-12-10_260595134347_rgbf000065-resize_4/001555_2014-06-20_17-12-10_260595134347_rgbf000065-resize_4-target.png,125,1.633,7,3814,125,meters,jsons/VE125_randls_56_rotated.json,636918,826754,62,Man
158,740754,DepthScenes,duration_manipulation_targetAtFixation,jsons/VE125_randls_56_rotated.json,http://54.235.29.9/FacialAge/BNav_EC2/DepthDuration/v2_depth_duration_MTurk/v2_DepthDuration_HTML.html#358,358,1705,781,1364,768,8-29-2022,11-27-0,159,depth_duration_stimuli/000677_2014-06-08_23-10-32_260595134347_rgbf000158-resize_6/000677_2014-06-08_23-10-32_260595134347_rgbf000158-resize_6-target.png,125,3.556,6,2409,125,meters,jsons/VE125_randls_56_rotated.json,636918,826754,62,Man
159,740754,DepthScenes,duration_manipulation_targetAtFixation,jsons/VE125_randls_56_rotated.json,http://54.235.29.9/FacialAge/BNav_EC2/DepthDuration/v2_depth_duration_MTurk/v2_DepthDuration_HTML.html#358,358,1705,781,1364,768,8-29-2022,11-27-0,160,depth_duration_stimuli/001029_2014-06-08_13-17-57_260595134347_rgbf000065-resize_1/001029_2014-06-08_13-17-57_260595134347_rgbf000065-resize_1-target.png,125,3.0835,4,2204,125,meters,jsons/VE125_randls_56_rotated.json,636918,826754,62,Man
160,740754,DepthScenes,duration_manipulation_targetAtFixation,jsons/VE125_randls_56_rotated.json,http://54.235.29.9/FacialAge/BNav_EC2/DepthDuration/v2_depth_duration_MTurk/v2_DepthDuration_HTML.html#358,358,1705,781,1364,768,8-29-2022,11-27-0,161,depth_duration_stimuli/003129_2014-05-12_10-48-10_094959634447_rgbf000100-resize_0/003129_2014-05-12_10-48-10_094959634447_rgbf000100-resize_0-target.png,125,4.9305,6,2201,124,meters,jsons/VE125_randls_56_rotated.json,636918,826754,62,Man
161,740754,DepthScenes,duration_manipulation_targetAtFixation,jsons/VE125_randls_56_rotated.json,http://54.235.29.9/FacialAge/BNav_EC2/DepthDuration/v2_depth_duration_MTurk/v2_DepthDuration_HTML.html#358,358,1705,781,1364,768,8-29-2022,11-27-0,162,depth_duration_stimuli/000414_2014-06-04_19-49-13_260595134347_rgbf000044-resize_0/000414_2014-06-04_19-49-13_260595134347_rgbf000044-resize_0-target.png,125,4.329,4,2206,124,meters,jsons/VE125_randls_56_rotated.json,636918,826754,62,Man
162,740754,DepthScenes,duration_manipulation_targetAtFixation,jsons/VE125_randls_56_rotated.json,http://54.235.29.9/FacialAge/BNav_EC2/DepthDuration/v2_depth_duration_MTurk/v2_DepthDuration_HTML.html#358,358,1705,781,1364,768,8-29-2022,11-27-0,163,depth_duration_stimuli/002340_2014-06-28_20-05-46_260595134347_rgbf000113-resize_0/002340_2014-06-28_20-05-46_260595134347_rgbf000113-resize_0-target.png,125,2.4735,4,2759,125,meters,jsons/VE125_randls_56_rotated.json,636918,826754,62,Man
163,740754,DepthScenes,duration_manipulation_targetAtFixation,jsons/VE125_randls_56_rotated.json,http://54.235.29.9/FacialAge/BNav_EC2/DepthDuration/v2_depth_duration_MTurk/v2_DepthDuration_HTML.html#358,358,1705,781,1364,768,8-29-2022,11-27-0,164,depth_duration_stimuli/001016_2014-06-09_16-16-10_260595134347_rgbf000112-resize_5/001016_2014-06-09_16-16-10_260595134347_rgbf000112-resize_5-target.png,125,1.6565,3,2149,126,meters,jsons/VE125_randls_56_rotated.json,636918,826754,62,Man
