,subjID,experimentName,versionName,sequenceName,url,selected_row,windowWidth,windowHeight,screenWidth,screenHeight,startDate,startTime,trial,stimulus,duration,actual_depth,depth_estimate,trial_RT,log_sceneDuration,unitSelection,seq_filepath,experimentTime,totalTime,age,gender
0,742016,DepthScenes,duration_manipulation_targetAtFixation,jsons/VE125_randls_68.json,http://54.235.29.9/FacialAge/BNav_EC2/DepthDuration/v2_depth_duration_MTurk/v2_DepthDuration_HTML.html#155,155,1366,625,1366,768,8-30-2022,6-56-10,1,depth_duration_stimuli/000522_2014-06-08_13-35-06_260595134347_rgbf000244-resize_1/000522_2014-06-08_13-35-06_260595134347_rgbf000244-resize_1-target.png,125,2.3715,1,4662,129,meters,jsons/VE125_randls_68.json,785860,1609847,1982,Woman
1,742016,DepthScenes,duration_manipulation_targetAtFixation,jsons/VE125_randls_68.json,http://54.235.29.9/FacialAge/BNav_EC2/DepthDuration/v2_depth_duration_MTurk/v2_DepthDuration_HTML.html#155,155,1366,625,1366,768,8-30-2022,6-56-10,2,depth_duration_stimuli/002949_2014-06-26_15-57-42_094959634447_rgbf000079-resize_1/002949_2014-06-26_15-57-42_094959634447_rgbf000079-resize_1-target.png,125,1.8915,1,5053,111,meters,jsons/VE125_randls_68.json,785860,1609847,1982,Woman
2,742016,DepthScenes,duration_manipulation_targetAtFixation,jsons/VE125_randls_68.json,http://54.235.29.9/FacialAge/BNav_EC2/DepthDuration/v2_depth_duration_MTurk/v2_DepthDuration_HTML.html#155,155,1366,625,1366,768,8-30-2022,6-56-10,3,depth_duration_stimuli/001167_2014-06-17_15-38-07_260595134347_rgbf000108-resize_0/001167_2014-06-17_15-38-07_260595134347_rgbf000108-resize_0-target.png,125,1.8505,1,3612,123,meters,jsons/VE125_randls_68.json,785860,1609847,1982,Woman
3,742016,DepthScenes,duration_manipulation_targetAtFixation,jsons/VE125_randls_68.json,http://54.235.29.9/FacialAge/BNav_EC2/DepthDuration/v2_depth_duration_MTurk/v2_DepthDuration_HTML.html#155,155,1366,625,1366,768,8-30-2022,6-56-10,4,depth_duration_stimuli/003587_2014-05-23_16-48-02_094959634447_rgbf002384-resize_2/003587_2014-05-23_16-48-02_094959634447_rgbf002384-resize_2-target.png,125,1.357,3,7593,124,meters,jsons/VE125_randls_68.json,785860,1609847,1982,Woman
4,742016,DepthScenes,duration_manipulation_targetAtFixation,jsons/VE125_randls_68.json,http://54.235.29.9/FacialAge/BNav_EC2/DepthDuration/v2_depth_duration_MTurk/v2_DepthDuration_HTML.html#155,155,1366,625,1366,768,8-30-2022,6-56-10,5,depth_duration_stimuli/003070_2014-06-15_14-58-27_094959634447_rgbf000150-resize_3/003070_2014-06-15_14-58-27_094959634447_rgbf000150-resize_3-target.png,125,2.9415,1,6261,123,meters,jsons/VE125_randls_68.json,785860,1609847,1982,Woman
5,742016,DepthScenes,duration_manipulation_targetAtFixation,jsons/VE125_randls_68.json,http://54.235.29.9/FacialAge/BNav_EC2/DepthDuration/v2_depth_duration_MTurk/v2_DepthDuration_HTML.html#155,155,1366,625,1366,768,8-30-2022,6-56-10,6,depth_duration_stimuli/000943_2014-06-09_19-31-07_260595134347_rgbf000128-resize_1/000943_2014-06-09_19-31-07_260595134347_rgbf000128-resize_1-target.png,125,1.9765,2,4700,124,meters,jsons/VE125_randls_68.json,785860,1609847,1982,Woman
6,742016,DepthScenes,duration_manipulation_targetAtFixation,jsons/VE125_randls_68.json,http://54.235.29.9/FacialAge/BNav_EC2/DepthDuration/v2_depth_duration_MTurk/v2_DepthDuration_HTML.html#155,155,1366,625,1366,768,8-30-2022,6-56-10,7,depth_duration_stimuli/001810_2014-06-26_20-51-35_260595134347_rgbf000040-resize_3/001810_2014-06-26_20-51-35_260595134347_rgbf000040-resize_3-target.png,125,2.2525,0,6577,123,meters,jsons/VE125_randls_68.json,785860,1609847,1982,Woman
7,742016,DepthScenes,duration_manipulation_targetAtFixation,jsons/VE125_randls_68.json,http://54.235.29.9/FacialAge/BNav_EC2/DepthDuration/v2_depth_duration_MTurk/v2_DepthDuration_HTML.html#155,155,1366,625,1366,768,8-30-2022,6-56-10,8,depth_duration_stimuli/003010_2014-06-15_12-54-35_094959634447_rgbf000112-resize_0/003010_2014-06-15_12-54-35_094959634447_rgbf000112-resize_0-target.png,125,3.1185,0,3671,124,meters,jsons/VE125_randls_68.json,785860,1609847,1982,Woman
8,742016,DepthScenes,duration_manipulation_targetAtFixation,jsons/VE125_randls_68.json,http://54.235.29.9/FacialAge/BNav_EC2/DepthDuration/v2_depth_duration_MTurk/v2_DepthDuration_HTML.html#155,155,1366,625,1366,768,8-30-2022,6-56-10,9,depth_duration_stimuli/000758_2014-06-08_22-05-08_260595134347_rgbf000085-resize_0/000758_2014-06-08_22-05-08_260595134347_rgbf000085-resize_0-target.png,125,3.3810000000000002,2,5522,139,meters,jsons/VE125_randls_68.json,785860,1609847,1982,Woman
9,742016,DepthScenes,duration_manipulation_targetAtFixation,jsons/VE125_randls_68.json,http://54.235.29.9/FacialAge/BNav_EC2/DepthDuration/v2_depth_duration_MTurk/v2_DepthDuration_HTML.html#155,155,1366,625,1366,768,8-30-2022,6-56-10,10,depth_duration_stimuli/000854_2014-06-09_19-43-13_260595134347_rgbf000066-resize_0/000854_2014-06-09_19-43-13_260595134347_rgbf000066-resize_0-target.png,125,3.068,1,3820,125,meters,jsons/VE125_randls_68.json,785860,1609847,1982,Woman
10,742016,DepthScenes,duration_manipulation_targetAtFixation,jsons/VE125_randls_68.json,http://54.235.29.9/FacialAge/BNav_EC2/DepthDuration/v2_depth_duration_MTurk/v2_DepthDuration_HTML.html#155,155,1366,625,1366,768,8-30-2022,6-56-10,11,depth_duration_stimuli/001417_2014-06-19_16-25-36_260595134347_rgbf000115-resize_5/001417_2014-06-19_16-25-36_260595134347_rgbf000115-resize_5-target.png,125,4.6255,2,5567,120,meters,jsons/VE125_randls_68.json,785860,1609847,1982,Woman
11,742016,DepthScenes,duration_manipulation_targetAtFixation,jsons/VE125_randls_68.json,http://54.235.29.9/FacialAge/BNav_EC2/DepthDuration/v2_depth_duration_MTurk/v2_DepthDuration_HTML.html#155,155,1366,625,1366,768,8-30-2022,6-56-10,12,depth_duration_stimuli/003081_2014-06-15_15-19-16_094959634447_rgbf000150-resize_1/003081_2014-06-15_15-19-16_094959634447_rgbf000150-resize_1-target.png,125,3.9125,3,4048,113,meters,jsons/VE125_randls_68.json,785860,1609847,1982,Woman
12,742016,DepthScenes,duration_manipulation_targetAtFixation,jsons/VE125_randls_68.json,http://54.235.29.9/FacialAge/BNav_EC2/DepthDuration/v2_depth_duration_MTurk/v2_DepthDuration_HTML.html#155,155,1366,625,1366,768,8-30-2022,6-56-10,13,depth_duration_stimuli/000569_2014-06-09_22-51-47_260595134347_rgbf000141-resize_3/000569_2014-06-09_22-51-47_260595134347_rgbf000141-resize-original.jpg,125,4.512,0,4431,110,meters,jsons/VE125_randls_68.json,785860,1609847,1982,Woman
13,742016,DepthScenes,duration_manipulation_targetAtFixation,jsons/VE125_randls_68.json,http://54.235.29.9/FacialAge/BNav_EC2/DepthDuration/v2_depth_duration_MTurk/v2_DepthDuration_HTML.html#155,155,1366,625,1366,768,8-30-2022,6-56-10,14,depth_duration_stimuli/001164_2014-06-17_15-35-46_260595134347_rgbf000085-resize_3/001164_2014-06-17_15-35-46_260595134347_rgbf000085-resize_3-target.png,125,2.354,4,5814,124,meters,jsons/VE125_randls_68.json,785860,1609847,1982,Woman
14,742016,DepthScenes,duration_manipulation_targetAtFixation,jsons/VE125_randls_68.json,http://54.235.29.9/FacialAge/BNav_EC2/DepthDuration/v2_depth_duration_MTurk/v2_DepthDuration_HTML.html#155,155,1366,625,1366,768,8-30-2022,6-56-10,15,depth_duration_stimuli/001136_2014-06-17_15-19-41_260595134347_rgbf000076-resize_3/001136_2014-06-17_15-19-41_260595134347_rgbf000076-resize_3-target.png,125,1.8655,0,3817,123,meters,jsons/VE125_randls_68.json,785860,1609847,1982,Woman
15,742016,DepthScenes,duration_manipulation_targetAtFixation,jsons/VE125_randls_68.json,http://54.235.29.9/FacialAge/BNav_EC2/DepthDuration/v2_depth_duration_MTurk/v2_DepthDuration_HTML.html#155,155,1366,625,1366,768,8-30-2022,6-56-10,16,depth_duration_stimuli/002057_2014-06-24_21-00-13_260595134347_rgbf000120-resize_1/002057_2014-06-24_21-00-13_260595134347_rgbf000120-resize_1-target.png,125,2.967,5,6171,139,meters,jsons/VE125_randls_68.json,785860,1609847,1982,Woman
16,742016,DepthScenes,duration_manipulation_targetAtFixation,jsons/VE125_randls_68.json,http://54.235.29.9/FacialAge/BNav_EC2/DepthDuration/v2_depth_duration_MTurk/v2_DepthDuration_HTML.html#155,155,1366,625,1366,768,8-30-2022,6-56-10,17,depth_duration_stimuli/000709_2014-06-08_13-51-55_260595134347_rgbf000068-resize_3/000709_2014-06-08_13-51-55_260595134347_rgbf000068-resize_3-target.png,125,1.8030000000000002,0,7007,124,meters,jsons/VE125_randls_68.json,785860,1609847,1982,Woman
17,742016,DepthScenes,duration_manipulation_targetAtFixation,jsons/VE125_randls_68.json,http://54.235.29.9/FacialAge/BNav_EC2/DepthDuration/v2_depth_duration_MTurk/v2_DepthDuration_HTML.html#155,155,1366,625,1366,768,8-30-2022,6-56-10,18,depth_duration_stimuli/001199_2014-06-17_16-03-48_260595134347_rgbf000077-resize_0/001199_2014-06-17_16-03-48_260595134347_rgbf000077-resize_0-target.png,125,3.4375,2,5090,138,meters,jsons/VE125_randls_68.json,785860,1609847,1982,Woman
18,742016,DepthScenes,duration_manipulation_targetAtFixation,jsons/VE125_randls_68.json,http://54.235.29.9/FacialAge/BNav_EC2/DepthDuration/v2_depth_duration_MTurk/v2_DepthDuration_HTML.html#155,155,1366,625,1366,768,8-30-2022,6-56-10,19,depth_duration_stimuli/000502_2014-06-08_23-02-32_260595134347_rgbf000063-resize_4/000502_2014-06-08_23-02-32_260595134347_rgbf000063-resize_4-target.png,125,2.431,3,4309,139,meters,jsons/VE125_randls_68.json,785860,1609847,1982,Woman
19,742016,DepthScenes,duration_manipulation_targetAtFixation,jsons/VE125_randls_68.json,http://54.235.29.9/FacialAge/BNav_EC2/DepthDuration/v2_depth_duration_MTurk/v2_DepthDuration_HTML.html#155,155,1366,625,1366,768,8-30-2022,6-56-10,20,depth_duration_stimuli/000493_2014-06-09_21-01-18_260595134347_rgbf000196-resize_3/000493_2014-06-09_21-01-18_260595134347_rgbf000196-resize_3-target.png,125,3.44,3,4724,140,meters,jsons/VE125_randls_68.json,785860,1609847,1982,Woman
20,742016,DepthScenes,duration_manipulation_targetAtFixation,jsons/VE125_randls_68.json,http://54.235.29.9/FacialAge/BNav_EC2/DepthDuration/v2_depth_duration_MTurk/v2_DepthDuration_HTML.html#155,155,1366,625,1366,768,8-30-2022,6-56-10,21,depth_duration_stimuli/000191_2014-05-12_17-07-38_260595134347_rgbf000199-resize_0/000191_2014-05-12_17-07-38_260595134347_rgbf000199-resize_0-target.png,125,3.7995,3,5402,126,meters,jsons/VE125_randls_68.json,785860,1609847,1982,Woman
21,742016,DepthScenes,duration_manipulation_targetAtFixation,jsons/VE125_randls_68.json,http://54.235.29.9/FacialAge/BNav_EC2/DepthDuration/v2_depth_duration_MTurk/v2_DepthDuration_HTML.html#155,155,1366,625,1366,768,8-30-2022,6-56-10,22,depth_duration_stimuli/001808_2014-06-26_20-50-58_260595134347_rgbf000029-resize_1/001808_2014-06-26_20-50-58_260595134347_rgbf000029-resize_1-target.png,125,4.249,4,5145,141,meters,jsons/VE125_randls_68.json,785860,1609847,1982,Woman
22,742016,DepthScenes,duration_manipulation_targetAtFixation,jsons/VE125_randls_68.json,http://54.235.29.9/FacialAge/BNav_EC2/DepthDuration/v2_depth_duration_MTurk/v2_DepthDuration_HTML.html#155,155,1366,625,1366,768,8-30-2022,6-56-10,23,depth_duration_stimuli/001815_2014-06-26_20-52-55_260595134347_rgbf000020-resize_0/001815_2014-06-26_20-52-55_260595134347_rgbf000020-resize_0-target.png,125,3.3865,4,3748,124,meters,jsons/VE125_randls_68.json,785860,1609847,1982,Woman
23,742016,DepthScenes,duration_manipulation_targetAtFixation,jsons/VE125_randls_68.json,http://54.235.29.9/FacialAge/BNav_EC2/DepthDuration/v2_depth_duration_MTurk/v2_DepthDuration_HTML.html#155,155,1366,625,1366,768,8-30-2022,6-56-10,24,depth_duration_stimuli/000906_2014-06-08_13-35-43_260595134347_rgbf000155-resize_1/000906_2014-06-08_13-35-43_260595134347_rgbf000155-resize_1-target.png,125,2.8489999999999998,5,4396,124,meters,jsons/VE125_randls_68.json,785860,1609847,1982,Woman
24,742016,DepthScenes,duration_manipulation_targetAtFixation,jsons/VE125_randls_68.json,http://54.235.29.9/FacialAge/BNav_EC2/DepthDuration/v2_depth_duration_MTurk/v2_DepthDuration_HTML.html#155,155,1366,625,1366,768,8-30-2022,6-56-10,25,depth_duration_stimuli/002805_2014-06-22_19-54-03_094959634447_rgbf000079-resize_1/002805_2014-06-22_19-54-03_094959634447_rgbf000079-resize_1-target.png,125,3.1439999999999997,4,3491,124,meters,jsons/VE125_randls_68.json,785860,1609847,1982,Woman
25,742016,DepthScenes,duration_manipulation_targetAtFixation,jsons/VE125_randls_68.json,http://54.235.29.9/FacialAge/BNav_EC2/DepthDuration/v2_depth_duration_MTurk/v2_DepthDuration_HTML.html#155,155,1366,625,1366,768,8-30-2022,6-56-10,26,depth_duration_stimuli/002549_2014-06-24_13-41-39_094959634447_rgbf000022-resize_3/002549_2014-06-24_13-41-39_094959634447_rgbf000022-resize_3-target.png,125,1.476,0,4788,124,meters,jsons/VE125_randls_68.json,785860,1609847,1982,Woman
26,742016,DepthScenes,duration_manipulation_targetAtFixation,jsons/VE125_randls_68.json,http://54.235.29.9/FacialAge/BNav_EC2/DepthDuration/v2_depth_duration_MTurk/v2_DepthDuration_HTML.html#155,155,1366,625,1366,768,8-30-2022,6-56-10,27,depth_duration_stimuli/002750_2014-06-22_19-08-03_094959634447_rgbf000094-resize_4/002750_2014-06-22_19-08-03_094959634447_rgbf000094-resize_4-target.png,125,2.354,2,4674,124,meters,jsons/VE125_randls_68.json,785860,1609847,1982,Woman
27,742016,DepthScenes,duration_manipulation_targetAtFixation,jsons/VE125_randls_68.json,http://54.235.29.9/FacialAge/BNav_EC2/DepthDuration/v2_depth_duration_MTurk/v2_DepthDuration_HTML.html#155,155,1366,625,1366,768,8-30-2022,6-56-10,28,depth_duration_stimuli/001570_2014-06-20_17-21-09_260595134347_rgbf000135-resize_4/001570_2014-06-20_17-21-09_260595134347_rgbf000135-resize_4-target.png,125,4.467,3,4976,124,meters,jsons/VE125_randls_68.json,785860,1609847,1982,Woman
28,742016,DepthScenes,duration_manipulation_targetAtFixation,jsons/VE125_randls_68.json,http://54.235.29.9/FacialAge/BNav_EC2/DepthDuration/v2_depth_duration_MTurk/v2_DepthDuration_HTML.html#155,155,1366,625,1366,768,8-30-2022,6-56-10,29,depth_duration_stimuli/001392_2014-06-19_16-07-59_260595134347_rgbf000046-resize_1/001392_2014-06-19_16-07-59_260595134347_rgbf000046-resize_1-target.png,125,4.135,5,3679,125,meters,jsons/VE125_randls_68.json,785860,1609847,1982,Woman
29,742016,DepthScenes,duration_manipulation_targetAtFixation,jsons/VE125_randls_68.json,http://54.235.29.9/FacialAge/BNav_EC2/DepthDuration/v2_depth_duration_MTurk/v2_DepthDuration_HTML.html#155,155,1366,625,1366,768,8-30-2022,6-56-10,30,depth_duration_stimuli/000375_2014-06-08_11-17-29_260595134347_rgbf000133-resize_2/000375_2014-06-08_11-17-29_260595134347_rgbf000133-resize-original.jpg,125,4.718,0,3487,139,meters,jsons/VE125_randls_68.json,785860,1609847,1982,Woman
30,742016,DepthScenes,duration_manipulation_targetAtFixation,jsons/VE125_randls_68.json,http://54.235.29.9/FacialAge/BNav_EC2/DepthDuration/v2_depth_duration_MTurk/v2_DepthDuration_HTML.html#155,155,1366,625,1366,768,8-30-2022,6-56-10,31,depth_duration_stimuli/001449_2014-06-19_17-01-27_260595134347_rgbf000116-resize_2/001449_2014-06-19_17-01-27_260595134347_rgbf000116-resize_2-target.png,125,3.452,3,3445,123,meters,jsons/VE125_randls_68.json,785860,1609847,1982,Woman
31,742016,DepthScenes,duration_manipulation_targetAtFixation,jsons/VE125_randls_68.json,http://54.235.29.9/FacialAge/BNav_EC2/DepthDuration/v2_depth_duration_MTurk/v2_DepthDuration_HTML.html#155,155,1366,625,1366,768,8-30-2022,6-56-10,32,depth_duration_stimuli/001450_2014-06-19_17-02-03_260595134347_rgbf000203-resize_4/001450_2014-06-19_17-02-03_260595134347_rgbf000203-resize_4-target.png,125,4.0106666666667,3,4516,124,meters,jsons/VE125_randls_68.json,785860,1609847,1982,Woman
32,742016,DepthScenes,duration_manipulation_targetAtFixation,jsons/VE125_randls_68.json,http://54.235.29.9/FacialAge/BNav_EC2/DepthDuration/v2_depth_duration_MTurk/v2_DepthDuration_HTML.html#155,155,1366,625,1366,768,8-30-2022,6-56-10,33,depth_duration_stimuli/002905_2014-06-03_18-04-43_094959634447_rgbf000151-resize_2/002905_2014-06-03_18-04-43_094959634447_rgbf000151-resize_2-target.png,125,2.0295,2,4615,114,meters,jsons/VE125_randls_68.json,785860,1609847,1982,Woman
33,742016,DepthScenes,duration_manipulation_targetAtFixation,jsons/VE125_randls_68.json,http://54.235.29.9/FacialAge/BNav_EC2/DepthDuration/v2_depth_duration_MTurk/v2_DepthDuration_HTML.html#155,155,1366,625,1366,768,8-30-2022,6-56-10,34,depth_duration_stimuli/003423_2014-05-21_10-23-26_094959634447_rgbf002665-resize_2/003423_2014-05-21_10-23-26_094959634447_rgbf002665-resize_2-target.png,125,3.2575,2,2906,126,meters,jsons/VE125_randls_68.json,785860,1609847,1982,Woman
34,742016,DepthScenes,duration_manipulation_targetAtFixation,jsons/VE125_randls_68.json,http://54.235.29.9/FacialAge/BNav_EC2/DepthDuration/v2_depth_duration_MTurk/v2_DepthDuration_HTML.html#155,155,1366,625,1366,768,8-30-2022,6-56-10,35,depth_duration_stimuli/002445_2014-06-28_20-32-16_260595134347_rgbf000029-resize_4/002445_2014-06-28_20-32-16_260595134347_rgbf000029-resize_4-target.png,125,2.5315,1,4541,125,meters,jsons/VE125_randls_68.json,785860,1609847,1982,Woman
35,742016,DepthScenes,duration_manipulation_targetAtFixation,jsons/VE125_randls_68.json,http://54.235.29.9/FacialAge/BNav_EC2/DepthDuration/v2_depth_duration_MTurk/v2_DepthDuration_HTML.html#155,155,1366,625,1366,768,8-30-2022,6-56-10,36,depth_duration_stimuli/000780_2014-06-08_22-28-29_260595134347_rgbf000126-resize_1/000780_2014-06-08_22-28-29_260595134347_rgbf000126-resize_1-target.png,125,3.3825,3,3713,125,meters,jsons/VE125_randls_68.json,785860,1609847,1982,Woman
36,742016,DepthScenes,duration_manipulation_targetAtFixation,jsons/VE125_randls_68.json,http://54.235.29.9/FacialAge/BNav_EC2/DepthDuration/v2_depth_duration_MTurk/v2_DepthDuration_HTML.html#155,155,1366,625,1366,768,8-30-2022,6-56-10,37,depth_duration_stimuli/000009_2014-05-26_14-32-05_260595134347_rgbf000034-resize_3/000009_2014-05-26_14-32-05_260595134347_rgbf000034-resize_3-target.png,125,3.8715,5,3513,124,meters,jsons/VE125_randls_68.json,785860,1609847,1982,Woman
37,742016,DepthScenes,duration_manipulation_targetAtFixation,jsons/VE125_randls_68.json,http://54.235.29.9/FacialAge/BNav_EC2/DepthDuration/v2_depth_duration_MTurk/v2_DepthDuration_HTML.html#155,155,1366,625,1366,768,8-30-2022,6-56-10,38,depth_duration_stimuli/001828_2014-06-26_21-40-03_260595134347_rgbf000024-resize_0/001828_2014-06-26_21-40-03_260595134347_rgbf000024-resize_0-target.png,125,4.8260000000000005,3,3240,140,meters,jsons/VE125_randls_68.json,785860,1609847,1982,Woman
38,742016,DepthScenes,duration_manipulation_targetAtFixation,jsons/VE125_randls_68.json,http://54.235.29.9/FacialAge/BNav_EC2/DepthDuration/v2_depth_duration_MTurk/v2_DepthDuration_HTML.html#155,155,1366,625,1366,768,8-30-2022,6-56-10,39,depth_duration_stimuli/000642_2014-06-08_16-59-25_260595134347_rgbf000098-resize_2/000642_2014-06-08_16-59-25_260595134347_rgbf000098-resize_2-target.png,125,2.8815,1,4688,126,meters,jsons/VE125_randls_68.json,785860,1609847,1982,Woman
39,742016,DepthScenes,duration_manipulation_targetAtFixation,jsons/VE125_randls_68.json,http://54.235.29.9/FacialAge/BNav_EC2/DepthDuration/v2_depth_duration_MTurk/v2_DepthDuration_HTML.html#155,155,1366,625,1366,768,8-30-2022,6-56-10,40,depth_duration_stimuli/002425_2014-06-28_20-27-29_260595134347_rgbf000031-resize_8/002425_2014-06-28_20-27-29_260595134347_rgbf000031-resize_8-target.png,125,3.8960000000000004,2,3192,125,meters,jsons/VE125_randls_68.json,785860,1609847,1982,Woman
40,742016,DepthScenes,duration_manipulation_targetAtFixation,jsons/VE125_randls_68.json,http://54.235.29.9/FacialAge/BNav_EC2/DepthDuration/v2_depth_duration_MTurk/v2_DepthDuration_HTML.html#155,155,1366,625,1366,768,8-30-2022,6-56-10,41,depth_duration_stimuli/000788_2014-06-08_22-34-36_260595134347_rgbf000131-resize_1/000788_2014-06-08_22-34-36_260595134347_rgbf000131-resize_1-target.png,125,3.359,1,4220,125,meters,jsons/VE125_randls_68.json,785860,1609847,1982,Woman
41,742016,DepthScenes,duration_manipulation_targetAtFixation,jsons/VE125_randls_68.json,http://54.235.29.9/FacialAge/BNav_EC2/DepthDuration/v2_depth_duration_MTurk/v2_DepthDuration_HTML.html#155,155,1366,625,1366,768,8-30-2022,6-56-10,42,depth_duration_stimuli/001235_2014-06-17_16-37-36_260595134347_rgbf000084-resize_4/001235_2014-06-17_16-37-36_260595134347_rgbf000084-resize_4-target.png,125,3.6605,2,3776,124,meters,jsons/VE125_randls_68.json,785860,1609847,1982,Woman
42,742016,DepthScenes,duration_manipulation_targetAtFixation,jsons/VE125_randls_68.json,http://54.235.29.9/FacialAge/BNav_EC2/DepthDuration/v2_depth_duration_MTurk/v2_DepthDuration_HTML.html#155,155,1366,625,1366,768,8-30-2022,6-56-10,43,depth_duration_stimuli/002763_2014-06-22_19-13-10_094959634447_rgbf000075-resize_4/002763_2014-06-22_19-13-10_094959634447_rgbf000075-resize_4-target.png,125,1.68375,1,3084,123,meters,jsons/VE125_randls_68.json,785860,1609847,1982,Woman
43,742016,DepthScenes,duration_manipulation_targetAtFixation,jsons/VE125_randls_68.json,http://54.235.29.9/FacialAge/BNav_EC2/DepthDuration/v2_depth_duration_MTurk/v2_DepthDuration_HTML.html#155,155,1366,625,1366,768,8-30-2022,6-56-10,44,depth_duration_stimuli/002209_2014-06-28_18-36-10_260595134347_rgbf000051-resize_1/002209_2014-06-28_18-36-10_260595134347_rgbf000051-resize_1-target.png,125,2.057,1,2752,139,meters,jsons/VE125_randls_68.json,785860,1609847,1982,Woman
44,742016,DepthScenes,duration_manipulation_targetAtFixation,jsons/VE125_randls_68.json,http://54.235.29.9/FacialAge/BNav_EC2/DepthDuration/v2_depth_duration_MTurk/v2_DepthDuration_HTML.html#155,155,1366,625,1366,768,8-30-2022,6-56-10,45,depth_duration_stimuli/000787_2014-06-08_22-33-53_260595134347_rgbf000175-resize_1/000787_2014-06-08_22-33-53_260595134347_rgbf000175-resize-original.jpg,125,4.784,0,4005,124,meters,jsons/VE125_randls_68.json,785860,1609847,1982,Woman
45,742016,DepthScenes,duration_manipulation_targetAtFixation,jsons/VE125_randls_68.json,http://54.235.29.9/FacialAge/BNav_EC2/DepthDuration/v2_depth_duration_MTurk/v2_DepthDuration_HTML.html#155,155,1366,625,1366,768,8-30-2022,6-56-10,46,depth_duration_stimuli/001059_2014-06-08_21-53-27_260595134347_rgbf000061-resize_4/001059_2014-06-08_21-53-27_260595134347_rgbf000061-resize_4-target.png,125,2.4185,1,4252,125,meters,jsons/VE125_randls_68.json,785860,1609847,1982,Woman
46,742016,DepthScenes,duration_manipulation_targetAtFixation,jsons/VE125_randls_68.json,http://54.235.29.9/FacialAge/BNav_EC2/DepthDuration/v2_depth_duration_MTurk/v2_DepthDuration_HTML.html#155,155,1366,625,1366,768,8-30-2022,6-56-10,47,depth_duration_stimuli/001032_2014-06-08_13-23-17_260595134347_rgbf000021-resize_3/001032_2014-06-08_13-23-17_260595134347_rgbf000021-resize_3-target.png,125,3.2725,1,3506,112,meters,jsons/VE125_randls_68.json,785860,1609847,1982,Woman
47,742016,DepthScenes,duration_manipulation_targetAtFixation,jsons/VE125_randls_68.json,http://54.235.29.9/FacialAge/BNav_EC2/DepthDuration/v2_depth_duration_MTurk/v2_DepthDuration_HTML.html#155,155,1366,625,1366,768,8-30-2022,6-56-10,48,depth_duration_stimuli/002788_2014-06-22_19-36-03_094959634447_rgbf000088-resize_2/002788_2014-06-22_19-36-03_094959634447_rgbf000088-resize_2-target.png,125,1.6465,2,4405,124,meters,jsons/VE125_randls_68.json,785860,1609847,1982,Woman
48,742016,DepthScenes,duration_manipulation_targetAtFixation,jsons/VE125_randls_68.json,http://54.235.29.9/FacialAge/BNav_EC2/DepthDuration/v2_depth_duration_MTurk/v2_DepthDuration_HTML.html#155,155,1366,625,1366,768,8-30-2022,6-56-10,49,depth_duration_stimuli/000749_2014-06-08_21-55-06_260595134347_rgbf000070-resize_2/000749_2014-06-08_21-55-06_260595134347_rgbf000070-resize_2-target.png,125,2.331,1,4614,140,meters,jsons/VE125_randls_68.json,785860,1609847,1982,Woman
49,742016,DepthScenes,duration_manipulation_targetAtFixation,jsons/VE125_randls_68.json,http://54.235.29.9/FacialAge/BNav_EC2/DepthDuration/v2_depth_duration_MTurk/v2_DepthDuration_HTML.html#155,155,1366,625,1366,768,8-30-2022,6-56-10,50,depth_duration_stimuli/000469_2014-06-09_19-42-10_260595134347_rgbf000081-resize_1/000469_2014-06-09_19-42-10_260595134347_rgbf000081-resize_1-target.png,125,1.652,1,4936,140,meters,jsons/VE125_randls_68.json,785860,1609847,1982,Woman
50,742016,DepthScenes,duration_manipulation_targetAtFixation,jsons/VE125_randls_68.json,http://54.235.29.9/FacialAge/BNav_EC2/DepthDuration/v2_depth_duration_MTurk/v2_DepthDuration_HTML.html#155,155,1366,625,1366,768,8-30-2022,6-56-10,51,depth_duration_stimuli/000483_2014-06-09_20-41-45_260595134347_rgbf000116-resize_4/000483_2014-06-09_20-41-45_260595134347_rgbf000116-resize_4-target.png,125,1.337,1,3214,108,meters,jsons/VE125_randls_68.json,785860,1609847,1982,Woman
51,742016,DepthScenes,duration_manipulation_targetAtFixation,jsons/VE125_randls_68.json,http://54.235.29.9/FacialAge/BNav_EC2/DepthDuration/v2_depth_duration_MTurk/v2_DepthDuration_HTML.html#155,155,1366,625,1366,768,8-30-2022,6-56-10,52,depth_duration_stimuli/001055_2014-06-08_18-45-35_260595134347_rgbf000111-resize_4/001055_2014-06-08_18-45-35_260595134347_rgbf000111-resize_4-target.png,125,2.4290000000000003,2,3045,123,meters,jsons/VE125_randls_68.json,785860,1609847,1982,Woman
52,742016,DepthScenes,duration_manipulation_targetAtFixation,jsons/VE125_randls_68.json,http://54.235.29.9/FacialAge/BNav_EC2/DepthDuration/v2_depth_duration_MTurk/v2_DepthDuration_HTML.html#155,155,1366,625,1366,768,8-30-2022,6-56-10,53,depth_duration_stimuli/000549_2014-06-08_22-10-24_260595134347_rgbf000247-resize_3/000549_2014-06-08_22-10-24_260595134347_rgbf000247-resize_3-target.png,125,1.841,2,4829,125,meters,jsons/VE125_randls_68.json,785860,1609847,1982,Woman
53,742016,DepthScenes,duration_manipulation_targetAtFixation,jsons/VE125_randls_68.json,http://54.235.29.9/FacialAge/BNav_EC2/DepthDuration/v2_depth_duration_MTurk/v2_DepthDuration_HTML.html#155,155,1366,625,1366,768,8-30-2022,6-56-10,54,depth_duration_stimuli/000810_2014-06-08_17-20-01_260595134347_rgbf000105-resize_0/000810_2014-06-08_17-20-01_260595134347_rgbf000105-resize_0-target.png,125,1.4865,1,4434,124,meters,jsons/VE125_randls_68.json,785860,1609847,1982,Woman
54,742016,DepthScenes,duration_manipulation_targetAtFixation,jsons/VE125_randls_68.json,http://54.235.29.9/FacialAge/BNav_EC2/DepthDuration/v2_depth_duration_MTurk/v2_DepthDuration_HTML.html#155,155,1366,625,1366,768,8-30-2022,6-56-10,55,depth_duration_stimuli/001214_2014-06-17_16-13-55_260595134347_rgbf000111-resize_0/001214_2014-06-17_16-13-55_260595134347_rgbf000111-resize_0-target.png,125,2.6505,1,3034,139,meters,jsons/VE125_randls_68.json,785860,1609847,1982,Woman
55,742016,DepthScenes,duration_manipulation_targetAtFixation,jsons/VE125_randls_68.json,http://54.235.29.9/FacialAge/BNav_EC2/DepthDuration/v2_depth_duration_MTurk/v2_DepthDuration_HTML.html#155,155,1366,625,1366,768,8-30-2022,6-56-10,56,depth_duration_stimuli/001092_2014-06-15_17-34-58_260595134347_rgbf000171-resize_3/001092_2014-06-15_17-34-58_260595134347_rgbf000171-resize_3-target.png,125,2.6935,1,4460,72,meters,jsons/VE125_randls_68.json,785860,1609847,1982,Woman
56,742016,DepthScenes,duration_manipulation_targetAtFixation,jsons/VE125_randls_68.json,http://54.235.29.9/FacialAge/BNav_EC2/DepthDuration/v2_depth_duration_MTurk/v2_DepthDuration_HTML.html#155,155,1366,625,1366,768,8-30-2022,6-56-10,57,depth_duration_stimuli/002545_2014-06-24_13-38-53_094959634447_rgbf000080-resize_4/002545_2014-06-24_13-38-53_094959634447_rgbf000080-resize_4-target.png,125,1.9205,2,3382,123,meters,jsons/VE125_randls_68.json,785860,1609847,1982,Woman
57,742016,DepthScenes,duration_manipulation_targetAtFixation,jsons/VE125_randls_68.json,http://54.235.29.9/FacialAge/BNav_EC2/DepthDuration/v2_depth_duration_MTurk/v2_DepthDuration_HTML.html#155,155,1366,625,1366,768,8-30-2022,6-56-10,58,depth_duration_stimuli/002989_2014-06-15_12-25-03_094959634447_rgbf000150-resize_3/002989_2014-06-15_12-25-03_094959634447_rgbf000150-resize_3-target.png,125,4.1975,4,6470,123,meters,jsons/VE125_randls_68.json,785860,1609847,1982,Woman
58,742016,DepthScenes,duration_manipulation_targetAtFixation,jsons/VE125_randls_68.json,http://54.235.29.9/FacialAge/BNav_EC2/DepthDuration/v2_depth_duration_MTurk/v2_DepthDuration_HTML.html#155,155,1366,625,1366,768,8-30-2022,6-56-10,59,depth_duration_stimuli/000866_2014-06-09_20-45-42_260595134347_rgbf000139-resize_1/000866_2014-06-09_20-45-42_260595134347_rgbf000139-resize_1-target.png,125,3.2155,3,3865,123,meters,jsons/VE125_randls_68.json,785860,1609847,1982,Woman
59,742016,DepthScenes,duration_manipulation_targetAtFixation,jsons/VE125_randls_68.json,http://54.235.29.9/FacialAge/BNav_EC2/DepthDuration/v2_depth_duration_MTurk/v2_DepthDuration_HTML.html#155,155,1366,625,1366,768,8-30-2022,6-56-10,60,depth_duration_stimuli/001244_2014-06-17_16-47-45_260595134347_rgbf000030-resize_4/001244_2014-06-17_16-47-45_260595134347_rgbf000030-resize_4-target.png,125,2.0425,2,3749,125,meters,jsons/VE125_randls_68.json,785860,1609847,1982,Woman
60,742016,DepthScenes,duration_manipulation_targetAtFixation,jsons/VE125_randls_68.json,http://54.235.29.9/FacialAge/BNav_EC2/DepthDuration/v2_depth_duration_MTurk/v2_DepthDuration_HTML.html#155,155,1366,625,1366,768,8-30-2022,6-56-10,61,depth_duration_stimuli/003495_2014-05-21_16-01-51_094959634447_rgbf000100-resize_3/003495_2014-05-21_16-01-51_094959634447_rgbf000100-resize_3-target.png,125,1.6255,1,2983,121,meters,jsons/VE125_randls_68.json,785860,1609847,1982,Woman
61,742016,DepthScenes,duration_manipulation_targetAtFixation,jsons/VE125_randls_68.json,http://54.235.29.9/FacialAge/BNav_EC2/DepthDuration/v2_depth_duration_MTurk/v2_DepthDuration_HTML.html#155,155,1366,625,1366,768,8-30-2022,6-56-10,62,depth_duration_stimuli/002043_2014-06-24_20-29-38_260595134347_rgbf000039-resize_4/002043_2014-06-24_20-29-38_260595134347_rgbf000039-resize_4-target.png,125,2.8435,1,4686,139,meters,jsons/VE125_randls_68.json,785860,1609847,1982,Woman
62,742016,DepthScenes,duration_manipulation_targetAtFixation,jsons/VE125_randls_68.json,http://54.235.29.9/FacialAge/BNav_EC2/DepthDuration/v2_depth_duration_MTurk/v2_DepthDuration_HTML.html#155,155,1366,625,1366,768,8-30-2022,6-56-10,63,depth_duration_stimuli/003048_2014-06-15_13-49-43_094959634447_rgbf000150-resize_1/003048_2014-06-15_13-49-43_094959634447_rgbf000150-resize_1-target.png,125,4.0035,3,3488,123,meters,jsons/VE125_randls_68.json,785860,1609847,1982,Woman
63,742016,DepthScenes,duration_manipulation_targetAtFixation,jsons/VE125_randls_68.json,http://54.235.29.9/FacialAge/BNav_EC2/DepthDuration/v2_depth_duration_MTurk/v2_DepthDuration_HTML.html#155,155,1366,625,1366,768,8-30-2022,6-56-10,64,depth_duration_stimuli/000773_2014-06-08_22-24-54_260595134347_rgbf000093-resize_1/000773_2014-06-08_22-24-54_260595134347_rgbf000093-resize_1-target.png,125,4.973,3,3847,123,meters,jsons/VE125_randls_68.json,785860,1609847,1982,Woman
64,742016,DepthScenes,duration_manipulation_targetAtFixation,jsons/VE125_randls_68.json,http://54.235.29.9/FacialAge/BNav_EC2/DepthDuration/v2_depth_duration_MTurk/v2_DepthDuration_HTML.html#155,155,1366,625,1366,768,8-30-2022,6-56-10,65,depth_duration_stimuli/002414_2014-06-28_20-24-58_260595134347_rgbf000067-resize_4/002414_2014-06-28_20-24-58_260595134347_rgbf000067-resize_4-target.png,125,4.363,0,3893,125,meters,jsons/VE125_randls_68.json,785860,1609847,1982,Woman
65,742016,DepthScenes,duration_manipulation_targetAtFixation,jsons/VE125_randls_68.json,http://54.235.29.9/FacialAge/BNav_EC2/DepthDuration/v2_depth_duration_MTurk/v2_DepthDuration_HTML.html#155,155,1366,625,1366,768,8-30-2022,6-56-10,66,depth_duration_stimuli/001222_2014-06-17_16-24-06_260595134347_rgbf000073-resize_0/001222_2014-06-17_16-24-06_260595134347_rgbf000073-resize-original.jpg,125,1.4385,3,2990,125,meters,jsons/VE125_randls_68.json,785860,1609847,1982,Woman
66,742016,DepthScenes,duration_manipulation_targetAtFixation,jsons/VE125_randls_68.json,http://54.235.29.9/FacialAge/BNav_EC2/DepthDuration/v2_depth_duration_MTurk/v2_DepthDuration_HTML.html#155,155,1366,625,1366,768,8-30-2022,6-56-10,67,depth_duration_stimuli/001150_2014-06-17_15-27-34_260595134347_rgbf000108-resize_2/001150_2014-06-17_15-27-34_260595134347_rgbf000108-resize_2-target.png,125,4.0325,2,2801,124,meters,jsons/VE125_randls_68.json,785860,1609847,1982,Woman
67,742016,DepthScenes,duration_manipulation_targetAtFixation,jsons/VE125_randls_68.json,http://54.235.29.9/FacialAge/BNav_EC2/DepthDuration/v2_depth_duration_MTurk/v2_DepthDuration_HTML.html#155,155,1366,625,1366,768,8-30-2022,6-56-10,68,depth_duration_stimuli/000665_2014-06-09_20-42-35_260595134347_rgbf000110-resize_1/000665_2014-06-09_20-42-35_260595134347_rgbf000110-resize_1-target.png,125,3.057,2,4000,125,meters,jsons/VE125_randls_68.json,785860,1609847,1982,Woman
68,742016,DepthScenes,duration_manipulation_targetAtFixation,jsons/VE125_randls_68.json,http://54.235.29.9/FacialAge/BNav_EC2/DepthDuration/v2_depth_duration_MTurk/v2_DepthDuration_HTML.html#155,155,1366,625,1366,768,8-30-2022,6-56-10,69,depth_duration_stimuli/000692_2014-06-08_13-09-42_260595134347_rgbf000199-resize_2/000692_2014-06-08_13-09-42_260595134347_rgbf000199-resize_2-target.png,125,3.661,3,4145,110,meters,jsons/VE125_randls_68.json,785860,1609847,1982,Woman
69,742016,DepthScenes,duration_manipulation_targetAtFixation,jsons/VE125_randls_68.json,http://54.235.29.9/FacialAge/BNav_EC2/DepthDuration/v2_depth_duration_MTurk/v2_DepthDuration_HTML.html#155,155,1366,625,1366,768,8-30-2022,6-56-10,70,depth_duration_stimuli/001094_2014-06-15_17-36-00_260595134347_rgbf000205-resize_0/001094_2014-06-15_17-36-00_260595134347_rgbf000205-resize_0-target.png,125,4.2175,3,2696,160,meters,jsons/VE125_randls_68.json,785860,1609847,1982,Woman
70,742016,DepthScenes,duration_manipulation_targetAtFixation,jsons/VE125_randls_68.json,http://54.235.29.9/FacialAge/BNav_EC2/DepthDuration/v2_depth_duration_MTurk/v2_DepthDuration_HTML.html#155,155,1366,625,1366,768,8-30-2022,6-56-10,71,depth_duration_stimuli/000436_2014-06-09_22-25-11_260595134347_rgbf000137-resize_1/000436_2014-06-09_22-25-11_260595134347_rgbf000137-resize_1-target.png,125,4.0705,3,2955,124,meters,jsons/VE125_randls_68.json,785860,1609847,1982,Woman
71,742016,DepthScenes,duration_manipulation_targetAtFixation,jsons/VE125_randls_68.json,http://54.235.29.9/FacialAge/BNav_EC2/DepthDuration/v2_depth_duration_MTurk/v2_DepthDuration_HTML.html#155,155,1366,625,1366,768,8-30-2022,6-56-10,72,depth_duration_stimuli/002444_2014-06-28_20-32-08_260595134347_rgbf000027-resize_0/002444_2014-06-28_20-32-08_260595134347_rgbf000027-resize_0-target.png,125,4.388999999999999,0,3204,124,meters,jsons/VE125_randls_68.json,785860,1609847,1982,Woman
72,742016,DepthScenes,duration_manipulation_targetAtFixation,jsons/VE125_randls_68.json,http://54.235.29.9/FacialAge/BNav_EC2/DepthDuration/v2_depth_duration_MTurk/v2_DepthDuration_HTML.html#155,155,1366,625,1366,768,8-30-2022,6-56-10,73,depth_duration_stimuli/002725_2014-06-22_11-47-51_094959634447_rgbf000070-resize_1/002725_2014-06-22_11-47-51_094959634447_rgbf000070-resize_1-target.png,125,2.195,3,4087,124,meters,jsons/VE125_randls_68.json,785860,1609847,1982,Woman
73,742016,DepthScenes,duration_manipulation_targetAtFixation,jsons/VE125_randls_68.json,http://54.235.29.9/FacialAge/BNav_EC2/DepthDuration/v2_depth_duration_MTurk/v2_DepthDuration_HTML.html#155,155,1366,625,1366,768,8-30-2022,6-56-10,74,depth_duration_stimuli/002344_2014-06-28_20-06-29_260595134347_rgbf000030-resize_1/002344_2014-06-28_20-06-29_260595134347_rgbf000030-resize_1-target.png,125,1.5795,2,3222,123,meters,jsons/VE125_randls_68.json,785860,1609847,1982,Woman
74,742016,DepthScenes,duration_manipulation_targetAtFixation,jsons/VE125_randls_68.json,http://54.235.29.9/FacialAge/BNav_EC2/DepthDuration/v2_depth_duration_MTurk/v2_DepthDuration_HTML.html#155,155,1366,625,1366,768,8-30-2022,6-56-10,75,depth_duration_stimuli/000878_2014-06-08_22-52-45_260595134347_rgbf000045-resize_2/000878_2014-06-08_22-52-45_260595134347_rgbf000045-resize_2-target.png,125,2.092,3,4171,140,meters,jsons/VE125_randls_68.json,785860,1609847,1982,Woman
75,742016,DepthScenes,duration_manipulation_targetAtFixation,jsons/VE125_randls_68.json,http://54.235.29.9/FacialAge/BNav_EC2/DepthDuration/v2_depth_duration_MTurk/v2_DepthDuration_HTML.html#155,155,1366,625,1366,768,8-30-2022,6-56-10,76,depth_duration_stimuli/002953_2014-06-08_17-32-18_094959634447_rgbf000059-resize_5/002953_2014-06-08_17-32-18_094959634447_rgbf000059-resize_5-target.png,125,1.551,2,3789,124,meters,jsons/VE125_randls_68.json,785860,1609847,1982,Woman
76,742016,DepthScenes,duration_manipulation_targetAtFixation,jsons/VE125_randls_68.json,http://54.235.29.9/FacialAge/BNav_EC2/DepthDuration/v2_depth_duration_MTurk/v2_DepthDuration_HTML.html#155,155,1366,625,1366,768,8-30-2022,6-56-10,77,depth_duration_stimuli/002279_2014-06-28_18-55-32_260595134347_rgbf000040-resize_5/002279_2014-06-28_18-55-32_260595134347_rgbf000040-resize_5-target.png,125,1.5043333333333,0,3825,125,meters,jsons/VE125_randls_68.json,785860,1609847,1982,Woman
77,742016,DepthScenes,duration_manipulation_targetAtFixation,jsons/VE125_randls_68.json,http://54.235.29.9/FacialAge/BNav_EC2/DepthDuration/v2_depth_duration_MTurk/v2_DepthDuration_HTML.html#155,155,1366,625,1366,768,8-30-2022,6-56-10,78,depth_duration_stimuli/000635_2014-06-08_16-38-42_260595134347_rgbf000106-resize_1/000635_2014-06-08_16-38-42_260595134347_rgbf000106-resize_1-target.png,125,2.074,3,5987,140,meters,jsons/VE125_randls_68.json,785860,1609847,1982,Woman
78,742016,DepthScenes,duration_manipulation_targetAtFixation,jsons/VE125_randls_68.json,http://54.235.29.9/FacialAge/BNav_EC2/DepthDuration/v2_depth_duration_MTurk/v2_DepthDuration_HTML.html#155,155,1366,625,1366,768,8-30-2022,6-56-10,79,depth_duration_stimuli/002509_2014-06-24_13-19-22_094959634447_rgbf000077-resize_0/002509_2014-06-24_13-19-22_094959634447_rgbf000077-resize_0-target.png,125,1.3065,2,4766,139,meters,jsons/VE125_randls_68.json,785860,1609847,1982,Woman
79,742016,DepthScenes,duration_manipulation_targetAtFixation,jsons/VE125_randls_68.json,http://54.235.29.9/FacialAge/BNav_EC2/DepthDuration/v2_depth_duration_MTurk/v2_DepthDuration_HTML.html#155,155,1366,625,1366,768,8-30-2022,6-56-10,80,depth_duration_stimuli/003338_2014-05-20_11-01-23_094959634447_rgbf000051-resize_6/003338_2014-05-20_11-01-23_094959634447_rgbf000051-resize_6-target.png,125,1.693,1,4464,124,meters,jsons/VE125_randls_68.json,785860,1609847,1982,Woman
80,742016,DepthScenes,duration_manipulation_targetAtFixation,jsons/VE125_randls_68.json,http://54.235.29.9/FacialAge/BNav_EC2/DepthDuration/v2_depth_duration_MTurk/v2_DepthDuration_HTML.html#155,155,1366,625,1366,768,8-30-2022,6-56-10,81,depth_duration_stimuli/002153_2014-06-25_21-27-18_260595134347_rgbf000038-resize_5/002153_2014-06-25_21-27-18_260595134347_rgbf000038-resize_5-target.png,125,2.505,1,4465,110,meters,jsons/VE125_randls_68.json,785860,1609847,1982,Woman
81,742016,DepthScenes,duration_manipulation_targetAtFixation,jsons/VE125_randls_68.json,http://54.235.29.9/FacialAge/BNav_EC2/DepthDuration/v2_depth_duration_MTurk/v2_DepthDuration_HTML.html#155,155,1366,625,1366,768,8-30-2022,6-56-10,82,depth_duration_stimuli/002660_2014-06-13_15-44-18_094959634447_rgbf001878-resize_2/002660_2014-06-13_15-44-18_094959634447_rgbf001878-resize_2-target.png,125,3.576,2,4660,129,meters,jsons/VE125_randls_68.json,785860,1609847,1982,Woman
82,742016,DepthScenes,duration_manipulation_targetAtFixation,jsons/VE125_randls_68.json,http://54.235.29.9/FacialAge/BNav_EC2/DepthDuration/v2_depth_duration_MTurk/v2_DepthDuration_HTML.html#155,155,1366,625,1366,768,8-30-2022,6-56-10,83,depth_duration_stimuli/002039_2014-06-24_20-22-38_260595134347_rgbf000084-resize_1/002039_2014-06-24_20-22-38_260595134347_rgbf000084-resize_1-target.png,125,4.408,3,4072,137,meters,jsons/VE125_randls_68.json,785860,1609847,1982,Woman
83,742016,DepthScenes,duration_manipulation_targetAtFixation,jsons/VE125_randls_68.json,http://54.235.29.9/FacialAge/BNav_EC2/DepthDuration/v2_depth_duration_MTurk/v2_DepthDuration_HTML.html#155,155,1366,625,1366,768,8-30-2022,6-56-10,84,depth_duration_stimuli/002103_2014-06-25_20-00-40_260595134347_rgbf000049-resize_0/002103_2014-06-25_20-00-40_260595134347_rgbf000049-resize_0-target.png,125,4.105,4,4082,125,meters,jsons/VE125_randls_68.json,785860,1609847,1982,Woman
84,742016,DepthScenes,duration_manipulation_targetAtFixation,jsons/VE125_randls_68.json,http://54.235.29.9/FacialAge/BNav_EC2/DepthDuration/v2_depth_duration_MTurk/v2_DepthDuration_HTML.html#155,155,1366,625,1366,768,8-30-2022,6-56-10,85,depth_duration_stimuli/000470_2014-06-09_19-42-40_260595134347_rgbf000094-resize_1/000470_2014-06-09_19-42-40_260595134347_rgbf000094-resize_1-target.png,125,1.831,2,3932,125,meters,jsons/VE125_randls_68.json,785860,1609847,1982,Woman
85,742016,DepthScenes,duration_manipulation_targetAtFixation,jsons/VE125_randls_68.json,http://54.235.29.9/FacialAge/BNav_EC2/DepthDuration/v2_depth_duration_MTurk/v2_DepthDuration_HTML.html#155,155,1366,625,1366,768,8-30-2022,6-56-10,86,depth_duration_stimuli/000109_2014-05-14_23-41-52_260595134347_rgbf000035-resize_9/000109_2014-05-14_23-41-52_260595134347_rgbf000035-resize_9-target.png,125,1.3545,1,4433,123,meters,jsons/VE125_randls_68.json,785860,1609847,1982,Woman
86,742016,DepthScenes,duration_manipulation_targetAtFixation,jsons/VE125_randls_68.json,http://54.235.29.9/FacialAge/BNav_EC2/DepthDuration/v2_depth_duration_MTurk/v2_DepthDuration_HTML.html#155,155,1366,625,1366,768,8-30-2022,6-56-10,87,depth_duration_stimuli/002213_2014-06-28_18-37-58_260595134347_rgbf000055-resize_1/002213_2014-06-28_18-37-58_260595134347_rgbf000055-resize_1-target.png,125,3.62,5,4916,125,meters,jsons/VE125_randls_68.json,785860,1609847,1982,Woman
87,742016,DepthScenes,duration_manipulation_targetAtFixation,jsons/VE125_randls_68.json,http://54.235.29.9/FacialAge/BNav_EC2/DepthDuration/v2_depth_duration_MTurk/v2_DepthDuration_HTML.html#155,155,1366,625,1366,768,8-30-2022,6-56-10,88,depth_duration_stimuli/000691_2014-06-08_13-08-50_260595134347_rgbf000132-resize_3/000691_2014-06-08_13-08-50_260595134347_rgbf000132-resize_3-target.png,125,4.1530000000000005,4,3413,139,meters,jsons/VE125_randls_68.json,785860,1609847,1982,Woman
88,742016,DepthScenes,duration_manipulation_targetAtFixation,jsons/VE125_randls_68.json,http://54.235.29.9/FacialAge/BNav_EC2/DepthDuration/v2_depth_duration_MTurk/v2_DepthDuration_HTML.html#155,155,1366,625,1366,768,8-30-2022,6-56-10,89,depth_duration_stimuli/000736_2014-06-08_18-24-15_260595134347_rgbf000206-resize_3/000736_2014-06-08_18-24-15_260595134347_rgbf000206-resize_3-target.png,125,3.515,1,4149,124,meters,jsons/VE125_randls_68.json,785860,1609847,1982,Woman
89,742016,DepthScenes,duration_manipulation_targetAtFixation,jsons/VE125_randls_68.json,http://54.235.29.9/FacialAge/BNav_EC2/DepthDuration/v2_depth_duration_MTurk/v2_DepthDuration_HTML.html#155,155,1366,625,1366,768,8-30-2022,6-56-10,90,depth_duration_stimuli/000137_2014-05-20_17-04-49_260595134347_rgbf000120-resize_1/000137_2014-05-20_17-04-49_260595134347_rgbf000120-resize_1-target.png,125,3.786,3,3676,123,meters,jsons/VE125_randls_68.json,785860,1609847,1982,Woman
90,742016,DepthScenes,duration_manipulation_targetAtFixation,jsons/VE125_randls_68.json,http://54.235.29.9/FacialAge/BNav_EC2/DepthDuration/v2_depth_duration_MTurk/v2_DepthDuration_HTML.html#155,155,1366,625,1366,768,8-30-2022,6-56-10,91,depth_duration_stimuli/002630_2014-06-24_14-47-50_094959634447_rgbf000055-resize_1/002630_2014-06-24_14-47-50_094959634447_rgbf000055-resize_1-target.png,125,3.0095,4,4040,114,meters,jsons/VE125_randls_68.json,785860,1609847,1982,Woman
91,742016,DepthScenes,duration_manipulation_targetAtFixation,jsons/VE125_randls_68.json,http://54.235.29.9/FacialAge/BNav_EC2/DepthDuration/v2_depth_duration_MTurk/v2_DepthDuration_HTML.html#155,155,1366,625,1366,768,8-30-2022,6-56-10,92,depth_duration_stimuli/002758_2014-06-22_19-11-20_094959634447_rgbf000128-resize_1/002758_2014-06-22_19-11-20_094959634447_rgbf000128-resize_1-target.png,125,2.555,3,4391,133,meters,jsons/VE125_randls_68.json,785860,1609847,1982,Woman
92,742016,DepthScenes,duration_manipulation_targetAtFixation,jsons/VE125_randls_68.json,http://54.235.29.9/FacialAge/BNav_EC2/DepthDuration/v2_depth_duration_MTurk/v2_DepthDuration_HTML.html#155,155,1366,625,1366,768,8-30-2022,6-56-10,93,depth_duration_stimuli/000506_2014-06-08_23-21-00_260595134347_rgbf000070-resize_7/000506_2014-06-08_23-21-00_260595134347_rgbf000070-resize_7-target.png,125,4.0585,3,3933,110,meters,jsons/VE125_randls_68.json,785860,1609847,1982,Woman
93,742016,DepthScenes,duration_manipulation_targetAtFixation,jsons/VE125_randls_68.json,http://54.235.29.9/FacialAge/BNav_EC2/DepthDuration/v2_depth_duration_MTurk/v2_DepthDuration_HTML.html#155,155,1366,625,1366,768,8-30-2022,6-56-10,94,depth_duration_stimuli/003079_2014-06-15_15-18-20_094959634447_rgbf000152-resize_8/003079_2014-06-15_15-18-20_094959634447_rgbf000152-resize_8-target.png,125,2.8775,5,3679,139,meters,jsons/VE125_randls_68.json,785860,1609847,1982,Woman
94,742016,DepthScenes,duration_manipulation_targetAtFixation,jsons/VE125_randls_68.json,http://54.235.29.9/FacialAge/BNav_EC2/DepthDuration/v2_depth_duration_MTurk/v2_DepthDuration_HTML.html#155,155,1366,625,1366,768,8-30-2022,6-56-10,95,depth_duration_stimuli/002118_2014-06-25_20-32-08_260595134347_rgbf000078-resize_1/002118_2014-06-25_20-32-08_260595134347_rgbf000078-resize_1-target.png,125,2.6460000000000004,1,3916,133,meters,jsons/VE125_randls_68.json,785860,1609847,1982,Woman
95,742016,DepthScenes,duration_manipulation_targetAtFixation,jsons/VE125_randls_68.json,http://54.235.29.9/FacialAge/BNav_EC2/DepthDuration/v2_depth_duration_MTurk/v2_DepthDuration_HTML.html#155,155,1366,625,1366,768,8-30-2022,6-56-10,96,depth_duration_stimuli/001516_2014-06-20_16-25-09_260595134347_rgbf000076-resize_2/001516_2014-06-20_16-25-09_260595134347_rgbf000076-resize_2-target.png,125,1.7445,2,3386,124,meters,jsons/VE125_randls_68.json,785860,1609847,1982,Woman
96,742016,DepthScenes,duration_manipulation_targetAtFixation,jsons/VE125_randls_68.json,http://54.235.29.9/FacialAge/BNav_EC2/DepthDuration/v2_depth_duration_MTurk/v2_DepthDuration_HTML.html#155,155,1366,625,1366,768,8-30-2022,6-56-10,97,depth_duration_stimuli/000682_2014-06-08_23-14-58_260595134347_rgbf000041-resize_5/000682_2014-06-08_23-14-58_260595134347_rgbf000041-resize_5-target.png,125,2.7239999999999998,1,3774,125,meters,jsons/VE125_randls_68.json,785860,1609847,1982,Woman
97,742016,DepthScenes,duration_manipulation_targetAtFixation,jsons/VE125_randls_68.json,http://54.235.29.9/FacialAge/BNav_EC2/DepthDuration/v2_depth_duration_MTurk/v2_DepthDuration_HTML.html#155,155,1366,625,1366,768,8-30-2022,6-56-10,98,depth_duration_stimuli/001650_2014-06-20_12-09-00_260595134347_rgbf000087-resize_3/001650_2014-06-20_12-09-00_260595134347_rgbf000087-resize_3-target.png,125,1.9505,1,3077,124,meters,jsons/VE125_randls_68.json,785860,1609847,1982,Woman
98,742016,DepthScenes,duration_manipulation_targetAtFixation,jsons/VE125_randls_68.json,http://54.235.29.9/FacialAge/BNav_EC2/DepthDuration/v2_depth_duration_MTurk/v2_DepthDuration_HTML.html#155,155,1366,625,1366,768,8-30-2022,6-56-10,99,depth_duration_stimuli/001540_2014-06-20_17-01-05_260595134347_rgbf000086-resize_2/001540_2014-06-20_17-01-05_260595134347_rgbf000086-resize-original.jpg,125,1.459,1,4528,123,meters,jsons/VE125_randls_68.json,785860,1609847,1982,Woman
99,742016,DepthScenes,duration_manipulation_targetAtFixation,jsons/VE125_randls_68.json,http://54.235.29.9/FacialAge/BNav_EC2/DepthDuration/v2_depth_duration_MTurk/v2_DepthDuration_HTML.html#155,155,1366,625,1366,768,8-30-2022,6-56-10,100,depth_duration_stimuli/002988_2014-06-15_12-24-20_094959634447_rgbf000150-resize_1/002988_2014-06-15_12-24-20_094959634447_rgbf000150-resize_1-target.png,125,4.7669999999999995,5,4960,121,meters,jsons/VE125_randls_68.json,785860,1609847,1982,Woman
100,742016,DepthScenes,duration_manipulation_targetAtFixation,jsons/VE125_randls_68.json,http://54.235.29.9/FacialAge/BNav_EC2/DepthDuration/v2_depth_duration_MTurk/v2_DepthDuration_HTML.html#155,155,1366,625,1366,768,8-30-2022,6-56-10,101,depth_duration_stimuli/001052_2014-06-08_18-24-54_260595134347_rgbf000130-resize_1/001052_2014-06-08_18-24-54_260595134347_rgbf000130-resize_1-target.png,125,4.1045,5,3455,124,meters,jsons/VE125_randls_68.json,785860,1609847,1982,Woman
101,742016,DepthScenes,duration_manipulation_targetAtFixation,jsons/VE125_randls_68.json,http://54.235.29.9/FacialAge/BNav_EC2/DepthDuration/v2_depth_duration_MTurk/v2_DepthDuration_HTML.html#155,155,1366,625,1366,768,8-30-2022,6-56-10,102,depth_duration_stimuli/001056_2014-06-08_18-46-44_260595134347_rgbf000068-resize_0/001056_2014-06-08_18-46-44_260595134347_rgbf000068-resize_0-target.png,125,2.6625,3,3450,124,meters,jsons/VE125_randls_68.json,785860,1609847,1982,Woman
102,742016,DepthScenes,duration_manipulation_targetAtFixation,jsons/VE125_randls_68.json,http://54.235.29.9/FacialAge/BNav_EC2/DepthDuration/v2_depth_duration_MTurk/v2_DepthDuration_HTML.html#155,155,1366,625,1366,768,8-30-2022,6-56-10,103,depth_duration_stimuli/002199_2014-06-28_18-33-56_260595134347_rgbf000074-resize_0/002199_2014-06-28_18-33-56_260595134347_rgbf000074-resize_0-target.png,125,1.996,2,5186,124,meters,jsons/VE125_randls_68.json,785860,1609847,1982,Woman
103,742016,DepthScenes,duration_manipulation_targetAtFixation,jsons/VE125_randls_68.json,http://54.235.29.9/FacialAge/BNav_EC2/DepthDuration/v2_depth_duration_MTurk/v2_DepthDuration_HTML.html#155,155,1366,625,1366,768,8-30-2022,6-56-10,104,depth_duration_stimuli/002663_2014-06-13_15-50-26_094959634447_rgbf000075-resize_1/002663_2014-06-13_15-50-26_094959634447_rgbf000075-resize_1-target.png,125,4.7495,3,4450,124,meters,jsons/VE125_randls_68.json,785860,1609847,1982,Woman
104,742016,DepthScenes,duration_manipulation_targetAtFixation,jsons/VE125_randls_68.json,http://54.235.29.9/FacialAge/BNav_EC2/DepthDuration/v2_depth_duration_MTurk/v2_DepthDuration_HTML.html#155,155,1366,625,1366,768,8-30-2022,6-56-10,105,depth_duration_stimuli/000409_2014-06-04_19-23-33_260595134347_rgbf000067-resize_0/000409_2014-06-04_19-23-33_260595134347_rgbf000067-resize_0-target.png,125,3.7335,2,2897,122,meters,jsons/VE125_randls_68.json,785860,1609847,1982,Woman
105,742016,DepthScenes,duration_manipulation_targetAtFixation,jsons/VE125_randls_68.json,http://54.235.29.9/FacialAge/BNav_EC2/DepthDuration/v2_depth_duration_MTurk/v2_DepthDuration_HTML.html#155,155,1366,625,1366,768,8-30-2022,6-56-10,106,depth_duration_stimuli/002784_2014-06-22_19-26-30_094959634447_rgbf000083-resize_3/002784_2014-06-22_19-26-30_094959634447_rgbf000083-resize_3-target.png,125,1.8046666666667,1,4162,139,meters,jsons/VE125_randls_68.json,785860,1609847,1982,Woman
106,742016,DepthScenes,duration_manipulation_targetAtFixation,jsons/VE125_randls_68.json,http://54.235.29.9/FacialAge/BNav_EC2/DepthDuration/v2_depth_duration_MTurk/v2_DepthDuration_HTML.html#155,155,1366,625,1366,768,8-30-2022,6-56-10,107,depth_duration_stimuli/001100_2014-06-15_17-46-26_260595134347_rgbf000225-resize_2/001100_2014-06-15_17-46-26_260595134347_rgbf000225-resize_2-target.png,125,2.24,1,3051,123,meters,jsons/VE125_randls_68.json,785860,1609847,1982,Woman
107,742016,DepthScenes,duration_manipulation_targetAtFixation,jsons/VE125_randls_68.json,http://54.235.29.9/FacialAge/BNav_EC2/DepthDuration/v2_depth_duration_MTurk/v2_DepthDuration_HTML.html#155,155,1366,625,1366,768,8-30-2022,6-56-10,108,depth_duration_stimuli/003534_2014-05-22_15-06-10_094959634447_rgbf000102-resize_4/003534_2014-05-22_15-06-10_094959634447_rgbf000102-resize_4-target.png,125,1.426,1,4238,123,meters,jsons/VE125_randls_68.json,785860,1609847,1982,Woman
108,742016,DepthScenes,duration_manipulation_targetAtFixation,jsons/VE125_randls_68.json,http://54.235.29.9/FacialAge/BNav_EC2/DepthDuration/v2_depth_duration_MTurk/v2_DepthDuration_HTML.html#155,155,1366,625,1366,768,8-30-2022,6-56-10,109,depth_duration_stimuli/002637_2014-06-24_14-51-13_094959634447_rgbf000066-resize_4/002637_2014-06-24_14-51-13_094959634447_rgbf000066-resize_4-target.png,125,1.9955,2,4617,112,meters,jsons/VE125_randls_68.json,785860,1609847,1982,Woman
109,742016,DepthScenes,duration_manipulation_targetAtFixation,jsons/VE125_randls_68.json,http://54.235.29.9/FacialAge/BNav_EC2/DepthDuration/v2_depth_duration_MTurk/v2_DepthDuration_HTML.html#155,155,1366,625,1366,768,8-30-2022,6-56-10,110,depth_duration_stimuli/001029_2014-06-08_13-17-57_260595134347_rgbf000065-resize_1/001029_2014-06-08_13-17-57_260595134347_rgbf000065-resize_1-target.png,125,3.0835,3,4460,125,meters,jsons/VE125_randls_68.json,785860,1609847,1982,Woman
110,742016,DepthScenes,duration_manipulation_targetAtFixation,jsons/VE125_randls_68.json,http://54.235.29.9/FacialAge/BNav_EC2/DepthDuration/v2_depth_duration_MTurk/v2_DepthDuration_HTML.html#155,155,1366,625,1366,768,8-30-2022,6-56-10,111,depth_duration_stimuli/000677_2014-06-08_23-10-32_260595134347_rgbf000158-resize_6/000677_2014-06-08_23-10-32_260595134347_rgbf000158-resize_6-target.png,125,3.556,3,3596,118,meters,jsons/VE125_randls_68.json,785860,1609847,1982,Woman
111,742016,DepthScenes,duration_manipulation_targetAtFixation,jsons/VE125_randls_68.json,http://54.235.29.9/FacialAge/BNav_EC2/DepthDuration/v2_depth_duration_MTurk/v2_DepthDuration_HTML.html#155,155,1366,625,1366,768,8-30-2022,6-56-10,112,depth_duration_stimuli/000917_2014-06-09_22-45-29_260595134347_rgbf000149-resize_3/000917_2014-06-09_22-45-29_260595134347_rgbf000149-resize_3-target.png,125,4.1865,3,5054,124,meters,jsons/VE125_randls_68.json,785860,1609847,1982,Woman
112,742016,DepthScenes,duration_manipulation_targetAtFixation,jsons/VE125_randls_68.json,http://54.235.29.9/FacialAge/BNav_EC2/DepthDuration/v2_depth_duration_MTurk/v2_DepthDuration_HTML.html#155,155,1366,625,1366,768,8-30-2022,6-56-10,113,depth_duration_stimuli/002323_2014-06-28_20-01-54_260595134347_rgbf000051-resize_4/002323_2014-06-28_20-01-54_260595134347_rgbf000051-resize_4-target.png,125,3.7310000000000003,3,3647,123,meters,jsons/VE125_randls_68.json,785860,1609847,1982,Woman
113,742016,DepthScenes,duration_manipulation_targetAtFixation,jsons/VE125_randls_68.json,http://54.235.29.9/FacialAge/BNav_EC2/DepthDuration/v2_depth_duration_MTurk/v2_DepthDuration_HTML.html#155,155,1366,625,1366,768,8-30-2022,6-56-10,114,depth_duration_stimuli/003621_2014-05-23_18-06-08_094959634447_rgbf000101-resize_1/003621_2014-05-23_18-06-08_094959634447_rgbf000101-resize_1-target.png,125,3.9835,4,4365,123,meters,jsons/VE125_randls_68.json,785860,1609847,1982,Woman
114,742016,DepthScenes,duration_manipulation_targetAtFixation,jsons/VE125_randls_68.json,http://54.235.29.9/FacialAge/BNav_EC2/DepthDuration/v2_depth_duration_MTurk/v2_DepthDuration_HTML.html#155,155,1366,625,1366,768,8-30-2022,6-56-10,115,depth_duration_stimuli/001584_2014-06-20_11-07-43_260595134347_rgbf000002-resize_1/001584_2014-06-20_11-07-43_260595134347_rgbf000002-resize_1-target.png,125,3.53,0,5204,123,meters,jsons/VE125_randls_68.json,785860,1609847,1982,Woman
115,742016,DepthScenes,duration_manipulation_targetAtFixation,jsons/VE125_randls_68.json,http://54.235.29.9/FacialAge/BNav_EC2/DepthDuration/v2_depth_duration_MTurk/v2_DepthDuration_HTML.html#155,155,1366,625,1366,768,8-30-2022,6-56-10,116,depth_duration_stimuli/001170_2014-06-17_15-43-44_260595134347_rgbf000096-resize_6/001170_2014-06-17_15-43-44_260595134347_rgbf000096-resize-original.jpg,125,1.1909999999999998,2,4064,125,meters,jsons/VE125_randls_68.json,785860,1609847,1982,Woman
116,742016,DepthScenes,duration_manipulation_targetAtFixation,jsons/VE125_randls_68.json,http://54.235.29.9/FacialAge/BNav_EC2/DepthDuration/v2_depth_duration_MTurk/v2_DepthDuration_HTML.html#155,155,1366,625,1366,768,8-30-2022,6-56-10,117,depth_duration_stimuli/002600_2014-06-24_14-27-04_094959634447_rgbf000074-resize_2/002600_2014-06-24_14-27-04_094959634447_rgbf000074-resize_2-target.png,125,2.7575,1,3847,123,meters,jsons/VE125_randls_68.json,785860,1609847,1982,Woman
117,742016,DepthScenes,duration_manipulation_targetAtFixation,jsons/VE125_randls_68.json,http://54.235.29.9/FacialAge/BNav_EC2/DepthDuration/v2_depth_duration_MTurk/v2_DepthDuration_HTML.html#155,155,1366,625,1366,768,8-30-2022,6-56-10,118,depth_duration_stimuli/003228_2014-05-14_13-42-35_094959634447_rgbf000101-resize_1/003228_2014-05-14_13-42-35_094959634447_rgbf000101-resize_1-target.png,125,1.9680000000000002,2,4407,124,meters,jsons/VE125_randls_68.json,785860,1609847,1982,Woman
118,742016,DepthScenes,duration_manipulation_targetAtFixation,jsons/VE125_randls_68.json,http://54.235.29.9/FacialAge/BNav_EC2/DepthDuration/v2_depth_duration_MTurk/v2_DepthDuration_HTML.html#155,155,1366,625,1366,768,8-30-2022,6-56-10,119,depth_duration_stimuli/002570_2014-06-24_13-59-54_094959634447_rgbf000059-resize_0/002570_2014-06-24_13-59-54_094959634447_rgbf000059-resize_0-target.png,125,4.037,1,4483,124,meters,jsons/VE125_randls_68.json,785860,1609847,1982,Woman
119,742016,DepthScenes,duration_manipulation_targetAtFixation,jsons/VE125_randls_68.json,http://54.235.29.9/FacialAge/BNav_EC2/DepthDuration/v2_depth_duration_MTurk/v2_DepthDuration_HTML.html#155,155,1366,625,1366,768,8-30-2022,6-56-10,120,depth_duration_stimuli/002467_2014-06-28_20-38-07_260595134347_rgbf000026-resize_2/002467_2014-06-28_20-38-07_260595134347_rgbf000026-resize_2-target.png,125,4.742,4,3098,124,meters,jsons/VE125_randls_68.json,785860,1609847,1982,Woman
120,742016,DepthScenes,duration_manipulation_targetAtFixation,jsons/VE125_randls_68.json,http://54.235.29.9/FacialAge/BNav_EC2/DepthDuration/v2_depth_duration_MTurk/v2_DepthDuration_HTML.html#155,155,1366,625,1366,768,8-30-2022,6-56-10,121,depth_duration_stimuli/001175_2014-06-17_15-45-55_260595134347_rgbf000129-resize_4/001175_2014-06-17_15-45-55_260595134347_rgbf000129-resize_4-target.png,125,4.255,0,3505,123,meters,jsons/VE125_randls_68.json,785860,1609847,1982,Woman
121,742016,DepthScenes,duration_manipulation_targetAtFixation,jsons/VE125_randls_68.json,http://54.235.29.9/FacialAge/BNav_EC2/DepthDuration/v2_depth_duration_MTurk/v2_DepthDuration_HTML.html#155,155,1366,625,1366,768,8-30-2022,6-56-10,122,depth_duration_stimuli/003490_2014-05-21_15-50-11_094959634447_rgbf000101-resize_3/003490_2014-05-21_15-50-11_094959634447_rgbf000101-resize_3-target.png,125,3.6445,3,4264,139,meters,jsons/VE125_randls_68.json,785860,1609847,1982,Woman
122,742016,DepthScenes,duration_manipulation_targetAtFixation,jsons/VE125_randls_68.json,http://54.235.29.9/FacialAge/BNav_EC2/DepthDuration/v2_depth_duration_MTurk/v2_DepthDuration_HTML.html#155,155,1366,625,1366,768,8-30-2022,6-56-10,123,depth_duration_stimuli/003492_2014-05-21_15-50-55_094959634447_rgbf000828-resize_1/003492_2014-05-21_15-50-55_094959634447_rgbf000828-resize_1-target.png,125,4.06875,2,5289,124,meters,jsons/VE125_randls_68.json,785860,1609847,1982,Woman
123,742016,DepthScenes,duration_manipulation_targetAtFixation,jsons/VE125_randls_68.json,http://54.235.29.9/FacialAge/BNav_EC2/DepthDuration/v2_depth_duration_MTurk/v2_DepthDuration_HTML.html#155,155,1366,625,1366,768,8-30-2022,6-56-10,124,depth_duration_stimuli/002568_2014-06-24_13-59-21_094959634447_rgbf000062-resize_4/002568_2014-06-24_13-59-21_094959634447_rgbf000062-resize_4-target.png,125,3.015,2,3481,125,meters,jsons/VE125_randls_68.json,785860,1609847,1982,Woman
124,742016,DepthScenes,duration_manipulation_targetAtFixation,jsons/VE125_randls_68.json,http://54.235.29.9/FacialAge/BNav_EC2/DepthDuration/v2_depth_duration_MTurk/v2_DepthDuration_HTML.html#155,155,1366,625,1366,768,8-30-2022,6-56-10,125,depth_duration_stimuli/001158_2014-06-17_15-32-16_260595134347_rgbf000138-resize_2/001158_2014-06-17_15-32-16_260595134347_rgbf000138-resize_2-target.png,125,4.5315,4,5053,123,meters,jsons/VE125_randls_68.json,785860,1609847,1982,Woman
125,742016,DepthScenes,duration_manipulation_targetAtFixation,jsons/VE125_randls_68.json,http://54.235.29.9/FacialAge/BNav_EC2/DepthDuration/v2_depth_duration_MTurk/v2_DepthDuration_HTML.html#155,155,1366,625,1366,768,8-30-2022,6-56-10,126,depth_duration_stimuli/000556_2014-06-09_22-42-56_260595134347_rgbf000214-resize_1/000556_2014-06-09_22-42-56_260595134347_rgbf000214-resize_1-target.png,125,4.8415,2,3590,124,meters,jsons/VE125_randls_68.json,785860,1609847,1982,Woman
126,742016,DepthScenes,duration_manipulation_targetAtFixation,jsons/VE125_randls_68.json,http://54.235.29.9/FacialAge/BNav_EC2/DepthDuration/v2_depth_duration_MTurk/v2_DepthDuration_HTML.html#155,155,1366,625,1366,768,8-30-2022,6-56-10,127,depth_duration_stimuli/001133_2014-06-17_14-49-16_260595134347_rgbf000100-resize_0/001133_2014-06-17_14-49-16_260595134347_rgbf000100-resize_0-target.png,125,4.2115,2,3718,124,meters,jsons/VE125_randls_68.json,785860,1609847,1982,Woman
127,742016,DepthScenes,duration_manipulation_targetAtFixation,jsons/VE125_randls_68.json,http://54.235.29.9/FacialAge/BNav_EC2/DepthDuration/v2_depth_duration_MTurk/v2_DepthDuration_HTML.html#155,155,1366,625,1366,768,8-30-2022,6-56-10,128,depth_duration_stimuli/001132_2014-06-17_14-48-54_260595134347_rgbf000100-resize_2/001132_2014-06-17_14-48-54_260595134347_rgbf000100-resize_2-target.png,125,3.753,3,3190,125,meters,jsons/VE125_randls_68.json,785860,1609847,1982,Woman
128,742016,DepthScenes,duration_manipulation_targetAtFixation,jsons/VE125_randls_68.json,http://54.235.29.9/FacialAge/BNav_EC2/DepthDuration/v2_depth_duration_MTurk/v2_DepthDuration_HTML.html#155,155,1366,625,1366,768,8-30-2022,6-56-10,129,depth_duration_stimuli/002375_2014-06-28_20-13-44_260595134347_rgbf000032-resize_1/002375_2014-06-28_20-13-44_260595134347_rgbf000032-resize_1-target.png,125,4.0175,1,3082,139,meters,jsons/VE125_randls_68.json,785860,1609847,1982,Woman
129,742016,DepthScenes,duration_manipulation_targetAtFixation,jsons/VE125_randls_68.json,http://54.235.29.9/FacialAge/BNav_EC2/DepthDuration/v2_depth_duration_MTurk/v2_DepthDuration_HTML.html#155,155,1366,625,1366,768,8-30-2022,6-56-10,130,depth_duration_stimuli/002657_2014-06-13_15-29-54_094959634447_rgbf000150-resize_1/002657_2014-06-13_15-29-54_094959634447_rgbf000150-resize_1-target.png,125,4.919,2,2658,140,meters,jsons/VE125_randls_68.json,785860,1609847,1982,Woman
130,742016,DepthScenes,duration_manipulation_targetAtFixation,jsons/VE125_randls_68.json,http://54.235.29.9/FacialAge/BNav_EC2/DepthDuration/v2_depth_duration_MTurk/v2_DepthDuration_HTML.html#155,155,1366,625,1366,768,8-30-2022,6-56-10,131,depth_duration_stimuli/000414_2014-06-04_19-49-13_260595134347_rgbf000044-resize_0/000414_2014-06-04_19-49-13_260595134347_rgbf000044-resize_0-target.png,125,4.329,5,14497,123,meters,jsons/VE125_randls_68.json,785860,1609847,1982,Woman
131,742016,DepthScenes,duration_manipulation_targetAtFixation,jsons/VE125_randls_68.json,http://54.235.29.9/FacialAge/BNav_EC2/DepthDuration/v2_depth_duration_MTurk/v2_DepthDuration_HTML.html#155,155,1366,625,1366,768,8-30-2022,6-56-10,132,depth_duration_stimuli/003129_2014-05-12_10-48-10_094959634447_rgbf000100-resize_0/003129_2014-05-12_10-48-10_094959634447_rgbf000100-resize_0-target.png,125,4.9305,0,3969,124,meters,jsons/VE125_randls_68.json,785860,1609847,1982,Woman
132,742016,DepthScenes,duration_manipulation_targetAtFixation,jsons/VE125_randls_68.json,http://54.235.29.9/FacialAge/BNav_EC2/DepthDuration/v2_depth_duration_MTurk/v2_DepthDuration_HTML.html#155,155,1366,625,1366,768,8-30-2022,6-56-10,133,depth_duration_stimuli/000739_2014-06-08_18-45-58_260595134347_rgbf000068-resize_1/000739_2014-06-08_18-45-58_260595134347_rgbf000068-resize_1-target.png,125,3.534,0,3933,124,meters,jsons/VE125_randls_68.json,785860,1609847,1982,Woman
133,742016,DepthScenes,duration_manipulation_targetAtFixation,jsons/VE125_randls_68.json,http://54.235.29.9/FacialAge/BNav_EC2/DepthDuration/v2_depth_duration_MTurk/v2_DepthDuration_HTML.html#155,155,1366,625,1366,768,8-30-2022,6-56-10,134,depth_duration_stimuli/000734_2014-06-08_17-39-11_260595134347_rgbf000128-resize_2/000734_2014-06-08_17-39-11_260595134347_rgbf000128-resize_2-target.png,125,4.098,0,3178,140,meters,jsons/VE125_randls_68.json,785860,1609847,1982,Woman
134,742016,DepthScenes,duration_manipulation_targetAtFixation,jsons/VE125_randls_68.json,http://54.235.29.9/FacialAge/BNav_EC2/DepthDuration/v2_depth_duration_MTurk/v2_DepthDuration_HTML.html#155,155,1366,625,1366,768,8-30-2022,6-56-10,135,depth_duration_stimuli/002072_2014-06-24_21-48-06_260595134347_rgbf000115-resize_0/002072_2014-06-24_21-48-06_260595134347_rgbf000115-resize-original.jpg,125,4.702,0,6740,139,meters,jsons/VE125_randls_68.json,785860,1609847,1982,Woman
135,742016,DepthScenes,duration_manipulation_targetAtFixation,jsons/VE125_randls_68.json,http://54.235.29.9/FacialAge/BNav_EC2/DepthDuration/v2_depth_duration_MTurk/v2_DepthDuration_HTML.html#155,155,1366,625,1366,768,8-30-2022,6-56-10,136,depth_duration_stimuli/000929_2014-06-09_16-33-19_260595134347_rgbf000139-resize_0/000929_2014-06-09_16-33-19_260595134347_rgbf000139-resize_0-target.png,125,2.8680000000000003,1,4161,139,meters,jsons/VE125_randls_68.json,785860,1609847,1982,Woman
136,742016,DepthScenes,duration_manipulation_targetAtFixation,jsons/VE125_randls_68.json,http://54.235.29.9/FacialAge/BNav_EC2/DepthDuration/v2_depth_duration_MTurk/v2_DepthDuration_HTML.html#155,155,1366,625,1366,768,8-30-2022,6-56-10,137,depth_duration_stimuli/000457_2014-06-08_16-52-43_260595134347_rgbf000199-resize_1/000457_2014-06-08_16-52-43_260595134347_rgbf000199-resize_1-target.png,125,3.6489999999999996,3,5518,134,meters,jsons/VE125_randls_68.json,785860,1609847,1982,Woman
137,742016,DepthScenes,duration_manipulation_targetAtFixation,jsons/VE125_randls_68.json,http://54.235.29.9/FacialAge/BNav_EC2/DepthDuration/v2_depth_duration_MTurk/v2_DepthDuration_HTML.html#155,155,1366,625,1366,768,8-30-2022,6-56-10,138,depth_duration_stimuli/000486_2014-06-09_20-47-20_260595134347_rgbf000143-resize_2/000486_2014-06-09_20-47-20_260595134347_rgbf000143-resize_2-target.png,125,4.8325,1,3161,123,meters,jsons/VE125_randls_68.json,785860,1609847,1982,Woman
138,742016,DepthScenes,duration_manipulation_targetAtFixation,jsons/VE125_randls_68.json,http://54.235.29.9/FacialAge/BNav_EC2/DepthDuration/v2_depth_duration_MTurk/v2_DepthDuration_HTML.html#155,155,1366,625,1366,768,8-30-2022,6-56-10,139,depth_duration_stimuli/003083_2014-06-15_15-21-03_094959634447_rgbf000063-resize_1/003083_2014-06-15_15-21-03_094959634447_rgbf000063-resize_1-target.png,125,4.1405,5,5371,123,meters,jsons/VE125_randls_68.json,785860,1609847,1982,Woman
139,742016,DepthScenes,duration_manipulation_targetAtFixation,jsons/VE125_randls_68.json,http://54.235.29.9/FacialAge/BNav_EC2/DepthDuration/v2_depth_duration_MTurk/v2_DepthDuration_HTML.html#155,155,1366,625,1366,768,8-30-2022,6-56-10,140,depth_duration_stimuli/001555_2014-06-20_17-12-10_260595134347_rgbf000065-resize_4/001555_2014-06-20_17-12-10_260595134347_rgbf000065-resize_4-target.png,125,1.633,1,4697,125,meters,jsons/VE125_randls_68.json,785860,1609847,1982,Woman
140,742016,DepthScenes,duration_manipulation_targetAtFixation,jsons/VE125_randls_68.json,http://54.235.29.9/FacialAge/BNav_EC2/DepthDuration/v2_depth_duration_MTurk/v2_DepthDuration_HTML.html#155,155,1366,625,1366,768,8-30-2022,6-56-10,141,depth_duration_stimuli/000103_2014-05-14_22-01-17_260595134347_rgbf000152-resize_5/000103_2014-05-14_22-01-17_260595134347_rgbf000152-resize_5-target.png,125,1.993,3,3240,128,meters,jsons/VE125_randls_68.json,785860,1609847,1982,Woman
141,742016,DepthScenes,duration_manipulation_targetAtFixation,jsons/VE125_randls_68.json,http://54.235.29.9/FacialAge/BNav_EC2/DepthDuration/v2_depth_duration_MTurk/v2_DepthDuration_HTML.html#155,155,1366,625,1366,768,8-30-2022,6-56-10,142,depth_duration_stimuli/002964_2014-06-08_17-46-11_094959634447_rgbf000091-resize_4/002964_2014-06-08_17-46-11_094959634447_rgbf000091-resize_4-target.png,125,1.6909999999999998,2,5475,140,meters,jsons/VE125_randls_68.json,785860,1609847,1982,Woman
142,742016,DepthScenes,duration_manipulation_targetAtFixation,jsons/VE125_randls_68.json,http://54.235.29.9/FacialAge/BNav_EC2/DepthDuration/v2_depth_duration_MTurk/v2_DepthDuration_HTML.html#155,155,1366,625,1366,768,8-30-2022,6-56-10,143,depth_duration_stimuli/002136_2014-06-25_21-18-03_260595134347_rgbf000109-resize_3/002136_2014-06-25_21-18-03_260595134347_rgbf000109-resize_3-target.png,125,1.9569999999999999,0,3228,123,meters,jsons/VE125_randls_68.json,785860,1609847,1982,Woman
143,742016,DepthScenes,duration_manipulation_targetAtFixation,jsons/VE125_randls_68.json,http://54.235.29.9/FacialAge/BNav_EC2/DepthDuration/v2_depth_duration_MTurk/v2_DepthDuration_HTML.html#155,155,1366,625,1366,768,8-30-2022,6-56-10,144,depth_duration_stimuli/002748_2014-06-22_19-07-22_094959634447_rgbf000078-resize_1/002748_2014-06-22_19-07-22_094959634447_rgbf000078-resize_1-target.png,125,4.6705,5,4333,125,meters,jsons/VE125_randls_68.json,785860,1609847,1982,Woman
144,742016,DepthScenes,duration_manipulation_targetAtFixation,jsons/VE125_randls_68.json,http://54.235.29.9/FacialAge/BNav_EC2/DepthDuration/v2_depth_duration_MTurk/v2_DepthDuration_HTML.html#155,155,1366,625,1366,768,8-30-2022,6-56-10,145,depth_duration_stimuli/002995_2014-06-15_12-31-26_094959634447_rgbf000150-resize_1/002995_2014-06-15_12-31-26_094959634447_rgbf000150-resize_1-target.png,125,3.8360000000000003,4,3234,123,meters,jsons/VE125_randls_68.json,785860,1609847,1982,Woman
145,742016,DepthScenes,duration_manipulation_targetAtFixation,jsons/VE125_randls_68.json,http://54.235.29.9/FacialAge/BNav_EC2/DepthDuration/v2_depth_duration_MTurk/v2_DepthDuration_HTML.html#155,155,1366,625,1366,768,8-30-2022,6-56-10,146,depth_duration_stimuli/001498_2014-06-19_17-45-14_260595134347_rgbf000129-resize_4/001498_2014-06-19_17-45-14_260595134347_rgbf000129-resize-original.jpg,125,1.4075,0,5096,124,meters,jsons/VE125_randls_68.json,785860,1609847,1982,Woman
146,742016,DepthScenes,duration_manipulation_targetAtFixation,jsons/VE125_randls_68.json,http://54.235.29.9/FacialAge/BNav_EC2/DepthDuration/v2_depth_duration_MTurk/v2_DepthDuration_HTML.html#155,155,1366,625,1366,768,8-30-2022,6-56-10,147,depth_duration_stimuli/000447_2014-06-08_16-15-46_260595134347_rgbf000130-resize_1/000447_2014-06-08_16-15-46_260595134347_rgbf000130-resize_1-target.png,125,4.479,3,7446,124,meters,jsons/VE125_randls_68.json,785860,1609847,1982,Woman
147,742016,DepthScenes,duration_manipulation_targetAtFixation,jsons/VE125_randls_68.json,http://54.235.29.9/FacialAge/BNav_EC2/DepthDuration/v2_depth_duration_MTurk/v2_DepthDuration_HTML.html#155,155,1366,625,1366,768,8-30-2022,6-56-10,148,depth_duration_stimuli/001447_2014-06-19_17-00-32_260595134347_rgbf000082-resize_5/001447_2014-06-19_17-00-32_260595134347_rgbf000082-resize_5-target.png,125,4.13775,0,4036,123,meters,jsons/VE125_randls_68.json,785860,1609847,1982,Woman
148,742016,DepthScenes,duration_manipulation_targetAtFixation,jsons/VE125_randls_68.json,http://54.235.29.9/FacialAge/BNav_EC2/DepthDuration/v2_depth_duration_MTurk/v2_DepthDuration_HTML.html#155,155,1366,625,1366,768,8-30-2022,6-56-10,149,depth_duration_stimuli/000368_2014-06-09_15-53-01_260595134347_rgbf000155-resize_2/000368_2014-06-09_15-53-01_260595134347_rgbf000155-resize_2-target.png,125,2.4859999999999998,3,4479,124,meters,jsons/VE125_randls_68.json,785860,1609847,1982,Woman
149,742016,DepthScenes,duration_manipulation_targetAtFixation,jsons/VE125_randls_68.json,http://54.235.29.9/FacialAge/BNav_EC2/DepthDuration/v2_depth_duration_MTurk/v2_DepthDuration_HTML.html#155,155,1366,625,1366,768,8-30-2022,6-56-10,150,depth_duration_stimuli/002678_2014-06-13_16-15-32_094959634447_rgbf000151-resize_6/002678_2014-06-13_16-15-32_094959634447_rgbf000151-resize_6-target.png,125,2.1830000000000003,3,5421,122,meters,jsons/VE125_randls_68.json,785860,1609847,1982,Woman
150,742016,DepthScenes,duration_manipulation_targetAtFixation,jsons/VE125_randls_68.json,http://54.235.29.9/FacialAge/BNav_EC2/DepthDuration/v2_depth_duration_MTurk/v2_DepthDuration_HTML.html#155,155,1366,625,1366,768,8-30-2022,6-56-10,151,depth_duration_stimuli/003292_2014-05-14_21-53-49_094959634447_rgbf000100-resize_2/003292_2014-05-14_21-53-49_094959634447_rgbf000100-resize_2-target.png,125,3.4815,2,4917,117,meters,jsons/VE125_randls_68.json,785860,1609847,1982,Woman
151,742016,DepthScenes,duration_manipulation_targetAtFixation,jsons/VE125_randls_68.json,http://54.235.29.9/FacialAge/BNav_EC2/DepthDuration/v2_depth_duration_MTurk/v2_DepthDuration_HTML.html#155,155,1366,625,1366,768,8-30-2022,6-56-10,152,depth_duration_stimuli/002639_2014-06-24_14-51-37_094959634447_rgbf000074-resize_4/002639_2014-06-24_14-51-37_094959634447_rgbf000074-resize_4-target.png,125,4.0375,3,4221,124,meters,jsons/VE125_randls_68.json,785860,1609847,1982,Woman
152,742016,DepthScenes,duration_manipulation_targetAtFixation,jsons/VE125_randls_68.json,http://54.235.29.9/FacialAge/BNav_EC2/DepthDuration/v2_depth_duration_MTurk/v2_DepthDuration_HTML.html#155,155,1366,625,1366,768,8-30-2022,6-56-10,153,depth_duration_stimuli/001011_2014-06-08_23-18-54_260595134347_rgbf000044-resize_4/001011_2014-06-08_23-18-54_260595134347_rgbf000044-resize_4-target.png,125,2.4730000000000003,0,3396,124,meters,jsons/VE125_randls_68.json,785860,1609847,1982,Woman
153,742016,DepthScenes,duration_manipulation_targetAtFixation,jsons/VE125_randls_68.json,http://54.235.29.9/FacialAge/BNav_EC2/DepthDuration/v2_depth_duration_MTurk/v2_DepthDuration_HTML.html#155,155,1366,625,1366,768,8-30-2022,6-56-10,154,depth_duration_stimuli/002875_2014-06-01_15-19-00_094959634447_rgbf000151-resize_1/002875_2014-06-01_15-19-00_094959634447_rgbf000151-resize_1-target.png,125,1.9675,4,4612,139,meters,jsons/VE125_randls_68.json,785860,1609847,1982,Woman
154,742016,DepthScenes,duration_manipulation_targetAtFixation,jsons/VE125_randls_68.json,http://54.235.29.9/FacialAge/BNav_EC2/DepthDuration/v2_depth_duration_MTurk/v2_DepthDuration_HTML.html#155,155,1366,625,1366,768,8-30-2022,6-56-10,155,depth_duration_stimuli/002272_2014-06-28_18-53-56_260595134347_rgbf000067-resize_2/002272_2014-06-28_18-53-56_260595134347_rgbf000067-resize_2-target.png,125,1.138,1,4620,124,meters,jsons/VE125_randls_68.json,785860,1609847,1982,Woman
155,742016,DepthScenes,duration_manipulation_targetAtFixation,jsons/VE125_randls_68.json,http://54.235.29.9/FacialAge/BNav_EC2/DepthDuration/v2_depth_duration_MTurk/v2_DepthDuration_HTML.html#155,155,1366,625,1366,768,8-30-2022,6-56-10,156,depth_duration_stimuli/001571_2014-06-20_17-21-32_260595134347_rgbf000089-resize_1/001571_2014-06-20_17-21-32_260595134347_rgbf000089-resize_1-target.png,125,1.86,1,3317,139,meters,jsons/VE125_randls_68.json,785860,1609847,1982,Woman
156,742016,DepthScenes,duration_manipulation_targetAtFixation,jsons/VE125_randls_68.json,http://54.235.29.9/FacialAge/BNav_EC2/DepthDuration/v2_depth_duration_MTurk/v2_DepthDuration_HTML.html#155,155,1366,625,1366,768,8-30-2022,6-56-10,157,depth_duration_stimuli/001016_2014-06-09_16-16-10_260595134347_rgbf000112-resize_5/001016_2014-06-09_16-16-10_260595134347_rgbf000112-resize_5-target.png,125,1.6565,2,5108,124,meters,jsons/VE125_randls_68.json,785860,1609847,1982,Woman
157,742016,DepthScenes,duration_manipulation_targetAtFixation,jsons/VE125_randls_68.json,http://54.235.29.9/FacialAge/BNav_EC2/DepthDuration/v2_depth_duration_MTurk/v2_DepthDuration_HTML.html#155,155,1366,625,1366,768,8-30-2022,6-56-10,158,depth_duration_stimuli/002340_2014-06-28_20-05-46_260595134347_rgbf000113-resize_0/002340_2014-06-28_20-05-46_260595134347_rgbf000113-resize_0-target.png,125,2.4735,4,3906,139,meters,jsons/VE125_randls_68.json,785860,1609847,1982,Woman
158,742016,DepthScenes,duration_manipulation_targetAtFixation,jsons/VE125_randls_68.json,http://54.235.29.9/FacialAge/BNav_EC2/DepthDuration/v2_depth_duration_MTurk/v2_DepthDuration_HTML.html#155,155,1366,625,1366,768,8-30-2022,6-56-10,159,depth_duration_stimuli/001110_2014-06-15_17-25-28_260595134347_rgbf000150-resize_1/001110_2014-06-15_17-25-28_260595134347_rgbf000150-resize_1-target.png,125,1.7115,2,4700,140,meters,jsons/VE125_randls_68.json,785860,1609847,1982,Woman
159,742016,DepthScenes,duration_manipulation_targetAtFixation,jsons/VE125_randls_68.json,http://54.235.29.9/FacialAge/BNav_EC2/DepthDuration/v2_depth_duration_MTurk/v2_DepthDuration_HTML.html#155,155,1366,625,1366,768,8-30-2022,6-56-10,160,depth_duration_stimuli/000927_2014-06-09_16-32-30_260595134347_rgbf000123-resize_3/000927_2014-06-09_16-32-30_260595134347_rgbf000123-resize_3-target.png,125,2.6785,3,3646,125,meters,jsons/VE125_randls_68.json,785860,1609847,1982,Woman
160,742016,DepthScenes,duration_manipulation_targetAtFixation,jsons/VE125_randls_68.json,http://54.235.29.9/FacialAge/BNav_EC2/DepthDuration/v2_depth_duration_MTurk/v2_DepthDuration_HTML.html#155,155,1366,625,1366,768,8-30-2022,6-56-10,161,depth_duration_stimuli/001066_2014-06-08_22-03-20_260595134347_rgbf000066-resize_4/001066_2014-06-08_22-03-20_260595134347_rgbf000066-resize_4-target.png,125,4.2330000000000005,0,4475,126,meters,jsons/VE125_randls_68.json,785860,1609847,1982,Woman
161,742016,DepthScenes,duration_manipulation_targetAtFixation,jsons/VE125_randls_68.json,http://54.235.29.9/FacialAge/BNav_EC2/DepthDuration/v2_depth_duration_MTurk/v2_DepthDuration_HTML.html#155,155,1366,625,1366,768,8-30-2022,6-56-10,162,depth_duration_stimuli/000742_2014-06-08_18-48-09_260595134347_rgbf000164-resize_4/000742_2014-06-08_18-48-09_260595134347_rgbf000164-resize_4-target.png,125,4.632,0,4149,124,meters,jsons/VE125_randls_68.json,785860,1609847,1982,Woman
162,742016,DepthScenes,duration_manipulation_targetAtFixation,jsons/VE125_randls_68.json,http://54.235.29.9/FacialAge/BNav_EC2/DepthDuration/v2_depth_duration_MTurk/v2_DepthDuration_HTML.html#155,155,1366,625,1366,768,8-30-2022,6-56-10,163,depth_duration_stimuli/001806_2014-06-26_20-50-20_260595134347_rgbf000091-resize_1/001806_2014-06-26_20-50-20_260595134347_rgbf000091-resize_1-target.png,125,2.7305,1,4896,132,meters,jsons/VE125_randls_68.json,785860,1609847,1982,Woman
163,742016,DepthScenes,duration_manipulation_targetAtFixation,jsons/VE125_randls_68.json,http://54.235.29.9/FacialAge/BNav_EC2/DepthDuration/v2_depth_duration_MTurk/v2_DepthDuration_HTML.html#155,155,1366,625,1366,768,8-30-2022,6-56-10,164,depth_duration_stimuli/001617_2014-06-20_11-35-32_260595134347_rgbf000066-resize_1/001617_2014-06-20_11-35-32_260595134347_rgbf000066-resize_1-target.png,125,3.7910000000000004,2,3705,142,meters,jsons/VE125_randls_68.json,785860,1609847,1982,Woman
