,subjID,experimentName,versionName,sequenceName,url,selected_row,windowWidth,windowHeight,screenWidth,screenHeight,startDate,startTime,trial,stimulus,duration,actual_depth,depth_estimate,trial_RT,log_sceneDuration,unitSelection,seq_filepath,experimentTime,totalTime,age,gender
0,746280,DepthScenes,duration_manipulation_targetAtFixation,jsons/VE125_randls_12_rotated.json,http://54.235.29.9/FacialAge/BNav_EC2/DepthDuration/v2_depth_duration_MTurk/v2_DepthDuration_HTML.html#226,226,1366,657,1366,768,8-29-2022,19-11-9,1,depth_duration_stimuli/001235_2014-06-17_16-37-36_260595134347_rgbf000084-resize_4/001235_2014-06-17_16-37-36_260595134347_rgbf000084-resize_4-target.png,125,3.6605,10,4866,126,meters,jsons/VE125_randls_12_rotated.json,1716773,2002968,30,Man
1,746280,DepthScenes,duration_manipulation_targetAtFixation,jsons/VE125_randls_12_rotated.json,http://54.235.29.9/FacialAge/BNav_EC2/DepthDuration/v2_depth_duration_MTurk/v2_DepthDuration_HTML.html#226,226,1366,657,1366,768,8-29-2022,19-11-9,2,depth_duration_stimuli/000788_2014-06-08_22-34-36_260595134347_rgbf000131-resize_1/000788_2014-06-08_22-34-36_260595134347_rgbf000131-resize_1-target.png,125,3.359,10,19247,125,meters,jsons/VE125_randls_12_rotated.json,1716773,2002968,30,Man
2,746280,DepthScenes,duration_manipulation_targetAtFixation,jsons/VE125_randls_12_rotated.json,http://54.235.29.9/FacialAge/BNav_EC2/DepthDuration/v2_depth_duration_MTurk/v2_DepthDuration_HTML.html#226,226,1366,657,1366,768,8-29-2022,19-11-9,3,depth_duration_stimuli/000927_2014-06-09_16-32-30_260595134347_rgbf000123-resize_3/000927_2014-06-09_16-32-30_260595134347_rgbf000123-resize_3-target.png,125,2.6785,5,4313,123,meters,jsons/VE125_randls_12_rotated.json,1716773,2002968,30,Man
3,746280,DepthScenes,duration_manipulation_targetAtFixation,jsons/VE125_randls_12_rotated.json,http://54.235.29.9/FacialAge/BNav_EC2/DepthDuration/v2_depth_duration_MTurk/v2_DepthDuration_HTML.html#226,226,1366,657,1366,768,8-29-2022,19-11-9,4,depth_duration_stimuli/001110_2014-06-15_17-25-28_260595134347_rgbf000150-resize_1/001110_2014-06-15_17-25-28_260595134347_rgbf000150-resize_1-target.png,125,1.7115,10,4717,124,meters,jsons/VE125_randls_12_rotated.json,1716773,2002968,30,Man
4,746280,DepthScenes,duration_manipulation_targetAtFixation,jsons/VE125_randls_12_rotated.json,http://54.235.29.9/FacialAge/BNav_EC2/DepthDuration/v2_depth_duration_MTurk/v2_DepthDuration_HTML.html#226,226,1366,657,1366,768,8-29-2022,19-11-9,5,depth_duration_stimuli/000483_2014-06-09_20-41-45_260595134347_rgbf000116-resize_4/000483_2014-06-09_20-41-45_260595134347_rgbf000116-resize_4-target.png,125,1.337,10,12716,120,meters,jsons/VE125_randls_12_rotated.json,1716773,2002968,30,Man
5,746280,DepthScenes,duration_manipulation_targetAtFixation,jsons/VE125_randls_12_rotated.json,http://54.235.29.9/FacialAge/BNav_EC2/DepthDuration/v2_depth_duration_MTurk/v2_DepthDuration_HTML.html#226,226,1366,657,1366,768,8-29-2022,19-11-9,6,depth_duration_stimuli/000469_2014-06-09_19-42-10_260595134347_rgbf000081-resize_1/000469_2014-06-09_19-42-10_260595134347_rgbf000081-resize_1-target.png,125,1.652,5,4338,124,meters,jsons/VE125_randls_12_rotated.json,1716773,2002968,30,Man
6,746280,DepthScenes,duration_manipulation_targetAtFixation,jsons/VE125_randls_12_rotated.json,http://54.235.29.9/FacialAge/BNav_EC2/DepthDuration/v2_depth_duration_MTurk/v2_DepthDuration_HTML.html#226,226,1366,657,1366,768,8-29-2022,19-11-9,7,depth_duration_stimuli/001815_2014-06-26_20-52-55_260595134347_rgbf000020-resize_0/001815_2014-06-26_20-52-55_260595134347_rgbf000020-resize_0-target.png,125,3.3865,10,4890,124,meters,jsons/VE125_randls_12_rotated.json,1716773,2002968,30,Man
7,746280,DepthScenes,duration_manipulation_targetAtFixation,jsons/VE125_randls_12_rotated.json,http://54.235.29.9/FacialAge/BNav_EC2/DepthDuration/v2_depth_duration_MTurk/v2_DepthDuration_HTML.html#226,226,1366,657,1366,768,8-29-2022,19-11-9,8,depth_duration_stimuli/001808_2014-06-26_20-50-58_260595134347_rgbf000029-resize_1/001808_2014-06-26_20-50-58_260595134347_rgbf000029-resize_1-target.png,125,4.249,10,12994,116,meters,jsons/VE125_randls_12_rotated.json,1716773,2002968,30,Man
8,746280,DepthScenes,duration_manipulation_targetAtFixation,jsons/VE125_randls_12_rotated.json,http://54.235.29.9/FacialAge/BNav_EC2/DepthDuration/v2_depth_duration_MTurk/v2_DepthDuration_HTML.html#226,226,1366,657,1366,768,8-29-2022,19-11-9,9,depth_duration_stimuli/000734_2014-06-08_17-39-11_260595134347_rgbf000128-resize_2/000734_2014-06-08_17-39-11_260595134347_rgbf000128-resize_2-target.png,125,4.098,10,4958,114,meters,jsons/VE125_randls_12_rotated.json,1716773,2002968,30,Man
9,746280,DepthScenes,duration_manipulation_targetAtFixation,jsons/VE125_randls_12_rotated.json,http://54.235.29.9/FacialAge/BNav_EC2/DepthDuration/v2_depth_duration_MTurk/v2_DepthDuration_HTML.html#226,226,1366,657,1366,768,8-29-2022,19-11-9,10,depth_duration_stimuli/000739_2014-06-08_18-45-58_260595134347_rgbf000068-resize_1/000739_2014-06-08_18-45-58_260595134347_rgbf000068-resize_1-target.png,125,3.534,5,7403,126,meters,jsons/VE125_randls_12_rotated.json,1716773,2002968,30,Man
10,746280,DepthScenes,duration_manipulation_targetAtFixation,jsons/VE125_randls_12_rotated.json,http://54.235.29.9/FacialAge/BNav_EC2/DepthDuration/v2_depth_duration_MTurk/v2_DepthDuration_HTML.html#226,226,1366,657,1366,768,8-29-2022,19-11-9,11,depth_duration_stimuli/001032_2014-06-08_13-23-17_260595134347_rgbf000021-resize_3/001032_2014-06-08_13-23-17_260595134347_rgbf000021-resize_3-target.png,125,3.2725,10,35809,120,meters,jsons/VE125_randls_12_rotated.json,1716773,2002968,30,Man
11,746280,DepthScenes,duration_manipulation_targetAtFixation,jsons/VE125_randls_12_rotated.json,http://54.235.29.9/FacialAge/BNav_EC2/DepthDuration/v2_depth_duration_MTurk/v2_DepthDuration_HTML.html#226,226,1366,657,1366,768,8-29-2022,19-11-9,12,depth_duration_stimuli/001059_2014-06-08_21-53-27_260595134347_rgbf000061-resize_4/001059_2014-06-08_21-53-27_260595134347_rgbf000061-resize_4-target.png,125,2.4185,10,42097,120,meters,jsons/VE125_randls_12_rotated.json,1716773,2002968,30,Man
12,746280,DepthScenes,duration_manipulation_targetAtFixation,jsons/VE125_randls_12_rotated.json,http://54.235.29.9/FacialAge/BNav_EC2/DepthDuration/v2_depth_duration_MTurk/v2_DepthDuration_HTML.html#226,226,1366,657,1366,768,8-29-2022,19-11-9,13,depth_duration_stimuli/001447_2014-06-19_17-00-32_260595134347_rgbf000082-resize_5/001447_2014-06-19_17-00-32_260595134347_rgbf000082-resize_5-target.png,125,4.13775,5,4707,110,meters,jsons/VE125_randls_12_rotated.json,1716773,2002968,30,Man
13,746280,DepthScenes,duration_manipulation_targetAtFixation,jsons/VE125_randls_12_rotated.json,http://54.235.29.9/FacialAge/BNav_EC2/DepthDuration/v2_depth_duration_MTurk/v2_DepthDuration_HTML.html#226,226,1366,657,1366,768,8-29-2022,19-11-9,14,depth_duration_stimuli/000447_2014-06-08_16-15-46_260595134347_rgbf000130-resize_1/000447_2014-06-08_16-15-46_260595134347_rgbf000130-resize_1-target.png,125,4.479,10,6184,124,meters,jsons/VE125_randls_12_rotated.json,1716773,2002968,30,Man
14,746280,DepthScenes,duration_manipulation_targetAtFixation,jsons/VE125_randls_12_rotated.json,http://54.235.29.9/FacialAge/BNav_EC2/DepthDuration/v2_depth_duration_MTurk/v2_DepthDuration_HTML.html#226,226,1366,657,1366,768,8-29-2022,19-11-9,15,depth_duration_stimuli/000556_2014-06-09_22-42-56_260595134347_rgbf000214-resize_1/000556_2014-06-09_22-42-56_260595134347_rgbf000214-resize_1-target.png,125,4.8415,5,18453,114,meters,jsons/VE125_randls_12_rotated.json,1716773,2002968,30,Man
15,746280,DepthScenes,duration_manipulation_targetAtFixation,jsons/VE125_randls_12_rotated.json,http://54.235.29.9/FacialAge/BNav_EC2/DepthDuration/v2_depth_duration_MTurk/v2_DepthDuration_HTML.html#226,226,1366,657,1366,768,8-29-2022,19-11-9,16,depth_duration_stimuli/001158_2014-06-17_15-32-16_260595134347_rgbf000138-resize_2/001158_2014-06-17_15-32-16_260595134347_rgbf000138-resize_2-target.png,125,4.5315,10,5647,125,meters,jsons/VE125_randls_12_rotated.json,1716773,2002968,30,Man
16,746280,DepthScenes,duration_manipulation_targetAtFixation,jsons/VE125_randls_12_rotated.json,http://54.235.29.9/FacialAge/BNav_EC2/DepthDuration/v2_depth_duration_MTurk/v2_DepthDuration_HTML.html#226,226,1366,657,1366,768,8-29-2022,19-11-9,17,depth_duration_stimuli/000457_2014-06-08_16-52-43_260595134347_rgbf000199-resize_1/000457_2014-06-08_16-52-43_260595134347_rgbf000199-resize_1-target.png,125,3.6489999999999996,5,9183,115,meters,jsons/VE125_randls_12_rotated.json,1716773,2002968,30,Man
17,746280,DepthScenes,duration_manipulation_targetAtFixation,jsons/VE125_randls_12_rotated.json,http://54.235.29.9/FacialAge/BNav_EC2/DepthDuration/v2_depth_duration_MTurk/v2_DepthDuration_HTML.html#226,226,1366,657,1366,768,8-29-2022,19-11-9,18,depth_duration_stimuli/000929_2014-06-09_16-33-19_260595134347_rgbf000139-resize_0/000929_2014-06-09_16-33-19_260595134347_rgbf000139-resize_0-target.png,125,2.8680000000000003,10,15493,119,meters,jsons/VE125_randls_12_rotated.json,1716773,2002968,30,Man
18,746280,DepthScenes,duration_manipulation_targetAtFixation,jsons/VE125_randls_12_rotated.json,http://54.235.29.9/FacialAge/BNav_EC2/DepthDuration/v2_depth_duration_MTurk/v2_DepthDuration_HTML.html#226,226,1366,657,1366,768,8-29-2022,19-11-9,19,depth_duration_stimuli/001498_2014-06-19_17-45-14_260595134347_rgbf000129-resize_4/001498_2014-06-19_17-45-14_260595134347_rgbf000129-resize-original.jpg,125,1.4075,10,14702,124,meters,jsons/VE125_randls_12_rotated.json,1716773,2002968,30,Man
19,746280,DepthScenes,duration_manipulation_targetAtFixation,jsons/VE125_randls_12_rotated.json,http://54.235.29.9/FacialAge/BNav_EC2/DepthDuration/v2_depth_duration_MTurk/v2_DepthDuration_HTML.html#226,226,1366,657,1366,768,8-29-2022,19-11-9,20,depth_duration_stimuli/002425_2014-06-28_20-27-29_260595134347_rgbf000031-resize_8/002425_2014-06-28_20-27-29_260595134347_rgbf000031-resize_8-target.png,125,3.8960000000000004,10,7854,124,meters,jsons/VE125_randls_12_rotated.json,1716773,2002968,30,Man
20,746280,DepthScenes,duration_manipulation_targetAtFixation,jsons/VE125_randls_12_rotated.json,http://54.235.29.9/FacialAge/BNav_EC2/DepthDuration/v2_depth_duration_MTurk/v2_DepthDuration_HTML.html#226,226,1366,657,1366,768,8-29-2022,19-11-9,21,depth_duration_stimuli/000642_2014-06-08_16-59-25_260595134347_rgbf000098-resize_2/000642_2014-06-08_16-59-25_260595134347_rgbf000098-resize_2-target.png,125,2.8815,5,4281,125,meters,jsons/VE125_randls_12_rotated.json,1716773,2002968,30,Man
21,746280,DepthScenes,duration_manipulation_targetAtFixation,jsons/VE125_randls_12_rotated.json,http://54.235.29.9/FacialAge/BNav_EC2/DepthDuration/v2_depth_duration_MTurk/v2_DepthDuration_HTML.html#226,226,1366,657,1366,768,8-29-2022,19-11-9,22,depth_duration_stimuli/000780_2014-06-08_22-28-29_260595134347_rgbf000126-resize_1/000780_2014-06-08_22-28-29_260595134347_rgbf000126-resize_1-target.png,125,3.3825,10,4857,128,meters,jsons/VE125_randls_12_rotated.json,1716773,2002968,30,Man
22,746280,DepthScenes,duration_manipulation_targetAtFixation,jsons/VE125_randls_12_rotated.json,http://54.235.29.9/FacialAge/BNav_EC2/DepthDuration/v2_depth_duration_MTurk/v2_DepthDuration_HTML.html#226,226,1366,657,1366,768,8-29-2022,19-11-9,23,depth_duration_stimuli/002445_2014-06-28_20-32-16_260595134347_rgbf000029-resize_4/002445_2014-06-28_20-32-16_260595134347_rgbf000029-resize_4-target.png,125,2.5315,5,13868,121,meters,jsons/VE125_randls_12_rotated.json,1716773,2002968,30,Man
23,746280,DepthScenes,duration_manipulation_targetAtFixation,jsons/VE125_randls_12_rotated.json,http://54.235.29.9/FacialAge/BNav_EC2/DepthDuration/v2_depth_duration_MTurk/v2_DepthDuration_HTML.html#226,226,1366,657,1366,768,8-29-2022,19-11-9,24,depth_duration_stimuli/001571_2014-06-20_17-21-32_260595134347_rgbf000089-resize_1/001571_2014-06-20_17-21-32_260595134347_rgbf000089-resize_1-target.png,125,1.86,10,5921,119,meters,jsons/VE125_randls_12_rotated.json,1716773,2002968,30,Man
24,746280,DepthScenes,duration_manipulation_targetAtFixation,jsons/VE125_randls_12_rotated.json,http://54.235.29.9/FacialAge/BNav_EC2/DepthDuration/v2_depth_duration_MTurk/v2_DepthDuration_HTML.html#226,226,1366,657,1366,768,8-29-2022,19-11-9,25,depth_duration_stimuli/002272_2014-06-28_18-53-56_260595134347_rgbf000067-resize_2/002272_2014-06-28_18-53-56_260595134347_rgbf000067-resize_2-target.png,125,1.138,5,3781,124,meters,jsons/VE125_randls_12_rotated.json,1716773,2002968,30,Man
25,746280,DepthScenes,duration_manipulation_targetAtFixation,jsons/VE125_randls_12_rotated.json,http://54.235.29.9/FacialAge/BNav_EC2/DepthDuration/v2_depth_duration_MTurk/v2_DepthDuration_HTML.html#226,226,1366,657,1366,768,8-29-2022,19-11-9,26,depth_duration_stimuli/000502_2014-06-08_23-02-32_260595134347_rgbf000063-resize_4/000502_2014-06-08_23-02-32_260595134347_rgbf000063-resize_4-target.png,125,2.431,10,4621,118,meters,jsons/VE125_randls_12_rotated.json,1716773,2002968,30,Man
26,746280,DepthScenes,duration_manipulation_targetAtFixation,jsons/VE125_randls_12_rotated.json,http://54.235.29.9/FacialAge/BNav_EC2/DepthDuration/v2_depth_duration_MTurk/v2_DepthDuration_HTML.html#226,226,1366,657,1366,768,8-29-2022,19-11-9,27,depth_duration_stimuli/001199_2014-06-17_16-03-48_260595134347_rgbf000077-resize_0/001199_2014-06-17_16-03-48_260595134347_rgbf000077-resize_0-target.png,125,3.4375,5,3913,125,meters,jsons/VE125_randls_12_rotated.json,1716773,2002968,30,Man
27,746280,DepthScenes,duration_manipulation_targetAtFixation,jsons/VE125_randls_12_rotated.json,http://54.235.29.9/FacialAge/BNav_EC2/DepthDuration/v2_depth_duration_MTurk/v2_DepthDuration_HTML.html#226,226,1366,657,1366,768,8-29-2022,19-11-9,28,depth_duration_stimuli/000943_2014-06-09_19-31-07_260595134347_rgbf000128-resize_1/000943_2014-06-09_19-31-07_260595134347_rgbf000128-resize_1-target.png,125,1.9765,10,4674,124,meters,jsons/VE125_randls_12_rotated.json,1716773,2002968,30,Man
28,746280,DepthScenes,duration_manipulation_targetAtFixation,jsons/VE125_randls_12_rotated.json,http://54.235.29.9/FacialAge/BNav_EC2/DepthDuration/v2_depth_duration_MTurk/v2_DepthDuration_HTML.html#226,226,1366,657,1366,768,8-29-2022,19-11-9,29,depth_duration_stimuli/003070_2014-06-15_14-58-27_094959634447_rgbf000150-resize_3/003070_2014-06-15_14-58-27_094959634447_rgbf000150-resize_3-target.png,125,2.9415,5,3960,124,meters,jsons/VE125_randls_12_rotated.json,1716773,2002968,30,Man
29,746280,DepthScenes,duration_manipulation_targetAtFixation,jsons/VE125_randls_12_rotated.json,http://54.235.29.9/FacialAge/BNav_EC2/DepthDuration/v2_depth_duration_MTurk/v2_DepthDuration_HTML.html#226,226,1366,657,1366,768,8-29-2022,19-11-9,30,depth_duration_stimuli/002072_2014-06-24_21-48-06_260595134347_rgbf000115-resize_0/002072_2014-06-24_21-48-06_260595134347_rgbf000115-resize-original.jpg,125,4.702,10,4338,121,meters,jsons/VE125_randls_12_rotated.json,1716773,2002968,30,Man
30,746280,DepthScenes,duration_manipulation_targetAtFixation,jsons/VE125_randls_12_rotated.json,http://54.235.29.9/FacialAge/BNav_EC2/DepthDuration/v2_depth_duration_MTurk/v2_DepthDuration_HTML.html#226,226,1366,657,1366,768,8-29-2022,19-11-9,31,depth_duration_stimuli/001828_2014-06-26_21-40-03_260595134347_rgbf000024-resize_0/001828_2014-06-26_21-40-03_260595134347_rgbf000024-resize_0-target.png,125,4.8260000000000005,5,3337,124,meters,jsons/VE125_randls_12_rotated.json,1716773,2002968,30,Man
31,746280,DepthScenes,duration_manipulation_targetAtFixation,jsons/VE125_randls_12_rotated.json,http://54.235.29.9/FacialAge/BNav_EC2/DepthDuration/v2_depth_duration_MTurk/v2_DepthDuration_HTML.html#226,226,1366,657,1366,768,8-29-2022,19-11-9,32,depth_duration_stimuli/000009_2014-05-26_14-32-05_260595134347_rgbf000034-resize_3/000009_2014-05-26_14-32-05_260595134347_rgbf000034-resize_3-target.png,125,3.8715,10,4506,125,meters,jsons/VE125_randls_12_rotated.json,1716773,2002968,30,Man
32,746280,DepthScenes,duration_manipulation_targetAtFixation,jsons/VE125_randls_12_rotated.json,http://54.235.29.9/FacialAge/BNav_EC2/DepthDuration/v2_depth_duration_MTurk/v2_DepthDuration_HTML.html#226,226,1366,657,1366,768,8-29-2022,19-11-9,33,depth_duration_stimuli/003228_2014-05-14_13-42-35_094959634447_rgbf000101-resize_1/003228_2014-05-14_13-42-35_094959634447_rgbf000101-resize_1-target.png,125,1.9680000000000002,5,3831,121,meters,jsons/VE125_randls_12_rotated.json,1716773,2002968,30,Man
33,746280,DepthScenes,duration_manipulation_targetAtFixation,jsons/VE125_randls_12_rotated.json,http://54.235.29.9/FacialAge/BNav_EC2/DepthDuration/v2_depth_duration_MTurk/v2_DepthDuration_HTML.html#226,226,1366,657,1366,768,8-29-2022,19-11-9,34,depth_duration_stimuli/002600_2014-06-24_14-27-04_094959634447_rgbf000074-resize_2/002600_2014-06-24_14-27-04_094959634447_rgbf000074-resize_2-target.png,125,2.7575,10,5039,124,meters,jsons/VE125_randls_12_rotated.json,1716773,2002968,30,Man
34,746280,DepthScenes,duration_manipulation_targetAtFixation,jsons/VE125_randls_12_rotated.json,http://54.235.29.9/FacialAge/BNav_EC2/DepthDuration/v2_depth_duration_MTurk/v2_DepthDuration_HTML.html#226,226,1366,657,1366,768,8-29-2022,19-11-9,35,depth_duration_stimuli/002949_2014-06-26_15-57-42_094959634447_rgbf000079-resize_1/002949_2014-06-26_15-57-42_094959634447_rgbf000079-resize_1-target.png,125,1.8915,5,3934,125,meters,jsons/VE125_randls_12_rotated.json,1716773,2002968,30,Man
35,746280,DepthScenes,duration_manipulation_targetAtFixation,jsons/VE125_randls_12_rotated.json,http://54.235.29.9/FacialAge/BNav_EC2/DepthDuration/v2_depth_duration_MTurk/v2_DepthDuration_HTML.html#226,226,1366,657,1366,768,8-29-2022,19-11-9,36,depth_duration_stimuli/000522_2014-06-08_13-35-06_260595134347_rgbf000244-resize_1/000522_2014-06-08_13-35-06_260595134347_rgbf000244-resize_1-target.png,125,2.3715,10,4365,115,meters,jsons/VE125_randls_12_rotated.json,1716773,2002968,30,Man
36,746280,DepthScenes,duration_manipulation_targetAtFixation,jsons/VE125_randls_12_rotated.json,http://54.235.29.9/FacialAge/BNav_EC2/DepthDuration/v2_depth_duration_MTurk/v2_DepthDuration_HTML.html#226,226,1366,657,1366,768,8-29-2022,19-11-9,37,depth_duration_stimuli/001584_2014-06-20_11-07-43_260595134347_rgbf000002-resize_1/001584_2014-06-20_11-07-43_260595134347_rgbf000002-resize_1-target.png,125,3.53,5,3599,130,meters,jsons/VE125_randls_12_rotated.json,1716773,2002968,30,Man
37,746280,DepthScenes,duration_manipulation_targetAtFixation,jsons/VE125_randls_12_rotated.json,http://54.235.29.9/FacialAge/BNav_EC2/DepthDuration/v2_depth_duration_MTurk/v2_DepthDuration_HTML.html#226,226,1366,657,1366,768,8-29-2022,19-11-9,38,depth_duration_stimuli/003621_2014-05-23_18-06-08_094959634447_rgbf000101-resize_1/003621_2014-05-23_18-06-08_094959634447_rgbf000101-resize_1-target.png,125,3.9835,10,8314,121,meters,jsons/VE125_randls_12_rotated.json,1716773,2002968,30,Man
38,746280,DepthScenes,duration_manipulation_targetAtFixation,jsons/VE125_randls_12_rotated.json,http://54.235.29.9/FacialAge/BNav_EC2/DepthDuration/v2_depth_duration_MTurk/v2_DepthDuration_HTML.html#226,226,1366,657,1366,768,8-29-2022,19-11-9,39,depth_duration_stimuli/001132_2014-06-17_14-48-54_260595134347_rgbf000100-resize_2/001132_2014-06-17_14-48-54_260595134347_rgbf000100-resize_2-target.png,125,3.753,5,3865,124,meters,jsons/VE125_randls_12_rotated.json,1716773,2002968,30,Man
39,746280,DepthScenes,duration_manipulation_targetAtFixation,jsons/VE125_randls_12_rotated.json,http://54.235.29.9/FacialAge/BNav_EC2/DepthDuration/v2_depth_duration_MTurk/v2_DepthDuration_HTML.html#226,226,1366,657,1366,768,8-29-2022,19-11-9,40,depth_duration_stimuli/001133_2014-06-17_14-49-16_260595134347_rgbf000100-resize_0/001133_2014-06-17_14-49-16_260595134347_rgbf000100-resize_0-target.png,125,4.2115,10,16847,120,meters,jsons/VE125_randls_12_rotated.json,1716773,2002968,30,Man
40,746280,DepthScenes,duration_manipulation_targetAtFixation,jsons/VE125_randls_12_rotated.json,http://54.235.29.9/FacialAge/BNav_EC2/DepthDuration/v2_depth_duration_MTurk/v2_DepthDuration_HTML.html#226,226,1366,657,1366,768,8-29-2022,19-11-9,41,depth_duration_stimuli/003490_2014-05-21_15-50-11_094959634447_rgbf000101-resize_3/003490_2014-05-21_15-50-11_094959634447_rgbf000101-resize_3-target.png,125,3.6445,10,7454,124,meters,jsons/VE125_randls_12_rotated.json,1716773,2002968,30,Man
41,746280,DepthScenes,duration_manipulation_targetAtFixation,jsons/VE125_randls_12_rotated.json,http://54.235.29.9/FacialAge/BNav_EC2/DepthDuration/v2_depth_duration_MTurk/v2_DepthDuration_HTML.html#226,226,1366,657,1366,768,8-29-2022,19-11-9,42,depth_duration_stimuli/001175_2014-06-17_15-45-55_260595134347_rgbf000129-resize_4/001175_2014-06-17_15-45-55_260595134347_rgbf000129-resize_4-target.png,125,4.255,5,9263,122,meters,jsons/VE125_randls_12_rotated.json,1716773,2002968,30,Man
42,746280,DepthScenes,duration_manipulation_targetAtFixation,jsons/VE125_randls_12_rotated.json,http://54.235.29.9/FacialAge/BNav_EC2/DepthDuration/v2_depth_duration_MTurk/v2_DepthDuration_HTML.html#226,226,1366,657,1366,768,8-29-2022,19-11-9,43,depth_duration_stimuli/001516_2014-06-20_16-25-09_260595134347_rgbf000076-resize_2/001516_2014-06-20_16-25-09_260595134347_rgbf000076-resize_2-target.png,125,1.7445,10,4753,124,meters,jsons/VE125_randls_12_rotated.json,1716773,2002968,30,Man
43,746280,DepthScenes,duration_manipulation_targetAtFixation,jsons/VE125_randls_12_rotated.json,http://54.235.29.9/FacialAge/BNav_EC2/DepthDuration/v2_depth_duration_MTurk/v2_DepthDuration_HTML.html#226,226,1366,657,1366,768,8-29-2022,19-11-9,44,depth_duration_stimuli/002118_2014-06-25_20-32-08_260595134347_rgbf000078-resize_1/002118_2014-06-25_20-32-08_260595134347_rgbf000078-resize_1-target.png,125,2.6460000000000004,10,13463,124,meters,jsons/VE125_randls_12_rotated.json,1716773,2002968,30,Man
44,746280,DepthScenes,duration_manipulation_targetAtFixation,jsons/VE125_randls_12_rotated.json,http://54.235.29.9/FacialAge/BNav_EC2/DepthDuration/v2_depth_duration_MTurk/v2_DepthDuration_HTML.html#226,226,1366,657,1366,768,8-29-2022,19-11-9,45,depth_duration_stimuli/002758_2014-06-22_19-11-20_094959634447_rgbf000128-resize_1/002758_2014-06-22_19-11-20_094959634447_rgbf000128-resize_1-target.png,125,2.555,5,3778,127,meters,jsons/VE125_randls_12_rotated.json,1716773,2002968,30,Man
45,746280,DepthScenes,duration_manipulation_targetAtFixation,jsons/VE125_randls_12_rotated.json,http://54.235.29.9/FacialAge/BNav_EC2/DepthDuration/v2_depth_duration_MTurk/v2_DepthDuration_HTML.html#226,226,1366,657,1366,768,8-29-2022,19-11-9,46,depth_duration_stimuli/002630_2014-06-24_14-47-50_094959634447_rgbf000055-resize_1/002630_2014-06-24_14-47-50_094959634447_rgbf000055-resize_1-target.png,125,3.0095,10,4071,124,meters,jsons/VE125_randls_12_rotated.json,1716773,2002968,30,Man
46,746280,DepthScenes,duration_manipulation_targetAtFixation,jsons/VE125_randls_12_rotated.json,http://54.235.29.9/FacialAge/BNav_EC2/DepthDuration/v2_depth_duration_MTurk/v2_DepthDuration_HTML.html#226,226,1366,657,1366,768,8-29-2022,19-11-9,47,depth_duration_stimuli/000137_2014-05-20_17-04-49_260595134347_rgbf000120-resize_1/000137_2014-05-20_17-04-49_260595134347_rgbf000120-resize_1-target.png,125,3.786,5,3785,115,meters,jsons/VE125_randls_12_rotated.json,1716773,2002968,30,Man
47,746280,DepthScenes,duration_manipulation_targetAtFixation,jsons/VE125_randls_12_rotated.json,http://54.235.29.9/FacialAge/BNav_EC2/DepthDuration/v2_depth_duration_MTurk/v2_DepthDuration_HTML.html#226,226,1366,657,1366,768,8-29-2022,19-11-9,48,depth_duration_stimuli/000736_2014-06-08_18-24-15_260595134347_rgbf000206-resize_3/000736_2014-06-08_18-24-15_260595134347_rgbf000206-resize_3-target.png,125,3.515,10,4232,125,meters,jsons/VE125_randls_12_rotated.json,1716773,2002968,30,Man
48,746280,DepthScenes,duration_manipulation_targetAtFixation,jsons/VE125_randls_12_rotated.json,http://54.235.29.9/FacialAge/BNav_EC2/DepthDuration/v2_depth_duration_MTurk/v2_DepthDuration_HTML.html#226,226,1366,657,1366,768,8-29-2022,19-11-9,49,depth_duration_stimuli/001170_2014-06-17_15-43-44_260595134347_rgbf000096-resize_6/001170_2014-06-17_15-43-44_260595134347_rgbf000096-resize-original.jpg,125,1.1909999999999998,5,5312,127,meters,jsons/VE125_randls_12_rotated.json,1716773,2002968,30,Man
49,746280,DepthScenes,duration_manipulation_targetAtFixation,jsons/VE125_randls_12_rotated.json,http://54.235.29.9/FacialAge/BNav_EC2/DepthDuration/v2_depth_duration_MTurk/v2_DepthDuration_HTML.html#226,226,1366,657,1366,768,8-29-2022,19-11-9,50,depth_duration_stimuli/003338_2014-05-20_11-01-23_094959634447_rgbf000051-resize_6/003338_2014-05-20_11-01-23_094959634447_rgbf000051-resize_6-target.png,125,1.693,10,9117,110,meters,jsons/VE125_randls_12_rotated.json,1716773,2002968,30,Man
50,746280,DepthScenes,duration_manipulation_targetAtFixation,jsons/VE125_randls_12_rotated.json,http://54.235.29.9/FacialAge/BNav_EC2/DepthDuration/v2_depth_duration_MTurk/v2_DepthDuration_HTML.html#226,226,1366,657,1366,768,8-29-2022,19-11-9,51,depth_duration_stimuli/002509_2014-06-24_13-19-22_094959634447_rgbf000077-resize_0/002509_2014-06-24_13-19-22_094959634447_rgbf000077-resize_0-target.png,125,1.3065,5,3638,124,meters,jsons/VE125_randls_12_rotated.json,1716773,2002968,30,Man
51,746280,DepthScenes,duration_manipulation_targetAtFixation,jsons/VE125_randls_12_rotated.json,http://54.235.29.9/FacialAge/BNav_EC2/DepthDuration/v2_depth_duration_MTurk/v2_DepthDuration_HTML.html#226,226,1366,657,1366,768,8-29-2022,19-11-9,52,depth_duration_stimuli/003423_2014-05-21_10-23-26_094959634447_rgbf002665-resize_2/003423_2014-05-21_10-23-26_094959634447_rgbf002665-resize_2-target.png,125,3.2575,10,4153,127,meters,jsons/VE125_randls_12_rotated.json,1716773,2002968,30,Man
52,746280,DepthScenes,duration_manipulation_targetAtFixation,jsons/VE125_randls_12_rotated.json,http://54.235.29.9/FacialAge/BNav_EC2/DepthDuration/v2_depth_duration_MTurk/v2_DepthDuration_HTML.html#226,226,1366,657,1366,768,8-29-2022,19-11-9,53,depth_duration_stimuli/002905_2014-06-03_18-04-43_094959634447_rgbf000151-resize_2/002905_2014-06-03_18-04-43_094959634447_rgbf000151-resize_2-target.png,125,2.0295,5,3522,125,meters,jsons/VE125_randls_12_rotated.json,1716773,2002968,30,Man
53,746280,DepthScenes,duration_manipulation_targetAtFixation,jsons/VE125_randls_12_rotated.json,http://54.235.29.9/FacialAge/BNav_EC2/DepthDuration/v2_depth_duration_MTurk/v2_DepthDuration_HTML.html#226,226,1366,657,1366,768,8-29-2022,19-11-9,54,depth_duration_stimuli/002657_2014-06-13_15-29-54_094959634447_rgbf000150-resize_1/002657_2014-06-13_15-29-54_094959634447_rgbf000150-resize_1-target.png,125,4.919,10,6232,125,meters,jsons/VE125_randls_12_rotated.json,1716773,2002968,30,Man
54,746280,DepthScenes,duration_manipulation_targetAtFixation,jsons/VE125_randls_12_rotated.json,http://54.235.29.9/FacialAge/BNav_EC2/DepthDuration/v2_depth_duration_MTurk/v2_DepthDuration_HTML.html#226,226,1366,657,1366,768,8-29-2022,19-11-9,55,depth_duration_stimuli/002375_2014-06-28_20-13-44_260595134347_rgbf000032-resize_1/002375_2014-06-28_20-13-44_260595134347_rgbf000032-resize_1-target.png,125,4.0175,10,30295,126,meters,jsons/VE125_randls_12_rotated.json,1716773,2002968,30,Man
55,746280,DepthScenes,duration_manipulation_targetAtFixation,jsons/VE125_randls_12_rotated.json,http://54.235.29.9/FacialAge/BNav_EC2/DepthDuration/v2_depth_duration_MTurk/v2_DepthDuration_HTML.html#226,226,1366,657,1366,768,8-29-2022,19-11-9,56,depth_duration_stimuli/002414_2014-06-28_20-24-58_260595134347_rgbf000067-resize_4/002414_2014-06-28_20-24-58_260595134347_rgbf000067-resize_4-target.png,125,4.363,5,5848,124,meters,jsons/VE125_randls_12_rotated.json,1716773,2002968,30,Man
56,746280,DepthScenes,duration_manipulation_targetAtFixation,jsons/VE125_randls_12_rotated.json,http://54.235.29.9/FacialAge/BNav_EC2/DepthDuration/v2_depth_duration_MTurk/v2_DepthDuration_HTML.html#226,226,1366,657,1366,768,8-29-2022,19-11-9,57,depth_duration_stimuli/000773_2014-06-08_22-24-54_260595134347_rgbf000093-resize_1/000773_2014-06-08_22-24-54_260595134347_rgbf000093-resize_1-target.png,125,4.973,10,4387,120,meters,jsons/VE125_randls_12_rotated.json,1716773,2002968,30,Man
57,746280,DepthScenes,duration_manipulation_targetAtFixation,jsons/VE125_randls_12_rotated.json,http://54.235.29.9/FacialAge/BNav_EC2/DepthDuration/v2_depth_duration_MTurk/v2_DepthDuration_HTML.html#226,226,1366,657,1366,768,8-29-2022,19-11-9,58,depth_duration_stimuli/001650_2014-06-20_12-09-00_260595134347_rgbf000087-resize_3/001650_2014-06-20_12-09-00_260595134347_rgbf000087-resize_3-target.png,125,1.9505,10,22218,136,meters,jsons/VE125_randls_12_rotated.json,1716773,2002968,30,Man
58,746280,DepthScenes,duration_manipulation_targetAtFixation,jsons/VE125_randls_12_rotated.json,http://54.235.29.9/FacialAge/BNav_EC2/DepthDuration/v2_depth_duration_MTurk/v2_DepthDuration_HTML.html#226,226,1366,657,1366,768,8-29-2022,19-11-9,59,depth_duration_stimuli/000682_2014-06-08_23-14-58_260595134347_rgbf000041-resize_5/000682_2014-06-08_23-14-58_260595134347_rgbf000041-resize_5-target.png,125,2.7239999999999998,5,8029,125,meters,jsons/VE125_randls_12_rotated.json,1716773,2002968,30,Man
59,746280,DepthScenes,duration_manipulation_targetAtFixation,jsons/VE125_randls_12_rotated.json,http://54.235.29.9/FacialAge/BNav_EC2/DepthDuration/v2_depth_duration_MTurk/v2_DepthDuration_HTML.html#226,226,1366,657,1366,768,8-29-2022,19-11-9,60,depth_duration_stimuli/000549_2014-06-08_22-10-24_260595134347_rgbf000247-resize_3/000549_2014-06-08_22-10-24_260595134347_rgbf000247-resize_3-target.png,125,1.841,10,22836,119,meters,jsons/VE125_randls_12_rotated.json,1716773,2002968,30,Man
60,746280,DepthScenes,duration_manipulation_targetAtFixation,jsons/VE125_randls_12_rotated.json,http://54.235.29.9/FacialAge/BNav_EC2/DepthDuration/v2_depth_duration_MTurk/v2_DepthDuration_HTML.html#226,226,1366,657,1366,768,8-29-2022,19-11-9,61,depth_duration_stimuli/001055_2014-06-08_18-45-35_260595134347_rgbf000111-resize_4/001055_2014-06-08_18-45-35_260595134347_rgbf000111-resize_4-target.png,125,2.4290000000000003,5,4030,125,meters,jsons/VE125_randls_12_rotated.json,1716773,2002968,30,Man
61,746280,DepthScenes,duration_manipulation_targetAtFixation,jsons/VE125_randls_12_rotated.json,http://54.235.29.9/FacialAge/BNav_EC2/DepthDuration/v2_depth_duration_MTurk/v2_DepthDuration_HTML.html#226,226,1366,657,1366,768,8-29-2022,19-11-9,62,depth_duration_stimuli/002467_2014-06-28_20-38-07_260595134347_rgbf000026-resize_2/002467_2014-06-28_20-38-07_260595134347_rgbf000026-resize_2-target.png,125,4.742,10,6552,131,meters,jsons/VE125_randls_12_rotated.json,1716773,2002968,30,Man
62,746280,DepthScenes,duration_manipulation_targetAtFixation,jsons/VE125_randls_12_rotated.json,http://54.235.29.9/FacialAge/BNav_EC2/DepthDuration/v2_depth_duration_MTurk/v2_DepthDuration_HTML.html#226,226,1366,657,1366,768,8-29-2022,19-11-9,63,depth_duration_stimuli/002570_2014-06-24_13-59-54_094959634447_rgbf000059-resize_0/002570_2014-06-24_13-59-54_094959634447_rgbf000059-resize_0-target.png,125,4.037,5,4806,114,meters,jsons/VE125_randls_12_rotated.json,1716773,2002968,30,Man
63,746280,DepthScenes,duration_manipulation_targetAtFixation,jsons/VE125_randls_12_rotated.json,http://54.235.29.9/FacialAge/BNav_EC2/DepthDuration/v2_depth_duration_MTurk/v2_DepthDuration_HTML.html#226,226,1366,657,1366,768,8-29-2022,19-11-9,64,depth_duration_stimuli/002995_2014-06-15_12-31-26_094959634447_rgbf000150-resize_1/002995_2014-06-15_12-31-26_094959634447_rgbf000150-resize_1-target.png,125,3.8360000000000003,10,5996,110,meters,jsons/VE125_randls_12_rotated.json,1716773,2002968,30,Man
64,746280,DepthScenes,duration_manipulation_targetAtFixation,jsons/VE125_randls_12_rotated.json,http://54.235.29.9/FacialAge/BNav_EC2/DepthDuration/v2_depth_duration_MTurk/v2_DepthDuration_HTML.html#226,226,1366,657,1366,768,8-29-2022,19-11-9,65,depth_duration_stimuli/002748_2014-06-22_19-07-22_094959634447_rgbf000078-resize_1/002748_2014-06-22_19-07-22_094959634447_rgbf000078-resize_1-target.png,125,4.6705,5,6711,124,meters,jsons/VE125_randls_12_rotated.json,1716773,2002968,30,Man
65,746280,DepthScenes,duration_manipulation_targetAtFixation,jsons/VE125_randls_12_rotated.json,http://54.235.29.9/FacialAge/BNav_EC2/DepthDuration/v2_depth_duration_MTurk/v2_DepthDuration_HTML.html#226,226,1366,657,1366,768,8-29-2022,19-11-9,66,depth_duration_stimuli/001540_2014-06-20_17-01-05_260595134347_rgbf000086-resize_2/001540_2014-06-20_17-01-05_260595134347_rgbf000086-resize-original.jpg,125,1.459,10,4109,126,meters,jsons/VE125_randls_12_rotated.json,1716773,2002968,30,Man
66,746280,DepthScenes,duration_manipulation_targetAtFixation,jsons/VE125_randls_12_rotated.json,http://54.235.29.9/FacialAge/BNav_EC2/DepthDuration/v2_depth_duration_MTurk/v2_DepthDuration_HTML.html#226,226,1366,657,1366,768,8-29-2022,19-11-9,67,depth_duration_stimuli/002209_2014-06-28_18-36-10_260595134347_rgbf000051-resize_1/002209_2014-06-28_18-36-10_260595134347_rgbf000051-resize_1-target.png,125,2.057,5,3874,124,meters,jsons/VE125_randls_12_rotated.json,1716773,2002968,30,Man
67,746280,DepthScenes,duration_manipulation_targetAtFixation,jsons/VE125_randls_12_rotated.json,http://54.235.29.9/FacialAge/BNav_EC2/DepthDuration/v2_depth_duration_MTurk/v2_DepthDuration_HTML.html#226,226,1366,657,1366,768,8-29-2022,19-11-9,68,depth_duration_stimuli/002763_2014-06-22_19-13-10_094959634447_rgbf000075-resize_4/002763_2014-06-22_19-13-10_094959634447_rgbf000075-resize_4-target.png,125,1.68375,10,15463,121,meters,jsons/VE125_randls_12_rotated.json,1716773,2002968,30,Man
68,746280,DepthScenes,duration_manipulation_targetAtFixation,jsons/VE125_randls_12_rotated.json,http://54.235.29.9/FacialAge/BNav_EC2/DepthDuration/v2_depth_duration_MTurk/v2_DepthDuration_HTML.html#226,226,1366,657,1366,768,8-29-2022,19-11-9,69,depth_duration_stimuli/002545_2014-06-24_13-38-53_094959634447_rgbf000080-resize_4/002545_2014-06-24_13-38-53_094959634447_rgbf000080-resize_4-target.png,125,1.9205,5,3502,125,meters,jsons/VE125_randls_12_rotated.json,1716773,2002968,30,Man
69,746280,DepthScenes,duration_manipulation_targetAtFixation,jsons/VE125_randls_12_rotated.json,http://54.235.29.9/FacialAge/BNav_EC2/DepthDuration/v2_depth_duration_MTurk/v2_DepthDuration_HTML.html#226,226,1366,657,1366,768,8-29-2022,19-11-9,70,depth_duration_stimuli/001092_2014-06-15_17-34-58_260595134347_rgbf000171-resize_3/001092_2014-06-15_17-34-58_260595134347_rgbf000171-resize_3-target.png,125,2.6935,10,18640,137,meters,jsons/VE125_randls_12_rotated.json,1716773,2002968,30,Man
70,746280,DepthScenes,duration_manipulation_targetAtFixation,jsons/VE125_randls_12_rotated.json,http://54.235.29.9/FacialAge/BNav_EC2/DepthDuration/v2_depth_duration_MTurk/v2_DepthDuration_HTML.html#226,226,1366,657,1366,768,8-29-2022,19-11-9,71,depth_duration_stimuli/002568_2014-06-24_13-59-21_094959634447_rgbf000062-resize_4/002568_2014-06-24_13-59-21_094959634447_rgbf000062-resize_4-target.png,125,3.015,10,12542,124,meters,jsons/VE125_randls_12_rotated.json,1716773,2002968,30,Man
71,746280,DepthScenes,duration_manipulation_targetAtFixation,jsons/VE125_randls_12_rotated.json,http://54.235.29.9/FacialAge/BNav_EC2/DepthDuration/v2_depth_duration_MTurk/v2_DepthDuration_HTML.html#226,226,1366,657,1366,768,8-29-2022,19-11-9,72,depth_duration_stimuli/003492_2014-05-21_15-50-55_094959634447_rgbf000828-resize_1/003492_2014-05-21_15-50-55_094959634447_rgbf000828-resize_1-target.png,125,4.06875,5,3809,124,meters,jsons/VE125_randls_12_rotated.json,1716773,2002968,30,Man
72,746280,DepthScenes,duration_manipulation_targetAtFixation,jsons/VE125_randls_12_rotated.json,http://54.235.29.9/FacialAge/BNav_EC2/DepthDuration/v2_depth_duration_MTurk/v2_DepthDuration_HTML.html#226,226,1366,657,1366,768,8-29-2022,19-11-9,73,depth_duration_stimuli/001450_2014-06-19_17-02-03_260595134347_rgbf000203-resize_4/001450_2014-06-19_17-02-03_260595134347_rgbf000203-resize_4-target.png,125,4.0106666666667,10,35523,115,meters,jsons/VE125_randls_12_rotated.json,1716773,2002968,30,Man
73,746280,DepthScenes,duration_manipulation_targetAtFixation,jsons/VE125_randls_12_rotated.json,http://54.235.29.9/FacialAge/BNav_EC2/DepthDuration/v2_depth_duration_MTurk/v2_DepthDuration_HTML.html#226,226,1366,657,1366,768,8-29-2022,19-11-9,74,depth_duration_stimuli/001449_2014-06-19_17-01-27_260595134347_rgbf000116-resize_2/001449_2014-06-19_17-01-27_260595134347_rgbf000116-resize_2-target.png,125,3.452,5,4046,115,meters,jsons/VE125_randls_12_rotated.json,1716773,2002968,30,Man
74,746280,DepthScenes,duration_manipulation_targetAtFixation,jsons/VE125_randls_12_rotated.json,http://54.235.29.9/FacialAge/BNav_EC2/DepthDuration/v2_depth_duration_MTurk/v2_DepthDuration_HTML.html#226,226,1366,657,1366,768,8-29-2022,19-11-9,75,depth_duration_stimuli/001100_2014-06-15_17-46-26_260595134347_rgbf000225-resize_2/001100_2014-06-15_17-46-26_260595134347_rgbf000225-resize_2-target.png,125,2.24,10,22125,124,meters,jsons/VE125_randls_12_rotated.json,1716773,2002968,30,Man
75,746280,DepthScenes,duration_manipulation_targetAtFixation,jsons/VE125_randls_12_rotated.json,http://54.235.29.9/FacialAge/BNav_EC2/DepthDuration/v2_depth_duration_MTurk/v2_DepthDuration_HTML.html#226,226,1366,657,1366,768,8-29-2022,19-11-9,76,depth_duration_stimuli/002784_2014-06-22_19-26-30_094959634447_rgbf000083-resize_3/002784_2014-06-22_19-26-30_094959634447_rgbf000083-resize_3-target.png,125,1.8046666666667,5,5375,126,meters,jsons/VE125_randls_12_rotated.json,1716773,2002968,30,Man
76,746280,DepthScenes,duration_manipulation_targetAtFixation,jsons/VE125_randls_12_rotated.json,http://54.235.29.9/FacialAge/BNav_EC2/DepthDuration/v2_depth_duration_MTurk/v2_DepthDuration_HTML.html#226,226,1366,657,1366,768,8-29-2022,19-11-9,77,depth_duration_stimuli/001052_2014-06-08_18-24-54_260595134347_rgbf000130-resize_1/001052_2014-06-08_18-24-54_260595134347_rgbf000130-resize_1-target.png,125,4.1045,10,32280,123,meters,jsons/VE125_randls_12_rotated.json,1716773,2002968,30,Man
77,746280,DepthScenes,duration_manipulation_targetAtFixation,jsons/VE125_randls_12_rotated.json,http://54.235.29.9/FacialAge/BNav_EC2/DepthDuration/v2_depth_duration_MTurk/v2_DepthDuration_HTML.html#226,226,1366,657,1366,768,8-29-2022,19-11-9,78,depth_duration_stimuli/002988_2014-06-15_12-24-20_094959634447_rgbf000150-resize_1/002988_2014-06-15_12-24-20_094959634447_rgbf000150-resize_1-target.png,125,4.7669999999999995,5,3769,124,meters,jsons/VE125_randls_12_rotated.json,1716773,2002968,30,Man
78,746280,DepthScenes,duration_manipulation_targetAtFixation,jsons/VE125_randls_12_rotated.json,http://54.235.29.9/FacialAge/BNav_EC2/DepthDuration/v2_depth_duration_MTurk/v2_DepthDuration_HTML.html#226,226,1366,657,1366,768,8-29-2022,19-11-9,79,depth_duration_stimuli/002639_2014-06-24_14-51-37_094959634447_rgbf000074-resize_4/002639_2014-06-24_14-51-37_094959634447_rgbf000074-resize_4-target.png,125,4.0375,10,49548,120,meters,jsons/VE125_randls_12_rotated.json,1716773,2002968,30,Man
79,746280,DepthScenes,duration_manipulation_targetAtFixation,jsons/VE125_randls_12_rotated.json,http://54.235.29.9/FacialAge/BNav_EC2/DepthDuration/v2_depth_duration_MTurk/v2_DepthDuration_HTML.html#226,226,1366,657,1366,768,8-29-2022,19-11-9,80,depth_duration_stimuli/003292_2014-05-14_21-53-49_094959634447_rgbf000100-resize_2/003292_2014-05-14_21-53-49_094959634447_rgbf000100-resize_2-target.png,125,3.4815,10,43342,124,meters,jsons/VE125_randls_12_rotated.json,1716773,2002968,30,Man
80,746280,DepthScenes,duration_manipulation_targetAtFixation,jsons/VE125_randls_12_rotated.json,http://54.235.29.9/FacialAge/BNav_EC2/DepthDuration/v2_depth_duration_MTurk/v2_DepthDuration_HTML.html#226,226,1366,657,1366,768,8-29-2022,19-11-9,81,depth_duration_stimuli/002199_2014-06-28_18-33-56_260595134347_rgbf000074-resize_0/002199_2014-06-28_18-33-56_260595134347_rgbf000074-resize_0-target.png,125,1.996,10,5856,124,meters,jsons/VE125_randls_12_rotated.json,1716773,2002968,30,Man
81,746280,DepthScenes,duration_manipulation_targetAtFixation,jsons/VE125_randls_12_rotated.json,http://54.235.29.9/FacialAge/BNav_EC2/DepthDuration/v2_depth_duration_MTurk/v2_DepthDuration_HTML.html#226,226,1366,657,1366,768,8-29-2022,19-11-9,82,depth_duration_stimuli/001056_2014-06-08_18-46-44_260595134347_rgbf000068-resize_0/001056_2014-06-08_18-46-44_260595134347_rgbf000068-resize_0-target.png,125,2.6625,5,3682,124,meters,jsons/VE125_randls_12_rotated.json,1716773,2002968,30,Man
82,746280,DepthScenes,duration_manipulation_targetAtFixation,jsons/VE125_randls_12_rotated.json,http://54.235.29.9/FacialAge/BNav_EC2/DepthDuration/v2_depth_duration_MTurk/v2_DepthDuration_HTML.html#226,226,1366,657,1366,768,8-29-2022,19-11-9,83,depth_duration_stimuli/000409_2014-06-04_19-23-33_260595134347_rgbf000067-resize_0/000409_2014-06-04_19-23-33_260595134347_rgbf000067-resize_0-target.png,125,3.7335,10,4169,125,meters,jsons/VE125_randls_12_rotated.json,1716773,2002968,30,Man
83,746280,DepthScenes,duration_manipulation_targetAtFixation,jsons/VE125_randls_12_rotated.json,http://54.235.29.9/FacialAge/BNav_EC2/DepthDuration/v2_depth_duration_MTurk/v2_DepthDuration_HTML.html#226,226,1366,657,1366,768,8-29-2022,19-11-9,84,depth_duration_stimuli/002663_2014-06-13_15-50-26_094959634447_rgbf000075-resize_1/002663_2014-06-13_15-50-26_094959634447_rgbf000075-resize_1-target.png,125,4.7495,10,4002,119,meters,jsons/VE125_randls_12_rotated.json,1716773,2002968,30,Man
84,746280,DepthScenes,duration_manipulation_targetAtFixation,jsons/VE125_randls_12_rotated.json,http://54.235.29.9/FacialAge/BNav_EC2/DepthDuration/v2_depth_duration_MTurk/v2_DepthDuration_HTML.html#226,226,1366,657,1366,768,8-29-2022,19-11-9,85,depth_duration_stimuli/000677_2014-06-08_23-10-32_260595134347_rgbf000158-resize_6/000677_2014-06-08_23-10-32_260595134347_rgbf000158-resize_6-target.png,125,3.556,10,4560,124,meters,jsons/VE125_randls_12_rotated.json,1716773,2002968,30,Man
85,746280,DepthScenes,duration_manipulation_targetAtFixation,jsons/VE125_randls_12_rotated.json,http://54.235.29.9/FacialAge/BNav_EC2/DepthDuration/v2_depth_duration_MTurk/v2_DepthDuration_HTML.html#226,226,1366,657,1366,768,8-29-2022,19-11-9,86,depth_duration_stimuli/001029_2014-06-08_13-17-57_260595134347_rgbf000065-resize_1/001029_2014-06-08_13-17-57_260595134347_rgbf000065-resize_1-target.png,125,3.0835,5,3856,125,meters,jsons/VE125_randls_12_rotated.json,1716773,2002968,30,Man
86,746280,DepthScenes,duration_manipulation_targetAtFixation,jsons/VE125_randls_12_rotated.json,http://54.235.29.9/FacialAge/BNav_EC2/DepthDuration/v2_depth_duration_MTurk/v2_DepthDuration_HTML.html#226,226,1366,657,1366,768,8-29-2022,19-11-9,87,depth_duration_stimuli/002344_2014-06-28_20-06-29_260595134347_rgbf000030-resize_1/002344_2014-06-28_20-06-29_260595134347_rgbf000030-resize_1-target.png,125,1.5795,10,76185,124,meters,jsons/VE125_randls_12_rotated.json,1716773,2002968,30,Man
87,746280,DepthScenes,duration_manipulation_targetAtFixation,jsons/VE125_randls_12_rotated.json,http://54.235.29.9/FacialAge/BNav_EC2/DepthDuration/v2_depth_duration_MTurk/v2_DepthDuration_HTML.html#226,226,1366,657,1366,768,8-29-2022,19-11-9,88,depth_duration_stimuli/002725_2014-06-22_11-47-51_094959634447_rgbf000070-resize_1/002725_2014-06-22_11-47-51_094959634447_rgbf000070-resize_1-target.png,125,2.195,5,5796,110,meters,jsons/VE125_randls_12_rotated.json,1716773,2002968,30,Man
88,746280,DepthScenes,duration_manipulation_targetAtFixation,jsons/VE125_randls_12_rotated.json,http://54.235.29.9/FacialAge/BNav_EC2/DepthDuration/v2_depth_duration_MTurk/v2_DepthDuration_HTML.html#226,226,1366,657,1366,768,8-29-2022,19-11-9,89,depth_duration_stimuli/003587_2014-05-23_16-48-02_094959634447_rgbf002384-resize_2/003587_2014-05-23_16-48-02_094959634447_rgbf002384-resize_2-target.png,125,1.357,5,9215,124,meters,jsons/VE125_randls_12_rotated.json,1716773,2002968,30,Man
89,746280,DepthScenes,duration_manipulation_targetAtFixation,jsons/VE125_randls_12_rotated.json,http://54.235.29.9/FacialAge/BNav_EC2/DepthDuration/v2_depth_duration_MTurk/v2_DepthDuration_HTML.html#226,226,1366,657,1366,768,8-29-2022,19-11-9,90,depth_duration_stimuli/001167_2014-06-17_15-38-07_260595134347_rgbf000108-resize_0/001167_2014-06-17_15-38-07_260595134347_rgbf000108-resize_0-target.png,125,1.8505,10,17742,124,meters,jsons/VE125_randls_12_rotated.json,1716773,2002968,30,Man
90,746280,DepthScenes,duration_manipulation_targetAtFixation,jsons/VE125_randls_12_rotated.json,http://54.235.29.9/FacialAge/BNav_EC2/DepthDuration/v2_depth_duration_MTurk/v2_DepthDuration_HTML.html#226,226,1366,657,1366,768,8-29-2022,19-11-9,91,depth_duration_stimuli/002750_2014-06-22_19-08-03_094959634447_rgbf000094-resize_4/002750_2014-06-22_19-08-03_094959634447_rgbf000094-resize_4-target.png,125,2.354,10,14995,119,meters,jsons/VE125_randls_12_rotated.json,1716773,2002968,30,Man
91,746280,DepthScenes,duration_manipulation_targetAtFixation,jsons/VE125_randls_12_rotated.json,http://54.235.29.9/FacialAge/BNav_EC2/DepthDuration/v2_depth_duration_MTurk/v2_DepthDuration_HTML.html#226,226,1366,657,1366,768,8-29-2022,19-11-9,92,depth_duration_stimuli/002549_2014-06-24_13-41-39_094959634447_rgbf000022-resize_3/002549_2014-06-24_13-41-39_094959634447_rgbf000022-resize_3-target.png,125,1.476,5,3569,124,meters,jsons/VE125_randls_12_rotated.json,1716773,2002968,30,Man
92,746280,DepthScenes,duration_manipulation_targetAtFixation,jsons/VE125_randls_12_rotated.json,http://54.235.29.9/FacialAge/BNav_EC2/DepthDuration/v2_depth_duration_MTurk/v2_DepthDuration_HTML.html#226,226,1366,657,1366,768,8-29-2022,19-11-9,93,depth_duration_stimuli/002678_2014-06-13_16-15-32_094959634447_rgbf000151-resize_6/002678_2014-06-13_16-15-32_094959634447_rgbf000151-resize_6-target.png,125,2.1830000000000003,10,3913,120,meters,jsons/VE125_randls_12_rotated.json,1716773,2002968,30,Man
93,746280,DepthScenes,duration_manipulation_targetAtFixation,jsons/VE125_randls_12_rotated.json,http://54.235.29.9/FacialAge/BNav_EC2/DepthDuration/v2_depth_duration_MTurk/v2_DepthDuration_HTML.html#226,226,1366,657,1366,768,8-29-2022,19-11-9,94,depth_duration_stimuli/000368_2014-06-09_15-53-01_260595134347_rgbf000155-resize_2/000368_2014-06-09_15-53-01_260595134347_rgbf000155-resize_2-target.png,125,2.4859999999999998,5,3531,124,meters,jsons/VE125_randls_12_rotated.json,1716773,2002968,30,Man
94,746280,DepthScenes,duration_manipulation_targetAtFixation,jsons/VE125_randls_12_rotated.json,http://54.235.29.9/FacialAge/BNav_EC2/DepthDuration/v2_depth_duration_MTurk/v2_DepthDuration_HTML.html#226,226,1366,657,1366,768,8-29-2022,19-11-9,95,depth_duration_stimuli/002875_2014-06-01_15-19-00_094959634447_rgbf000151-resize_1/002875_2014-06-01_15-19-00_094959634447_rgbf000151-resize_1-target.png,125,1.9675,10,3714,134,meters,jsons/VE125_randls_12_rotated.json,1716773,2002968,30,Man
95,746280,DepthScenes,duration_manipulation_targetAtFixation,jsons/VE125_randls_12_rotated.json,http://54.235.29.9/FacialAge/BNav_EC2/DepthDuration/v2_depth_duration_MTurk/v2_DepthDuration_HTML.html#226,226,1366,657,1366,768,8-29-2022,19-11-9,96,depth_duration_stimuli/001011_2014-06-08_23-18-54_260595134347_rgbf000044-resize_4/001011_2014-06-08_23-18-54_260595134347_rgbf000044-resize_4-target.png,125,2.4730000000000003,5,3905,124,meters,jsons/VE125_randls_12_rotated.json,1716773,2002968,30,Man
96,746280,DepthScenes,duration_manipulation_targetAtFixation,jsons/VE125_randls_12_rotated.json,http://54.235.29.9/FacialAge/BNav_EC2/DepthDuration/v2_depth_duration_MTurk/v2_DepthDuration_HTML.html#226,226,1366,657,1366,768,8-29-2022,19-11-9,97,depth_duration_stimuli/001392_2014-06-19_16-07-59_260595134347_rgbf000046-resize_1/001392_2014-06-19_16-07-59_260595134347_rgbf000046-resize_1-target.png,125,4.135,10,4287,124,meters,jsons/VE125_randls_12_rotated.json,1716773,2002968,30,Man
97,746280,DepthScenes,duration_manipulation_targetAtFixation,jsons/VE125_randls_12_rotated.json,http://54.235.29.9/FacialAge/BNav_EC2/DepthDuration/v2_depth_duration_MTurk/v2_DepthDuration_HTML.html#226,226,1366,657,1366,768,8-29-2022,19-11-9,98,depth_duration_stimuli/001570_2014-06-20_17-21-09_260595134347_rgbf000135-resize_4/001570_2014-06-20_17-21-09_260595134347_rgbf000135-resize_4-target.png,125,4.467,5,5687,124,meters,jsons/VE125_randls_12_rotated.json,1716773,2002968,30,Man
98,746280,DepthScenes,duration_manipulation_targetAtFixation,jsons/VE125_randls_12_rotated.json,http://54.235.29.9/FacialAge/BNav_EC2/DepthDuration/v2_depth_duration_MTurk/v2_DepthDuration_HTML.html#226,226,1366,657,1366,768,8-29-2022,19-11-9,99,depth_duration_stimuli/001222_2014-06-17_16-24-06_260595134347_rgbf000073-resize_0/001222_2014-06-17_16-24-06_260595134347_rgbf000073-resize-original.jpg,125,1.4385,10,10402,124,meters,jsons/VE125_randls_12_rotated.json,1716773,2002968,30,Man
99,746280,DepthScenes,duration_manipulation_targetAtFixation,jsons/VE125_randls_12_rotated.json,http://54.235.29.9/FacialAge/BNav_EC2/DepthDuration/v2_depth_duration_MTurk/v2_DepthDuration_HTML.html#226,226,1366,657,1366,768,8-29-2022,19-11-9,100,depth_duration_stimuli/002805_2014-06-22_19-54-03_094959634447_rgbf000079-resize_1/002805_2014-06-22_19-54-03_094959634447_rgbf000079-resize_1-target.png,125,3.1439999999999997,5,3841,128,meters,jsons/VE125_randls_12_rotated.json,1716773,2002968,30,Man
100,746280,DepthScenes,duration_manipulation_targetAtFixation,jsons/VE125_randls_12_rotated.json,http://54.235.29.9/FacialAge/BNav_EC2/DepthDuration/v2_depth_duration_MTurk/v2_DepthDuration_HTML.html#226,226,1366,657,1366,768,8-29-2022,19-11-9,101,depth_duration_stimuli/000906_2014-06-08_13-35-43_260595134347_rgbf000155-resize_1/000906_2014-06-08_13-35-43_260595134347_rgbf000155-resize_1-target.png,125,2.8489999999999998,10,15037,126,meters,jsons/VE125_randls_12_rotated.json,1716773,2002968,30,Man
101,746280,DepthScenes,duration_manipulation_targetAtFixation,jsons/VE125_randls_12_rotated.json,http://54.235.29.9/FacialAge/BNav_EC2/DepthDuration/v2_depth_duration_MTurk/v2_DepthDuration_HTML.html#226,226,1366,657,1366,768,8-29-2022,19-11-9,102,depth_duration_stimuli/000742_2014-06-08_18-48-09_260595134347_rgbf000164-resize_4/000742_2014-06-08_18-48-09_260595134347_rgbf000164-resize_4-target.png,125,4.632,10,11368,119,meters,jsons/VE125_randls_12_rotated.json,1716773,2002968,30,Man
102,746280,DepthScenes,duration_manipulation_targetAtFixation,jsons/VE125_randls_12_rotated.json,http://54.235.29.9/FacialAge/BNav_EC2/DepthDuration/v2_depth_duration_MTurk/v2_DepthDuration_HTML.html#226,226,1366,657,1366,768,8-29-2022,19-11-9,103,depth_duration_stimuli/001066_2014-06-08_22-03-20_260595134347_rgbf000066-resize_4/001066_2014-06-08_22-03-20_260595134347_rgbf000066-resize_4-target.png,125,4.2330000000000005,10,19198,124,meters,jsons/VE125_randls_12_rotated.json,1716773,2002968,30,Man
103,746280,DepthScenes,duration_manipulation_targetAtFixation,jsons/VE125_randls_12_rotated.json,http://54.235.29.9/FacialAge/BNav_EC2/DepthDuration/v2_depth_duration_MTurk/v2_DepthDuration_HTML.html#226,226,1366,657,1366,768,8-29-2022,19-11-9,104,depth_duration_stimuli/003081_2014-06-15_15-19-16_094959634447_rgbf000150-resize_1/003081_2014-06-15_15-19-16_094959634447_rgbf000150-resize_1-target.png,125,3.9125,5,3664,124,meters,jsons/VE125_randls_12_rotated.json,1716773,2002968,30,Man
104,746280,DepthScenes,duration_manipulation_targetAtFixation,jsons/VE125_randls_12_rotated.json,http://54.235.29.9/FacialAge/BNav_EC2/DepthDuration/v2_depth_duration_MTurk/v2_DepthDuration_HTML.html#226,226,1366,657,1366,768,8-29-2022,19-11-9,105,depth_duration_stimuli/001417_2014-06-19_16-25-36_260595134347_rgbf000115-resize_5/001417_2014-06-19_16-25-36_260595134347_rgbf000115-resize_5-target.png,125,4.6255,10,49719,124,meters,jsons/VE125_randls_12_rotated.json,1716773,2002968,30,Man
105,746280,DepthScenes,duration_manipulation_targetAtFixation,jsons/VE125_randls_12_rotated.json,http://54.235.29.9/FacialAge/BNav_EC2/DepthDuration/v2_depth_duration_MTurk/v2_DepthDuration_HTML.html#226,226,1366,657,1366,768,8-29-2022,19-11-9,106,depth_duration_stimuli/002637_2014-06-24_14-51-13_094959634447_rgbf000066-resize_4/002637_2014-06-24_14-51-13_094959634447_rgbf000066-resize_4-target.png,125,1.9955,5,3521,120,meters,jsons/VE125_randls_12_rotated.json,1716773,2002968,30,Man
106,746280,DepthScenes,duration_manipulation_targetAtFixation,jsons/VE125_randls_12_rotated.json,http://54.235.29.9/FacialAge/BNav_EC2/DepthDuration/v2_depth_duration_MTurk/v2_DepthDuration_HTML.html#226,226,1366,657,1366,768,8-29-2022,19-11-9,107,depth_duration_stimuli/003534_2014-05-22_15-06-10_094959634447_rgbf000102-resize_4/003534_2014-05-22_15-06-10_094959634447_rgbf000102-resize_4-target.png,125,1.426,10,7610,125,meters,jsons/VE125_randls_12_rotated.json,1716773,2002968,30,Man
107,746280,DepthScenes,duration_manipulation_targetAtFixation,jsons/VE125_randls_12_rotated.json,http://54.235.29.9/FacialAge/BNav_EC2/DepthDuration/v2_depth_duration_MTurk/v2_DepthDuration_HTML.html#226,226,1366,657,1366,768,8-29-2022,19-11-9,108,depth_duration_stimuli/001617_2014-06-20_11-35-32_260595134347_rgbf000066-resize_1/001617_2014-06-20_11-35-32_260595134347_rgbf000066-resize_1-target.png,125,3.7910000000000004,5,3321,126,meters,jsons/VE125_randls_12_rotated.json,1716773,2002968,30,Man
108,746280,DepthScenes,duration_manipulation_targetAtFixation,jsons/VE125_randls_12_rotated.json,http://54.235.29.9/FacialAge/BNav_EC2/DepthDuration/v2_depth_duration_MTurk/v2_DepthDuration_HTML.html#226,226,1366,657,1366,768,8-29-2022,19-11-9,109,depth_duration_stimuli/001806_2014-06-26_20-50-20_260595134347_rgbf000091-resize_1/001806_2014-06-26_20-50-20_260595134347_rgbf000091-resize_1-target.png,125,2.7305,10,4491,120,meters,jsons/VE125_randls_12_rotated.json,1716773,2002968,30,Man
109,746280,DepthScenes,duration_manipulation_targetAtFixation,jsons/VE125_randls_12_rotated.json,http://54.235.29.9/FacialAge/BNav_EC2/DepthDuration/v2_depth_duration_MTurk/v2_DepthDuration_HTML.html#226,226,1366,657,1366,768,8-29-2022,19-11-9,110,depth_duration_stimuli/002444_2014-06-28_20-32-08_260595134347_rgbf000027-resize_0/002444_2014-06-28_20-32-08_260595134347_rgbf000027-resize_0-target.png,125,4.388999999999999,5,3904,125,meters,jsons/VE125_randls_12_rotated.json,1716773,2002968,30,Man
110,746280,DepthScenes,duration_manipulation_targetAtFixation,jsons/VE125_randls_12_rotated.json,http://54.235.29.9/FacialAge/BNav_EC2/DepthDuration/v2_depth_duration_MTurk/v2_DepthDuration_HTML.html#226,226,1366,657,1366,768,8-29-2022,19-11-9,111,depth_duration_stimuli/000436_2014-06-09_22-25-11_260595134347_rgbf000137-resize_1/000436_2014-06-09_22-25-11_260595134347_rgbf000137-resize_1-target.png,125,4.0705,10,6978,129,meters,jsons/VE125_randls_12_rotated.json,1716773,2002968,30,Man
111,746280,DepthScenes,duration_manipulation_targetAtFixation,jsons/VE125_randls_12_rotated.json,http://54.235.29.9/FacialAge/BNav_EC2/DepthDuration/v2_depth_duration_MTurk/v2_DepthDuration_HTML.html#226,226,1366,657,1366,768,8-29-2022,19-11-9,112,depth_duration_stimuli/002136_2014-06-25_21-18-03_260595134347_rgbf000109-resize_3/002136_2014-06-25_21-18-03_260595134347_rgbf000109-resize_3-target.png,125,1.9569999999999999,10,17100,119,meters,jsons/VE125_randls_12_rotated.json,1716773,2002968,30,Man
112,746280,DepthScenes,duration_manipulation_targetAtFixation,jsons/VE125_randls_12_rotated.json,http://54.235.29.9/FacialAge/BNav_EC2/DepthDuration/v2_depth_duration_MTurk/v2_DepthDuration_HTML.html#226,226,1366,657,1366,768,8-29-2022,19-11-9,113,depth_duration_stimuli/002964_2014-06-08_17-46-11_094959634447_rgbf000091-resize_4/002964_2014-06-08_17-46-11_094959634447_rgbf000091-resize_4-target.png,125,1.6909999999999998,10,5935,115,meters,jsons/VE125_randls_12_rotated.json,1716773,2002968,30,Man
113,746280,DepthScenes,duration_manipulation_targetAtFixation,jsons/VE125_randls_12_rotated.json,http://54.235.29.9/FacialAge/BNav_EC2/DepthDuration/v2_depth_duration_MTurk/v2_DepthDuration_HTML.html#226,226,1366,657,1366,768,8-29-2022,19-11-9,114,depth_duration_stimuli/000866_2014-06-09_20-45-42_260595134347_rgbf000139-resize_1/000866_2014-06-09_20-45-42_260595134347_rgbf000139-resize_1-target.png,125,3.2155,10,9692,126,meters,jsons/VE125_randls_12_rotated.json,1716773,2002968,30,Man
114,746280,DepthScenes,duration_manipulation_targetAtFixation,jsons/VE125_randls_12_rotated.json,http://54.235.29.9/FacialAge/BNav_EC2/DepthDuration/v2_depth_duration_MTurk/v2_DepthDuration_HTML.html#226,226,1366,657,1366,768,8-29-2022,19-11-9,115,depth_duration_stimuli/002989_2014-06-15_12-25-03_094959634447_rgbf000150-resize_3/002989_2014-06-15_12-25-03_094959634447_rgbf000150-resize_3-target.png,125,4.1975,5,3872,124,meters,jsons/VE125_randls_12_rotated.json,1716773,2002968,30,Man
115,746280,DepthScenes,duration_manipulation_targetAtFixation,jsons/VE125_randls_12_rotated.json,http://54.235.29.9/FacialAge/BNav_EC2/DepthDuration/v2_depth_duration_MTurk/v2_DepthDuration_HTML.html#226,226,1366,657,1366,768,8-29-2022,19-11-9,116,depth_duration_stimuli/003129_2014-05-12_10-48-10_094959634447_rgbf000100-resize_0/003129_2014-05-12_10-48-10_094959634447_rgbf000100-resize_0-target.png,125,4.9305,10,19552,124,meters,jsons/VE125_randls_12_rotated.json,1716773,2002968,30,Man
116,746280,DepthScenes,duration_manipulation_targetAtFixation,jsons/VE125_randls_12_rotated.json,http://54.235.29.9/FacialAge/BNav_EC2/DepthDuration/v2_depth_duration_MTurk/v2_DepthDuration_HTML.html#226,226,1366,657,1366,768,8-29-2022,19-11-9,117,depth_duration_stimuli/000414_2014-06-04_19-49-13_260595134347_rgbf000044-resize_0/000414_2014-06-04_19-49-13_260595134347_rgbf000044-resize_0-target.png,125,4.329,5,3278,124,meters,jsons/VE125_randls_12_rotated.json,1716773,2002968,30,Man
117,746280,DepthScenes,duration_manipulation_targetAtFixation,jsons/VE125_randls_12_rotated.json,http://54.235.29.9/FacialAge/BNav_EC2/DepthDuration/v2_depth_duration_MTurk/v2_DepthDuration_HTML.html#226,226,1366,657,1366,768,8-29-2022,19-11-9,118,depth_duration_stimuli/000109_2014-05-14_23-41-52_260595134347_rgbf000035-resize_9/000109_2014-05-14_23-41-52_260595134347_rgbf000035-resize_9-target.png,125,1.3545,10,3936,126,meters,jsons/VE125_randls_12_rotated.json,1716773,2002968,30,Man
118,746280,DepthScenes,duration_manipulation_targetAtFixation,jsons/VE125_randls_12_rotated.json,http://54.235.29.9/FacialAge/BNav_EC2/DepthDuration/v2_depth_duration_MTurk/v2_DepthDuration_HTML.html#226,226,1366,657,1366,768,8-29-2022,19-11-9,119,depth_duration_stimuli/000470_2014-06-09_19-42-40_260595134347_rgbf000094-resize_1/000470_2014-06-09_19-42-40_260595134347_rgbf000094-resize_1-target.png,125,1.831,5,3655,122,meters,jsons/VE125_randls_12_rotated.json,1716773,2002968,30,Man
119,746280,DepthScenes,duration_manipulation_targetAtFixation,jsons/VE125_randls_12_rotated.json,http://54.235.29.9/FacialAge/BNav_EC2/DepthDuration/v2_depth_duration_MTurk/v2_DepthDuration_HTML.html#226,226,1366,657,1366,768,8-29-2022,19-11-9,120,depth_duration_stimuli/000787_2014-06-08_22-33-53_260595134347_rgbf000175-resize_1/000787_2014-06-08_22-33-53_260595134347_rgbf000175-resize-original.jpg,125,4.784,10,4758,119,meters,jsons/VE125_randls_12_rotated.json,1716773,2002968,30,Man
120,746280,DepthScenes,duration_manipulation_targetAtFixation,jsons/VE125_randls_12_rotated.json,http://54.235.29.9/FacialAge/BNav_EC2/DepthDuration/v2_depth_duration_MTurk/v2_DepthDuration_HTML.html#226,226,1366,657,1366,768,8-29-2022,19-11-9,121,depth_duration_stimuli/000854_2014-06-09_19-43-13_260595134347_rgbf000066-resize_0/000854_2014-06-09_19-43-13_260595134347_rgbf000066-resize_0-target.png,125,3.068,10,40521,119,meters,jsons/VE125_randls_12_rotated.json,1716773,2002968,30,Man
121,746280,DepthScenes,duration_manipulation_targetAtFixation,jsons/VE125_randls_12_rotated.json,http://54.235.29.9/FacialAge/BNav_EC2/DepthDuration/v2_depth_duration_MTurk/v2_DepthDuration_HTML.html#226,226,1366,657,1366,768,8-29-2022,19-11-9,122,depth_duration_stimuli/000758_2014-06-08_22-05-08_260595134347_rgbf000085-resize_0/000758_2014-06-08_22-05-08_260595134347_rgbf000085-resize_0-target.png,125,3.3810000000000002,10,22069,123,meters,jsons/VE125_randls_12_rotated.json,1716773,2002968,30,Man
122,746280,DepthScenes,duration_manipulation_targetAtFixation,jsons/VE125_randls_12_rotated.json,http://54.235.29.9/FacialAge/BNav_EC2/DepthDuration/v2_depth_duration_MTurk/v2_DepthDuration_HTML.html#226,226,1366,657,1366,768,8-29-2022,19-11-9,123,depth_duration_stimuli/002660_2014-06-13_15-44-18_094959634447_rgbf001878-resize_2/002660_2014-06-13_15-44-18_094959634447_rgbf001878-resize_2-target.png,125,3.576,5,8104,115,meters,jsons/VE125_randls_12_rotated.json,1716773,2002968,30,Man
123,746280,DepthScenes,duration_manipulation_targetAtFixation,jsons/VE125_randls_12_rotated.json,http://54.235.29.9/FacialAge/BNav_EC2/DepthDuration/v2_depth_duration_MTurk/v2_DepthDuration_HTML.html#226,226,1366,657,1366,768,8-29-2022,19-11-9,124,depth_duration_stimuli/002153_2014-06-25_21-27-18_260595134347_rgbf000038-resize_5/002153_2014-06-25_21-27-18_260595134347_rgbf000038-resize_5-target.png,125,2.505,10,5272,125,meters,jsons/VE125_randls_12_rotated.json,1716773,2002968,30,Man
124,746280,DepthScenes,duration_manipulation_targetAtFixation,jsons/VE125_randls_12_rotated.json,http://54.235.29.9/FacialAge/BNav_EC2/DepthDuration/v2_depth_duration_MTurk/v2_DepthDuration_HTML.html#226,226,1366,657,1366,768,8-29-2022,19-11-9,125,depth_duration_stimuli/000709_2014-06-08_13-51-55_260595134347_rgbf000068-resize_3/000709_2014-06-08_13-51-55_260595134347_rgbf000068-resize_3-target.png,125,1.8030000000000002,5,3312,125,meters,jsons/VE125_randls_12_rotated.json,1716773,2002968,30,Man
125,746280,DepthScenes,duration_manipulation_targetAtFixation,jsons/VE125_randls_12_rotated.json,http://54.235.29.9/FacialAge/BNav_EC2/DepthDuration/v2_depth_duration_MTurk/v2_DepthDuration_HTML.html#226,226,1366,657,1366,768,8-29-2022,19-11-9,126,depth_duration_stimuli/002057_2014-06-24_21-00-13_260595134347_rgbf000120-resize_1/002057_2014-06-24_21-00-13_260595134347_rgbf000120-resize_1-target.png,125,2.967,10,4371,120,meters,jsons/VE125_randls_12_rotated.json,1716773,2002968,30,Man
126,746280,DepthScenes,duration_manipulation_targetAtFixation,jsons/VE125_randls_12_rotated.json,http://54.235.29.9/FacialAge/BNav_EC2/DepthDuration/v2_depth_duration_MTurk/v2_DepthDuration_HTML.html#226,226,1366,657,1366,768,8-29-2022,19-11-9,127,depth_duration_stimuli/000191_2014-05-12_17-07-38_260595134347_rgbf000199-resize_0/000191_2014-05-12_17-07-38_260595134347_rgbf000199-resize_0-target.png,125,3.7995,10,20214,115,meters,jsons/VE125_randls_12_rotated.json,1716773,2002968,30,Man
127,746280,DepthScenes,duration_manipulation_targetAtFixation,jsons/VE125_randls_12_rotated.json,http://54.235.29.9/FacialAge/BNav_EC2/DepthDuration/v2_depth_duration_MTurk/v2_DepthDuration_HTML.html#226,226,1366,657,1366,768,8-29-2022,19-11-9,128,depth_duration_stimuli/000493_2014-06-09_21-01-18_260595134347_rgbf000196-resize_3/000493_2014-06-09_21-01-18_260595134347_rgbf000196-resize_3-target.png,125,3.44,10,65241,124,meters,jsons/VE125_randls_12_rotated.json,1716773,2002968,30,Man
128,746280,DepthScenes,duration_manipulation_targetAtFixation,jsons/VE125_randls_12_rotated.json,http://54.235.29.9/FacialAge/BNav_EC2/DepthDuration/v2_depth_duration_MTurk/v2_DepthDuration_HTML.html#226,226,1366,657,1366,768,8-29-2022,19-11-9,129,depth_duration_stimuli/002340_2014-06-28_20-05-46_260595134347_rgbf000113-resize_0/002340_2014-06-28_20-05-46_260595134347_rgbf000113-resize_0-target.png,125,2.4735,5,3575,124,meters,jsons/VE125_randls_12_rotated.json,1716773,2002968,30,Man
129,746280,DepthScenes,duration_manipulation_targetAtFixation,jsons/VE125_randls_12_rotated.json,http://54.235.29.9/FacialAge/BNav_EC2/DepthDuration/v2_depth_duration_MTurk/v2_DepthDuration_HTML.html#226,226,1366,657,1366,768,8-29-2022,19-11-9,130,depth_duration_stimuli/001016_2014-06-09_16-16-10_260595134347_rgbf000112-resize_5/001016_2014-06-09_16-16-10_260595134347_rgbf000112-resize_5-target.png,125,1.6565,10,3741,126,meters,jsons/VE125_randls_12_rotated.json,1716773,2002968,30,Man
130,746280,DepthScenes,duration_manipulation_targetAtFixation,jsons/VE125_randls_12_rotated.json,http://54.235.29.9/FacialAge/BNav_EC2/DepthDuration/v2_depth_duration_MTurk/v2_DepthDuration_HTML.html#226,226,1366,657,1366,768,8-29-2022,19-11-9,131,depth_duration_stimuli/000691_2014-06-08_13-08-50_260595134347_rgbf000132-resize_3/000691_2014-06-08_13-08-50_260595134347_rgbf000132-resize_3-target.png,125,4.1530000000000005,5,3631,126,meters,jsons/VE125_randls_12_rotated.json,1716773,2002968,30,Man
131,746280,DepthScenes,duration_manipulation_targetAtFixation,jsons/VE125_randls_12_rotated.json,http://54.235.29.9/FacialAge/BNav_EC2/DepthDuration/v2_depth_duration_MTurk/v2_DepthDuration_HTML.html#226,226,1366,657,1366,768,8-29-2022,19-11-9,132,depth_duration_stimuli/002213_2014-06-28_18-37-58_260595134347_rgbf000055-resize_1/002213_2014-06-28_18-37-58_260595134347_rgbf000055-resize_1-target.png,125,3.62,10,7077,119,meters,jsons/VE125_randls_12_rotated.json,1716773,2002968,30,Man
132,746280,DepthScenes,duration_manipulation_targetAtFixation,jsons/VE125_randls_12_rotated.json,http://54.235.29.9/FacialAge/BNav_EC2/DepthDuration/v2_depth_duration_MTurk/v2_DepthDuration_HTML.html#226,226,1366,657,1366,768,8-29-2022,19-11-9,133,depth_duration_stimuli/000103_2014-05-14_22-01-17_260595134347_rgbf000152-resize_5/000103_2014-05-14_22-01-17_260595134347_rgbf000152-resize_5-target.png,125,1.993,5,6003,120,meters,jsons/VE125_randls_12_rotated.json,1716773,2002968,30,Man
133,746280,DepthScenes,duration_manipulation_targetAtFixation,jsons/VE125_randls_12_rotated.json,http://54.235.29.9/FacialAge/BNav_EC2/DepthDuration/v2_depth_duration_MTurk/v2_DepthDuration_HTML.html#226,226,1366,657,1366,768,8-29-2022,19-11-9,134,depth_duration_stimuli/001555_2014-06-20_17-12-10_260595134347_rgbf000065-resize_4/001555_2014-06-20_17-12-10_260595134347_rgbf000065-resize_4-target.png,125,1.633,10,9878,120,meters,jsons/VE125_randls_12_rotated.json,1716773,2002968,30,Man
134,746280,DepthScenes,duration_manipulation_targetAtFixation,jsons/VE125_randls_12_rotated.json,http://54.235.29.9/FacialAge/BNav_EC2/DepthDuration/v2_depth_duration_MTurk/v2_DepthDuration_HTML.html#226,226,1366,657,1366,768,8-29-2022,19-11-9,135,depth_duration_stimuli/000375_2014-06-08_11-17-29_260595134347_rgbf000133-resize_2/000375_2014-06-08_11-17-29_260595134347_rgbf000133-resize-original.jpg,125,4.718,5,3618,129,meters,jsons/VE125_randls_12_rotated.json,1716773,2002968,30,Man
135,746280,DepthScenes,duration_manipulation_targetAtFixation,jsons/VE125_randls_12_rotated.json,http://54.235.29.9/FacialAge/BNav_EC2/DepthDuration/v2_depth_duration_MTurk/v2_DepthDuration_HTML.html#226,226,1366,657,1366,768,8-29-2022,19-11-9,136,depth_duration_stimuli/002103_2014-06-25_20-00-40_260595134347_rgbf000049-resize_0/002103_2014-06-25_20-00-40_260595134347_rgbf000049-resize_0-target.png,125,4.105,10,5910,131,meters,jsons/VE125_randls_12_rotated.json,1716773,2002968,30,Man
136,746280,DepthScenes,duration_manipulation_targetAtFixation,jsons/VE125_randls_12_rotated.json,http://54.235.29.9/FacialAge/BNav_EC2/DepthDuration/v2_depth_duration_MTurk/v2_DepthDuration_HTML.html#226,226,1366,657,1366,768,8-29-2022,19-11-9,137,depth_duration_stimuli/002039_2014-06-24_20-22-38_260595134347_rgbf000084-resize_1/002039_2014-06-24_20-22-38_260595134347_rgbf000084-resize_1-target.png,125,4.408,10,7315,127,meters,jsons/VE125_randls_12_rotated.json,1716773,2002968,30,Man
137,746280,DepthScenes,duration_manipulation_targetAtFixation,jsons/VE125_randls_12_rotated.json,http://54.235.29.9/FacialAge/BNav_EC2/DepthDuration/v2_depth_duration_MTurk/v2_DepthDuration_HTML.html#226,226,1366,657,1366,768,8-29-2022,19-11-9,138,depth_duration_stimuli/003079_2014-06-15_15-18-20_094959634447_rgbf000152-resize_8/003079_2014-06-15_15-18-20_094959634447_rgbf000152-resize_8-target.png,125,2.8775,5,8214,116,meters,jsons/VE125_randls_12_rotated.json,1716773,2002968,30,Man
138,746280,DepthScenes,duration_manipulation_targetAtFixation,jsons/VE125_randls_12_rotated.json,http://54.235.29.9/FacialAge/BNav_EC2/DepthDuration/v2_depth_duration_MTurk/v2_DepthDuration_HTML.html#226,226,1366,657,1366,768,8-29-2022,19-11-9,139,depth_duration_stimuli/000506_2014-06-08_23-21-00_260595134347_rgbf000070-resize_7/000506_2014-06-08_23-21-00_260595134347_rgbf000070-resize_7-target.png,125,4.0585,10,4929,128,meters,jsons/VE125_randls_12_rotated.json,1716773,2002968,30,Man
139,746280,DepthScenes,duration_manipulation_targetAtFixation,jsons/VE125_randls_12_rotated.json,http://54.235.29.9/FacialAge/BNav_EC2/DepthDuration/v2_depth_duration_MTurk/v2_DepthDuration_HTML.html#226,226,1366,657,1366,768,8-29-2022,19-11-9,140,depth_duration_stimuli/001214_2014-06-17_16-13-55_260595134347_rgbf000111-resize_0/001214_2014-06-17_16-13-55_260595134347_rgbf000111-resize_0-target.png,125,2.6505,5,6345,116,meters,jsons/VE125_randls_12_rotated.json,1716773,2002968,30,Man
140,746280,DepthScenes,duration_manipulation_targetAtFixation,jsons/VE125_randls_12_rotated.json,http://54.235.29.9/FacialAge/BNav_EC2/DepthDuration/v2_depth_duration_MTurk/v2_DepthDuration_HTML.html#226,226,1366,657,1366,768,8-29-2022,19-11-9,141,depth_duration_stimuli/000810_2014-06-08_17-20-01_260595134347_rgbf000105-resize_0/000810_2014-06-08_17-20-01_260595134347_rgbf000105-resize_0-target.png,125,1.4865,10,5351,115,meters,jsons/VE125_randls_12_rotated.json,1716773,2002968,30,Man
141,746280,DepthScenes,duration_manipulation_targetAtFixation,jsons/VE125_randls_12_rotated.json,http://54.235.29.9/FacialAge/BNav_EC2/DepthDuration/v2_depth_duration_MTurk/v2_DepthDuration_HTML.html#226,226,1366,657,1366,768,8-29-2022,19-11-9,142,depth_duration_stimuli/000635_2014-06-08_16-38-42_260595134347_rgbf000106-resize_1/000635_2014-06-08_16-38-42_260595134347_rgbf000106-resize_1-target.png,125,2.074,5,3544,125,meters,jsons/VE125_randls_12_rotated.json,1716773,2002968,30,Man
142,746280,DepthScenes,duration_manipulation_targetAtFixation,jsons/VE125_randls_12_rotated.json,http://54.235.29.9/FacialAge/BNav_EC2/DepthDuration/v2_depth_duration_MTurk/v2_DepthDuration_HTML.html#226,226,1366,657,1366,768,8-29-2022,19-11-9,143,depth_duration_stimuli/002279_2014-06-28_18-55-32_260595134347_rgbf000040-resize_5/002279_2014-06-28_18-55-32_260595134347_rgbf000040-resize_5-target.png,125,1.5043333333333,10,67360,124,meters,jsons/VE125_randls_12_rotated.json,1716773,2002968,30,Man
143,746280,DepthScenes,duration_manipulation_targetAtFixation,jsons/VE125_randls_12_rotated.json,http://54.235.29.9/FacialAge/BNav_EC2/DepthDuration/v2_depth_duration_MTurk/v2_DepthDuration_HTML.html#226,226,1366,657,1366,768,8-29-2022,19-11-9,144,depth_duration_stimuli/001094_2014-06-15_17-36-00_260595134347_rgbf000205-resize_0/001094_2014-06-15_17-36-00_260595134347_rgbf000205-resize_0-target.png,125,4.2175,5,4025,124,meters,jsons/VE125_randls_12_rotated.json,1716773,2002968,30,Man
144,746280,DepthScenes,duration_manipulation_targetAtFixation,jsons/VE125_randls_12_rotated.json,http://54.235.29.9/FacialAge/BNav_EC2/DepthDuration/v2_depth_duration_MTurk/v2_DepthDuration_HTML.html#226,226,1366,657,1366,768,8-29-2022,19-11-9,145,depth_duration_stimuli/000692_2014-06-08_13-09-42_260595134347_rgbf000199-resize_2/000692_2014-06-08_13-09-42_260595134347_rgbf000199-resize_2-target.png,125,3.661,10,4337,124,meters,jsons/VE125_randls_12_rotated.json,1716773,2002968,30,Man
145,746280,DepthScenes,duration_manipulation_targetAtFixation,jsons/VE125_randls_12_rotated.json,http://54.235.29.9/FacialAge/BNav_EC2/DepthDuration/v2_depth_duration_MTurk/v2_DepthDuration_HTML.html#226,226,1366,657,1366,768,8-29-2022,19-11-9,146,depth_duration_stimuli/003495_2014-05-21_16-01-51_094959634447_rgbf000100-resize_3/003495_2014-05-21_16-01-51_094959634447_rgbf000100-resize_3-target.png,125,1.6255,10,5481,125,meters,jsons/VE125_randls_12_rotated.json,1716773,2002968,30,Man
146,746280,DepthScenes,duration_manipulation_targetAtFixation,jsons/VE125_randls_12_rotated.json,http://54.235.29.9/FacialAge/BNav_EC2/DepthDuration/v2_depth_duration_MTurk/v2_DepthDuration_HTML.html#226,226,1366,657,1366,768,8-29-2022,19-11-9,147,depth_duration_stimuli/001244_2014-06-17_16-47-45_260595134347_rgbf000030-resize_4/001244_2014-06-17_16-47-45_260595134347_rgbf000030-resize_4-target.png,125,2.0425,5,3564,131,meters,jsons/VE125_randls_12_rotated.json,1716773,2002968,30,Man
147,746280,DepthScenes,duration_manipulation_targetAtFixation,jsons/VE125_randls_12_rotated.json,http://54.235.29.9/FacialAge/BNav_EC2/DepthDuration/v2_depth_duration_MTurk/v2_DepthDuration_HTML.html#226,226,1366,657,1366,768,8-29-2022,19-11-9,148,depth_duration_stimuli/003083_2014-06-15_15-21-03_094959634447_rgbf000063-resize_1/003083_2014-06-15_15-21-03_094959634447_rgbf000063-resize_1-target.png,125,4.1405,10,3647,124,meters,jsons/VE125_randls_12_rotated.json,1716773,2002968,30,Man
148,746280,DepthScenes,duration_manipulation_targetAtFixation,jsons/VE125_randls_12_rotated.json,http://54.235.29.9/FacialAge/BNav_EC2/DepthDuration/v2_depth_duration_MTurk/v2_DepthDuration_HTML.html#226,226,1366,657,1366,768,8-29-2022,19-11-9,149,depth_duration_stimuli/000486_2014-06-09_20-47-20_260595134347_rgbf000143-resize_2/000486_2014-06-09_20-47-20_260595134347_rgbf000143-resize_2-target.png,125,4.8325,5,3230,125,meters,jsons/VE125_randls_12_rotated.json,1716773,2002968,30,Man
149,746280,DepthScenes,duration_manipulation_targetAtFixation,jsons/VE125_randls_12_rotated.json,http://54.235.29.9/FacialAge/BNav_EC2/DepthDuration/v2_depth_duration_MTurk/v2_DepthDuration_HTML.html#226,226,1366,657,1366,768,8-29-2022,19-11-9,150,depth_duration_stimuli/002953_2014-06-08_17-32-18_094959634447_rgbf000059-resize_5/002953_2014-06-08_17-32-18_094959634447_rgbf000059-resize_5-target.png,125,1.551,10,3960,124,meters,jsons/VE125_randls_12_rotated.json,1716773,2002968,30,Man
150,746280,DepthScenes,duration_manipulation_targetAtFixation,jsons/VE125_randls_12_rotated.json,http://54.235.29.9/FacialAge/BNav_EC2/DepthDuration/v2_depth_duration_MTurk/v2_DepthDuration_HTML.html#226,226,1366,657,1366,768,8-29-2022,19-11-9,151,depth_duration_stimuli/000878_2014-06-08_22-52-45_260595134347_rgbf000045-resize_2/000878_2014-06-08_22-52-45_260595134347_rgbf000045-resize_2-target.png,125,2.092,10,11129,125,meters,jsons/VE125_randls_12_rotated.json,1716773,2002968,30,Man
151,746280,DepthScenes,duration_manipulation_targetAtFixation,jsons/VE125_randls_12_rotated.json,http://54.235.29.9/FacialAge/BNav_EC2/DepthDuration/v2_depth_duration_MTurk/v2_DepthDuration_HTML.html#226,226,1366,657,1366,768,8-29-2022,19-11-9,152,depth_duration_stimuli/000569_2014-06-09_22-51-47_260595134347_rgbf000141-resize_3/000569_2014-06-09_22-51-47_260595134347_rgbf000141-resize-original.jpg,125,4.512,5,3410,124,meters,jsons/VE125_randls_12_rotated.json,1716773,2002968,30,Man
152,746280,DepthScenes,duration_manipulation_targetAtFixation,jsons/VE125_randls_12_rotated.json,http://54.235.29.9/FacialAge/BNav_EC2/DepthDuration/v2_depth_duration_MTurk/v2_DepthDuration_HTML.html#226,226,1366,657,1366,768,8-29-2022,19-11-9,153,depth_duration_stimuli/002323_2014-06-28_20-01-54_260595134347_rgbf000051-resize_4/002323_2014-06-28_20-01-54_260595134347_rgbf000051-resize_4-target.png,125,3.7310000000000003,10,4469,115,meters,jsons/VE125_randls_12_rotated.json,1716773,2002968,30,Man
153,746280,DepthScenes,duration_manipulation_targetAtFixation,jsons/VE125_randls_12_rotated.json,http://54.235.29.9/FacialAge/BNav_EC2/DepthDuration/v2_depth_duration_MTurk/v2_DepthDuration_HTML.html#226,226,1366,657,1366,768,8-29-2022,19-11-9,154,depth_duration_stimuli/000917_2014-06-09_22-45-29_260595134347_rgbf000149-resize_3/000917_2014-06-09_22-45-29_260595134347_rgbf000149-resize_3-target.png,125,4.1865,5,5648,116,meters,jsons/VE125_randls_12_rotated.json,1716773,2002968,30,Man
154,746280,DepthScenes,duration_manipulation_targetAtFixation,jsons/VE125_randls_12_rotated.json,http://54.235.29.9/FacialAge/BNav_EC2/DepthDuration/v2_depth_duration_MTurk/v2_DepthDuration_HTML.html#226,226,1366,657,1366,768,8-29-2022,19-11-9,155,depth_duration_stimuli/003048_2014-06-15_13-49-43_094959634447_rgbf000150-resize_1/003048_2014-06-15_13-49-43_094959634447_rgbf000150-resize_1-target.png,125,4.0035,10,5668,111,meters,jsons/VE125_randls_12_rotated.json,1716773,2002968,30,Man
155,746280,DepthScenes,duration_manipulation_targetAtFixation,jsons/VE125_randls_12_rotated.json,http://54.235.29.9/FacialAge/BNav_EC2/DepthDuration/v2_depth_duration_MTurk/v2_DepthDuration_HTML.html#226,226,1366,657,1366,768,8-29-2022,19-11-9,156,depth_duration_stimuli/002043_2014-06-24_20-29-38_260595134347_rgbf000039-resize_4/002043_2014-06-24_20-29-38_260595134347_rgbf000039-resize_4-target.png,125,2.8435,5,4245,121,meters,jsons/VE125_randls_12_rotated.json,1716773,2002968,30,Man
156,746280,DepthScenes,duration_manipulation_targetAtFixation,jsons/VE125_randls_12_rotated.json,http://54.235.29.9/FacialAge/BNav_EC2/DepthDuration/v2_depth_duration_MTurk/v2_DepthDuration_HTML.html#226,226,1366,657,1366,768,8-29-2022,19-11-9,157,depth_duration_stimuli/000749_2014-06-08_21-55-06_260595134347_rgbf000070-resize_2/000749_2014-06-08_21-55-06_260595134347_rgbf000070-resize_2-target.png,125,2.331,10,3736,124,meters,jsons/VE125_randls_12_rotated.json,1716773,2002968,30,Man
157,746280,DepthScenes,duration_manipulation_targetAtFixation,jsons/VE125_randls_12_rotated.json,http://54.235.29.9/FacialAge/BNav_EC2/DepthDuration/v2_depth_duration_MTurk/v2_DepthDuration_HTML.html#226,226,1366,657,1366,768,8-29-2022,19-11-9,158,depth_duration_stimuli/002788_2014-06-22_19-36-03_094959634447_rgbf000088-resize_2/002788_2014-06-22_19-36-03_094959634447_rgbf000088-resize_2-target.png,125,1.6465,5,3549,124,meters,jsons/VE125_randls_12_rotated.json,1716773,2002968,30,Man
158,746280,DepthScenes,duration_manipulation_targetAtFixation,jsons/VE125_randls_12_rotated.json,http://54.235.29.9/FacialAge/BNav_EC2/DepthDuration/v2_depth_duration_MTurk/v2_DepthDuration_HTML.html#226,226,1366,657,1366,768,8-29-2022,19-11-9,159,depth_duration_stimuli/001136_2014-06-17_15-19-41_260595134347_rgbf000076-resize_3/001136_2014-06-17_15-19-41_260595134347_rgbf000076-resize_3-target.png,125,1.8655,10,5706,119,meters,jsons/VE125_randls_12_rotated.json,1716773,2002968,30,Man
159,746280,DepthScenes,duration_manipulation_targetAtFixation,jsons/VE125_randls_12_rotated.json,http://54.235.29.9/FacialAge/BNav_EC2/DepthDuration/v2_depth_duration_MTurk/v2_DepthDuration_HTML.html#226,226,1366,657,1366,768,8-29-2022,19-11-9,160,depth_duration_stimuli/001164_2014-06-17_15-35-46_260595134347_rgbf000085-resize_3/001164_2014-06-17_15-35-46_260595134347_rgbf000085-resize_3-target.png,125,2.354,5,6675,121,meters,jsons/VE125_randls_12_rotated.json,1716773,2002968,30,Man
160,746280,DepthScenes,duration_manipulation_targetAtFixation,jsons/VE125_randls_12_rotated.json,http://54.235.29.9/FacialAge/BNav_EC2/DepthDuration/v2_depth_duration_MTurk/v2_DepthDuration_HTML.html#226,226,1366,657,1366,768,8-29-2022,19-11-9,161,depth_duration_stimuli/003010_2014-06-15_12-54-35_094959634447_rgbf000112-resize_0/003010_2014-06-15_12-54-35_094959634447_rgbf000112-resize_0-target.png,125,3.1185,10,10545,124,meters,jsons/VE125_randls_12_rotated.json,1716773,2002968,30,Man
161,746280,DepthScenes,duration_manipulation_targetAtFixation,jsons/VE125_randls_12_rotated.json,http://54.235.29.9/FacialAge/BNav_EC2/DepthDuration/v2_depth_duration_MTurk/v2_DepthDuration_HTML.html#226,226,1366,657,1366,768,8-29-2022,19-11-9,162,depth_duration_stimuli/001810_2014-06-26_20-51-35_260595134347_rgbf000040-resize_3/001810_2014-06-26_20-51-35_260595134347_rgbf000040-resize_3-target.png,125,2.2525,5,3551,125,meters,jsons/VE125_randls_12_rotated.json,1716773,2002968,30,Man
162,746280,DepthScenes,duration_manipulation_targetAtFixation,jsons/VE125_randls_12_rotated.json,http://54.235.29.9/FacialAge/BNav_EC2/DepthDuration/v2_depth_duration_MTurk/v2_DepthDuration_HTML.html#226,226,1366,657,1366,768,8-29-2022,19-11-9,163,depth_duration_stimuli/000665_2014-06-09_20-42-35_260595134347_rgbf000110-resize_1/000665_2014-06-09_20-42-35_260595134347_rgbf000110-resize_1-target.png,125,3.057,5,9000,125,meters,jsons/VE125_randls_12_rotated.json,1716773,2002968,30,Man
163,746280,DepthScenes,duration_manipulation_targetAtFixation,jsons/VE125_randls_12_rotated.json,http://54.235.29.9/FacialAge/BNav_EC2/DepthDuration/v2_depth_duration_MTurk/v2_DepthDuration_HTML.html#226,226,1366,657,1366,768,8-29-2022,19-11-9,164,depth_duration_stimuli/001150_2014-06-17_15-27-34_260595134347_rgbf000108-resize_2/001150_2014-06-17_15-27-34_260595134347_rgbf000108-resize_2-target.png,125,4.0325,10,4262,124,meters,jsons/VE125_randls_12_rotated.json,1716773,2002968,30,Man
