,subjID,experimentName,versionName,sequenceName,url,selected_row,windowWidth,windowHeight,screenWidth,screenHeight,startDate,startTime,trial,stimulus,duration,actual_depth,depth_estimate,trial_RT,log_sceneDuration,unitSelection,seq_filepath,experimentTime,totalTime,age,gender
0,746638,DepthScenes,duration_manipulation_targetAtFixation,jsons/v1_VE250_randls_65.json,http://54.235.29.9/FacialAge/BNav_EC2/DepthDuration/v2_depth_duration_MTurk/v2_DepthDuration_HTML.html#168,168,1242,568,1366,768,9-3-2022,9-17-5,1,depth_duration_stimuli/001055_2014-06-08_18-45-35_260595134347_rgbf000111-resize_4/001055_2014-06-08_18-45-35_260595134347_rgbf000111-resize_4-target.png,250,2.4290000000000003,2.0,11826,250,feet,jsons/v1_VE250_randls_65.json,763107,1054293,25,Man
1,746638,DepthScenes,duration_manipulation_targetAtFixation,jsons/v1_VE250_randls_65.json,http://54.235.29.9/FacialAge/BNav_EC2/DepthDuration/v2_depth_duration_MTurk/v2_DepthDuration_HTML.html#168,168,1242,568,1366,768,9-3-2022,9-17-5,2,depth_duration_stimuli/000549_2014-06-08_22-10-24_260595134347_rgbf000247-resize_3/000549_2014-06-08_22-10-24_260595134347_rgbf000247-resize_3-target.png,250,1.841,3.0,3234,249,feet,jsons/v1_VE250_randls_65.json,763107,1054293,25,Man
2,746638,DepthScenes,duration_manipulation_targetAtFixation,jsons/v1_VE250_randls_65.json,http://54.235.29.9/FacialAge/BNav_EC2/DepthDuration/v2_depth_duration_MTurk/v2_DepthDuration_HTML.html#168,168,1242,568,1366,768,9-3-2022,9-17-5,3,depth_duration_stimuli/002057_2014-06-24_21-00-13_260595134347_rgbf000120-resize_1/002057_2014-06-24_21-00-13_260595134347_rgbf000120-resize_1-target.png,250,2.967,4.0,3076,249,feet,jsons/v1_VE250_randls_65.json,763107,1054293,25,Man
3,746638,DepthScenes,duration_manipulation_targetAtFixation,jsons/v1_VE250_randls_65.json,http://54.235.29.9/FacialAge/BNav_EC2/DepthDuration/v2_depth_duration_MTurk/v2_DepthDuration_HTML.html#168,168,1242,568,1366,768,9-3-2022,9-17-5,4,depth_duration_stimuli/000709_2014-06-08_13-51-55_260595134347_rgbf000068-resize_3/000709_2014-06-08_13-51-55_260595134347_rgbf000068-resize_3-target.png,250,1.8030000000000002,2.0,2861,250,feet,jsons/v1_VE250_randls_65.json,763107,1054293,25,Man
4,746638,DepthScenes,duration_manipulation_targetAtFixation,jsons/v1_VE250_randls_65.json,http://54.235.29.9/FacialAge/BNav_EC2/DepthDuration/v2_depth_duration_MTurk/v2_DepthDuration_HTML.html#168,168,1242,568,1366,768,9-3-2022,9-17-5,5,depth_duration_stimuli/002039_2014-06-24_20-22-38_260595134347_rgbf000084-resize_1/002039_2014-06-24_20-22-38_260595134347_rgbf000084-resize_1-target.png,250,4.408,3.0,3680,248,feet,jsons/v1_VE250_randls_65.json,763107,1054293,25,Man
5,746638,DepthScenes,duration_manipulation_targetAtFixation,jsons/v1_VE250_randls_65.json,http://54.235.29.9/FacialAge/BNav_EC2/DepthDuration/v2_depth_duration_MTurk/v2_DepthDuration_HTML.html#168,168,1242,568,1366,768,9-3-2022,9-17-5,6,depth_duration_stimuli/002103_2014-06-25_20-00-40_260595134347_rgbf000049-resize_0/002103_2014-06-25_20-00-40_260595134347_rgbf000049-resize_0-target.png,250,4.105,5.0,3060,251,feet,jsons/v1_VE250_randls_65.json,763107,1054293,25,Man
6,746638,DepthScenes,duration_manipulation_targetAtFixation,jsons/v1_VE250_randls_65.json,http://54.235.29.9/FacialAge/BNav_EC2/DepthDuration/v2_depth_duration_MTurk/v2_DepthDuration_HTML.html#168,168,1242,568,1366,768,9-3-2022,9-17-5,7,depth_duration_stimuli/001570_2014-06-20_17-21-09_260595134347_rgbf000135-resize_4/001570_2014-06-20_17-21-09_260595134347_rgbf000135-resize_4-target.png,250,4.467,2.0,2832,250,feet,jsons/v1_VE250_randls_65.json,763107,1054293,25,Man
7,746638,DepthScenes,duration_manipulation_targetAtFixation,jsons/v1_VE250_randls_65.json,http://54.235.29.9/FacialAge/BNav_EC2/DepthDuration/v2_depth_duration_MTurk/v2_DepthDuration_HTML.html#168,168,1242,568,1366,768,9-3-2022,9-17-5,8,depth_duration_stimuli/001392_2014-06-19_16-07-59_260595134347_rgbf000046-resize_1/001392_2014-06-19_16-07-59_260595134347_rgbf000046-resize_1-target.png,250,4.135,2.0,3019,250,feet,jsons/v1_VE250_randls_65.json,763107,1054293,25,Man
8,746638,DepthScenes,duration_manipulation_targetAtFixation,jsons/v1_VE250_randls_65.json,http://54.235.29.9/FacialAge/BNav_EC2/DepthDuration/v2_depth_duration_MTurk/v2_DepthDuration_HTML.html#168,168,1242,568,1366,768,9-3-2022,9-17-5,9,depth_duration_stimuli/000414_2014-06-04_19-49-13_260595134347_rgbf000044-resize_0/000414_2014-06-04_19-49-13_260595134347_rgbf000044-resize_0-target.png,250,4.329,5.0,2755,250,feet,jsons/v1_VE250_randls_65.json,763107,1054293,25,Man
9,746638,DepthScenes,duration_manipulation_targetAtFixation,jsons/v1_VE250_randls_65.json,http://54.235.29.9/FacialAge/BNav_EC2/DepthDuration/v2_depth_duration_MTurk/v2_DepthDuration_HTML.html#168,168,1242,568,1366,768,9-3-2022,9-17-5,10,depth_duration_stimuli/003129_2014-05-12_10-48-10_094959634447_rgbf000100-resize_0/003129_2014-05-12_10-48-10_094959634447_rgbf000100-resize_0-target.png,250,4.9305,2.0,2285,250,feet,jsons/v1_VE250_randls_65.json,763107,1054293,25,Man
10,746638,DepthScenes,duration_manipulation_targetAtFixation,jsons/v1_VE250_randls_65.json,http://54.235.29.9/FacialAge/BNav_EC2/DepthDuration/v2_depth_duration_MTurk/v2_DepthDuration_HTML.html#168,168,1242,568,1366,768,9-3-2022,9-17-5,11,depth_duration_stimuli/002272_2014-06-28_18-53-56_260595134347_rgbf000067-resize_2/002272_2014-06-28_18-53-56_260595134347_rgbf000067-resize_2-target.png,250,1.138,5.0,4138,249,feet,jsons/v1_VE250_randls_65.json,763107,1054293,25,Man
11,746638,DepthScenes,duration_manipulation_targetAtFixation,jsons/v1_VE250_randls_65.json,http://54.235.29.9/FacialAge/BNav_EC2/DepthDuration/v2_depth_duration_MTurk/v2_DepthDuration_HTML.html#168,168,1242,568,1366,768,9-3-2022,9-17-5,12,depth_duration_stimuli/001571_2014-06-20_17-21-32_260595134347_rgbf000089-resize_1/001571_2014-06-20_17-21-32_260595134347_rgbf000089-resize_1-target.png,250,1.86,12.0,6345,250,feet,jsons/v1_VE250_randls_65.json,763107,1054293,25,Man
12,746638,DepthScenes,duration_manipulation_targetAtFixation,jsons/v1_VE250_randls_65.json,http://54.235.29.9/FacialAge/BNav_EC2/DepthDuration/v2_depth_duration_MTurk/v2_DepthDuration_HTML.html#168,168,1242,568,1366,768,9-3-2022,9-17-5,13,depth_duration_stimuli/000569_2014-06-09_22-51-47_260595134347_rgbf000141-resize_3/000569_2014-06-09_22-51-47_260595134347_rgbf000141-resize-original.jpg,250,4.512,25.0,4075,251,feet,jsons/v1_VE250_randls_65.json,763107,1054293,25,Man
13,746638,DepthScenes,duration_manipulation_targetAtFixation,jsons/v1_VE250_randls_65.json,http://54.235.29.9/FacialAge/BNav_EC2/DepthDuration/v2_depth_duration_MTurk/v2_DepthDuration_HTML.html#168,168,1242,568,1366,768,9-3-2022,9-17-5,14,depth_duration_stimuli/002153_2014-06-25_21-27-18_260595134347_rgbf000038-resize_5/002153_2014-06-25_21-27-18_260595134347_rgbf000038-resize_5-target.png,250,2.505,12.0,3308,251,feet,jsons/v1_VE250_randls_65.json,763107,1054293,25,Man
14,746638,DepthScenes,duration_manipulation_targetAtFixation,jsons/v1_VE250_randls_65.json,http://54.235.29.9/FacialAge/BNav_EC2/DepthDuration/v2_depth_duration_MTurk/v2_DepthDuration_HTML.html#168,168,1242,568,1366,768,9-3-2022,9-17-5,15,depth_duration_stimuli/002660_2014-06-13_15-44-18_094959634447_rgbf001878-resize_2/002660_2014-06-13_15-44-18_094959634447_rgbf001878-resize_2-target.png,250,3.576,5.0,3594,250,feet,jsons/v1_VE250_randls_65.json,763107,1054293,25,Man
15,746638,DepthScenes,duration_manipulation_targetAtFixation,jsons/v1_VE250_randls_65.json,http://54.235.29.9/FacialAge/BNav_EC2/DepthDuration/v2_depth_duration_MTurk/v2_DepthDuration_HTML.html#168,168,1242,568,1366,768,9-3-2022,9-17-5,16,depth_duration_stimuli/001056_2014-06-08_18-46-44_260595134347_rgbf000068-resize_0/001056_2014-06-08_18-46-44_260595134347_rgbf000068-resize_0-target.png,250,2.6625,6.0,3009,250,feet,jsons/v1_VE250_randls_65.json,763107,1054293,25,Man
16,746638,DepthScenes,duration_manipulation_targetAtFixation,jsons/v1_VE250_randls_65.json,http://54.235.29.9/FacialAge/BNav_EC2/DepthDuration/v2_depth_duration_MTurk/v2_DepthDuration_HTML.html#168,168,1242,568,1366,768,9-3-2022,9-17-5,17,depth_duration_stimuli/002199_2014-06-28_18-33-56_260595134347_rgbf000074-resize_0/002199_2014-06-28_18-33-56_260595134347_rgbf000074-resize_0-target.png,250,1.996,2.0,2507,250,feet,jsons/v1_VE250_randls_65.json,763107,1054293,25,Man
17,746638,DepthScenes,duration_manipulation_targetAtFixation,jsons/v1_VE250_randls_65.json,http://54.235.29.9/FacialAge/BNav_EC2/DepthDuration/v2_depth_duration_MTurk/v2_DepthDuration_HTML.html#168,168,1242,568,1366,768,9-3-2022,9-17-5,18,depth_duration_stimuli/000506_2014-06-08_23-21-00_260595134347_rgbf000070-resize_7/000506_2014-06-08_23-21-00_260595134347_rgbf000070-resize_7-target.png,250,4.0585,3.0,2667,251,feet,jsons/v1_VE250_randls_65.json,763107,1054293,25,Man
18,746638,DepthScenes,duration_manipulation_targetAtFixation,jsons/v1_VE250_randls_65.json,http://54.235.29.9/FacialAge/BNav_EC2/DepthDuration/v2_depth_duration_MTurk/v2_DepthDuration_HTML.html#168,168,1242,568,1366,768,9-3-2022,9-17-5,19,depth_duration_stimuli/003079_2014-06-15_15-18-20_094959634447_rgbf000152-resize_8/003079_2014-06-15_15-18-20_094959634447_rgbf000152-resize_8-target.png,250,2.8775,5.0,2668,251,feet,jsons/v1_VE250_randls_65.json,763107,1054293,25,Man
19,746638,DepthScenes,duration_manipulation_targetAtFixation,jsons/v1_VE250_randls_65.json,http://54.235.29.9/FacialAge/BNav_EC2/DepthDuration/v2_depth_duration_MTurk/v2_DepthDuration_HTML.html#168,168,1242,568,1366,768,9-3-2022,9-17-5,20,depth_duration_stimuli/001417_2014-06-19_16-25-36_260595134347_rgbf000115-resize_5/001417_2014-06-19_16-25-36_260595134347_rgbf000115-resize_5-target.png,250,4.6255,2.0,2362,248,feet,jsons/v1_VE250_randls_65.json,763107,1054293,25,Man
20,746638,DepthScenes,duration_manipulation_targetAtFixation,jsons/v1_VE250_randls_65.json,http://54.235.29.9/FacialAge/BNav_EC2/DepthDuration/v2_depth_duration_MTurk/v2_DepthDuration_HTML.html#168,168,1242,568,1366,768,9-3-2022,9-17-5,21,depth_duration_stimuli/003081_2014-06-15_15-19-16_094959634447_rgbf000150-resize_1/003081_2014-06-15_15-19-16_094959634447_rgbf000150-resize_1-target.png,250,3.9125,4.0,2610,249,feet,jsons/v1_VE250_randls_65.json,763107,1054293,25,Man
21,746638,DepthScenes,duration_manipulation_targetAtFixation,jsons/v1_VE250_randls_65.json,http://54.235.29.9/FacialAge/BNav_EC2/DepthDuration/v2_depth_duration_MTurk/v2_DepthDuration_HTML.html#168,168,1242,568,1366,768,9-3-2022,9-17-5,22,depth_duration_stimuli/001199_2014-06-17_16-03-48_260595134347_rgbf000077-resize_0/001199_2014-06-17_16-03-48_260595134347_rgbf000077-resize_0-target.png,250,3.4375,6.0,2787,250,feet,jsons/v1_VE250_randls_65.json,763107,1054293,25,Man
22,746638,DepthScenes,duration_manipulation_targetAtFixation,jsons/v1_VE250_randls_65.json,http://54.235.29.9/FacialAge/BNav_EC2/DepthDuration/v2_depth_duration_MTurk/v2_DepthDuration_HTML.html#168,168,1242,568,1366,768,9-3-2022,9-17-5,23,depth_duration_stimuli/000502_2014-06-08_23-02-32_260595134347_rgbf000063-resize_4/000502_2014-06-08_23-02-32_260595134347_rgbf000063-resize_4-target.png,250,2.431,3.0,5138,248,feet,jsons/v1_VE250_randls_65.json,763107,1054293,25,Man
23,746638,DepthScenes,duration_manipulation_targetAtFixation,jsons/v1_VE250_randls_65.json,http://54.235.29.9/FacialAge/BNav_EC2/DepthDuration/v2_depth_duration_MTurk/v2_DepthDuration_HTML.html#168,168,1242,568,1366,768,9-3-2022,9-17-5,24,depth_duration_stimuli/001175_2014-06-17_15-45-55_260595134347_rgbf000129-resize_4/001175_2014-06-17_15-45-55_260595134347_rgbf000129-resize_4-target.png,250,4.255,4.0,2641,250,feet,jsons/v1_VE250_randls_65.json,763107,1054293,25,Man
24,746638,DepthScenes,duration_manipulation_targetAtFixation,jsons/v1_VE250_randls_65.json,http://54.235.29.9/FacialAge/BNav_EC2/DepthDuration/v2_depth_duration_MTurk/v2_DepthDuration_HTML.html#168,168,1242,568,1366,768,9-3-2022,9-17-5,25,depth_duration_stimuli/003490_2014-05-21_15-50-11_094959634447_rgbf000101-resize_3/003490_2014-05-21_15-50-11_094959634447_rgbf000101-resize_3-target.png,250,3.6445,3.0,3498,251,feet,jsons/v1_VE250_randls_65.json,763107,1054293,25,Man
25,746638,DepthScenes,duration_manipulation_targetAtFixation,jsons/v1_VE250_randls_65.json,http://54.235.29.9/FacialAge/BNav_EC2/DepthDuration/v2_depth_duration_MTurk/v2_DepthDuration_HTML.html#168,168,1242,568,1366,768,9-3-2022,9-17-5,26,depth_duration_stimuli/002663_2014-06-13_15-50-26_094959634447_rgbf000075-resize_1/002663_2014-06-13_15-50-26_094959634447_rgbf000075-resize_1-target.png,250,4.7495,3.0,4820,250,feet,jsons/v1_VE250_randls_65.json,763107,1054293,25,Man
26,746638,DepthScenes,duration_manipulation_targetAtFixation,jsons/v1_VE250_randls_65.json,http://54.235.29.9/FacialAge/BNav_EC2/DepthDuration/v2_depth_duration_MTurk/v2_DepthDuration_HTML.html#168,168,1242,568,1366,768,9-3-2022,9-17-5,27,depth_duration_stimuli/000409_2014-06-04_19-23-33_260595134347_rgbf000067-resize_0/000409_2014-06-04_19-23-33_260595134347_rgbf000067-resize_0-target.png,250,3.7335,3.0,4874,251,feet,jsons/v1_VE250_randls_65.json,763107,1054293,25,Man
27,746638,DepthScenes,duration_manipulation_targetAtFixation,jsons/v1_VE250_randls_65.json,http://54.235.29.9/FacialAge/BNav_EC2/DepthDuration/v2_depth_duration_MTurk/v2_DepthDuration_HTML.html#168,168,1242,568,1366,768,9-3-2022,9-17-5,28,depth_duration_stimuli/000642_2014-06-08_16-59-25_260595134347_rgbf000098-resize_2/000642_2014-06-08_16-59-25_260595134347_rgbf000098-resize_2-target.png,250,2.8815,5.0,2729,249,feet,jsons/v1_VE250_randls_65.json,763107,1054293,25,Man
28,746638,DepthScenes,duration_manipulation_targetAtFixation,jsons/v1_VE250_randls_65.json,http://54.235.29.9/FacialAge/BNav_EC2/DepthDuration/v2_depth_duration_MTurk/v2_DepthDuration_HTML.html#168,168,1242,568,1366,768,9-3-2022,9-17-5,29,depth_duration_stimuli/002425_2014-06-28_20-27-29_260595134347_rgbf000031-resize_8/002425_2014-06-28_20-27-29_260595134347_rgbf000031-resize_8-target.png,250,3.8960000000000004,3.0,2730,249,feet,jsons/v1_VE250_randls_65.json,763107,1054293,25,Man
29,746638,DepthScenes,duration_manipulation_targetAtFixation,jsons/v1_VE250_randls_65.json,http://54.235.29.9/FacialAge/BNav_EC2/DepthDuration/v2_depth_duration_MTurk/v2_DepthDuration_HTML.html#168,168,1242,568,1366,768,9-3-2022,9-17-5,30,depth_duration_stimuli/000375_2014-06-08_11-17-29_260595134347_rgbf000133-resize_2/000375_2014-06-08_11-17-29_260595134347_rgbf000133-resize-original.jpg,250,4.718,6.0,3187,251,feet,jsons/v1_VE250_randls_65.json,763107,1054293,25,Man
30,746638,DepthScenes,duration_manipulation_targetAtFixation,jsons/v1_VE250_randls_65.json,http://54.235.29.9/FacialAge/BNav_EC2/DepthDuration/v2_depth_duration_MTurk/v2_DepthDuration_HTML.html#168,168,1242,568,1366,768,9-3-2022,9-17-5,31,depth_duration_stimuli/001167_2014-06-17_15-38-07_260595134347_rgbf000108-resize_0/001167_2014-06-17_15-38-07_260595134347_rgbf000108-resize_0-target.png,250,1.8505,5.0,2811,251,feet,jsons/v1_VE250_randls_65.json,763107,1054293,25,Man
31,746638,DepthScenes,duration_manipulation_targetAtFixation,jsons/v1_VE250_randls_65.json,http://54.235.29.9/FacialAge/BNav_EC2/DepthDuration/v2_depth_duration_MTurk/v2_DepthDuration_HTML.html#168,168,1242,568,1366,768,9-3-2022,9-17-5,32,depth_duration_stimuli/003587_2014-05-23_16-48-02_094959634447_rgbf002384-resize_2/003587_2014-05-23_16-48-02_094959634447_rgbf002384-resize_2-target.png,250,1.357,3.0,2769,249,feet,jsons/v1_VE250_randls_65.json,763107,1054293,25,Man
32,746638,DepthScenes,duration_manipulation_targetAtFixation,jsons/v1_VE250_randls_65.json,http://54.235.29.9/FacialAge/BNav_EC2/DepthDuration/v2_depth_duration_MTurk/v2_DepthDuration_HTML.html#168,168,1242,568,1366,768,9-3-2022,9-17-5,33,depth_duration_stimuli/002279_2014-06-28_18-55-32_260595134347_rgbf000040-resize_5/002279_2014-06-28_18-55-32_260595134347_rgbf000040-resize_5-target.png,250,1.5043333333333,5.0,2722,250,feet,jsons/v1_VE250_randls_65.json,763107,1054293,25,Man
33,746638,DepthScenes,duration_manipulation_targetAtFixation,jsons/v1_VE250_randls_65.json,http://54.235.29.9/FacialAge/BNav_EC2/DepthDuration/v2_depth_duration_MTurk/v2_DepthDuration_HTML.html#168,168,1242,568,1366,768,9-3-2022,9-17-5,34,depth_duration_stimuli/000635_2014-06-08_16-38-42_260595134347_rgbf000106-resize_1/000635_2014-06-08_16-38-42_260595134347_rgbf000106-resize_1-target.png,250,2.074,2.0,3027,250,feet,jsons/v1_VE250_randls_65.json,763107,1054293,25,Man
34,746638,DepthScenes,duration_manipulation_targetAtFixation,jsons/v1_VE250_randls_65.json,http://54.235.29.9/FacialAge/BNav_EC2/DepthDuration/v2_depth_duration_MTurk/v2_DepthDuration_HTML.html#168,168,1242,568,1366,768,9-3-2022,9-17-5,35,depth_duration_stimuli/001164_2014-06-17_15-35-46_260595134347_rgbf000085-resize_3/001164_2014-06-17_15-35-46_260595134347_rgbf000085-resize_3-target.png,250,2.354,3.0,2402,248,feet,jsons/v1_VE250_randls_65.json,763107,1054293,25,Man
35,746638,DepthScenes,duration_manipulation_targetAtFixation,jsons/v1_VE250_randls_65.json,http://54.235.29.9/FacialAge/BNav_EC2/DepthDuration/v2_depth_duration_MTurk/v2_DepthDuration_HTML.html#168,168,1242,568,1366,768,9-3-2022,9-17-5,36,depth_duration_stimuli/001136_2014-06-17_15-19-41_260595134347_rgbf000076-resize_3/001136_2014-06-17_15-19-41_260595134347_rgbf000076-resize_3-target.png,250,1.8655,5.0,2443,248,feet,jsons/v1_VE250_randls_65.json,763107,1054293,25,Man
36,746638,DepthScenes,duration_manipulation_targetAtFixation,jsons/v1_VE250_randls_65.json,http://54.235.29.9/FacialAge/BNav_EC2/DepthDuration/v2_depth_duration_MTurk/v2_DepthDuration_HTML.html#168,168,1242,568,1366,768,9-3-2022,9-17-5,37,depth_duration_stimuli/002509_2014-06-24_13-19-22_094959634447_rgbf000077-resize_0/002509_2014-06-24_13-19-22_094959634447_rgbf000077-resize_0-target.png,250,1.3065,2.0,2059,250,feet,jsons/v1_VE250_randls_65.json,763107,1054293,25,Man
37,746638,DepthScenes,duration_manipulation_targetAtFixation,jsons/v1_VE250_randls_65.json,http://54.235.29.9/FacialAge/BNav_EC2/DepthDuration/v2_depth_duration_MTurk/v2_DepthDuration_HTML.html#168,168,1242,568,1366,768,9-3-2022,9-17-5,38,depth_duration_stimuli/003338_2014-05-20_11-01-23_094959634447_rgbf000051-resize_6/003338_2014-05-20_11-01-23_094959634447_rgbf000051-resize_6-target.png,250,1.693,3.0,2843,251,feet,jsons/v1_VE250_randls_65.json,763107,1054293,25,Man
38,746638,DepthScenes,duration_manipulation_targetAtFixation,jsons/v1_VE250_randls_65.json,http://54.235.29.9/FacialAge/BNav_EC2/DepthDuration/v2_depth_duration_MTurk/v2_DepthDuration_HTML.html#168,168,1242,568,1366,768,9-3-2022,9-17-5,39,depth_duration_stimuli/003070_2014-06-15_14-58-27_094959634447_rgbf000150-resize_3/003070_2014-06-15_14-58-27_094959634447_rgbf000150-resize_3-target.png,250,2.9415,4.0,2763,250,feet,jsons/v1_VE250_randls_65.json,763107,1054293,25,Man
39,746638,DepthScenes,duration_manipulation_targetAtFixation,jsons/v1_VE250_randls_65.json,http://54.235.29.9/FacialAge/BNav_EC2/DepthDuration/v2_depth_duration_MTurk/v2_DepthDuration_HTML.html#168,168,1242,568,1366,768,9-3-2022,9-17-5,40,depth_duration_stimuli/000943_2014-06-09_19-31-07_260595134347_rgbf000128-resize_1/000943_2014-06-09_19-31-07_260595134347_rgbf000128-resize_1-target.png,250,1.9765,5.0,2267,250,feet,jsons/v1_VE250_randls_65.json,763107,1054293,25,Man
40,746638,DepthScenes,duration_manipulation_targetAtFixation,jsons/v1_VE250_randls_65.json,http://54.235.29.9/FacialAge/BNav_EC2/DepthDuration/v2_depth_duration_MTurk/v2_DepthDuration_HTML.html#168,168,1242,568,1366,768,9-3-2022,9-17-5,41,depth_duration_stimuli/003292_2014-05-14_21-53-49_094959634447_rgbf000100-resize_2/003292_2014-05-14_21-53-49_094959634447_rgbf000100-resize_2-target.png,250,3.4815,2.0,2642,250,feet,jsons/v1_VE250_randls_65.json,763107,1054293,25,Man
41,746638,DepthScenes,duration_manipulation_targetAtFixation,jsons/v1_VE250_randls_65.json,http://54.235.29.9/FacialAge/BNav_EC2/DepthDuration/v2_depth_duration_MTurk/v2_DepthDuration_HTML.html#168,168,1242,568,1366,768,9-3-2022,9-17-5,42,depth_duration_stimuli/002639_2014-06-24_14-51-37_094959634447_rgbf000074-resize_4/002639_2014-06-24_14-51-37_094959634447_rgbf000074-resize_4-target.png,250,4.0375,3.0,2571,251,feet,jsons/v1_VE250_randls_65.json,763107,1054293,25,Man
42,746638,DepthScenes,duration_manipulation_targetAtFixation,jsons/v1_VE250_randls_65.json,http://54.235.29.9/FacialAge/BNav_EC2/DepthDuration/v2_depth_duration_MTurk/v2_DepthDuration_HTML.html#168,168,1242,568,1366,768,9-3-2022,9-17-5,43,depth_duration_stimuli/001449_2014-06-19_17-01-27_260595134347_rgbf000116-resize_2/001449_2014-06-19_17-01-27_260595134347_rgbf000116-resize_2-target.png,250,3.452,5.0,3034,250,feet,jsons/v1_VE250_randls_65.json,763107,1054293,25,Man
43,746638,DepthScenes,duration_manipulation_targetAtFixation,jsons/v1_VE250_randls_65.json,http://54.235.29.9/FacialAge/BNav_EC2/DepthDuration/v2_depth_duration_MTurk/v2_DepthDuration_HTML.html#168,168,1242,568,1366,768,9-3-2022,9-17-5,44,depth_duration_stimuli/001450_2014-06-19_17-02-03_260595134347_rgbf000203-resize_4/001450_2014-06-19_17-02-03_260595134347_rgbf000203-resize_4-target.png,250,4.0106666666667,4.0,3172,248,feet,jsons/v1_VE250_randls_65.json,763107,1054293,25,Man
44,746638,DepthScenes,duration_manipulation_targetAtFixation,jsons/v1_VE250_randls_65.json,http://54.235.29.9/FacialAge/BNav_EC2/DepthDuration/v2_depth_duration_MTurk/v2_DepthDuration_HTML.html#168,168,1242,568,1366,768,9-3-2022,9-17-5,45,depth_duration_stimuli/000787_2014-06-08_22-33-53_260595134347_rgbf000175-resize_1/000787_2014-06-08_22-33-53_260595134347_rgbf000175-resize-original.jpg,250,4.784,3.0,4929,249,feet,jsons/v1_VE250_randls_65.json,763107,1054293,25,Man
45,746638,DepthScenes,duration_manipulation_targetAtFixation,jsons/v1_VE250_randls_65.json,http://54.235.29.9/FacialAge/BNav_EC2/DepthDuration/v2_depth_duration_MTurk/v2_DepthDuration_HTML.html#168,168,1242,568,1366,768,9-3-2022,9-17-5,46,depth_duration_stimuli/000368_2014-06-09_15-53-01_260595134347_rgbf000155-resize_2/000368_2014-06-09_15-53-01_260595134347_rgbf000155-resize_2-target.png,250,2.4859999999999998,5.0,2501,250,feet,jsons/v1_VE250_randls_65.json,763107,1054293,25,Man
46,746638,DepthScenes,duration_manipulation_targetAtFixation,jsons/v1_VE250_randls_65.json,http://54.235.29.9/FacialAge/BNav_EC2/DepthDuration/v2_depth_duration_MTurk/v2_DepthDuration_HTML.html#168,168,1242,568,1366,768,9-3-2022,9-17-5,47,depth_duration_stimuli/002678_2014-06-13_16-15-32_094959634447_rgbf000151-resize_6/002678_2014-06-13_16-15-32_094959634447_rgbf000151-resize_6-target.png,250,2.1830000000000003,2.0,2087,251,feet,jsons/v1_VE250_randls_65.json,763107,1054293,25,Man
47,746638,DepthScenes,duration_manipulation_targetAtFixation,jsons/v1_VE250_randls_65.json,http://54.235.29.9/FacialAge/BNav_EC2/DepthDuration/v2_depth_duration_MTurk/v2_DepthDuration_HTML.html#168,168,1242,568,1366,768,9-3-2022,9-17-5,48,depth_duration_stimuli/002213_2014-06-28_18-37-58_260595134347_rgbf000055-resize_1/002213_2014-06-28_18-37-58_260595134347_rgbf000055-resize_1-target.png,250,3.62,2.0,1938,250,feet,jsons/v1_VE250_randls_65.json,763107,1054293,25,Man
48,746638,DepthScenes,duration_manipulation_targetAtFixation,jsons/v1_VE250_randls_65.json,http://54.235.29.9/FacialAge/BNav_EC2/DepthDuration/v2_depth_duration_MTurk/v2_DepthDuration_HTML.html#168,168,1242,568,1366,768,9-3-2022,9-17-5,49,depth_duration_stimuli/000691_2014-06-08_13-08-50_260595134347_rgbf000132-resize_3/000691_2014-06-08_13-08-50_260595134347_rgbf000132-resize_3-target.png,250,4.1530000000000005,2.0,3107,251,feet,jsons/v1_VE250_randls_65.json,763107,1054293,25,Man
49,746638,DepthScenes,duration_manipulation_targetAtFixation,jsons/v1_VE250_randls_65.json,http://54.235.29.9/FacialAge/BNav_EC2/DepthDuration/v2_depth_duration_MTurk/v2_DepthDuration_HTML.html#168,168,1242,568,1366,768,9-3-2022,9-17-5,50,depth_duration_stimuli/002043_2014-06-24_20-29-38_260595134347_rgbf000039-resize_4/002043_2014-06-24_20-29-38_260595134347_rgbf000039-resize_4-target.png,250,2.8435,4.0,3851,251,feet,jsons/v1_VE250_randls_65.json,763107,1054293,25,Man
50,746638,DepthScenes,duration_manipulation_targetAtFixation,jsons/v1_VE250_randls_65.json,http://54.235.29.9/FacialAge/BNav_EC2/DepthDuration/v2_depth_duration_MTurk/v2_DepthDuration_HTML.html#168,168,1242,568,1366,768,9-3-2022,9-17-5,51,depth_duration_stimuli/003048_2014-06-15_13-49-43_094959634447_rgbf000150-resize_1/003048_2014-06-15_13-49-43_094959634447_rgbf000150-resize_1-target.png,250,4.0035,2.0,2244,250,feet,jsons/v1_VE250_randls_65.json,763107,1054293,25,Man
51,746638,DepthScenes,duration_manipulation_targetAtFixation,jsons/v1_VE250_randls_65.json,http://54.235.29.9/FacialAge/BNav_EC2/DepthDuration/v2_depth_duration_MTurk/v2_DepthDuration_HTML.html#168,168,1242,568,1366,768,9-3-2022,9-17-5,52,depth_duration_stimuli/001092_2014-06-15_17-34-58_260595134347_rgbf000171-resize_3/001092_2014-06-15_17-34-58_260595134347_rgbf000171-resize_3-target.png,250,2.6935,25.0,2507,250,feet,jsons/v1_VE250_randls_65.json,763107,1054293,25,Man
52,746638,DepthScenes,duration_manipulation_targetAtFixation,jsons/v1_VE250_randls_65.json,http://54.235.29.9/FacialAge/BNav_EC2/DepthDuration/v2_depth_duration_MTurk/v2_DepthDuration_HTML.html#168,168,1242,568,1366,768,9-3-2022,9-17-5,53,depth_duration_stimuli/002545_2014-06-24_13-38-53_094959634447_rgbf000080-resize_4/002545_2014-06-24_13-38-53_094959634447_rgbf000080-resize_4-target.png,250,1.9205,4.0,2226,251,feet,jsons/v1_VE250_randls_65.json,763107,1054293,25,Man
53,746638,DepthScenes,duration_manipulation_targetAtFixation,jsons/v1_VE250_randls_65.json,http://54.235.29.9/FacialAge/BNav_EC2/DepthDuration/v2_depth_duration_MTurk/v2_DepthDuration_HTML.html#168,168,1242,568,1366,768,9-3-2022,9-17-5,54,depth_duration_stimuli/002784_2014-06-22_19-26-30_094959634447_rgbf000083-resize_3/002784_2014-06-22_19-26-30_094959634447_rgbf000083-resize_3-target.png,250,1.8046666666667,6.0,2148,250,feet,jsons/v1_VE250_randls_65.json,763107,1054293,25,Man
54,746638,DepthScenes,duration_manipulation_targetAtFixation,jsons/v1_VE250_randls_65.json,http://54.235.29.9/FacialAge/BNav_EC2/DepthDuration/v2_depth_duration_MTurk/v2_DepthDuration_HTML.html#168,168,1242,568,1366,768,9-3-2022,9-17-5,55,depth_duration_stimuli/001100_2014-06-15_17-46-26_260595134347_rgbf000225-resize_2/001100_2014-06-15_17-46-26_260595134347_rgbf000225-resize_2-target.png,250,2.24,1.0,2059,250,feet,jsons/v1_VE250_randls_65.json,763107,1054293,25,Man
55,746638,DepthScenes,duration_manipulation_targetAtFixation,jsons/v1_VE250_randls_65.json,http://54.235.29.9/FacialAge/BNav_EC2/DepthDuration/v2_depth_duration_MTurk/v2_DepthDuration_HTML.html#168,168,1242,568,1366,768,9-3-2022,9-17-5,56,depth_duration_stimuli/000493_2014-06-09_21-01-18_260595134347_rgbf000196-resize_3/000493_2014-06-09_21-01-18_260595134347_rgbf000196-resize_3-target.png,250,3.44,5.0,2435,249,feet,jsons/v1_VE250_randls_65.json,763107,1054293,25,Man
56,746638,DepthScenes,duration_manipulation_targetAtFixation,jsons/v1_VE250_randls_65.json,http://54.235.29.9/FacialAge/BNav_EC2/DepthDuration/v2_depth_duration_MTurk/v2_DepthDuration_HTML.html#168,168,1242,568,1366,768,9-3-2022,9-17-5,57,depth_duration_stimuli/000191_2014-05-12_17-07-38_260595134347_rgbf000199-resize_0/000191_2014-05-12_17-07-38_260595134347_rgbf000199-resize_0-target.png,250,3.7995,8.0,2519,249,feet,jsons/v1_VE250_randls_65.json,763107,1054293,25,Man
57,746638,DepthScenes,duration_manipulation_targetAtFixation,jsons/v1_VE250_randls_65.json,http://54.235.29.9/FacialAge/BNav_EC2/DepthDuration/v2_depth_duration_MTurk/v2_DepthDuration_HTML.html#168,168,1242,568,1366,768,9-3-2022,9-17-5,58,depth_duration_stimuli/002964_2014-06-08_17-46-11_094959634447_rgbf000091-resize_4/002964_2014-06-08_17-46-11_094959634447_rgbf000091-resize_4-target.png,250,1.6909999999999998,7.0,2446,250,feet,jsons/v1_VE250_randls_65.json,763107,1054293,25,Man
58,746638,DepthScenes,duration_manipulation_targetAtFixation,jsons/v1_VE250_randls_65.json,http://54.235.29.9/FacialAge/BNav_EC2/DepthDuration/v2_depth_duration_MTurk/v2_DepthDuration_HTML.html#168,168,1242,568,1366,768,9-3-2022,9-17-5,59,depth_duration_stimuli/002136_2014-06-25_21-18-03_260595134347_rgbf000109-resize_3/002136_2014-06-25_21-18-03_260595134347_rgbf000109-resize_3-target.png,250,1.9569999999999999,5.0,2587,249,feet,jsons/v1_VE250_randls_65.json,763107,1054293,25,Man
59,746638,DepthScenes,duration_manipulation_targetAtFixation,jsons/v1_VE250_randls_65.json,http://54.235.29.9/FacialAge/BNav_EC2/DepthDuration/v2_depth_duration_MTurk/v2_DepthDuration_HTML.html#168,168,1242,568,1366,768,9-3-2022,9-17-5,60,depth_duration_stimuli/000009_2014-05-26_14-32-05_260595134347_rgbf000034-resize_3/000009_2014-05-26_14-32-05_260595134347_rgbf000034-resize_3-target.png,250,3.8715,4.0,3099,250,feet,jsons/v1_VE250_randls_65.json,763107,1054293,25,Man
60,746638,DepthScenes,duration_manipulation_targetAtFixation,jsons/v1_VE250_randls_65.json,http://54.235.29.9/FacialAge/BNav_EC2/DepthDuration/v2_depth_duration_MTurk/v2_DepthDuration_HTML.html#168,168,1242,568,1366,768,9-3-2022,9-17-5,61,depth_duration_stimuli/001828_2014-06-26_21-40-03_260595134347_rgbf000024-resize_0/001828_2014-06-26_21-40-03_260595134347_rgbf000024-resize_0-target.png,250,4.8260000000000005,4.0,2297,249,feet,jsons/v1_VE250_randls_65.json,763107,1054293,25,Man
61,746638,DepthScenes,duration_manipulation_targetAtFixation,jsons/v1_VE250_randls_65.json,http://54.235.29.9/FacialAge/BNav_EC2/DepthDuration/v2_depth_duration_MTurk/v2_DepthDuration_HTML.html#168,168,1242,568,1366,768,9-3-2022,9-17-5,62,depth_duration_stimuli/000736_2014-06-08_18-24-15_260595134347_rgbf000206-resize_3/000736_2014-06-08_18-24-15_260595134347_rgbf000206-resize_3-target.png,250,3.515,4.0,2122,250,feet,jsons/v1_VE250_randls_65.json,763107,1054293,25,Man
62,746638,DepthScenes,duration_manipulation_targetAtFixation,jsons/v1_VE250_randls_65.json,http://54.235.29.9/FacialAge/BNav_EC2/DepthDuration/v2_depth_duration_MTurk/v2_DepthDuration_HTML.html#168,168,1242,568,1366,768,9-3-2022,9-17-5,63,depth_duration_stimuli/000137_2014-05-20_17-04-49_260595134347_rgbf000120-resize_1/000137_2014-05-20_17-04-49_260595134347_rgbf000120-resize_1-target.png,250,3.786,4.0,2902,250,feet,jsons/v1_VE250_randls_65.json,763107,1054293,25,Man
63,746638,DepthScenes,duration_manipulation_targetAtFixation,jsons/v1_VE250_randls_65.json,http://54.235.29.9/FacialAge/BNav_EC2/DepthDuration/v2_depth_duration_MTurk/v2_DepthDuration_HTML.html#168,168,1242,568,1366,768,9-3-2022,9-17-5,64,depth_duration_stimuli/001244_2014-06-17_16-47-45_260595134347_rgbf000030-resize_4/001244_2014-06-17_16-47-45_260595134347_rgbf000030-resize_4-target.png,250,2.0425,5.0,2038,250,feet,jsons/v1_VE250_randls_65.json,763107,1054293,25,Man
64,746638,DepthScenes,duration_manipulation_targetAtFixation,jsons/v1_VE250_randls_65.json,http://54.235.29.9/FacialAge/BNav_EC2/DepthDuration/v2_depth_duration_MTurk/v2_DepthDuration_HTML.html#168,168,1242,568,1366,768,9-3-2022,9-17-5,65,depth_duration_stimuli/003495_2014-05-21_16-01-51_094959634447_rgbf000100-resize_3/003495_2014-05-21_16-01-51_094959634447_rgbf000100-resize_3-target.png,250,1.6255,4.0,3010,250,feet,jsons/v1_VE250_randls_65.json,763107,1054293,25,Man
65,746638,DepthScenes,duration_manipulation_targetAtFixation,jsons/v1_VE250_randls_65.json,http://54.235.29.9/FacialAge/BNav_EC2/DepthDuration/v2_depth_duration_MTurk/v2_DepthDuration_HTML.html#168,168,1242,568,1366,768,9-3-2022,9-17-5,66,depth_duration_stimuli/001222_2014-06-17_16-24-06_260595134347_rgbf000073-resize_0/001222_2014-06-17_16-24-06_260595134347_rgbf000073-resize-original.jpg,250,1.4385,5.0,1970,250,feet,jsons/v1_VE250_randls_65.json,763107,1054293,25,Man
66,746638,DepthScenes,duration_manipulation_targetAtFixation,jsons/v1_VE250_randls_65.json,http://54.235.29.9/FacialAge/BNav_EC2/DepthDuration/v2_depth_duration_MTurk/v2_DepthDuration_HTML.html#168,168,1242,568,1366,768,9-3-2022,9-17-5,67,depth_duration_stimuli/002570_2014-06-24_13-59-54_094959634447_rgbf000059-resize_0/002570_2014-06-24_13-59-54_094959634447_rgbf000059-resize_0-target.png,250,4.037,6.0,2194,249,feet,jsons/v1_VE250_randls_65.json,763107,1054293,25,Man
67,746638,DepthScenes,duration_manipulation_targetAtFixation,jsons/v1_VE250_randls_65.json,http://54.235.29.9/FacialAge/BNav_EC2/DepthDuration/v2_depth_duration_MTurk/v2_DepthDuration_HTML.html#168,168,1242,568,1366,768,9-3-2022,9-17-5,68,depth_duration_stimuli/002467_2014-06-28_20-38-07_260595134347_rgbf000026-resize_2/002467_2014-06-28_20-38-07_260595134347_rgbf000026-resize_2-target.png,250,4.742,1.0,2442,249,feet,jsons/v1_VE250_randls_65.json,763107,1054293,25,Man
68,746638,DepthScenes,duration_manipulation_targetAtFixation,jsons/v1_VE250_randls_65.json,http://54.235.29.9/FacialAge/BNav_EC2/DepthDuration/v2_depth_duration_MTurk/v2_DepthDuration_HTML.html#168,168,1242,568,1366,768,9-3-2022,9-17-5,69,depth_duration_stimuli/002748_2014-06-22_19-07-22_094959634447_rgbf000078-resize_1/002748_2014-06-22_19-07-22_094959634447_rgbf000078-resize_1-target.png,250,4.6705,2.0,2403,249,feet,jsons/v1_VE250_randls_65.json,763107,1054293,25,Man
69,746638,DepthScenes,duration_manipulation_targetAtFixation,jsons/v1_VE250_randls_65.json,http://54.235.29.9/FacialAge/BNav_EC2/DepthDuration/v2_depth_duration_MTurk/v2_DepthDuration_HTML.html#168,168,1242,568,1366,768,9-3-2022,9-17-5,70,depth_duration_stimuli/002995_2014-06-15_12-31-26_094959634447_rgbf000150-resize_1/002995_2014-06-15_12-31-26_094959634447_rgbf000150-resize_1-target.png,250,3.8360000000000003,3.0,3258,249,feet,jsons/v1_VE250_randls_65.json,763107,1054293,25,Man
70,746638,DepthScenes,duration_manipulation_targetAtFixation,jsons/v1_VE250_randls_65.json,http://54.235.29.9/FacialAge/BNav_EC2/DepthDuration/v2_depth_duration_MTurk/v2_DepthDuration_HTML.html#168,168,1242,568,1366,768,9-3-2022,9-17-5,71,depth_duration_stimuli/001810_2014-06-26_20-51-35_260595134347_rgbf000040-resize_3/001810_2014-06-26_20-51-35_260595134347_rgbf000040-resize_3-target.png,250,2.2525,5.0,2179,249,feet,jsons/v1_VE250_randls_65.json,763107,1054293,25,Man
71,746638,DepthScenes,duration_manipulation_targetAtFixation,jsons/v1_VE250_randls_65.json,http://54.235.29.9/FacialAge/BNav_EC2/DepthDuration/v2_depth_duration_MTurk/v2_DepthDuration_HTML.html#168,168,1242,568,1366,768,9-3-2022,9-17-5,72,depth_duration_stimuli/003010_2014-06-15_12-54-35_094959634447_rgbf000112-resize_0/003010_2014-06-15_12-54-35_094959634447_rgbf000112-resize_0-target.png,250,3.1185,5.0,2666,249,feet,jsons/v1_VE250_randls_65.json,763107,1054293,25,Man
72,746638,DepthScenes,duration_manipulation_targetAtFixation,jsons/v1_VE250_randls_65.json,http://54.235.29.9/FacialAge/BNav_EC2/DepthDuration/v2_depth_duration_MTurk/v2_DepthDuration_HTML.html#168,168,1242,568,1366,768,9-3-2022,9-17-5,73,depth_duration_stimuli/002600_2014-06-24_14-27-04_094959634447_rgbf000074-resize_2/002600_2014-06-24_14-27-04_094959634447_rgbf000074-resize_2-target.png,250,2.7575,6.0,2362,249,feet,jsons/v1_VE250_randls_65.json,763107,1054293,25,Man
73,746638,DepthScenes,duration_manipulation_targetAtFixation,jsons/v1_VE250_randls_65.json,http://54.235.29.9/FacialAge/BNav_EC2/DepthDuration/v2_depth_duration_MTurk/v2_DepthDuration_HTML.html#168,168,1242,568,1366,768,9-3-2022,9-17-5,74,depth_duration_stimuli/003228_2014-05-14_13-42-35_094959634447_rgbf000101-resize_1/003228_2014-05-14_13-42-35_094959634447_rgbf000101-resize_1-target.png,250,1.9680000000000002,5.0,2099,249,feet,jsons/v1_VE250_randls_65.json,763107,1054293,25,Man
74,746638,DepthScenes,duration_manipulation_targetAtFixation,jsons/v1_VE250_randls_65.json,http://54.235.29.9/FacialAge/BNav_EC2/DepthDuration/v2_depth_duration_MTurk/v2_DepthDuration_HTML.html#168,168,1242,568,1366,768,9-3-2022,9-17-5,75,depth_duration_stimuli/001011_2014-06-08_23-18-54_260595134347_rgbf000044-resize_4/001011_2014-06-08_23-18-54_260595134347_rgbf000044-resize_4-target.png,250,2.4730000000000003,4.0,2547,249,feet,jsons/v1_VE250_randls_65.json,763107,1054293,25,Man
75,746638,DepthScenes,duration_manipulation_targetAtFixation,jsons/v1_VE250_randls_65.json,http://54.235.29.9/FacialAge/BNav_EC2/DepthDuration/v2_depth_duration_MTurk/v2_DepthDuration_HTML.html#168,168,1242,568,1366,768,9-3-2022,9-17-5,76,depth_duration_stimuli/002875_2014-06-01_15-19-00_094959634447_rgbf000151-resize_1/002875_2014-06-01_15-19-00_094959634447_rgbf000151-resize_1-target.png,250,1.9675,4.0,2465,250,feet,jsons/v1_VE250_randls_65.json,763107,1054293,25,Man
76,746638,DepthScenes,duration_manipulation_targetAtFixation,jsons/v1_VE250_randls_65.json,http://54.235.29.9/FacialAge/BNav_EC2/DepthDuration/v2_depth_duration_MTurk/v2_DepthDuration_HTML.html#168,168,1242,568,1366,768,9-3-2022,9-17-5,77,depth_duration_stimuli/000917_2014-06-09_22-45-29_260595134347_rgbf000149-resize_3/000917_2014-06-09_22-45-29_260595134347_rgbf000149-resize_3-target.png,250,4.1865,6.0,2362,250,feet,jsons/v1_VE250_randls_65.json,763107,1054293,25,Man
77,746638,DepthScenes,duration_manipulation_targetAtFixation,jsons/v1_VE250_randls_65.json,http://54.235.29.9/FacialAge/BNav_EC2/DepthDuration/v2_depth_duration_MTurk/v2_DepthDuration_HTML.html#168,168,1242,568,1366,768,9-3-2022,9-17-5,78,depth_duration_stimuli/002323_2014-06-28_20-01-54_260595134347_rgbf000051-resize_4/002323_2014-06-28_20-01-54_260595134347_rgbf000051-resize_4-target.png,250,3.7310000000000003,5.0,2354,249,feet,jsons/v1_VE250_randls_65.json,763107,1054293,25,Man
78,746638,DepthScenes,duration_manipulation_targetAtFixation,jsons/v1_VE250_randls_65.json,http://54.235.29.9/FacialAge/BNav_EC2/DepthDuration/v2_depth_duration_MTurk/v2_DepthDuration_HTML.html#168,168,1242,568,1366,768,9-3-2022,9-17-5,79,depth_duration_stimuli/001016_2014-06-09_16-16-10_260595134347_rgbf000112-resize_5/001016_2014-06-09_16-16-10_260595134347_rgbf000112-resize_5-target.png,250,1.6565,4.0,2507,250,feet,jsons/v1_VE250_randls_65.json,763107,1054293,25,Man
79,746638,DepthScenes,duration_manipulation_targetAtFixation,jsons/v1_VE250_randls_65.json,http://54.235.29.9/FacialAge/BNav_EC2/DepthDuration/v2_depth_duration_MTurk/v2_DepthDuration_HTML.html#168,168,1242,568,1366,768,9-3-2022,9-17-5,80,depth_duration_stimuli/002340_2014-06-28_20-05-46_260595134347_rgbf000113-resize_0/002340_2014-06-28_20-05-46_260595134347_rgbf000113-resize_0-target.png,250,2.4735,5.0,2283,250,feet,jsons/v1_VE250_randls_65.json,763107,1054293,25,Man
80,746638,DepthScenes,duration_manipulation_targetAtFixation,jsons/v1_VE250_randls_65.json,http://54.235.29.9/FacialAge/BNav_EC2/DepthDuration/v2_depth_duration_MTurk/v2_DepthDuration_HTML.html#168,168,1242,568,1366,768,9-3-2022,9-17-5,81,depth_duration_stimuli/000929_2014-06-09_16-33-19_260595134347_rgbf000139-resize_0/000929_2014-06-09_16-33-19_260595134347_rgbf000139-resize_0-target.png,250,2.8680000000000003,4.0,2218,248,feet,jsons/v1_VE250_randls_65.json,763107,1054293,25,Man
81,746638,DepthScenes,duration_manipulation_targetAtFixation,jsons/v1_VE250_randls_65.json,http://54.235.29.9/FacialAge/BNav_EC2/DepthDuration/v2_depth_duration_MTurk/v2_DepthDuration_HTML.html#168,168,1242,568,1366,768,9-3-2022,9-17-5,82,depth_duration_stimuli/000457_2014-06-08_16-52-43_260595134347_rgbf000199-resize_1/000457_2014-06-08_16-52-43_260595134347_rgbf000199-resize_1-target.png,250,3.6489999999999996,5.0,2301,251,feet,jsons/v1_VE250_randls_65.json,763107,1054293,25,Man
82,746638,DepthScenes,duration_manipulation_targetAtFixation,jsons/v1_VE250_randls_65.json,http://54.235.29.9/FacialAge/BNav_EC2/DepthDuration/v2_depth_duration_MTurk/v2_DepthDuration_HTML.html#168,168,1242,568,1366,768,9-3-2022,9-17-5,83,depth_duration_stimuli/001066_2014-06-08_22-03-20_260595134347_rgbf000066-resize_4/001066_2014-06-08_22-03-20_260595134347_rgbf000066-resize_4-target.png,250,4.2330000000000005,6.0,2543,250,feet,jsons/v1_VE250_randls_65.json,763107,1054293,25,Man
83,746638,DepthScenes,duration_manipulation_targetAtFixation,jsons/v1_VE250_randls_65.json,http://54.235.29.9/FacialAge/BNav_EC2/DepthDuration/v2_depth_duration_MTurk/v2_DepthDuration_HTML.html#168,168,1242,568,1366,768,9-3-2022,9-17-5,84,depth_duration_stimuli/000742_2014-06-08_18-48-09_260595134347_rgbf000164-resize_4/000742_2014-06-08_18-48-09_260595134347_rgbf000164-resize_4-target.png,250,4.632,5.0,2242,250,feet,jsons/v1_VE250_randls_65.json,763107,1054293,25,Man
84,746638,DepthScenes,duration_manipulation_targetAtFixation,jsons/v1_VE250_randls_65.json,http://54.235.29.9/FacialAge/BNav_EC2/DepthDuration/v2_depth_duration_MTurk/v2_DepthDuration_HTML.html#168,168,1242,568,1366,768,9-3-2022,9-17-5,85,depth_duration_stimuli/001555_2014-06-20_17-12-10_260595134347_rgbf000065-resize_4/001555_2014-06-20_17-12-10_260595134347_rgbf000065-resize_4-target.png,250,1.633,5.0,2227,249,feet,jsons/v1_VE250_randls_65.json,763107,1054293,25,Man
85,746638,DepthScenes,duration_manipulation_targetAtFixation,jsons/v1_VE250_randls_65.json,http://54.235.29.9/FacialAge/BNav_EC2/DepthDuration/v2_depth_duration_MTurk/v2_DepthDuration_HTML.html#168,168,1242,568,1366,768,9-3-2022,9-17-5,86,depth_duration_stimuli/000103_2014-05-14_22-01-17_260595134347_rgbf000152-resize_5/000103_2014-05-14_22-01-17_260595134347_rgbf000152-resize_5-target.png,250,1.993,4.0,4035,250,feet,jsons/v1_VE250_randls_65.json,763107,1054293,25,Man
86,746638,DepthScenes,duration_manipulation_targetAtFixation,jsons/v1_VE250_randls_65.json,http://54.235.29.9/FacialAge/BNav_EC2/DepthDuration/v2_depth_duration_MTurk/v2_DepthDuration_HTML.html#168,168,1242,568,1366,768,9-3-2022,9-17-5,87,depth_duration_stimuli/002788_2014-06-22_19-36-03_094959634447_rgbf000088-resize_2/002788_2014-06-22_19-36-03_094959634447_rgbf000088-resize_2-target.png,250,1.6465,5.0,2377,249,feet,jsons/v1_VE250_randls_65.json,763107,1054293,25,Man
87,746638,DepthScenes,duration_manipulation_targetAtFixation,jsons/v1_VE250_randls_65.json,http://54.235.29.9/FacialAge/BNav_EC2/DepthDuration/v2_depth_duration_MTurk/v2_DepthDuration_HTML.html#168,168,1242,568,1366,768,9-3-2022,9-17-5,88,depth_duration_stimuli/000749_2014-06-08_21-55-06_260595134347_rgbf000070-resize_2/000749_2014-06-08_21-55-06_260595134347_rgbf000070-resize_2-target.png,250,2.331,6.0,2426,250,feet,jsons/v1_VE250_randls_65.json,763107,1054293,25,Man
88,746638,DepthScenes,duration_manipulation_targetAtFixation,jsons/v1_VE250_randls_65.json,http://54.235.29.9/FacialAge/BNav_EC2/DepthDuration/v2_depth_duration_MTurk/v2_DepthDuration_HTML.html#168,168,1242,568,1366,768,9-3-2022,9-17-5,89,depth_duration_stimuli/001029_2014-06-08_13-17-57_260595134347_rgbf000065-resize_1/001029_2014-06-08_13-17-57_260595134347_rgbf000065-resize_1-target.png,250,3.0835,4.0,2426,250,feet,jsons/v1_VE250_randls_65.json,763107,1054293,25,Man
89,746638,DepthScenes,duration_manipulation_targetAtFixation,jsons/v1_VE250_randls_65.json,http://54.235.29.9/FacialAge/BNav_EC2/DepthDuration/v2_depth_duration_MTurk/v2_DepthDuration_HTML.html#168,168,1242,568,1366,768,9-3-2022,9-17-5,90,depth_duration_stimuli/000677_2014-06-08_23-10-32_260595134347_rgbf000158-resize_6/000677_2014-06-08_23-10-32_260595134347_rgbf000158-resize_6-target.png,250,3.556,5.0,2314,250,feet,jsons/v1_VE250_randls_65.json,763107,1054293,25,Man
90,746638,DepthScenes,duration_manipulation_targetAtFixation,jsons/v1_VE250_randls_65.json,http://54.235.29.9/FacialAge/BNav_EC2/DepthDuration/v2_depth_duration_MTurk/v2_DepthDuration_HTML.html#168,168,1242,568,1366,768,9-3-2022,9-17-5,91,depth_duration_stimuli/001150_2014-06-17_15-27-34_260595134347_rgbf000108-resize_2/001150_2014-06-17_15-27-34_260595134347_rgbf000108-resize_2-target.png,250,4.0325,7.0,1906,248,feet,jsons/v1_VE250_randls_65.json,763107,1054293,25,Man
91,746638,DepthScenes,duration_manipulation_targetAtFixation,jsons/v1_VE250_randls_65.json,http://54.235.29.9/FacialAge/BNav_EC2/DepthDuration/v2_depth_duration_MTurk/v2_DepthDuration_HTML.html#168,168,1242,568,1366,768,9-3-2022,9-17-5,92,depth_duration_stimuli/000665_2014-06-09_20-42-35_260595134347_rgbf000110-resize_1/000665_2014-06-09_20-42-35_260595134347_rgbf000110-resize_1-target.png,250,3.057,7.0,2107,249,feet,jsons/v1_VE250_randls_65.json,763107,1054293,25,Man
92,746638,DepthScenes,duration_manipulation_targetAtFixation,jsons/v1_VE250_randls_65.json,http://54.235.29.9/FacialAge/BNav_EC2/DepthDuration/v2_depth_duration_MTurk/v2_DepthDuration_HTML.html#168,168,1242,568,1366,768,9-3-2022,9-17-5,93,depth_duration_stimuli/000758_2014-06-08_22-05-08_260595134347_rgbf000085-resize_0/000758_2014-06-08_22-05-08_260595134347_rgbf000085-resize_0-target.png,250,3.3810000000000002,8.0,3162,249,feet,jsons/v1_VE250_randls_65.json,763107,1054293,25,Man
93,746638,DepthScenes,duration_manipulation_targetAtFixation,jsons/v1_VE250_randls_65.json,http://54.235.29.9/FacialAge/BNav_EC2/DepthDuration/v2_depth_duration_MTurk/v2_DepthDuration_HTML.html#168,168,1242,568,1366,768,9-3-2022,9-17-5,94,depth_duration_stimuli/000854_2014-06-09_19-43-13_260595134347_rgbf000066-resize_0/000854_2014-06-09_19-43-13_260595134347_rgbf000066-resize_0-target.png,250,3.068,7.0,2251,249,feet,jsons/v1_VE250_randls_65.json,763107,1054293,25,Man
94,746638,DepthScenes,duration_manipulation_targetAtFixation,jsons/v1_VE250_randls_65.json,http://54.235.29.9/FacialAge/BNav_EC2/DepthDuration/v2_depth_duration_MTurk/v2_DepthDuration_HTML.html#168,168,1242,568,1366,768,9-3-2022,9-17-5,95,depth_duration_stimuli/001133_2014-06-17_14-49-16_260595134347_rgbf000100-resize_0/001133_2014-06-17_14-49-16_260595134347_rgbf000100-resize_0-target.png,250,4.2115,7.0,2237,249,feet,jsons/v1_VE250_randls_65.json,763107,1054293,25,Man
95,746638,DepthScenes,duration_manipulation_targetAtFixation,jsons/v1_VE250_randls_65.json,http://54.235.29.9/FacialAge/BNav_EC2/DepthDuration/v2_depth_duration_MTurk/v2_DepthDuration_HTML.html#168,168,1242,568,1366,768,9-3-2022,9-17-5,96,depth_duration_stimuli/001132_2014-06-17_14-48-54_260595134347_rgbf000100-resize_2/001132_2014-06-17_14-48-54_260595134347_rgbf000100-resize_2-target.png,250,3.753,4.0,1997,250,feet,jsons/v1_VE250_randls_65.json,763107,1054293,25,Man
96,746638,DepthScenes,duration_manipulation_targetAtFixation,jsons/v1_VE250_randls_65.json,http://54.235.29.9/FacialAge/BNav_EC2/DepthDuration/v2_depth_duration_MTurk/v2_DepthDuration_HTML.html#168,168,1242,568,1366,768,9-3-2022,9-17-5,97,depth_duration_stimuli/000878_2014-06-08_22-52-45_260595134347_rgbf000045-resize_2/000878_2014-06-08_22-52-45_260595134347_rgbf000045-resize_2-target.png,250,2.092,8.0,1942,249,feet,jsons/v1_VE250_randls_65.json,763107,1054293,25,Man
97,746638,DepthScenes,duration_manipulation_targetAtFixation,jsons/v1_VE250_randls_65.json,http://54.235.29.9/FacialAge/BNav_EC2/DepthDuration/v2_depth_duration_MTurk/v2_DepthDuration_HTML.html#168,168,1242,568,1366,768,9-3-2022,9-17-5,98,depth_duration_stimuli/002953_2014-06-08_17-32-18_094959634447_rgbf000059-resize_5/002953_2014-06-08_17-32-18_094959634447_rgbf000059-resize_5-target.png,250,1.551,5.0,1938,249,feet,jsons/v1_VE250_randls_65.json,763107,1054293,25,Man
98,746638,DepthScenes,duration_manipulation_targetAtFixation,jsons/v1_VE250_randls_65.json,http://54.235.29.9/FacialAge/BNav_EC2/DepthDuration/v2_depth_duration_MTurk/v2_DepthDuration_HTML.html#168,168,1242,568,1366,768,9-3-2022,9-17-5,99,depth_duration_stimuli/001540_2014-06-20_17-01-05_260595134347_rgbf000086-resize_2/001540_2014-06-20_17-01-05_260595134347_rgbf000086-resize-original.jpg,250,1.459,5.0,20748,250,feet,jsons/v1_VE250_randls_65.json,763107,1054293,25,Man
99,746638,DepthScenes,duration_manipulation_targetAtFixation,jsons/v1_VE250_randls_65.json,http://54.235.29.9/FacialAge/BNav_EC2/DepthDuration/v2_depth_duration_MTurk/v2_DepthDuration_HTML.html#168,168,1242,568,1366,768,9-3-2022,9-17-5,100,depth_duration_stimuli/000810_2014-06-08_17-20-01_260595134347_rgbf000105-resize_0/000810_2014-06-08_17-20-01_260595134347_rgbf000105-resize_0-target.png,250,1.4865,4.0,3097,250,feet,jsons/v1_VE250_randls_65.json,763107,1054293,25,Man
100,746638,DepthScenes,duration_manipulation_targetAtFixation,jsons/v1_VE250_randls_65.json,http://54.235.29.9/FacialAge/BNav_EC2/DepthDuration/v2_depth_duration_MTurk/v2_DepthDuration_HTML.html#168,168,1242,568,1366,768,9-3-2022,9-17-5,101,depth_duration_stimuli/001214_2014-06-17_16-13-55_260595134347_rgbf000111-resize_0/001214_2014-06-17_16-13-55_260595134347_rgbf000111-resize_0-target.png,250,2.6505,5.0,2114,249,feet,jsons/v1_VE250_randls_65.json,763107,1054293,25,Man
101,746638,DepthScenes,duration_manipulation_targetAtFixation,jsons/v1_VE250_randls_65.json,http://54.235.29.9/FacialAge/BNav_EC2/DepthDuration/v2_depth_duration_MTurk/v2_DepthDuration_HTML.html#168,168,1242,568,1366,768,9-3-2022,9-17-5,102,depth_duration_stimuli/001059_2014-06-08_21-53-27_260595134347_rgbf000061-resize_4/001059_2014-06-08_21-53-27_260595134347_rgbf000061-resize_4-target.png,250,2.4185,25.0,2427,249,feet,jsons/v1_VE250_randls_65.json,763107,1054293,25,Man
102,746638,DepthScenes,duration_manipulation_targetAtFixation,jsons/v1_VE250_randls_65.json,http://54.235.29.9/FacialAge/BNav_EC2/DepthDuration/v2_depth_duration_MTurk/v2_DepthDuration_HTML.html#168,168,1242,568,1366,768,9-3-2022,9-17-5,103,depth_duration_stimuli/001032_2014-06-08_13-23-17_260595134347_rgbf000021-resize_3/001032_2014-06-08_13-23-17_260595134347_rgbf000021-resize_3-target.png,250,3.2725,26.0,2348,249,feet,jsons/v1_VE250_randls_65.json,763107,1054293,25,Man
103,746638,DepthScenes,duration_manipulation_targetAtFixation,jsons/v1_VE250_randls_65.json,http://54.235.29.9/FacialAge/BNav_EC2/DepthDuration/v2_depth_duration_MTurk/v2_DepthDuration_HTML.html#168,168,1242,568,1366,768,9-3-2022,9-17-5,104,depth_duration_stimuli/000906_2014-06-08_13-35-43_260595134347_rgbf000155-resize_1/000906_2014-06-08_13-35-43_260595134347_rgbf000155-resize_1-target.png,250,2.8489999999999998,23.0,2664,250,feet,jsons/v1_VE250_randls_65.json,763107,1054293,25,Man
104,746638,DepthScenes,duration_manipulation_targetAtFixation,jsons/v1_VE250_randls_65.json,http://54.235.29.9/FacialAge/BNav_EC2/DepthDuration/v2_depth_duration_MTurk/v2_DepthDuration_HTML.html#168,168,1242,568,1366,768,9-3-2022,9-17-5,105,depth_duration_stimuli/002805_2014-06-22_19-54-03_094959634447_rgbf000079-resize_1/002805_2014-06-22_19-54-03_094959634447_rgbf000079-resize_1-target.png,250,3.1439999999999997,5.0,2178,249,feet,jsons/v1_VE250_randls_65.json,763107,1054293,25,Man
105,746638,DepthScenes,duration_manipulation_targetAtFixation,jsons/v1_VE250_randls_65.json,http://54.235.29.9/FacialAge/BNav_EC2/DepthDuration/v2_depth_duration_MTurk/v2_DepthDuration_HTML.html#168,168,1242,568,1366,768,9-3-2022,9-17-5,106,depth_duration_stimuli/001806_2014-06-26_20-50-20_260595134347_rgbf000091-resize_1/001806_2014-06-26_20-50-20_260595134347_rgbf000091-resize_1-target.png,250,2.7305,25.0,3403,249,feet,jsons/v1_VE250_randls_65.json,763107,1054293,25,Man
106,746638,DepthScenes,duration_manipulation_targetAtFixation,jsons/v1_VE250_randls_65.json,http://54.235.29.9/FacialAge/BNav_EC2/DepthDuration/v2_depth_duration_MTurk/v2_DepthDuration_HTML.html#168,168,1242,568,1366,768,9-3-2022,9-17-5,107,depth_duration_stimuli/001617_2014-06-20_11-35-32_260595134347_rgbf000066-resize_1/001617_2014-06-20_11-35-32_260595134347_rgbf000066-resize_1-target.png,250,3.7910000000000004,26.0,2644,250,feet,jsons/v1_VE250_randls_65.json,763107,1054293,25,Man
107,746638,DepthScenes,duration_manipulation_targetAtFixation,jsons/v1_VE250_randls_65.json,http://54.235.29.9/FacialAge/BNav_EC2/DepthDuration/v2_depth_duration_MTurk/v2_DepthDuration_HTML.html#168,168,1242,568,1366,768,9-3-2022,9-17-5,108,depth_duration_stimuli/003621_2014-05-23_18-06-08_094959634447_rgbf000101-resize_1/003621_2014-05-23_18-06-08_094959634447_rgbf000101-resize_1-target.png,250,3.9835,15.0,2521,250,feet,jsons/v1_VE250_randls_65.json,763107,1054293,25,Man
108,746638,DepthScenes,duration_manipulation_targetAtFixation,jsons/v1_VE250_randls_65.json,http://54.235.29.9/FacialAge/BNav_EC2/DepthDuration/v2_depth_duration_MTurk/v2_DepthDuration_HTML.html#168,168,1242,568,1366,768,9-3-2022,9-17-5,109,depth_duration_stimuli/001584_2014-06-20_11-07-43_260595134347_rgbf000002-resize_1/001584_2014-06-20_11-07-43_260595134347_rgbf000002-resize_1-target.png,250,3.53,26.0,2238,250,feet,jsons/v1_VE250_randls_65.json,763107,1054293,25,Man
109,746638,DepthScenes,duration_manipulation_targetAtFixation,jsons/v1_VE250_randls_65.json,http://54.235.29.9/FacialAge/BNav_EC2/DepthDuration/v2_depth_duration_MTurk/v2_DepthDuration_HTML.html#168,168,1242,568,1366,768,9-3-2022,9-17-5,110,depth_duration_stimuli/000447_2014-06-08_16-15-46_260595134347_rgbf000130-resize_1/000447_2014-06-08_16-15-46_260595134347_rgbf000130-resize_1-target.png,250,4.479,15.0,2272,251,feet,jsons/v1_VE250_randls_65.json,763107,1054293,25,Man
110,746638,DepthScenes,duration_manipulation_targetAtFixation,jsons/v1_VE250_randls_65.json,http://54.235.29.9/FacialAge/BNav_EC2/DepthDuration/v2_depth_duration_MTurk/v2_DepthDuration_HTML.html#168,168,1242,568,1366,768,9-3-2022,9-17-5,111,depth_duration_stimuli/001447_2014-06-19_17-00-32_260595134347_rgbf000082-resize_5/001447_2014-06-19_17-00-32_260595134347_rgbf000082-resize_5-target.png,250,4.13775,15.0,2155,250,feet,jsons/v1_VE250_randls_65.json,763107,1054293,25,Man
111,746638,DepthScenes,duration_manipulation_targetAtFixation,jsons/v1_VE250_randls_65.json,http://54.235.29.9/FacialAge/BNav_EC2/DepthDuration/v2_depth_duration_MTurk/v2_DepthDuration_HTML.html#168,168,1242,568,1366,768,9-3-2022,9-17-5,112,depth_duration_stimuli/002988_2014-06-15_12-24-20_094959634447_rgbf000150-resize_1/002988_2014-06-15_12-24-20_094959634447_rgbf000150-resize_1-target.png,250,4.7669999999999995,42.0,2505,250,feet,jsons/v1_VE250_randls_65.json,763107,1054293,25,Man
112,746638,DepthScenes,duration_manipulation_targetAtFixation,jsons/v1_VE250_randls_65.json,http://54.235.29.9/FacialAge/BNav_EC2/DepthDuration/v2_depth_duration_MTurk/v2_DepthDuration_HTML.html#168,168,1242,568,1366,768,9-3-2022,9-17-5,113,depth_duration_stimuli/001052_2014-06-08_18-24-54_260595134347_rgbf000130-resize_1/001052_2014-06-08_18-24-54_260595134347_rgbf000130-resize_1-target.png,250,4.1045,25.0,2474,250,feet,jsons/v1_VE250_randls_65.json,763107,1054293,25,Man
113,746638,DepthScenes,duration_manipulation_targetAtFixation,jsons/v1_VE250_randls_65.json,http://54.235.29.9/FacialAge/BNav_EC2/DepthDuration/v2_depth_duration_MTurk/v2_DepthDuration_HTML.html#168,168,1242,568,1366,768,9-3-2022,9-17-5,114,depth_duration_stimuli/001158_2014-06-17_15-32-16_260595134347_rgbf000138-resize_2/001158_2014-06-17_15-32-16_260595134347_rgbf000138-resize_2-target.png,250,4.5315,12.0,3403,250,feet,jsons/v1_VE250_randls_65.json,763107,1054293,25,Man
114,746638,DepthScenes,duration_manipulation_targetAtFixation,jsons/v1_VE250_randls_65.json,http://54.235.29.9/FacialAge/BNav_EC2/DepthDuration/v2_depth_duration_MTurk/v2_DepthDuration_HTML.html#168,168,1242,568,1366,768,9-3-2022,9-17-5,115,depth_duration_stimuli/000556_2014-06-09_22-42-56_260595134347_rgbf000214-resize_1/000556_2014-06-09_22-42-56_260595134347_rgbf000214-resize_1-target.png,250,4.8415,13.0,2570,249,feet,jsons/v1_VE250_randls_65.json,763107,1054293,25,Man
115,746638,DepthScenes,duration_manipulation_targetAtFixation,jsons/v1_VE250_randls_65.json,http://54.235.29.9/FacialAge/BNav_EC2/DepthDuration/v2_depth_duration_MTurk/v2_DepthDuration_HTML.html#168,168,1242,568,1366,768,9-3-2022,9-17-5,116,depth_duration_stimuli/001170_2014-06-17_15-43-44_260595134347_rgbf000096-resize_6/001170_2014-06-17_15-43-44_260595134347_rgbf000096-resize-original.jpg,250,1.1909999999999998,12.0,2507,249,feet,jsons/v1_VE250_randls_65.json,763107,1054293,25,Man
116,746638,DepthScenes,duration_manipulation_targetAtFixation,jsons/v1_VE250_randls_65.json,http://54.235.29.9/FacialAge/BNav_EC2/DepthDuration/v2_depth_duration_MTurk/v2_DepthDuration_HTML.html#168,168,1242,568,1366,768,9-3-2022,9-17-5,117,depth_duration_stimuli/000773_2014-06-08_22-24-54_260595134347_rgbf000093-resize_1/000773_2014-06-08_22-24-54_260595134347_rgbf000093-resize_1-target.png,250,4.973,45.0,2089,250,feet,jsons/v1_VE250_randls_65.json,763107,1054293,25,Man
117,746638,DepthScenes,duration_manipulation_targetAtFixation,jsons/v1_VE250_randls_65.json,http://54.235.29.9/FacialAge/BNav_EC2/DepthDuration/v2_depth_duration_MTurk/v2_DepthDuration_HTML.html#168,168,1242,568,1366,768,9-3-2022,9-17-5,118,depth_duration_stimuli/002414_2014-06-28_20-24-58_260595134347_rgbf000067-resize_4/002414_2014-06-28_20-24-58_260595134347_rgbf000067-resize_4-target.png,250,4.363,42.0,6626,248,feet,jsons/v1_VE250_randls_65.json,763107,1054293,25,Man
118,746638,DepthScenes,duration_manipulation_targetAtFixation,jsons/v1_VE250_randls_65.json,http://54.235.29.9/FacialAge/BNav_EC2/DepthDuration/v2_depth_duration_MTurk/v2_DepthDuration_HTML.html#168,168,1242,568,1366,768,9-3-2022,9-17-5,119,depth_duration_stimuli/003534_2014-05-22_15-06-10_094959634447_rgbf000102-resize_4/003534_2014-05-22_15-06-10_094959634447_rgbf000102-resize_4-target.png,250,1.426,12.0,2507,249,feet,jsons/v1_VE250_randls_65.json,763107,1054293,25,Man
119,746638,DepthScenes,duration_manipulation_targetAtFixation,jsons/v1_VE250_randls_65.json,http://54.235.29.9/FacialAge/BNav_EC2/DepthDuration/v2_depth_duration_MTurk/v2_DepthDuration_HTML.html#168,168,1242,568,1366,768,9-3-2022,9-17-5,120,depth_duration_stimuli/002637_2014-06-24_14-51-13_094959634447_rgbf000066-resize_4/002637_2014-06-24_14-51-13_094959634447_rgbf000066-resize_4-target.png,250,1.9955,12.0,2523,250,feet,jsons/v1_VE250_randls_65.json,763107,1054293,25,Man
120,746638,DepthScenes,duration_manipulation_targetAtFixation,jsons/v1_VE250_randls_65.json,http://54.235.29.9/FacialAge/BNav_EC2/DepthDuration/v2_depth_duration_MTurk/v2_DepthDuration_HTML.html#168,168,1242,568,1366,768,9-3-2022,9-17-5,121,depth_duration_stimuli/002630_2014-06-24_14-47-50_094959634447_rgbf000055-resize_1/002630_2014-06-24_14-47-50_094959634447_rgbf000055-resize_1-target.png,250,3.0095,45.0,2434,249,feet,jsons/v1_VE250_randls_65.json,763107,1054293,25,Man
121,746638,DepthScenes,duration_manipulation_targetAtFixation,jsons/v1_VE250_randls_65.json,http://54.235.29.9/FacialAge/BNav_EC2/DepthDuration/v2_depth_duration_MTurk/v2_DepthDuration_HTML.html#168,168,1242,568,1366,768,9-3-2022,9-17-5,122,depth_duration_stimuli/002758_2014-06-22_19-11-20_094959634447_rgbf000128-resize_1/002758_2014-06-22_19-11-20_094959634447_rgbf000128-resize_1-target.png,250,2.555,12.0,2409,250,feet,jsons/v1_VE250_randls_65.json,763107,1054293,25,Man
122,746638,DepthScenes,duration_manipulation_targetAtFixation,jsons/v1_VE250_randls_65.json,http://54.235.29.9/FacialAge/BNav_EC2/DepthDuration/v2_depth_duration_MTurk/v2_DepthDuration_HTML.html#168,168,1242,568,1366,768,9-3-2022,9-17-5,123,depth_duration_stimuli/002118_2014-06-25_20-32-08_260595134347_rgbf000078-resize_1/002118_2014-06-25_20-32-08_260595134347_rgbf000078-resize_1-target.png,250,2.6460000000000004,53.0,1802,250,feet,jsons/v1_VE250_randls_65.json,763107,1054293,25,Man
123,746638,DepthScenes,duration_manipulation_targetAtFixation,jsons/v1_VE250_randls_65.json,http://54.235.29.9/FacialAge/BNav_EC2/DepthDuration/v2_depth_duration_MTurk/v2_DepthDuration_HTML.html#168,168,1242,568,1366,768,9-3-2022,9-17-5,124,depth_duration_stimuli/001516_2014-06-20_16-25-09_260595134347_rgbf000076-resize_2/001516_2014-06-20_16-25-09_260595134347_rgbf000076-resize_2-target.png,250,1.7445,12.0,2386,250,feet,jsons/v1_VE250_randls_65.json,763107,1054293,25,Man
124,746638,DepthScenes,duration_manipulation_targetAtFixation,jsons/v1_VE250_randls_65.json,http://54.235.29.9/FacialAge/BNav_EC2/DepthDuration/v2_depth_duration_MTurk/v2_DepthDuration_HTML.html#168,168,1242,568,1366,768,9-3-2022,9-17-5,125,depth_duration_stimuli/000739_2014-06-08_18-45-58_260595134347_rgbf000068-resize_1/000739_2014-06-08_18-45-58_260595134347_rgbf000068-resize_1-target.png,250,3.534,23.0,22452,249,feet,jsons/v1_VE250_randls_65.json,763107,1054293,25,Man
125,746638,DepthScenes,duration_manipulation_targetAtFixation,jsons/v1_VE250_randls_65.json,http://54.235.29.9/FacialAge/BNav_EC2/DepthDuration/v2_depth_duration_MTurk/v2_DepthDuration_HTML.html#168,168,1242,568,1366,768,9-3-2022,9-17-5,126,depth_duration_stimuli/000734_2014-06-08_17-39-11_260595134347_rgbf000128-resize_2/000734_2014-06-08_17-39-11_260595134347_rgbf000128-resize_2-target.png,250,4.098,45.0,3211,250,feet,jsons/v1_VE250_randls_65.json,763107,1054293,25,Man
126,746638,DepthScenes,duration_manipulation_targetAtFixation,jsons/v1_VE250_randls_65.json,http://54.235.29.9/FacialAge/BNav_EC2/DepthDuration/v2_depth_duration_MTurk/v2_DepthDuration_HTML.html#168,168,1242,568,1366,768,9-3-2022,9-17-5,127,depth_duration_stimuli/000692_2014-06-08_13-09-42_260595134347_rgbf000199-resize_2/000692_2014-06-08_13-09-42_260595134347_rgbf000199-resize_2-target.png,250,3.661,12.0,15323,250,feet,jsons/v1_VE250_randls_65.json,763107,1054293,25,Man
127,746638,DepthScenes,duration_manipulation_targetAtFixation,jsons/v1_VE250_randls_65.json,http://54.235.29.9/FacialAge/BNav_EC2/DepthDuration/v2_depth_duration_MTurk/v2_DepthDuration_HTML.html#168,168,1242,568,1366,768,9-3-2022,9-17-5,128,depth_duration_stimuli/001094_2014-06-15_17-36-00_260595134347_rgbf000205-resize_0/001094_2014-06-15_17-36-00_260595134347_rgbf000205-resize_0-target.png,250,4.2175,23.0,163838,250,feet,jsons/v1_VE250_randls_65.json,763107,1054293,25,Man
128,746638,DepthScenes,duration_manipulation_targetAtFixation,jsons/v1_VE250_randls_65.json,http://54.235.29.9/FacialAge/BNav_EC2/DepthDuration/v2_depth_duration_MTurk/v2_DepthDuration_HTML.html#168,168,1242,568,1366,768,9-3-2022,9-17-5,129,depth_duration_stimuli/000436_2014-06-09_22-25-11_260595134347_rgbf000137-resize_1/000436_2014-06-09_22-25-11_260595134347_rgbf000137-resize_1-target.png,250,4.0705,12.0,8697,250,feet,jsons/v1_VE250_randls_65.json,763107,1054293,25,Man
129,746638,DepthScenes,duration_manipulation_targetAtFixation,jsons/v1_VE250_randls_65.json,http://54.235.29.9/FacialAge/BNav_EC2/DepthDuration/v2_depth_duration_MTurk/v2_DepthDuration_HTML.html#168,168,1242,568,1366,768,9-3-2022,9-17-5,130,depth_duration_stimuli/002444_2014-06-28_20-32-08_260595134347_rgbf000027-resize_0/002444_2014-06-28_20-32-08_260595134347_rgbf000027-resize_0-target.png,250,4.388999999999999,12.0,2275,249,feet,jsons/v1_VE250_randls_65.json,763107,1054293,25,Man
130,746638,DepthScenes,duration_manipulation_targetAtFixation,jsons/v1_VE250_randls_65.json,http://54.235.29.9/FacialAge/BNav_EC2/DepthDuration/v2_depth_duration_MTurk/v2_DepthDuration_HTML.html#168,168,1242,568,1366,768,9-3-2022,9-17-5,131,depth_duration_stimuli/000486_2014-06-09_20-47-20_260595134347_rgbf000143-resize_2/000486_2014-06-09_20-47-20_260595134347_rgbf000143-resize_2-target.png,250,4.8325,2.0,2051,250,feet,jsons/v1_VE250_randls_65.json,763107,1054293,25,Man
131,746638,DepthScenes,duration_manipulation_targetAtFixation,jsons/v1_VE250_randls_65.json,http://54.235.29.9/FacialAge/BNav_EC2/DepthDuration/v2_depth_duration_MTurk/v2_DepthDuration_HTML.html#168,168,1242,568,1366,768,9-3-2022,9-17-5,132,depth_duration_stimuli/003083_2014-06-15_15-21-03_094959634447_rgbf000063-resize_1/003083_2014-06-15_15-21-03_094959634447_rgbf000063-resize_1-target.png,250,4.1405,2.0,2075,251,feet,jsons/v1_VE250_randls_65.json,763107,1054293,25,Man
132,746638,DepthScenes,duration_manipulation_targetAtFixation,jsons/v1_VE250_randls_65.json,http://54.235.29.9/FacialAge/BNav_EC2/DepthDuration/v2_depth_duration_MTurk/v2_DepthDuration_HTML.html#168,168,1242,568,1366,768,9-3-2022,9-17-5,133,depth_duration_stimuli/002549_2014-06-24_13-41-39_094959634447_rgbf000022-resize_3/002549_2014-06-24_13-41-39_094959634447_rgbf000022-resize_3-target.png,250,1.476,5.0,2234,249,feet,jsons/v1_VE250_randls_65.json,763107,1054293,25,Man
133,746638,DepthScenes,duration_manipulation_targetAtFixation,jsons/v1_VE250_randls_65.json,http://54.235.29.9/FacialAge/BNav_EC2/DepthDuration/v2_depth_duration_MTurk/v2_DepthDuration_HTML.html#168,168,1242,568,1366,768,9-3-2022,9-17-5,134,depth_duration_stimuli/002750_2014-06-22_19-08-03_094959634447_rgbf000094-resize_4/002750_2014-06-22_19-08-03_094959634447_rgbf000094-resize_4-target.png,250,2.354,2.0,1858,251,feet,jsons/v1_VE250_randls_65.json,763107,1054293,25,Man
134,746638,DepthScenes,duration_manipulation_targetAtFixation,jsons/v1_VE250_randls_65.json,http://54.235.29.9/FacialAge/BNav_EC2/DepthDuration/v2_depth_duration_MTurk/v2_DepthDuration_HTML.html#168,168,1242,568,1366,768,9-3-2022,9-17-5,135,depth_duration_stimuli/002072_2014-06-24_21-48-06_260595134347_rgbf000115-resize_0/002072_2014-06-24_21-48-06_260595134347_rgbf000115-resize-original.jpg,250,4.702,2.0,1787,249,feet,jsons/v1_VE250_randls_65.json,763107,1054293,25,Man
135,746638,DepthScenes,duration_manipulation_targetAtFixation,jsons/v1_VE250_randls_65.json,http://54.235.29.9/FacialAge/BNav_EC2/DepthDuration/v2_depth_duration_MTurk/v2_DepthDuration_HTML.html#168,168,1242,568,1366,768,9-3-2022,9-17-5,136,depth_duration_stimuli/002989_2014-06-15_12-25-03_094959634447_rgbf000150-resize_3/002989_2014-06-15_12-25-03_094959634447_rgbf000150-resize_3-target.png,250,4.1975,36.0,3867,249,feet,jsons/v1_VE250_randls_65.json,763107,1054293,25,Man
136,746638,DepthScenes,duration_manipulation_targetAtFixation,jsons/v1_VE250_randls_65.json,http://54.235.29.9/FacialAge/BNav_EC2/DepthDuration/v2_depth_duration_MTurk/v2_DepthDuration_HTML.html#168,168,1242,568,1366,768,9-3-2022,9-17-5,137,depth_duration_stimuli/000866_2014-06-09_20-45-42_260595134347_rgbf000139-resize_1/000866_2014-06-09_20-45-42_260595134347_rgbf000139-resize_1-target.png,250,3.2155,23.0,2290,250,feet,jsons/v1_VE250_randls_65.json,763107,1054293,25,Man
137,746638,DepthScenes,duration_manipulation_targetAtFixation,jsons/v1_VE250_randls_65.json,http://54.235.29.9/FacialAge/BNav_EC2/DepthDuration/v2_depth_duration_MTurk/v2_DepthDuration_HTML.html#168,168,1242,568,1366,768,9-3-2022,9-17-5,138,depth_duration_stimuli/000788_2014-06-08_22-34-36_260595134347_rgbf000131-resize_1/000788_2014-06-08_22-34-36_260595134347_rgbf000131-resize_1-target.png,250,3.359,5.0,3971,250,feet,jsons/v1_VE250_randls_65.json,763107,1054293,25,Man
138,746638,DepthScenes,duration_manipulation_targetAtFixation,jsons/v1_VE250_randls_65.json,http://54.235.29.9/FacialAge/BNav_EC2/DepthDuration/v2_depth_duration_MTurk/v2_DepthDuration_HTML.html#168,168,1242,568,1366,768,9-3-2022,9-17-5,139,depth_duration_stimuli/001235_2014-06-17_16-37-36_260595134347_rgbf000084-resize_4/001235_2014-06-17_16-37-36_260595134347_rgbf000084-resize_4-target.png,250,3.6605,23.0,2491,250,feet,jsons/v1_VE250_randls_65.json,763107,1054293,25,Man
139,746638,DepthScenes,duration_manipulation_targetAtFixation,jsons/v1_VE250_randls_65.json,http://54.235.29.9/FacialAge/BNav_EC2/DepthDuration/v2_depth_duration_MTurk/v2_DepthDuration_HTML.html#168,168,1242,568,1366,768,9-3-2022,9-17-5,140,depth_duration_stimuli/002445_2014-06-28_20-32-16_260595134347_rgbf000029-resize_4/002445_2014-06-28_20-32-16_260595134347_rgbf000029-resize_4-target.png,250,2.5315,53.0,2444,250,feet,jsons/v1_VE250_randls_65.json,763107,1054293,25,Man
140,746638,DepthScenes,duration_manipulation_targetAtFixation,jsons/v1_VE250_randls_65.json,http://54.235.29.9/FacialAge/BNav_EC2/DepthDuration/v2_depth_duration_MTurk/v2_DepthDuration_HTML.html#168,168,1242,568,1366,768,9-3-2022,9-17-5,141,depth_duration_stimuli/000780_2014-06-08_22-28-29_260595134347_rgbf000126-resize_1/000780_2014-06-08_22-28-29_260595134347_rgbf000126-resize_1-target.png,250,3.3825,12.0,2418,249,feet,jsons/v1_VE250_randls_65.json,763107,1054293,25,Man
141,746638,DepthScenes,duration_manipulation_targetAtFixation,jsons/v1_VE250_randls_65.json,http://54.235.29.9/FacialAge/BNav_EC2/DepthDuration/v2_depth_duration_MTurk/v2_DepthDuration_HTML.html#168,168,1242,568,1366,768,9-3-2022,9-17-5,142,depth_duration_stimuli/002905_2014-06-03_18-04-43_094959634447_rgbf000151-resize_2/002905_2014-06-03_18-04-43_094959634447_rgbf000151-resize_2-target.png,250,2.0295,42.0,2433,249,feet,jsons/v1_VE250_randls_65.json,763107,1054293,25,Man
142,746638,DepthScenes,duration_manipulation_targetAtFixation,jsons/v1_VE250_randls_65.json,http://54.235.29.9/FacialAge/BNav_EC2/DepthDuration/v2_depth_duration_MTurk/v2_DepthDuration_HTML.html#168,168,1242,568,1366,768,9-3-2022,9-17-5,143,depth_duration_stimuli/003423_2014-05-21_10-23-26_094959634447_rgbf002665-resize_2/003423_2014-05-21_10-23-26_094959634447_rgbf002665-resize_2-target.png,250,3.2575,12.0,2194,250,feet,jsons/v1_VE250_randls_65.json,763107,1054293,25,Man
143,746638,DepthScenes,duration_manipulation_targetAtFixation,jsons/v1_VE250_randls_65.json,http://54.235.29.9/FacialAge/BNav_EC2/DepthDuration/v2_depth_duration_MTurk/v2_DepthDuration_HTML.html#168,168,1242,568,1366,768,9-3-2022,9-17-5,144,depth_duration_stimuli/000469_2014-06-09_19-42-10_260595134347_rgbf000081-resize_1/000469_2014-06-09_19-42-10_260595134347_rgbf000081-resize_1-target.png,250,1.652,63.0,2307,250,feet,jsons/v1_VE250_randls_65.json,763107,1054293,25,Man
144,746638,DepthScenes,duration_manipulation_targetAtFixation,jsons/v1_VE250_randls_65.json,http://54.235.29.9/FacialAge/BNav_EC2/DepthDuration/v2_depth_duration_MTurk/v2_DepthDuration_HTML.html#168,168,1242,568,1366,768,9-3-2022,9-17-5,145,depth_duration_stimuli/000483_2014-06-09_20-41-45_260595134347_rgbf000116-resize_4/000483_2014-06-09_20-41-45_260595134347_rgbf000116-resize_4-target.png,250,1.337,23.0,2065,250,feet,jsons/v1_VE250_randls_65.json,763107,1054293,25,Man
145,746638,DepthScenes,duration_manipulation_targetAtFixation,jsons/v1_VE250_randls_65.json,http://54.235.29.9/FacialAge/BNav_EC2/DepthDuration/v2_depth_duration_MTurk/v2_DepthDuration_HTML.html#168,168,1242,568,1366,768,9-3-2022,9-17-5,146,depth_duration_stimuli/001498_2014-06-19_17-45-14_260595134347_rgbf000129-resize_4/001498_2014-06-19_17-45-14_260595134347_rgbf000129-resize-original.jpg,250,1.4075,12.0,12227,250,feet,jsons/v1_VE250_randls_65.json,763107,1054293,25,Man
146,746638,DepthScenes,duration_manipulation_targetAtFixation,jsons/v1_VE250_randls_65.json,http://54.235.29.9/FacialAge/BNav_EC2/DepthDuration/v2_depth_duration_MTurk/v2_DepthDuration_HTML.html#168,168,1242,568,1366,768,9-3-2022,9-17-5,147,depth_duration_stimuli/001110_2014-06-15_17-25-28_260595134347_rgbf000150-resize_1/001110_2014-06-15_17-25-28_260595134347_rgbf000150-resize_1-target.png,250,1.7115,45.0,2577,249,feet,jsons/v1_VE250_randls_65.json,763107,1054293,25,Man
147,746638,DepthScenes,duration_manipulation_targetAtFixation,jsons/v1_VE250_randls_65.json,http://54.235.29.9/FacialAge/BNav_EC2/DepthDuration/v2_depth_duration_MTurk/v2_DepthDuration_HTML.html#168,168,1242,568,1366,768,9-3-2022,9-17-5,148,depth_duration_stimuli/000927_2014-06-09_16-32-30_260595134347_rgbf000123-resize_3/000927_2014-06-09_16-32-30_260595134347_rgbf000123-resize_3-target.png,250,2.6785,23.0,2355,249,feet,jsons/v1_VE250_randls_65.json,763107,1054293,25,Man
148,746638,DepthScenes,duration_manipulation_targetAtFixation,jsons/v1_VE250_randls_65.json,http://54.235.29.9/FacialAge/BNav_EC2/DepthDuration/v2_depth_duration_MTurk/v2_DepthDuration_HTML.html#168,168,1242,568,1366,768,9-3-2022,9-17-5,149,depth_duration_stimuli/000470_2014-06-09_19-42-40_260595134347_rgbf000094-resize_1/000470_2014-06-09_19-42-40_260595134347_rgbf000094-resize_1-target.png,250,1.831,42.0,2267,249,feet,jsons/v1_VE250_randls_65.json,763107,1054293,25,Man
149,746638,DepthScenes,duration_manipulation_targetAtFixation,jsons/v1_VE250_randls_65.json,http://54.235.29.9/FacialAge/BNav_EC2/DepthDuration/v2_depth_duration_MTurk/v2_DepthDuration_HTML.html#168,168,1242,568,1366,768,9-3-2022,9-17-5,150,depth_duration_stimuli/000109_2014-05-14_23-41-52_260595134347_rgbf000035-resize_9/000109_2014-05-14_23-41-52_260595134347_rgbf000035-resize_9-target.png,250,1.3545,12.0,2235,249,feet,jsons/v1_VE250_randls_65.json,763107,1054293,25,Man
150,746638,DepthScenes,duration_manipulation_targetAtFixation,jsons/v1_VE250_randls_65.json,http://54.235.29.9/FacialAge/BNav_EC2/DepthDuration/v2_depth_duration_MTurk/v2_DepthDuration_HTML.html#168,168,1242,568,1366,768,9-3-2022,9-17-5,151,depth_duration_stimuli/001808_2014-06-26_20-50-58_260595134347_rgbf000029-resize_1/001808_2014-06-26_20-50-58_260595134347_rgbf000029-resize_1-target.png,250,4.249,12.0,4434,250,feet,jsons/v1_VE250_randls_65.json,763107,1054293,25,Man
151,746638,DepthScenes,duration_manipulation_targetAtFixation,jsons/v1_VE250_randls_65.json,http://54.235.29.9/FacialAge/BNav_EC2/DepthDuration/v2_depth_duration_MTurk/v2_DepthDuration_HTML.html#168,168,1242,568,1366,768,9-3-2022,9-17-5,152,depth_duration_stimuli/001815_2014-06-26_20-52-55_260595134347_rgbf000020-resize_0/001815_2014-06-26_20-52-55_260595134347_rgbf000020-resize_0-target.png,250,3.3865,23.0,1857,250,feet,jsons/v1_VE250_randls_65.json,763107,1054293,25,Man
152,746638,DepthScenes,duration_manipulation_targetAtFixation,jsons/v1_VE250_randls_65.json,http://54.235.29.9/FacialAge/BNav_EC2/DepthDuration/v2_depth_duration_MTurk/v2_DepthDuration_HTML.html#168,168,1242,568,1366,768,9-3-2022,9-17-5,153,depth_duration_stimuli/002763_2014-06-22_19-13-10_094959634447_rgbf000075-resize_4/002763_2014-06-22_19-13-10_094959634447_rgbf000075-resize_4-target.png,250,1.68375,25.0,3211,249,feet,jsons/v1_VE250_randls_65.json,763107,1054293,25,Man
153,746638,DepthScenes,duration_manipulation_targetAtFixation,jsons/v1_VE250_randls_65.json,http://54.235.29.9/FacialAge/BNav_EC2/DepthDuration/v2_depth_duration_MTurk/v2_DepthDuration_HTML.html#168,168,1242,568,1366,768,9-3-2022,9-17-5,154,depth_duration_stimuli/002209_2014-06-28_18-36-10_260595134347_rgbf000051-resize_1/002209_2014-06-28_18-36-10_260595134347_rgbf000051-resize_1-target.png,250,2.057,23.0,2874,250,feet,jsons/v1_VE250_randls_65.json,763107,1054293,25,Man
154,746638,DepthScenes,duration_manipulation_targetAtFixation,jsons/v1_VE250_randls_65.json,http://54.235.29.9/FacialAge/BNav_EC2/DepthDuration/v2_depth_duration_MTurk/v2_DepthDuration_HTML.html#168,168,1242,568,1366,768,9-3-2022,9-17-5,155,depth_duration_stimuli/002725_2014-06-22_11-47-51_094959634447_rgbf000070-resize_1/002725_2014-06-22_11-47-51_094959634447_rgbf000070-resize_1-target.png,250,2.195,25.0,2345,250,feet,jsons/v1_VE250_randls_65.json,763107,1054293,25,Man
155,746638,DepthScenes,duration_manipulation_targetAtFixation,jsons/v1_VE250_randls_65.json,http://54.235.29.9/FacialAge/BNav_EC2/DepthDuration/v2_depth_duration_MTurk/v2_DepthDuration_HTML.html#168,168,1242,568,1366,768,9-3-2022,9-17-5,156,depth_duration_stimuli/002344_2014-06-28_20-06-29_260595134347_rgbf000030-resize_1/002344_2014-06-28_20-06-29_260595134347_rgbf000030-resize_1-target.png,250,1.5795,22.0,3828,249,feet,jsons/v1_VE250_randls_65.json,763107,1054293,25,Man
156,746638,DepthScenes,duration_manipulation_targetAtFixation,jsons/v1_VE250_randls_65.json,http://54.235.29.9/FacialAge/BNav_EC2/DepthDuration/v2_depth_duration_MTurk/v2_DepthDuration_HTML.html#168,168,1242,568,1366,768,9-3-2022,9-17-5,157,depth_duration_stimuli/000682_2014-06-08_23-14-58_260595134347_rgbf000041-resize_5/000682_2014-06-08_23-14-58_260595134347_rgbf000041-resize_5-target.png,250,2.7239999999999998,25.0,2224,250,feet,jsons/v1_VE250_randls_65.json,763107,1054293,25,Man
157,746638,DepthScenes,duration_manipulation_targetAtFixation,jsons/v1_VE250_randls_65.json,http://54.235.29.9/FacialAge/BNav_EC2/DepthDuration/v2_depth_duration_MTurk/v2_DepthDuration_HTML.html#168,168,1242,568,1366,768,9-3-2022,9-17-5,158,depth_duration_stimuli/001650_2014-06-20_12-09-00_260595134347_rgbf000087-resize_3/001650_2014-06-20_12-09-00_260595134347_rgbf000087-resize_3-target.png,250,1.9505,15.0,3649,250,feet,jsons/v1_VE250_randls_65.json,763107,1054293,25,Man
158,746638,DepthScenes,duration_manipulation_targetAtFixation,jsons/v1_VE250_randls_65.json,http://54.235.29.9/FacialAge/BNav_EC2/DepthDuration/v2_depth_duration_MTurk/v2_DepthDuration_HTML.html#168,168,1242,568,1366,768,9-3-2022,9-17-5,159,depth_duration_stimuli/000522_2014-06-08_13-35-06_260595134347_rgbf000244-resize_1/000522_2014-06-08_13-35-06_260595134347_rgbf000244-resize_1-target.png,250,2.3715,42.0,2674,249,feet,jsons/v1_VE250_randls_65.json,763107,1054293,25,Man
159,746638,DepthScenes,duration_manipulation_targetAtFixation,jsons/v1_VE250_randls_65.json,http://54.235.29.9/FacialAge/BNav_EC2/DepthDuration/v2_depth_duration_MTurk/v2_DepthDuration_HTML.html#168,168,1242,568,1366,768,9-3-2022,9-17-5,160,depth_duration_stimuli/002949_2014-06-26_15-57-42_094959634447_rgbf000079-resize_1/002949_2014-06-26_15-57-42_094959634447_rgbf000079-resize_1-target.png,250,1.8915,12.0,2483,249,feet,jsons/v1_VE250_randls_65.json,763107,1054293,25,Man
160,746638,DepthScenes,duration_manipulation_targetAtFixation,jsons/v1_VE250_randls_65.json,http://54.235.29.9/FacialAge/BNav_EC2/DepthDuration/v2_depth_duration_MTurk/v2_DepthDuration_HTML.html#168,168,1242,568,1366,768,9-3-2022,9-17-5,161,depth_duration_stimuli/002375_2014-06-28_20-13-44_260595134347_rgbf000032-resize_1/002375_2014-06-28_20-13-44_260595134347_rgbf000032-resize_1-target.png,250,4.0175,25.0,2538,249,feet,jsons/v1_VE250_randls_65.json,763107,1054293,25,Man
161,746638,DepthScenes,duration_manipulation_targetAtFixation,jsons/v1_VE250_randls_65.json,http://54.235.29.9/FacialAge/BNav_EC2/DepthDuration/v2_depth_duration_MTurk/v2_DepthDuration_HTML.html#168,168,1242,568,1366,768,9-3-2022,9-17-5,162,depth_duration_stimuli/002657_2014-06-13_15-29-54_094959634447_rgbf000150-resize_1/002657_2014-06-13_15-29-54_094959634447_rgbf000150-resize_1-target.png,250,4.919,23.0,3203,249,feet,jsons/v1_VE250_randls_65.json,763107,1054293,25,Man
162,746638,DepthScenes,duration_manipulation_targetAtFixation,jsons/v1_VE250_randls_65.json,http://54.235.29.9/FacialAge/BNav_EC2/DepthDuration/v2_depth_duration_MTurk/v2_DepthDuration_HTML.html#168,168,1242,568,1366,768,9-3-2022,9-17-5,163,depth_duration_stimuli/003492_2014-05-21_15-50-55_094959634447_rgbf000828-resize_1/003492_2014-05-21_15-50-55_094959634447_rgbf000828-resize_1-target.png,250,4.06875,12.0,2466,250,feet,jsons/v1_VE250_randls_65.json,763107,1054293,25,Man
163,746638,DepthScenes,duration_manipulation_targetAtFixation,jsons/v1_VE250_randls_65.json,http://54.235.29.9/FacialAge/BNav_EC2/DepthDuration/v2_depth_duration_MTurk/v2_DepthDuration_HTML.html#168,168,1242,568,1366,768,9-3-2022,9-17-5,164,depth_duration_stimuli/002568_2014-06-24_13-59-21_094959634447_rgbf000062-resize_4/002568_2014-06-24_13-59-21_094959634447_rgbf000062-resize_4-target.png,250,3.015,53.0,2434,250,feet,jsons/v1_VE250_randls_65.json,763107,1054293,25,Man
