,subjID,experimentName,versionName,sequenceName,url,selected_row,windowWidth,windowHeight,screenWidth,screenHeight,startDate,startTime,trial,stimulus,duration,actual_depth,depth_estimate,trial_RT,log_sceneDuration,unitSelection,seq_filepath,experimentTime,totalTime,age,gender
0,746713,DepthScenes,duration_manipulation_targetAtFixation,jsons/VE125_randls_67.json,http://54.235.29.9/FacialAge/BNav_EC2/DepthDuration/v2_depth_duration_MTurk/v2_DepthDuration_HTML.html#122,122,1366,625,1366,768,8-21-2022,13-37-0,1,depth_duration_stimuli/000906_2014-06-08_13-35-43_260595134347_rgbf000155-resize_1/000906_2014-06-08_13-35-43_260595134347_rgbf000155-resize_1-target.png,125,2.8489999999999998,1,3600,134,meters,jsons/VE125_randls_67.json,546384,812245,47,Man
1,746713,DepthScenes,duration_manipulation_targetAtFixation,jsons/VE125_randls_67.json,http://54.235.29.9/FacialAge/BNav_EC2/DepthDuration/v2_depth_duration_MTurk/v2_DepthDuration_HTML.html#122,122,1366,625,1366,768,8-21-2022,13-37-0,2,depth_duration_stimuli/002805_2014-06-22_19-54-03_094959634447_rgbf000079-resize_1/002805_2014-06-22_19-54-03_094959634447_rgbf000079-resize_1-target.png,125,3.1439999999999997,1,2844,130,meters,jsons/VE125_randls_67.json,546384,812245,47,Man
2,746713,DepthScenes,duration_manipulation_targetAtFixation,jsons/VE125_randls_67.json,http://54.235.29.9/FacialAge/BNav_EC2/DepthDuration/v2_depth_duration_MTurk/v2_DepthDuration_HTML.html#122,122,1366,625,1366,768,8-21-2022,13-37-0,3,depth_duration_stimuli/002725_2014-06-22_11-47-51_094959634447_rgbf000070-resize_1/002725_2014-06-22_11-47-51_094959634447_rgbf000070-resize_1-target.png,125,2.195,1,3131,211,meters,jsons/VE125_randls_67.json,546384,812245,47,Man
3,746713,DepthScenes,duration_manipulation_targetAtFixation,jsons/VE125_randls_67.json,http://54.235.29.9/FacialAge/BNav_EC2/DepthDuration/v2_depth_duration_MTurk/v2_DepthDuration_HTML.html#122,122,1366,625,1366,768,8-21-2022,13-37-0,4,depth_duration_stimuli/002344_2014-06-28_20-06-29_260595134347_rgbf000030-resize_1/002344_2014-06-28_20-06-29_260595134347_rgbf000030-resize_1-target.png,125,1.5795,1,2744,111,meters,jsons/VE125_randls_67.json,546384,812245,47,Man
4,746713,DepthScenes,duration_manipulation_targetAtFixation,jsons/VE125_randls_67.json,http://54.235.29.9/FacialAge/BNav_EC2/DepthDuration/v2_depth_duration_MTurk/v2_DepthDuration_HTML.html#122,122,1366,625,1366,768,8-21-2022,13-37-0,5,depth_duration_stimuli/002570_2014-06-24_13-59-54_094959634447_rgbf000059-resize_0/002570_2014-06-24_13-59-54_094959634447_rgbf000059-resize_0-target.png,125,4.037,1,2282,116,meters,jsons/VE125_randls_67.json,546384,812245,47,Man
5,746713,DepthScenes,duration_manipulation_targetAtFixation,jsons/VE125_randls_67.json,http://54.235.29.9/FacialAge/BNav_EC2/DepthDuration/v2_depth_duration_MTurk/v2_DepthDuration_HTML.html#122,122,1366,625,1366,768,8-21-2022,13-37-0,6,depth_duration_stimuli/002467_2014-06-28_20-38-07_260595134347_rgbf000026-resize_2/002467_2014-06-28_20-38-07_260595134347_rgbf000026-resize_2-target.png,125,4.742,1,2689,124,meters,jsons/VE125_randls_67.json,546384,812245,47,Man
6,746713,DepthScenes,duration_manipulation_targetAtFixation,jsons/VE125_randls_67.json,http://54.235.29.9/FacialAge/BNav_EC2/DepthDuration/v2_depth_duration_MTurk/v2_DepthDuration_HTML.html#122,122,1366,625,1366,768,8-21-2022,13-37-0,7,depth_duration_stimuli/000447_2014-06-08_16-15-46_260595134347_rgbf000130-resize_1/000447_2014-06-08_16-15-46_260595134347_rgbf000130-resize_1-target.png,125,4.479,1,2223,127,meters,jsons/VE125_randls_67.json,546384,812245,47,Man
7,746713,DepthScenes,duration_manipulation_targetAtFixation,jsons/VE125_randls_67.json,http://54.235.29.9/FacialAge/BNav_EC2/DepthDuration/v2_depth_duration_MTurk/v2_DepthDuration_HTML.html#122,122,1366,625,1366,768,8-21-2022,13-37-0,8,depth_duration_stimuli/001447_2014-06-19_17-00-32_260595134347_rgbf000082-resize_5/001447_2014-06-19_17-00-32_260595134347_rgbf000082-resize_5-target.png,125,4.13775,1,2206,113,meters,jsons/VE125_randls_67.json,546384,812245,47,Man
8,746713,DepthScenes,duration_manipulation_targetAtFixation,jsons/VE125_randls_67.json,http://54.235.29.9/FacialAge/BNav_EC2/DepthDuration/v2_depth_duration_MTurk/v2_DepthDuration_HTML.html#122,122,1366,625,1366,768,8-21-2022,13-37-0,9,depth_duration_stimuli/001164_2014-06-17_15-35-46_260595134347_rgbf000085-resize_3/001164_2014-06-17_15-35-46_260595134347_rgbf000085-resize_3-target.png,125,2.354,1,2366,72,meters,jsons/VE125_randls_67.json,546384,812245,47,Man
9,746713,DepthScenes,duration_manipulation_targetAtFixation,jsons/VE125_randls_67.json,http://54.235.29.9/FacialAge/BNav_EC2/DepthDuration/v2_depth_duration_MTurk/v2_DepthDuration_HTML.html#122,122,1366,625,1366,768,8-21-2022,13-37-0,10,depth_duration_stimuli/001136_2014-06-17_15-19-41_260595134347_rgbf000076-resize_3/001136_2014-06-17_15-19-41_260595134347_rgbf000076-resize_3-target.png,125,1.8655,1,2263,108,meters,jsons/VE125_randls_67.json,546384,812245,47,Man
10,746713,DepthScenes,duration_manipulation_targetAtFixation,jsons/VE125_randls_67.json,http://54.235.29.9/FacialAge/BNav_EC2/DepthDuration/v2_depth_duration_MTurk/v2_DepthDuration_HTML.html#122,122,1366,625,1366,768,8-21-2022,13-37-0,11,depth_duration_stimuli/001066_2014-06-08_22-03-20_260595134347_rgbf000066-resize_4/001066_2014-06-08_22-03-20_260595134347_rgbf000066-resize_4-target.png,125,4.2330000000000005,0,3609,43,meters,jsons/VE125_randls_67.json,546384,812245,47,Man
11,746713,DepthScenes,duration_manipulation_targetAtFixation,jsons/VE125_randls_67.json,http://54.235.29.9/FacialAge/BNav_EC2/DepthDuration/v2_depth_duration_MTurk/v2_DepthDuration_HTML.html#122,122,1366,625,1366,768,8-21-2022,13-37-0,12,depth_duration_stimuli/000742_2014-06-08_18-48-09_260595134347_rgbf000164-resize_4/000742_2014-06-08_18-48-09_260595134347_rgbf000164-resize_4-target.png,125,4.632,1,2418,121,meters,jsons/VE125_randls_67.json,546384,812245,47,Man
12,746713,DepthScenes,duration_manipulation_targetAtFixation,jsons/VE125_randls_67.json,http://54.235.29.9/FacialAge/BNav_EC2/DepthDuration/v2_depth_duration_MTurk/v2_DepthDuration_HTML.html#122,122,1366,625,1366,768,8-21-2022,13-37-0,13,depth_duration_stimuli/000569_2014-06-09_22-51-47_260595134347_rgbf000141-resize_3/000569_2014-06-09_22-51-47_260595134347_rgbf000141-resize-original.jpg,125,4.512,0,6470,124,meters,jsons/VE125_randls_67.json,546384,812245,47,Man
13,746713,DepthScenes,duration_manipulation_targetAtFixation,jsons/VE125_randls_67.json,http://54.235.29.9/FacialAge/BNav_EC2/DepthDuration/v2_depth_duration_MTurk/v2_DepthDuration_HTML.html#122,122,1366,625,1366,768,8-21-2022,13-37-0,14,depth_duration_stimuli/001056_2014-06-08_18-46-44_260595134347_rgbf000068-resize_0/001056_2014-06-08_18-46-44_260595134347_rgbf000068-resize_0-target.png,125,2.6625,0,3409,4,meters,jsons/VE125_randls_67.json,546384,812245,47,Man
14,746713,DepthScenes,duration_manipulation_targetAtFixation,jsons/VE125_randls_67.json,http://54.235.29.9/FacialAge/BNav_EC2/DepthDuration/v2_depth_duration_MTurk/v2_DepthDuration_HTML.html#122,122,1366,625,1366,768,8-21-2022,13-37-0,15,depth_duration_stimuli/002199_2014-06-28_18-33-56_260595134347_rgbf000074-resize_0/002199_2014-06-28_18-33-56_260595134347_rgbf000074-resize_0-target.png,125,1.996,1,3635,128,meters,jsons/VE125_randls_67.json,546384,812245,47,Man
15,746713,DepthScenes,duration_manipulation_targetAtFixation,jsons/VE125_randls_67.json,http://54.235.29.9/FacialAge/BNav_EC2/DepthDuration/v2_depth_duration_MTurk/v2_DepthDuration_HTML.html#122,122,1366,625,1366,768,8-21-2022,13-37-0,16,depth_duration_stimuli/000493_2014-06-09_21-01-18_260595134347_rgbf000196-resize_3/000493_2014-06-09_21-01-18_260595134347_rgbf000196-resize_3-target.png,125,3.44,1,2110,129,meters,jsons/VE125_randls_67.json,546384,812245,47,Man
16,746713,DepthScenes,duration_manipulation_targetAtFixation,jsons/VE125_randls_67.json,http://54.235.29.9/FacialAge/BNav_EC2/DepthDuration/v2_depth_duration_MTurk/v2_DepthDuration_HTML.html#122,122,1366,625,1366,768,8-21-2022,13-37-0,17,depth_duration_stimuli/000191_2014-05-12_17-07-38_260595134347_rgbf000199-resize_0/000191_2014-05-12_17-07-38_260595134347_rgbf000199-resize_0-target.png,125,3.7995,1,2235,120,meters,jsons/VE125_randls_67.json,546384,812245,47,Man
17,746713,DepthScenes,duration_manipulation_targetAtFixation,jsons/VE125_randls_67.json,http://54.235.29.9/FacialAge/BNav_EC2/DepthDuration/v2_depth_duration_MTurk/v2_DepthDuration_HTML.html#122,122,1366,625,1366,768,8-21-2022,13-37-0,18,depth_duration_stimuli/000469_2014-06-09_19-42-10_260595134347_rgbf000081-resize_1/000469_2014-06-09_19-42-10_260595134347_rgbf000081-resize_1-target.png,125,1.652,1,2125,95,meters,jsons/VE125_randls_67.json,546384,812245,47,Man
18,746713,DepthScenes,duration_manipulation_targetAtFixation,jsons/VE125_randls_67.json,http://54.235.29.9/FacialAge/BNav_EC2/DepthDuration/v2_depth_duration_MTurk/v2_DepthDuration_HTML.html#122,122,1366,625,1366,768,8-21-2022,13-37-0,19,depth_duration_stimuli/000483_2014-06-09_20-41-45_260595134347_rgbf000116-resize_4/000483_2014-06-09_20-41-45_260595134347_rgbf000116-resize_4-target.png,125,1.337,1,2210,128,meters,jsons/VE125_randls_67.json,546384,812245,47,Man
19,746713,DepthScenes,duration_manipulation_targetAtFixation,jsons/VE125_randls_67.json,http://54.235.29.9/FacialAge/BNav_EC2/DepthDuration/v2_depth_duration_MTurk/v2_DepthDuration_HTML.html#122,122,1366,625,1366,768,8-21-2022,13-37-0,20,depth_duration_stimuli/001016_2014-06-09_16-16-10_260595134347_rgbf000112-resize_5/001016_2014-06-09_16-16-10_260595134347_rgbf000112-resize_5-target.png,125,1.6565,1,1984,123,meters,jsons/VE125_randls_67.json,546384,812245,47,Man
20,746713,DepthScenes,duration_manipulation_targetAtFixation,jsons/VE125_randls_67.json,http://54.235.29.9/FacialAge/BNav_EC2/DepthDuration/v2_depth_duration_MTurk/v2_DepthDuration_HTML.html#122,122,1366,625,1366,768,8-21-2022,13-37-0,21,depth_duration_stimuli/002340_2014-06-28_20-05-46_260595134347_rgbf000113-resize_0/002340_2014-06-28_20-05-46_260595134347_rgbf000113-resize_0-target.png,125,2.4735,1,2134,108,meters,jsons/VE125_randls_67.json,546384,812245,47,Man
21,746713,DepthScenes,duration_manipulation_targetAtFixation,jsons/VE125_randls_67.json,http://54.235.29.9/FacialAge/BNav_EC2/DepthDuration/v2_depth_duration_MTurk/v2_DepthDuration_HTML.html#122,122,1366,625,1366,768,8-21-2022,13-37-0,22,depth_duration_stimuli/002763_2014-06-22_19-13-10_094959634447_rgbf000075-resize_4/002763_2014-06-22_19-13-10_094959634447_rgbf000075-resize_4-target.png,125,1.68375,1,2798,138,meters,jsons/VE125_randls_67.json,546384,812245,47,Man
22,746713,DepthScenes,duration_manipulation_targetAtFixation,jsons/VE125_randls_67.json,http://54.235.29.9/FacialAge/BNav_EC2/DepthDuration/v2_depth_duration_MTurk/v2_DepthDuration_HTML.html#122,122,1366,625,1366,768,8-21-2022,13-37-0,23,depth_duration_stimuli/002209_2014-06-28_18-36-10_260595134347_rgbf000051-resize_1/002209_2014-06-28_18-36-10_260595134347_rgbf000051-resize_1-target.png,125,2.057,0,3164,110,meters,jsons/VE125_randls_67.json,546384,812245,47,Man
23,746713,DepthScenes,duration_manipulation_targetAtFixation,jsons/VE125_randls_67.json,http://54.235.29.9/FacialAge/BNav_EC2/DepthDuration/v2_depth_duration_MTurk/v2_DepthDuration_HTML.html#122,122,1366,625,1366,768,8-21-2022,13-37-0,24,depth_duration_stimuli/000736_2014-06-08_18-24-15_260595134347_rgbf000206-resize_3/000736_2014-06-08_18-24-15_260595134347_rgbf000206-resize_3-target.png,125,3.515,1,2725,121,meters,jsons/VE125_randls_67.json,546384,812245,47,Man
24,746713,DepthScenes,duration_manipulation_targetAtFixation,jsons/VE125_randls_67.json,http://54.235.29.9/FacialAge/BNav_EC2/DepthDuration/v2_depth_duration_MTurk/v2_DepthDuration_HTML.html#122,122,1366,625,1366,768,8-21-2022,13-37-0,25,depth_duration_stimuli/000137_2014-05-20_17-04-49_260595134347_rgbf000120-resize_1/000137_2014-05-20_17-04-49_260595134347_rgbf000120-resize_1-target.png,125,3.786,1,1899,125,meters,jsons/VE125_randls_67.json,546384,812245,47,Man
25,746713,DepthScenes,duration_manipulation_targetAtFixation,jsons/VE125_randls_67.json,http://54.235.29.9/FacialAge/BNav_EC2/DepthDuration/v2_depth_duration_MTurk/v2_DepthDuration_HTML.html#122,122,1366,625,1366,768,8-21-2022,13-37-0,26,depth_duration_stimuli/001199_2014-06-17_16-03-48_260595134347_rgbf000077-resize_0/001199_2014-06-17_16-03-48_260595134347_rgbf000077-resize_0-target.png,125,3.4375,1,2490,139,meters,jsons/VE125_randls_67.json,546384,812245,47,Man
26,746713,DepthScenes,duration_manipulation_targetAtFixation,jsons/VE125_randls_67.json,http://54.235.29.9/FacialAge/BNav_EC2/DepthDuration/v2_depth_duration_MTurk/v2_DepthDuration_HTML.html#122,122,1366,625,1366,768,8-21-2022,13-37-0,27,depth_duration_stimuli/000502_2014-06-08_23-02-32_260595134347_rgbf000063-resize_4/000502_2014-06-08_23-02-32_260595134347_rgbf000063-resize_4-target.png,125,2.431,1,1937,118,meters,jsons/VE125_randls_67.json,546384,812245,47,Man
27,746713,DepthScenes,duration_manipulation_targetAtFixation,jsons/VE125_randls_67.json,http://54.235.29.9/FacialAge/BNav_EC2/DepthDuration/v2_depth_duration_MTurk/v2_DepthDuration_HTML.html#122,122,1366,625,1366,768,8-21-2022,13-37-0,28,depth_duration_stimuli/000682_2014-06-08_23-14-58_260595134347_rgbf000041-resize_5/000682_2014-06-08_23-14-58_260595134347_rgbf000041-resize_5-target.png,125,2.7239999999999998,1,1788,129,meters,jsons/VE125_randls_67.json,546384,812245,47,Man
28,746713,DepthScenes,duration_manipulation_targetAtFixation,jsons/VE125_randls_67.json,http://54.235.29.9/FacialAge/BNav_EC2/DepthDuration/v2_depth_duration_MTurk/v2_DepthDuration_HTML.html#122,122,1366,625,1366,768,8-21-2022,13-37-0,29,depth_duration_stimuli/001650_2014-06-20_12-09-00_260595134347_rgbf000087-resize_3/001650_2014-06-20_12-09-00_260595134347_rgbf000087-resize_3-target.png,125,1.9505,2,2909,118,meters,jsons/VE125_randls_67.json,546384,812245,47,Man
29,746713,DepthScenes,duration_manipulation_targetAtFixation,jsons/VE125_randls_67.json,http://54.235.29.9/FacialAge/BNav_EC2/DepthDuration/v2_depth_duration_MTurk/v2_DepthDuration_HTML.html#122,122,1366,625,1366,768,8-21-2022,13-37-0,30,depth_duration_stimuli/000375_2014-06-08_11-17-29_260595134347_rgbf000133-resize_2/000375_2014-06-08_11-17-29_260595134347_rgbf000133-resize-original.jpg,125,4.718,0,3193,115,meters,jsons/VE125_randls_67.json,546384,812245,47,Man
30,746713,DepthScenes,duration_manipulation_targetAtFixation,jsons/VE125_randls_67.json,http://54.235.29.9/FacialAge/BNav_EC2/DepthDuration/v2_depth_duration_MTurk/v2_DepthDuration_HTML.html#122,122,1366,625,1366,768,8-21-2022,13-37-0,31,depth_duration_stimuli/001244_2014-06-17_16-47-45_260595134347_rgbf000030-resize_4/001244_2014-06-17_16-47-45_260595134347_rgbf000030-resize_4-target.png,125,2.0425,1,2446,130,meters,jsons/VE125_randls_67.json,546384,812245,47,Man
31,746713,DepthScenes,duration_manipulation_targetAtFixation,jsons/VE125_randls_67.json,http://54.235.29.9/FacialAge/BNav_EC2/DepthDuration/v2_depth_duration_MTurk/v2_DepthDuration_HTML.html#122,122,1366,625,1366,768,8-21-2022,13-37-0,32,depth_duration_stimuli/003495_2014-05-21_16-01-51_094959634447_rgbf000100-resize_3/003495_2014-05-21_16-01-51_094959634447_rgbf000100-resize_3-target.png,125,1.6255,1,4416,116,meters,jsons/VE125_randls_67.json,546384,812245,47,Man
32,746713,DepthScenes,duration_manipulation_targetAtFixation,jsons/VE125_randls_67.json,http://54.235.29.9/FacialAge/BNav_EC2/DepthDuration/v2_depth_duration_MTurk/v2_DepthDuration_HTML.html#122,122,1366,625,1366,768,8-21-2022,13-37-0,33,depth_duration_stimuli/000773_2014-06-08_22-24-54_260595134347_rgbf000093-resize_1/000773_2014-06-08_22-24-54_260595134347_rgbf000093-resize_1-target.png,125,4.973,1,3472,108,meters,jsons/VE125_randls_67.json,546384,812245,47,Man
33,746713,DepthScenes,duration_manipulation_targetAtFixation,jsons/VE125_randls_67.json,http://54.235.29.9/FacialAge/BNav_EC2/DepthDuration/v2_depth_duration_MTurk/v2_DepthDuration_HTML.html#122,122,1366,625,1366,768,8-21-2022,13-37-0,34,depth_duration_stimuli/002414_2014-06-28_20-24-58_260595134347_rgbf000067-resize_4/002414_2014-06-28_20-24-58_260595134347_rgbf000067-resize_4-target.png,125,4.363,1,2344,90,meters,jsons/VE125_randls_67.json,546384,812245,47,Man
34,746713,DepthScenes,duration_manipulation_targetAtFixation,jsons/VE125_randls_67.json,http://54.235.29.9/FacialAge/BNav_EC2/DepthDuration/v2_depth_duration_MTurk/v2_DepthDuration_HTML.html#122,122,1366,625,1366,768,8-21-2022,13-37-0,35,depth_duration_stimuli/000758_2014-06-08_22-05-08_260595134347_rgbf000085-resize_0/000758_2014-06-08_22-05-08_260595134347_rgbf000085-resize_0-target.png,125,3.3810000000000002,1,2045,124,meters,jsons/VE125_randls_67.json,546384,812245,47,Man
35,746713,DepthScenes,duration_manipulation_targetAtFixation,jsons/VE125_randls_67.json,http://54.235.29.9/FacialAge/BNav_EC2/DepthDuration/v2_depth_duration_MTurk/v2_DepthDuration_HTML.html#122,122,1366,625,1366,768,8-21-2022,13-37-0,36,depth_duration_stimuli/000854_2014-06-09_19-43-13_260595134347_rgbf000066-resize_0/000854_2014-06-09_19-43-13_260595134347_rgbf000066-resize_0-target.png,125,3.068,1,2782,116,meters,jsons/VE125_randls_67.json,546384,812245,47,Man
36,746713,DepthScenes,duration_manipulation_targetAtFixation,jsons/VE125_randls_67.json,http://54.235.29.9/FacialAge/BNav_EC2/DepthDuration/v2_depth_duration_MTurk/v2_DepthDuration_HTML.html#122,122,1366,625,1366,768,8-21-2022,13-37-0,37,depth_duration_stimuli/001417_2014-06-19_16-25-36_260595134347_rgbf000115-resize_5/001417_2014-06-19_16-25-36_260595134347_rgbf000115-resize_5-target.png,125,4.6255,1,2287,116,meters,jsons/VE125_randls_67.json,546384,812245,47,Man
37,746713,DepthScenes,duration_manipulation_targetAtFixation,jsons/VE125_randls_67.json,http://54.235.29.9/FacialAge/BNav_EC2/DepthDuration/v2_depth_duration_MTurk/v2_DepthDuration_HTML.html#122,122,1366,625,1366,768,8-21-2022,13-37-0,38,depth_duration_stimuli/003081_2014-06-15_15-19-16_094959634447_rgbf000150-resize_1/003081_2014-06-15_15-19-16_094959634447_rgbf000150-resize_1-target.png,125,3.9125,1,1856,122,meters,jsons/VE125_randls_67.json,546384,812245,47,Man
38,746713,DepthScenes,duration_manipulation_targetAtFixation,jsons/VE125_randls_67.json,http://54.235.29.9/FacialAge/BNav_EC2/DepthDuration/v2_depth_duration_MTurk/v2_DepthDuration_HTML.html#122,122,1366,625,1366,768,8-21-2022,13-37-0,39,depth_duration_stimuli/001167_2014-06-17_15-38-07_260595134347_rgbf000108-resize_0/001167_2014-06-17_15-38-07_260595134347_rgbf000108-resize_0-target.png,125,1.8505,1,1894,126,meters,jsons/VE125_randls_67.json,546384,812245,47,Man
39,746713,DepthScenes,duration_manipulation_targetAtFixation,jsons/VE125_randls_67.json,http://54.235.29.9/FacialAge/BNav_EC2/DepthDuration/v2_depth_duration_MTurk/v2_DepthDuration_HTML.html#122,122,1366,625,1366,768,8-21-2022,13-37-0,40,depth_duration_stimuli/003587_2014-05-23_16-48-02_094959634447_rgbf002384-resize_2/003587_2014-05-23_16-48-02_094959634447_rgbf002384-resize_2-target.png,125,1.357,1,1771,125,meters,jsons/VE125_randls_67.json,546384,812245,47,Man
40,746713,DepthScenes,duration_manipulation_targetAtFixation,jsons/VE125_randls_67.json,http://54.235.29.9/FacialAge/BNav_EC2/DepthDuration/v2_depth_duration_MTurk/v2_DepthDuration_HTML.html#122,122,1366,625,1366,768,8-21-2022,13-37-0,41,depth_duration_stimuli/000009_2014-05-26_14-32-05_260595134347_rgbf000034-resize_3/000009_2014-05-26_14-32-05_260595134347_rgbf000034-resize_3-target.png,125,3.8715,1,1768,122,meters,jsons/VE125_randls_67.json,546384,812245,47,Man
41,746713,DepthScenes,duration_manipulation_targetAtFixation,jsons/VE125_randls_67.json,http://54.235.29.9/FacialAge/BNav_EC2/DepthDuration/v2_depth_duration_MTurk/v2_DepthDuration_HTML.html#122,122,1366,625,1366,768,8-21-2022,13-37-0,42,depth_duration_stimuli/001828_2014-06-26_21-40-03_260595134347_rgbf000024-resize_0/001828_2014-06-26_21-40-03_260595134347_rgbf000024-resize_0-target.png,125,4.8260000000000005,1,3390,124,meters,jsons/VE125_randls_67.json,546384,812245,47,Man
42,746713,DepthScenes,duration_manipulation_targetAtFixation,jsons/VE125_randls_67.json,http://54.235.29.9/FacialAge/BNav_EC2/DepthDuration/v2_depth_duration_MTurk/v2_DepthDuration_HTML.html#122,122,1366,625,1366,768,8-21-2022,13-37-0,43,depth_duration_stimuli/001810_2014-06-26_20-51-35_260595134347_rgbf000040-resize_3/001810_2014-06-26_20-51-35_260595134347_rgbf000040-resize_3-target.png,125,2.2525,1,1841,127,meters,jsons/VE125_randls_67.json,546384,812245,47,Man
43,746713,DepthScenes,duration_manipulation_targetAtFixation,jsons/VE125_randls_67.json,http://54.235.29.9/FacialAge/BNav_EC2/DepthDuration/v2_depth_duration_MTurk/v2_DepthDuration_HTML.html#122,122,1366,625,1366,768,8-21-2022,13-37-0,44,depth_duration_stimuli/003010_2014-06-15_12-54-35_094959634447_rgbf000112-resize_0/003010_2014-06-15_12-54-35_094959634447_rgbf000112-resize_0-target.png,125,3.1185,1,1847,137,meters,jsons/VE125_randls_67.json,546384,812245,47,Man
44,746713,DepthScenes,duration_manipulation_targetAtFixation,jsons/VE125_randls_67.json,http://54.235.29.9/FacialAge/BNav_EC2/DepthDuration/v2_depth_duration_MTurk/v2_DepthDuration_HTML.html#122,122,1366,625,1366,768,8-21-2022,13-37-0,45,depth_duration_stimuli/000787_2014-06-08_22-33-53_260595134347_rgbf000175-resize_1/000787_2014-06-08_22-33-53_260595134347_rgbf000175-resize-original.jpg,125,4.784,0,3235,121,meters,jsons/VE125_randls_67.json,546384,812245,47,Man
45,746713,DepthScenes,duration_manipulation_targetAtFixation,jsons/VE125_randls_67.json,http://54.235.29.9/FacialAge/BNav_EC2/DepthDuration/v2_depth_duration_MTurk/v2_DepthDuration_HTML.html#122,122,1366,625,1366,768,8-21-2022,13-37-0,46,depth_duration_stimuli/002043_2014-06-24_20-29-38_260595134347_rgbf000039-resize_4/002043_2014-06-24_20-29-38_260595134347_rgbf000039-resize_4-target.png,125,2.8435,1,2071,116,meters,jsons/VE125_randls_67.json,546384,812245,47,Man
46,746713,DepthScenes,duration_manipulation_targetAtFixation,jsons/VE125_randls_67.json,http://54.235.29.9/FacialAge/BNav_EC2/DepthDuration/v2_depth_duration_MTurk/v2_DepthDuration_HTML.html#122,122,1366,625,1366,768,8-21-2022,13-37-0,47,depth_duration_stimuli/003048_2014-06-15_13-49-43_094959634447_rgbf000150-resize_1/003048_2014-06-15_13-49-43_094959634447_rgbf000150-resize_1-target.png,125,4.0035,1,1873,117,meters,jsons/VE125_randls_67.json,546384,812245,47,Man
47,746713,DepthScenes,duration_manipulation_targetAtFixation,jsons/VE125_randls_67.json,http://54.235.29.9/FacialAge/BNav_EC2/DepthDuration/v2_depth_duration_MTurk/v2_DepthDuration_HTML.html#122,122,1366,625,1366,768,8-21-2022,13-37-0,48,depth_duration_stimuli/000470_2014-06-09_19-42-40_260595134347_rgbf000094-resize_1/000470_2014-06-09_19-42-40_260595134347_rgbf000094-resize_1-target.png,125,1.831,1,1848,117,meters,jsons/VE125_randls_67.json,546384,812245,47,Man
48,746713,DepthScenes,duration_manipulation_targetAtFixation,jsons/VE125_randls_67.json,http://54.235.29.9/FacialAge/BNav_EC2/DepthDuration/v2_depth_duration_MTurk/v2_DepthDuration_HTML.html#122,122,1366,625,1366,768,8-21-2022,13-37-0,49,depth_duration_stimuli/000109_2014-05-14_23-41-52_260595134347_rgbf000035-resize_9/000109_2014-05-14_23-41-52_260595134347_rgbf000035-resize_9-target.png,125,1.3545,1,1875,129,meters,jsons/VE125_randls_67.json,546384,812245,47,Man
49,746713,DepthScenes,duration_manipulation_targetAtFixation,jsons/VE125_randls_67.json,http://54.235.29.9/FacialAge/BNav_EC2/DepthDuration/v2_depth_duration_MTurk/v2_DepthDuration_HTML.html#122,122,1366,625,1366,768,8-21-2022,13-37-0,50,depth_duration_stimuli/002153_2014-06-25_21-27-18_260595134347_rgbf000038-resize_5/002153_2014-06-25_21-27-18_260595134347_rgbf000038-resize_5-target.png,125,2.505,1,1867,116,meters,jsons/VE125_randls_67.json,546384,812245,47,Man
50,746713,DepthScenes,duration_manipulation_targetAtFixation,jsons/VE125_randls_67.json,http://54.235.29.9/FacialAge/BNav_EC2/DepthDuration/v2_depth_duration_MTurk/v2_DepthDuration_HTML.html#122,122,1366,625,1366,768,8-21-2022,13-37-0,51,depth_duration_stimuli/002660_2014-06-13_15-44-18_094959634447_rgbf001878-resize_2/002660_2014-06-13_15-44-18_094959634447_rgbf001878-resize_2-target.png,125,3.576,1,1829,123,meters,jsons/VE125_randls_67.json,546384,812245,47,Man
51,746713,DepthScenes,duration_manipulation_targetAtFixation,jsons/VE125_randls_67.json,http://54.235.29.9/FacialAge/BNav_EC2/DepthDuration/v2_depth_duration_MTurk/v2_DepthDuration_HTML.html#122,122,1366,625,1366,768,8-21-2022,13-37-0,52,depth_duration_stimuli/003070_2014-06-15_14-58-27_094959634447_rgbf000150-resize_3/003070_2014-06-15_14-58-27_094959634447_rgbf000150-resize_3-target.png,125,2.9415,1,1759,120,meters,jsons/VE125_randls_67.json,546384,812245,47,Man
52,746713,DepthScenes,duration_manipulation_targetAtFixation,jsons/VE125_randls_67.json,http://54.235.29.9/FacialAge/BNav_EC2/DepthDuration/v2_depth_duration_MTurk/v2_DepthDuration_HTML.html#122,122,1366,625,1366,768,8-21-2022,13-37-0,53,depth_duration_stimuli/000943_2014-06-09_19-31-07_260595134347_rgbf000128-resize_1/000943_2014-06-09_19-31-07_260595134347_rgbf000128-resize_1-target.png,125,1.9765,1,1758,125,meters,jsons/VE125_randls_67.json,546384,812245,47,Man
53,746713,DepthScenes,duration_manipulation_targetAtFixation,jsons/VE125_randls_67.json,http://54.235.29.9/FacialAge/BNav_EC2/DepthDuration/v2_depth_duration_MTurk/v2_DepthDuration_HTML.html#122,122,1366,625,1366,768,8-21-2022,13-37-0,54,depth_duration_stimuli/002600_2014-06-24_14-27-04_094959634447_rgbf000074-resize_2/002600_2014-06-24_14-27-04_094959634447_rgbf000074-resize_2-target.png,125,2.7575,1,1774,118,meters,jsons/VE125_randls_67.json,546384,812245,47,Man
54,746713,DepthScenes,duration_manipulation_targetAtFixation,jsons/VE125_randls_67.json,http://54.235.29.9/FacialAge/BNav_EC2/DepthDuration/v2_depth_duration_MTurk/v2_DepthDuration_HTML.html#122,122,1366,625,1366,768,8-21-2022,13-37-0,55,depth_duration_stimuli/003228_2014-05-14_13-42-35_094959634447_rgbf000101-resize_1/003228_2014-05-14_13-42-35_094959634447_rgbf000101-resize_1-target.png,125,1.9680000000000002,1,1822,117,meters,jsons/VE125_randls_67.json,546384,812245,47,Man
55,746713,DepthScenes,duration_manipulation_targetAtFixation,jsons/VE125_randls_67.json,http://54.235.29.9/FacialAge/BNav_EC2/DepthDuration/v2_depth_duration_MTurk/v2_DepthDuration_HTML.html#122,122,1366,625,1366,768,8-21-2022,13-37-0,56,depth_duration_stimuli/001059_2014-06-08_21-53-27_260595134347_rgbf000061-resize_4/001059_2014-06-08_21-53-27_260595134347_rgbf000061-resize_4-target.png,125,2.4185,1,2219,112,meters,jsons/VE125_randls_67.json,546384,812245,47,Man
56,746713,DepthScenes,duration_manipulation_targetAtFixation,jsons/VE125_randls_67.json,http://54.235.29.9/FacialAge/BNav_EC2/DepthDuration/v2_depth_duration_MTurk/v2_DepthDuration_HTML.html#122,122,1366,625,1366,768,8-21-2022,13-37-0,57,depth_duration_stimuli/001032_2014-06-08_13-23-17_260595134347_rgbf000021-resize_3/001032_2014-06-08_13-23-17_260595134347_rgbf000021-resize_3-target.png,125,3.2725,1,1815,139,meters,jsons/VE125_randls_67.json,546384,812245,47,Man
57,746713,DepthScenes,duration_manipulation_targetAtFixation,jsons/VE125_randls_67.json,http://54.235.29.9/FacialAge/BNav_EC2/DepthDuration/v2_depth_duration_MTurk/v2_DepthDuration_HTML.html#122,122,1366,625,1366,768,8-21-2022,13-37-0,58,depth_duration_stimuli/000368_2014-06-09_15-53-01_260595134347_rgbf000155-resize_2/000368_2014-06-09_15-53-01_260595134347_rgbf000155-resize_2-target.png,125,2.4859999999999998,1,1697,123,meters,jsons/VE125_randls_67.json,546384,812245,47,Man
58,746713,DepthScenes,duration_manipulation_targetAtFixation,jsons/VE125_randls_67.json,http://54.235.29.9/FacialAge/BNav_EC2/DepthDuration/v2_depth_duration_MTurk/v2_DepthDuration_HTML.html#122,122,1366,625,1366,768,8-21-2022,13-37-0,59,depth_duration_stimuli/002678_2014-06-13_16-15-32_094959634447_rgbf000151-resize_6/002678_2014-06-13_16-15-32_094959634447_rgbf000151-resize_6-target.png,125,2.1830000000000003,1,1788,121,meters,jsons/VE125_randls_67.json,546384,812245,47,Man
59,746713,DepthScenes,duration_manipulation_targetAtFixation,jsons/VE125_randls_67.json,http://54.235.29.9/FacialAge/BNav_EC2/DepthDuration/v2_depth_duration_MTurk/v2_DepthDuration_HTML.html#122,122,1366,625,1366,768,8-21-2022,13-37-0,60,depth_duration_stimuli/000917_2014-06-09_22-45-29_260595134347_rgbf000149-resize_3/000917_2014-06-09_22-45-29_260595134347_rgbf000149-resize_3-target.png,125,4.1865,1,1817,125,meters,jsons/VE125_randls_67.json,546384,812245,47,Man
60,746713,DepthScenes,duration_manipulation_targetAtFixation,jsons/VE125_randls_67.json,http://54.235.29.9/FacialAge/BNav_EC2/DepthDuration/v2_depth_duration_MTurk/v2_DepthDuration_HTML.html#122,122,1366,625,1366,768,8-21-2022,13-37-0,61,depth_duration_stimuli/002323_2014-06-28_20-01-54_260595134347_rgbf000051-resize_4/002323_2014-06-28_20-01-54_260595134347_rgbf000051-resize_4-target.png,125,3.7310000000000003,1,2257,90,meters,jsons/VE125_randls_67.json,546384,812245,47,Man
61,746713,DepthScenes,duration_manipulation_targetAtFixation,jsons/VE125_randls_67.json,http://54.235.29.9/FacialAge/BNav_EC2/DepthDuration/v2_depth_duration_MTurk/v2_DepthDuration_HTML.html#122,122,1366,625,1366,768,8-21-2022,13-37-0,62,depth_duration_stimuli/000692_2014-06-08_13-09-42_260595134347_rgbf000199-resize_2/000692_2014-06-08_13-09-42_260595134347_rgbf000199-resize_2-target.png,125,3.661,1,5611,119,meters,jsons/VE125_randls_67.json,546384,812245,47,Man
62,746713,DepthScenes,duration_manipulation_targetAtFixation,jsons/VE125_randls_67.json,http://54.235.29.9/FacialAge/BNav_EC2/DepthDuration/v2_depth_duration_MTurk/v2_DepthDuration_HTML.html#122,122,1366,625,1366,768,8-21-2022,13-37-0,63,depth_duration_stimuli/001094_2014-06-15_17-36-00_260595134347_rgbf000205-resize_0/001094_2014-06-15_17-36-00_260595134347_rgbf000205-resize_0-target.png,125,4.2175,2,2981,111,meters,jsons/VE125_randls_67.json,546384,812245,47,Man
63,746713,DepthScenes,duration_manipulation_targetAtFixation,jsons/VE125_randls_67.json,http://54.235.29.9/FacialAge/BNav_EC2/DepthDuration/v2_depth_duration_MTurk/v2_DepthDuration_HTML.html#122,122,1366,625,1366,768,8-21-2022,13-37-0,64,depth_duration_stimuli/000739_2014-06-08_18-45-58_260595134347_rgbf000068-resize_1/000739_2014-06-08_18-45-58_260595134347_rgbf000068-resize_1-target.png,125,3.534,2,3240,128,meters,jsons/VE125_randls_67.json,546384,812245,47,Man
64,746713,DepthScenes,duration_manipulation_targetAtFixation,jsons/VE125_randls_67.json,http://54.235.29.9/FacialAge/BNav_EC2/DepthDuration/v2_depth_duration_MTurk/v2_DepthDuration_HTML.html#122,122,1366,625,1366,768,8-21-2022,13-37-0,65,depth_duration_stimuli/000734_2014-06-08_17-39-11_260595134347_rgbf000128-resize_2/000734_2014-06-08_17-39-11_260595134347_rgbf000128-resize_2-target.png,125,4.098,2,5056,134,meters,jsons/VE125_randls_67.json,546384,812245,47,Man
65,746713,DepthScenes,duration_manipulation_targetAtFixation,jsons/VE125_randls_67.json,http://54.235.29.9/FacialAge/BNav_EC2/DepthDuration/v2_depth_duration_MTurk/v2_DepthDuration_HTML.html#122,122,1366,625,1366,768,8-21-2022,13-37-0,66,depth_duration_stimuli/001222_2014-06-17_16-24-06_260595134347_rgbf000073-resize_0/001222_2014-06-17_16-24-06_260595134347_rgbf000073-resize-original.jpg,125,1.4385,0,4580,123,meters,jsons/VE125_randls_67.json,546384,812245,47,Man
66,746713,DepthScenes,duration_manipulation_targetAtFixation,jsons/VE125_randls_67.json,http://54.235.29.9/FacialAge/BNav_EC2/DepthDuration/v2_depth_duration_MTurk/v2_DepthDuration_HTML.html#122,122,1366,625,1366,768,8-21-2022,13-37-0,67,depth_duration_stimuli/003534_2014-05-22_15-06-10_094959634447_rgbf000102-resize_4/003534_2014-05-22_15-06-10_094959634447_rgbf000102-resize_4-target.png,125,1.426,1,3101,93,meters,jsons/VE125_randls_67.json,546384,812245,47,Man
67,746713,DepthScenes,duration_manipulation_targetAtFixation,jsons/VE125_randls_67.json,http://54.235.29.9/FacialAge/BNav_EC2/DepthDuration/v2_depth_duration_MTurk/v2_DepthDuration_HTML.html#122,122,1366,625,1366,768,8-21-2022,13-37-0,68,depth_duration_stimuli/002637_2014-06-24_14-51-13_094959634447_rgbf000066-resize_4/002637_2014-06-24_14-51-13_094959634447_rgbf000066-resize_4-target.png,125,1.9955,1,3232,138,meters,jsons/VE125_randls_67.json,546384,812245,47,Man
68,746713,DepthScenes,duration_manipulation_targetAtFixation,jsons/VE125_randls_67.json,http://54.235.29.9/FacialAge/BNav_EC2/DepthDuration/v2_depth_duration_MTurk/v2_DepthDuration_HTML.html#122,122,1366,625,1366,768,8-21-2022,13-37-0,69,depth_duration_stimuli/001175_2014-06-17_15-45-55_260595134347_rgbf000129-resize_4/001175_2014-06-17_15-45-55_260595134347_rgbf000129-resize_4-target.png,125,4.255,2,2364,120,meters,jsons/VE125_randls_67.json,546384,812245,47,Man
69,746713,DepthScenes,duration_manipulation_targetAtFixation,jsons/VE125_randls_67.json,http://54.235.29.9/FacialAge/BNav_EC2/DepthDuration/v2_depth_duration_MTurk/v2_DepthDuration_HTML.html#122,122,1366,625,1366,768,8-21-2022,13-37-0,70,depth_duration_stimuli/003490_2014-05-21_15-50-11_094959634447_rgbf000101-resize_3/003490_2014-05-21_15-50-11_094959634447_rgbf000101-resize_3-target.png,125,3.6445,2,1972,131,meters,jsons/VE125_randls_67.json,546384,812245,47,Man
70,746713,DepthScenes,duration_manipulation_targetAtFixation,jsons/VE125_randls_67.json,http://54.235.29.9/FacialAge/BNav_EC2/DepthDuration/v2_depth_duration_MTurk/v2_DepthDuration_HTML.html#122,122,1366,625,1366,768,8-21-2022,13-37-0,71,depth_duration_stimuli/001570_2014-06-20_17-21-09_260595134347_rgbf000135-resize_4/001570_2014-06-20_17-21-09_260595134347_rgbf000135-resize_4-target.png,125,4.467,0,4638,125,meters,jsons/VE125_randls_67.json,546384,812245,47,Man
71,746713,DepthScenes,duration_manipulation_targetAtFixation,jsons/VE125_randls_67.json,http://54.235.29.9/FacialAge/BNav_EC2/DepthDuration/v2_depth_duration_MTurk/v2_DepthDuration_HTML.html#122,122,1366,625,1366,768,8-21-2022,13-37-0,72,depth_duration_stimuli/001392_2014-06-19_16-07-59_260595134347_rgbf000046-resize_1/001392_2014-06-19_16-07-59_260595134347_rgbf000046-resize_1-target.png,125,4.135,1,2506,129,meters,jsons/VE125_randls_67.json,546384,812245,47,Man
72,746713,DepthScenes,duration_manipulation_targetAtFixation,jsons/VE125_randls_67.json,http://54.235.29.9/FacialAge/BNav_EC2/DepthDuration/v2_depth_duration_MTurk/v2_DepthDuration_HTML.html#122,122,1366,625,1366,768,8-21-2022,13-37-0,73,depth_duration_stimuli/001092_2014-06-15_17-34-58_260595134347_rgbf000171-resize_3/001092_2014-06-15_17-34-58_260595134347_rgbf000171-resize_3-target.png,125,2.6935,1,2260,130,meters,jsons/VE125_randls_67.json,546384,812245,47,Man
73,746713,DepthScenes,duration_manipulation_targetAtFixation,jsons/VE125_randls_67.json,http://54.235.29.9/FacialAge/BNav_EC2/DepthDuration/v2_depth_duration_MTurk/v2_DepthDuration_HTML.html#122,122,1366,625,1366,768,8-21-2022,13-37-0,74,depth_duration_stimuli/002545_2014-06-24_13-38-53_094959634447_rgbf000080-resize_4/002545_2014-06-24_13-38-53_094959634447_rgbf000080-resize_4-target.png,125,1.9205,1,2071,120,meters,jsons/VE125_randls_67.json,546384,812245,47,Man
74,746713,DepthScenes,duration_manipulation_targetAtFixation,jsons/VE125_randls_67.json,http://54.235.29.9/FacialAge/BNav_EC2/DepthDuration/v2_depth_duration_MTurk/v2_DepthDuration_HTML.html#122,122,1366,625,1366,768,8-21-2022,13-37-0,75,depth_duration_stimuli/002630_2014-06-24_14-47-50_094959634447_rgbf000055-resize_1/002630_2014-06-24_14-47-50_094959634447_rgbf000055-resize_1-target.png,125,3.0095,0,4339,115,meters,jsons/VE125_randls_67.json,546384,812245,47,Man
75,746713,DepthScenes,duration_manipulation_targetAtFixation,jsons/VE125_randls_67.json,http://54.235.29.9/FacialAge/BNav_EC2/DepthDuration/v2_depth_duration_MTurk/v2_DepthDuration_HTML.html#122,122,1366,625,1366,768,8-21-2022,13-37-0,76,depth_duration_stimuli/002758_2014-06-22_19-11-20_094959634447_rgbf000128-resize_1/002758_2014-06-22_19-11-20_094959634447_rgbf000128-resize_1-target.png,125,2.555,1,1990,127,meters,jsons/VE125_randls_67.json,546384,812245,47,Man
76,746713,DepthScenes,duration_manipulation_targetAtFixation,jsons/VE125_randls_67.json,http://54.235.29.9/FacialAge/BNav_EC2/DepthDuration/v2_depth_duration_MTurk/v2_DepthDuration_HTML.html#122,122,1366,625,1366,768,8-21-2022,13-37-0,77,depth_duration_stimuli/001449_2014-06-19_17-01-27_260595134347_rgbf000116-resize_2/001449_2014-06-19_17-01-27_260595134347_rgbf000116-resize_2-target.png,125,3.452,1,2413,120,meters,jsons/VE125_randls_67.json,546384,812245,47,Man
77,746713,DepthScenes,duration_manipulation_targetAtFixation,jsons/VE125_randls_67.json,http://54.235.29.9/FacialAge/BNav_EC2/DepthDuration/v2_depth_duration_MTurk/v2_DepthDuration_HTML.html#122,122,1366,625,1366,768,8-21-2022,13-37-0,78,depth_duration_stimuli/001450_2014-06-19_17-02-03_260595134347_rgbf000203-resize_4/001450_2014-06-19_17-02-03_260595134347_rgbf000203-resize_4-target.png,125,4.0106666666667,1,2295,111,meters,jsons/VE125_randls_67.json,546384,812245,47,Man
78,746713,DepthScenes,duration_manipulation_targetAtFixation,jsons/VE125_randls_67.json,http://54.235.29.9/FacialAge/BNav_EC2/DepthDuration/v2_depth_duration_MTurk/v2_DepthDuration_HTML.html#122,122,1366,625,1366,768,8-21-2022,13-37-0,79,depth_duration_stimuli/002445_2014-06-28_20-32-16_260595134347_rgbf000029-resize_4/002445_2014-06-28_20-32-16_260595134347_rgbf000029-resize_4-target.png,125,2.5315,1,2255,119,meters,jsons/VE125_randls_67.json,546384,812245,47,Man
79,746713,DepthScenes,duration_manipulation_targetAtFixation,jsons/VE125_randls_67.json,http://54.235.29.9/FacialAge/BNav_EC2/DepthDuration/v2_depth_duration_MTurk/v2_DepthDuration_HTML.html#122,122,1366,625,1366,768,8-21-2022,13-37-0,80,depth_duration_stimuli/000780_2014-06-08_22-28-29_260595134347_rgbf000126-resize_1/000780_2014-06-08_22-28-29_260595134347_rgbf000126-resize_1-target.png,125,3.3825,0,4545,121,meters,jsons/VE125_randls_67.json,546384,812245,47,Man
80,746713,DepthScenes,duration_manipulation_targetAtFixation,jsons/VE125_randls_67.json,http://54.235.29.9/FacialAge/BNav_EC2/DepthDuration/v2_depth_duration_MTurk/v2_DepthDuration_HTML.html#122,122,1366,625,1366,768,8-21-2022,13-37-0,81,depth_duration_stimuli/002788_2014-06-22_19-36-03_094959634447_rgbf000088-resize_2/002788_2014-06-22_19-36-03_094959634447_rgbf000088-resize_2-target.png,125,1.6465,1,3895,56,meters,jsons/VE125_randls_67.json,546384,812245,47,Man
81,746713,DepthScenes,duration_manipulation_targetAtFixation,jsons/VE125_randls_67.json,http://54.235.29.9/FacialAge/BNav_EC2/DepthDuration/v2_depth_duration_MTurk/v2_DepthDuration_HTML.html#122,122,1366,625,1366,768,8-21-2022,13-37-0,82,depth_duration_stimuli/000749_2014-06-08_21-55-06_260595134347_rgbf000070-resize_2/000749_2014-06-08_21-55-06_260595134347_rgbf000070-resize_2-target.png,125,2.331,1,2776,112,meters,jsons/VE125_randls_67.json,546384,812245,47,Man
82,746713,DepthScenes,duration_manipulation_targetAtFixation,jsons/VE125_randls_67.json,http://54.235.29.9/FacialAge/BNav_EC2/DepthDuration/v2_depth_duration_MTurk/v2_DepthDuration_HTML.html#122,122,1366,625,1366,768,8-21-2022,13-37-0,83,depth_duration_stimuli/000810_2014-06-08_17-20-01_260595134347_rgbf000105-resize_0/000810_2014-06-08_17-20-01_260595134347_rgbf000105-resize_0-target.png,125,1.4865,1,1939,118,meters,jsons/VE125_randls_67.json,546384,812245,47,Man
83,746713,DepthScenes,duration_manipulation_targetAtFixation,jsons/VE125_randls_67.json,http://54.235.29.9/FacialAge/BNav_EC2/DepthDuration/v2_depth_duration_MTurk/v2_DepthDuration_HTML.html#122,122,1366,625,1366,768,8-21-2022,13-37-0,84,depth_duration_stimuli/001214_2014-06-17_16-13-55_260595134347_rgbf000111-resize_0/001214_2014-06-17_16-13-55_260595134347_rgbf000111-resize_0-target.png,125,2.6505,1,2035,106,meters,jsons/VE125_randls_67.json,546384,812245,47,Man
84,746713,DepthScenes,duration_manipulation_targetAtFixation,jsons/VE125_randls_67.json,http://54.235.29.9/FacialAge/BNav_EC2/DepthDuration/v2_depth_duration_MTurk/v2_DepthDuration_HTML.html#122,122,1366,625,1366,768,8-21-2022,13-37-0,85,depth_duration_stimuli/001150_2014-06-17_15-27-34_260595134347_rgbf000108-resize_2/001150_2014-06-17_15-27-34_260595134347_rgbf000108-resize_2-target.png,125,4.0325,2,2728,130,meters,jsons/VE125_randls_67.json,546384,812245,47,Man
85,746713,DepthScenes,duration_manipulation_targetAtFixation,jsons/VE125_randls_67.json,http://54.235.29.9/FacialAge/BNav_EC2/DepthDuration/v2_depth_duration_MTurk/v2_DepthDuration_HTML.html#122,122,1366,625,1366,768,8-21-2022,13-37-0,86,depth_duration_stimuli/000665_2014-06-09_20-42-35_260595134347_rgbf000110-resize_1/000665_2014-06-09_20-42-35_260595134347_rgbf000110-resize_1-target.png,125,3.057,1,2805,118,meters,jsons/VE125_randls_67.json,546384,812245,47,Man
86,746713,DepthScenes,duration_manipulation_targetAtFixation,jsons/VE125_randls_67.json,http://54.235.29.9/FacialAge/BNav_EC2/DepthDuration/v2_depth_duration_MTurk/v2_DepthDuration_HTML.html#122,122,1366,625,1366,768,8-21-2022,13-37-0,87,depth_duration_stimuli/001806_2014-06-26_20-50-20_260595134347_rgbf000091-resize_1/001806_2014-06-26_20-50-20_260595134347_rgbf000091-resize_1-target.png,125,2.7305,1,1884,134,meters,jsons/VE125_randls_67.json,546384,812245,47,Man
87,746713,DepthScenes,duration_manipulation_targetAtFixation,jsons/VE125_randls_67.json,http://54.235.29.9/FacialAge/BNav_EC2/DepthDuration/v2_depth_duration_MTurk/v2_DepthDuration_HTML.html#122,122,1366,625,1366,768,8-21-2022,13-37-0,88,depth_duration_stimuli/001617_2014-06-20_11-35-32_260595134347_rgbf000066-resize_1/001617_2014-06-20_11-35-32_260595134347_rgbf000066-resize_1-target.png,125,3.7910000000000004,1,2046,124,meters,jsons/VE125_randls_67.json,546384,812245,47,Man
88,746713,DepthScenes,duration_manipulation_targetAtFixation,jsons/VE125_randls_67.json,http://54.235.29.9/FacialAge/BNav_EC2/DepthDuration/v2_depth_duration_MTurk/v2_DepthDuration_HTML.html#122,122,1366,625,1366,768,8-21-2022,13-37-0,89,depth_duration_stimuli/002509_2014-06-24_13-19-22_094959634447_rgbf000077-resize_0/002509_2014-06-24_13-19-22_094959634447_rgbf000077-resize_0-target.png,125,1.3065,1,2678,119,meters,jsons/VE125_randls_67.json,546384,812245,47,Man
89,746713,DepthScenes,duration_manipulation_targetAtFixation,jsons/VE125_randls_67.json,http://54.235.29.9/FacialAge/BNav_EC2/DepthDuration/v2_depth_duration_MTurk/v2_DepthDuration_HTML.html#122,122,1366,625,1366,768,8-21-2022,13-37-0,90,depth_duration_stimuli/003338_2014-05-20_11-01-23_094959634447_rgbf000051-resize_6/003338_2014-05-20_11-01-23_094959634447_rgbf000051-resize_6-target.png,125,1.693,1,2059,119,meters,jsons/VE125_randls_67.json,546384,812245,47,Man
90,746713,DepthScenes,duration_manipulation_targetAtFixation,jsons/VE125_randls_67.json,http://54.235.29.9/FacialAge/BNav_EC2/DepthDuration/v2_depth_duration_MTurk/v2_DepthDuration_HTML.html#122,122,1366,625,1366,768,8-21-2022,13-37-0,91,depth_duration_stimuli/002213_2014-06-28_18-37-58_260595134347_rgbf000055-resize_1/002213_2014-06-28_18-37-58_260595134347_rgbf000055-resize_1-target.png,125,3.62,1,2142,122,meters,jsons/VE125_randls_67.json,546384,812245,47,Man
91,746713,DepthScenes,duration_manipulation_targetAtFixation,jsons/VE125_randls_67.json,http://54.235.29.9/FacialAge/BNav_EC2/DepthDuration/v2_depth_duration_MTurk/v2_DepthDuration_HTML.html#122,122,1366,625,1366,768,8-21-2022,13-37-0,92,depth_duration_stimuli/000691_2014-06-08_13-08-50_260595134347_rgbf000132-resize_3/000691_2014-06-08_13-08-50_260595134347_rgbf000132-resize_3-target.png,125,4.1530000000000005,1,2553,120,meters,jsons/VE125_randls_67.json,546384,812245,47,Man
92,746713,DepthScenes,duration_manipulation_targetAtFixation,jsons/VE125_randls_67.json,http://54.235.29.9/FacialAge/BNav_EC2/DepthDuration/v2_depth_duration_MTurk/v2_DepthDuration_HTML.html#122,122,1366,625,1366,768,8-21-2022,13-37-0,93,depth_duration_stimuli/000878_2014-06-08_22-52-45_260595134347_rgbf000045-resize_2/000878_2014-06-08_22-52-45_260595134347_rgbf000045-resize_2-target.png,125,2.092,1,1912,124,meters,jsons/VE125_randls_67.json,546384,812245,47,Man
93,746713,DepthScenes,duration_manipulation_targetAtFixation,jsons/VE125_randls_67.json,http://54.235.29.9/FacialAge/BNav_EC2/DepthDuration/v2_depth_duration_MTurk/v2_DepthDuration_HTML.html#122,122,1366,625,1366,768,8-21-2022,13-37-0,94,depth_duration_stimuli/002953_2014-06-08_17-32-18_094959634447_rgbf000059-resize_5/002953_2014-06-08_17-32-18_094959634447_rgbf000059-resize_5-target.png,125,1.551,0,3705,11,meters,jsons/VE125_randls_67.json,546384,812245,47,Man
94,746713,DepthScenes,duration_manipulation_targetAtFixation,jsons/VE125_randls_67.json,http://54.235.29.9/FacialAge/BNav_EC2/DepthDuration/v2_depth_duration_MTurk/v2_DepthDuration_HTML.html#122,122,1366,625,1366,768,8-21-2022,13-37-0,95,depth_duration_stimuli/000436_2014-06-09_22-25-11_260595134347_rgbf000137-resize_1/000436_2014-06-09_22-25-11_260595134347_rgbf000137-resize_1-target.png,125,4.0705,1,1967,119,meters,jsons/VE125_randls_67.json,546384,812245,47,Man
95,746713,DepthScenes,duration_manipulation_targetAtFixation,jsons/VE125_randls_67.json,http://54.235.29.9/FacialAge/BNav_EC2/DepthDuration/v2_depth_duration_MTurk/v2_DepthDuration_HTML.html#122,122,1366,625,1366,768,8-21-2022,13-37-0,96,depth_duration_stimuli/002444_2014-06-28_20-32-08_260595134347_rgbf000027-resize_0/002444_2014-06-28_20-32-08_260595134347_rgbf000027-resize_0-target.png,125,4.388999999999999,1,1870,122,meters,jsons/VE125_randls_67.json,546384,812245,47,Man
96,746713,DepthScenes,duration_manipulation_targetAtFixation,jsons/VE125_randls_67.json,http://54.235.29.9/FacialAge/BNav_EC2/DepthDuration/v2_depth_duration_MTurk/v2_DepthDuration_HTML.html#122,122,1366,625,1366,768,8-21-2022,13-37-0,97,depth_duration_stimuli/000522_2014-06-08_13-35-06_260595134347_rgbf000244-resize_1/000522_2014-06-08_13-35-06_260595134347_rgbf000244-resize_1-target.png,125,2.3715,1,1821,125,meters,jsons/VE125_randls_67.json,546384,812245,47,Man
97,746713,DepthScenes,duration_manipulation_targetAtFixation,jsons/VE125_randls_67.json,http://54.235.29.9/FacialAge/BNav_EC2/DepthDuration/v2_depth_duration_MTurk/v2_DepthDuration_HTML.html#122,122,1366,625,1366,768,8-21-2022,13-37-0,98,depth_duration_stimuli/002949_2014-06-26_15-57-42_094959634447_rgbf000079-resize_1/002949_2014-06-26_15-57-42_094959634447_rgbf000079-resize_1-target.png,125,1.8915,1,2420,113,meters,jsons/VE125_randls_67.json,546384,812245,47,Man
98,746713,DepthScenes,duration_manipulation_targetAtFixation,jsons/VE125_randls_67.json,http://54.235.29.9/FacialAge/BNav_EC2/DepthDuration/v2_depth_duration_MTurk/v2_DepthDuration_HTML.html#122,122,1366,625,1366,768,8-21-2022,13-37-0,99,depth_duration_stimuli/001540_2014-06-20_17-01-05_260595134347_rgbf000086-resize_2/001540_2014-06-20_17-01-05_260595134347_rgbf000086-resize-original.jpg,125,1.459,0,3518,121,meters,jsons/VE125_randls_67.json,546384,812245,47,Man
99,746713,DepthScenes,duration_manipulation_targetAtFixation,jsons/VE125_randls_67.json,http://54.235.29.9/FacialAge/BNav_EC2/DepthDuration/v2_depth_duration_MTurk/v2_DepthDuration_HTML.html#122,122,1366,625,1366,768,8-21-2022,13-37-0,100,depth_duration_stimuli/002272_2014-06-28_18-53-56_260595134347_rgbf000067-resize_2/002272_2014-06-28_18-53-56_260595134347_rgbf000067-resize_2-target.png,125,1.138,1,2001,131,meters,jsons/VE125_randls_67.json,546384,812245,47,Man
100,746713,DepthScenes,duration_manipulation_targetAtFixation,jsons/VE125_randls_67.json,http://54.235.29.9/FacialAge/BNav_EC2/DepthDuration/v2_depth_duration_MTurk/v2_DepthDuration_HTML.html#122,122,1366,625,1366,768,8-21-2022,13-37-0,101,depth_duration_stimuli/001571_2014-06-20_17-21-32_260595134347_rgbf000089-resize_1/001571_2014-06-20_17-21-32_260595134347_rgbf000089-resize_1-target.png,125,1.86,1,1922,128,meters,jsons/VE125_randls_67.json,546384,812245,47,Man
101,746713,DepthScenes,duration_manipulation_targetAtFixation,jsons/VE125_randls_67.json,http://54.235.29.9/FacialAge/BNav_EC2/DepthDuration/v2_depth_duration_MTurk/v2_DepthDuration_HTML.html#122,122,1366,625,1366,768,8-21-2022,13-37-0,102,depth_duration_stimuli/000642_2014-06-08_16-59-25_260595134347_rgbf000098-resize_2/000642_2014-06-08_16-59-25_260595134347_rgbf000098-resize_2-target.png,125,2.8815,1,1827,134,meters,jsons/VE125_randls_67.json,546384,812245,47,Man
102,746713,DepthScenes,duration_manipulation_targetAtFixation,jsons/VE125_randls_67.json,http://54.235.29.9/FacialAge/BNav_EC2/DepthDuration/v2_depth_duration_MTurk/v2_DepthDuration_HTML.html#122,122,1366,625,1366,768,8-21-2022,13-37-0,103,depth_duration_stimuli/002425_2014-06-28_20-27-29_260595134347_rgbf000031-resize_8/002425_2014-06-28_20-27-29_260595134347_rgbf000031-resize_8-target.png,125,3.8960000000000004,1,2429,116,meters,jsons/VE125_randls_67.json,546384,812245,47,Man
103,746713,DepthScenes,duration_manipulation_targetAtFixation,jsons/VE125_randls_67.json,http://54.235.29.9/FacialAge/BNav_EC2/DepthDuration/v2_depth_duration_MTurk/v2_DepthDuration_HTML.html#122,122,1366,625,1366,768,8-21-2022,13-37-0,104,depth_duration_stimuli/002905_2014-06-03_18-04-43_094959634447_rgbf000151-resize_2/002905_2014-06-03_18-04-43_094959634447_rgbf000151-resize_2-target.png,125,2.0295,1,8164,124,meters,jsons/VE125_randls_67.json,546384,812245,47,Man
104,746713,DepthScenes,duration_manipulation_targetAtFixation,jsons/VE125_randls_67.json,http://54.235.29.9/FacialAge/BNav_EC2/DepthDuration/v2_depth_duration_MTurk/v2_DepthDuration_HTML.html#122,122,1366,625,1366,768,8-21-2022,13-37-0,105,depth_duration_stimuli/003423_2014-05-21_10-23-26_094959634447_rgbf002665-resize_2/003423_2014-05-21_10-23-26_094959634447_rgbf002665-resize_2-target.png,125,3.2575,1,2798,112,meters,jsons/VE125_randls_67.json,546384,812245,47,Man
105,746713,DepthScenes,duration_manipulation_targetAtFixation,jsons/VE125_randls_67.json,http://54.235.29.9/FacialAge/BNav_EC2/DepthDuration/v2_depth_duration_MTurk/v2_DepthDuration_HTML.html#122,122,1366,625,1366,768,8-21-2022,13-37-0,106,depth_duration_stimuli/002549_2014-06-24_13-41-39_094959634447_rgbf000022-resize_3/002549_2014-06-24_13-41-39_094959634447_rgbf000022-resize_3-target.png,125,1.476,1,2614,130,meters,jsons/VE125_randls_67.json,546384,812245,47,Man
106,746713,DepthScenes,duration_manipulation_targetAtFixation,jsons/VE125_randls_67.json,http://54.235.29.9/FacialAge/BNav_EC2/DepthDuration/v2_depth_duration_MTurk/v2_DepthDuration_HTML.html#122,122,1366,625,1366,768,8-21-2022,13-37-0,107,depth_duration_stimuli/002750_2014-06-22_19-08-03_094959634447_rgbf000094-resize_4/002750_2014-06-22_19-08-03_094959634447_rgbf000094-resize_4-target.png,125,2.354,0,4000,120,meters,jsons/VE125_randls_67.json,546384,812245,47,Man
107,746713,DepthScenes,duration_manipulation_targetAtFixation,jsons/VE125_randls_67.json,http://54.235.29.9/FacialAge/BNav_EC2/DepthDuration/v2_depth_duration_MTurk/v2_DepthDuration_HTML.html#122,122,1366,625,1366,768,8-21-2022,13-37-0,108,depth_duration_stimuli/001011_2014-06-08_23-18-54_260595134347_rgbf000044-resize_4/001011_2014-06-08_23-18-54_260595134347_rgbf000044-resize_4-target.png,125,2.4730000000000003,1,2900,129,meters,jsons/VE125_randls_67.json,546384,812245,47,Man
108,746713,DepthScenes,duration_manipulation_targetAtFixation,jsons/VE125_randls_67.json,http://54.235.29.9/FacialAge/BNav_EC2/DepthDuration/v2_depth_duration_MTurk/v2_DepthDuration_HTML.html#122,122,1366,625,1366,768,8-21-2022,13-37-0,109,depth_duration_stimuli/002875_2014-06-01_15-19-00_094959634447_rgbf000151-resize_1/002875_2014-06-01_15-19-00_094959634447_rgbf000151-resize_1-target.png,125,1.9675,1,2197,114,meters,jsons/VE125_randls_67.json,546384,812245,47,Man
109,746713,DepthScenes,duration_manipulation_targetAtFixation,jsons/VE125_randls_67.json,http://54.235.29.9/FacialAge/BNav_EC2/DepthDuration/v2_depth_duration_MTurk/v2_DepthDuration_HTML.html#122,122,1366,625,1366,768,8-21-2022,13-37-0,110,depth_duration_stimuli/002279_2014-06-28_18-55-32_260595134347_rgbf000040-resize_5/002279_2014-06-28_18-55-32_260595134347_rgbf000040-resize_5-target.png,125,1.5043333333333,1,1938,125,meters,jsons/VE125_randls_67.json,546384,812245,47,Man
110,746713,DepthScenes,duration_manipulation_targetAtFixation,jsons/VE125_randls_67.json,http://54.235.29.9/FacialAge/BNav_EC2/DepthDuration/v2_depth_duration_MTurk/v2_DepthDuration_HTML.html#122,122,1366,625,1366,768,8-21-2022,13-37-0,111,depth_duration_stimuli/000635_2014-06-08_16-38-42_260595134347_rgbf000106-resize_1/000635_2014-06-08_16-38-42_260595134347_rgbf000106-resize_1-target.png,125,2.074,1,1856,126,meters,jsons/VE125_randls_67.json,546384,812245,47,Man
111,746713,DepthScenes,duration_manipulation_targetAtFixation,jsons/VE125_randls_67.json,http://54.235.29.9/FacialAge/BNav_EC2/DepthDuration/v2_depth_duration_MTurk/v2_DepthDuration_HTML.html#122,122,1366,625,1366,768,8-21-2022,13-37-0,112,depth_duration_stimuli/000486_2014-06-09_20-47-20_260595134347_rgbf000143-resize_2/000486_2014-06-09_20-47-20_260595134347_rgbf000143-resize_2-target.png,125,4.8325,1,1927,111,meters,jsons/VE125_randls_67.json,546384,812245,47,Man
112,746713,DepthScenes,duration_manipulation_targetAtFixation,jsons/VE125_randls_67.json,http://54.235.29.9/FacialAge/BNav_EC2/DepthDuration/v2_depth_duration_MTurk/v2_DepthDuration_HTML.html#122,122,1366,625,1366,768,8-21-2022,13-37-0,113,depth_duration_stimuli/003083_2014-06-15_15-21-03_094959634447_rgbf000063-resize_1/003083_2014-06-15_15-21-03_094959634447_rgbf000063-resize_1-target.png,125,4.1405,1,1967,139,meters,jsons/VE125_randls_67.json,546384,812245,47,Man
113,746713,DepthScenes,duration_manipulation_targetAtFixation,jsons/VE125_randls_67.json,http://54.235.29.9/FacialAge/BNav_EC2/DepthDuration/v2_depth_duration_MTurk/v2_DepthDuration_HTML.html#122,122,1366,625,1366,768,8-21-2022,13-37-0,114,depth_duration_stimuli/001555_2014-06-20_17-12-10_260595134347_rgbf000065-resize_4/001555_2014-06-20_17-12-10_260595134347_rgbf000065-resize_4-target.png,125,1.633,1,2342,133,meters,jsons/VE125_randls_67.json,546384,812245,47,Man
114,746713,DepthScenes,duration_manipulation_targetAtFixation,jsons/VE125_randls_67.json,http://54.235.29.9/FacialAge/BNav_EC2/DepthDuration/v2_depth_duration_MTurk/v2_DepthDuration_HTML.html#122,122,1366,625,1366,768,8-21-2022,13-37-0,115,depth_duration_stimuli/000103_2014-05-14_22-01-17_260595134347_rgbf000152-resize_5/000103_2014-05-14_22-01-17_260595134347_rgbf000152-resize_5-target.png,125,1.993,1,1913,126,meters,jsons/VE125_randls_67.json,546384,812245,47,Man
115,746713,DepthScenes,duration_manipulation_targetAtFixation,jsons/VE125_randls_67.json,http://54.235.29.9/FacialAge/BNav_EC2/DepthDuration/v2_depth_duration_MTurk/v2_DepthDuration_HTML.html#122,122,1366,625,1366,768,8-21-2022,13-37-0,116,depth_duration_stimuli/001170_2014-06-17_15-43-44_260595134347_rgbf000096-resize_6/001170_2014-06-17_15-43-44_260595134347_rgbf000096-resize-original.jpg,125,1.1909999999999998,0,4474,113,meters,jsons/VE125_randls_67.json,546384,812245,47,Man
116,746713,DepthScenes,duration_manipulation_targetAtFixation,jsons/VE125_randls_67.json,http://54.235.29.9/FacialAge/BNav_EC2/DepthDuration/v2_depth_duration_MTurk/v2_DepthDuration_HTML.html#122,122,1366,625,1366,768,8-21-2022,13-37-0,117,depth_duration_stimuli/001158_2014-06-17_15-32-16_260595134347_rgbf000138-resize_2/001158_2014-06-17_15-32-16_260595134347_rgbf000138-resize_2-target.png,125,4.5315,1,4467,135,meters,jsons/VE125_randls_67.json,546384,812245,47,Man
117,746713,DepthScenes,duration_manipulation_targetAtFixation,jsons/VE125_randls_67.json,http://54.235.29.9/FacialAge/BNav_EC2/DepthDuration/v2_depth_duration_MTurk/v2_DepthDuration_HTML.html#122,122,1366,625,1366,768,8-21-2022,13-37-0,118,depth_duration_stimuli/000556_2014-06-09_22-42-56_260595134347_rgbf000214-resize_1/000556_2014-06-09_22-42-56_260595134347_rgbf000214-resize_1-target.png,125,4.8415,1,1972,126,meters,jsons/VE125_randls_67.json,546384,812245,47,Man
118,746713,DepthScenes,duration_manipulation_targetAtFixation,jsons/VE125_randls_67.json,http://54.235.29.9/FacialAge/BNav_EC2/DepthDuration/v2_depth_duration_MTurk/v2_DepthDuration_HTML.html#122,122,1366,625,1366,768,8-21-2022,13-37-0,119,depth_duration_stimuli/000929_2014-06-09_16-33-19_260595134347_rgbf000139-resize_0/000929_2014-06-09_16-33-19_260595134347_rgbf000139-resize_0-target.png,125,2.8680000000000003,2,1906,123,meters,jsons/VE125_randls_67.json,546384,812245,47,Man
119,746713,DepthScenes,duration_manipulation_targetAtFixation,jsons/VE125_randls_67.json,http://54.235.29.9/FacialAge/BNav_EC2/DepthDuration/v2_depth_duration_MTurk/v2_DepthDuration_HTML.html#122,122,1366,625,1366,768,8-21-2022,13-37-0,120,depth_duration_stimuli/000457_2014-06-08_16-52-43_260595134347_rgbf000199-resize_1/000457_2014-06-08_16-52-43_260595134347_rgbf000199-resize_1-target.png,125,3.6489999999999996,1,1916,115,meters,jsons/VE125_randls_67.json,546384,812245,47,Man
120,746713,DepthScenes,duration_manipulation_targetAtFixation,jsons/VE125_randls_67.json,http://54.235.29.9/FacialAge/BNav_EC2/DepthDuration/v2_depth_duration_MTurk/v2_DepthDuration_HTML.html#122,122,1366,625,1366,768,8-21-2022,13-37-0,121,depth_duration_stimuli/003492_2014-05-21_15-50-55_094959634447_rgbf000828-resize_1/003492_2014-05-21_15-50-55_094959634447_rgbf000828-resize_1-target.png,125,4.06875,1,1916,112,meters,jsons/VE125_randls_67.json,546384,812245,47,Man
121,746713,DepthScenes,duration_manipulation_targetAtFixation,jsons/VE125_randls_67.json,http://54.235.29.9/FacialAge/BNav_EC2/DepthDuration/v2_depth_duration_MTurk/v2_DepthDuration_HTML.html#122,122,1366,625,1366,768,8-21-2022,13-37-0,122,depth_duration_stimuli/002568_2014-06-24_13-59-21_094959634447_rgbf000062-resize_4/002568_2014-06-24_13-59-21_094959634447_rgbf000062-resize_4-target.png,125,3.015,0,4135,121,meters,jsons/VE125_randls_67.json,546384,812245,47,Man
122,746713,DepthScenes,duration_manipulation_targetAtFixation,jsons/VE125_randls_67.json,http://54.235.29.9/FacialAge/BNav_EC2/DepthDuration/v2_depth_duration_MTurk/v2_DepthDuration_HTML.html#122,122,1366,625,1366,768,8-21-2022,13-37-0,123,depth_duration_stimuli/000788_2014-06-08_22-34-36_260595134347_rgbf000131-resize_1/000788_2014-06-08_22-34-36_260595134347_rgbf000131-resize_1-target.png,125,3.359,0,34115,109,meters,jsons/VE125_randls_67.json,546384,812245,47,Man
123,746713,DepthScenes,duration_manipulation_targetAtFixation,jsons/VE125_randls_67.json,http://54.235.29.9/FacialAge/BNav_EC2/DepthDuration/v2_depth_duration_MTurk/v2_DepthDuration_HTML.html#122,122,1366,625,1366,768,8-21-2022,13-37-0,124,depth_duration_stimuli/001235_2014-06-17_16-37-36_260595134347_rgbf000084-resize_4/001235_2014-06-17_16-37-36_260595134347_rgbf000084-resize_4-target.png,125,3.6605,0,6231,123,meters,jsons/VE125_randls_67.json,546384,812245,47,Man
124,746713,DepthScenes,duration_manipulation_targetAtFixation,jsons/VE125_randls_67.json,http://54.235.29.9/FacialAge/BNav_EC2/DepthDuration/v2_depth_duration_MTurk/v2_DepthDuration_HTML.html#122,122,1366,625,1366,768,8-21-2022,13-37-0,125,depth_duration_stimuli/001808_2014-06-26_20-50-58_260595134347_rgbf000029-resize_1/001808_2014-06-26_20-50-58_260595134347_rgbf000029-resize_1-target.png,125,4.249,0,4916,141,meters,jsons/VE125_randls_67.json,546384,812245,47,Man
125,746713,DepthScenes,duration_manipulation_targetAtFixation,jsons/VE125_randls_67.json,http://54.235.29.9/FacialAge/BNav_EC2/DepthDuration/v2_depth_duration_MTurk/v2_DepthDuration_HTML.html#122,122,1366,625,1366,768,8-21-2022,13-37-0,126,depth_duration_stimuli/001815_2014-06-26_20-52-55_260595134347_rgbf000020-resize_0/001815_2014-06-26_20-52-55_260595134347_rgbf000020-resize_0-target.png,125,3.3865,1,2548,121,meters,jsons/VE125_randls_67.json,546384,812245,47,Man
126,746713,DepthScenes,duration_manipulation_targetAtFixation,jsons/VE125_randls_67.json,http://54.235.29.9/FacialAge/BNav_EC2/DepthDuration/v2_depth_duration_MTurk/v2_DepthDuration_HTML.html#122,122,1366,625,1366,768,8-21-2022,13-37-0,127,depth_duration_stimuli/002118_2014-06-25_20-32-08_260595134347_rgbf000078-resize_1/002118_2014-06-25_20-32-08_260595134347_rgbf000078-resize_1-target.png,125,2.6460000000000004,1,2757,115,meters,jsons/VE125_randls_67.json,546384,812245,47,Man
127,746713,DepthScenes,duration_manipulation_targetAtFixation,jsons/VE125_randls_67.json,http://54.235.29.9/FacialAge/BNav_EC2/DepthDuration/v2_depth_duration_MTurk/v2_DepthDuration_HTML.html#122,122,1366,625,1366,768,8-21-2022,13-37-0,128,depth_duration_stimuli/001516_2014-06-20_16-25-09_260595134347_rgbf000076-resize_2/001516_2014-06-20_16-25-09_260595134347_rgbf000076-resize_2-target.png,125,1.7445,1,2369,113,meters,jsons/VE125_randls_67.json,546384,812245,47,Man
128,746713,DepthScenes,duration_manipulation_targetAtFixation,jsons/VE125_randls_67.json,http://54.235.29.9/FacialAge/BNav_EC2/DepthDuration/v2_depth_duration_MTurk/v2_DepthDuration_HTML.html#122,122,1366,625,1366,768,8-21-2022,13-37-0,129,depth_duration_stimuli/003621_2014-05-23_18-06-08_094959634447_rgbf000101-resize_1/003621_2014-05-23_18-06-08_094959634447_rgbf000101-resize_1-target.png,125,3.9835,2,2197,125,meters,jsons/VE125_randls_67.json,546384,812245,47,Man
129,746713,DepthScenes,duration_manipulation_targetAtFixation,jsons/VE125_randls_67.json,http://54.235.29.9/FacialAge/BNav_EC2/DepthDuration/v2_depth_duration_MTurk/v2_DepthDuration_HTML.html#122,122,1366,625,1366,768,8-21-2022,13-37-0,130,depth_duration_stimuli/001584_2014-06-20_11-07-43_260595134347_rgbf000002-resize_1/001584_2014-06-20_11-07-43_260595134347_rgbf000002-resize_1-target.png,125,3.53,0,3562,117,meters,jsons/VE125_randls_67.json,546384,812245,47,Man
130,746713,DepthScenes,duration_manipulation_targetAtFixation,jsons/VE125_randls_67.json,http://54.235.29.9/FacialAge/BNav_EC2/DepthDuration/v2_depth_duration_MTurk/v2_DepthDuration_HTML.html#122,122,1366,625,1366,768,8-21-2022,13-37-0,131,depth_duration_stimuli/003292_2014-05-14_21-53-49_094959634447_rgbf000100-resize_2/003292_2014-05-14_21-53-49_094959634447_rgbf000100-resize_2-target.png,125,3.4815,1,1970,117,meters,jsons/VE125_randls_67.json,546384,812245,47,Man
131,746713,DepthScenes,duration_manipulation_targetAtFixation,jsons/VE125_randls_67.json,http://54.235.29.9/FacialAge/BNav_EC2/DepthDuration/v2_depth_duration_MTurk/v2_DepthDuration_HTML.html#122,122,1366,625,1366,768,8-21-2022,13-37-0,132,depth_duration_stimuli/002639_2014-06-24_14-51-37_094959634447_rgbf000074-resize_4/002639_2014-06-24_14-51-37_094959634447_rgbf000074-resize_4-target.png,125,4.0375,1,2666,126,meters,jsons/VE125_randls_67.json,546384,812245,47,Man
132,746713,DepthScenes,duration_manipulation_targetAtFixation,jsons/VE125_randls_67.json,http://54.235.29.9/FacialAge/BNav_EC2/DepthDuration/v2_depth_duration_MTurk/v2_DepthDuration_HTML.html#122,122,1366,625,1366,768,8-21-2022,13-37-0,133,depth_duration_stimuli/001029_2014-06-08_13-17-57_260595134347_rgbf000065-resize_1/001029_2014-06-08_13-17-57_260595134347_rgbf000065-resize_1-target.png,125,3.0835,0,4080,124,meters,jsons/VE125_randls_67.json,546384,812245,47,Man
133,746713,DepthScenes,duration_manipulation_targetAtFixation,jsons/VE125_randls_67.json,http://54.235.29.9/FacialAge/BNav_EC2/DepthDuration/v2_depth_duration_MTurk/v2_DepthDuration_HTML.html#122,122,1366,625,1366,768,8-21-2022,13-37-0,134,depth_duration_stimuli/000677_2014-06-08_23-10-32_260595134347_rgbf000158-resize_6/000677_2014-06-08_23-10-32_260595134347_rgbf000158-resize_6-target.png,125,3.556,1,2271,122,meters,jsons/VE125_randls_67.json,546384,812245,47,Man
134,746713,DepthScenes,duration_manipulation_targetAtFixation,jsons/VE125_randls_67.json,http://54.235.29.9/FacialAge/BNav_EC2/DepthDuration/v2_depth_duration_MTurk/v2_DepthDuration_HTML.html#122,122,1366,625,1366,768,8-21-2022,13-37-0,135,depth_duration_stimuli/002072_2014-06-24_21-48-06_260595134347_rgbf000115-resize_0/002072_2014-06-24_21-48-06_260595134347_rgbf000115-resize-original.jpg,125,4.702,0,3777,109,meters,jsons/VE125_randls_67.json,546384,812245,47,Man
135,746713,DepthScenes,duration_manipulation_targetAtFixation,jsons/VE125_randls_67.json,http://54.235.29.9/FacialAge/BNav_EC2/DepthDuration/v2_depth_duration_MTurk/v2_DepthDuration_HTML.html#122,122,1366,625,1366,768,8-21-2022,13-37-0,136,depth_duration_stimuli/002748_2014-06-22_19-07-22_094959634447_rgbf000078-resize_1/002748_2014-06-22_19-07-22_094959634447_rgbf000078-resize_1-target.png,125,4.6705,2,2389,124,meters,jsons/VE125_randls_67.json,546384,812245,47,Man
136,746713,DepthScenes,duration_manipulation_targetAtFixation,jsons/VE125_randls_67.json,http://54.235.29.9/FacialAge/BNav_EC2/DepthDuration/v2_depth_duration_MTurk/v2_DepthDuration_HTML.html#122,122,1366,625,1366,768,8-21-2022,13-37-0,137,depth_duration_stimuli/002995_2014-06-15_12-31-26_094959634447_rgbf000150-resize_1/002995_2014-06-15_12-31-26_094959634447_rgbf000150-resize_1-target.png,125,3.8360000000000003,1,2192,134,meters,jsons/VE125_randls_67.json,546384,812245,47,Man
137,746713,DepthScenes,duration_manipulation_targetAtFixation,jsons/VE125_randls_67.json,http://54.235.29.9/FacialAge/BNav_EC2/DepthDuration/v2_depth_duration_MTurk/v2_DepthDuration_HTML.html#122,122,1366,625,1366,768,8-21-2022,13-37-0,138,depth_duration_stimuli/002784_2014-06-22_19-26-30_094959634447_rgbf000083-resize_3/002784_2014-06-22_19-26-30_094959634447_rgbf000083-resize_3-target.png,125,1.8046666666667,1,2166,123,meters,jsons/VE125_randls_67.json,546384,812245,47,Man
138,746713,DepthScenes,duration_manipulation_targetAtFixation,jsons/VE125_randls_67.json,http://54.235.29.9/FacialAge/BNav_EC2/DepthDuration/v2_depth_duration_MTurk/v2_DepthDuration_HTML.html#122,122,1366,625,1366,768,8-21-2022,13-37-0,139,depth_duration_stimuli/001100_2014-06-15_17-46-26_260595134347_rgbf000225-resize_2/001100_2014-06-15_17-46-26_260595134347_rgbf000225-resize_2-target.png,125,2.24,0,3602,125,meters,jsons/VE125_randls_67.json,546384,812245,47,Man
139,746713,DepthScenes,duration_manipulation_targetAtFixation,jsons/VE125_randls_67.json,http://54.235.29.9/FacialAge/BNav_EC2/DepthDuration/v2_depth_duration_MTurk/v2_DepthDuration_HTML.html#122,122,1366,625,1366,768,8-21-2022,13-37-0,140,depth_duration_stimuli/002057_2014-06-24_21-00-13_260595134347_rgbf000120-resize_1/002057_2014-06-24_21-00-13_260595134347_rgbf000120-resize_1-target.png,125,2.967,1,2298,124,meters,jsons/VE125_randls_67.json,546384,812245,47,Man
140,746713,DepthScenes,duration_manipulation_targetAtFixation,jsons/VE125_randls_67.json,http://54.235.29.9/FacialAge/BNav_EC2/DepthDuration/v2_depth_duration_MTurk/v2_DepthDuration_HTML.html#122,122,1366,625,1366,768,8-21-2022,13-37-0,141,depth_duration_stimuli/000709_2014-06-08_13-51-55_260595134347_rgbf000068-resize_3/000709_2014-06-08_13-51-55_260595134347_rgbf000068-resize_3-target.png,125,1.8030000000000002,1,3286,122,meters,jsons/VE125_randls_67.json,546384,812245,47,Man
141,746713,DepthScenes,duration_manipulation_targetAtFixation,jsons/VE125_randls_67.json,http://54.235.29.9/FacialAge/BNav_EC2/DepthDuration/v2_depth_duration_MTurk/v2_DepthDuration_HTML.html#122,122,1366,625,1366,768,8-21-2022,13-37-0,142,depth_duration_stimuli/001110_2014-06-15_17-25-28_260595134347_rgbf000150-resize_1/001110_2014-06-15_17-25-28_260595134347_rgbf000150-resize_1-target.png,125,1.7115,1,1989,126,meters,jsons/VE125_randls_67.json,546384,812245,47,Man
142,746713,DepthScenes,duration_manipulation_targetAtFixation,jsons/VE125_randls_67.json,http://54.235.29.9/FacialAge/BNav_EC2/DepthDuration/v2_depth_duration_MTurk/v2_DepthDuration_HTML.html#122,122,1366,625,1366,768,8-21-2022,13-37-0,143,depth_duration_stimuli/000927_2014-06-09_16-32-30_260595134347_rgbf000123-resize_3/000927_2014-06-09_16-32-30_260595134347_rgbf000123-resize_3-target.png,125,2.6785,0,3816,125,meters,jsons/VE125_randls_67.json,546384,812245,47,Man
143,746713,DepthScenes,duration_manipulation_targetAtFixation,jsons/VE125_randls_67.json,http://54.235.29.9/FacialAge/BNav_EC2/DepthDuration/v2_depth_duration_MTurk/v2_DepthDuration_HTML.html#122,122,1366,625,1366,768,8-21-2022,13-37-0,144,depth_duration_stimuli/002039_2014-06-24_20-22-38_260595134347_rgbf000084-resize_1/002039_2014-06-24_20-22-38_260595134347_rgbf000084-resize_1-target.png,125,4.408,1,2078,128,meters,jsons/VE125_randls_67.json,546384,812245,47,Man
144,746713,DepthScenes,duration_manipulation_targetAtFixation,jsons/VE125_randls_67.json,http://54.235.29.9/FacialAge/BNav_EC2/DepthDuration/v2_depth_duration_MTurk/v2_DepthDuration_HTML.html#122,122,1366,625,1366,768,8-21-2022,13-37-0,145,depth_duration_stimuli/002103_2014-06-25_20-00-40_260595134347_rgbf000049-resize_0/002103_2014-06-25_20-00-40_260595134347_rgbf000049-resize_0-target.png,125,4.105,1,1892,125,meters,jsons/VE125_randls_67.json,546384,812245,47,Man
145,746713,DepthScenes,duration_manipulation_targetAtFixation,jsons/VE125_randls_67.json,http://54.235.29.9/FacialAge/BNav_EC2/DepthDuration/v2_depth_duration_MTurk/v2_DepthDuration_HTML.html#122,122,1366,625,1366,768,8-21-2022,13-37-0,146,depth_duration_stimuli/001498_2014-06-19_17-45-14_260595134347_rgbf000129-resize_4/001498_2014-06-19_17-45-14_260595134347_rgbf000129-resize-original.jpg,125,1.4075,0,2739,113,meters,jsons/VE125_randls_67.json,546384,812245,47,Man
146,746713,DepthScenes,duration_manipulation_targetAtFixation,jsons/VE125_randls_67.json,http://54.235.29.9/FacialAge/BNav_EC2/DepthDuration/v2_depth_duration_MTurk/v2_DepthDuration_HTML.html#122,122,1366,625,1366,768,8-21-2022,13-37-0,147,depth_duration_stimuli/002663_2014-06-13_15-50-26_094959634447_rgbf000075-resize_1/002663_2014-06-13_15-50-26_094959634447_rgbf000075-resize_1-target.png,125,4.7495,1,2016,113,meters,jsons/VE125_randls_67.json,546384,812245,47,Man
147,746713,DepthScenes,duration_manipulation_targetAtFixation,jsons/VE125_randls_67.json,http://54.235.29.9/FacialAge/BNav_EC2/DepthDuration/v2_depth_duration_MTurk/v2_DepthDuration_HTML.html#122,122,1366,625,1366,768,8-21-2022,13-37-0,148,depth_duration_stimuli/000409_2014-06-04_19-23-33_260595134347_rgbf000067-resize_0/000409_2014-06-04_19-23-33_260595134347_rgbf000067-resize_0-target.png,125,3.7335,1,1926,121,meters,jsons/VE125_randls_67.json,546384,812245,47,Man
148,746713,DepthScenes,duration_manipulation_targetAtFixation,jsons/VE125_randls_67.json,http://54.235.29.9/FacialAge/BNav_EC2/DepthDuration/v2_depth_duration_MTurk/v2_DepthDuration_HTML.html#122,122,1366,625,1366,768,8-21-2022,13-37-0,149,depth_duration_stimuli/001055_2014-06-08_18-45-35_260595134347_rgbf000111-resize_4/001055_2014-06-08_18-45-35_260595134347_rgbf000111-resize_4-target.png,125,2.4290000000000003,2,2174,124,meters,jsons/VE125_randls_67.json,546384,812245,47,Man
149,746713,DepthScenes,duration_manipulation_targetAtFixation,jsons/VE125_randls_67.json,http://54.235.29.9/FacialAge/BNav_EC2/DepthDuration/v2_depth_duration_MTurk/v2_DepthDuration_HTML.html#122,122,1366,625,1366,768,8-21-2022,13-37-0,150,depth_duration_stimuli/000549_2014-06-08_22-10-24_260595134347_rgbf000247-resize_3/000549_2014-06-08_22-10-24_260595134347_rgbf000247-resize_3-target.png,125,1.841,2,2304,124,meters,jsons/VE125_randls_67.json,546384,812245,47,Man
150,746713,DepthScenes,duration_manipulation_targetAtFixation,jsons/VE125_randls_67.json,http://54.235.29.9/FacialAge/BNav_EC2/DepthDuration/v2_depth_duration_MTurk/v2_DepthDuration_HTML.html#122,122,1366,625,1366,768,8-21-2022,13-37-0,151,depth_duration_stimuli/000506_2014-06-08_23-21-00_260595134347_rgbf000070-resize_7/000506_2014-06-08_23-21-00_260595134347_rgbf000070-resize_7-target.png,125,4.0585,1,1794,121,meters,jsons/VE125_randls_67.json,546384,812245,47,Man
151,746713,DepthScenes,duration_manipulation_targetAtFixation,jsons/VE125_randls_67.json,http://54.235.29.9/FacialAge/BNav_EC2/DepthDuration/v2_depth_duration_MTurk/v2_DepthDuration_HTML.html#122,122,1366,625,1366,768,8-21-2022,13-37-0,152,depth_duration_stimuli/003079_2014-06-15_15-18-20_094959634447_rgbf000152-resize_8/003079_2014-06-15_15-18-20_094959634447_rgbf000152-resize_8-target.png,125,2.8775,2,2349,126,meters,jsons/VE125_randls_67.json,546384,812245,47,Man
152,746713,DepthScenes,duration_manipulation_targetAtFixation,jsons/VE125_randls_67.json,http://54.235.29.9/FacialAge/BNav_EC2/DepthDuration/v2_depth_duration_MTurk/v2_DepthDuration_HTML.html#122,122,1366,625,1366,768,8-21-2022,13-37-0,153,depth_duration_stimuli/000414_2014-06-04_19-49-13_260595134347_rgbf000044-resize_0/000414_2014-06-04_19-49-13_260595134347_rgbf000044-resize_0-target.png,125,4.329,2,4984,141,meters,jsons/VE125_randls_67.json,546384,812245,47,Man
153,746713,DepthScenes,duration_manipulation_targetAtFixation,jsons/VE125_randls_67.json,http://54.235.29.9/FacialAge/BNav_EC2/DepthDuration/v2_depth_duration_MTurk/v2_DepthDuration_HTML.html#122,122,1366,625,1366,768,8-21-2022,13-37-0,154,depth_duration_stimuli/003129_2014-05-12_10-48-10_094959634447_rgbf000100-resize_0/003129_2014-05-12_10-48-10_094959634447_rgbf000100-resize_0-target.png,125,4.9305,1,1927,127,meters,jsons/VE125_randls_67.json,546384,812245,47,Man
154,746713,DepthScenes,duration_manipulation_targetAtFixation,jsons/VE125_randls_67.json,http://54.235.29.9/FacialAge/BNav_EC2/DepthDuration/v2_depth_duration_MTurk/v2_DepthDuration_HTML.html#122,122,1366,625,1366,768,8-21-2022,13-37-0,155,depth_duration_stimuli/002988_2014-06-15_12-24-20_094959634447_rgbf000150-resize_1/002988_2014-06-15_12-24-20_094959634447_rgbf000150-resize_1-target.png,125,4.7669999999999995,2,2175,125,meters,jsons/VE125_randls_67.json,546384,812245,47,Man
155,746713,DepthScenes,duration_manipulation_targetAtFixation,jsons/VE125_randls_67.json,http://54.235.29.9/FacialAge/BNav_EC2/DepthDuration/v2_depth_duration_MTurk/v2_DepthDuration_HTML.html#122,122,1366,625,1366,768,8-21-2022,13-37-0,156,depth_duration_stimuli/001052_2014-06-08_18-24-54_260595134347_rgbf000130-resize_1/001052_2014-06-08_18-24-54_260595134347_rgbf000130-resize_1-target.png,125,4.1045,2,2158,124,meters,jsons/VE125_randls_67.json,546384,812245,47,Man
156,746713,DepthScenes,duration_manipulation_targetAtFixation,jsons/VE125_randls_67.json,http://54.235.29.9/FacialAge/BNav_EC2/DepthDuration/v2_depth_duration_MTurk/v2_DepthDuration_HTML.html#122,122,1366,625,1366,768,8-21-2022,13-37-0,157,depth_duration_stimuli/002964_2014-06-08_17-46-11_094959634447_rgbf000091-resize_4/002964_2014-06-08_17-46-11_094959634447_rgbf000091-resize_4-target.png,125,1.6909999999999998,1,2016,122,meters,jsons/VE125_randls_67.json,546384,812245,47,Man
157,746713,DepthScenes,duration_manipulation_targetAtFixation,jsons/VE125_randls_67.json,http://54.235.29.9/FacialAge/BNav_EC2/DepthDuration/v2_depth_duration_MTurk/v2_DepthDuration_HTML.html#122,122,1366,625,1366,768,8-21-2022,13-37-0,158,depth_duration_stimuli/002136_2014-06-25_21-18-03_260595134347_rgbf000109-resize_3/002136_2014-06-25_21-18-03_260595134347_rgbf000109-resize_3-target.png,125,1.9569999999999999,1,1867,126,meters,jsons/VE125_randls_67.json,546384,812245,47,Man
158,746713,DepthScenes,duration_manipulation_targetAtFixation,jsons/VE125_randls_67.json,http://54.235.29.9/FacialAge/BNav_EC2/DepthDuration/v2_depth_duration_MTurk/v2_DepthDuration_HTML.html#122,122,1366,625,1366,768,8-21-2022,13-37-0,159,depth_duration_stimuli/002375_2014-06-28_20-13-44_260595134347_rgbf000032-resize_1/002375_2014-06-28_20-13-44_260595134347_rgbf000032-resize_1-target.png,125,4.0175,1,2212,136,meters,jsons/VE125_randls_67.json,546384,812245,47,Man
159,746713,DepthScenes,duration_manipulation_targetAtFixation,jsons/VE125_randls_67.json,http://54.235.29.9/FacialAge/BNav_EC2/DepthDuration/v2_depth_duration_MTurk/v2_DepthDuration_HTML.html#122,122,1366,625,1366,768,8-21-2022,13-37-0,160,depth_duration_stimuli/002657_2014-06-13_15-29-54_094959634447_rgbf000150-resize_1/002657_2014-06-13_15-29-54_094959634447_rgbf000150-resize_1-target.png,125,4.919,1,1836,124,meters,jsons/VE125_randls_67.json,546384,812245,47,Man
160,746713,DepthScenes,duration_manipulation_targetAtFixation,jsons/VE125_randls_67.json,http://54.235.29.9/FacialAge/BNav_EC2/DepthDuration/v2_depth_duration_MTurk/v2_DepthDuration_HTML.html#122,122,1366,625,1366,768,8-21-2022,13-37-0,161,depth_duration_stimuli/001133_2014-06-17_14-49-16_260595134347_rgbf000100-resize_0/001133_2014-06-17_14-49-16_260595134347_rgbf000100-resize_0-target.png,125,4.2115,1,1713,119,meters,jsons/VE125_randls_67.json,546384,812245,47,Man
161,746713,DepthScenes,duration_manipulation_targetAtFixation,jsons/VE125_randls_67.json,http://54.235.29.9/FacialAge/BNav_EC2/DepthDuration/v2_depth_duration_MTurk/v2_DepthDuration_HTML.html#122,122,1366,625,1366,768,8-21-2022,13-37-0,162,depth_duration_stimuli/001132_2014-06-17_14-48-54_260595134347_rgbf000100-resize_2/001132_2014-06-17_14-48-54_260595134347_rgbf000100-resize_2-target.png,125,3.753,1,1962,125,meters,jsons/VE125_randls_67.json,546384,812245,47,Man
162,746713,DepthScenes,duration_manipulation_targetAtFixation,jsons/VE125_randls_67.json,http://54.235.29.9/FacialAge/BNav_EC2/DepthDuration/v2_depth_duration_MTurk/v2_DepthDuration_HTML.html#122,122,1366,625,1366,768,8-21-2022,13-37-0,163,depth_duration_stimuli/002989_2014-06-15_12-25-03_094959634447_rgbf000150-resize_3/002989_2014-06-15_12-25-03_094959634447_rgbf000150-resize_3-target.png,125,4.1975,2,2299,131,meters,jsons/VE125_randls_67.json,546384,812245,47,Man
163,746713,DepthScenes,duration_manipulation_targetAtFixation,jsons/VE125_randls_67.json,http://54.235.29.9/FacialAge/BNav_EC2/DepthDuration/v2_depth_duration_MTurk/v2_DepthDuration_HTML.html#122,122,1366,625,1366,768,8-21-2022,13-37-0,164,depth_duration_stimuli/000866_2014-06-09_20-45-42_260595134347_rgbf000139-resize_1/000866_2014-06-09_20-45-42_260595134347_rgbf000139-resize_1-target.png,125,3.2155,1,1992,124,meters,jsons/VE125_randls_67.json,546384,812245,47,Man
