,subjID,experimentName,versionName,sequenceName,url,selected_row,windowWidth,windowHeight,screenWidth,screenHeight,startDate,startTime,trial,stimulus,duration,actual_depth,depth_estimate,trial_RT,log_sceneDuration,unitSelection,seq_filepath,experimentTime,totalTime,age,gender
0,747439,DepthScenes,duration_manipulation_targetAtFixation,jsons/v1_VE1000_randls_26_rotated.json,http://54.235.29.9/FacialAge/BNav_EC2/DepthDuration/v2_depth_duration_MTurk/v2_DepthDuration_HTML.html#263,263,1364,657,1364,768,8-30-2022,9-53-22,1,depth_duration_stimuli/002323_2014-06-28_20-01-54_260595134347_rgbf000051-resize_4/002323_2014-06-28_20-01-54_260595134347_rgbf000051-resize_4-target.png,1000,3.7310000000000003,50,6429,999,feet,jsons/v1_VE1000_randls_26_rotated.json,1087455,1209254,36,Man
1,747439,DepthScenes,duration_manipulation_targetAtFixation,jsons/v1_VE1000_randls_26_rotated.json,http://54.235.29.9/FacialAge/BNav_EC2/DepthDuration/v2_depth_duration_MTurk/v2_DepthDuration_HTML.html#263,263,1364,657,1364,768,8-30-2022,9-53-22,2,depth_duration_stimuli/000917_2014-06-09_22-45-29_260595134347_rgbf000149-resize_3/000917_2014-06-09_22-45-29_260595134347_rgbf000149-resize_3-target.png,1000,4.1865,50,3907,1000,feet,jsons/v1_VE1000_randls_26_rotated.json,1087455,1209254,36,Man
2,747439,DepthScenes,duration_manipulation_targetAtFixation,jsons/v1_VE1000_randls_26_rotated.json,http://54.235.29.9/FacialAge/BNav_EC2/DepthDuration/v2_depth_duration_MTurk/v2_DepthDuration_HTML.html#263,263,1364,657,1364,768,8-30-2022,9-53-22,3,depth_duration_stimuli/002340_2014-06-28_20-05-46_260595134347_rgbf000113-resize_0/002340_2014-06-28_20-05-46_260595134347_rgbf000113-resize_0-target.png,1000,2.4735,40,6308,999,feet,jsons/v1_VE1000_randls_26_rotated.json,1087455,1209254,36,Man
3,747439,DepthScenes,duration_manipulation_targetAtFixation,jsons/v1_VE1000_randls_26_rotated.json,http://54.235.29.9/FacialAge/BNav_EC2/DepthDuration/v2_depth_duration_MTurk/v2_DepthDuration_HTML.html#263,263,1364,657,1364,768,8-30-2022,9-53-22,4,depth_duration_stimuli/001016_2014-06-09_16-16-10_260595134347_rgbf000112-resize_5/001016_2014-06-09_16-16-10_260595134347_rgbf000112-resize_5-target.png,1000,1.6565,50,4187,998,feet,jsons/v1_VE1000_randls_26_rotated.json,1087455,1209254,36,Man
4,747439,DepthScenes,duration_manipulation_targetAtFixation,jsons/v1_VE1000_randls_26_rotated.json,http://54.235.29.9/FacialAge/BNav_EC2/DepthDuration/v2_depth_duration_MTurk/v2_DepthDuration_HTML.html#263,263,1364,657,1364,768,8-30-2022,9-53-22,5,depth_duration_stimuli/001828_2014-06-26_21-40-03_260595134347_rgbf000024-resize_0/001828_2014-06-26_21-40-03_260595134347_rgbf000024-resize_0-target.png,1000,4.8260000000000005,40,6679,999,feet,jsons/v1_VE1000_randls_26_rotated.json,1087455,1209254,36,Man
5,747439,DepthScenes,duration_manipulation_targetAtFixation,jsons/v1_VE1000_randls_26_rotated.json,http://54.235.29.9/FacialAge/BNav_EC2/DepthDuration/v2_depth_duration_MTurk/v2_DepthDuration_HTML.html#263,263,1364,657,1364,768,8-30-2022,9-53-22,6,depth_duration_stimuli/000009_2014-05-26_14-32-05_260595134347_rgbf000034-resize_3/000009_2014-05-26_14-32-05_260595134347_rgbf000034-resize_3-target.png,1000,3.8715,50,3789,999,feet,jsons/v1_VE1000_randls_26_rotated.json,1087455,1209254,36,Man
6,747439,DepthScenes,duration_manipulation_targetAtFixation,jsons/v1_VE1000_randls_26_rotated.json,http://54.235.29.9/FacialAge/BNav_EC2/DepthDuration/v2_depth_duration_MTurk/v2_DepthDuration_HTML.html#263,263,1364,657,1364,768,8-30-2022,9-53-22,7,depth_duration_stimuli/002103_2014-06-25_20-00-40_260595134347_rgbf000049-resize_0/002103_2014-06-25_20-00-40_260595134347_rgbf000049-resize_0-target.png,1000,4.105,50,6068,1000,feet,jsons/v1_VE1000_randls_26_rotated.json,1087455,1209254,36,Man
7,747439,DepthScenes,duration_manipulation_targetAtFixation,jsons/v1_VE1000_randls_26_rotated.json,http://54.235.29.9/FacialAge/BNav_EC2/DepthDuration/v2_depth_duration_MTurk/v2_DepthDuration_HTML.html#263,263,1364,657,1364,768,8-30-2022,9-53-22,8,depth_duration_stimuli/002039_2014-06-24_20-22-38_260595134347_rgbf000084-resize_1/002039_2014-06-24_20-22-38_260595134347_rgbf000084-resize_1-target.png,1000,4.408,50,4040,999,feet,jsons/v1_VE1000_randls_26_rotated.json,1087455,1209254,36,Man
8,747439,DepthScenes,duration_manipulation_targetAtFixation,jsons/v1_VE1000_randls_26_rotated.json,http://54.235.29.9/FacialAge/BNav_EC2/DepthDuration/v2_depth_duration_MTurk/v2_DepthDuration_HTML.html#263,263,1364,657,1364,768,8-30-2022,9-53-22,9,depth_duration_stimuli/000635_2014-06-08_16-38-42_260595134347_rgbf000106-resize_1/000635_2014-06-08_16-38-42_260595134347_rgbf000106-resize_1-target.png,1000,2.074,40,5949,999,feet,jsons/v1_VE1000_randls_26_rotated.json,1087455,1209254,36,Man
9,747439,DepthScenes,duration_manipulation_targetAtFixation,jsons/v1_VE1000_randls_26_rotated.json,http://54.235.29.9/FacialAge/BNav_EC2/DepthDuration/v2_depth_duration_MTurk/v2_DepthDuration_HTML.html#263,263,1364,657,1364,768,8-30-2022,9-53-22,10,depth_duration_stimuli/002279_2014-06-28_18-55-32_260595134347_rgbf000040-resize_5/002279_2014-06-28_18-55-32_260595134347_rgbf000040-resize_5-target.png,1000,1.5043333333333,50,3897,999,feet,jsons/v1_VE1000_randls_26_rotated.json,1087455,1209254,36,Man
10,747439,DepthScenes,duration_manipulation_targetAtFixation,jsons/v1_VE1000_randls_26_rotated.json,http://54.235.29.9/FacialAge/BNav_EC2/DepthDuration/v2_depth_duration_MTurk/v2_DepthDuration_HTML.html#263,263,1364,657,1364,768,8-30-2022,9-53-22,11,depth_duration_stimuli/003338_2014-05-20_11-01-23_094959634447_rgbf000051-resize_6/003338_2014-05-20_11-01-23_094959634447_rgbf000051-resize_6-target.png,1000,1.693,50,6948,999,feet,jsons/v1_VE1000_randls_26_rotated.json,1087455,1209254,36,Man
11,747439,DepthScenes,duration_manipulation_targetAtFixation,jsons/v1_VE1000_randls_26_rotated.json,http://54.235.29.9/FacialAge/BNav_EC2/DepthDuration/v2_depth_duration_MTurk/v2_DepthDuration_HTML.html#263,263,1364,657,1364,768,8-30-2022,9-53-22,12,depth_duration_stimuli/002509_2014-06-24_13-19-22_094959634447_rgbf000077-resize_0/002509_2014-06-24_13-19-22_094959634447_rgbf000077-resize_0-target.png,1000,1.3065,50,4129,1000,feet,jsons/v1_VE1000_randls_26_rotated.json,1087455,1209254,36,Man
12,747439,DepthScenes,duration_manipulation_targetAtFixation,jsons/v1_VE1000_randls_26_rotated.json,http://54.235.29.9/FacialAge/BNav_EC2/DepthDuration/v2_depth_duration_MTurk/v2_DepthDuration_HTML.html#263,263,1364,657,1364,768,8-30-2022,9-53-22,13,depth_duration_stimuli/000854_2014-06-09_19-43-13_260595134347_rgbf000066-resize_0/000854_2014-06-09_19-43-13_260595134347_rgbf000066-resize_0-target.png,1000,3.068,45,6104,995,feet,jsons/v1_VE1000_randls_26_rotated.json,1087455,1209254,36,Man
13,747439,DepthScenes,duration_manipulation_targetAtFixation,jsons/v1_VE1000_randls_26_rotated.json,http://54.235.29.9/FacialAge/BNav_EC2/DepthDuration/v2_depth_duration_MTurk/v2_DepthDuration_HTML.html#263,263,1364,657,1364,768,8-30-2022,9-53-22,14,depth_duration_stimuli/000758_2014-06-08_22-05-08_260595134347_rgbf000085-resize_0/000758_2014-06-08_22-05-08_260595134347_rgbf000085-resize_0-target.png,1000,3.3810000000000002,40,3923,999,feet,jsons/v1_VE1000_randls_26_rotated.json,1087455,1209254,36,Man
14,747439,DepthScenes,duration_manipulation_targetAtFixation,jsons/v1_VE1000_randls_26_rotated.json,http://54.235.29.9/FacialAge/BNav_EC2/DepthDuration/v2_depth_duration_MTurk/v2_DepthDuration_HTML.html#263,263,1364,657,1364,768,8-30-2022,9-53-22,15,depth_duration_stimuli/001447_2014-06-19_17-00-32_260595134347_rgbf000082-resize_5/001447_2014-06-19_17-00-32_260595134347_rgbf000082-resize_5-target.png,1000,4.13775,40,6083,998,feet,jsons/v1_VE1000_randls_26_rotated.json,1087455,1209254,36,Man
15,747439,DepthScenes,duration_manipulation_targetAtFixation,jsons/v1_VE1000_randls_26_rotated.json,http://54.235.29.9/FacialAge/BNav_EC2/DepthDuration/v2_depth_duration_MTurk/v2_DepthDuration_HTML.html#263,263,1364,657,1364,768,8-30-2022,9-53-22,16,depth_duration_stimuli/000447_2014-06-08_16-15-46_260595134347_rgbf000130-resize_1/000447_2014-06-08_16-15-46_260595134347_rgbf000130-resize_1-target.png,1000,4.479,35,4499,1001,feet,jsons/v1_VE1000_randls_26_rotated.json,1087455,1209254,36,Man
16,747439,DepthScenes,duration_manipulation_targetAtFixation,jsons/v1_VE1000_randls_26_rotated.json,http://54.235.29.9/FacialAge/BNav_EC2/DepthDuration/v2_depth_duration_MTurk/v2_DepthDuration_HTML.html#263,263,1364,657,1364,768,8-30-2022,9-53-22,17,depth_duration_stimuli/001571_2014-06-20_17-21-32_260595134347_rgbf000089-resize_1/001571_2014-06-20_17-21-32_260595134347_rgbf000089-resize_1-target.png,1000,1.86,50,6398,998,feet,jsons/v1_VE1000_randls_26_rotated.json,1087455,1209254,36,Man
17,747439,DepthScenes,duration_manipulation_targetAtFixation,jsons/v1_VE1000_randls_26_rotated.json,http://54.235.29.9/FacialAge/BNav_EC2/DepthDuration/v2_depth_duration_MTurk/v2_DepthDuration_HTML.html#263,263,1364,657,1364,768,8-30-2022,9-53-22,18,depth_duration_stimuli/002272_2014-06-28_18-53-56_260595134347_rgbf000067-resize_2/002272_2014-06-28_18-53-56_260595134347_rgbf000067-resize_2-target.png,1000,1.138,50,3993,998,feet,jsons/v1_VE1000_randls_26_rotated.json,1087455,1209254,36,Man
18,747439,DepthScenes,duration_manipulation_targetAtFixation,jsons/v1_VE1000_randls_26_rotated.json,http://54.235.29.9/FacialAge/BNav_EC2/DepthDuration/v2_depth_duration_MTurk/v2_DepthDuration_HTML.html#263,263,1364,657,1364,768,8-30-2022,9-53-22,19,depth_duration_stimuli/001498_2014-06-19_17-45-14_260595134347_rgbf000129-resize_4/001498_2014-06-19_17-45-14_260595134347_rgbf000129-resize-original.jpg,1000,1.4075,0,6278,1001,feet,jsons/v1_VE1000_randls_26_rotated.json,1087455,1209254,36,Man
19,747439,DepthScenes,duration_manipulation_targetAtFixation,jsons/v1_VE1000_randls_26_rotated.json,http://54.235.29.9/FacialAge/BNav_EC2/DepthDuration/v2_depth_duration_MTurk/v2_DepthDuration_HTML.html#263,263,1364,657,1364,768,8-30-2022,9-53-22,20,depth_duration_stimuli/001136_2014-06-17_15-19-41_260595134347_rgbf000076-resize_3/001136_2014-06-17_15-19-41_260595134347_rgbf000076-resize_3-target.png,1000,1.8655,25,6428,1000,feet,jsons/v1_VE1000_randls_26_rotated.json,1087455,1209254,36,Man
20,747439,DepthScenes,duration_manipulation_targetAtFixation,jsons/v1_VE1000_randls_26_rotated.json,http://54.235.29.9/FacialAge/BNav_EC2/DepthDuration/v2_depth_duration_MTurk/v2_DepthDuration_HTML.html#263,263,1364,657,1364,768,8-30-2022,9-53-22,21,depth_duration_stimuli/001164_2014-06-17_15-35-46_260595134347_rgbf000085-resize_3/001164_2014-06-17_15-35-46_260595134347_rgbf000085-resize_3-target.png,1000,2.354,0,4400,1251,feet,jsons/v1_VE1000_randls_26_rotated.json,1087455,1209254,36,Man
21,747439,DepthScenes,duration_manipulation_targetAtFixation,jsons/v1_VE1000_randls_26_rotated.json,http://54.235.29.9/FacialAge/BNav_EC2/DepthDuration/v2_depth_duration_MTurk/v2_DepthDuration_HTML.html#263,263,1364,657,1364,768,8-30-2022,9-53-22,22,depth_duration_stimuli/001052_2014-06-08_18-24-54_260595134347_rgbf000130-resize_1/001052_2014-06-08_18-24-54_260595134347_rgbf000130-resize_1-target.png,1000,4.1045,20,14798,1001,feet,jsons/v1_VE1000_randls_26_rotated.json,1087455,1209254,36,Man
22,747439,DepthScenes,duration_manipulation_targetAtFixation,jsons/v1_VE1000_randls_26_rotated.json,http://54.235.29.9/FacialAge/BNav_EC2/DepthDuration/v2_depth_duration_MTurk/v2_DepthDuration_HTML.html#263,263,1364,657,1364,768,8-30-2022,9-53-22,23,depth_duration_stimuli/002988_2014-06-15_12-24-20_094959634447_rgbf000150-resize_1/002988_2014-06-15_12-24-20_094959634447_rgbf000150-resize_1-target.png,1000,4.7669999999999995,25,3868,1002,feet,jsons/v1_VE1000_randls_26_rotated.json,1087455,1209254,36,Man
23,747439,DepthScenes,duration_manipulation_targetAtFixation,jsons/v1_VE1000_randls_26_rotated.json,http://54.235.29.9/FacialAge/BNav_EC2/DepthDuration/v2_depth_duration_MTurk/v2_DepthDuration_HTML.html#263,263,1364,657,1364,768,8-30-2022,9-53-22,24,depth_duration_stimuli/003423_2014-05-21_10-23-26_094959634447_rgbf002665-resize_2/003423_2014-05-21_10-23-26_094959634447_rgbf002665-resize_2-target.png,1000,3.2575,50,5965,1007,feet,jsons/v1_VE1000_randls_26_rotated.json,1087455,1209254,36,Man
24,747439,DepthScenes,duration_manipulation_targetAtFixation,jsons/v1_VE1000_randls_26_rotated.json,http://54.235.29.9/FacialAge/BNav_EC2/DepthDuration/v2_depth_duration_MTurk/v2_DepthDuration_HTML.html#263,263,1364,657,1364,768,8-30-2022,9-53-22,25,depth_duration_stimuli/002905_2014-06-03_18-04-43_094959634447_rgbf000151-resize_2/002905_2014-06-03_18-04-43_094959634447_rgbf000151-resize_2-target.png,1000,2.0295,50,3709,1000,feet,jsons/v1_VE1000_randls_26_rotated.json,1087455,1209254,36,Man
25,747439,DepthScenes,duration_manipulation_targetAtFixation,jsons/v1_VE1000_randls_26_rotated.json,http://54.235.29.9/FacialAge/BNav_EC2/DepthDuration/v2_depth_duration_MTurk/v2_DepthDuration_HTML.html#263,263,1364,657,1364,768,8-30-2022,9-53-22,26,depth_duration_stimuli/001094_2014-06-15_17-36-00_260595134347_rgbf000205-resize_0/001094_2014-06-15_17-36-00_260595134347_rgbf000205-resize_0-target.png,1000,4.2175,25,6030,999,feet,jsons/v1_VE1000_randls_26_rotated.json,1087455,1209254,36,Man
26,747439,DepthScenes,duration_manipulation_targetAtFixation,jsons/v1_VE1000_randls_26_rotated.json,http://54.235.29.9/FacialAge/BNav_EC2/DepthDuration/v2_depth_duration_MTurk/v2_DepthDuration_HTML.html#263,263,1364,657,1364,768,8-30-2022,9-53-22,27,depth_duration_stimuli/000692_2014-06-08_13-09-42_260595134347_rgbf000199-resize_2/000692_2014-06-08_13-09-42_260595134347_rgbf000199-resize_2-target.png,1000,3.661,30,5259,1000,feet,jsons/v1_VE1000_randls_26_rotated.json,1087455,1209254,36,Man
27,747439,DepthScenes,duration_manipulation_targetAtFixation,jsons/v1_VE1000_randls_26_rotated.json,http://54.235.29.9/FacialAge/BNav_EC2/DepthDuration/v2_depth_duration_MTurk/v2_DepthDuration_HTML.html#263,263,1364,657,1364,768,8-30-2022,9-53-22,28,depth_duration_stimuli/000109_2014-05-14_23-41-52_260595134347_rgbf000035-resize_9/000109_2014-05-14_23-41-52_260595134347_rgbf000035-resize_9-target.png,1000,1.3545,50,6271,1004,feet,jsons/v1_VE1000_randls_26_rotated.json,1087455,1209254,36,Man
28,747439,DepthScenes,duration_manipulation_targetAtFixation,jsons/v1_VE1000_randls_26_rotated.json,http://54.235.29.9/FacialAge/BNav_EC2/DepthDuration/v2_depth_duration_MTurk/v2_DepthDuration_HTML.html#263,263,1364,657,1364,768,8-30-2022,9-53-22,29,depth_duration_stimuli/000470_2014-06-09_19-42-40_260595134347_rgbf000094-resize_1/000470_2014-06-09_19-42-40_260595134347_rgbf000094-resize_1-target.png,1000,1.831,45,3656,992,feet,jsons/v1_VE1000_randls_26_rotated.json,1087455,1209254,36,Man
29,747439,DepthScenes,duration_manipulation_targetAtFixation,jsons/v1_VE1000_randls_26_rotated.json,http://54.235.29.9/FacialAge/BNav_EC2/DepthDuration/v2_depth_duration_MTurk/v2_DepthDuration_HTML.html#263,263,1364,657,1364,768,8-30-2022,9-53-22,30,depth_duration_stimuli/002072_2014-06-24_21-48-06_260595134347_rgbf000115-resize_0/002072_2014-06-24_21-48-06_260595134347_rgbf000115-resize-original.jpg,1000,4.702,0,5612,992,feet,jsons/v1_VE1000_randls_26_rotated.json,1087455,1209254,36,Man
30,747439,DepthScenes,duration_manipulation_targetAtFixation,jsons/v1_VE1000_randls_26_rotated.json,http://54.235.29.9/FacialAge/BNav_EC2/DepthDuration/v2_depth_duration_MTurk/v2_DepthDuration_HTML.html#263,263,1364,657,1364,768,8-30-2022,9-53-22,31,depth_duration_stimuli/002660_2014-06-13_15-44-18_094959634447_rgbf001878-resize_2/002660_2014-06-13_15-44-18_094959634447_rgbf001878-resize_2-target.png,1000,3.576,40,6261,1004,feet,jsons/v1_VE1000_randls_26_rotated.json,1087455,1209254,36,Man
31,747439,DepthScenes,duration_manipulation_targetAtFixation,jsons/v1_VE1000_randls_26_rotated.json,http://54.235.29.9/FacialAge/BNav_EC2/DepthDuration/v2_depth_duration_MTurk/v2_DepthDuration_HTML.html#263,263,1364,657,1364,768,8-30-2022,9-53-22,32,depth_duration_stimuli/002153_2014-06-25_21-27-18_260595134347_rgbf000038-resize_5/002153_2014-06-25_21-27-18_260595134347_rgbf000038-resize_5-target.png,1000,2.505,50,4129,999,feet,jsons/v1_VE1000_randls_26_rotated.json,1087455,1209254,36,Man
32,747439,DepthScenes,duration_manipulation_targetAtFixation,jsons/v1_VE1000_randls_26_rotated.json,http://54.235.29.9/FacialAge/BNav_EC2/DepthDuration/v2_depth_duration_MTurk/v2_DepthDuration_HTML.html#263,263,1364,657,1364,768,8-30-2022,9-53-22,33,depth_duration_stimuli/000677_2014-06-08_23-10-32_260595134347_rgbf000158-resize_6/000677_2014-06-08_23-10-32_260595134347_rgbf000158-resize_6-target.png,1000,3.556,45,5838,1000,feet,jsons/v1_VE1000_randls_26_rotated.json,1087455,1209254,36,Man
33,747439,DepthScenes,duration_manipulation_targetAtFixation,jsons/v1_VE1000_randls_26_rotated.json,http://54.235.29.9/FacialAge/BNav_EC2/DepthDuration/v2_depth_duration_MTurk/v2_DepthDuration_HTML.html#263,263,1364,657,1364,768,8-30-2022,9-53-22,34,depth_duration_stimuli/001029_2014-06-08_13-17-57_260595134347_rgbf000065-resize_1/001029_2014-06-08_13-17-57_260595134347_rgbf000065-resize_1-target.png,1000,3.0835,40,3651,1000,feet,jsons/v1_VE1000_randls_26_rotated.json,1087455,1209254,36,Man
34,747439,DepthScenes,duration_manipulation_targetAtFixation,jsons/v1_VE1000_randls_26_rotated.json,http://54.235.29.9/FacialAge/BNav_EC2/DepthDuration/v2_depth_duration_MTurk/v2_DepthDuration_HTML.html#263,263,1364,657,1364,768,8-30-2022,9-53-22,35,depth_duration_stimuli/000549_2014-06-08_22-10-24_260595134347_rgbf000247-resize_3/000549_2014-06-08_22-10-24_260595134347_rgbf000247-resize_3-target.png,1000,1.841,60,6514,998,feet,jsons/v1_VE1000_randls_26_rotated.json,1087455,1209254,36,Man
35,747439,DepthScenes,duration_manipulation_targetAtFixation,jsons/v1_VE1000_randls_26_rotated.json,http://54.235.29.9/FacialAge/BNav_EC2/DepthDuration/v2_depth_duration_MTurk/v2_DepthDuration_HTML.html#263,263,1364,657,1364,768,8-30-2022,9-53-22,36,depth_duration_stimuli/001055_2014-06-08_18-45-35_260595134347_rgbf000111-resize_4/001055_2014-06-08_18-45-35_260595134347_rgbf000111-resize_4-target.png,1000,2.4290000000000003,25,4224,1000,feet,jsons/v1_VE1000_randls_26_rotated.json,1087455,1209254,36,Man
36,747439,DepthScenes,duration_manipulation_targetAtFixation,jsons/v1_VE1000_randls_26_rotated.json,http://54.235.29.9/FacialAge/BNav_EC2/DepthDuration/v2_depth_duration_MTurk/v2_DepthDuration_HTML.html#263,263,1364,657,1364,768,8-30-2022,9-53-22,37,depth_duration_stimuli/001450_2014-06-19_17-02-03_260595134347_rgbf000203-resize_4/001450_2014-06-19_17-02-03_260595134347_rgbf000203-resize_4-target.png,1000,4.0106666666667,20,5988,1014,feet,jsons/v1_VE1000_randls_26_rotated.json,1087455,1209254,36,Man
37,747439,DepthScenes,duration_manipulation_targetAtFixation,jsons/v1_VE1000_randls_26_rotated.json,http://54.235.29.9/FacialAge/BNav_EC2/DepthDuration/v2_depth_duration_MTurk/v2_DepthDuration_HTML.html#263,263,1364,657,1364,768,8-30-2022,9-53-22,38,depth_duration_stimuli/001449_2014-06-19_17-01-27_260595134347_rgbf000116-resize_2/001449_2014-06-19_17-01-27_260595134347_rgbf000116-resize_2-target.png,1000,3.452,25,4483,996,feet,jsons/v1_VE1000_randls_26_rotated.json,1087455,1209254,36,Man
38,747439,DepthScenes,duration_manipulation_targetAtFixation,jsons/v1_VE1000_randls_26_rotated.json,http://54.235.29.9/FacialAge/BNav_EC2/DepthDuration/v2_depth_duration_MTurk/v2_DepthDuration_HTML.html#263,263,1364,657,1364,768,8-30-2022,9-53-22,39,depth_duration_stimuli/002467_2014-06-28_20-38-07_260595134347_rgbf000026-resize_2/002467_2014-06-28_20-38-07_260595134347_rgbf000026-resize_2-target.png,1000,4.742,30,6459,1004,feet,jsons/v1_VE1000_randls_26_rotated.json,1087455,1209254,36,Man
39,747439,DepthScenes,duration_manipulation_targetAtFixation,jsons/v1_VE1000_randls_26_rotated.json,http://54.235.29.9/FacialAge/BNav_EC2/DepthDuration/v2_depth_duration_MTurk/v2_DepthDuration_HTML.html#263,263,1364,657,1364,768,8-30-2022,9-53-22,40,depth_duration_stimuli/002570_2014-06-24_13-59-54_094959634447_rgbf000059-resize_0/002570_2014-06-24_13-59-54_094959634447_rgbf000059-resize_0-target.png,1000,4.037,20,4309,1000,feet,jsons/v1_VE1000_randls_26_rotated.json,1087455,1209254,36,Man
40,747439,DepthScenes,duration_manipulation_targetAtFixation,jsons/v1_VE1000_randls_26_rotated.json,http://54.235.29.9/FacialAge/BNav_EC2/DepthDuration/v2_depth_duration_MTurk/v2_DepthDuration_HTML.html#263,263,1364,657,1364,768,8-30-2022,9-53-22,41,depth_duration_stimuli/000137_2014-05-20_17-04-49_260595134347_rgbf000120-resize_1/000137_2014-05-20_17-04-49_260595134347_rgbf000120-resize_1-target.png,1000,3.786,20,5984,1000,feet,jsons/v1_VE1000_randls_26_rotated.json,1087455,1209254,36,Man
41,747439,DepthScenes,duration_manipulation_targetAtFixation,jsons/v1_VE1000_randls_26_rotated.json,http://54.235.29.9/FacialAge/BNav_EC2/DepthDuration/v2_depth_duration_MTurk/v2_DepthDuration_HTML.html#263,263,1364,657,1364,768,8-30-2022,9-53-22,42,depth_duration_stimuli/000736_2014-06-08_18-24-15_260595134347_rgbf000206-resize_3/000736_2014-06-08_18-24-15_260595134347_rgbf000206-resize_3-target.png,1000,3.515,50,4053,999,feet,jsons/v1_VE1000_randls_26_rotated.json,1087455,1209254,36,Man
42,747439,DepthScenes,duration_manipulation_targetAtFixation,jsons/v1_VE1000_randls_26_rotated.json,http://54.235.29.9/FacialAge/BNav_EC2/DepthDuration/v2_depth_duration_MTurk/v2_DepthDuration_HTML.html#263,263,1364,657,1364,768,8-30-2022,9-53-22,43,depth_duration_stimuli/002136_2014-06-25_21-18-03_260595134347_rgbf000109-resize_3/002136_2014-06-25_21-18-03_260595134347_rgbf000109-resize_3-target.png,1000,1.9569999999999999,50,12820,1000,feet,jsons/v1_VE1000_randls_26_rotated.json,1087455,1209254,36,Man
43,747439,DepthScenes,duration_manipulation_targetAtFixation,jsons/v1_VE1000_randls_26_rotated.json,http://54.235.29.9/FacialAge/BNav_EC2/DepthDuration/v2_depth_duration_MTurk/v2_DepthDuration_HTML.html#263,263,1364,657,1364,768,8-30-2022,9-53-22,44,depth_duration_stimuli/002964_2014-06-08_17-46-11_094959634447_rgbf000091-resize_4/002964_2014-06-08_17-46-11_094959634447_rgbf000091-resize_4-target.png,1000,1.6909999999999998,50,4517,1009,feet,jsons/v1_VE1000_randls_26_rotated.json,1087455,1209254,36,Man
44,747439,DepthScenes,duration_manipulation_targetAtFixation,jsons/v1_VE1000_randls_26_rotated.json,http://54.235.29.9/FacialAge/BNav_EC2/DepthDuration/v2_depth_duration_MTurk/v2_DepthDuration_HTML.html#263,263,1364,657,1364,768,8-30-2022,9-53-22,45,depth_duration_stimuli/003079_2014-06-15_15-18-20_094959634447_rgbf000152-resize_8/003079_2014-06-15_15-18-20_094959634447_rgbf000152-resize_8-target.png,1000,2.8775,25,5868,997,feet,jsons/v1_VE1000_randls_26_rotated.json,1087455,1209254,36,Man
45,747439,DepthScenes,duration_manipulation_targetAtFixation,jsons/v1_VE1000_randls_26_rotated.json,http://54.235.29.9/FacialAge/BNav_EC2/DepthDuration/v2_depth_duration_MTurk/v2_DepthDuration_HTML.html#263,263,1364,657,1364,768,8-30-2022,9-53-22,46,depth_duration_stimuli/000506_2014-06-08_23-21-00_260595134347_rgbf000070-resize_7/000506_2014-06-08_23-21-00_260595134347_rgbf000070-resize_7-target.png,1000,4.0585,30,4036,996,feet,jsons/v1_VE1000_randls_26_rotated.json,1087455,1209254,36,Man
46,747439,DepthScenes,duration_manipulation_targetAtFixation,jsons/v1_VE1000_randls_26_rotated.json,http://54.235.29.9/FacialAge/BNav_EC2/DepthDuration/v2_depth_duration_MTurk/v2_DepthDuration_HTML.html#263,263,1364,657,1364,768,8-30-2022,9-53-22,47,depth_duration_stimuli/000502_2014-06-08_23-02-32_260595134347_rgbf000063-resize_4/000502_2014-06-08_23-02-32_260595134347_rgbf000063-resize_4-target.png,1000,2.431,50,6420,1004,feet,jsons/v1_VE1000_randls_26_rotated.json,1087455,1209254,36,Man
47,747439,DepthScenes,duration_manipulation_targetAtFixation,jsons/v1_VE1000_randls_26_rotated.json,http://54.235.29.9/FacialAge/BNav_EC2/DepthDuration/v2_depth_duration_MTurk/v2_DepthDuration_HTML.html#263,263,1364,657,1364,768,8-30-2022,9-53-22,48,depth_duration_stimuli/001199_2014-06-17_16-03-48_260595134347_rgbf000077-resize_0/001199_2014-06-17_16-03-48_260595134347_rgbf000077-resize_0-target.png,1000,3.4375,10,4048,1000,feet,jsons/v1_VE1000_randls_26_rotated.json,1087455,1209254,36,Man
48,747439,DepthScenes,duration_manipulation_targetAtFixation,jsons/v1_VE1000_randls_26_rotated.json,http://54.235.29.9/FacialAge/BNav_EC2/DepthDuration/v2_depth_duration_MTurk/v2_DepthDuration_HTML.html#263,263,1364,657,1364,768,8-30-2022,9-53-22,49,depth_duration_stimuli/001170_2014-06-17_15-43-44_260595134347_rgbf000096-resize_6/001170_2014-06-17_15-43-44_260595134347_rgbf000096-resize-original.jpg,1000,1.1909999999999998,0,5889,999,feet,jsons/v1_VE1000_randls_26_rotated.json,1087455,1209254,36,Man
49,747439,DepthScenes,duration_manipulation_targetAtFixation,jsons/v1_VE1000_randls_26_rotated.json,http://54.235.29.9/FacialAge/BNav_EC2/DepthDuration/v2_depth_duration_MTurk/v2_DepthDuration_HTML.html#263,263,1364,657,1364,768,8-30-2022,9-53-22,50,depth_duration_stimuli/002199_2014-06-28_18-33-56_260595134347_rgbf000074-resize_0/002199_2014-06-28_18-33-56_260595134347_rgbf000074-resize_0-target.png,1000,1.996,60,6270,998,feet,jsons/v1_VE1000_randls_26_rotated.json,1087455,1209254,36,Man
50,747439,DepthScenes,duration_manipulation_targetAtFixation,jsons/v1_VE1000_randls_26_rotated.json,http://54.235.29.9/FacialAge/BNav_EC2/DepthDuration/v2_depth_duration_MTurk/v2_DepthDuration_HTML.html#263,263,1364,657,1364,768,8-30-2022,9-53-22,51,depth_duration_stimuli/001056_2014-06-08_18-46-44_260595134347_rgbf000068-resize_0/001056_2014-06-08_18-46-44_260595134347_rgbf000068-resize_0-target.png,1000,2.6625,40,3939,1000,feet,jsons/v1_VE1000_randls_26_rotated.json,1087455,1209254,36,Man
51,747439,DepthScenes,duration_manipulation_targetAtFixation,jsons/v1_VE1000_randls_26_rotated.json,http://54.235.29.9/FacialAge/BNav_EC2/DepthDuration/v2_depth_duration_MTurk/v2_DepthDuration_HTML.html#263,263,1364,657,1364,768,8-30-2022,9-53-22,52,depth_duration_stimuli/003081_2014-06-15_15-19-16_094959634447_rgbf000150-resize_1/003081_2014-06-15_15-19-16_094959634447_rgbf000150-resize_1-target.png,1000,3.9125,35,5978,1001,feet,jsons/v1_VE1000_randls_26_rotated.json,1087455,1209254,36,Man
52,747439,DepthScenes,duration_manipulation_targetAtFixation,jsons/v1_VE1000_randls_26_rotated.json,http://54.235.29.9/FacialAge/BNav_EC2/DepthDuration/v2_depth_duration_MTurk/v2_DepthDuration_HTML.html#263,263,1364,657,1364,768,8-30-2022,9-53-22,53,depth_duration_stimuli/001417_2014-06-19_16-25-36_260595134347_rgbf000115-resize_5/001417_2014-06-19_16-25-36_260595134347_rgbf000115-resize_5-target.png,1000,4.6255,35,3481,992,feet,jsons/v1_VE1000_randls_26_rotated.json,1087455,1209254,36,Man
53,747439,DepthScenes,duration_manipulation_targetAtFixation,jsons/v1_VE1000_randls_26_rotated.json,http://54.235.29.9/FacialAge/BNav_EC2/DepthDuration/v2_depth_duration_MTurk/v2_DepthDuration_HTML.html#263,263,1364,657,1364,768,8-30-2022,9-53-22,54,depth_duration_stimuli/002209_2014-06-28_18-36-10_260595134347_rgbf000051-resize_1/002209_2014-06-28_18-36-10_260595134347_rgbf000051-resize_1-target.png,1000,2.057,45,5886,1010,feet,jsons/v1_VE1000_randls_26_rotated.json,1087455,1209254,36,Man
54,747439,DepthScenes,duration_manipulation_targetAtFixation,jsons/v1_VE1000_randls_26_rotated.json,http://54.235.29.9/FacialAge/BNav_EC2/DepthDuration/v2_depth_duration_MTurk/v2_DepthDuration_HTML.html#263,263,1364,657,1364,768,8-30-2022,9-53-22,55,depth_duration_stimuli/002763_2014-06-22_19-13-10_094959634447_rgbf000075-resize_4/002763_2014-06-22_19-13-10_094959634447_rgbf000075-resize_4-target.png,1000,1.68375,30,4695,996,feet,jsons/v1_VE1000_randls_26_rotated.json,1087455,1209254,36,Man
55,747439,DepthScenes,duration_manipulation_targetAtFixation,jsons/v1_VE1000_randls_26_rotated.json,http://54.235.29.9/FacialAge/BNav_EC2/DepthDuration/v2_depth_duration_MTurk/v2_DepthDuration_HTML.html#263,263,1364,657,1364,768,8-30-2022,9-53-22,56,depth_duration_stimuli/002995_2014-06-15_12-31-26_094959634447_rgbf000150-resize_1/002995_2014-06-15_12-31-26_094959634447_rgbf000150-resize_1-target.png,1000,3.8360000000000003,25,6547,1000,feet,jsons/v1_VE1000_randls_26_rotated.json,1087455,1209254,36,Man
56,747439,DepthScenes,duration_manipulation_targetAtFixation,jsons/v1_VE1000_randls_26_rotated.json,http://54.235.29.9/FacialAge/BNav_EC2/DepthDuration/v2_depth_duration_MTurk/v2_DepthDuration_HTML.html#263,263,1364,657,1364,768,8-30-2022,9-53-22,57,depth_duration_stimuli/002748_2014-06-22_19-07-22_094959634447_rgbf000078-resize_1/002748_2014-06-22_19-07-22_094959634447_rgbf000078-resize_1-target.png,1000,4.6705,10,4119,1003,feet,jsons/v1_VE1000_randls_26_rotated.json,1087455,1209254,36,Man
57,747439,DepthScenes,duration_manipulation_targetAtFixation,jsons/v1_VE1000_randls_26_rotated.json,http://54.235.29.9/FacialAge/BNav_EC2/DepthDuration/v2_depth_duration_MTurk/v2_DepthDuration_HTML.html#263,263,1364,657,1364,768,8-30-2022,9-53-22,58,depth_duration_stimuli/001032_2014-06-08_13-23-17_260595134347_rgbf000021-resize_3/001032_2014-06-08_13-23-17_260595134347_rgbf000021-resize_3-target.png,1000,3.2725,45,9379,1000,feet,jsons/v1_VE1000_randls_26_rotated.json,1087455,1209254,36,Man
58,747439,DepthScenes,duration_manipulation_targetAtFixation,jsons/v1_VE1000_randls_26_rotated.json,http://54.235.29.9/FacialAge/BNav_EC2/DepthDuration/v2_depth_duration_MTurk/v2_DepthDuration_HTML.html#263,263,1364,657,1364,768,8-30-2022,9-53-22,59,depth_duration_stimuli/001059_2014-06-08_21-53-27_260595134347_rgbf000061-resize_4/001059_2014-06-08_21-53-27_260595134347_rgbf000061-resize_4-target.png,1000,2.4185,0,30478,1000,feet,jsons/v1_VE1000_randls_26_rotated.json,1087455,1209254,36,Man
59,747439,DepthScenes,duration_manipulation_targetAtFixation,jsons/v1_VE1000_randls_26_rotated.json,http://54.235.29.9/FacialAge/BNav_EC2/DepthDuration/v2_depth_duration_MTurk/v2_DepthDuration_HTML.html#263,263,1364,657,1364,768,8-30-2022,9-53-22,60,depth_duration_stimuli/001584_2014-06-20_11-07-43_260595134347_rgbf000002-resize_1/001584_2014-06-20_11-07-43_260595134347_rgbf000002-resize_1-target.png,1000,3.53,10,6997,995,feet,jsons/v1_VE1000_randls_26_rotated.json,1087455,1209254,36,Man
60,747439,DepthScenes,duration_manipulation_targetAtFixation,jsons/v1_VE1000_randls_26_rotated.json,http://54.235.29.9/FacialAge/BNav_EC2/DepthDuration/v2_depth_duration_MTurk/v2_DepthDuration_HTML.html#263,263,1364,657,1364,768,8-30-2022,9-53-22,61,depth_duration_stimuli/003621_2014-05-23_18-06-08_094959634447_rgbf000101-resize_1/003621_2014-05-23_18-06-08_094959634447_rgbf000101-resize_1-target.png,1000,3.9835,10,4748,999,feet,jsons/v1_VE1000_randls_26_rotated.json,1087455,1209254,36,Man
61,747439,DepthScenes,duration_manipulation_targetAtFixation,jsons/v1_VE1000_randls_26_rotated.json,http://54.235.29.9/FacialAge/BNav_EC2/DepthDuration/v2_depth_duration_MTurk/v2_DepthDuration_HTML.html#263,263,1364,657,1364,768,8-30-2022,9-53-22,62,depth_duration_stimuli/002568_2014-06-24_13-59-21_094959634447_rgbf000062-resize_4/002568_2014-06-24_13-59-21_094959634447_rgbf000062-resize_4-target.png,1000,3.015,25,7819,1001,feet,jsons/v1_VE1000_randls_26_rotated.json,1087455,1209254,36,Man
62,747439,DepthScenes,duration_manipulation_targetAtFixation,jsons/v1_VE1000_randls_26_rotated.json,http://54.235.29.9/FacialAge/BNav_EC2/DepthDuration/v2_depth_duration_MTurk/v2_DepthDuration_HTML.html#263,263,1364,657,1364,768,8-30-2022,9-53-22,63,depth_duration_stimuli/003492_2014-05-21_15-50-55_094959634447_rgbf000828-resize_1/003492_2014-05-21_15-50-55_094959634447_rgbf000828-resize_1-target.png,1000,4.06875,35,3910,1000,feet,jsons/v1_VE1000_randls_26_rotated.json,1087455,1209254,36,Man
63,747439,DepthScenes,duration_manipulation_targetAtFixation,jsons/v1_VE1000_randls_26_rotated.json,http://54.235.29.9/FacialAge/BNav_EC2/DepthDuration/v2_depth_duration_MTurk/v2_DepthDuration_HTML.html#263,263,1364,657,1364,768,8-30-2022,9-53-22,64,depth_duration_stimuli/001815_2014-06-26_20-52-55_260595134347_rgbf000020-resize_0/001815_2014-06-26_20-52-55_260595134347_rgbf000020-resize_0-target.png,1000,3.3865,20,6778,999,feet,jsons/v1_VE1000_randls_26_rotated.json,1087455,1209254,36,Man
64,747439,DepthScenes,duration_manipulation_targetAtFixation,jsons/v1_VE1000_randls_26_rotated.json,http://54.235.29.9/FacialAge/BNav_EC2/DepthDuration/v2_depth_duration_MTurk/v2_DepthDuration_HTML.html#263,263,1364,657,1364,768,8-30-2022,9-53-22,65,depth_duration_stimuli/001808_2014-06-26_20-50-58_260595134347_rgbf000029-resize_1/001808_2014-06-26_20-50-58_260595134347_rgbf000029-resize_1-target.png,1000,4.249,20,4051,1000,feet,jsons/v1_VE1000_randls_26_rotated.json,1087455,1209254,36,Man
65,747439,DepthScenes,duration_manipulation_targetAtFixation,jsons/v1_VE1000_randls_26_rotated.json,http://54.235.29.9/FacialAge/BNav_EC2/DepthDuration/v2_depth_duration_MTurk/v2_DepthDuration_HTML.html#263,263,1364,657,1364,768,8-30-2022,9-53-22,66,depth_duration_stimuli/001540_2014-06-20_17-01-05_260595134347_rgbf000086-resize_2/001540_2014-06-20_17-01-05_260595134347_rgbf000086-resize-original.jpg,1000,1.459,0,6187,1000,feet,jsons/v1_VE1000_randls_26_rotated.json,1087455,1209254,36,Man
66,747439,DepthScenes,duration_manipulation_targetAtFixation,jsons/v1_VE1000_randls_26_rotated.json,http://54.235.29.9/FacialAge/BNav_EC2/DepthDuration/v2_depth_duration_MTurk/v2_DepthDuration_HTML.html#263,263,1364,657,1364,768,8-30-2022,9-53-22,67,depth_duration_stimuli/003490_2014-05-21_15-50-11_094959634447_rgbf000101-resize_3/003490_2014-05-21_15-50-11_094959634447_rgbf000101-resize_3-target.png,1000,3.6445,45,6376,998,feet,jsons/v1_VE1000_randls_26_rotated.json,1087455,1209254,36,Man
67,747439,DepthScenes,duration_manipulation_targetAtFixation,jsons/v1_VE1000_randls_26_rotated.json,http://54.235.29.9/FacialAge/BNav_EC2/DepthDuration/v2_depth_duration_MTurk/v2_DepthDuration_HTML.html#263,263,1364,657,1364,768,8-30-2022,9-53-22,68,depth_duration_stimuli/001175_2014-06-17_15-45-55_260595134347_rgbf000129-resize_4/001175_2014-06-17_15-45-55_260595134347_rgbf000129-resize_4-target.png,1000,4.255,20,4460,1000,feet,jsons/v1_VE1000_randls_26_rotated.json,1087455,1209254,36,Man
68,747439,DepthScenes,duration_manipulation_targetAtFixation,jsons/v1_VE1000_randls_26_rotated.json,http://54.235.29.9/FacialAge/BNav_EC2/DepthDuration/v2_depth_duration_MTurk/v2_DepthDuration_HTML.html#263,263,1364,657,1364,768,8-30-2022,9-53-22,69,depth_duration_stimuli/003083_2014-06-15_15-21-03_094959634447_rgbf000063-resize_1/003083_2014-06-15_15-21-03_094959634447_rgbf000063-resize_1-target.png,1000,4.1405,20,10337,998,feet,jsons/v1_VE1000_randls_26_rotated.json,1087455,1209254,36,Man
69,747439,DepthScenes,duration_manipulation_targetAtFixation,jsons/v1_VE1000_randls_26_rotated.json,http://54.235.29.9/FacialAge/BNav_EC2/DepthDuration/v2_depth_duration_MTurk/v2_DepthDuration_HTML.html#263,263,1364,657,1364,768,8-30-2022,9-53-22,70,depth_duration_stimuli/000486_2014-06-09_20-47-20_260595134347_rgbf000143-resize_2/000486_2014-06-09_20-47-20_260595134347_rgbf000143-resize_2-target.png,1000,4.8325,25,4819,999,feet,jsons/v1_VE1000_randls_26_rotated.json,1087455,1209254,36,Man
70,747439,DepthScenes,duration_manipulation_targetAtFixation,jsons/v1_VE1000_randls_26_rotated.json,http://54.235.29.9/FacialAge/BNav_EC2/DepthDuration/v2_depth_duration_MTurk/v2_DepthDuration_HTML.html#263,263,1364,657,1364,768,8-30-2022,9-53-22,71,depth_duration_stimuli/002639_2014-06-24_14-51-37_094959634447_rgbf000074-resize_4/002639_2014-06-24_14-51-37_094959634447_rgbf000074-resize_4-target.png,1000,4.0375,30,6039,1000,feet,jsons/v1_VE1000_randls_26_rotated.json,1087455,1209254,36,Man
71,747439,DepthScenes,duration_manipulation_targetAtFixation,jsons/v1_VE1000_randls_26_rotated.json,http://54.235.29.9/FacialAge/BNav_EC2/DepthDuration/v2_depth_duration_MTurk/v2_DepthDuration_HTML.html#263,263,1364,657,1364,768,8-30-2022,9-53-22,72,depth_duration_stimuli/003292_2014-05-14_21-53-49_094959634447_rgbf000100-resize_2/003292_2014-05-14_21-53-49_094959634447_rgbf000100-resize_2-target.png,1000,3.4815,40,4310,1000,feet,jsons/v1_VE1000_randls_26_rotated.json,1087455,1209254,36,Man
72,747439,DepthScenes,duration_manipulation_targetAtFixation,jsons/v1_VE1000_randls_26_rotated.json,http://54.235.29.9/FacialAge/BNav_EC2/DepthDuration/v2_depth_duration_MTurk/v2_DepthDuration_HTML.html#263,263,1364,657,1364,768,8-30-2022,9-53-22,73,depth_duration_stimuli/001650_2014-06-20_12-09-00_260595134347_rgbf000087-resize_3/001650_2014-06-20_12-09-00_260595134347_rgbf000087-resize_3-target.png,1000,1.9505,75,7438,999,feet,jsons/v1_VE1000_randls_26_rotated.json,1087455,1209254,36,Man
73,747439,DepthScenes,duration_manipulation_targetAtFixation,jsons/v1_VE1000_randls_26_rotated.json,http://54.235.29.9/FacialAge/BNav_EC2/DepthDuration/v2_depth_duration_MTurk/v2_DepthDuration_HTML.html#263,263,1364,657,1364,768,8-30-2022,9-53-22,74,depth_duration_stimuli/000682_2014-06-08_23-14-58_260595134347_rgbf000041-resize_5/000682_2014-06-08_23-14-58_260595134347_rgbf000041-resize_5-target.png,1000,2.7239999999999998,50,3798,999,feet,jsons/v1_VE1000_randls_26_rotated.json,1087455,1209254,36,Man
74,747439,DepthScenes,duration_manipulation_targetAtFixation,jsons/v1_VE1000_randls_26_rotated.json,http://54.235.29.9/FacialAge/BNav_EC2/DepthDuration/v2_depth_duration_MTurk/v2_DepthDuration_HTML.html#263,263,1364,657,1364,768,8-30-2022,9-53-22,75,depth_duration_stimuli/002657_2014-06-13_15-29-54_094959634447_rgbf000150-resize_1/002657_2014-06-13_15-29-54_094959634447_rgbf000150-resize_1-target.png,1000,4.919,45,5770,1000,feet,jsons/v1_VE1000_randls_26_rotated.json,1087455,1209254,36,Man
75,747439,DepthScenes,duration_manipulation_targetAtFixation,jsons/v1_VE1000_randls_26_rotated.json,http://54.235.29.9/FacialAge/BNav_EC2/DepthDuration/v2_depth_duration_MTurk/v2_DepthDuration_HTML.html#263,263,1364,657,1364,768,8-30-2022,9-53-22,76,depth_duration_stimuli/002375_2014-06-28_20-13-44_260595134347_rgbf000032-resize_1/002375_2014-06-28_20-13-44_260595134347_rgbf000032-resize_1-target.png,1000,4.0175,45,9359,1000,feet,jsons/v1_VE1000_randls_26_rotated.json,1087455,1209254,36,Man
76,747439,DepthScenes,duration_manipulation_targetAtFixation,jsons/v1_VE1000_randls_26_rotated.json,http://54.235.29.9/FacialAge/BNav_EC2/DepthDuration/v2_depth_duration_MTurk/v2_DepthDuration_HTML.html#263,263,1364,657,1364,768,8-30-2022,9-53-22,77,depth_duration_stimuli/002545_2014-06-24_13-38-53_094959634447_rgbf000080-resize_4/002545_2014-06-24_13-38-53_094959634447_rgbf000080-resize_4-target.png,1000,1.9205,25,5998,998,feet,jsons/v1_VE1000_randls_26_rotated.json,1087455,1209254,36,Man
77,747439,DepthScenes,duration_manipulation_targetAtFixation,jsons/v1_VE1000_randls_26_rotated.json,http://54.235.29.9/FacialAge/BNav_EC2/DepthDuration/v2_depth_duration_MTurk/v2_DepthDuration_HTML.html#263,263,1364,657,1364,768,8-30-2022,9-53-22,78,depth_duration_stimuli/001092_2014-06-15_17-34-58_260595134347_rgbf000171-resize_3/001092_2014-06-15_17-34-58_260595134347_rgbf000171-resize_3-target.png,1000,2.6935,50,3794,999,feet,jsons/v1_VE1000_randls_26_rotated.json,1087455,1209254,36,Man
78,747439,DepthScenes,duration_manipulation_targetAtFixation,jsons/v1_VE1000_randls_26_rotated.json,http://54.235.29.9/FacialAge/BNav_EC2/DepthDuration/v2_depth_duration_MTurk/v2_DepthDuration_HTML.html#263,263,1364,657,1364,768,8-30-2022,9-53-22,79,depth_duration_stimuli/002875_2014-06-01_15-19-00_094959634447_rgbf000151-resize_1/002875_2014-06-01_15-19-00_094959634447_rgbf000151-resize_1-target.png,1000,1.9675,10,6383,1000,feet,jsons/v1_VE1000_randls_26_rotated.json,1087455,1209254,36,Man
79,747439,DepthScenes,duration_manipulation_targetAtFixation,jsons/v1_VE1000_randls_26_rotated.json,http://54.235.29.9/FacialAge/BNav_EC2/DepthDuration/v2_depth_duration_MTurk/v2_DepthDuration_HTML.html#263,263,1364,657,1364,768,8-30-2022,9-53-22,80,depth_duration_stimuli/001011_2014-06-08_23-18-54_260595134347_rgbf000044-resize_4/001011_2014-06-08_23-18-54_260595134347_rgbf000044-resize_4-target.png,1000,2.4730000000000003,45,3840,999,feet,jsons/v1_VE1000_randls_26_rotated.json,1087455,1209254,36,Man
80,747439,DepthScenes,duration_manipulation_targetAtFixation,jsons/v1_VE1000_randls_26_rotated.json,http://54.235.29.9/FacialAge/BNav_EC2/DepthDuration/v2_depth_duration_MTurk/v2_DepthDuration_HTML.html#263,263,1364,657,1364,768,8-30-2022,9-53-22,81,depth_duration_stimuli/002425_2014-06-28_20-27-29_260595134347_rgbf000031-resize_8/002425_2014-06-28_20-27-29_260595134347_rgbf000031-resize_8-target.png,1000,3.8960000000000004,25,18261,999,feet,jsons/v1_VE1000_randls_26_rotated.json,1087455,1209254,36,Man
81,747439,DepthScenes,duration_manipulation_targetAtFixation,jsons/v1_VE1000_randls_26_rotated.json,http://54.235.29.9/FacialAge/BNav_EC2/DepthDuration/v2_depth_duration_MTurk/v2_DepthDuration_HTML.html#263,263,1364,657,1364,768,8-30-2022,9-53-22,82,depth_duration_stimuli/000642_2014-06-08_16-59-25_260595134347_rgbf000098-resize_2/000642_2014-06-08_16-59-25_260595134347_rgbf000098-resize_2-target.png,1000,2.8815,50,3933,1000,feet,jsons/v1_VE1000_randls_26_rotated.json,1087455,1209254,36,Man
82,747439,DepthScenes,duration_manipulation_targetAtFixation,jsons/v1_VE1000_randls_26_rotated.json,http://54.235.29.9/FacialAge/BNav_EC2/DepthDuration/v2_depth_duration_MTurk/v2_DepthDuration_HTML.html#263,263,1364,657,1364,768,8-30-2022,9-53-22,83,depth_duration_stimuli/002637_2014-06-24_14-51-13_094959634447_rgbf000066-resize_4/002637_2014-06-24_14-51-13_094959634447_rgbf000066-resize_4-target.png,1000,1.9955,35,6652,998,feet,jsons/v1_VE1000_randls_26_rotated.json,1087455,1209254,36,Man
83,747439,DepthScenes,duration_manipulation_targetAtFixation,jsons/v1_VE1000_randls_26_rotated.json,http://54.235.29.9/FacialAge/BNav_EC2/DepthDuration/v2_depth_duration_MTurk/v2_DepthDuration_HTML.html#263,263,1364,657,1364,768,8-30-2022,9-53-22,84,depth_duration_stimuli/003534_2014-05-22_15-06-10_094959634447_rgbf000102-resize_4/003534_2014-05-22_15-06-10_094959634447_rgbf000102-resize_4-target.png,1000,1.426,40,18092,1000,feet,jsons/v1_VE1000_randls_26_rotated.json,1087455,1209254,36,Man
84,747439,DepthScenes,duration_manipulation_targetAtFixation,jsons/v1_VE1000_randls_26_rotated.json,http://54.235.29.9/FacialAge/BNav_EC2/DepthDuration/v2_depth_duration_MTurk/v2_DepthDuration_HTML.html#263,263,1364,657,1364,768,8-30-2022,9-53-22,85,depth_duration_stimuli/000483_2014-06-09_20-41-45_260595134347_rgbf000116-resize_4/000483_2014-06-09_20-41-45_260595134347_rgbf000116-resize_4-target.png,1000,1.337,60,6192,996,feet,jsons/v1_VE1000_randls_26_rotated.json,1087455,1209254,36,Man
85,747439,DepthScenes,duration_manipulation_targetAtFixation,jsons/v1_VE1000_randls_26_rotated.json,http://54.235.29.9/FacialAge/BNav_EC2/DepthDuration/v2_depth_duration_MTurk/v2_DepthDuration_HTML.html#263,263,1364,657,1364,768,8-30-2022,9-53-22,86,depth_duration_stimuli/000469_2014-06-09_19-42-10_260595134347_rgbf000081-resize_1/000469_2014-06-09_19-42-10_260595134347_rgbf000081-resize_1-target.png,1000,1.652,60,9640,1001,feet,jsons/v1_VE1000_randls_26_rotated.json,1087455,1209254,36,Man
86,747439,DepthScenes,duration_manipulation_targetAtFixation,jsons/v1_VE1000_randls_26_rotated.json,http://54.235.29.9/FacialAge/BNav_EC2/DepthDuration/v2_depth_duration_MTurk/v2_DepthDuration_HTML.html#263,263,1364,657,1364,768,8-30-2022,9-53-22,87,depth_duration_stimuli/000734_2014-06-08_17-39-11_260595134347_rgbf000128-resize_2/000734_2014-06-08_17-39-11_260595134347_rgbf000128-resize_2-target.png,1000,4.098,20,6282,1000,feet,jsons/v1_VE1000_randls_26_rotated.json,1087455,1209254,36,Man
87,747439,DepthScenes,duration_manipulation_targetAtFixation,jsons/v1_VE1000_randls_26_rotated.json,http://54.235.29.9/FacialAge/BNav_EC2/DepthDuration/v2_depth_duration_MTurk/v2_DepthDuration_HTML.html#263,263,1364,657,1364,768,8-30-2022,9-53-22,88,depth_duration_stimuli/000739_2014-06-08_18-45-58_260595134347_rgbf000068-resize_1/000739_2014-06-08_18-45-58_260595134347_rgbf000068-resize_1-target.png,1000,3.534,30,4116,999,feet,jsons/v1_VE1000_randls_26_rotated.json,1087455,1209254,36,Man
88,747439,DepthScenes,duration_manipulation_targetAtFixation,jsons/v1_VE1000_randls_26_rotated.json,http://54.235.29.9/FacialAge/BNav_EC2/DepthDuration/v2_depth_duration_MTurk/v2_DepthDuration_HTML.html#263,263,1364,657,1364,768,8-30-2022,9-53-22,89,depth_duration_stimuli/003129_2014-05-12_10-48-10_094959634447_rgbf000100-resize_0/003129_2014-05-12_10-48-10_094959634447_rgbf000100-resize_0-target.png,1000,4.9305,35,6339,1000,feet,jsons/v1_VE1000_randls_26_rotated.json,1087455,1209254,36,Man
89,747439,DepthScenes,duration_manipulation_targetAtFixation,jsons/v1_VE1000_randls_26_rotated.json,http://54.235.29.9/FacialAge/BNav_EC2/DepthDuration/v2_depth_duration_MTurk/v2_DepthDuration_HTML.html#263,263,1364,657,1364,768,8-30-2022,9-53-22,90,depth_duration_stimuli/000414_2014-06-04_19-49-13_260595134347_rgbf000044-resize_0/000414_2014-06-04_19-49-13_260595134347_rgbf000044-resize_0-target.png,1000,4.329,20,4259,1001,feet,jsons/v1_VE1000_randls_26_rotated.json,1087455,1209254,36,Man
90,747439,DepthScenes,duration_manipulation_targetAtFixation,jsons/v1_VE1000_randls_26_rotated.json,http://54.235.29.9/FacialAge/BNav_EC2/DepthDuration/v2_depth_duration_MTurk/v2_DepthDuration_HTML.html#263,263,1364,657,1364,768,8-30-2022,9-53-22,91,depth_duration_stimuli/002414_2014-06-28_20-24-58_260595134347_rgbf000067-resize_4/002414_2014-06-28_20-24-58_260595134347_rgbf000067-resize_4-target.png,1000,4.363,35,6219,1000,feet,jsons/v1_VE1000_randls_26_rotated.json,1087455,1209254,36,Man
91,747439,DepthScenes,duration_manipulation_targetAtFixation,jsons/v1_VE1000_randls_26_rotated.json,http://54.235.29.9/FacialAge/BNav_EC2/DepthDuration/v2_depth_duration_MTurk/v2_DepthDuration_HTML.html#263,263,1364,657,1364,768,8-30-2022,9-53-22,92,depth_duration_stimuli/000773_2014-06-08_22-24-54_260595134347_rgbf000093-resize_1/000773_2014-06-08_22-24-54_260595134347_rgbf000093-resize_1-target.png,1000,4.973,40,4279,999,feet,jsons/v1_VE1000_randls_26_rotated.json,1087455,1209254,36,Man
92,747439,DepthScenes,duration_manipulation_targetAtFixation,jsons/v1_VE1000_randls_26_rotated.json,http://54.235.29.9/FacialAge/BNav_EC2/DepthDuration/v2_depth_duration_MTurk/v2_DepthDuration_HTML.html#263,263,1364,657,1364,768,8-30-2022,9-53-22,93,depth_duration_stimuli/003587_2014-05-23_16-48-02_094959634447_rgbf002384-resize_2/003587_2014-05-23_16-48-02_094959634447_rgbf002384-resize_2-target.png,1000,1.357,65,6519,1004,feet,jsons/v1_VE1000_randls_26_rotated.json,1087455,1209254,36,Man
93,747439,DepthScenes,duration_manipulation_targetAtFixation,jsons/v1_VE1000_randls_26_rotated.json,http://54.235.29.9/FacialAge/BNav_EC2/DepthDuration/v2_depth_duration_MTurk/v2_DepthDuration_HTML.html#263,263,1364,657,1364,768,8-30-2022,9-53-22,94,depth_duration_stimuli/001167_2014-06-17_15-38-07_260595134347_rgbf000108-resize_0/001167_2014-06-17_15-38-07_260595134347_rgbf000108-resize_0-target.png,1000,1.8505,50,4425,999,feet,jsons/v1_VE1000_randls_26_rotated.json,1087455,1209254,36,Man
94,747439,DepthScenes,duration_manipulation_targetAtFixation,jsons/v1_VE1000_randls_26_rotated.json,http://54.235.29.9/FacialAge/BNav_EC2/DepthDuration/v2_depth_duration_MTurk/v2_DepthDuration_HTML.html#263,263,1364,657,1364,768,8-30-2022,9-53-22,95,depth_duration_stimuli/002949_2014-06-26_15-57-42_094959634447_rgbf000079-resize_1/002949_2014-06-26_15-57-42_094959634447_rgbf000079-resize_1-target.png,1000,1.8915,50,9973,1001,feet,jsons/v1_VE1000_randls_26_rotated.json,1087455,1209254,36,Man
95,747439,DepthScenes,duration_manipulation_targetAtFixation,jsons/v1_VE1000_randls_26_rotated.json,http://54.235.29.9/FacialAge/BNav_EC2/DepthDuration/v2_depth_duration_MTurk/v2_DepthDuration_HTML.html#263,263,1364,657,1364,768,8-30-2022,9-53-22,96,depth_duration_stimuli/000522_2014-06-08_13-35-06_260595134347_rgbf000244-resize_1/000522_2014-06-08_13-35-06_260595134347_rgbf000244-resize_1-target.png,1000,2.3715,60,3856,999,feet,jsons/v1_VE1000_randls_26_rotated.json,1087455,1209254,36,Man
96,747439,DepthScenes,duration_manipulation_targetAtFixation,jsons/v1_VE1000_randls_26_rotated.json,http://54.235.29.9/FacialAge/BNav_EC2/DepthDuration/v2_depth_duration_MTurk/v2_DepthDuration_HTML.html#263,263,1364,657,1364,768,8-30-2022,9-53-22,97,depth_duration_stimuli/003495_2014-05-21_16-01-51_094959634447_rgbf000100-resize_3/003495_2014-05-21_16-01-51_094959634447_rgbf000100-resize_3-target.png,1000,1.6255,75,6803,1000,feet,jsons/v1_VE1000_randls_26_rotated.json,1087455,1209254,36,Man
97,747439,DepthScenes,duration_manipulation_targetAtFixation,jsons/v1_VE1000_randls_26_rotated.json,http://54.235.29.9/FacialAge/BNav_EC2/DepthDuration/v2_depth_duration_MTurk/v2_DepthDuration_HTML.html#263,263,1364,657,1364,768,8-30-2022,9-53-22,98,depth_duration_stimuli/001244_2014-06-17_16-47-45_260595134347_rgbf000030-resize_4/001244_2014-06-17_16-47-45_260595134347_rgbf000030-resize_4-target.png,1000,2.0425,40,4893,999,feet,jsons/v1_VE1000_randls_26_rotated.json,1087455,1209254,36,Man
98,747439,DepthScenes,duration_manipulation_targetAtFixation,jsons/v1_VE1000_randls_26_rotated.json,http://54.235.29.9/FacialAge/BNav_EC2/DepthDuration/v2_depth_duration_MTurk/v2_DepthDuration_HTML.html#263,263,1364,657,1364,768,8-30-2022,9-53-22,99,depth_duration_stimuli/001222_2014-06-17_16-24-06_260595134347_rgbf000073-resize_0/001222_2014-06-17_16-24-06_260595134347_rgbf000073-resize-original.jpg,1000,1.4385,0,5780,1001,feet,jsons/v1_VE1000_randls_26_rotated.json,1087455,1209254,36,Man
99,747439,DepthScenes,duration_manipulation_targetAtFixation,jsons/v1_VE1000_randls_26_rotated.json,http://54.235.29.9/FacialAge/BNav_EC2/DepthDuration/v2_depth_duration_MTurk/v2_DepthDuration_HTML.html#263,263,1364,657,1364,768,8-30-2022,9-53-22,100,depth_duration_stimuli/000742_2014-06-08_18-48-09_260595134347_rgbf000164-resize_4/000742_2014-06-08_18-48-09_260595134347_rgbf000164-resize_4-target.png,1000,4.632,25,6218,998,feet,jsons/v1_VE1000_randls_26_rotated.json,1087455,1209254,36,Man
100,747439,DepthScenes,duration_manipulation_targetAtFixation,jsons/v1_VE1000_randls_26_rotated.json,http://54.235.29.9/FacialAge/BNav_EC2/DepthDuration/v2_depth_duration_MTurk/v2_DepthDuration_HTML.html#263,263,1364,657,1364,768,8-30-2022,9-53-22,101,depth_duration_stimuli/001066_2014-06-08_22-03-20_260595134347_rgbf000066-resize_4/001066_2014-06-08_22-03-20_260595134347_rgbf000066-resize_4-target.png,1000,4.2330000000000005,20,3940,1001,feet,jsons/v1_VE1000_randls_26_rotated.json,1087455,1209254,36,Man
101,747439,DepthScenes,duration_manipulation_targetAtFixation,jsons/v1_VE1000_randls_26_rotated.json,http://54.235.29.9/FacialAge/BNav_EC2/DepthDuration/v2_depth_duration_MTurk/v2_DepthDuration_HTML.html#263,263,1364,657,1364,768,8-30-2022,9-53-22,102,depth_duration_stimuli/001617_2014-06-20_11-35-32_260595134347_rgbf000066-resize_1/001617_2014-06-20_11-35-32_260595134347_rgbf000066-resize_1-target.png,1000,3.7910000000000004,20,6679,999,feet,jsons/v1_VE1000_randls_26_rotated.json,1087455,1209254,36,Man
102,747439,DepthScenes,duration_manipulation_targetAtFixation,jsons/v1_VE1000_randls_26_rotated.json,http://54.235.29.9/FacialAge/BNav_EC2/DepthDuration/v2_depth_duration_MTurk/v2_DepthDuration_HTML.html#263,263,1364,657,1364,768,8-30-2022,9-53-22,103,depth_duration_stimuli/001806_2014-06-26_20-50-20_260595134347_rgbf000091-resize_1/001806_2014-06-26_20-50-20_260595134347_rgbf000091-resize_1-target.png,1000,2.7305,20,6338,1000,feet,jsons/v1_VE1000_randls_26_rotated.json,1087455,1209254,36,Man
103,747439,DepthScenes,duration_manipulation_targetAtFixation,jsons/v1_VE1000_randls_26_rotated.json,http://54.235.29.9/FacialAge/BNav_EC2/DepthDuration/v2_depth_duration_MTurk/v2_DepthDuration_HTML.html#263,263,1364,657,1364,768,8-30-2022,9-53-22,104,depth_duration_stimuli/001516_2014-06-20_16-25-09_260595134347_rgbf000076-resize_2/001516_2014-06-20_16-25-09_260595134347_rgbf000076-resize_2-target.png,1000,1.7445,35,12879,999,feet,jsons/v1_VE1000_randls_26_rotated.json,1087455,1209254,36,Man
104,747439,DepthScenes,duration_manipulation_targetAtFixation,jsons/v1_VE1000_randls_26_rotated.json,http://54.235.29.9/FacialAge/BNav_EC2/DepthDuration/v2_depth_duration_MTurk/v2_DepthDuration_HTML.html#263,263,1364,657,1364,768,8-30-2022,9-53-22,105,depth_duration_stimuli/002118_2014-06-25_20-32-08_260595134347_rgbf000078-resize_1/002118_2014-06-25_20-32-08_260595134347_rgbf000078-resize_1-target.png,1000,2.6460000000000004,50,3738,1000,feet,jsons/v1_VE1000_randls_26_rotated.json,1087455,1209254,36,Man
105,747439,DepthScenes,duration_manipulation_targetAtFixation,jsons/v1_VE1000_randls_26_rotated.json,http://54.235.29.9/FacialAge/BNav_EC2/DepthDuration/v2_depth_duration_MTurk/v2_DepthDuration_HTML.html#263,263,1364,657,1364,768,8-30-2022,9-53-22,106,depth_duration_stimuli/001132_2014-06-17_14-48-54_260595134347_rgbf000100-resize_2/001132_2014-06-17_14-48-54_260595134347_rgbf000100-resize_2-target.png,1000,3.753,30,6350,1001,feet,jsons/v1_VE1000_randls_26_rotated.json,1087455,1209254,36,Man
106,747439,DepthScenes,duration_manipulation_targetAtFixation,jsons/v1_VE1000_randls_26_rotated.json,http://54.235.29.9/FacialAge/BNav_EC2/DepthDuration/v2_depth_duration_MTurk/v2_DepthDuration_HTML.html#263,263,1364,657,1364,768,8-30-2022,9-53-22,107,depth_duration_stimuli/001133_2014-06-17_14-49-16_260595134347_rgbf000100-resize_0/001133_2014-06-17_14-49-16_260595134347_rgbf000100-resize_0-target.png,1000,4.2115,40,4229,1000,feet,jsons/v1_VE1000_randls_26_rotated.json,1087455,1209254,36,Man
107,747439,DepthScenes,duration_manipulation_targetAtFixation,jsons/v1_VE1000_randls_26_rotated.json,http://54.235.29.9/FacialAge/BNav_EC2/DepthDuration/v2_depth_duration_MTurk/v2_DepthDuration_HTML.html#263,263,1364,657,1364,768,8-30-2022,9-53-22,108,depth_duration_stimuli/001392_2014-06-19_16-07-59_260595134347_rgbf000046-resize_1/001392_2014-06-19_16-07-59_260595134347_rgbf000046-resize_1-target.png,1000,4.135,30,6298,1000,feet,jsons/v1_VE1000_randls_26_rotated.json,1087455,1209254,36,Man
108,747439,DepthScenes,duration_manipulation_targetAtFixation,jsons/v1_VE1000_randls_26_rotated.json,http://54.235.29.9/FacialAge/BNav_EC2/DepthDuration/v2_depth_duration_MTurk/v2_DepthDuration_HTML.html#263,263,1364,657,1364,768,8-30-2022,9-53-22,109,depth_duration_stimuli/001570_2014-06-20_17-21-09_260595134347_rgbf000135-resize_4/001570_2014-06-20_17-21-09_260595134347_rgbf000135-resize_4-target.png,1000,4.467,5,4961,1000,feet,jsons/v1_VE1000_randls_26_rotated.json,1087455,1209254,36,Man
109,747439,DepthScenes,duration_manipulation_targetAtFixation,jsons/v1_VE1000_randls_26_rotated.json,http://54.235.29.9/FacialAge/BNav_EC2/DepthDuration/v2_depth_duration_MTurk/v2_DepthDuration_HTML.html#263,263,1364,657,1364,768,8-30-2022,9-53-22,110,depth_duration_stimuli/003010_2014-06-15_12-54-35_094959634447_rgbf000112-resize_0/003010_2014-06-15_12-54-35_094959634447_rgbf000112-resize_0-target.png,1000,3.1185,25,7258,999,feet,jsons/v1_VE1000_randls_26_rotated.json,1087455,1209254,36,Man
110,747439,DepthScenes,duration_manipulation_targetAtFixation,jsons/v1_VE1000_randls_26_rotated.json,http://54.235.29.9/FacialAge/BNav_EC2/DepthDuration/v2_depth_duration_MTurk/v2_DepthDuration_HTML.html#263,263,1364,657,1364,768,8-30-2022,9-53-22,111,depth_duration_stimuli/001810_2014-06-26_20-51-35_260595134347_rgbf000040-resize_3/001810_2014-06-26_20-51-35_260595134347_rgbf000040-resize_3-target.png,1000,2.2525,50,4279,1000,feet,jsons/v1_VE1000_randls_26_rotated.json,1087455,1209254,36,Man
111,747439,DepthScenes,duration_manipulation_targetAtFixation,jsons/v1_VE1000_randls_26_rotated.json,http://54.235.29.9/FacialAge/BNav_EC2/DepthDuration/v2_depth_duration_MTurk/v2_DepthDuration_HTML.html#263,263,1364,657,1364,768,8-30-2022,9-53-22,112,depth_duration_stimuli/001235_2014-06-17_16-37-36_260595134347_rgbf000084-resize_4/001235_2014-06-17_16-37-36_260595134347_rgbf000084-resize_4-target.png,1000,3.6605,35,6426,1000,feet,jsons/v1_VE1000_randls_26_rotated.json,1087455,1209254,36,Man
112,747439,DepthScenes,duration_manipulation_targetAtFixation,jsons/v1_VE1000_randls_26_rotated.json,http://54.235.29.9/FacialAge/BNav_EC2/DepthDuration/v2_depth_duration_MTurk/v2_DepthDuration_HTML.html#263,263,1364,657,1364,768,8-30-2022,9-53-22,113,depth_duration_stimuli/000788_2014-06-08_22-34-36_260595134347_rgbf000131-resize_1/000788_2014-06-08_22-34-36_260595134347_rgbf000131-resize_1-target.png,1000,3.359,50,4110,999,feet,jsons/v1_VE1000_randls_26_rotated.json,1087455,1209254,36,Man
113,747439,DepthScenes,duration_manipulation_targetAtFixation,jsons/v1_VE1000_randls_26_rotated.json,http://54.235.29.9/FacialAge/BNav_EC2/DepthDuration/v2_depth_duration_MTurk/v2_DepthDuration_HTML.html#263,263,1364,657,1364,768,8-30-2022,9-53-22,114,depth_duration_stimuli/000409_2014-06-04_19-23-33_260595134347_rgbf000067-resize_0/000409_2014-06-04_19-23-33_260595134347_rgbf000067-resize_0-target.png,1000,3.7335,50,6295,997,feet,jsons/v1_VE1000_randls_26_rotated.json,1087455,1209254,36,Man
114,747439,DepthScenes,duration_manipulation_targetAtFixation,jsons/v1_VE1000_randls_26_rotated.json,http://54.235.29.9/FacialAge/BNav_EC2/DepthDuration/v2_depth_duration_MTurk/v2_DepthDuration_HTML.html#263,263,1364,657,1364,768,8-30-2022,9-53-22,115,depth_duration_stimuli/002663_2014-06-13_15-50-26_094959634447_rgbf000075-resize_1/002663_2014-06-13_15-50-26_094959634447_rgbf000075-resize_1-target.png,1000,4.7495,10,6440,999,feet,jsons/v1_VE1000_randls_26_rotated.json,1087455,1209254,36,Man
115,747439,DepthScenes,duration_manipulation_targetAtFixation,jsons/v1_VE1000_randls_26_rotated.json,http://54.235.29.9/FacialAge/BNav_EC2/DepthDuration/v2_depth_duration_MTurk/v2_DepthDuration_HTML.html#263,263,1364,657,1364,768,8-30-2022,9-53-22,116,depth_duration_stimuli/003228_2014-05-14_13-42-35_094959634447_rgbf000101-resize_1/003228_2014-05-14_13-42-35_094959634447_rgbf000101-resize_1-target.png,1000,1.9680000000000002,50,6477,999,feet,jsons/v1_VE1000_randls_26_rotated.json,1087455,1209254,36,Man
116,747439,DepthScenes,duration_manipulation_targetAtFixation,jsons/v1_VE1000_randls_26_rotated.json,http://54.235.29.9/FacialAge/BNav_EC2/DepthDuration/v2_depth_duration_MTurk/v2_DepthDuration_HTML.html#263,263,1364,657,1364,768,8-30-2022,9-53-22,117,depth_duration_stimuli/002600_2014-06-24_14-27-04_094959634447_rgbf000074-resize_2/002600_2014-06-24_14-27-04_094959634447_rgbf000074-resize_2-target.png,1000,2.7575,40,4018,998,feet,jsons/v1_VE1000_randls_26_rotated.json,1087455,1209254,36,Man
117,747439,DepthScenes,duration_manipulation_targetAtFixation,jsons/v1_VE1000_randls_26_rotated.json,http://54.235.29.9/FacialAge/BNav_EC2/DepthDuration/v2_depth_duration_MTurk/v2_DepthDuration_HTML.html#263,263,1364,657,1364,768,8-30-2022,9-53-22,118,depth_duration_stimuli/000103_2014-05-14_22-01-17_260595134347_rgbf000152-resize_5/000103_2014-05-14_22-01-17_260595134347_rgbf000152-resize_5-target.png,1000,1.993,35,11379,1002,feet,jsons/v1_VE1000_randls_26_rotated.json,1087455,1209254,36,Man
118,747439,DepthScenes,duration_manipulation_targetAtFixation,jsons/v1_VE1000_randls_26_rotated.json,http://54.235.29.9/FacialAge/BNav_EC2/DepthDuration/v2_depth_duration_MTurk/v2_DepthDuration_HTML.html#263,263,1364,657,1364,768,8-30-2022,9-53-22,119,depth_duration_stimuli/001555_2014-06-20_17-12-10_260595134347_rgbf000065-resize_4/001555_2014-06-20_17-12-10_260595134347_rgbf000065-resize_4-target.png,1000,1.633,50,3847,985,feet,jsons/v1_VE1000_randls_26_rotated.json,1087455,1209254,36,Man
119,747439,DepthScenes,duration_manipulation_targetAtFixation,jsons/v1_VE1000_randls_26_rotated.json,http://54.235.29.9/FacialAge/BNav_EC2/DepthDuration/v2_depth_duration_MTurk/v2_DepthDuration_HTML.html#263,263,1364,657,1364,768,8-30-2022,9-53-22,120,depth_duration_stimuli/000787_2014-06-08_22-33-53_260595134347_rgbf000175-resize_1/000787_2014-06-08_22-33-53_260595134347_rgbf000175-resize-original.jpg,1000,4.784,0,5938,1000,feet,jsons/v1_VE1000_randls_26_rotated.json,1087455,1209254,36,Man
120,747439,DepthScenes,duration_manipulation_targetAtFixation,jsons/v1_VE1000_randls_26_rotated.json,http://54.235.29.9/FacialAge/BNav_EC2/DepthDuration/v2_depth_duration_MTurk/v2_DepthDuration_HTML.html#263,263,1364,657,1364,768,8-30-2022,9-53-22,121,depth_duration_stimuli/000943_2014-06-09_19-31-07_260595134347_rgbf000128-resize_1/000943_2014-06-09_19-31-07_260595134347_rgbf000128-resize_1-target.png,1000,1.9765,45,10418,998,feet,jsons/v1_VE1000_randls_26_rotated.json,1087455,1209254,36,Man
121,747439,DepthScenes,duration_manipulation_targetAtFixation,jsons/v1_VE1000_randls_26_rotated.json,http://54.235.29.9/FacialAge/BNav_EC2/DepthDuration/v2_depth_duration_MTurk/v2_DepthDuration_HTML.html#263,263,1364,657,1364,768,8-30-2022,9-53-22,122,depth_duration_stimuli/003070_2014-06-15_14-58-27_094959634447_rgbf000150-resize_3/003070_2014-06-15_14-58-27_094959634447_rgbf000150-resize_3-target.png,1000,2.9415,30,4119,1000,feet,jsons/v1_VE1000_randls_26_rotated.json,1087455,1209254,36,Man
122,747439,DepthScenes,duration_manipulation_targetAtFixation,jsons/v1_VE1000_randls_26_rotated.json,http://54.235.29.9/FacialAge/BNav_EC2/DepthDuration/v2_depth_duration_MTurk/v2_DepthDuration_HTML.html#263,263,1364,657,1364,768,8-30-2022,9-53-22,123,depth_duration_stimuli/002750_2014-06-22_19-08-03_094959634447_rgbf000094-resize_4/002750_2014-06-22_19-08-03_094959634447_rgbf000094-resize_4-target.png,1000,2.354,35,7019,999,feet,jsons/v1_VE1000_randls_26_rotated.json,1087455,1209254,36,Man
123,747439,DepthScenes,duration_manipulation_targetAtFixation,jsons/v1_VE1000_randls_26_rotated.json,http://54.235.29.9/FacialAge/BNav_EC2/DepthDuration/v2_depth_duration_MTurk/v2_DepthDuration_HTML.html#263,263,1364,657,1364,768,8-30-2022,9-53-22,124,depth_duration_stimuli/002549_2014-06-24_13-41-39_094959634447_rgbf000022-resize_3/002549_2014-06-24_13-41-39_094959634447_rgbf000022-resize_3-target.png,1000,1.476,50,4010,1000,feet,jsons/v1_VE1000_randls_26_rotated.json,1087455,1209254,36,Man
124,747439,DepthScenes,duration_manipulation_targetAtFixation,jsons/v1_VE1000_randls_26_rotated.json,http://54.235.29.9/FacialAge/BNav_EC2/DepthDuration/v2_depth_duration_MTurk/v2_DepthDuration_HTML.html#263,263,1364,657,1364,768,8-30-2022,9-53-22,125,depth_duration_stimuli/002344_2014-06-28_20-06-29_260595134347_rgbf000030-resize_1/002344_2014-06-28_20-06-29_260595134347_rgbf000030-resize_1-target.png,1000,1.5795,75,6127,1000,feet,jsons/v1_VE1000_randls_26_rotated.json,1087455,1209254,36,Man
125,747439,DepthScenes,duration_manipulation_targetAtFixation,jsons/v1_VE1000_randls_26_rotated.json,http://54.235.29.9/FacialAge/BNav_EC2/DepthDuration/v2_depth_duration_MTurk/v2_DepthDuration_HTML.html#263,263,1364,657,1364,768,8-30-2022,9-53-22,126,depth_duration_stimuli/002725_2014-06-22_11-47-51_094959634447_rgbf000070-resize_1/002725_2014-06-22_11-47-51_094959634447_rgbf000070-resize_1-target.png,1000,2.195,20,4138,999,feet,jsons/v1_VE1000_randls_26_rotated.json,1087455,1209254,36,Man
126,747439,DepthScenes,duration_manipulation_targetAtFixation,jsons/v1_VE1000_randls_26_rotated.json,http://54.235.29.9/FacialAge/BNav_EC2/DepthDuration/v2_depth_duration_MTurk/v2_DepthDuration_HTML.html#263,263,1364,657,1364,768,8-30-2022,9-53-22,127,depth_duration_stimuli/002805_2014-06-22_19-54-03_094959634447_rgbf000079-resize_1/002805_2014-06-22_19-54-03_094959634447_rgbf000079-resize_1-target.png,1000,3.1439999999999997,30,5848,999,feet,jsons/v1_VE1000_randls_26_rotated.json,1087455,1209254,36,Man
127,747439,DepthScenes,duration_manipulation_targetAtFixation,jsons/v1_VE1000_randls_26_rotated.json,http://54.235.29.9/FacialAge/BNav_EC2/DepthDuration/v2_depth_duration_MTurk/v2_DepthDuration_HTML.html#263,263,1364,657,1364,768,8-30-2022,9-53-22,128,depth_duration_stimuli/000906_2014-06-08_13-35-43_260595134347_rgbf000155-resize_1/000906_2014-06-08_13-35-43_260595134347_rgbf000155-resize_1-target.png,1000,2.8489999999999998,20,6360,1001,feet,jsons/v1_VE1000_randls_26_rotated.json,1087455,1209254,36,Man
128,747439,DepthScenes,duration_manipulation_targetAtFixation,jsons/v1_VE1000_randls_26_rotated.json,http://54.235.29.9/FacialAge/BNav_EC2/DepthDuration/v2_depth_duration_MTurk/v2_DepthDuration_HTML.html#263,263,1364,657,1364,768,8-30-2022,9-53-22,129,depth_duration_stimuli/000709_2014-06-08_13-51-55_260595134347_rgbf000068-resize_3/000709_2014-06-08_13-51-55_260595134347_rgbf000068-resize_3-target.png,1000,1.8030000000000002,10,6488,1001,feet,jsons/v1_VE1000_randls_26_rotated.json,1087455,1209254,36,Man
129,747439,DepthScenes,duration_manipulation_targetAtFixation,jsons/v1_VE1000_randls_26_rotated.json,http://54.235.29.9/FacialAge/BNav_EC2/DepthDuration/v2_depth_duration_MTurk/v2_DepthDuration_HTML.html#263,263,1364,657,1364,768,8-30-2022,9-53-22,130,depth_duration_stimuli/002057_2014-06-24_21-00-13_260595134347_rgbf000120-resize_1/002057_2014-06-24_21-00-13_260595134347_rgbf000120-resize_1-target.png,1000,2.967,15,3739,1001,feet,jsons/v1_VE1000_randls_26_rotated.json,1087455,1209254,36,Man
130,747439,DepthScenes,duration_manipulation_targetAtFixation,jsons/v1_VE1000_randls_26_rotated.json,http://54.235.29.9/FacialAge/BNav_EC2/DepthDuration/v2_depth_duration_MTurk/v2_DepthDuration_HTML.html#263,263,1364,657,1364,768,8-30-2022,9-53-22,131,depth_duration_stimuli/000749_2014-06-08_21-55-06_260595134347_rgbf000070-resize_2/000749_2014-06-08_21-55-06_260595134347_rgbf000070-resize_2-target.png,1000,2.331,25,6660,1000,feet,jsons/v1_VE1000_randls_26_rotated.json,1087455,1209254,36,Man
131,747439,DepthScenes,duration_manipulation_targetAtFixation,jsons/v1_VE1000_randls_26_rotated.json,http://54.235.29.9/FacialAge/BNav_EC2/DepthDuration/v2_depth_duration_MTurk/v2_DepthDuration_HTML.html#263,263,1364,657,1364,768,8-30-2022,9-53-22,132,depth_duration_stimuli/002788_2014-06-22_19-36-03_094959634447_rgbf000088-resize_2/002788_2014-06-22_19-36-03_094959634447_rgbf000088-resize_2-target.png,1000,1.6465,30,3898,997,feet,jsons/v1_VE1000_randls_26_rotated.json,1087455,1209254,36,Man
132,747439,DepthScenes,duration_manipulation_targetAtFixation,jsons/v1_VE1000_randls_26_rotated.json,http://54.235.29.9/FacialAge/BNav_EC2/DepthDuration/v2_depth_duration_MTurk/v2_DepthDuration_HTML.html#263,263,1364,657,1364,768,8-30-2022,9-53-22,133,depth_duration_stimuli/000780_2014-06-08_22-28-29_260595134347_rgbf000126-resize_1/000780_2014-06-08_22-28-29_260595134347_rgbf000126-resize_1-target.png,1000,3.3825,30,6679,1000,feet,jsons/v1_VE1000_randls_26_rotated.json,1087455,1209254,36,Man
133,747439,DepthScenes,duration_manipulation_targetAtFixation,jsons/v1_VE1000_randls_26_rotated.json,http://54.235.29.9/FacialAge/BNav_EC2/DepthDuration/v2_depth_duration_MTurk/v2_DepthDuration_HTML.html#263,263,1364,657,1364,768,8-30-2022,9-53-22,134,depth_duration_stimuli/002445_2014-06-28_20-32-16_260595134347_rgbf000029-resize_4/002445_2014-06-28_20-32-16_260595134347_rgbf000029-resize_4-target.png,1000,2.5315,60,11110,1000,feet,jsons/v1_VE1000_randls_26_rotated.json,1087455,1209254,36,Man
134,747439,DepthScenes,duration_manipulation_targetAtFixation,jsons/v1_VE1000_randls_26_rotated.json,http://54.235.29.9/FacialAge/BNav_EC2/DepthDuration/v2_depth_duration_MTurk/v2_DepthDuration_HTML.html#263,263,1364,657,1364,768,8-30-2022,9-53-22,135,depth_duration_stimuli/000375_2014-06-08_11-17-29_260595134347_rgbf000133-resize_2/000375_2014-06-08_11-17-29_260595134347_rgbf000133-resize-original.jpg,1000,4.718,0,6028,999,feet,jsons/v1_VE1000_randls_26_rotated.json,1087455,1209254,36,Man
135,747439,DepthScenes,duration_manipulation_targetAtFixation,jsons/v1_VE1000_randls_26_rotated.json,http://54.235.29.9/FacialAge/BNav_EC2/DepthDuration/v2_depth_duration_MTurk/v2_DepthDuration_HTML.html#263,263,1364,657,1364,768,8-30-2022,9-53-22,136,depth_duration_stimuli/000556_2014-06-09_22-42-56_260595134347_rgbf000214-resize_1/000556_2014-06-09_22-42-56_260595134347_rgbf000214-resize_1-target.png,1000,4.8415,40,6490,1001,feet,jsons/v1_VE1000_randls_26_rotated.json,1087455,1209254,36,Man
136,747439,DepthScenes,duration_manipulation_targetAtFixation,jsons/v1_VE1000_randls_26_rotated.json,http://54.235.29.9/FacialAge/BNav_EC2/DepthDuration/v2_depth_duration_MTurk/v2_DepthDuration_HTML.html#263,263,1364,657,1364,768,8-30-2022,9-53-22,137,depth_duration_stimuli/001158_2014-06-17_15-32-16_260595134347_rgbf000138-resize_2/001158_2014-06-17_15-32-16_260595134347_rgbf000138-resize_2-target.png,1000,4.5315,30,4130,1001,feet,jsons/v1_VE1000_randls_26_rotated.json,1087455,1209254,36,Man
137,747439,DepthScenes,duration_manipulation_targetAtFixation,jsons/v1_VE1000_randls_26_rotated.json,http://54.235.29.9/FacialAge/BNav_EC2/DepthDuration/v2_depth_duration_MTurk/v2_DepthDuration_HTML.html#263,263,1364,657,1364,768,8-30-2022,9-53-22,138,depth_duration_stimuli/000665_2014-06-09_20-42-35_260595134347_rgbf000110-resize_1/000665_2014-06-09_20-42-35_260595134347_rgbf000110-resize_1-target.png,1000,3.057,45,6597,1001,feet,jsons/v1_VE1000_randls_26_rotated.json,1087455,1209254,36,Man
138,747439,DepthScenes,duration_manipulation_targetAtFixation,jsons/v1_VE1000_randls_26_rotated.json,http://54.235.29.9/FacialAge/BNav_EC2/DepthDuration/v2_depth_duration_MTurk/v2_DepthDuration_HTML.html#263,263,1364,657,1364,768,8-30-2022,9-53-22,139,depth_duration_stimuli/001150_2014-06-17_15-27-34_260595134347_rgbf000108-resize_2/001150_2014-06-17_15-27-34_260595134347_rgbf000108-resize_2-target.png,1000,4.0325,20,4149,999,feet,jsons/v1_VE1000_randls_26_rotated.json,1087455,1209254,36,Man
139,747439,DepthScenes,duration_manipulation_targetAtFixation,jsons/v1_VE1000_randls_26_rotated.json,http://54.235.29.9/FacialAge/BNav_EC2/DepthDuration/v2_depth_duration_MTurk/v2_DepthDuration_HTML.html#263,263,1364,657,1364,768,8-30-2022,9-53-22,140,depth_duration_stimuli/001100_2014-06-15_17-46-26_260595134347_rgbf000225-resize_2/001100_2014-06-15_17-46-26_260595134347_rgbf000225-resize_2-target.png,1000,2.24,60,6070,1001,feet,jsons/v1_VE1000_randls_26_rotated.json,1087455,1209254,36,Man
140,747439,DepthScenes,duration_manipulation_targetAtFixation,jsons/v1_VE1000_randls_26_rotated.json,http://54.235.29.9/FacialAge/BNav_EC2/DepthDuration/v2_depth_duration_MTurk/v2_DepthDuration_HTML.html#263,263,1364,657,1364,768,8-30-2022,9-53-22,141,depth_duration_stimuli/002784_2014-06-22_19-26-30_094959634447_rgbf000083-resize_3/002784_2014-06-22_19-26-30_094959634447_rgbf000083-resize_3-target.png,1000,1.8046666666667,60,7799,1001,feet,jsons/v1_VE1000_randls_26_rotated.json,1087455,1209254,36,Man
141,747439,DepthScenes,duration_manipulation_targetAtFixation,jsons/v1_VE1000_randls_26_rotated.json,http://54.235.29.9/FacialAge/BNav_EC2/DepthDuration/v2_depth_duration_MTurk/v2_DepthDuration_HTML.html#263,263,1364,657,1364,768,8-30-2022,9-53-22,142,depth_duration_stimuli/002678_2014-06-13_16-15-32_094959634447_rgbf000151-resize_6/002678_2014-06-13_16-15-32_094959634447_rgbf000151-resize_6-target.png,1000,2.1830000000000003,25,6119,1000,feet,jsons/v1_VE1000_randls_26_rotated.json,1087455,1209254,36,Man
142,747439,DepthScenes,duration_manipulation_targetAtFixation,jsons/v1_VE1000_randls_26_rotated.json,http://54.235.29.9/FacialAge/BNav_EC2/DepthDuration/v2_depth_duration_MTurk/v2_DepthDuration_HTML.html#263,263,1364,657,1364,768,8-30-2022,9-53-22,143,depth_duration_stimuli/000368_2014-06-09_15-53-01_260595134347_rgbf000155-resize_2/000368_2014-06-09_15-53-01_260595134347_rgbf000155-resize_2-target.png,1000,2.4859999999999998,50,3899,1000,feet,jsons/v1_VE1000_randls_26_rotated.json,1087455,1209254,36,Man
143,747439,DepthScenes,duration_manipulation_targetAtFixation,jsons/v1_VE1000_randls_26_rotated.json,http://54.235.29.9/FacialAge/BNav_EC2/DepthDuration/v2_depth_duration_MTurk/v2_DepthDuration_HTML.html#263,263,1364,657,1364,768,8-30-2022,9-53-22,144,depth_duration_stimuli/002758_2014-06-22_19-11-20_094959634447_rgbf000128-resize_1/002758_2014-06-22_19-11-20_094959634447_rgbf000128-resize_1-target.png,1000,2.555,50,6860,1001,feet,jsons/v1_VE1000_randls_26_rotated.json,1087455,1209254,36,Man
144,747439,DepthScenes,duration_manipulation_targetAtFixation,jsons/v1_VE1000_randls_26_rotated.json,http://54.235.29.9/FacialAge/BNav_EC2/DepthDuration/v2_depth_duration_MTurk/v2_DepthDuration_HTML.html#263,263,1364,657,1364,768,8-30-2022,9-53-22,145,depth_duration_stimuli/002630_2014-06-24_14-47-50_094959634447_rgbf000055-resize_1/002630_2014-06-24_14-47-50_094959634447_rgbf000055-resize_1-target.png,1000,3.0095,20,4440,1001,feet,jsons/v1_VE1000_randls_26_rotated.json,1087455,1209254,36,Man
145,747439,DepthScenes,duration_manipulation_targetAtFixation,jsons/v1_VE1000_randls_26_rotated.json,http://54.235.29.9/FacialAge/BNav_EC2/DepthDuration/v2_depth_duration_MTurk/v2_DepthDuration_HTML.html#263,263,1364,657,1364,768,8-30-2022,9-53-22,146,depth_duration_stimuli/000457_2014-06-08_16-52-43_260595134347_rgbf000199-resize_1/000457_2014-06-08_16-52-43_260595134347_rgbf000199-resize_1-target.png,1000,3.6489999999999996,40,7040,999,feet,jsons/v1_VE1000_randls_26_rotated.json,1087455,1209254,36,Man
146,747439,DepthScenes,duration_manipulation_targetAtFixation,jsons/v1_VE1000_randls_26_rotated.json,http://54.235.29.9/FacialAge/BNav_EC2/DepthDuration/v2_depth_duration_MTurk/v2_DepthDuration_HTML.html#263,263,1364,657,1364,768,8-30-2022,9-53-22,147,depth_duration_stimuli/000929_2014-06-09_16-33-19_260595134347_rgbf000139-resize_0/000929_2014-06-09_16-33-19_260595134347_rgbf000139-resize_0-target.png,1000,2.8680000000000003,45,9617,999,feet,jsons/v1_VE1000_randls_26_rotated.json,1087455,1209254,36,Man
147,747439,DepthScenes,duration_manipulation_targetAtFixation,jsons/v1_VE1000_randls_26_rotated.json,http://54.235.29.9/FacialAge/BNav_EC2/DepthDuration/v2_depth_duration_MTurk/v2_DepthDuration_HTML.html#263,263,1364,657,1364,768,8-30-2022,9-53-22,148,depth_duration_stimuli/002953_2014-06-08_17-32-18_094959634447_rgbf000059-resize_5/002953_2014-06-08_17-32-18_094959634447_rgbf000059-resize_5-target.png,1000,1.551,60,6459,1001,feet,jsons/v1_VE1000_randls_26_rotated.json,1087455,1209254,36,Man
148,747439,DepthScenes,duration_manipulation_targetAtFixation,jsons/v1_VE1000_randls_26_rotated.json,http://54.235.29.9/FacialAge/BNav_EC2/DepthDuration/v2_depth_duration_MTurk/v2_DepthDuration_HTML.html#263,263,1364,657,1364,768,8-30-2022,9-53-22,149,depth_duration_stimuli/000878_2014-06-08_22-52-45_260595134347_rgbf000045-resize_2/000878_2014-06-08_22-52-45_260595134347_rgbf000045-resize_2-target.png,1000,2.092,30,4398,998,feet,jsons/v1_VE1000_randls_26_rotated.json,1087455,1209254,36,Man
149,747439,DepthScenes,duration_manipulation_targetAtFixation,jsons/v1_VE1000_randls_26_rotated.json,http://54.235.29.9/FacialAge/BNav_EC2/DepthDuration/v2_depth_duration_MTurk/v2_DepthDuration_HTML.html#263,263,1364,657,1364,768,8-30-2022,9-53-22,150,depth_duration_stimuli/000191_2014-05-12_17-07-38_260595134347_rgbf000199-resize_0/000191_2014-05-12_17-07-38_260595134347_rgbf000199-resize_0-target.png,1000,3.7995,10,6158,1000,feet,jsons/v1_VE1000_randls_26_rotated.json,1087455,1209254,36,Man
150,747439,DepthScenes,duration_manipulation_targetAtFixation,jsons/v1_VE1000_randls_26_rotated.json,http://54.235.29.9/FacialAge/BNav_EC2/DepthDuration/v2_depth_duration_MTurk/v2_DepthDuration_HTML.html#263,263,1364,657,1364,768,8-30-2022,9-53-22,151,depth_duration_stimuli/000493_2014-06-09_21-01-18_260595134347_rgbf000196-resize_3/000493_2014-06-09_21-01-18_260595134347_rgbf000196-resize_3-target.png,1000,3.44,30,3720,1000,feet,jsons/v1_VE1000_randls_26_rotated.json,1087455,1209254,36,Man
151,747439,DepthScenes,duration_manipulation_targetAtFixation,jsons/v1_VE1000_randls_26_rotated.json,http://54.235.29.9/FacialAge/BNav_EC2/DepthDuration/v2_depth_duration_MTurk/v2_DepthDuration_HTML.html#263,263,1364,657,1364,768,8-30-2022,9-53-22,152,depth_duration_stimuli/000569_2014-06-09_22-51-47_260595134347_rgbf000141-resize_3/000569_2014-06-09_22-51-47_260595134347_rgbf000141-resize-original.jpg,1000,4.512,0,6041,1000,feet,jsons/v1_VE1000_randls_26_rotated.json,1087455,1209254,36,Man
152,747439,DepthScenes,duration_manipulation_targetAtFixation,jsons/v1_VE1000_randls_26_rotated.json,http://54.235.29.9/FacialAge/BNav_EC2/DepthDuration/v2_depth_duration_MTurk/v2_DepthDuration_HTML.html#263,263,1364,657,1364,768,8-30-2022,9-53-22,153,depth_duration_stimuli/002444_2014-06-28_20-32-08_260595134347_rgbf000027-resize_0/002444_2014-06-28_20-32-08_260595134347_rgbf000027-resize_0-target.png,1000,4.388999999999999,40,8397,999,feet,jsons/v1_VE1000_randls_26_rotated.json,1087455,1209254,36,Man
153,747439,DepthScenes,duration_manipulation_targetAtFixation,jsons/v1_VE1000_randls_26_rotated.json,http://54.235.29.9/FacialAge/BNav_EC2/DepthDuration/v2_depth_duration_MTurk/v2_DepthDuration_HTML.html#263,263,1364,657,1364,768,8-30-2022,9-53-22,154,depth_duration_stimuli/000436_2014-06-09_22-25-11_260595134347_rgbf000137-resize_1/000436_2014-06-09_22-25-11_260595134347_rgbf000137-resize_1-target.png,1000,4.0705,25,3899,1000,feet,jsons/v1_VE1000_randls_26_rotated.json,1087455,1209254,36,Man
154,747439,DepthScenes,duration_manipulation_targetAtFixation,jsons/v1_VE1000_randls_26_rotated.json,http://54.235.29.9/FacialAge/BNav_EC2/DepthDuration/v2_depth_duration_MTurk/v2_DepthDuration_HTML.html#263,263,1364,657,1364,768,8-30-2022,9-53-22,155,depth_duration_stimuli/000927_2014-06-09_16-32-30_260595134347_rgbf000123-resize_3/000927_2014-06-09_16-32-30_260595134347_rgbf000123-resize_3-target.png,1000,2.6785,30,6359,1001,feet,jsons/v1_VE1000_randls_26_rotated.json,1087455,1209254,36,Man
155,747439,DepthScenes,duration_manipulation_targetAtFixation,jsons/v1_VE1000_randls_26_rotated.json,http://54.235.29.9/FacialAge/BNav_EC2/DepthDuration/v2_depth_duration_MTurk/v2_DepthDuration_HTML.html#263,263,1364,657,1364,768,8-30-2022,9-53-22,156,depth_duration_stimuli/001110_2014-06-15_17-25-28_260595134347_rgbf000150-resize_1/001110_2014-06-15_17-25-28_260595134347_rgbf000150-resize_1-target.png,1000,1.7115,40,6988,999,feet,jsons/v1_VE1000_randls_26_rotated.json,1087455,1209254,36,Man
156,747439,DepthScenes,duration_manipulation_targetAtFixation,jsons/v1_VE1000_randls_26_rotated.json,http://54.235.29.9/FacialAge/BNav_EC2/DepthDuration/v2_depth_duration_MTurk/v2_DepthDuration_HTML.html#263,263,1364,657,1364,768,8-30-2022,9-53-22,157,depth_duration_stimuli/003048_2014-06-15_13-49-43_094959634447_rgbf000150-resize_1/003048_2014-06-15_13-49-43_094959634447_rgbf000150-resize_1-target.png,1000,4.0035,30,6511,999,feet,jsons/v1_VE1000_randls_26_rotated.json,1087455,1209254,36,Man
157,747439,DepthScenes,duration_manipulation_targetAtFixation,jsons/v1_VE1000_randls_26_rotated.json,http://54.235.29.9/FacialAge/BNav_EC2/DepthDuration/v2_depth_duration_MTurk/v2_DepthDuration_HTML.html#263,263,1364,657,1364,768,8-30-2022,9-53-22,158,depth_duration_stimuli/002043_2014-06-24_20-29-38_260595134347_rgbf000039-resize_4/002043_2014-06-24_20-29-38_260595134347_rgbf000039-resize_4-target.png,1000,2.8435,30,6056,1000,feet,jsons/v1_VE1000_randls_26_rotated.json,1087455,1209254,36,Man
158,747439,DepthScenes,duration_manipulation_targetAtFixation,jsons/v1_VE1000_randls_26_rotated.json,http://54.235.29.9/FacialAge/BNav_EC2/DepthDuration/v2_depth_duration_MTurk/v2_DepthDuration_HTML.html#263,263,1364,657,1364,768,8-30-2022,9-53-22,159,depth_duration_stimuli/000866_2014-06-09_20-45-42_260595134347_rgbf000139-resize_1/000866_2014-06-09_20-45-42_260595134347_rgbf000139-resize_1-target.png,1000,3.2155,20,5881,1001,feet,jsons/v1_VE1000_randls_26_rotated.json,1087455,1209254,36,Man
159,747439,DepthScenes,duration_manipulation_targetAtFixation,jsons/v1_VE1000_randls_26_rotated.json,http://54.235.29.9/FacialAge/BNav_EC2/DepthDuration/v2_depth_duration_MTurk/v2_DepthDuration_HTML.html#263,263,1364,657,1364,768,8-30-2022,9-53-22,160,depth_duration_stimuli/002989_2014-06-15_12-25-03_094959634447_rgbf000150-resize_3/002989_2014-06-15_12-25-03_094959634447_rgbf000150-resize_3-target.png,1000,4.1975,10,3797,1000,feet,jsons/v1_VE1000_randls_26_rotated.json,1087455,1209254,36,Man
160,747439,DepthScenes,duration_manipulation_targetAtFixation,jsons/v1_VE1000_randls_26_rotated.json,http://54.235.29.9/FacialAge/BNav_EC2/DepthDuration/v2_depth_duration_MTurk/v2_DepthDuration_HTML.html#263,263,1364,657,1364,768,8-30-2022,9-53-22,161,depth_duration_stimuli/000691_2014-06-08_13-08-50_260595134347_rgbf000132-resize_3/000691_2014-06-08_13-08-50_260595134347_rgbf000132-resize_3-target.png,1000,4.1530000000000005,50,6020,1001,feet,jsons/v1_VE1000_randls_26_rotated.json,1087455,1209254,36,Man
161,747439,DepthScenes,duration_manipulation_targetAtFixation,jsons/v1_VE1000_randls_26_rotated.json,http://54.235.29.9/FacialAge/BNav_EC2/DepthDuration/v2_depth_duration_MTurk/v2_DepthDuration_HTML.html#263,263,1364,657,1364,768,8-30-2022,9-53-22,162,depth_duration_stimuli/002213_2014-06-28_18-37-58_260595134347_rgbf000055-resize_1/002213_2014-06-28_18-37-58_260595134347_rgbf000055-resize_1-target.png,1000,3.62,20,3959,1000,feet,jsons/v1_VE1000_randls_26_rotated.json,1087455,1209254,36,Man
162,747439,DepthScenes,duration_manipulation_targetAtFixation,jsons/v1_VE1000_randls_26_rotated.json,http://54.235.29.9/FacialAge/BNav_EC2/DepthDuration/v2_depth_duration_MTurk/v2_DepthDuration_HTML.html#263,263,1364,657,1364,768,8-30-2022,9-53-22,163,depth_duration_stimuli/001214_2014-06-17_16-13-55_260595134347_rgbf000111-resize_0/001214_2014-06-17_16-13-55_260595134347_rgbf000111-resize_0-target.png,1000,2.6505,50,6578,998,feet,jsons/v1_VE1000_randls_26_rotated.json,1087455,1209254,36,Man
163,747439,DepthScenes,duration_manipulation_targetAtFixation,jsons/v1_VE1000_randls_26_rotated.json,http://54.235.29.9/FacialAge/BNav_EC2/DepthDuration/v2_depth_duration_MTurk/v2_DepthDuration_HTML.html#263,263,1364,657,1364,768,8-30-2022,9-53-22,164,depth_duration_stimuli/000810_2014-06-08_17-20-01_260595134347_rgbf000105-resize_0/000810_2014-06-08_17-20-01_260595134347_rgbf000105-resize_0-target.png,1000,1.4865,45,8358,999,feet,jsons/v1_VE1000_randls_26_rotated.json,1087455,1209254,36,Man
