,subjID,experimentName,versionName,sequenceName,url,selected_row,windowWidth,windowHeight,screenWidth,screenHeight,startDate,startTime,trial,stimulus,duration,actual_depth,depth_estimate,trial_RT,log_sceneDuration,unitSelection,seq_filepath,experimentTime,totalTime,age,gender
0,749000,DepthScenes,duration_manipulation_targetAtFixation,jsons/v1_VE1000_randls_75.json,http://54.235.29.9/FacialAge/BNav_EC2/DepthDuration/v2_depth_duration_MTurk/v2_DepthDuration_HTML.html#145,145,1366,625,1366,768,8-22-2022,7-59-26,1,depth_duration_stimuli/000506_2014-06-08_23-21-00_260595134347_rgbf000070-resize_7/000506_2014-06-08_23-21-00_260595134347_rgbf000070-resize_7-target.png,1000,4.0585,4,5316,831,meters,jsons/v1_VE1000_randls_75.json,896052,1143153,46,Woman
1,749000,DepthScenes,duration_manipulation_targetAtFixation,jsons/v1_VE1000_randls_75.json,http://54.235.29.9/FacialAge/BNav_EC2/DepthDuration/v2_depth_duration_MTurk/v2_DepthDuration_HTML.html#145,145,1366,625,1366,768,8-22-2022,7-59-26,2,depth_duration_stimuli/003079_2014-06-15_15-18-20_094959634447_rgbf000152-resize_8/003079_2014-06-15_15-18-20_094959634447_rgbf000152-resize_8-target.png,1000,2.8775,4,5262,1184,meters,jsons/v1_VE1000_randls_75.json,896052,1143153,46,Woman
2,749000,DepthScenes,duration_manipulation_targetAtFixation,jsons/v1_VE1000_randls_75.json,http://54.235.29.9/FacialAge/BNav_EC2/DepthDuration/v2_depth_duration_MTurk/v2_DepthDuration_HTML.html#145,145,1366,625,1366,768,8-22-2022,7-59-26,3,depth_duration_stimuli/001570_2014-06-20_17-21-09_260595134347_rgbf000135-resize_4/001570_2014-06-20_17-21-09_260595134347_rgbf000135-resize_4-target.png,1000,4.467,4,29891,992,meters,jsons/v1_VE1000_randls_75.json,896052,1143153,46,Woman
3,749000,DepthScenes,duration_manipulation_targetAtFixation,jsons/v1_VE1000_randls_75.json,http://54.235.29.9/FacialAge/BNav_EC2/DepthDuration/v2_depth_duration_MTurk/v2_DepthDuration_HTML.html#145,145,1366,625,1366,768,8-22-2022,7-59-26,4,depth_duration_stimuli/001392_2014-06-19_16-07-59_260595134347_rgbf000046-resize_1/001392_2014-06-19_16-07-59_260595134347_rgbf000046-resize_1-target.png,1000,4.135,2,4367,896,meters,jsons/v1_VE1000_randls_75.json,896052,1143153,46,Woman
4,749000,DepthScenes,duration_manipulation_targetAtFixation,jsons/v1_VE1000_randls_75.json,http://54.235.29.9/FacialAge/BNav_EC2/DepthDuration/v2_depth_duration_MTurk/v2_DepthDuration_HTML.html#145,145,1366,625,1366,768,8-22-2022,7-59-26,5,depth_duration_stimuli/002784_2014-06-22_19-26-30_094959634447_rgbf000083-resize_3/002784_2014-06-22_19-26-30_094959634447_rgbf000083-resize_3-target.png,1000,1.8046666666667,2,5354,890,meters,jsons/v1_VE1000_randls_75.json,896052,1143153,46,Woman
5,749000,DepthScenes,duration_manipulation_targetAtFixation,jsons/v1_VE1000_randls_75.json,http://54.235.29.9/FacialAge/BNav_EC2/DepthDuration/v2_depth_duration_MTurk/v2_DepthDuration_HTML.html#145,145,1366,625,1366,768,8-22-2022,7-59-26,6,depth_duration_stimuli/001100_2014-06-15_17-46-26_260595134347_rgbf000225-resize_2/001100_2014-06-15_17-46-26_260595134347_rgbf000225-resize_2-target.png,1000,2.24,3,3825,1003,meters,jsons/v1_VE1000_randls_75.json,896052,1143153,46,Woman
6,749000,DepthScenes,duration_manipulation_targetAtFixation,jsons/v1_VE1000_randls_75.json,http://54.235.29.9/FacialAge/BNav_EC2/DepthDuration/v2_depth_duration_MTurk/v2_DepthDuration_HTML.html#145,145,1366,625,1366,768,8-22-2022,7-59-26,7,depth_duration_stimuli/000368_2014-06-09_15-53-01_260595134347_rgbf000155-resize_2/000368_2014-06-09_15-53-01_260595134347_rgbf000155-resize_2-target.png,1000,2.4859999999999998,2,3524,994,meters,jsons/v1_VE1000_randls_75.json,896052,1143153,46,Woman
7,749000,DepthScenes,duration_manipulation_targetAtFixation,jsons/v1_VE1000_randls_75.json,http://54.235.29.9/FacialAge/BNav_EC2/DepthDuration/v2_depth_duration_MTurk/v2_DepthDuration_HTML.html#145,145,1366,625,1366,768,8-22-2022,7-59-26,8,depth_duration_stimuli/002678_2014-06-13_16-15-32_094959634447_rgbf000151-resize_6/002678_2014-06-13_16-15-32_094959634447_rgbf000151-resize_6-target.png,1000,2.1830000000000003,3,4410,992,meters,jsons/v1_VE1000_randls_75.json,896052,1143153,46,Woman
8,749000,DepthScenes,duration_manipulation_targetAtFixation,jsons/v1_VE1000_randls_75.json,http://54.235.29.9/FacialAge/BNav_EC2/DepthDuration/v2_depth_duration_MTurk/v2_DepthDuration_HTML.html#145,145,1366,625,1366,768,8-22-2022,7-59-26,9,depth_duration_stimuli/000486_2014-06-09_20-47-20_260595134347_rgbf000143-resize_2/000486_2014-06-09_20-47-20_260595134347_rgbf000143-resize_2-target.png,1000,4.8325,2,4419,992,meters,jsons/v1_VE1000_randls_75.json,896052,1143153,46,Woman
9,749000,DepthScenes,duration_manipulation_targetAtFixation,jsons/v1_VE1000_randls_75.json,http://54.235.29.9/FacialAge/BNav_EC2/DepthDuration/v2_depth_duration_MTurk/v2_DepthDuration_HTML.html#145,145,1366,625,1366,768,8-22-2022,7-59-26,10,depth_duration_stimuli/003083_2014-06-15_15-21-03_094959634447_rgbf000063-resize_1/003083_2014-06-15_15-21-03_094959634447_rgbf000063-resize_1-target.png,1000,4.1405,3,4053,1005,meters,jsons/v1_VE1000_randls_75.json,896052,1143153,46,Woman
10,749000,DepthScenes,duration_manipulation_targetAtFixation,jsons/v1_VE1000_randls_75.json,http://54.235.29.9/FacialAge/BNav_EC2/DepthDuration/v2_depth_duration_MTurk/v2_DepthDuration_HTML.html#145,145,1366,625,1366,768,8-22-2022,7-59-26,11,depth_duration_stimuli/002663_2014-06-13_15-50-26_094959634447_rgbf000075-resize_1/002663_2014-06-13_15-50-26_094959634447_rgbf000075-resize_1-target.png,1000,4.7495,2,3805,1001,meters,jsons/v1_VE1000_randls_75.json,896052,1143153,46,Woman
11,749000,DepthScenes,duration_manipulation_targetAtFixation,jsons/v1_VE1000_randls_75.json,http://54.235.29.9/FacialAge/BNav_EC2/DepthDuration/v2_depth_duration_MTurk/v2_DepthDuration_HTML.html#145,145,1366,625,1366,768,8-22-2022,7-59-26,12,depth_duration_stimuli/000409_2014-06-04_19-23-33_260595134347_rgbf000067-resize_0/000409_2014-06-04_19-23-33_260595134347_rgbf000067-resize_0-target.png,1000,3.7335,3,4344,993,meters,jsons/v1_VE1000_randls_75.json,896052,1143153,46,Woman
12,749000,DepthScenes,duration_manipulation_targetAtFixation,jsons/v1_VE1000_randls_75.json,http://54.235.29.9/FacialAge/BNav_EC2/DepthDuration/v2_depth_duration_MTurk/v2_DepthDuration_HTML.html#145,145,1366,625,1366,768,8-22-2022,7-59-26,13,depth_duration_stimuli/000569_2014-06-09_22-51-47_260595134347_rgbf000141-resize_3/000569_2014-06-09_22-51-47_260595134347_rgbf000141-resize-original.jpg,1000,4.512,2,4334,980,meters,jsons/v1_VE1000_randls_75.json,896052,1143153,46,Woman
13,749000,DepthScenes,duration_manipulation_targetAtFixation,jsons/v1_VE1000_randls_75.json,http://54.235.29.9/FacialAge/BNav_EC2/DepthDuration/v2_depth_duration_MTurk/v2_DepthDuration_HTML.html#145,145,1366,625,1366,768,8-22-2022,7-59-26,14,depth_duration_stimuli/002964_2014-06-08_17-46-11_094959634447_rgbf000091-resize_4/002964_2014-06-08_17-46-11_094959634447_rgbf000091-resize_4-target.png,1000,1.6909999999999998,3,3840,878,meters,jsons/v1_VE1000_randls_75.json,896052,1143153,46,Woman
14,749000,DepthScenes,duration_manipulation_targetAtFixation,jsons/v1_VE1000_randls_75.json,http://54.235.29.9/FacialAge/BNav_EC2/DepthDuration/v2_depth_duration_MTurk/v2_DepthDuration_HTML.html#145,145,1366,625,1366,768,8-22-2022,7-59-26,15,depth_duration_stimuli/002136_2014-06-25_21-18-03_260595134347_rgbf000109-resize_3/002136_2014-06-25_21-18-03_260595134347_rgbf000109-resize_3-target.png,1000,1.9569999999999999,2,3976,951,meters,jsons/v1_VE1000_randls_75.json,896052,1143153,46,Woman
15,749000,DepthScenes,duration_manipulation_targetAtFixation,jsons/v1_VE1000_randls_75.json,http://54.235.29.9/FacialAge/BNav_EC2/DepthDuration/v2_depth_duration_MTurk/v2_DepthDuration_HTML.html#145,145,1366,625,1366,768,8-22-2022,7-59-26,16,depth_duration_stimuli/003492_2014-05-21_15-50-55_094959634447_rgbf000828-resize_1/003492_2014-05-21_15-50-55_094959634447_rgbf000828-resize_1-target.png,1000,4.06875,2,4354,1014,meters,jsons/v1_VE1000_randls_75.json,896052,1143153,46,Woman
16,749000,DepthScenes,duration_manipulation_targetAtFixation,jsons/v1_VE1000_randls_75.json,http://54.235.29.9/FacialAge/BNav_EC2/DepthDuration/v2_depth_duration_MTurk/v2_DepthDuration_HTML.html#145,145,1366,625,1366,768,8-22-2022,7-59-26,17,depth_duration_stimuli/002568_2014-06-24_13-59-21_094959634447_rgbf000062-resize_4/002568_2014-06-24_13-59-21_094959634447_rgbf000062-resize_4-target.png,1000,3.015,2,4006,995,meters,jsons/v1_VE1000_randls_75.json,896052,1143153,46,Woman
17,749000,DepthScenes,duration_manipulation_targetAtFixation,jsons/v1_VE1000_randls_75.json,http://54.235.29.9/FacialAge/BNav_EC2/DepthDuration/v2_depth_duration_MTurk/v2_DepthDuration_HTML.html#145,145,1366,625,1366,768,8-22-2022,7-59-26,18,depth_duration_stimuli/001029_2014-06-08_13-17-57_260595134347_rgbf000065-resize_1/001029_2014-06-08_13-17-57_260595134347_rgbf000065-resize_1-target.png,1000,3.0835,3,3410,987,meters,jsons/v1_VE1000_randls_75.json,896052,1143153,46,Woman
18,749000,DepthScenes,duration_manipulation_targetAtFixation,jsons/v1_VE1000_randls_75.json,http://54.235.29.9/FacialAge/BNav_EC2/DepthDuration/v2_depth_duration_MTurk/v2_DepthDuration_HTML.html#145,145,1366,625,1366,768,8-22-2022,7-59-26,19,depth_duration_stimuli/000677_2014-06-08_23-10-32_260595134347_rgbf000158-resize_6/000677_2014-06-08_23-10-32_260595134347_rgbf000158-resize_6-target.png,1000,3.556,2,4459,1308,meters,jsons/v1_VE1000_randls_75.json,896052,1143153,46,Woman
19,749000,DepthScenes,duration_manipulation_targetAtFixation,jsons/v1_VE1000_randls_75.json,http://54.235.29.9/FacialAge/BNav_EC2/DepthDuration/v2_depth_duration_MTurk/v2_DepthDuration_HTML.html#145,145,1366,625,1366,768,8-22-2022,7-59-26,20,depth_duration_stimuli/002988_2014-06-15_12-24-20_094959634447_rgbf000150-resize_1/002988_2014-06-15_12-24-20_094959634447_rgbf000150-resize_1-target.png,1000,4.7669999999999995,2,3855,981,meters,jsons/v1_VE1000_randls_75.json,896052,1143153,46,Woman
20,749000,DepthScenes,duration_manipulation_targetAtFixation,jsons/v1_VE1000_randls_75.json,http://54.235.29.9/FacialAge/BNav_EC2/DepthDuration/v2_depth_duration_MTurk/v2_DepthDuration_HTML.html#145,145,1366,625,1366,768,8-22-2022,7-59-26,21,depth_duration_stimuli/001052_2014-06-08_18-24-54_260595134347_rgbf000130-resize_1/001052_2014-06-08_18-24-54_260595134347_rgbf000130-resize_1-target.png,1000,4.1045,3,3986,1004,meters,jsons/v1_VE1000_randls_75.json,896052,1143153,46,Woman
21,749000,DepthScenes,duration_manipulation_targetAtFixation,jsons/v1_VE1000_randls_75.json,http://54.235.29.9/FacialAge/BNav_EC2/DepthDuration/v2_depth_duration_MTurk/v2_DepthDuration_HTML.html#145,145,1366,625,1366,768,8-22-2022,7-59-26,22,depth_duration_stimuli/001110_2014-06-15_17-25-28_260595134347_rgbf000150-resize_1/001110_2014-06-15_17-25-28_260595134347_rgbf000150-resize_1-target.png,1000,1.7115,2,5576,999,meters,jsons/v1_VE1000_randls_75.json,896052,1143153,46,Woman
22,749000,DepthScenes,duration_manipulation_targetAtFixation,jsons/v1_VE1000_randls_75.json,http://54.235.29.9/FacialAge/BNav_EC2/DepthDuration/v2_depth_duration_MTurk/v2_DepthDuration_HTML.html#145,145,1366,625,1366,768,8-22-2022,7-59-26,23,depth_duration_stimuli/000927_2014-06-09_16-32-30_260595134347_rgbf000123-resize_3/000927_2014-06-09_16-32-30_260595134347_rgbf000123-resize_3-target.png,1000,2.6785,2,3790,913,meters,jsons/v1_VE1000_randls_75.json,896052,1143153,46,Woman
23,749000,DepthScenes,duration_manipulation_targetAtFixation,jsons/v1_VE1000_randls_75.json,http://54.235.29.9/FacialAge/BNav_EC2/DepthDuration/v2_depth_duration_MTurk/v2_DepthDuration_HTML.html#145,145,1366,625,1366,768,8-22-2022,7-59-26,24,depth_duration_stimuli/002272_2014-06-28_18-53-56_260595134347_rgbf000067-resize_2/002272_2014-06-28_18-53-56_260595134347_rgbf000067-resize_2-target.png,1000,1.138,3,3630,904,meters,jsons/v1_VE1000_randls_75.json,896052,1143153,46,Woman
24,749000,DepthScenes,duration_manipulation_targetAtFixation,jsons/v1_VE1000_randls_75.json,http://54.235.29.9/FacialAge/BNav_EC2/DepthDuration/v2_depth_duration_MTurk/v2_DepthDuration_HTML.html#145,145,1366,625,1366,768,8-22-2022,7-59-26,25,depth_duration_stimuli/001571_2014-06-20_17-21-32_260595134347_rgbf000089-resize_1/001571_2014-06-20_17-21-32_260595134347_rgbf000089-resize_1-target.png,1000,1.86,2,3877,1005,meters,jsons/v1_VE1000_randls_75.json,896052,1143153,46,Woman
25,749000,DepthScenes,duration_manipulation_targetAtFixation,jsons/v1_VE1000_randls_75.json,http://54.235.29.9/FacialAge/BNav_EC2/DepthDuration/v2_depth_duration_MTurk/v2_DepthDuration_HTML.html#145,145,1366,625,1366,768,8-22-2022,7-59-26,26,depth_duration_stimuli/002630_2014-06-24_14-47-50_094959634447_rgbf000055-resize_1/002630_2014-06-24_14-47-50_094959634447_rgbf000055-resize_1-target.png,1000,3.0095,3,3721,989,meters,jsons/v1_VE1000_randls_75.json,896052,1143153,46,Woman
26,749000,DepthScenes,duration_manipulation_targetAtFixation,jsons/v1_VE1000_randls_75.json,http://54.235.29.9/FacialAge/BNav_EC2/DepthDuration/v2_depth_duration_MTurk/v2_DepthDuration_HTML.html#145,145,1366,625,1366,768,8-22-2022,7-59-26,27,depth_duration_stimuli/002758_2014-06-22_19-11-20_094959634447_rgbf000128-resize_1/002758_2014-06-22_19-11-20_094959634447_rgbf000128-resize_1-target.png,1000,2.555,3,3588,1004,meters,jsons/v1_VE1000_randls_75.json,896052,1143153,46,Woman
27,749000,DepthScenes,duration_manipulation_targetAtFixation,jsons/v1_VE1000_randls_75.json,http://54.235.29.9/FacialAge/BNav_EC2/DepthDuration/v2_depth_duration_MTurk/v2_DepthDuration_HTML.html#145,145,1366,625,1366,768,8-22-2022,7-59-26,28,depth_duration_stimuli/000469_2014-06-09_19-42-10_260595134347_rgbf000081-resize_1/000469_2014-06-09_19-42-10_260595134347_rgbf000081-resize_1-target.png,1000,1.652,2,3250,1005,meters,jsons/v1_VE1000_randls_75.json,896052,1143153,46,Woman
28,749000,DepthScenes,duration_manipulation_targetAtFixation,jsons/v1_VE1000_randls_75.json,http://54.235.29.9/FacialAge/BNav_EC2/DepthDuration/v2_depth_duration_MTurk/v2_DepthDuration_HTML.html#145,145,1366,625,1366,768,8-22-2022,7-59-26,29,depth_duration_stimuli/000483_2014-06-09_20-41-45_260595134347_rgbf000116-resize_4/000483_2014-06-09_20-41-45_260595134347_rgbf000116-resize_4-target.png,1000,1.337,2,3884,991,meters,jsons/v1_VE1000_randls_75.json,896052,1143153,46,Woman
29,749000,DepthScenes,duration_manipulation_targetAtFixation,jsons/v1_VE1000_randls_75.json,http://54.235.29.9/FacialAge/BNav_EC2/DepthDuration/v2_depth_duration_MTurk/v2_DepthDuration_HTML.html#145,145,1366,625,1366,768,8-22-2022,7-59-26,30,depth_duration_stimuli/000375_2014-06-08_11-17-29_260595134347_rgbf000133-resize_2/000375_2014-06-08_11-17-29_260595134347_rgbf000133-resize-original.jpg,1000,4.718,3,3924,999,meters,jsons/v1_VE1000_randls_75.json,896052,1143153,46,Woman
30,749000,DepthScenes,duration_manipulation_targetAtFixation,jsons/v1_VE1000_randls_75.json,http://54.235.29.9/FacialAge/BNav_EC2/DepthDuration/v2_depth_duration_MTurk/v2_DepthDuration_HTML.html#145,145,1366,625,1366,768,8-22-2022,7-59-26,31,depth_duration_stimuli/002989_2014-06-15_12-25-03_094959634447_rgbf000150-resize_3/002989_2014-06-15_12-25-03_094959634447_rgbf000150-resize_3-target.png,1000,4.1975,1,3816,1021,meters,jsons/v1_VE1000_randls_75.json,896052,1143153,46,Woman
31,749000,DepthScenes,duration_manipulation_targetAtFixation,jsons/v1_VE1000_randls_75.json,http://54.235.29.9/FacialAge/BNav_EC2/DepthDuration/v2_depth_duration_MTurk/v2_DepthDuration_HTML.html#145,145,1366,625,1366,768,8-22-2022,7-59-26,32,depth_duration_stimuli/000866_2014-06-09_20-45-42_260595134347_rgbf000139-resize_1/000866_2014-06-09_20-45-42_260595134347_rgbf000139-resize_1-target.png,1000,3.2155,1,3136,998,meters,jsons/v1_VE1000_randls_75.json,896052,1143153,46,Woman
32,749000,DepthScenes,duration_manipulation_targetAtFixation,jsons/v1_VE1000_randls_75.json,http://54.235.29.9/FacialAge/BNav_EC2/DepthDuration/v2_depth_duration_MTurk/v2_DepthDuration_HTML.html#145,145,1366,625,1366,768,8-22-2022,7-59-26,33,depth_duration_stimuli/000736_2014-06-08_18-24-15_260595134347_rgbf000206-resize_3/000736_2014-06-08_18-24-15_260595134347_rgbf000206-resize_3-target.png,1000,3.515,2,3482,994,meters,jsons/v1_VE1000_randls_75.json,896052,1143153,46,Woman
33,749000,DepthScenes,duration_manipulation_targetAtFixation,jsons/v1_VE1000_randls_75.json,http://54.235.29.9/FacialAge/BNav_EC2/DepthDuration/v2_depth_duration_MTurk/v2_DepthDuration_HTML.html#145,145,1366,625,1366,768,8-22-2022,7-59-26,34,depth_duration_stimuli/000137_2014-05-20_17-04-49_260595134347_rgbf000120-resize_1/000137_2014-05-20_17-04-49_260595134347_rgbf000120-resize_1-target.png,1000,3.786,2,3925,1145,meters,jsons/v1_VE1000_randls_75.json,896052,1143153,46,Woman
34,749000,DepthScenes,duration_manipulation_targetAtFixation,jsons/v1_VE1000_randls_75.json,http://54.235.29.9/FacialAge/BNav_EC2/DepthDuration/v2_depth_duration_MTurk/v2_DepthDuration_HTML.html#145,145,1366,625,1366,768,8-22-2022,7-59-26,35,depth_duration_stimuli/002905_2014-06-03_18-04-43_094959634447_rgbf000151-resize_2/002905_2014-06-03_18-04-43_094959634447_rgbf000151-resize_2-target.png,1000,2.0295,1,3002,879,meters,jsons/v1_VE1000_randls_75.json,896052,1143153,46,Woman
35,749000,DepthScenes,duration_manipulation_targetAtFixation,jsons/v1_VE1000_randls_75.json,http://54.235.29.9/FacialAge/BNav_EC2/DepthDuration/v2_depth_duration_MTurk/v2_DepthDuration_HTML.html#145,145,1366,625,1366,768,8-22-2022,7-59-26,36,depth_duration_stimuli/003423_2014-05-21_10-23-26_094959634447_rgbf002665-resize_2/003423_2014-05-21_10-23-26_094959634447_rgbf002665-resize_2-target.png,1000,3.2575,2,3518,1638,meters,jsons/v1_VE1000_randls_75.json,896052,1143153,46,Woman
36,749000,DepthScenes,duration_manipulation_targetAtFixation,jsons/v1_VE1000_randls_75.json,http://54.235.29.9/FacialAge/BNav_EC2/DepthDuration/v2_depth_duration_MTurk/v2_DepthDuration_HTML.html#145,145,1366,625,1366,768,8-22-2022,7-59-26,37,depth_duration_stimuli/001164_2014-06-17_15-35-46_260595134347_rgbf000085-resize_3/001164_2014-06-17_15-35-46_260595134347_rgbf000085-resize_3-target.png,1000,2.354,1,3030,1001,meters,jsons/v1_VE1000_randls_75.json,896052,1143153,46,Woman
37,749000,DepthScenes,duration_manipulation_targetAtFixation,jsons/v1_VE1000_randls_75.json,http://54.235.29.9/FacialAge/BNav_EC2/DepthDuration/v2_depth_duration_MTurk/v2_DepthDuration_HTML.html#145,145,1366,625,1366,768,8-22-2022,7-59-26,38,depth_duration_stimuli/001136_2014-06-17_15-19-41_260595134347_rgbf000076-resize_3/001136_2014-06-17_15-19-41_260595134347_rgbf000076-resize_3-target.png,1000,1.8655,1,3323,993,meters,jsons/v1_VE1000_randls_75.json,896052,1143153,46,Woman
38,749000,DepthScenes,duration_manipulation_targetAtFixation,jsons/v1_VE1000_randls_75.json,http://54.235.29.9/FacialAge/BNav_EC2/DepthDuration/v2_depth_duration_MTurk/v2_DepthDuration_HTML.html#145,145,1366,625,1366,768,8-22-2022,7-59-26,39,depth_duration_stimuli/000470_2014-06-09_19-42-40_260595134347_rgbf000094-resize_1/000470_2014-06-09_19-42-40_260595134347_rgbf000094-resize_1-target.png,1000,1.831,2,3194,968,meters,jsons/v1_VE1000_randls_75.json,896052,1143153,46,Woman
39,749000,DepthScenes,duration_manipulation_targetAtFixation,jsons/v1_VE1000_randls_75.json,http://54.235.29.9/FacialAge/BNav_EC2/DepthDuration/v2_depth_duration_MTurk/v2_DepthDuration_HTML.html#145,145,1366,625,1366,768,8-22-2022,7-59-26,40,depth_duration_stimuli/000109_2014-05-14_23-41-52_260595134347_rgbf000035-resize_9/000109_2014-05-14_23-41-52_260595134347_rgbf000035-resize_9-target.png,1000,1.3545,1,3113,1006,meters,jsons/v1_VE1000_randls_75.json,896052,1143153,46,Woman
40,749000,DepthScenes,duration_manipulation_targetAtFixation,jsons/v1_VE1000_randls_75.json,http://54.235.29.9/FacialAge/BNav_EC2/DepthDuration/v2_depth_duration_MTurk/v2_DepthDuration_HTML.html#145,145,1366,625,1366,768,8-22-2022,7-59-26,41,depth_duration_stimuli/002279_2014-06-28_18-55-32_260595134347_rgbf000040-resize_5/002279_2014-06-28_18-55-32_260595134347_rgbf000040-resize_5-target.png,1000,1.5043333333333,2,3688,987,meters,jsons/v1_VE1000_randls_75.json,896052,1143153,46,Woman
41,749000,DepthScenes,duration_manipulation_targetAtFixation,jsons/v1_VE1000_randls_75.json,http://54.235.29.9/FacialAge/BNav_EC2/DepthDuration/v2_depth_duration_MTurk/v2_DepthDuration_HTML.html#145,145,1366,625,1366,768,8-22-2022,7-59-26,42,depth_duration_stimuli/000635_2014-06-08_16-38-42_260595134347_rgbf000106-resize_1/000635_2014-06-08_16-38-42_260595134347_rgbf000106-resize_1-target.png,1000,2.074,2,3230,964,meters,jsons/v1_VE1000_randls_75.json,896052,1143153,46,Woman
42,749000,DepthScenes,duration_manipulation_targetAtFixation,jsons/v1_VE1000_randls_75.json,http://54.235.29.9/FacialAge/BNav_EC2/DepthDuration/v2_depth_duration_MTurk/v2_DepthDuration_HTML.html#145,145,1366,625,1366,768,8-22-2022,7-59-26,43,depth_duration_stimuli/000810_2014-06-08_17-20-01_260595134347_rgbf000105-resize_0/000810_2014-06-08_17-20-01_260595134347_rgbf000105-resize_0-target.png,1000,1.4865,1,3700,990,meters,jsons/v1_VE1000_randls_75.json,896052,1143153,46,Woman
43,749000,DepthScenes,duration_manipulation_targetAtFixation,jsons/v1_VE1000_randls_75.json,http://54.235.29.9/FacialAge/BNav_EC2/DepthDuration/v2_depth_duration_MTurk/v2_DepthDuration_HTML.html#145,145,1366,625,1366,768,8-22-2022,7-59-26,44,depth_duration_stimuli/001214_2014-06-17_16-13-55_260595134347_rgbf000111-resize_0/001214_2014-06-17_16-13-55_260595134347_rgbf000111-resize_0-target.png,1000,2.6505,1,4632,1000,meters,jsons/v1_VE1000_randls_75.json,896052,1143153,46,Woman
44,749000,DepthScenes,duration_manipulation_targetAtFixation,jsons/v1_VE1000_randls_75.json,http://54.235.29.9/FacialAge/BNav_EC2/DepthDuration/v2_depth_duration_MTurk/v2_DepthDuration_HTML.html#145,145,1366,625,1366,768,8-22-2022,7-59-26,45,depth_duration_stimuli/000787_2014-06-08_22-33-53_260595134347_rgbf000175-resize_1/000787_2014-06-08_22-33-53_260595134347_rgbf000175-resize-original.jpg,1000,4.784,2,5203,956,meters,jsons/v1_VE1000_randls_75.json,896052,1143153,46,Woman
45,749000,DepthScenes,duration_manipulation_targetAtFixation,jsons/v1_VE1000_randls_75.json,http://54.235.29.9/FacialAge/BNav_EC2/DepthDuration/v2_depth_duration_MTurk/v2_DepthDuration_HTML.html#145,145,1366,625,1366,768,8-22-2022,7-59-26,46,depth_duration_stimuli/001158_2014-06-17_15-32-16_260595134347_rgbf000138-resize_2/001158_2014-06-17_15-32-16_260595134347_rgbf000138-resize_2-target.png,1000,4.5315,1,3585,1007,meters,jsons/v1_VE1000_randls_75.json,896052,1143153,46,Woman
46,749000,DepthScenes,duration_manipulation_targetAtFixation,jsons/v1_VE1000_randls_75.json,http://54.235.29.9/FacialAge/BNav_EC2/DepthDuration/v2_depth_duration_MTurk/v2_DepthDuration_HTML.html#145,145,1366,625,1366,768,8-22-2022,7-59-26,47,depth_duration_stimuli/000556_2014-06-09_22-42-56_260595134347_rgbf000214-resize_1/000556_2014-06-09_22-42-56_260595134347_rgbf000214-resize_1-target.png,1000,4.8415,1,5216,998,meters,jsons/v1_VE1000_randls_75.json,896052,1143153,46,Woman
47,749000,DepthScenes,duration_manipulation_targetAtFixation,jsons/v1_VE1000_randls_75.json,http://54.235.29.9/FacialAge/BNav_EC2/DepthDuration/v2_depth_duration_MTurk/v2_DepthDuration_HTML.html#145,145,1366,625,1366,768,8-22-2022,7-59-26,48,depth_duration_stimuli/001417_2014-06-19_16-25-36_260595134347_rgbf000115-resize_5/001417_2014-06-19_16-25-36_260595134347_rgbf000115-resize_5-target.png,1000,4.6255,2,3149,965,meters,jsons/v1_VE1000_randls_75.json,896052,1143153,46,Woman
48,749000,DepthScenes,duration_manipulation_targetAtFixation,jsons/v1_VE1000_randls_75.json,http://54.235.29.9/FacialAge/BNav_EC2/DepthDuration/v2_depth_duration_MTurk/v2_DepthDuration_HTML.html#145,145,1366,625,1366,768,8-22-2022,7-59-26,49,depth_duration_stimuli/003081_2014-06-15_15-19-16_094959634447_rgbf000150-resize_1/003081_2014-06-15_15-19-16_094959634447_rgbf000150-resize_1-target.png,1000,3.9125,1,3171,997,meters,jsons/v1_VE1000_randls_75.json,896052,1143153,46,Woman
49,749000,DepthScenes,duration_manipulation_targetAtFixation,jsons/v1_VE1000_randls_75.json,http://54.235.29.9/FacialAge/BNav_EC2/DepthDuration/v2_depth_duration_MTurk/v2_DepthDuration_HTML.html#145,145,1366,625,1366,768,8-22-2022,7-59-26,50,depth_duration_stimuli/002748_2014-06-22_19-07-22_094959634447_rgbf000078-resize_1/002748_2014-06-22_19-07-22_094959634447_rgbf000078-resize_1-target.png,1000,4.6705,2,3189,1011,meters,jsons/v1_VE1000_randls_75.json,896052,1143153,46,Woman
50,749000,DepthScenes,duration_manipulation_targetAtFixation,jsons/v1_VE1000_randls_75.json,http://54.235.29.9/FacialAge/BNav_EC2/DepthDuration/v2_depth_duration_MTurk/v2_DepthDuration_HTML.html#145,145,1366,625,1366,768,8-22-2022,7-59-26,51,depth_duration_stimuli/002995_2014-06-15_12-31-26_094959634447_rgbf000150-resize_1/002995_2014-06-15_12-31-26_094959634447_rgbf000150-resize_1-target.png,1000,3.8360000000000003,2,3492,995,meters,jsons/v1_VE1000_randls_75.json,896052,1143153,46,Woman
51,749000,DepthScenes,duration_manipulation_targetAtFixation,jsons/v1_VE1000_randls_75.json,http://54.235.29.9/FacialAge/BNav_EC2/DepthDuration/v2_depth_duration_MTurk/v2_DepthDuration_HTML.html#145,145,1366,625,1366,768,8-22-2022,7-59-26,52,depth_duration_stimuli/002375_2014-06-28_20-13-44_260595134347_rgbf000032-resize_1/002375_2014-06-28_20-13-44_260595134347_rgbf000032-resize_1-target.png,1000,4.0175,2,8235,983,meters,jsons/v1_VE1000_randls_75.json,896052,1143153,46,Woman
52,749000,DepthScenes,duration_manipulation_targetAtFixation,jsons/v1_VE1000_randls_75.json,http://54.235.29.9/FacialAge/BNav_EC2/DepthDuration/v2_depth_duration_MTurk/v2_DepthDuration_HTML.html#145,145,1366,625,1366,768,8-22-2022,7-59-26,53,depth_duration_stimuli/002657_2014-06-13_15-29-54_094959634447_rgbf000150-resize_1/002657_2014-06-13_15-29-54_094959634447_rgbf000150-resize_1-target.png,1000,4.919,1,7243,1009,meters,jsons/v1_VE1000_randls_75.json,896052,1143153,46,Woman
53,749000,DepthScenes,duration_manipulation_targetAtFixation,jsons/v1_VE1000_randls_75.json,http://54.235.29.9/FacialAge/BNav_EC2/DepthDuration/v2_depth_duration_MTurk/v2_DepthDuration_HTML.html#145,145,1366,625,1366,768,8-22-2022,7-59-26,54,depth_duration_stimuli/001011_2014-06-08_23-18-54_260595134347_rgbf000044-resize_4/001011_2014-06-08_23-18-54_260595134347_rgbf000044-resize_4-target.png,1000,2.4730000000000003,1,3777,689,meters,jsons/v1_VE1000_randls_75.json,896052,1143153,46,Woman
54,749000,DepthScenes,duration_manipulation_targetAtFixation,jsons/v1_VE1000_randls_75.json,http://54.235.29.9/FacialAge/BNav_EC2/DepthDuration/v2_depth_duration_MTurk/v2_DepthDuration_HTML.html#145,145,1366,625,1366,768,8-22-2022,7-59-26,55,depth_duration_stimuli/002875_2014-06-01_15-19-00_094959634447_rgbf000151-resize_1/002875_2014-06-01_15-19-00_094959634447_rgbf000151-resize_1-target.png,1000,1.9675,2,3204,907,meters,jsons/v1_VE1000_randls_75.json,896052,1143153,46,Woman
55,749000,DepthScenes,duration_manipulation_targetAtFixation,jsons/v1_VE1000_randls_75.json,http://54.235.29.9/FacialAge/BNav_EC2/DepthDuration/v2_depth_duration_MTurk/v2_DepthDuration_HTML.html#145,145,1366,625,1366,768,8-22-2022,7-59-26,56,depth_duration_stimuli/002549_2014-06-24_13-41-39_094959634447_rgbf000022-resize_3/002549_2014-06-24_13-41-39_094959634447_rgbf000022-resize_3-target.png,1000,1.476,2,3465,1018,meters,jsons/v1_VE1000_randls_75.json,896052,1143153,46,Woman
56,749000,DepthScenes,duration_manipulation_targetAtFixation,jsons/v1_VE1000_randls_75.json,http://54.235.29.9/FacialAge/BNav_EC2/DepthDuration/v2_depth_duration_MTurk/v2_DepthDuration_HTML.html#145,145,1366,625,1366,768,8-22-2022,7-59-26,57,depth_duration_stimuli/002750_2014-06-22_19-08-03_094959634447_rgbf000094-resize_4/002750_2014-06-22_19-08-03_094959634447_rgbf000094-resize_4-target.png,1000,2.354,1,3921,870,meters,jsons/v1_VE1000_randls_75.json,896052,1143153,46,Woman
57,749000,DepthScenes,duration_manipulation_targetAtFixation,jsons/v1_VE1000_randls_75.json,http://54.235.29.9/FacialAge/BNav_EC2/DepthDuration/v2_depth_duration_MTurk/v2_DepthDuration_HTML.html#145,145,1366,625,1366,768,8-22-2022,7-59-26,58,depth_duration_stimuli/002725_2014-06-22_11-47-51_094959634447_rgbf000070-resize_1/002725_2014-06-22_11-47-51_094959634447_rgbf000070-resize_1-target.png,1000,2.195,2,3405,1008,meters,jsons/v1_VE1000_randls_75.json,896052,1143153,46,Woman
58,749000,DepthScenes,duration_manipulation_targetAtFixation,jsons/v1_VE1000_randls_75.json,http://54.235.29.9/FacialAge/BNav_EC2/DepthDuration/v2_depth_duration_MTurk/v2_DepthDuration_HTML.html#145,145,1366,625,1366,768,8-22-2022,7-59-26,59,depth_duration_stimuli/002344_2014-06-28_20-06-29_260595134347_rgbf000030-resize_1/002344_2014-06-28_20-06-29_260595134347_rgbf000030-resize_1-target.png,1000,1.5795,1,2898,803,meters,jsons/v1_VE1000_randls_75.json,896052,1143153,46,Woman
59,749000,DepthScenes,duration_manipulation_targetAtFixation,jsons/v1_VE1000_randls_75.json,http://54.235.29.9/FacialAge/BNav_EC2/DepthDuration/v2_depth_duration_MTurk/v2_DepthDuration_HTML.html#145,145,1366,625,1366,768,8-22-2022,7-59-26,60,depth_duration_stimuli/001133_2014-06-17_14-49-16_260595134347_rgbf000100-resize_0/001133_2014-06-17_14-49-16_260595134347_rgbf000100-resize_0-target.png,1000,4.2115,1,3631,1011,meters,jsons/v1_VE1000_randls_75.json,896052,1143153,46,Woman
60,749000,DepthScenes,duration_manipulation_targetAtFixation,jsons/v1_VE1000_randls_75.json,http://54.235.29.9/FacialAge/BNav_EC2/DepthDuration/v2_depth_duration_MTurk/v2_DepthDuration_HTML.html#145,145,1366,625,1366,768,8-22-2022,7-59-26,61,depth_duration_stimuli/001132_2014-06-17_14-48-54_260595134347_rgbf000100-resize_2/001132_2014-06-17_14-48-54_260595134347_rgbf000100-resize_2-target.png,1000,3.753,2,3758,1017,meters,jsons/v1_VE1000_randls_75.json,896052,1143153,46,Woman
61,749000,DepthScenes,duration_manipulation_targetAtFixation,jsons/v1_VE1000_randls_75.json,http://54.235.29.9/FacialAge/BNav_EC2/DepthDuration/v2_depth_duration_MTurk/v2_DepthDuration_HTML.html#145,145,1366,625,1366,768,8-22-2022,7-59-26,62,depth_duration_stimuli/002600_2014-06-24_14-27-04_094959634447_rgbf000074-resize_2/002600_2014-06-24_14-27-04_094959634447_rgbf000074-resize_2-target.png,1000,2.7575,2,4889,1037,meters,jsons/v1_VE1000_randls_75.json,896052,1143153,46,Woman
62,749000,DepthScenes,duration_manipulation_targetAtFixation,jsons/v1_VE1000_randls_75.json,http://54.235.29.9/FacialAge/BNav_EC2/DepthDuration/v2_depth_duration_MTurk/v2_DepthDuration_HTML.html#145,145,1366,625,1366,768,8-22-2022,7-59-26,63,depth_duration_stimuli/003228_2014-05-14_13-42-35_094959634447_rgbf000101-resize_1/003228_2014-05-14_13-42-35_094959634447_rgbf000101-resize_1-target.png,1000,1.9680000000000002,1,11322,1000,meters,jsons/v1_VE1000_randls_75.json,896052,1143153,46,Woman
63,749000,DepthScenes,duration_manipulation_targetAtFixation,jsons/v1_VE1000_randls_75.json,http://54.235.29.9/FacialAge/BNav_EC2/DepthDuration/v2_depth_duration_MTurk/v2_DepthDuration_HTML.html#145,145,1366,625,1366,768,8-22-2022,7-59-26,64,depth_duration_stimuli/001150_2014-06-17_15-27-34_260595134347_rgbf000108-resize_2/001150_2014-06-17_15-27-34_260595134347_rgbf000108-resize_2-target.png,1000,4.0325,1,4243,1048,meters,jsons/v1_VE1000_randls_75.json,896052,1143153,46,Woman
64,749000,DepthScenes,duration_manipulation_targetAtFixation,jsons/v1_VE1000_randls_75.json,http://54.235.29.9/FacialAge/BNav_EC2/DepthDuration/v2_depth_duration_MTurk/v2_DepthDuration_HTML.html#145,145,1366,625,1366,768,8-22-2022,7-59-26,65,depth_duration_stimuli/000665_2014-06-09_20-42-35_260595134347_rgbf000110-resize_1/000665_2014-06-09_20-42-35_260595134347_rgbf000110-resize_1-target.png,1000,3.057,2,3300,592,meters,jsons/v1_VE1000_randls_75.json,896052,1143153,46,Woman
65,749000,DepthScenes,duration_manipulation_targetAtFixation,jsons/v1_VE1000_randls_75.json,http://54.235.29.9/FacialAge/BNav_EC2/DepthDuration/v2_depth_duration_MTurk/v2_DepthDuration_HTML.html#145,145,1366,625,1366,768,8-22-2022,7-59-26,66,depth_duration_stimuli/001222_2014-06-17_16-24-06_260595134347_rgbf000073-resize_0/001222_2014-06-17_16-24-06_260595134347_rgbf000073-resize-original.jpg,1000,1.4385,1,3317,991,meters,jsons/v1_VE1000_randls_75.json,896052,1143153,46,Woman
66,749000,DepthScenes,duration_manipulation_targetAtFixation,jsons/v1_VE1000_randls_75.json,http://54.235.29.9/FacialAge/BNav_EC2/DepthDuration/v2_depth_duration_MTurk/v2_DepthDuration_HTML.html#145,145,1366,625,1366,768,8-22-2022,7-59-26,67,depth_duration_stimuli/001056_2014-06-08_18-46-44_260595134347_rgbf000068-resize_0/001056_2014-06-08_18-46-44_260595134347_rgbf000068-resize_0-target.png,1000,2.6625,2,3336,991,meters,jsons/v1_VE1000_randls_75.json,896052,1143153,46,Woman
67,749000,DepthScenes,duration_manipulation_targetAtFixation,jsons/v1_VE1000_randls_75.json,http://54.235.29.9/FacialAge/BNav_EC2/DepthDuration/v2_depth_duration_MTurk/v2_DepthDuration_HTML.html#145,145,1366,625,1366,768,8-22-2022,7-59-26,68,depth_duration_stimuli/002199_2014-06-28_18-33-56_260595134347_rgbf000074-resize_0/002199_2014-06-28_18-33-56_260595134347_rgbf000074-resize_0-target.png,1000,1.996,3,3171,988,meters,jsons/v1_VE1000_randls_75.json,896052,1143153,46,Woman
68,749000,DepthScenes,duration_manipulation_targetAtFixation,jsons/v1_VE1000_randls_75.json,http://54.235.29.9/FacialAge/BNav_EC2/DepthDuration/v2_depth_duration_MTurk/v2_DepthDuration_HTML.html#145,145,1366,625,1366,768,8-22-2022,7-59-26,69,depth_duration_stimuli/003534_2014-05-22_15-06-10_094959634447_rgbf000102-resize_4/003534_2014-05-22_15-06-10_094959634447_rgbf000102-resize_4-target.png,1000,1.426,2,3203,992,meters,jsons/v1_VE1000_randls_75.json,896052,1143153,46,Woman
69,749000,DepthScenes,duration_manipulation_targetAtFixation,jsons/v1_VE1000_randls_75.json,http://54.235.29.9/FacialAge/BNav_EC2/DepthDuration/v2_depth_duration_MTurk/v2_DepthDuration_HTML.html#145,145,1366,625,1366,768,8-22-2022,7-59-26,70,depth_duration_stimuli/002637_2014-06-24_14-51-13_094959634447_rgbf000066-resize_4/002637_2014-06-24_14-51-13_094959634447_rgbf000066-resize_4-target.png,1000,1.9955,3,3523,1002,meters,jsons/v1_VE1000_randls_75.json,896052,1143153,46,Woman
70,749000,DepthScenes,duration_manipulation_targetAtFixation,jsons/v1_VE1000_randls_75.json,http://54.235.29.9/FacialAge/BNav_EC2/DepthDuration/v2_depth_duration_MTurk/v2_DepthDuration_HTML.html#145,145,1366,625,1366,768,8-22-2022,7-59-26,71,depth_duration_stimuli/003621_2014-05-23_18-06-08_094959634447_rgbf000101-resize_1/003621_2014-05-23_18-06-08_094959634447_rgbf000101-resize_1-target.png,1000,3.9835,1,4232,1008,meters,jsons/v1_VE1000_randls_75.json,896052,1143153,46,Woman
71,749000,DepthScenes,duration_manipulation_targetAtFixation,jsons/v1_VE1000_randls_75.json,http://54.235.29.9/FacialAge/BNav_EC2/DepthDuration/v2_depth_duration_MTurk/v2_DepthDuration_HTML.html#145,145,1366,625,1366,768,8-22-2022,7-59-26,72,depth_duration_stimuli/001584_2014-06-20_11-07-43_260595134347_rgbf000002-resize_1/001584_2014-06-20_11-07-43_260595134347_rgbf000002-resize_1-target.png,1000,3.53,1,9792,1008,meters,jsons/v1_VE1000_randls_75.json,896052,1143153,46,Woman
72,749000,DepthScenes,duration_manipulation_targetAtFixation,jsons/v1_VE1000_randls_75.json,http://54.235.29.9/FacialAge/BNav_EC2/DepthDuration/v2_depth_duration_MTurk/v2_DepthDuration_HTML.html#145,145,1366,625,1366,768,8-22-2022,7-59-26,73,depth_duration_stimuli/001810_2014-06-26_20-51-35_260595134347_rgbf000040-resize_3/001810_2014-06-26_20-51-35_260595134347_rgbf000040-resize_3-target.png,1000,2.2525,1,9105,1045,meters,jsons/v1_VE1000_randls_75.json,896052,1143153,46,Woman
73,749000,DepthScenes,duration_manipulation_targetAtFixation,jsons/v1_VE1000_randls_75.json,http://54.235.29.9/FacialAge/BNav_EC2/DepthDuration/v2_depth_duration_MTurk/v2_DepthDuration_HTML.html#145,145,1366,625,1366,768,8-22-2022,7-59-26,74,depth_duration_stimuli/003010_2014-06-15_12-54-35_094959634447_rgbf000112-resize_0/003010_2014-06-15_12-54-35_094959634447_rgbf000112-resize_0-target.png,1000,3.1185,1,4474,1018,meters,jsons/v1_VE1000_randls_75.json,896052,1143153,46,Woman
74,749000,DepthScenes,duration_manipulation_targetAtFixation,jsons/v1_VE1000_randls_75.json,http://54.235.29.9/FacialAge/BNav_EC2/DepthDuration/v2_depth_duration_MTurk/v2_DepthDuration_HTML.html#145,145,1366,625,1366,768,8-22-2022,7-59-26,75,depth_duration_stimuli/001244_2014-06-17_16-47-45_260595134347_rgbf000030-resize_4/001244_2014-06-17_16-47-45_260595134347_rgbf000030-resize_4-target.png,1000,2.0425,2,5176,990,meters,jsons/v1_VE1000_randls_75.json,896052,1143153,46,Woman
75,749000,DepthScenes,duration_manipulation_targetAtFixation,jsons/v1_VE1000_randls_75.json,http://54.235.29.9/FacialAge/BNav_EC2/DepthDuration/v2_depth_duration_MTurk/v2_DepthDuration_HTML.html#145,145,1366,625,1366,768,8-22-2022,7-59-26,76,depth_duration_stimuli/003495_2014-05-21_16-01-51_094959634447_rgbf000100-resize_3/003495_2014-05-21_16-01-51_094959634447_rgbf000100-resize_3-target.png,1000,1.6255,2,4980,1006,meters,jsons/v1_VE1000_randls_75.json,896052,1143153,46,Woman
76,749000,DepthScenes,duration_manipulation_targetAtFixation,jsons/v1_VE1000_randls_75.json,http://54.235.29.9/FacialAge/BNav_EC2/DepthDuration/v2_depth_duration_MTurk/v2_DepthDuration_HTML.html#145,145,1366,625,1366,768,8-22-2022,7-59-26,77,depth_duration_stimuli/001059_2014-06-08_21-53-27_260595134347_rgbf000061-resize_4/001059_2014-06-08_21-53-27_260595134347_rgbf000061-resize_4-target.png,1000,2.4185,1,4126,997,meters,jsons/v1_VE1000_randls_75.json,896052,1143153,46,Woman
77,749000,DepthScenes,duration_manipulation_targetAtFixation,jsons/v1_VE1000_randls_75.json,http://54.235.29.9/FacialAge/BNav_EC2/DepthDuration/v2_depth_duration_MTurk/v2_DepthDuration_HTML.html#145,145,1366,625,1366,768,8-22-2022,7-59-26,78,depth_duration_stimuli/001032_2014-06-08_13-23-17_260595134347_rgbf000021-resize_3/001032_2014-06-08_13-23-17_260595134347_rgbf000021-resize_3-target.png,1000,3.2725,2,4306,987,meters,jsons/v1_VE1000_randls_75.json,896052,1143153,46,Woman
78,749000,DepthScenes,duration_manipulation_targetAtFixation,jsons/v1_VE1000_randls_75.json,http://54.235.29.9/FacialAge/BNav_EC2/DepthDuration/v2_depth_duration_MTurk/v2_DepthDuration_HTML.html#145,145,1366,625,1366,768,8-22-2022,7-59-26,79,depth_duration_stimuli/000739_2014-06-08_18-45-58_260595134347_rgbf000068-resize_1/000739_2014-06-08_18-45-58_260595134347_rgbf000068-resize_1-target.png,1000,3.534,3,4510,979,meters,jsons/v1_VE1000_randls_75.json,896052,1143153,46,Woman
79,749000,DepthScenes,duration_manipulation_targetAtFixation,jsons/v1_VE1000_randls_75.json,http://54.235.29.9/FacialAge/BNav_EC2/DepthDuration/v2_depth_duration_MTurk/v2_DepthDuration_HTML.html#145,145,1366,625,1366,768,8-22-2022,7-59-26,80,depth_duration_stimuli/000734_2014-06-08_17-39-11_260595134347_rgbf000128-resize_2/000734_2014-06-08_17-39-11_260595134347_rgbf000128-resize_2-target.png,1000,4.098,1,7092,1209,meters,jsons/v1_VE1000_randls_75.json,896052,1143153,46,Woman
80,749000,DepthScenes,duration_manipulation_targetAtFixation,jsons/v1_VE1000_randls_75.json,http://54.235.29.9/FacialAge/BNav_EC2/DepthDuration/v2_depth_duration_MTurk/v2_DepthDuration_HTML.html#145,145,1366,625,1366,768,8-22-2022,7-59-26,81,depth_duration_stimuli/002570_2014-06-24_13-59-54_094959634447_rgbf000059-resize_0/002570_2014-06-24_13-59-54_094959634447_rgbf000059-resize_0-target.png,1000,4.037,2,6476,1096,meters,jsons/v1_VE1000_randls_75.json,896052,1143153,46,Woman
81,749000,DepthScenes,duration_manipulation_targetAtFixation,jsons/v1_VE1000_randls_75.json,http://54.235.29.9/FacialAge/BNav_EC2/DepthDuration/v2_depth_duration_MTurk/v2_DepthDuration_HTML.html#145,145,1366,625,1366,768,8-22-2022,7-59-26,82,depth_duration_stimuli/002467_2014-06-28_20-38-07_260595134347_rgbf000026-resize_2/002467_2014-06-28_20-38-07_260595134347_rgbf000026-resize_2-target.png,1000,4.742,2,3640,985,meters,jsons/v1_VE1000_randls_75.json,896052,1143153,46,Woman
82,749000,DepthScenes,duration_manipulation_targetAtFixation,jsons/v1_VE1000_randls_75.json,http://54.235.29.9/FacialAge/BNav_EC2/DepthDuration/v2_depth_duration_MTurk/v2_DepthDuration_HTML.html#145,145,1366,625,1366,768,8-22-2022,7-59-26,83,depth_duration_stimuli/002213_2014-06-28_18-37-58_260595134347_rgbf000055-resize_1/002213_2014-06-28_18-37-58_260595134347_rgbf000055-resize_1-target.png,1000,3.62,1,3992,993,meters,jsons/v1_VE1000_randls_75.json,896052,1143153,46,Woman
83,749000,DepthScenes,duration_manipulation_targetAtFixation,jsons/v1_VE1000_randls_75.json,http://54.235.29.9/FacialAge/BNav_EC2/DepthDuration/v2_depth_duration_MTurk/v2_DepthDuration_HTML.html#145,145,1366,625,1366,768,8-22-2022,7-59-26,84,depth_duration_stimuli/000691_2014-06-08_13-08-50_260595134347_rgbf000132-resize_3/000691_2014-06-08_13-08-50_260595134347_rgbf000132-resize_3-target.png,1000,4.1530000000000005,2,6279,1150,meters,jsons/v1_VE1000_randls_75.json,896052,1143153,46,Woman
84,749000,DepthScenes,duration_manipulation_targetAtFixation,jsons/v1_VE1000_randls_75.json,http://54.235.29.9/FacialAge/BNav_EC2/DepthDuration/v2_depth_duration_MTurk/v2_DepthDuration_HTML.html#145,145,1366,625,1366,768,8-22-2022,7-59-26,85,depth_duration_stimuli/002153_2014-06-25_21-27-18_260595134347_rgbf000038-resize_5/002153_2014-06-25_21-27-18_260595134347_rgbf000038-resize_5-target.png,1000,2.505,1,18098,857,meters,jsons/v1_VE1000_randls_75.json,896052,1143153,46,Woman
85,749000,DepthScenes,duration_manipulation_targetAtFixation,jsons/v1_VE1000_randls_75.json,http://54.235.29.9/FacialAge/BNav_EC2/DepthDuration/v2_depth_duration_MTurk/v2_DepthDuration_HTML.html#145,145,1366,625,1366,768,8-22-2022,7-59-26,86,depth_duration_stimuli/002660_2014-06-13_15-44-18_094959634447_rgbf001878-resize_2/002660_2014-06-13_15-44-18_094959634447_rgbf001878-resize_2-target.png,1000,3.576,2,4100,719,meters,jsons/v1_VE1000_randls_75.json,896052,1143153,46,Woman
86,749000,DepthScenes,duration_manipulation_targetAtFixation,jsons/v1_VE1000_randls_75.json,http://54.235.29.9/FacialAge/BNav_EC2/DepthDuration/v2_depth_duration_MTurk/v2_DepthDuration_HTML.html#145,145,1366,625,1366,768,8-22-2022,7-59-26,87,depth_duration_stimuli/002039_2014-06-24_20-22-38_260595134347_rgbf000084-resize_1/002039_2014-06-24_20-22-38_260595134347_rgbf000084-resize_1-target.png,1000,4.408,2,3835,1007,meters,jsons/v1_VE1000_randls_75.json,896052,1143153,46,Woman
87,749000,DepthScenes,duration_manipulation_targetAtFixation,jsons/v1_VE1000_randls_75.json,http://54.235.29.9/FacialAge/BNav_EC2/DepthDuration/v2_depth_duration_MTurk/v2_DepthDuration_HTML.html#145,145,1366,625,1366,768,8-22-2022,7-59-26,88,depth_duration_stimuli/002103_2014-06-25_20-00-40_260595134347_rgbf000049-resize_0/002103_2014-06-25_20-00-40_260595134347_rgbf000049-resize_0-target.png,1000,4.105,3,4885,1009,meters,jsons/v1_VE1000_randls_75.json,896052,1143153,46,Woman
88,749000,DepthScenes,duration_manipulation_targetAtFixation,jsons/v1_VE1000_randls_75.json,http://54.235.29.9/FacialAge/BNav_EC2/DepthDuration/v2_depth_duration_MTurk/v2_DepthDuration_HTML.html#145,145,1366,625,1366,768,8-22-2022,7-59-26,89,depth_duration_stimuli/003292_2014-05-14_21-53-49_094959634447_rgbf000100-resize_2/003292_2014-05-14_21-53-49_094959634447_rgbf000100-resize_2-target.png,1000,3.4815,3,3759,1020,meters,jsons/v1_VE1000_randls_75.json,896052,1143153,46,Woman
89,749000,DepthScenes,duration_manipulation_targetAtFixation,jsons/v1_VE1000_randls_75.json,http://54.235.29.9/FacialAge/BNav_EC2/DepthDuration/v2_depth_duration_MTurk/v2_DepthDuration_HTML.html#145,145,1366,625,1366,768,8-22-2022,7-59-26,90,depth_duration_stimuli/002639_2014-06-24_14-51-37_094959634447_rgbf000074-resize_4/002639_2014-06-24_14-51-37_094959634447_rgbf000074-resize_4-target.png,1000,4.0375,2,9115,1008,meters,jsons/v1_VE1000_randls_75.json,896052,1143153,46,Woman
90,749000,DepthScenes,duration_manipulation_targetAtFixation,jsons/v1_VE1000_randls_75.json,http://54.235.29.9/FacialAge/BNav_EC2/DepthDuration/v2_depth_duration_MTurk/v2_DepthDuration_HTML.html#145,145,1366,625,1366,768,8-22-2022,7-59-26,91,depth_duration_stimuli/000436_2014-06-09_22-25-11_260595134347_rgbf000137-resize_1/000436_2014-06-09_22-25-11_260595134347_rgbf000137-resize_1-target.png,1000,4.0705,2,5024,999,meters,jsons/v1_VE1000_randls_75.json,896052,1143153,46,Woman
91,749000,DepthScenes,duration_manipulation_targetAtFixation,jsons/v1_VE1000_randls_75.json,http://54.235.29.9/FacialAge/BNav_EC2/DepthDuration/v2_depth_duration_MTurk/v2_DepthDuration_HTML.html#145,145,1366,625,1366,768,8-22-2022,7-59-26,92,depth_duration_stimuli/002444_2014-06-28_20-32-08_260595134347_rgbf000027-resize_0/002444_2014-06-28_20-32-08_260595134347_rgbf000027-resize_0-target.png,1000,4.388999999999999,1,6745,992,meters,jsons/v1_VE1000_randls_75.json,896052,1143153,46,Woman
92,749000,DepthScenes,duration_manipulation_targetAtFixation,jsons/v1_VE1000_randls_75.json,http://54.235.29.9/FacialAge/BNav_EC2/DepthDuration/v2_depth_duration_MTurk/v2_DepthDuration_HTML.html#145,145,1366,625,1366,768,8-22-2022,7-59-26,93,depth_duration_stimuli/000929_2014-06-09_16-33-19_260595134347_rgbf000139-resize_0/000929_2014-06-09_16-33-19_260595134347_rgbf000139-resize_0-target.png,1000,2.8680000000000003,1,4310,1247,meters,jsons/v1_VE1000_randls_75.json,896052,1143153,46,Woman
93,749000,DepthScenes,duration_manipulation_targetAtFixation,jsons/v1_VE1000_randls_75.json,http://54.235.29.9/FacialAge/BNav_EC2/DepthDuration/v2_depth_duration_MTurk/v2_DepthDuration_HTML.html#145,145,1366,625,1366,768,8-22-2022,7-59-26,94,depth_duration_stimuli/000457_2014-06-08_16-52-43_260595134347_rgbf000199-resize_1/000457_2014-06-08_16-52-43_260595134347_rgbf000199-resize_1-target.png,1000,3.6489999999999996,2,3681,1001,meters,jsons/v1_VE1000_randls_75.json,896052,1143153,46,Woman
94,749000,DepthScenes,duration_manipulation_targetAtFixation,jsons/v1_VE1000_randls_75.json,http://54.235.29.9/FacialAge/BNav_EC2/DepthDuration/v2_depth_duration_MTurk/v2_DepthDuration_HTML.html#145,145,1366,625,1366,768,8-22-2022,7-59-26,95,depth_duration_stimuli/001167_2014-06-17_15-38-07_260595134347_rgbf000108-resize_0/001167_2014-06-17_15-38-07_260595134347_rgbf000108-resize_0-target.png,1000,1.8505,3,4081,999,meters,jsons/v1_VE1000_randls_75.json,896052,1143153,46,Woman
95,749000,DepthScenes,duration_manipulation_targetAtFixation,jsons/v1_VE1000_randls_75.json,http://54.235.29.9/FacialAge/BNav_EC2/DepthDuration/v2_depth_duration_MTurk/v2_DepthDuration_HTML.html#145,145,1366,625,1366,768,8-22-2022,7-59-26,96,depth_duration_stimuli/003587_2014-05-23_16-48-02_094959634447_rgbf002384-resize_2/003587_2014-05-23_16-48-02_094959634447_rgbf002384-resize_2-target.png,1000,1.357,1,4524,1002,meters,jsons/v1_VE1000_randls_75.json,896052,1143153,46,Woman
96,749000,DepthScenes,duration_manipulation_targetAtFixation,jsons/v1_VE1000_randls_75.json,http://54.235.29.9/FacialAge/BNav_EC2/DepthDuration/v2_depth_duration_MTurk/v2_DepthDuration_HTML.html#145,145,1366,625,1366,768,8-22-2022,7-59-26,97,depth_duration_stimuli/001555_2014-06-20_17-12-10_260595134347_rgbf000065-resize_4/001555_2014-06-20_17-12-10_260595134347_rgbf000065-resize_4-target.png,1000,1.633,2,3654,990,meters,jsons/v1_VE1000_randls_75.json,896052,1143153,46,Woman
97,749000,DepthScenes,duration_manipulation_targetAtFixation,jsons/v1_VE1000_randls_75.json,http://54.235.29.9/FacialAge/BNav_EC2/DepthDuration/v2_depth_duration_MTurk/v2_DepthDuration_HTML.html#145,145,1366,625,1366,768,8-22-2022,7-59-26,98,depth_duration_stimuli/000103_2014-05-14_22-01-17_260595134347_rgbf000152-resize_5/000103_2014-05-14_22-01-17_260595134347_rgbf000152-resize_5-target.png,1000,1.993,3,4295,1000,meters,jsons/v1_VE1000_randls_75.json,896052,1143153,46,Woman
98,749000,DepthScenes,duration_manipulation_targetAtFixation,jsons/v1_VE1000_randls_75.json,http://54.235.29.9/FacialAge/BNav_EC2/DepthDuration/v2_depth_duration_MTurk/v2_DepthDuration_HTML.html#145,145,1366,625,1366,768,8-22-2022,7-59-26,99,depth_duration_stimuli/001540_2014-06-20_17-01-05_260595134347_rgbf000086-resize_2/001540_2014-06-20_17-01-05_260595134347_rgbf000086-resize-original.jpg,1000,1.459,4,4311,1000,meters,jsons/v1_VE1000_randls_75.json,896052,1143153,46,Woman
99,749000,DepthScenes,duration_manipulation_targetAtFixation,jsons/v1_VE1000_randls_75.json,http://54.235.29.9/FacialAge/BNav_EC2/DepthDuration/v2_depth_duration_MTurk/v2_DepthDuration_HTML.html#145,145,1366,625,1366,768,8-22-2022,7-59-26,100,depth_duration_stimuli/000682_2014-06-08_23-14-58_260595134347_rgbf000041-resize_5/000682_2014-06-08_23-14-58_260595134347_rgbf000041-resize_5-target.png,1000,2.7239999999999998,1,4280,986,meters,jsons/v1_VE1000_randls_75.json,896052,1143153,46,Woman
100,749000,DepthScenes,duration_manipulation_targetAtFixation,jsons/v1_VE1000_randls_75.json,http://54.235.29.9/FacialAge/BNav_EC2/DepthDuration/v2_depth_duration_MTurk/v2_DepthDuration_HTML.html#145,145,1366,625,1366,768,8-22-2022,7-59-26,101,depth_duration_stimuli/001650_2014-06-20_12-09-00_260595134347_rgbf000087-resize_3/001650_2014-06-20_12-09-00_260595134347_rgbf000087-resize_3-target.png,1000,1.9505,2,3689,994,meters,jsons/v1_VE1000_randls_75.json,896052,1143153,46,Woman
101,749000,DepthScenes,duration_manipulation_targetAtFixation,jsons/v1_VE1000_randls_75.json,http://54.235.29.9/FacialAge/BNav_EC2/DepthDuration/v2_depth_duration_MTurk/v2_DepthDuration_HTML.html#145,145,1366,625,1366,768,8-22-2022,7-59-26,102,depth_duration_stimuli/002057_2014-06-24_21-00-13_260595134347_rgbf000120-resize_1/002057_2014-06-24_21-00-13_260595134347_rgbf000120-resize_1-target.png,1000,2.967,3,4128,995,meters,jsons/v1_VE1000_randls_75.json,896052,1143153,46,Woman
102,749000,DepthScenes,duration_manipulation_targetAtFixation,jsons/v1_VE1000_randls_75.json,http://54.235.29.9/FacialAge/BNav_EC2/DepthDuration/v2_depth_duration_MTurk/v2_DepthDuration_HTML.html#145,145,1366,625,1366,768,8-22-2022,7-59-26,103,depth_duration_stimuli/000709_2014-06-08_13-51-55_260595134347_rgbf000068-resize_3/000709_2014-06-08_13-51-55_260595134347_rgbf000068-resize_3-target.png,1000,1.8030000000000002,3,3393,1031,meters,jsons/v1_VE1000_randls_75.json,896052,1143153,46,Woman
103,749000,DepthScenes,duration_manipulation_targetAtFixation,jsons/v1_VE1000_randls_75.json,http://54.235.29.9/FacialAge/BNav_EC2/DepthDuration/v2_depth_duration_MTurk/v2_DepthDuration_HTML.html#145,145,1366,625,1366,768,8-22-2022,7-59-26,104,depth_duration_stimuli/002763_2014-06-22_19-13-10_094959634447_rgbf000075-resize_4/002763_2014-06-22_19-13-10_094959634447_rgbf000075-resize_4-target.png,1000,1.68375,2,3206,995,meters,jsons/v1_VE1000_randls_75.json,896052,1143153,46,Woman
104,749000,DepthScenes,duration_manipulation_targetAtFixation,jsons/v1_VE1000_randls_75.json,http://54.235.29.9/FacialAge/BNav_EC2/DepthDuration/v2_depth_duration_MTurk/v2_DepthDuration_HTML.html#145,145,1366,625,1366,768,8-22-2022,7-59-26,105,depth_duration_stimuli/002209_2014-06-28_18-36-10_260595134347_rgbf000051-resize_1/002209_2014-06-28_18-36-10_260595134347_rgbf000051-resize_1-target.png,1000,2.057,1,3384,960,meters,jsons/v1_VE1000_randls_75.json,896052,1143153,46,Woman
105,749000,DepthScenes,duration_manipulation_targetAtFixation,jsons/v1_VE1000_randls_75.json,http://54.235.29.9/FacialAge/BNav_EC2/DepthDuration/v2_depth_duration_MTurk/v2_DepthDuration_HTML.html#145,145,1366,625,1366,768,8-22-2022,7-59-26,106,depth_duration_stimuli/001066_2014-06-08_22-03-20_260595134347_rgbf000066-resize_4/001066_2014-06-08_22-03-20_260595134347_rgbf000066-resize_4-target.png,1000,4.2330000000000005,1,3685,996,meters,jsons/v1_VE1000_randls_75.json,896052,1143153,46,Woman
106,749000,DepthScenes,duration_manipulation_targetAtFixation,jsons/v1_VE1000_randls_75.json,http://54.235.29.9/FacialAge/BNav_EC2/DepthDuration/v2_depth_duration_MTurk/v2_DepthDuration_HTML.html#145,145,1366,625,1366,768,8-22-2022,7-59-26,107,depth_duration_stimuli/000742_2014-06-08_18-48-09_260595134347_rgbf000164-resize_4/000742_2014-06-08_18-48-09_260595134347_rgbf000164-resize_4-target.png,1000,4.632,2,3343,997,meters,jsons/v1_VE1000_randls_75.json,896052,1143153,46,Woman
107,749000,DepthScenes,duration_manipulation_targetAtFixation,jsons/v1_VE1000_randls_75.json,http://54.235.29.9/FacialAge/BNav_EC2/DepthDuration/v2_depth_duration_MTurk/v2_DepthDuration_HTML.html#145,145,1366,625,1366,768,8-22-2022,7-59-26,108,depth_duration_stimuli/000493_2014-06-09_21-01-18_260595134347_rgbf000196-resize_3/000493_2014-06-09_21-01-18_260595134347_rgbf000196-resize_3-target.png,1000,3.44,1,3878,989,meters,jsons/v1_VE1000_randls_75.json,896052,1143153,46,Woman
108,749000,DepthScenes,duration_manipulation_targetAtFixation,jsons/v1_VE1000_randls_75.json,http://54.235.29.9/FacialAge/BNav_EC2/DepthDuration/v2_depth_duration_MTurk/v2_DepthDuration_HTML.html#145,145,1366,625,1366,768,8-22-2022,7-59-26,109,depth_duration_stimuli/000191_2014-05-12_17-07-38_260595134347_rgbf000199-resize_0/000191_2014-05-12_17-07-38_260595134347_rgbf000199-resize_0-target.png,1000,3.7995,2,3219,1000,meters,jsons/v1_VE1000_randls_75.json,896052,1143153,46,Woman
109,749000,DepthScenes,duration_manipulation_targetAtFixation,jsons/v1_VE1000_randls_75.json,http://54.235.29.9/FacialAge/BNav_EC2/DepthDuration/v2_depth_duration_MTurk/v2_DepthDuration_HTML.html#145,145,1366,625,1366,768,8-22-2022,7-59-26,110,depth_duration_stimuli/001808_2014-06-26_20-50-58_260595134347_rgbf000029-resize_1/001808_2014-06-26_20-50-58_260595134347_rgbf000029-resize_1-target.png,1000,4.249,1,3376,998,meters,jsons/v1_VE1000_randls_75.json,896052,1143153,46,Woman
110,749000,DepthScenes,duration_manipulation_targetAtFixation,jsons/v1_VE1000_randls_75.json,http://54.235.29.9/FacialAge/BNav_EC2/DepthDuration/v2_depth_duration_MTurk/v2_DepthDuration_HTML.html#145,145,1366,625,1366,768,8-22-2022,7-59-26,111,depth_duration_stimuli/001815_2014-06-26_20-52-55_260595134347_rgbf000020-resize_0/001815_2014-06-26_20-52-55_260595134347_rgbf000020-resize_0-target.png,1000,3.3865,2,4176,995,meters,jsons/v1_VE1000_randls_75.json,896052,1143153,46,Woman
111,749000,DepthScenes,duration_manipulation_targetAtFixation,jsons/v1_VE1000_randls_75.json,http://54.235.29.9/FacialAge/BNav_EC2/DepthDuration/v2_depth_duration_MTurk/v2_DepthDuration_HTML.html#145,145,1366,625,1366,768,8-22-2022,7-59-26,112,depth_duration_stimuli/000692_2014-06-08_13-09-42_260595134347_rgbf000199-resize_2/000692_2014-06-08_13-09-42_260595134347_rgbf000199-resize_2-target.png,1000,3.661,1,3654,1258,meters,jsons/v1_VE1000_randls_75.json,896052,1143153,46,Woman
112,749000,DepthScenes,duration_manipulation_targetAtFixation,jsons/v1_VE1000_randls_75.json,http://54.235.29.9/FacialAge/BNav_EC2/DepthDuration/v2_depth_duration_MTurk/v2_DepthDuration_HTML.html#145,145,1366,625,1366,768,8-22-2022,7-59-26,113,depth_duration_stimuli/001094_2014-06-15_17-36-00_260595134347_rgbf000205-resize_0/001094_2014-06-15_17-36-00_260595134347_rgbf000205-resize_0-target.png,1000,4.2175,2,5876,944,meters,jsons/v1_VE1000_randls_75.json,896052,1143153,46,Woman
113,749000,DepthScenes,duration_manipulation_targetAtFixation,jsons/v1_VE1000_randls_75.json,http://54.235.29.9/FacialAge/BNav_EC2/DepthDuration/v2_depth_duration_MTurk/v2_DepthDuration_HTML.html#145,145,1366,625,1366,768,8-22-2022,7-59-26,114,depth_duration_stimuli/003070_2014-06-15_14-58-27_094959634447_rgbf000150-resize_3/003070_2014-06-15_14-58-27_094959634447_rgbf000150-resize_3-target.png,1000,2.9415,1,3599,882,meters,jsons/v1_VE1000_randls_75.json,896052,1143153,46,Woman
114,749000,DepthScenes,duration_manipulation_targetAtFixation,jsons/v1_VE1000_randls_75.json,http://54.235.29.9/FacialAge/BNav_EC2/DepthDuration/v2_depth_duration_MTurk/v2_DepthDuration_HTML.html#145,145,1366,625,1366,768,8-22-2022,7-59-26,115,depth_duration_stimuli/000943_2014-06-09_19-31-07_260595134347_rgbf000128-resize_1/000943_2014-06-09_19-31-07_260595134347_rgbf000128-resize_1-target.png,1000,1.9765,2,3692,985,meters,jsons/v1_VE1000_randls_75.json,896052,1143153,46,Woman
115,749000,DepthScenes,duration_manipulation_targetAtFixation,jsons/v1_VE1000_randls_75.json,http://54.235.29.9/FacialAge/BNav_EC2/DepthDuration/v2_depth_duration_MTurk/v2_DepthDuration_HTML.html#145,145,1366,625,1366,768,8-22-2022,7-59-26,116,depth_duration_stimuli/001170_2014-06-17_15-43-44_260595134347_rgbf000096-resize_6/001170_2014-06-17_15-43-44_260595134347_rgbf000096-resize-original.jpg,1000,1.1909999999999998,1,3068,999,meters,jsons/v1_VE1000_randls_75.json,896052,1143153,46,Woman
116,749000,DepthScenes,duration_manipulation_targetAtFixation,jsons/v1_VE1000_randls_75.json,http://54.235.29.9/FacialAge/BNav_EC2/DepthDuration/v2_depth_duration_MTurk/v2_DepthDuration_HTML.html#145,145,1366,625,1366,768,8-22-2022,7-59-26,117,depth_duration_stimuli/000788_2014-06-08_22-34-36_260595134347_rgbf000131-resize_1/000788_2014-06-08_22-34-36_260595134347_rgbf000131-resize_1-target.png,1000,3.359,2,2973,992,meters,jsons/v1_VE1000_randls_75.json,896052,1143153,46,Woman
117,749000,DepthScenes,duration_manipulation_targetAtFixation,jsons/v1_VE1000_randls_75.json,http://54.235.29.9/FacialAge/BNav_EC2/DepthDuration/v2_depth_duration_MTurk/v2_DepthDuration_HTML.html#145,145,1366,625,1366,768,8-22-2022,7-59-26,118,depth_duration_stimuli/001235_2014-06-17_16-37-36_260595134347_rgbf000084-resize_4/001235_2014-06-17_16-37-36_260595134347_rgbf000084-resize_4-target.png,1000,3.6605,2,3071,999,meters,jsons/v1_VE1000_randls_75.json,896052,1143153,46,Woman
118,749000,DepthScenes,duration_manipulation_targetAtFixation,jsons/v1_VE1000_randls_75.json,http://54.235.29.9/FacialAge/BNav_EC2/DepthDuration/v2_depth_duration_MTurk/v2_DepthDuration_HTML.html#145,145,1366,625,1366,768,8-22-2022,7-59-26,119,depth_duration_stimuli/002043_2014-06-24_20-29-38_260595134347_rgbf000039-resize_4/002043_2014-06-24_20-29-38_260595134347_rgbf000039-resize_4-target.png,1000,2.8435,1,3401,995,meters,jsons/v1_VE1000_randls_75.json,896052,1143153,46,Woman
119,749000,DepthScenes,duration_manipulation_targetAtFixation,jsons/v1_VE1000_randls_75.json,http://54.235.29.9/FacialAge/BNav_EC2/DepthDuration/v2_depth_duration_MTurk/v2_DepthDuration_HTML.html#145,145,1366,625,1366,768,8-22-2022,7-59-26,120,depth_duration_stimuli/003048_2014-06-15_13-49-43_094959634447_rgbf000150-resize_1/003048_2014-06-15_13-49-43_094959634447_rgbf000150-resize_1-target.png,1000,4.0035,2,3328,991,meters,jsons/v1_VE1000_randls_75.json,896052,1143153,46,Woman
120,749000,DepthScenes,duration_manipulation_targetAtFixation,jsons/v1_VE1000_randls_75.json,http://54.235.29.9/FacialAge/BNav_EC2/DepthDuration/v2_depth_duration_MTurk/v2_DepthDuration_HTML.html#145,145,1366,625,1366,768,8-22-2022,7-59-26,121,depth_duration_stimuli/002445_2014-06-28_20-32-16_260595134347_rgbf000029-resize_4/002445_2014-06-28_20-32-16_260595134347_rgbf000029-resize_4-target.png,1000,2.5315,1,4676,832,meters,jsons/v1_VE1000_randls_75.json,896052,1143153,46,Woman
121,749000,DepthScenes,duration_manipulation_targetAtFixation,jsons/v1_VE1000_randls_75.json,http://54.235.29.9/FacialAge/BNav_EC2/DepthDuration/v2_depth_duration_MTurk/v2_DepthDuration_HTML.html#145,145,1366,625,1366,768,8-22-2022,7-59-26,122,depth_duration_stimuli/000780_2014-06-08_22-28-29_260595134347_rgbf000126-resize_1/000780_2014-06-08_22-28-29_260595134347_rgbf000126-resize_1-target.png,1000,3.3825,2,3377,1001,meters,jsons/v1_VE1000_randls_75.json,896052,1143153,46,Woman
122,749000,DepthScenes,duration_manipulation_targetAtFixation,jsons/v1_VE1000_randls_75.json,http://54.235.29.9/FacialAge/BNav_EC2/DepthDuration/v2_depth_duration_MTurk/v2_DepthDuration_HTML.html#145,145,1366,625,1366,768,8-22-2022,7-59-26,123,depth_duration_stimuli/001055_2014-06-08_18-45-35_260595134347_rgbf000111-resize_4/001055_2014-06-08_18-45-35_260595134347_rgbf000111-resize_4-target.png,1000,2.4290000000000003,2,3717,980,meters,jsons/v1_VE1000_randls_75.json,896052,1143153,46,Woman
123,749000,DepthScenes,duration_manipulation_targetAtFixation,jsons/v1_VE1000_randls_75.json,http://54.235.29.9/FacialAge/BNav_EC2/DepthDuration/v2_depth_duration_MTurk/v2_DepthDuration_HTML.html#145,145,1366,625,1366,768,8-22-2022,7-59-26,124,depth_duration_stimuli/000549_2014-06-08_22-10-24_260595134347_rgbf000247-resize_3/000549_2014-06-08_22-10-24_260595134347_rgbf000247-resize_3-target.png,1000,1.841,1,4859,1189,meters,jsons/v1_VE1000_randls_75.json,896052,1143153,46,Woman
124,749000,DepthScenes,duration_manipulation_targetAtFixation,jsons/v1_VE1000_randls_75.json,http://54.235.29.9/FacialAge/BNav_EC2/DepthDuration/v2_depth_duration_MTurk/v2_DepthDuration_HTML.html#145,145,1366,625,1366,768,8-22-2022,7-59-26,125,depth_duration_stimuli/001449_2014-06-19_17-01-27_260595134347_rgbf000116-resize_2/001449_2014-06-19_17-01-27_260595134347_rgbf000116-resize_2-target.png,1000,3.452,1,3708,1032,meters,jsons/v1_VE1000_randls_75.json,896052,1143153,46,Woman
125,749000,DepthScenes,duration_manipulation_targetAtFixation,jsons/v1_VE1000_randls_75.json,http://54.235.29.9/FacialAge/BNav_EC2/DepthDuration/v2_depth_duration_MTurk/v2_DepthDuration_HTML.html#145,145,1366,625,1366,768,8-22-2022,7-59-26,126,depth_duration_stimuli/001450_2014-06-19_17-02-03_260595134347_rgbf000203-resize_4/001450_2014-06-19_17-02-03_260595134347_rgbf000203-resize_4-target.png,1000,4.0106666666667,2,3666,977,meters,jsons/v1_VE1000_randls_75.json,896052,1143153,46,Woman
126,749000,DepthScenes,duration_manipulation_targetAtFixation,jsons/v1_VE1000_randls_75.json,http://54.235.29.9/FacialAge/BNav_EC2/DepthDuration/v2_depth_duration_MTurk/v2_DepthDuration_HTML.html#145,145,1366,625,1366,768,8-22-2022,7-59-26,127,depth_duration_stimuli/002509_2014-06-24_13-19-22_094959634447_rgbf000077-resize_0/002509_2014-06-24_13-19-22_094959634447_rgbf000077-resize_0-target.png,1000,1.3065,2,3485,1006,meters,jsons/v1_VE1000_randls_75.json,896052,1143153,46,Woman
127,749000,DepthScenes,duration_manipulation_targetAtFixation,jsons/v1_VE1000_randls_75.json,http://54.235.29.9/FacialAge/BNav_EC2/DepthDuration/v2_depth_duration_MTurk/v2_DepthDuration_HTML.html#145,145,1366,625,1366,768,8-22-2022,7-59-26,128,depth_duration_stimuli/003338_2014-05-20_11-01-23_094959634447_rgbf000051-resize_6/003338_2014-05-20_11-01-23_094959634447_rgbf000051-resize_6-target.png,1000,1.693,2,3950,998,meters,jsons/v1_VE1000_randls_75.json,896052,1143153,46,Woman
128,749000,DepthScenes,duration_manipulation_targetAtFixation,jsons/v1_VE1000_randls_75.json,http://54.235.29.9/FacialAge/BNav_EC2/DepthDuration/v2_depth_duration_MTurk/v2_DepthDuration_HTML.html#145,145,1366,625,1366,768,8-22-2022,7-59-26,129,depth_duration_stimuli/000009_2014-05-26_14-32-05_260595134347_rgbf000034-resize_3/000009_2014-05-26_14-32-05_260595134347_rgbf000034-resize_3-target.png,1000,3.8715,1,3414,991,meters,jsons/v1_VE1000_randls_75.json,896052,1143153,46,Woman
129,749000,DepthScenes,duration_manipulation_targetAtFixation,jsons/v1_VE1000_randls_75.json,http://54.235.29.9/FacialAge/BNav_EC2/DepthDuration/v2_depth_duration_MTurk/v2_DepthDuration_HTML.html#145,145,1366,625,1366,768,8-22-2022,7-59-26,130,depth_duration_stimuli/001828_2014-06-26_21-40-03_260595134347_rgbf000024-resize_0/001828_2014-06-26_21-40-03_260595134347_rgbf000024-resize_0-target.png,1000,4.8260000000000005,1,3925,1008,meters,jsons/v1_VE1000_randls_75.json,896052,1143153,46,Woman
130,749000,DepthScenes,duration_manipulation_targetAtFixation,jsons/v1_VE1000_randls_75.json,http://54.235.29.9/FacialAge/BNav_EC2/DepthDuration/v2_depth_duration_MTurk/v2_DepthDuration_HTML.html#145,145,1366,625,1366,768,8-22-2022,7-59-26,131,depth_duration_stimuli/000522_2014-06-08_13-35-06_260595134347_rgbf000244-resize_1/000522_2014-06-08_13-35-06_260595134347_rgbf000244-resize_1-target.png,1000,2.3715,2,3592,1024,meters,jsons/v1_VE1000_randls_75.json,896052,1143153,46,Woman
131,749000,DepthScenes,duration_manipulation_targetAtFixation,jsons/v1_VE1000_randls_75.json,http://54.235.29.9/FacialAge/BNav_EC2/DepthDuration/v2_depth_duration_MTurk/v2_DepthDuration_HTML.html#145,145,1366,625,1366,768,8-22-2022,7-59-26,132,depth_duration_stimuli/002949_2014-06-26_15-57-42_094959634447_rgbf000079-resize_1/002949_2014-06-26_15-57-42_094959634447_rgbf000079-resize_1-target.png,1000,1.8915,2,3311,993,meters,jsons/v1_VE1000_randls_75.json,896052,1143153,46,Woman
132,749000,DepthScenes,duration_manipulation_targetAtFixation,jsons/v1_VE1000_randls_75.json,http://54.235.29.9/FacialAge/BNav_EC2/DepthDuration/v2_depth_duration_MTurk/v2_DepthDuration_HTML.html#145,145,1366,625,1366,768,8-22-2022,7-59-26,133,depth_duration_stimuli/000447_2014-06-08_16-15-46_260595134347_rgbf000130-resize_1/000447_2014-06-08_16-15-46_260595134347_rgbf000130-resize_1-target.png,1000,4.479,3,3447,995,meters,jsons/v1_VE1000_randls_75.json,896052,1143153,46,Woman
133,749000,DepthScenes,duration_manipulation_targetAtFixation,jsons/v1_VE1000_randls_75.json,http://54.235.29.9/FacialAge/BNav_EC2/DepthDuration/v2_depth_duration_MTurk/v2_DepthDuration_HTML.html#145,145,1366,625,1366,768,8-22-2022,7-59-26,134,depth_duration_stimuli/001447_2014-06-19_17-00-32_260595134347_rgbf000082-resize_5/001447_2014-06-19_17-00-32_260595134347_rgbf000082-resize_5-target.png,1000,4.13775,2,3914,997,meters,jsons/v1_VE1000_randls_75.json,896052,1143153,46,Woman
134,749000,DepthScenes,duration_manipulation_targetAtFixation,jsons/v1_VE1000_randls_75.json,http://54.235.29.9/FacialAge/BNav_EC2/DepthDuration/v2_depth_duration_MTurk/v2_DepthDuration_HTML.html#145,145,1366,625,1366,768,8-22-2022,7-59-26,135,depth_duration_stimuli/002072_2014-06-24_21-48-06_260595134347_rgbf000115-resize_0/002072_2014-06-24_21-48-06_260595134347_rgbf000115-resize-original.jpg,1000,4.702,1,4514,1231,meters,jsons/v1_VE1000_randls_75.json,896052,1143153,46,Woman
135,749000,DepthScenes,duration_manipulation_targetAtFixation,jsons/v1_VE1000_randls_75.json,http://54.235.29.9/FacialAge/BNav_EC2/DepthDuration/v2_depth_duration_MTurk/v2_DepthDuration_HTML.html#145,145,1366,625,1366,768,8-22-2022,7-59-26,136,depth_duration_stimuli/000642_2014-06-08_16-59-25_260595134347_rgbf000098-resize_2/000642_2014-06-08_16-59-25_260595134347_rgbf000098-resize_2-target.png,1000,2.8815,1,5139,1062,meters,jsons/v1_VE1000_randls_75.json,896052,1143153,46,Woman
136,749000,DepthScenes,duration_manipulation_targetAtFixation,jsons/v1_VE1000_randls_75.json,http://54.235.29.9/FacialAge/BNav_EC2/DepthDuration/v2_depth_duration_MTurk/v2_DepthDuration_HTML.html#145,145,1366,625,1366,768,8-22-2022,7-59-26,137,depth_duration_stimuli/002425_2014-06-28_20-27-29_260595134347_rgbf000031-resize_8/002425_2014-06-28_20-27-29_260595134347_rgbf000031-resize_8-target.png,1000,3.8960000000000004,2,3236,982,meters,jsons/v1_VE1000_randls_75.json,896052,1143153,46,Woman
137,749000,DepthScenes,duration_manipulation_targetAtFixation,jsons/v1_VE1000_randls_75.json,http://54.235.29.9/FacialAge/BNav_EC2/DepthDuration/v2_depth_duration_MTurk/v2_DepthDuration_HTML.html#145,145,1366,625,1366,768,8-22-2022,7-59-26,138,depth_duration_stimuli/000917_2014-06-09_22-45-29_260595134347_rgbf000149-resize_3/000917_2014-06-09_22-45-29_260595134347_rgbf000149-resize_3-target.png,1000,4.1865,1,3314,1008,meters,jsons/v1_VE1000_randls_75.json,896052,1143153,46,Woman
138,749000,DepthScenes,duration_manipulation_targetAtFixation,jsons/v1_VE1000_randls_75.json,http://54.235.29.9/FacialAge/BNav_EC2/DepthDuration/v2_depth_duration_MTurk/v2_DepthDuration_HTML.html#145,145,1366,625,1366,768,8-22-2022,7-59-26,139,depth_duration_stimuli/002323_2014-06-28_20-01-54_260595134347_rgbf000051-resize_4/002323_2014-06-28_20-01-54_260595134347_rgbf000051-resize_4-target.png,1000,3.7310000000000003,2,3503,1012,meters,jsons/v1_VE1000_randls_75.json,896052,1143153,46,Woman
139,749000,DepthScenes,duration_manipulation_targetAtFixation,jsons/v1_VE1000_randls_75.json,http://54.235.29.9/FacialAge/BNav_EC2/DepthDuration/v2_depth_duration_MTurk/v2_DepthDuration_HTML.html#145,145,1366,625,1366,768,8-22-2022,7-59-26,140,depth_duration_stimuli/001016_2014-06-09_16-16-10_260595134347_rgbf000112-resize_5/001016_2014-06-09_16-16-10_260595134347_rgbf000112-resize_5-target.png,1000,1.6565,1,4181,1005,meters,jsons/v1_VE1000_randls_75.json,896052,1143153,46,Woman
140,749000,DepthScenes,duration_manipulation_targetAtFixation,jsons/v1_VE1000_randls_75.json,http://54.235.29.9/FacialAge/BNav_EC2/DepthDuration/v2_depth_duration_MTurk/v2_DepthDuration_HTML.html#145,145,1366,625,1366,768,8-22-2022,7-59-26,141,depth_duration_stimuli/002340_2014-06-28_20-05-46_260595134347_rgbf000113-resize_0/002340_2014-06-28_20-05-46_260595134347_rgbf000113-resize_0-target.png,1000,2.4735,2,3258,999,meters,jsons/v1_VE1000_randls_75.json,896052,1143153,46,Woman
141,749000,DepthScenes,duration_manipulation_targetAtFixation,jsons/v1_VE1000_randls_75.json,http://54.235.29.9/FacialAge/BNav_EC2/DepthDuration/v2_depth_duration_MTurk/v2_DepthDuration_HTML.html#145,145,1366,625,1366,768,8-22-2022,7-59-26,142,depth_duration_stimuli/000906_2014-06-08_13-35-43_260595134347_rgbf000155-resize_1/000906_2014-06-08_13-35-43_260595134347_rgbf000155-resize_1-target.png,1000,2.8489999999999998,1,5140,1008,meters,jsons/v1_VE1000_randls_75.json,896052,1143153,46,Woman
142,749000,DepthScenes,duration_manipulation_targetAtFixation,jsons/v1_VE1000_randls_75.json,http://54.235.29.9/FacialAge/BNav_EC2/DepthDuration/v2_depth_duration_MTurk/v2_DepthDuration_HTML.html#145,145,1366,625,1366,768,8-22-2022,7-59-26,143,depth_duration_stimuli/002805_2014-06-22_19-54-03_094959634447_rgbf000079-resize_1/002805_2014-06-22_19-54-03_094959634447_rgbf000079-resize_1-target.png,1000,3.1439999999999997,1,79030,1003,meters,jsons/v1_VE1000_randls_75.json,896052,1143153,46,Woman
143,749000,DepthScenes,duration_manipulation_targetAtFixation,jsons/v1_VE1000_randls_75.json,http://54.235.29.9/FacialAge/BNav_EC2/DepthDuration/v2_depth_duration_MTurk/v2_DepthDuration_HTML.html#145,145,1366,625,1366,768,8-22-2022,7-59-26,144,depth_duration_stimuli/001175_2014-06-17_15-45-55_260595134347_rgbf000129-resize_4/001175_2014-06-17_15-45-55_260595134347_rgbf000129-resize_4-target.png,1000,4.255,1,4050,966,meters,jsons/v1_VE1000_randls_75.json,896052,1143153,46,Woman
144,749000,DepthScenes,duration_manipulation_targetAtFixation,jsons/v1_VE1000_randls_75.json,http://54.235.29.9/FacialAge/BNav_EC2/DepthDuration/v2_depth_duration_MTurk/v2_DepthDuration_HTML.html#145,145,1366,625,1366,768,8-22-2022,7-59-26,145,depth_duration_stimuli/003490_2014-05-21_15-50-11_094959634447_rgbf000101-resize_3/003490_2014-05-21_15-50-11_094959634447_rgbf000101-resize_3-target.png,1000,3.6445,2,3301,999,meters,jsons/v1_VE1000_randls_75.json,896052,1143153,46,Woman
145,749000,DepthScenes,duration_manipulation_targetAtFixation,jsons/v1_VE1000_randls_75.json,http://54.235.29.9/FacialAge/BNav_EC2/DepthDuration/v2_depth_duration_MTurk/v2_DepthDuration_HTML.html#145,145,1366,625,1366,768,8-22-2022,7-59-26,146,depth_duration_stimuli/001498_2014-06-19_17-45-14_260595134347_rgbf000129-resize_4/001498_2014-06-19_17-45-14_260595134347_rgbf000129-resize-original.jpg,1000,1.4075,2,10850,1004,meters,jsons/v1_VE1000_randls_75.json,896052,1143153,46,Woman
146,749000,DepthScenes,duration_manipulation_targetAtFixation,jsons/v1_VE1000_randls_75.json,http://54.235.29.9/FacialAge/BNav_EC2/DepthDuration/v2_depth_duration_MTurk/v2_DepthDuration_HTML.html#145,145,1366,625,1366,768,8-22-2022,7-59-26,147,depth_duration_stimuli/001092_2014-06-15_17-34-58_260595134347_rgbf000171-resize_3/001092_2014-06-15_17-34-58_260595134347_rgbf000171-resize_3-target.png,1000,2.6935,3,7187,1201,meters,jsons/v1_VE1000_randls_75.json,896052,1143153,46,Woman
147,749000,DepthScenes,duration_manipulation_targetAtFixation,jsons/v1_VE1000_randls_75.json,http://54.235.29.9/FacialAge/BNav_EC2/DepthDuration/v2_depth_duration_MTurk/v2_DepthDuration_HTML.html#145,145,1366,625,1366,768,8-22-2022,7-59-26,148,depth_duration_stimuli/002545_2014-06-24_13-38-53_094959634447_rgbf000080-resize_4/002545_2014-06-24_13-38-53_094959634447_rgbf000080-resize_4-target.png,1000,1.9205,2,5622,738,meters,jsons/v1_VE1000_randls_75.json,896052,1143153,46,Woman
148,749000,DepthScenes,duration_manipulation_targetAtFixation,jsons/v1_VE1000_randls_75.json,http://54.235.29.9/FacialAge/BNav_EC2/DepthDuration/v2_depth_duration_MTurk/v2_DepthDuration_HTML.html#145,145,1366,625,1366,768,8-22-2022,7-59-26,149,depth_duration_stimuli/001199_2014-06-17_16-03-48_260595134347_rgbf000077-resize_0/001199_2014-06-17_16-03-48_260595134347_rgbf000077-resize_0-target.png,1000,3.4375,1,4563,1011,meters,jsons/v1_VE1000_randls_75.json,896052,1143153,46,Woman
149,749000,DepthScenes,duration_manipulation_targetAtFixation,jsons/v1_VE1000_randls_75.json,http://54.235.29.9/FacialAge/BNav_EC2/DepthDuration/v2_depth_duration_MTurk/v2_DepthDuration_HTML.html#145,145,1366,625,1366,768,8-22-2022,7-59-26,150,depth_duration_stimuli/000502_2014-06-08_23-02-32_260595134347_rgbf000063-resize_4/000502_2014-06-08_23-02-32_260595134347_rgbf000063-resize_4-target.png,1000,2.431,2,3939,1001,meters,jsons/v1_VE1000_randls_75.json,896052,1143153,46,Woman
150,749000,DepthScenes,duration_manipulation_targetAtFixation,jsons/v1_VE1000_randls_75.json,http://54.235.29.9/FacialAge/BNav_EC2/DepthDuration/v2_depth_duration_MTurk/v2_DepthDuration_HTML.html#145,145,1366,625,1366,768,8-22-2022,7-59-26,151,depth_duration_stimuli/000414_2014-06-04_19-49-13_260595134347_rgbf000044-resize_0/000414_2014-06-04_19-49-13_260595134347_rgbf000044-resize_0-target.png,1000,4.329,2,4267,1003,meters,jsons/v1_VE1000_randls_75.json,896052,1143153,46,Woman
151,749000,DepthScenes,duration_manipulation_targetAtFixation,jsons/v1_VE1000_randls_75.json,http://54.235.29.9/FacialAge/BNav_EC2/DepthDuration/v2_depth_duration_MTurk/v2_DepthDuration_HTML.html#145,145,1366,625,1366,768,8-22-2022,7-59-26,152,depth_duration_stimuli/003129_2014-05-12_10-48-10_094959634447_rgbf000100-resize_0/003129_2014-05-12_10-48-10_094959634447_rgbf000100-resize_0-target.png,1000,4.9305,2,4027,996,meters,jsons/v1_VE1000_randls_75.json,896052,1143153,46,Woman
152,749000,DepthScenes,duration_manipulation_targetAtFixation,jsons/v1_VE1000_randls_75.json,http://54.235.29.9/FacialAge/BNav_EC2/DepthDuration/v2_depth_duration_MTurk/v2_DepthDuration_HTML.html#145,145,1366,625,1366,768,8-22-2022,7-59-26,153,depth_duration_stimuli/002788_2014-06-22_19-36-03_094959634447_rgbf000088-resize_2/002788_2014-06-22_19-36-03_094959634447_rgbf000088-resize_2-target.png,1000,1.6465,1,3513,998,meters,jsons/v1_VE1000_randls_75.json,896052,1143153,46,Woman
153,749000,DepthScenes,duration_manipulation_targetAtFixation,jsons/v1_VE1000_randls_75.json,http://54.235.29.9/FacialAge/BNav_EC2/DepthDuration/v2_depth_duration_MTurk/v2_DepthDuration_HTML.html#145,145,1366,625,1366,768,8-22-2022,7-59-26,154,depth_duration_stimuli/000749_2014-06-08_21-55-06_260595134347_rgbf000070-resize_2/000749_2014-06-08_21-55-06_260595134347_rgbf000070-resize_2-target.png,1000,2.331,2,3264,987,meters,jsons/v1_VE1000_randls_75.json,896052,1143153,46,Woman
154,749000,DepthScenes,duration_manipulation_targetAtFixation,jsons/v1_VE1000_randls_75.json,http://54.235.29.9/FacialAge/BNav_EC2/DepthDuration/v2_depth_duration_MTurk/v2_DepthDuration_HTML.html#145,145,1366,625,1366,768,8-22-2022,7-59-26,155,depth_duration_stimuli/000878_2014-06-08_22-52-45_260595134347_rgbf000045-resize_2/000878_2014-06-08_22-52-45_260595134347_rgbf000045-resize_2-target.png,1000,2.092,2,5542,985,meters,jsons/v1_VE1000_randls_75.json,896052,1143153,46,Woman
155,749000,DepthScenes,duration_manipulation_targetAtFixation,jsons/v1_VE1000_randls_75.json,http://54.235.29.9/FacialAge/BNav_EC2/DepthDuration/v2_depth_duration_MTurk/v2_DepthDuration_HTML.html#145,145,1366,625,1366,768,8-22-2022,7-59-26,156,depth_duration_stimuli/002953_2014-06-08_17-32-18_094959634447_rgbf000059-resize_5/002953_2014-06-08_17-32-18_094959634447_rgbf000059-resize_5-target.png,1000,1.551,1,3921,982,meters,jsons/v1_VE1000_randls_75.json,896052,1143153,46,Woman
156,749000,DepthScenes,duration_manipulation_targetAtFixation,jsons/v1_VE1000_randls_75.json,http://54.235.29.9/FacialAge/BNav_EC2/DepthDuration/v2_depth_duration_MTurk/v2_DepthDuration_HTML.html#145,145,1366,625,1366,768,8-22-2022,7-59-26,157,depth_duration_stimuli/000758_2014-06-08_22-05-08_260595134347_rgbf000085-resize_0/000758_2014-06-08_22-05-08_260595134347_rgbf000085-resize_0-target.png,1000,3.3810000000000002,2,3262,757,meters,jsons/v1_VE1000_randls_75.json,896052,1143153,46,Woman
157,749000,DepthScenes,duration_manipulation_targetAtFixation,jsons/v1_VE1000_randls_75.json,http://54.235.29.9/FacialAge/BNav_EC2/DepthDuration/v2_depth_duration_MTurk/v2_DepthDuration_HTML.html#145,145,1366,625,1366,768,8-22-2022,7-59-26,158,depth_duration_stimuli/000854_2014-06-09_19-43-13_260595134347_rgbf000066-resize_0/000854_2014-06-09_19-43-13_260595134347_rgbf000066-resize_0-target.png,1000,3.068,1,3371,946,meters,jsons/v1_VE1000_randls_75.json,896052,1143153,46,Woman
158,749000,DepthScenes,duration_manipulation_targetAtFixation,jsons/v1_VE1000_randls_75.json,http://54.235.29.9/FacialAge/BNav_EC2/DepthDuration/v2_depth_duration_MTurk/v2_DepthDuration_HTML.html#145,145,1366,625,1366,768,8-22-2022,7-59-26,159,depth_duration_stimuli/001806_2014-06-26_20-50-20_260595134347_rgbf000091-resize_1/001806_2014-06-26_20-50-20_260595134347_rgbf000091-resize_1-target.png,1000,2.7305,2,3524,1014,meters,jsons/v1_VE1000_randls_75.json,896052,1143153,46,Woman
159,749000,DepthScenes,duration_manipulation_targetAtFixation,jsons/v1_VE1000_randls_75.json,http://54.235.29.9/FacialAge/BNav_EC2/DepthDuration/v2_depth_duration_MTurk/v2_DepthDuration_HTML.html#145,145,1366,625,1366,768,8-22-2022,7-59-26,160,depth_duration_stimuli/001617_2014-06-20_11-35-32_260595134347_rgbf000066-resize_1/001617_2014-06-20_11-35-32_260595134347_rgbf000066-resize_1-target.png,1000,3.7910000000000004,1,3744,992,meters,jsons/v1_VE1000_randls_75.json,896052,1143153,46,Woman
160,749000,DepthScenes,duration_manipulation_targetAtFixation,jsons/v1_VE1000_randls_75.json,http://54.235.29.9/FacialAge/BNav_EC2/DepthDuration/v2_depth_duration_MTurk/v2_DepthDuration_HTML.html#145,145,1366,625,1366,768,8-22-2022,7-59-26,161,depth_duration_stimuli/000773_2014-06-08_22-24-54_260595134347_rgbf000093-resize_1/000773_2014-06-08_22-24-54_260595134347_rgbf000093-resize_1-target.png,1000,4.973,2,3439,1282,meters,jsons/v1_VE1000_randls_75.json,896052,1143153,46,Woman
161,749000,DepthScenes,duration_manipulation_targetAtFixation,jsons/v1_VE1000_randls_75.json,http://54.235.29.9/FacialAge/BNav_EC2/DepthDuration/v2_depth_duration_MTurk/v2_DepthDuration_HTML.html#145,145,1366,625,1366,768,8-22-2022,7-59-26,162,depth_duration_stimuli/002414_2014-06-28_20-24-58_260595134347_rgbf000067-resize_4/002414_2014-06-28_20-24-58_260595134347_rgbf000067-resize_4-target.png,1000,4.363,2,5619,1006,meters,jsons/v1_VE1000_randls_75.json,896052,1143153,46,Woman
162,749000,DepthScenes,duration_manipulation_targetAtFixation,jsons/v1_VE1000_randls_75.json,http://54.235.29.9/FacialAge/BNav_EC2/DepthDuration/v2_depth_duration_MTurk/v2_DepthDuration_HTML.html#145,145,1366,625,1366,768,8-22-2022,7-59-26,163,depth_duration_stimuli/002118_2014-06-25_20-32-08_260595134347_rgbf000078-resize_1/002118_2014-06-25_20-32-08_260595134347_rgbf000078-resize_1-target.png,1000,2.6460000000000004,1,3570,999,meters,jsons/v1_VE1000_randls_75.json,896052,1143153,46,Woman
163,749000,DepthScenes,duration_manipulation_targetAtFixation,jsons/v1_VE1000_randls_75.json,http://54.235.29.9/FacialAge/BNav_EC2/DepthDuration/v2_depth_duration_MTurk/v2_DepthDuration_HTML.html#145,145,1366,625,1366,768,8-22-2022,7-59-26,164,depth_duration_stimuli/001516_2014-06-20_16-25-09_260595134347_rgbf000076-resize_2/001516_2014-06-20_16-25-09_260595134347_rgbf000076-resize_2-target.png,1000,1.7445,1,3180,1012,meters,jsons/v1_VE1000_randls_75.json,896052,1143153,46,Woman
