,subjID,experimentName,versionName,sequenceName,url,selected_row,windowWidth,windowHeight,screenWidth,screenHeight,startDate,startTime,trial,stimulus,duration,actual_depth,depth_estimate,trial_RT,log_sceneDuration,unitSelection,seq_filepath,experimentTime,totalTime,age,gender
0,749139,DepthScenes,duration_manipulation_targetAtFixation,jsons/v1_VE250_randls_62.json,http://54.235.29.9/FacialAge/BNav_EC2/DepthDuration/v2_depth_duration_MTurk/v2_DepthDuration_HTML.html#97,97,1440,773,1440,900,8-30-2022,6-54-45,1,depth_duration_stimuli/001555_2014-06-20_17-12-10_260595134347_rgbf000065-resize_4/001555_2014-06-20_17-12-10_260595134347_rgbf000065-resize_4-target.png,250,1.633,5.0,6406,255,feet,jsons/v1_VE250_randls_62.json,588393,1214127,46,Man
1,749139,DepthScenes,duration_manipulation_targetAtFixation,jsons/v1_VE250_randls_62.json,http://54.235.29.9/FacialAge/BNav_EC2/DepthDuration/v2_depth_duration_MTurk/v2_DepthDuration_HTML.html#97,97,1440,773,1440,900,8-30-2022,6-54-45,2,depth_duration_stimuli/000103_2014-05-14_22-01-17_260595134347_rgbf000152-resize_5/000103_2014-05-14_22-01-17_260595134347_rgbf000152-resize_5-target.png,250,1.993,13.0,4148,254,feet,jsons/v1_VE250_randls_62.json,588393,1214127,46,Man
2,749139,DepthScenes,duration_manipulation_targetAtFixation,jsons/v1_VE250_randls_62.json,http://54.235.29.9/FacialAge/BNav_EC2/DepthDuration/v2_depth_duration_MTurk/v2_DepthDuration_HTML.html#97,97,1440,773,1440,900,8-30-2022,6-54-45,3,depth_duration_stimuli/000522_2014-06-08_13-35-06_260595134347_rgbf000244-resize_1/000522_2014-06-08_13-35-06_260595134347_rgbf000244-resize_1-target.png,250,2.3715,4.0,3281,248,feet,jsons/v1_VE250_randls_62.json,588393,1214127,46,Man
3,749139,DepthScenes,duration_manipulation_targetAtFixation,jsons/v1_VE250_randls_62.json,http://54.235.29.9/FacialAge/BNav_EC2/DepthDuration/v2_depth_duration_MTurk/v2_DepthDuration_HTML.html#97,97,1440,773,1440,900,8-30-2022,6-54-45,4,depth_duration_stimuli/002949_2014-06-26_15-57-42_094959634447_rgbf000079-resize_1/002949_2014-06-26_15-57-42_094959634447_rgbf000079-resize_1-target.png,250,1.8915,6.0,2972,252,feet,jsons/v1_VE250_randls_62.json,588393,1214127,46,Man
4,749139,DepthScenes,duration_manipulation_targetAtFixation,jsons/v1_VE250_randls_62.json,http://54.235.29.9/FacialAge/BNav_EC2/DepthDuration/v2_depth_duration_MTurk/v2_DepthDuration_HTML.html#97,97,1440,773,1440,900,8-30-2022,6-54-45,5,depth_duration_stimuli/001417_2014-06-19_16-25-36_260595134347_rgbf000115-resize_5/001417_2014-06-19_16-25-36_260595134347_rgbf000115-resize_5-target.png,250,4.6255,7.0,4364,253,feet,jsons/v1_VE250_randls_62.json,588393,1214127,46,Man
5,749139,DepthScenes,duration_manipulation_targetAtFixation,jsons/v1_VE250_randls_62.json,http://54.235.29.9/FacialAge/BNav_EC2/DepthDuration/v2_depth_duration_MTurk/v2_DepthDuration_HTML.html#97,97,1440,773,1440,900,8-30-2022,6-54-45,6,depth_duration_stimuli/003081_2014-06-15_15-19-16_094959634447_rgbf000150-resize_1/003081_2014-06-15_15-19-16_094959634447_rgbf000150-resize_1-target.png,250,3.9125,12.0,3317,252,feet,jsons/v1_VE250_randls_62.json,588393,1214127,46,Man
6,749139,DepthScenes,duration_manipulation_targetAtFixation,jsons/v1_VE250_randls_62.json,http://54.235.29.9/FacialAge/BNav_EC2/DepthDuration/v2_depth_duration_MTurk/v2_DepthDuration_HTML.html#97,97,1440,773,1440,900,8-30-2022,6-54-45,7,depth_duration_stimuli/003492_2014-05-21_15-50-55_094959634447_rgbf000828-resize_1/003492_2014-05-21_15-50-55_094959634447_rgbf000828-resize_1-target.png,250,4.06875,14.0,4776,253,feet,jsons/v1_VE250_randls_62.json,588393,1214127,46,Man
7,749139,DepthScenes,duration_manipulation_targetAtFixation,jsons/v1_VE250_randls_62.json,http://54.235.29.9/FacialAge/BNav_EC2/DepthDuration/v2_depth_duration_MTurk/v2_DepthDuration_HTML.html#97,97,1440,773,1440,900,8-30-2022,6-54-45,8,depth_duration_stimuli/002568_2014-06-24_13-59-21_094959634447_rgbf000062-resize_4/002568_2014-06-24_13-59-21_094959634447_rgbf000062-resize_4-target.png,250,3.015,10.0,3443,251,feet,jsons/v1_VE250_randls_62.json,588393,1214127,46,Man
8,749139,DepthScenes,duration_manipulation_targetAtFixation,jsons/v1_VE250_randls_62.json,http://54.235.29.9/FacialAge/BNav_EC2/DepthDuration/v2_depth_duration_MTurk/v2_DepthDuration_HTML.html#97,97,1440,773,1440,900,8-30-2022,6-54-45,9,depth_duration_stimuli/002905_2014-06-03_18-04-43_094959634447_rgbf000151-resize_2/002905_2014-06-03_18-04-43_094959634447_rgbf000151-resize_2-target.png,250,2.0295,6.0,3331,250,feet,jsons/v1_VE250_randls_62.json,588393,1214127,46,Man
9,749139,DepthScenes,duration_manipulation_targetAtFixation,jsons/v1_VE250_randls_62.json,http://54.235.29.9/FacialAge/BNav_EC2/DepthDuration/v2_depth_duration_MTurk/v2_DepthDuration_HTML.html#97,97,1440,773,1440,900,8-30-2022,6-54-45,10,depth_duration_stimuli/003423_2014-05-21_10-23-26_094959634447_rgbf002665-resize_2/003423_2014-05-21_10-23-26_094959634447_rgbf002665-resize_2-target.png,250,3.2575,12.0,3403,260,feet,jsons/v1_VE250_randls_62.json,588393,1214127,46,Man
10,749139,DepthScenes,duration_manipulation_targetAtFixation,jsons/v1_VE250_randls_62.json,http://54.235.29.9/FacialAge/BNav_EC2/DepthDuration/v2_depth_duration_MTurk/v2_DepthDuration_HTML.html#97,97,1440,773,1440,900,8-30-2022,6-54-45,11,depth_duration_stimuli/001092_2014-06-15_17-34-58_260595134347_rgbf000171-resize_3/001092_2014-06-15_17-34-58_260595134347_rgbf000171-resize_3-target.png,250,2.6935,6.0,2985,259,feet,jsons/v1_VE250_randls_62.json,588393,1214127,46,Man
11,749139,DepthScenes,duration_manipulation_targetAtFixation,jsons/v1_VE250_randls_62.json,http://54.235.29.9/FacialAge/BNav_EC2/DepthDuration/v2_depth_duration_MTurk/v2_DepthDuration_HTML.html#97,97,1440,773,1440,900,8-30-2022,6-54-45,12,depth_duration_stimuli/002545_2014-06-24_13-38-53_094959634447_rgbf000080-resize_4/002545_2014-06-24_13-38-53_094959634447_rgbf000080-resize_4-target.png,250,1.9205,7.0,3292,247,feet,jsons/v1_VE250_randls_62.json,588393,1214127,46,Man
12,749139,DepthScenes,duration_manipulation_targetAtFixation,jsons/v1_VE250_randls_62.json,http://54.235.29.9/FacialAge/BNav_EC2/DepthDuration/v2_depth_duration_MTurk/v2_DepthDuration_HTML.html#97,97,1440,773,1440,900,8-30-2022,6-54-45,13,depth_duration_stimuli/000569_2014-06-09_22-51-47_260595134347_rgbf000141-resize_3/000569_2014-06-09_22-51-47_260595134347_rgbf000141-resize-original.jpg,250,4.512,0.0,2646,246,feet,jsons/v1_VE250_randls_62.json,588393,1214127,46,Man
13,749139,DepthScenes,duration_manipulation_targetAtFixation,jsons/v1_VE250_randls_62.json,http://54.235.29.9/FacialAge/BNav_EC2/DepthDuration/v2_depth_duration_MTurk/v2_DepthDuration_HTML.html#97,97,1440,773,1440,900,8-30-2022,6-54-45,14,depth_duration_stimuli/000009_2014-05-26_14-32-05_260595134347_rgbf000034-resize_3/000009_2014-05-26_14-32-05_260595134347_rgbf000034-resize_3-target.png,250,3.8715,14.0,4349,251,feet,jsons/v1_VE250_randls_62.json,588393,1214127,46,Man
14,749139,DepthScenes,duration_manipulation_targetAtFixation,jsons/v1_VE250_randls_62.json,http://54.235.29.9/FacialAge/BNav_EC2/DepthDuration/v2_depth_duration_MTurk/v2_DepthDuration_HTML.html#97,97,1440,773,1440,900,8-30-2022,6-54-45,15,depth_duration_stimuli/001828_2014-06-26_21-40-03_260595134347_rgbf000024-resize_0/001828_2014-06-26_21-40-03_260595134347_rgbf000024-resize_0-target.png,250,4.8260000000000005,8.0,3048,253,feet,jsons/v1_VE250_randls_62.json,588393,1214127,46,Man
15,749139,DepthScenes,duration_manipulation_targetAtFixation,jsons/v1_VE250_randls_62.json,http://54.235.29.9/FacialAge/BNav_EC2/DepthDuration/v2_depth_duration_MTurk/v2_DepthDuration_HTML.html#97,97,1440,773,1440,900,8-30-2022,6-54-45,16,depth_duration_stimuli/002039_2014-06-24_20-22-38_260595134347_rgbf000084-resize_1/002039_2014-06-24_20-22-38_260595134347_rgbf000084-resize_1-target.png,250,4.408,12.0,2851,249,feet,jsons/v1_VE250_randls_62.json,588393,1214127,46,Man
16,749139,DepthScenes,duration_manipulation_targetAtFixation,jsons/v1_VE250_randls_62.json,http://54.235.29.9/FacialAge/BNav_EC2/DepthDuration/v2_depth_duration_MTurk/v2_DepthDuration_HTML.html#97,97,1440,773,1440,900,8-30-2022,6-54-45,17,depth_duration_stimuli/002103_2014-06-25_20-00-40_260595134347_rgbf000049-resize_0/002103_2014-06-25_20-00-40_260595134347_rgbf000049-resize_0-target.png,250,4.105,8.0,3318,247,feet,jsons/v1_VE250_randls_62.json,588393,1214127,46,Man
17,749139,DepthScenes,duration_manipulation_targetAtFixation,jsons/v1_VE250_randls_62.json,http://54.235.29.9/FacialAge/BNav_EC2/DepthDuration/v2_depth_duration_MTurk/v2_DepthDuration_HTML.html#97,97,1440,773,1440,900,8-30-2022,6-54-45,18,depth_duration_stimuli/000414_2014-06-04_19-49-13_260595134347_rgbf000044-resize_0/000414_2014-06-04_19-49-13_260595134347_rgbf000044-resize_0-target.png,250,4.329,14.0,5867,256,feet,jsons/v1_VE250_randls_62.json,588393,1214127,46,Man
18,749139,DepthScenes,duration_manipulation_targetAtFixation,jsons/v1_VE250_randls_62.json,http://54.235.29.9/FacialAge/BNav_EC2/DepthDuration/v2_depth_duration_MTurk/v2_DepthDuration_HTML.html#97,97,1440,773,1440,900,8-30-2022,6-54-45,19,depth_duration_stimuli/003129_2014-05-12_10-48-10_094959634447_rgbf000100-resize_0/003129_2014-05-12_10-48-10_094959634447_rgbf000100-resize_0-target.png,250,4.9305,16.0,3837,254,feet,jsons/v1_VE250_randls_62.json,588393,1214127,46,Man
19,749139,DepthScenes,duration_manipulation_targetAtFixation,jsons/v1_VE250_randls_62.json,http://54.235.29.9/FacialAge/BNav_EC2/DepthDuration/v2_depth_duration_MTurk/v2_DepthDuration_HTML.html#97,97,1440,773,1440,900,8-30-2022,6-54-45,20,depth_duration_stimuli/001066_2014-06-08_22-03-20_260595134347_rgbf000066-resize_4/001066_2014-06-08_22-03-20_260595134347_rgbf000066-resize_4-target.png,250,4.2330000000000005,14.0,5018,255,feet,jsons/v1_VE250_randls_62.json,588393,1214127,46,Man
20,749139,DepthScenes,duration_manipulation_targetAtFixation,jsons/v1_VE250_randls_62.json,http://54.235.29.9/FacialAge/BNav_EC2/DepthDuration/v2_depth_duration_MTurk/v2_DepthDuration_HTML.html#97,97,1440,773,1440,900,8-30-2022,6-54-45,21,depth_duration_stimuli/000742_2014-06-08_18-48-09_260595134347_rgbf000164-resize_4/000742_2014-06-08_18-48-09_260595134347_rgbf000164-resize_4-target.png,250,4.632,13.0,2972,250,feet,jsons/v1_VE250_randls_62.json,588393,1214127,46,Man
21,749139,DepthScenes,duration_manipulation_targetAtFixation,jsons/v1_VE250_randls_62.json,http://54.235.29.9/FacialAge/BNav_EC2/DepthDuration/v2_depth_duration_MTurk/v2_DepthDuration_HTML.html#97,97,1440,773,1440,900,8-30-2022,6-54-45,22,depth_duration_stimuli/002057_2014-06-24_21-00-13_260595134347_rgbf000120-resize_1/002057_2014-06-24_21-00-13_260595134347_rgbf000120-resize_1-target.png,250,2.967,9.0,4977,255,feet,jsons/v1_VE250_randls_62.json,588393,1214127,46,Man
22,749139,DepthScenes,duration_manipulation_targetAtFixation,jsons/v1_VE250_randls_62.json,http://54.235.29.9/FacialAge/BNav_EC2/DepthDuration/v2_depth_duration_MTurk/v2_DepthDuration_HTML.html#97,97,1440,773,1440,900,8-30-2022,6-54-45,23,depth_duration_stimuli/000709_2014-06-08_13-51-55_260595134347_rgbf000068-resize_3/000709_2014-06-08_13-51-55_260595134347_rgbf000068-resize_3-target.png,250,1.8030000000000002,6.0,3027,255,feet,jsons/v1_VE250_randls_62.json,588393,1214127,46,Man
23,749139,DepthScenes,duration_manipulation_targetAtFixation,jsons/v1_VE250_randls_62.json,http://54.235.29.9/FacialAge/BNav_EC2/DepthDuration/v2_depth_duration_MTurk/v2_DepthDuration_HTML.html#97,97,1440,773,1440,900,8-30-2022,6-54-45,24,depth_duration_stimuli/002549_2014-06-24_13-41-39_094959634447_rgbf000022-resize_3/002549_2014-06-24_13-41-39_094959634447_rgbf000022-resize_3-target.png,250,1.476,4.5,4001,253,feet,jsons/v1_VE250_randls_62.json,588393,1214127,46,Man
24,749139,DepthScenes,duration_manipulation_targetAtFixation,jsons/v1_VE250_randls_62.json,http://54.235.29.9/FacialAge/BNav_EC2/DepthDuration/v2_depth_duration_MTurk/v2_DepthDuration_HTML.html#97,97,1440,773,1440,900,8-30-2022,6-54-45,25,depth_duration_stimuli/002750_2014-06-22_19-08-03_094959634447_rgbf000094-resize_4/002750_2014-06-22_19-08-03_094959634447_rgbf000094-resize_4-target.png,250,2.354,7.0,3565,250,feet,jsons/v1_VE250_randls_62.json,588393,1214127,46,Man
25,749139,DepthScenes,duration_manipulation_targetAtFixation,jsons/v1_VE250_randls_62.json,http://54.235.29.9/FacialAge/BNav_EC2/DepthDuration/v2_depth_duration_MTurk/v2_DepthDuration_HTML.html#97,97,1440,773,1440,900,8-30-2022,6-54-45,26,depth_duration_stimuli/000788_2014-06-08_22-34-36_260595134347_rgbf000131-resize_1/000788_2014-06-08_22-34-36_260595134347_rgbf000131-resize_1-target.png,250,3.359,6.0,3052,248,feet,jsons/v1_VE250_randls_62.json,588393,1214127,46,Man
26,749139,DepthScenes,duration_manipulation_targetAtFixation,jsons/v1_VE250_randls_62.json,http://54.235.29.9/FacialAge/BNav_EC2/DepthDuration/v2_depth_duration_MTurk/v2_DepthDuration_HTML.html#97,97,1440,773,1440,900,8-30-2022,6-54-45,27,depth_duration_stimuli/001235_2014-06-17_16-37-36_260595134347_rgbf000084-resize_4/001235_2014-06-17_16-37-36_260595134347_rgbf000084-resize_4-target.png,250,3.6605,8.0,3003,255,feet,jsons/v1_VE250_randls_62.json,588393,1214127,46,Man
27,749139,DepthScenes,duration_manipulation_targetAtFixation,jsons/v1_VE250_randls_62.json,http://54.235.29.9/FacialAge/BNav_EC2/DepthDuration/v2_depth_duration_MTurk/v2_DepthDuration_HTML.html#97,97,1440,773,1440,900,8-30-2022,6-54-45,28,depth_duration_stimuli/002279_2014-06-28_18-55-32_260595134347_rgbf000040-resize_5/002279_2014-06-28_18-55-32_260595134347_rgbf000040-resize_5-target.png,250,1.5043333333333,4.0,3436,252,feet,jsons/v1_VE250_randls_62.json,588393,1214127,46,Man
28,749139,DepthScenes,duration_manipulation_targetAtFixation,jsons/v1_VE250_randls_62.json,http://54.235.29.9/FacialAge/BNav_EC2/DepthDuration/v2_depth_duration_MTurk/v2_DepthDuration_HTML.html#97,97,1440,773,1440,900,8-30-2022,6-54-45,29,depth_duration_stimuli/000635_2014-06-08_16-38-42_260595134347_rgbf000106-resize_1/000635_2014-06-08_16-38-42_260595134347_rgbf000106-resize_1-target.png,250,2.074,8.0,3139,254,feet,jsons/v1_VE250_randls_62.json,588393,1214127,46,Man
29,749139,DepthScenes,duration_manipulation_targetAtFixation,jsons/v1_VE250_randls_62.json,http://54.235.29.9/FacialAge/BNav_EC2/DepthDuration/v2_depth_duration_MTurk/v2_DepthDuration_HTML.html#97,97,1440,773,1440,900,8-30-2022,6-54-45,30,depth_duration_stimuli/000375_2014-06-08_11-17-29_260595134347_rgbf000133-resize_2/000375_2014-06-08_11-17-29_260595134347_rgbf000133-resize-original.jpg,250,4.718,0.0,2577,255,feet,jsons/v1_VE250_randls_62.json,588393,1214127,46,Man
30,749139,DepthScenes,duration_manipulation_targetAtFixation,jsons/v1_VE250_randls_62.json,http://54.235.29.9/FacialAge/BNav_EC2/DepthDuration/v2_depth_duration_MTurk/v2_DepthDuration_HTML.html#97,97,1440,773,1440,900,8-30-2022,6-54-45,31,depth_duration_stimuli/001059_2014-06-08_21-53-27_260595134347_rgbf000061-resize_4/001059_2014-06-08_21-53-27_260595134347_rgbf000061-resize_4-target.png,250,2.4185,8.0,2721,249,feet,jsons/v1_VE250_randls_62.json,588393,1214127,46,Man
31,749139,DepthScenes,duration_manipulation_targetAtFixation,jsons/v1_VE250_randls_62.json,http://54.235.29.9/FacialAge/BNav_EC2/DepthDuration/v2_depth_duration_MTurk/v2_DepthDuration_HTML.html#97,97,1440,773,1440,900,8-30-2022,6-54-45,32,depth_duration_stimuli/001032_2014-06-08_13-23-17_260595134347_rgbf000021-resize_3/001032_2014-06-08_13-23-17_260595134347_rgbf000021-resize_3-target.png,250,3.2725,8.0,5220,253,feet,jsons/v1_VE250_randls_62.json,588393,1214127,46,Man
32,749139,DepthScenes,duration_manipulation_targetAtFixation,jsons/v1_VE250_randls_62.json,http://54.235.29.9/FacialAge/BNav_EC2/DepthDuration/v2_depth_duration_MTurk/v2_DepthDuration_HTML.html#97,97,1440,773,1440,900,8-30-2022,6-54-45,33,depth_duration_stimuli/002570_2014-06-24_13-59-54_094959634447_rgbf000059-resize_0/002570_2014-06-24_13-59-54_094959634447_rgbf000059-resize_0-target.png,250,4.037,7.0,3631,255,feet,jsons/v1_VE250_randls_62.json,588393,1214127,46,Man
33,749139,DepthScenes,duration_manipulation_targetAtFixation,jsons/v1_VE250_randls_62.json,http://54.235.29.9/FacialAge/BNav_EC2/DepthDuration/v2_depth_duration_MTurk/v2_DepthDuration_HTML.html#97,97,1440,773,1440,900,8-30-2022,6-54-45,34,depth_duration_stimuli/002467_2014-06-28_20-38-07_260595134347_rgbf000026-resize_2/002467_2014-06-28_20-38-07_260595134347_rgbf000026-resize_2-target.png,250,4.742,12.0,3159,246,feet,jsons/v1_VE250_randls_62.json,588393,1214127,46,Man
34,749139,DepthScenes,duration_manipulation_targetAtFixation,jsons/v1_VE250_randls_62.json,http://54.235.29.9/FacialAge/BNav_EC2/DepthDuration/v2_depth_duration_MTurk/v2_DepthDuration_HTML.html#97,97,1440,773,1440,900,8-30-2022,6-54-45,35,depth_duration_stimuli/002784_2014-06-22_19-26-30_094959634447_rgbf000083-resize_3/002784_2014-06-22_19-26-30_094959634447_rgbf000083-resize_3-target.png,250,1.8046666666667,5.0,2578,249,feet,jsons/v1_VE250_randls_62.json,588393,1214127,46,Man
35,749139,DepthScenes,duration_manipulation_targetAtFixation,jsons/v1_VE250_randls_62.json,http://54.235.29.9/FacialAge/BNav_EC2/DepthDuration/v2_depth_duration_MTurk/v2_DepthDuration_HTML.html#97,97,1440,773,1440,900,8-30-2022,6-54-45,36,depth_duration_stimuli/001100_2014-06-15_17-46-26_260595134347_rgbf000225-resize_2/001100_2014-06-15_17-46-26_260595134347_rgbf000225-resize_2-target.png,250,2.24,4.0,2441,254,feet,jsons/v1_VE250_randls_62.json,588393,1214127,46,Man
36,749139,DepthScenes,duration_manipulation_targetAtFixation,jsons/v1_VE250_randls_62.json,http://54.235.29.9/FacialAge/BNav_EC2/DepthDuration/v2_depth_duration_MTurk/v2_DepthDuration_HTML.html#97,97,1440,773,1440,900,8-30-2022,6-54-45,37,depth_duration_stimuli/000692_2014-06-08_13-09-42_260595134347_rgbf000199-resize_2/000692_2014-06-08_13-09-42_260595134347_rgbf000199-resize_2-target.png,250,3.661,13.0,2972,250,feet,jsons/v1_VE250_randls_62.json,588393,1214127,46,Man
37,749139,DepthScenes,duration_manipulation_targetAtFixation,jsons/v1_VE250_randls_62.json,http://54.235.29.9/FacialAge/BNav_EC2/DepthDuration/v2_depth_duration_MTurk/v2_DepthDuration_HTML.html#97,97,1440,773,1440,900,8-30-2022,6-54-45,38,depth_duration_stimuli/001094_2014-06-15_17-36-00_260595134347_rgbf000205-resize_0/001094_2014-06-15_17-36-00_260595134347_rgbf000205-resize_0-target.png,250,4.2175,12.0,2531,250,feet,jsons/v1_VE250_randls_62.json,588393,1214127,46,Man
38,749139,DepthScenes,duration_manipulation_targetAtFixation,jsons/v1_VE250_randls_62.json,http://54.235.29.9/FacialAge/BNav_EC2/DepthDuration/v2_depth_duration_MTurk/v2_DepthDuration_HTML.html#97,97,1440,773,1440,900,8-30-2022,6-54-45,39,depth_duration_stimuli/002043_2014-06-24_20-29-38_260595134347_rgbf000039-resize_4/002043_2014-06-24_20-29-38_260595134347_rgbf000039-resize_4-target.png,250,2.8435,8.0,2818,255,feet,jsons/v1_VE250_randls_62.json,588393,1214127,46,Man
39,749139,DepthScenes,duration_manipulation_targetAtFixation,jsons/v1_VE250_randls_62.json,http://54.235.29.9/FacialAge/BNav_EC2/DepthDuration/v2_depth_duration_MTurk/v2_DepthDuration_HTML.html#97,97,1440,773,1440,900,8-30-2022,6-54-45,40,depth_duration_stimuli/003048_2014-06-15_13-49-43_094959634447_rgbf000150-resize_1/003048_2014-06-15_13-49-43_094959634447_rgbf000150-resize_1-target.png,250,4.0035,10.0,3118,248,feet,jsons/v1_VE250_randls_62.json,588393,1214127,46,Man
40,749139,DepthScenes,duration_manipulation_targetAtFixation,jsons/v1_VE250_randls_62.json,http://54.235.29.9/FacialAge/BNav_EC2/DepthDuration/v2_depth_duration_MTurk/v2_DepthDuration_HTML.html#97,97,1440,773,1440,900,8-30-2022,6-54-45,41,depth_duration_stimuli/000739_2014-06-08_18-45-58_260595134347_rgbf000068-resize_1/000739_2014-06-08_18-45-58_260595134347_rgbf000068-resize_1-target.png,250,3.534,11.0,2827,251,feet,jsons/v1_VE250_randls_62.json,588393,1214127,46,Man
41,749139,DepthScenes,duration_manipulation_targetAtFixation,jsons/v1_VE250_randls_62.json,http://54.235.29.9/FacialAge/BNav_EC2/DepthDuration/v2_depth_duration_MTurk/v2_DepthDuration_HTML.html#97,97,1440,773,1440,900,8-30-2022,6-54-45,42,depth_duration_stimuli/000734_2014-06-08_17-39-11_260595134347_rgbf000128-resize_2/000734_2014-06-08_17-39-11_260595134347_rgbf000128-resize_2-target.png,250,4.098,9.0,5562,249,feet,jsons/v1_VE250_randls_62.json,588393,1214127,46,Man
42,749139,DepthScenes,duration_manipulation_targetAtFixation,jsons/v1_VE250_randls_62.json,http://54.235.29.9/FacialAge/BNav_EC2/DepthDuration/v2_depth_duration_MTurk/v2_DepthDuration_HTML.html#97,97,1440,773,1440,900,8-30-2022,6-54-45,43,depth_duration_stimuli/002988_2014-06-15_12-24-20_094959634447_rgbf000150-resize_1/002988_2014-06-15_12-24-20_094959634447_rgbf000150-resize_1-target.png,250,4.7669999999999995,12.0,2892,253,feet,jsons/v1_VE250_randls_62.json,588393,1214127,46,Man
43,749139,DepthScenes,duration_manipulation_targetAtFixation,jsons/v1_VE250_randls_62.json,http://54.235.29.9/FacialAge/BNav_EC2/DepthDuration/v2_depth_duration_MTurk/v2_DepthDuration_HTML.html#97,97,1440,773,1440,900,8-30-2022,6-54-45,44,depth_duration_stimuli/001052_2014-06-08_18-24-54_260595134347_rgbf000130-resize_1/001052_2014-06-08_18-24-54_260595134347_rgbf000130-resize_1-target.png,250,4.1045,12.0,2671,245,feet,jsons/v1_VE250_randls_62.json,588393,1214127,46,Man
44,749139,DepthScenes,duration_manipulation_targetAtFixation,jsons/v1_VE250_randls_62.json,http://54.235.29.9/FacialAge/BNav_EC2/DepthDuration/v2_depth_duration_MTurk/v2_DepthDuration_HTML.html#97,97,1440,773,1440,900,8-30-2022,6-54-45,45,depth_duration_stimuli/000787_2014-06-08_22-33-53_260595134347_rgbf000175-resize_1/000787_2014-06-08_22-33-53_260595134347_rgbf000175-resize-original.jpg,250,4.784,0.0,3035,255,feet,jsons/v1_VE250_randls_62.json,588393,1214127,46,Man
45,749139,DepthScenes,duration_manipulation_targetAtFixation,jsons/v1_VE250_randls_62.json,http://54.235.29.9/FacialAge/BNav_EC2/DepthDuration/v2_depth_duration_MTurk/v2_DepthDuration_HTML.html#97,97,1440,773,1440,900,8-30-2022,6-54-45,46,depth_duration_stimuli/000447_2014-06-08_16-15-46_260595134347_rgbf000130-resize_1/000447_2014-06-08_16-15-46_260595134347_rgbf000130-resize_1-target.png,250,4.479,13.0,4138,248,feet,jsons/v1_VE250_randls_62.json,588393,1214127,46,Man
46,749139,DepthScenes,duration_manipulation_targetAtFixation,jsons/v1_VE250_randls_62.json,http://54.235.29.9/FacialAge/BNav_EC2/DepthDuration/v2_depth_duration_MTurk/v2_DepthDuration_HTML.html#97,97,1440,773,1440,900,8-30-2022,6-54-45,47,depth_duration_stimuli/001447_2014-06-19_17-00-32_260595134347_rgbf000082-resize_5/001447_2014-06-19_17-00-32_260595134347_rgbf000082-resize_5-target.png,250,4.13775,7.0,2868,253,feet,jsons/v1_VE250_randls_62.json,588393,1214127,46,Man
47,749139,DepthScenes,duration_manipulation_targetAtFixation,jsons/v1_VE250_randls_62.json,http://54.235.29.9/FacialAge/BNav_EC2/DepthDuration/v2_depth_duration_MTurk/v2_DepthDuration_HTML.html#97,97,1440,773,1440,900,8-30-2022,6-54-45,48,depth_duration_stimuli/002725_2014-06-22_11-47-51_094959634447_rgbf000070-resize_1/002725_2014-06-22_11-47-51_094959634447_rgbf000070-resize_1-target.png,250,2.195,8.0,4547,252,feet,jsons/v1_VE250_randls_62.json,588393,1214127,46,Man
48,749139,DepthScenes,duration_manipulation_targetAtFixation,jsons/v1_VE250_randls_62.json,http://54.235.29.9/FacialAge/BNav_EC2/DepthDuration/v2_depth_duration_MTurk/v2_DepthDuration_HTML.html#97,97,1440,773,1440,900,8-30-2022,6-54-45,49,depth_duration_stimuli/002344_2014-06-28_20-06-29_260595134347_rgbf000030-resize_1/002344_2014-06-28_20-06-29_260595134347_rgbf000030-resize_1-target.png,250,1.5795,5.0,4961,249,feet,jsons/v1_VE250_randls_62.json,588393,1214127,46,Man
49,749139,DepthScenes,duration_manipulation_targetAtFixation,jsons/v1_VE250_randls_62.json,http://54.235.29.9/FacialAge/BNav_EC2/DepthDuration/v2_depth_duration_MTurk/v2_DepthDuration_HTML.html#97,97,1440,773,1440,900,8-30-2022,6-54-45,50,depth_duration_stimuli/002630_2014-06-24_14-47-50_094959634447_rgbf000055-resize_1/002630_2014-06-24_14-47-50_094959634447_rgbf000055-resize_1-target.png,250,3.0095,9.0,3164,253,feet,jsons/v1_VE250_randls_62.json,588393,1214127,46,Man
50,749139,DepthScenes,duration_manipulation_targetAtFixation,jsons/v1_VE250_randls_62.json,http://54.235.29.9/FacialAge/BNav_EC2/DepthDuration/v2_depth_duration_MTurk/v2_DepthDuration_HTML.html#97,97,1440,773,1440,900,8-30-2022,6-54-45,51,depth_duration_stimuli/002758_2014-06-22_19-11-20_094959634447_rgbf000128-resize_1/002758_2014-06-22_19-11-20_094959634447_rgbf000128-resize_1-target.png,250,2.555,7.0,2615,252,feet,jsons/v1_VE250_randls_62.json,588393,1214127,46,Man
51,749139,DepthScenes,duration_manipulation_targetAtFixation,jsons/v1_VE250_randls_62.json,http://54.235.29.9/FacialAge/BNav_EC2/DepthDuration/v2_depth_duration_MTurk/v2_DepthDuration_HTML.html#97,97,1440,773,1440,900,8-30-2022,6-54-45,52,depth_duration_stimuli/001199_2014-06-17_16-03-48_260595134347_rgbf000077-resize_0/001199_2014-06-17_16-03-48_260595134347_rgbf000077-resize_0-target.png,250,3.4375,8.0,3095,251,feet,jsons/v1_VE250_randls_62.json,588393,1214127,46,Man
52,749139,DepthScenes,duration_manipulation_targetAtFixation,jsons/v1_VE250_randls_62.json,http://54.235.29.9/FacialAge/BNav_EC2/DepthDuration/v2_depth_duration_MTurk/v2_DepthDuration_HTML.html#97,97,1440,773,1440,900,8-30-2022,6-54-45,53,depth_duration_stimuli/000502_2014-06-08_23-02-32_260595134347_rgbf000063-resize_4/000502_2014-06-08_23-02-32_260595134347_rgbf000063-resize_4-target.png,250,2.431,5.0,2700,251,feet,jsons/v1_VE250_randls_62.json,588393,1214127,46,Man
53,749139,DepthScenes,duration_manipulation_targetAtFixation,jsons/v1_VE250_randls_62.json,http://54.235.29.9/FacialAge/BNav_EC2/DepthDuration/v2_depth_duration_MTurk/v2_DepthDuration_HTML.html#97,97,1440,773,1440,900,8-30-2022,6-54-45,54,depth_duration_stimuli/001164_2014-06-17_15-35-46_260595134347_rgbf000085-resize_3/001164_2014-06-17_15-35-46_260595134347_rgbf000085-resize_3-target.png,250,2.354,6.0,2797,254,feet,jsons/v1_VE250_randls_62.json,588393,1214127,46,Man
54,749139,DepthScenes,duration_manipulation_targetAtFixation,jsons/v1_VE250_randls_62.json,http://54.235.29.9/FacialAge/BNav_EC2/DepthDuration/v2_depth_duration_MTurk/v2_DepthDuration_HTML.html#97,97,1440,773,1440,900,8-30-2022,6-54-45,55,depth_duration_stimuli/001136_2014-06-17_15-19-41_260595134347_rgbf000076-resize_3/001136_2014-06-17_15-19-41_260595134347_rgbf000076-resize_3-target.png,250,1.8655,7.0,2883,249,feet,jsons/v1_VE250_randls_62.json,588393,1214127,46,Man
55,749139,DepthScenes,duration_manipulation_targetAtFixation,jsons/v1_VE250_randls_62.json,http://54.235.29.9/FacialAge/BNav_EC2/DepthDuration/v2_depth_duration_MTurk/v2_DepthDuration_HTML.html#97,97,1440,773,1440,900,8-30-2022,6-54-45,56,depth_duration_stimuli/002509_2014-06-24_13-19-22_094959634447_rgbf000077-resize_0/002509_2014-06-24_13-19-22_094959634447_rgbf000077-resize_0-target.png,250,1.3065,5.0,2484,250,feet,jsons/v1_VE250_randls_62.json,588393,1214127,46,Man
56,749139,DepthScenes,duration_manipulation_targetAtFixation,jsons/v1_VE250_randls_62.json,http://54.235.29.9/FacialAge/BNav_EC2/DepthDuration/v2_depth_duration_MTurk/v2_DepthDuration_HTML.html#97,97,1440,773,1440,900,8-30-2022,6-54-45,57,depth_duration_stimuli/003338_2014-05-20_11-01-23_094959634447_rgbf000051-resize_6/003338_2014-05-20_11-01-23_094959634447_rgbf000051-resize_6-target.png,250,1.693,4.5,3578,255,feet,jsons/v1_VE250_randls_62.json,588393,1214127,46,Man
57,749139,DepthScenes,duration_manipulation_targetAtFixation,jsons/v1_VE250_randls_62.json,http://54.235.29.9/FacialAge/BNav_EC2/DepthDuration/v2_depth_duration_MTurk/v2_DepthDuration_HTML.html#97,97,1440,773,1440,900,8-30-2022,6-54-45,58,depth_duration_stimuli/002445_2014-06-28_20-32-16_260595134347_rgbf000029-resize_4/002445_2014-06-28_20-32-16_260595134347_rgbf000029-resize_4-target.png,250,2.5315,5.0,2321,253,feet,jsons/v1_VE250_randls_62.json,588393,1214127,46,Man
58,749139,DepthScenes,duration_manipulation_targetAtFixation,jsons/v1_VE250_randls_62.json,http://54.235.29.9/FacialAge/BNav_EC2/DepthDuration/v2_depth_duration_MTurk/v2_DepthDuration_HTML.html#97,97,1440,773,1440,900,8-30-2022,6-54-45,59,depth_duration_stimuli/000780_2014-06-08_22-28-29_260595134347_rgbf000126-resize_1/000780_2014-06-08_22-28-29_260595134347_rgbf000126-resize_1-target.png,250,3.3825,8.0,3325,255,feet,jsons/v1_VE250_randls_62.json,588393,1214127,46,Man
59,749139,DepthScenes,duration_manipulation_targetAtFixation,jsons/v1_VE250_randls_62.json,http://54.235.29.9/FacialAge/BNav_EC2/DepthDuration/v2_depth_duration_MTurk/v2_DepthDuration_HTML.html#97,97,1440,773,1440,900,8-30-2022,6-54-45,60,depth_duration_stimuli/001810_2014-06-26_20-51-35_260595134347_rgbf000040-resize_3/001810_2014-06-26_20-51-35_260595134347_rgbf000040-resize_3-target.png,250,2.2525,5.0,2458,254,feet,jsons/v1_VE250_randls_62.json,588393,1214127,46,Man
60,749139,DepthScenes,duration_manipulation_targetAtFixation,jsons/v1_VE250_randls_62.json,http://54.235.29.9/FacialAge/BNav_EC2/DepthDuration/v2_depth_duration_MTurk/v2_DepthDuration_HTML.html#97,97,1440,773,1440,900,8-30-2022,6-54-45,61,depth_duration_stimuli/003010_2014-06-15_12-54-35_094959634447_rgbf000112-resize_0/003010_2014-06-15_12-54-35_094959634447_rgbf000112-resize_0-target.png,250,3.1185,12.0,4219,251,feet,jsons/v1_VE250_randls_62.json,588393,1214127,46,Man
61,749139,DepthScenes,duration_manipulation_targetAtFixation,jsons/v1_VE250_randls_62.json,http://54.235.29.9/FacialAge/BNav_EC2/DepthDuration/v2_depth_duration_MTurk/v2_DepthDuration_HTML.html#97,97,1440,773,1440,900,8-30-2022,6-54-45,62,depth_duration_stimuli/000368_2014-06-09_15-53-01_260595134347_rgbf000155-resize_2/000368_2014-06-09_15-53-01_260595134347_rgbf000155-resize_2-target.png,250,2.4859999999999998,6.0,3002,253,feet,jsons/v1_VE250_randls_62.json,588393,1214127,46,Man
62,749139,DepthScenes,duration_manipulation_targetAtFixation,jsons/v1_VE250_randls_62.json,http://54.235.29.9/FacialAge/BNav_EC2/DepthDuration/v2_depth_duration_MTurk/v2_DepthDuration_HTML.html#97,97,1440,773,1440,900,8-30-2022,6-54-45,63,depth_duration_stimuli/002678_2014-06-13_16-15-32_094959634447_rgbf000151-resize_6/002678_2014-06-13_16-15-32_094959634447_rgbf000151-resize_6-target.png,250,2.1830000000000003,7.0,2788,254,feet,jsons/v1_VE250_randls_62.json,588393,1214127,46,Man
63,749139,DepthScenes,duration_manipulation_targetAtFixation,jsons/v1_VE250_randls_62.json,http://54.235.29.9/FacialAge/BNav_EC2/DepthDuration/v2_depth_duration_MTurk/v2_DepthDuration_HTML.html#97,97,1440,773,1440,900,8-30-2022,6-54-45,64,depth_duration_stimuli/000736_2014-06-08_18-24-15_260595134347_rgbf000206-resize_3/000736_2014-06-08_18-24-15_260595134347_rgbf000206-resize_3-target.png,250,3.515,7.0,2679,253,feet,jsons/v1_VE250_randls_62.json,588393,1214127,46,Man
64,749139,DepthScenes,duration_manipulation_targetAtFixation,jsons/v1_VE250_randls_62.json,http://54.235.29.9/FacialAge/BNav_EC2/DepthDuration/v2_depth_duration_MTurk/v2_DepthDuration_HTML.html#97,97,1440,773,1440,900,8-30-2022,6-54-45,65,depth_duration_stimuli/000137_2014-05-20_17-04-49_260595134347_rgbf000120-resize_1/000137_2014-05-20_17-04-49_260595134347_rgbf000120-resize_1-target.png,250,3.786,10.0,3177,249,feet,jsons/v1_VE250_randls_62.json,588393,1214127,46,Man
65,749139,DepthScenes,duration_manipulation_targetAtFixation,jsons/v1_VE250_randls_62.json,http://54.235.29.9/FacialAge/BNav_EC2/DepthDuration/v2_depth_duration_MTurk/v2_DepthDuration_HTML.html#97,97,1440,773,1440,900,8-30-2022,6-54-45,66,depth_duration_stimuli/001222_2014-06-17_16-24-06_260595134347_rgbf000073-resize_0/001222_2014-06-17_16-24-06_260595134347_rgbf000073-resize-original.jpg,250,1.4385,0.0,2779,250,feet,jsons/v1_VE250_randls_62.json,588393,1214127,46,Man
66,749139,DepthScenes,duration_manipulation_targetAtFixation,jsons/v1_VE250_randls_62.json,http://54.235.29.9/FacialAge/BNav_EC2/DepthDuration/v2_depth_duration_MTurk/v2_DepthDuration_HTML.html#97,97,1440,773,1440,900,8-30-2022,6-54-45,67,depth_duration_stimuli/002763_2014-06-22_19-13-10_094959634447_rgbf000075-resize_4/002763_2014-06-22_19-13-10_094959634447_rgbf000075-resize_4-target.png,250,1.68375,6.0,2420,250,feet,jsons/v1_VE250_randls_62.json,588393,1214127,46,Man
67,749139,DepthScenes,duration_manipulation_targetAtFixation,jsons/v1_VE250_randls_62.json,http://54.235.29.9/FacialAge/BNav_EC2/DepthDuration/v2_depth_duration_MTurk/v2_DepthDuration_HTML.html#97,97,1440,773,1440,900,8-30-2022,6-54-45,68,depth_duration_stimuli/002209_2014-06-28_18-36-10_260595134347_rgbf000051-resize_1/002209_2014-06-28_18-36-10_260595134347_rgbf000051-resize_1-target.png,250,2.057,5.0,2467,249,feet,jsons/v1_VE250_randls_62.json,588393,1214127,46,Man
68,749139,DepthScenes,duration_manipulation_targetAtFixation,jsons/v1_VE250_randls_62.json,http://54.235.29.9/FacialAge/BNav_EC2/DepthDuration/v2_depth_duration_MTurk/v2_DepthDuration_HTML.html#97,97,1440,773,1440,900,8-30-2022,6-54-45,69,depth_duration_stimuli/000917_2014-06-09_22-45-29_260595134347_rgbf000149-resize_3/000917_2014-06-09_22-45-29_260595134347_rgbf000149-resize_3-target.png,250,4.1865,8.0,2490,254,feet,jsons/v1_VE250_randls_62.json,588393,1214127,46,Man
69,749139,DepthScenes,duration_manipulation_targetAtFixation,jsons/v1_VE250_randls_62.json,http://54.235.29.9/FacialAge/BNav_EC2/DepthDuration/v2_depth_duration_MTurk/v2_DepthDuration_HTML.html#97,97,1440,773,1440,900,8-30-2022,6-54-45,70,depth_duration_stimuli/002323_2014-06-28_20-01-54_260595134347_rgbf000051-resize_4/002323_2014-06-28_20-01-54_260595134347_rgbf000051-resize_4-target.png,250,3.7310000000000003,10.0,3356,255,feet,jsons/v1_VE250_randls_62.json,588393,1214127,46,Man
70,749139,DepthScenes,duration_manipulation_targetAtFixation,jsons/v1_VE250_randls_62.json,http://54.235.29.9/FacialAge/BNav_EC2/DepthDuration/v2_depth_duration_MTurk/v2_DepthDuration_HTML.html#97,97,1440,773,1440,900,8-30-2022,6-54-45,71,depth_duration_stimuli/001133_2014-06-17_14-49-16_260595134347_rgbf000100-resize_0/001133_2014-06-17_14-49-16_260595134347_rgbf000100-resize_0-target.png,250,4.2115,12.0,3094,250,feet,jsons/v1_VE250_randls_62.json,588393,1214127,46,Man
71,749139,DepthScenes,duration_manipulation_targetAtFixation,jsons/v1_VE250_randls_62.json,http://54.235.29.9/FacialAge/BNav_EC2/DepthDuration/v2_depth_duration_MTurk/v2_DepthDuration_HTML.html#97,97,1440,773,1440,900,8-30-2022,6-54-45,72,depth_duration_stimuli/001132_2014-06-17_14-48-54_260595134347_rgbf000100-resize_2/001132_2014-06-17_14-48-54_260595134347_rgbf000100-resize_2-target.png,250,3.753,12.0,2784,247,feet,jsons/v1_VE250_randls_62.json,588393,1214127,46,Man
72,749139,DepthScenes,duration_manipulation_targetAtFixation,jsons/v1_VE250_randls_62.json,http://54.235.29.9/FacialAge/BNav_EC2/DepthDuration/v2_depth_duration_MTurk/v2_DepthDuration_HTML.html#97,97,1440,773,1440,900,8-30-2022,6-54-45,73,depth_duration_stimuli/003070_2014-06-15_14-58-27_094959634447_rgbf000150-resize_3/003070_2014-06-15_14-58-27_094959634447_rgbf000150-resize_3-target.png,250,2.9415,9.0,3051,250,feet,jsons/v1_VE250_randls_62.json,588393,1214127,46,Man
73,749139,DepthScenes,duration_manipulation_targetAtFixation,jsons/v1_VE250_randls_62.json,http://54.235.29.9/FacialAge/BNav_EC2/DepthDuration/v2_depth_duration_MTurk/v2_DepthDuration_HTML.html#97,97,1440,773,1440,900,8-30-2022,6-54-45,74,depth_duration_stimuli/000943_2014-06-09_19-31-07_260595134347_rgbf000128-resize_1/000943_2014-06-09_19-31-07_260595134347_rgbf000128-resize_1-target.png,250,1.9765,6.0,2595,251,feet,jsons/v1_VE250_randls_62.json,588393,1214127,46,Man
74,749139,DepthScenes,duration_manipulation_targetAtFixation,jsons/v1_VE250_randls_62.json,http://54.235.29.9/FacialAge/BNav_EC2/DepthDuration/v2_depth_duration_MTurk/v2_DepthDuration_HTML.html#97,97,1440,773,1440,900,8-30-2022,6-54-45,75,depth_duration_stimuli/000493_2014-06-09_21-01-18_260595134347_rgbf000196-resize_3/000493_2014-06-09_21-01-18_260595134347_rgbf000196-resize_3-target.png,250,3.44,7.0,2410,254,feet,jsons/v1_VE250_randls_62.json,588393,1214127,46,Man
75,749139,DepthScenes,duration_manipulation_targetAtFixation,jsons/v1_VE250_randls_62.json,http://54.235.29.9/FacialAge/BNav_EC2/DepthDuration/v2_depth_duration_MTurk/v2_DepthDuration_HTML.html#97,97,1440,773,1440,900,8-30-2022,6-54-45,76,depth_duration_stimuli/000191_2014-05-12_17-07-38_260595134347_rgbf000199-resize_0/000191_2014-05-12_17-07-38_260595134347_rgbf000199-resize_0-target.png,250,3.7995,12.0,3204,249,feet,jsons/v1_VE250_randls_62.json,588393,1214127,46,Man
76,749139,DepthScenes,duration_manipulation_targetAtFixation,jsons/v1_VE250_randls_62.json,http://54.235.29.9/FacialAge/BNav_EC2/DepthDuration/v2_depth_duration_MTurk/v2_DepthDuration_HTML.html#97,97,1440,773,1440,900,8-30-2022,6-54-45,77,depth_duration_stimuli/002964_2014-06-08_17-46-11_094959634447_rgbf000091-resize_4/002964_2014-06-08_17-46-11_094959634447_rgbf000091-resize_4-target.png,250,1.6909999999999998,4.0,3113,249,feet,jsons/v1_VE250_randls_62.json,588393,1214127,46,Man
77,749139,DepthScenes,duration_manipulation_targetAtFixation,jsons/v1_VE250_randls_62.json,http://54.235.29.9/FacialAge/BNav_EC2/DepthDuration/v2_depth_duration_MTurk/v2_DepthDuration_HTML.html#97,97,1440,773,1440,900,8-30-2022,6-54-45,78,depth_duration_stimuli/002136_2014-06-25_21-18-03_260595134347_rgbf000109-resize_3/002136_2014-06-25_21-18-03_260595134347_rgbf000109-resize_3-target.png,250,1.9569999999999999,5.0,2649,248,feet,jsons/v1_VE250_randls_62.json,588393,1214127,46,Man
78,749139,DepthScenes,duration_manipulation_targetAtFixation,jsons/v1_VE250_randls_62.json,http://54.235.29.9/FacialAge/BNav_EC2/DepthDuration/v2_depth_duration_MTurk/v2_DepthDuration_HTML.html#97,97,1440,773,1440,900,8-30-2022,6-54-45,79,depth_duration_stimuli/001570_2014-06-20_17-21-09_260595134347_rgbf000135-resize_4/001570_2014-06-20_17-21-09_260595134347_rgbf000135-resize_4-target.png,250,4.467,12.0,3197,255,feet,jsons/v1_VE250_randls_62.json,588393,1214127,46,Man
79,749139,DepthScenes,duration_manipulation_targetAtFixation,jsons/v1_VE250_randls_62.json,http://54.235.29.9/FacialAge/BNav_EC2/DepthDuration/v2_depth_duration_MTurk/v2_DepthDuration_HTML.html#97,97,1440,773,1440,900,8-30-2022,6-54-45,80,depth_duration_stimuli/001392_2014-06-19_16-07-59_260595134347_rgbf000046-resize_1/001392_2014-06-19_16-07-59_260595134347_rgbf000046-resize_1-target.png,250,4.135,13.0,3487,256,feet,jsons/v1_VE250_randls_62.json,588393,1214127,46,Man
80,749139,DepthScenes,duration_manipulation_targetAtFixation,jsons/v1_VE250_randls_62.json,http://54.235.29.9/FacialAge/BNav_EC2/DepthDuration/v2_depth_duration_MTurk/v2_DepthDuration_HTML.html#97,97,1440,773,1440,900,8-30-2022,6-54-45,81,depth_duration_stimuli/000506_2014-06-08_23-21-00_260595134347_rgbf000070-resize_7/000506_2014-06-08_23-21-00_260595134347_rgbf000070-resize_7-target.png,250,4.0585,12.0,3309,249,feet,jsons/v1_VE250_randls_62.json,588393,1214127,46,Man
81,749139,DepthScenes,duration_manipulation_targetAtFixation,jsons/v1_VE250_randls_62.json,http://54.235.29.9/FacialAge/BNav_EC2/DepthDuration/v2_depth_duration_MTurk/v2_DepthDuration_HTML.html#97,97,1440,773,1440,900,8-30-2022,6-54-45,82,depth_duration_stimuli/003079_2014-06-15_15-18-20_094959634447_rgbf000152-resize_8/003079_2014-06-15_15-18-20_094959634447_rgbf000152-resize_8-target.png,250,2.8775,11.0,3163,251,feet,jsons/v1_VE250_randls_62.json,588393,1214127,46,Man
82,749139,DepthScenes,duration_manipulation_targetAtFixation,jsons/v1_VE250_randls_62.json,http://54.235.29.9/FacialAge/BNav_EC2/DepthDuration/v2_depth_duration_MTurk/v2_DepthDuration_HTML.html#97,97,1440,773,1440,900,8-30-2022,6-54-45,83,depth_duration_stimuli/003292_2014-05-14_21-53-49_094959634447_rgbf000100-resize_2/003292_2014-05-14_21-53-49_094959634447_rgbf000100-resize_2-target.png,250,3.4815,7.0,2718,248,feet,jsons/v1_VE250_randls_62.json,588393,1214127,46,Man
83,749139,DepthScenes,duration_manipulation_targetAtFixation,jsons/v1_VE250_randls_62.json,http://54.235.29.9/FacialAge/BNav_EC2/DepthDuration/v2_depth_duration_MTurk/v2_DepthDuration_HTML.html#97,97,1440,773,1440,900,8-30-2022,6-54-45,84,depth_duration_stimuli/002639_2014-06-24_14-51-37_094959634447_rgbf000074-resize_4/002639_2014-06-24_14-51-37_094959634447_rgbf000074-resize_4-target.png,250,4.0375,9.0,3712,254,feet,jsons/v1_VE250_randls_62.json,588393,1214127,46,Man
84,749139,DepthScenes,duration_manipulation_targetAtFixation,jsons/v1_VE250_randls_62.json,http://54.235.29.9/FacialAge/BNav_EC2/DepthDuration/v2_depth_duration_MTurk/v2_DepthDuration_HTML.html#97,97,1440,773,1440,900,8-30-2022,6-54-45,85,depth_duration_stimuli/001167_2014-06-17_15-38-07_260595134347_rgbf000108-resize_0/001167_2014-06-17_15-38-07_260595134347_rgbf000108-resize_0-target.png,250,1.8505,5.0,2554,251,feet,jsons/v1_VE250_randls_62.json,588393,1214127,46,Man
85,749139,DepthScenes,duration_manipulation_targetAtFixation,jsons/v1_VE250_randls_62.json,http://54.235.29.9/FacialAge/BNav_EC2/DepthDuration/v2_depth_duration_MTurk/v2_DepthDuration_HTML.html#97,97,1440,773,1440,900,8-30-2022,6-54-45,86,depth_duration_stimuli/003587_2014-05-23_16-48-02_094959634447_rgbf002384-resize_2/003587_2014-05-23_16-48-02_094959634447_rgbf002384-resize_2-target.png,250,1.357,4.0,2567,250,feet,jsons/v1_VE250_randls_62.json,588393,1214127,46,Man
86,749139,DepthScenes,duration_manipulation_targetAtFixation,jsons/v1_VE250_randls_62.json,http://54.235.29.9/FacialAge/BNav_EC2/DepthDuration/v2_depth_duration_MTurk/v2_DepthDuration_HTML.html#97,97,1440,773,1440,900,8-30-2022,6-54-45,87,depth_duration_stimuli/000470_2014-06-09_19-42-40_260595134347_rgbf000094-resize_1/000470_2014-06-09_19-42-40_260595134347_rgbf000094-resize_1-target.png,250,1.831,4.5,3234,255,feet,jsons/v1_VE250_randls_62.json,588393,1214127,46,Man
87,749139,DepthScenes,duration_manipulation_targetAtFixation,jsons/v1_VE250_randls_62.json,http://54.235.29.9/FacialAge/BNav_EC2/DepthDuration/v2_depth_duration_MTurk/v2_DepthDuration_HTML.html#97,97,1440,773,1440,900,8-30-2022,6-54-45,88,depth_duration_stimuli/000109_2014-05-14_23-41-52_260595134347_rgbf000035-resize_9/000109_2014-05-14_23-41-52_260595134347_rgbf000035-resize_9-target.png,250,1.3545,4.0,3782,254,feet,jsons/v1_VE250_randls_62.json,588393,1214127,46,Man
88,749139,DepthScenes,duration_manipulation_targetAtFixation,jsons/v1_VE250_randls_62.json,http://54.235.29.9/FacialAge/BNav_EC2/DepthDuration/v2_depth_duration_MTurk/v2_DepthDuration_HTML.html#97,97,1440,773,1440,900,8-30-2022,6-54-45,89,depth_duration_stimuli/003621_2014-05-23_18-06-08_094959634447_rgbf000101-resize_1/003621_2014-05-23_18-06-08_094959634447_rgbf000101-resize_1-target.png,250,3.9835,8.0,2924,253,feet,jsons/v1_VE250_randls_62.json,588393,1214127,46,Man
89,749139,DepthScenes,duration_manipulation_targetAtFixation,jsons/v1_VE250_randls_62.json,http://54.235.29.9/FacialAge/BNav_EC2/DepthDuration/v2_depth_duration_MTurk/v2_DepthDuration_HTML.html#97,97,1440,773,1440,900,8-30-2022,6-54-45,90,depth_duration_stimuli/001584_2014-06-20_11-07-43_260595134347_rgbf000002-resize_1/001584_2014-06-20_11-07-43_260595134347_rgbf000002-resize_1-target.png,250,3.53,10.0,3132,251,feet,jsons/v1_VE250_randls_62.json,588393,1214127,46,Man
90,749139,DepthScenes,duration_manipulation_targetAtFixation,jsons/v1_VE250_randls_62.json,http://54.235.29.9/FacialAge/BNav_EC2/DepthDuration/v2_depth_duration_MTurk/v2_DepthDuration_HTML.html#97,97,1440,773,1440,900,8-30-2022,6-54-45,91,depth_duration_stimuli/002788_2014-06-22_19-36-03_094959634447_rgbf000088-resize_2/002788_2014-06-22_19-36-03_094959634447_rgbf000088-resize_2-target.png,250,1.6465,8.0,2513,243,feet,jsons/v1_VE250_randls_62.json,588393,1214127,46,Man
91,749139,DepthScenes,duration_manipulation_targetAtFixation,jsons/v1_VE250_randls_62.json,http://54.235.29.9/FacialAge/BNav_EC2/DepthDuration/v2_depth_duration_MTurk/v2_DepthDuration_HTML.html#97,97,1440,773,1440,900,8-30-2022,6-54-45,92,depth_duration_stimuli/000749_2014-06-08_21-55-06_260595134347_rgbf000070-resize_2/000749_2014-06-08_21-55-06_260595134347_rgbf000070-resize_2-target.png,250,2.331,6.0,3022,250,feet,jsons/v1_VE250_randls_62.json,588393,1214127,46,Man
92,749139,DepthScenes,duration_manipulation_targetAtFixation,jsons/v1_VE250_randls_62.json,http://54.235.29.9/FacialAge/BNav_EC2/DepthDuration/v2_depth_duration_MTurk/v2_DepthDuration_HTML.html#97,97,1440,773,1440,900,8-30-2022,6-54-45,93,depth_duration_stimuli/000469_2014-06-09_19-42-10_260595134347_rgbf000081-resize_1/000469_2014-06-09_19-42-10_260595134347_rgbf000081-resize_1-target.png,250,1.652,5.0,2280,248,feet,jsons/v1_VE250_randls_62.json,588393,1214127,46,Man
93,749139,DepthScenes,duration_manipulation_targetAtFixation,jsons/v1_VE250_randls_62.json,http://54.235.29.9/FacialAge/BNav_EC2/DepthDuration/v2_depth_duration_MTurk/v2_DepthDuration_HTML.html#97,97,1440,773,1440,900,8-30-2022,6-54-45,94,depth_duration_stimuli/000483_2014-06-09_20-41-45_260595134347_rgbf000116-resize_4/000483_2014-06-09_20-41-45_260595134347_rgbf000116-resize_4-target.png,250,1.337,4.5,3648,253,feet,jsons/v1_VE250_randls_62.json,588393,1214127,46,Man
94,749139,DepthScenes,duration_manipulation_targetAtFixation,jsons/v1_VE250_randls_62.json,http://54.235.29.9/FacialAge/BNav_EC2/DepthDuration/v2_depth_duration_MTurk/v2_DepthDuration_HTML.html#97,97,1440,773,1440,900,8-30-2022,6-54-45,95,depth_duration_stimuli/001110_2014-06-15_17-25-28_260595134347_rgbf000150-resize_1/001110_2014-06-15_17-25-28_260595134347_rgbf000150-resize_1-target.png,250,1.7115,5.0,2580,252,feet,jsons/v1_VE250_randls_62.json,588393,1214127,46,Man
95,749139,DepthScenes,duration_manipulation_targetAtFixation,jsons/v1_VE250_randls_62.json,http://54.235.29.9/FacialAge/BNav_EC2/DepthDuration/v2_depth_duration_MTurk/v2_DepthDuration_HTML.html#97,97,1440,773,1440,900,8-30-2022,6-54-45,96,depth_duration_stimuli/000927_2014-06-09_16-32-30_260595134347_rgbf000123-resize_3/000927_2014-06-09_16-32-30_260595134347_rgbf000123-resize_3-target.png,250,2.6785,8.0,2584,250,feet,jsons/v1_VE250_randls_62.json,588393,1214127,46,Man
96,749139,DepthScenes,duration_manipulation_targetAtFixation,jsons/v1_VE250_randls_62.json,http://54.235.29.9/FacialAge/BNav_EC2/DepthDuration/v2_depth_duration_MTurk/v2_DepthDuration_HTML.html#97,97,1440,773,1440,900,8-30-2022,6-54-45,97,depth_duration_stimuli/001055_2014-06-08_18-45-35_260595134347_rgbf000111-resize_4/001055_2014-06-08_18-45-35_260595134347_rgbf000111-resize_4-target.png,250,2.4290000000000003,11.0,3774,251,feet,jsons/v1_VE250_randls_62.json,588393,1214127,46,Man
97,749139,DepthScenes,duration_manipulation_targetAtFixation,jsons/v1_VE250_randls_62.json,http://54.235.29.9/FacialAge/BNav_EC2/DepthDuration/v2_depth_duration_MTurk/v2_DepthDuration_HTML.html#97,97,1440,773,1440,900,8-30-2022,6-54-45,98,depth_duration_stimuli/000549_2014-06-08_22-10-24_260595134347_rgbf000247-resize_3/000549_2014-06-08_22-10-24_260595134347_rgbf000247-resize_3-target.png,250,1.841,5.0,2476,249,feet,jsons/v1_VE250_randls_62.json,588393,1214127,46,Man
98,749139,DepthScenes,duration_manipulation_targetAtFixation,jsons/v1_VE250_randls_62.json,http://54.235.29.9/FacialAge/BNav_EC2/DepthDuration/v2_depth_duration_MTurk/v2_DepthDuration_HTML.html#97,97,1440,773,1440,900,8-30-2022,6-54-45,99,depth_duration_stimuli/001540_2014-06-20_17-01-05_260595134347_rgbf000086-resize_2/001540_2014-06-20_17-01-05_260595134347_rgbf000086-resize-original.jpg,250,1.459,0.0,2867,249,feet,jsons/v1_VE250_randls_62.json,588393,1214127,46,Man
99,749139,DepthScenes,duration_manipulation_targetAtFixation,jsons/v1_VE250_randls_62.json,http://54.235.29.9/FacialAge/BNav_EC2/DepthDuration/v2_depth_duration_MTurk/v2_DepthDuration_HTML.html#97,97,1440,773,1440,900,8-30-2022,6-54-45,100,depth_duration_stimuli/000773_2014-06-08_22-24-54_260595134347_rgbf000093-resize_1/000773_2014-06-08_22-24-54_260595134347_rgbf000093-resize_1-target.png,250,4.973,10.0,2998,251,feet,jsons/v1_VE250_randls_62.json,588393,1214127,46,Man
100,749139,DepthScenes,duration_manipulation_targetAtFixation,jsons/v1_VE250_randls_62.json,http://54.235.29.9/FacialAge/BNav_EC2/DepthDuration/v2_depth_duration_MTurk/v2_DepthDuration_HTML.html#97,97,1440,773,1440,900,8-30-2022,6-54-45,101,depth_duration_stimuli/002414_2014-06-28_20-24-58_260595134347_rgbf000067-resize_4/002414_2014-06-28_20-24-58_260595134347_rgbf000067-resize_4-target.png,250,4.363,12.0,3119,247,feet,jsons/v1_VE250_randls_62.json,588393,1214127,46,Man
101,749139,DepthScenes,duration_manipulation_targetAtFixation,jsons/v1_VE250_randls_62.json,http://54.235.29.9/FacialAge/BNav_EC2/DepthDuration/v2_depth_duration_MTurk/v2_DepthDuration_HTML.html#97,97,1440,773,1440,900,8-30-2022,6-54-45,102,depth_duration_stimuli/003534_2014-05-22_15-06-10_094959634447_rgbf000102-resize_4/003534_2014-05-22_15-06-10_094959634447_rgbf000102-resize_4-target.png,250,1.426,5.0,2926,252,feet,jsons/v1_VE250_randls_62.json,588393,1214127,46,Man
102,749139,DepthScenes,duration_manipulation_targetAtFixation,jsons/v1_VE250_randls_62.json,http://54.235.29.9/FacialAge/BNav_EC2/DepthDuration/v2_depth_duration_MTurk/v2_DepthDuration_HTML.html#97,97,1440,773,1440,900,8-30-2022,6-54-45,103,depth_duration_stimuli/002637_2014-06-24_14-51-13_094959634447_rgbf000066-resize_4/002637_2014-06-24_14-51-13_094959634447_rgbf000066-resize_4-target.png,250,1.9955,8.0,2658,253,feet,jsons/v1_VE250_randls_62.json,588393,1214127,46,Man
103,749139,DepthScenes,duration_manipulation_targetAtFixation,jsons/v1_VE250_randls_62.json,http://54.235.29.9/FacialAge/BNav_EC2/DepthDuration/v2_depth_duration_MTurk/v2_DepthDuration_HTML.html#97,97,1440,773,1440,900,8-30-2022,6-54-45,104,depth_duration_stimuli/002748_2014-06-22_19-07-22_094959634447_rgbf000078-resize_1/002748_2014-06-22_19-07-22_094959634447_rgbf000078-resize_1-target.png,250,4.6705,13.0,2932,255,feet,jsons/v1_VE250_randls_62.json,588393,1214127,46,Man
104,749139,DepthScenes,duration_manipulation_targetAtFixation,jsons/v1_VE250_randls_62.json,http://54.235.29.9/FacialAge/BNav_EC2/DepthDuration/v2_depth_duration_MTurk/v2_DepthDuration_HTML.html#97,97,1440,773,1440,900,8-30-2022,6-54-45,105,depth_duration_stimuli/002995_2014-06-15_12-31-26_094959634447_rgbf000150-resize_1/002995_2014-06-15_12-31-26_094959634447_rgbf000150-resize_1-target.png,250,3.8360000000000003,12.0,2263,250,feet,jsons/v1_VE250_randls_62.json,588393,1214127,46,Man
105,749139,DepthScenes,duration_manipulation_targetAtFixation,jsons/v1_VE250_randls_62.json,http://54.235.29.9/FacialAge/BNav_EC2/DepthDuration/v2_depth_duration_MTurk/v2_DepthDuration_HTML.html#97,97,1440,773,1440,900,8-30-2022,6-54-45,106,depth_duration_stimuli/001056_2014-06-08_18-46-44_260595134347_rgbf000068-resize_0/001056_2014-06-08_18-46-44_260595134347_rgbf000068-resize_0-target.png,250,2.6625,10.0,2871,251,feet,jsons/v1_VE250_randls_62.json,588393,1214127,46,Man
106,749139,DepthScenes,duration_manipulation_targetAtFixation,jsons/v1_VE250_randls_62.json,http://54.235.29.9/FacialAge/BNav_EC2/DepthDuration/v2_depth_duration_MTurk/v2_DepthDuration_HTML.html#97,97,1440,773,1440,900,8-30-2022,6-54-45,107,depth_duration_stimuli/002199_2014-06-28_18-33-56_260595134347_rgbf000074-resize_0/002199_2014-06-28_18-33-56_260595134347_rgbf000074-resize_0-target.png,250,1.996,5.0,3114,247,feet,jsons/v1_VE250_randls_62.json,588393,1214127,46,Man
107,749139,DepthScenes,duration_manipulation_targetAtFixation,jsons/v1_VE250_randls_62.json,http://54.235.29.9/FacialAge/BNav_EC2/DepthDuration/v2_depth_duration_MTurk/v2_DepthDuration_HTML.html#97,97,1440,773,1440,900,8-30-2022,6-54-45,108,depth_duration_stimuli/001029_2014-06-08_13-17-57_260595134347_rgbf000065-resize_1/001029_2014-06-08_13-17-57_260595134347_rgbf000065-resize_1-target.png,250,3.0835,8.0,2608,246,feet,jsons/v1_VE250_randls_62.json,588393,1214127,46,Man
108,749139,DepthScenes,duration_manipulation_targetAtFixation,jsons/v1_VE250_randls_62.json,http://54.235.29.9/FacialAge/BNav_EC2/DepthDuration/v2_depth_duration_MTurk/v2_DepthDuration_HTML.html#97,97,1440,773,1440,900,8-30-2022,6-54-45,109,depth_duration_stimuli/000677_2014-06-08_23-10-32_260595134347_rgbf000158-resize_6/000677_2014-06-08_23-10-32_260595134347_rgbf000158-resize_6-target.png,250,3.556,8.0,2767,247,feet,jsons/v1_VE250_randls_62.json,588393,1214127,46,Man
109,749139,DepthScenes,duration_manipulation_targetAtFixation,jsons/v1_VE250_randls_62.json,http://54.235.29.9/FacialAge/BNav_EC2/DepthDuration/v2_depth_duration_MTurk/v2_DepthDuration_HTML.html#97,97,1440,773,1440,900,8-30-2022,6-54-45,110,depth_duration_stimuli/002272_2014-06-28_18-53-56_260595134347_rgbf000067-resize_2/002272_2014-06-28_18-53-56_260595134347_rgbf000067-resize_2-target.png,250,1.138,5.0,3157,248,feet,jsons/v1_VE250_randls_62.json,588393,1214127,46,Man
110,749139,DepthScenes,duration_manipulation_targetAtFixation,jsons/v1_VE250_randls_62.json,http://54.235.29.9/FacialAge/BNav_EC2/DepthDuration/v2_depth_duration_MTurk/v2_DepthDuration_HTML.html#97,97,1440,773,1440,900,8-30-2022,6-54-45,111,depth_duration_stimuli/001571_2014-06-20_17-21-32_260595134347_rgbf000089-resize_1/001571_2014-06-20_17-21-32_260595134347_rgbf000089-resize_1-target.png,250,1.86,5.0,2041,255,feet,jsons/v1_VE250_randls_62.json,588393,1214127,46,Man
111,749139,DepthScenes,duration_manipulation_targetAtFixation,jsons/v1_VE250_randls_62.json,http://54.235.29.9/FacialAge/BNav_EC2/DepthDuration/v2_depth_duration_MTurk/v2_DepthDuration_HTML.html#97,97,1440,773,1440,900,8-30-2022,6-54-45,112,depth_duration_stimuli/002989_2014-06-15_12-25-03_094959634447_rgbf000150-resize_3/002989_2014-06-15_12-25-03_094959634447_rgbf000150-resize_3-target.png,250,4.1975,12.0,3170,251,feet,jsons/v1_VE250_randls_62.json,588393,1214127,46,Man
112,749139,DepthScenes,duration_manipulation_targetAtFixation,jsons/v1_VE250_randls_62.json,http://54.235.29.9/FacialAge/BNav_EC2/DepthDuration/v2_depth_duration_MTurk/v2_DepthDuration_HTML.html#97,97,1440,773,1440,900,8-30-2022,6-54-45,113,depth_duration_stimuli/000866_2014-06-09_20-45-42_260595134347_rgbf000139-resize_1/000866_2014-06-09_20-45-42_260595134347_rgbf000139-resize_1-target.png,250,3.2155,9.0,2594,250,feet,jsons/v1_VE250_randls_62.json,588393,1214127,46,Man
113,749139,DepthScenes,duration_manipulation_targetAtFixation,jsons/v1_VE250_randls_62.json,http://54.235.29.9/FacialAge/BNav_EC2/DepthDuration/v2_depth_duration_MTurk/v2_DepthDuration_HTML.html#97,97,1440,773,1440,900,8-30-2022,6-54-45,114,depth_duration_stimuli/002600_2014-06-24_14-27-04_094959634447_rgbf000074-resize_2/002600_2014-06-24_14-27-04_094959634447_rgbf000074-resize_2-target.png,250,2.7575,8.0,2497,252,feet,jsons/v1_VE250_randls_62.json,588393,1214127,46,Man
114,749139,DepthScenes,duration_manipulation_targetAtFixation,jsons/v1_VE250_randls_62.json,http://54.235.29.9/FacialAge/BNav_EC2/DepthDuration/v2_depth_duration_MTurk/v2_DepthDuration_HTML.html#97,97,1440,773,1440,900,8-30-2022,6-54-45,115,depth_duration_stimuli/003228_2014-05-14_13-42-35_094959634447_rgbf000101-resize_1/003228_2014-05-14_13-42-35_094959634447_rgbf000101-resize_1-target.png,250,1.9680000000000002,7.0,2507,250,feet,jsons/v1_VE250_randls_62.json,588393,1214127,46,Man
115,749139,DepthScenes,duration_manipulation_targetAtFixation,jsons/v1_VE250_randls_62.json,http://54.235.29.9/FacialAge/BNav_EC2/DepthDuration/v2_depth_duration_MTurk/v2_DepthDuration_HTML.html#97,97,1440,773,1440,900,8-30-2022,6-54-45,116,depth_duration_stimuli/001170_2014-06-17_15-43-44_260595134347_rgbf000096-resize_6/001170_2014-06-17_15-43-44_260595134347_rgbf000096-resize-original.jpg,250,1.1909999999999998,0.0,2473,250,feet,jsons/v1_VE250_randls_62.json,588393,1214127,46,Man
116,749139,DepthScenes,duration_manipulation_targetAtFixation,jsons/v1_VE250_randls_62.json,http://54.235.29.9/FacialAge/BNav_EC2/DepthDuration/v2_depth_duration_MTurk/v2_DepthDuration_HTML.html#97,97,1440,773,1440,900,8-30-2022,6-54-45,117,depth_duration_stimuli/001244_2014-06-17_16-47-45_260595134347_rgbf000030-resize_4/001244_2014-06-17_16-47-45_260595134347_rgbf000030-resize_4-target.png,250,2.0425,7.0,2570,254,feet,jsons/v1_VE250_randls_62.json,588393,1214127,46,Man
117,749139,DepthScenes,duration_manipulation_targetAtFixation,jsons/v1_VE250_randls_62.json,http://54.235.29.9/FacialAge/BNav_EC2/DepthDuration/v2_depth_duration_MTurk/v2_DepthDuration_HTML.html#97,97,1440,773,1440,900,8-30-2022,6-54-45,118,depth_duration_stimuli/003495_2014-05-21_16-01-51_094959634447_rgbf000100-resize_3/003495_2014-05-21_16-01-51_094959634447_rgbf000100-resize_3-target.png,250,1.6255,5.0,2436,252,feet,jsons/v1_VE250_randls_62.json,588393,1214127,46,Man
118,749139,DepthScenes,duration_manipulation_targetAtFixation,jsons/v1_VE250_randls_62.json,http://54.235.29.9/FacialAge/BNav_EC2/DepthDuration/v2_depth_duration_MTurk/v2_DepthDuration_HTML.html#97,97,1440,773,1440,900,8-30-2022,6-54-45,119,depth_duration_stimuli/000906_2014-06-08_13-35-43_260595134347_rgbf000155-resize_1/000906_2014-06-08_13-35-43_260595134347_rgbf000155-resize_1-target.png,250,2.8489999999999998,12.0,2592,254,feet,jsons/v1_VE250_randls_62.json,588393,1214127,46,Man
119,749139,DepthScenes,duration_manipulation_targetAtFixation,jsons/v1_VE250_randls_62.json,http://54.235.29.9/FacialAge/BNav_EC2/DepthDuration/v2_depth_duration_MTurk/v2_DepthDuration_HTML.html#97,97,1440,773,1440,900,8-30-2022,6-54-45,120,depth_duration_stimuli/002805_2014-06-22_19-54-03_094959634447_rgbf000079-resize_1/002805_2014-06-22_19-54-03_094959634447_rgbf000079-resize_1-target.png,250,3.1439999999999997,12.0,2478,246,feet,jsons/v1_VE250_randls_62.json,588393,1214127,46,Man
120,749139,DepthScenes,duration_manipulation_targetAtFixation,jsons/v1_VE250_randls_62.json,http://54.235.29.9/FacialAge/BNav_EC2/DepthDuration/v2_depth_duration_MTurk/v2_DepthDuration_HTML.html#97,97,1440,773,1440,900,8-30-2022,6-54-45,121,depth_duration_stimuli/000642_2014-06-08_16-59-25_260595134347_rgbf000098-resize_2/000642_2014-06-08_16-59-25_260595134347_rgbf000098-resize_2-target.png,250,2.8815,8.0,2625,248,feet,jsons/v1_VE250_randls_62.json,588393,1214127,46,Man
121,749139,DepthScenes,duration_manipulation_targetAtFixation,jsons/v1_VE250_randls_62.json,http://54.235.29.9/FacialAge/BNav_EC2/DepthDuration/v2_depth_duration_MTurk/v2_DepthDuration_HTML.html#97,97,1440,773,1440,900,8-30-2022,6-54-45,122,depth_duration_stimuli/002425_2014-06-28_20-27-29_260595134347_rgbf000031-resize_8/002425_2014-06-28_20-27-29_260595134347_rgbf000031-resize_8-target.png,250,3.8960000000000004,11.0,3117,251,feet,jsons/v1_VE250_randls_62.json,588393,1214127,46,Man
122,749139,DepthScenes,duration_manipulation_targetAtFixation,jsons/v1_VE250_randls_62.json,http://54.235.29.9/FacialAge/BNav_EC2/DepthDuration/v2_depth_duration_MTurk/v2_DepthDuration_HTML.html#97,97,1440,773,1440,900,8-30-2022,6-54-45,123,depth_duration_stimuli/002375_2014-06-28_20-13-44_260595134347_rgbf000032-resize_1/002375_2014-06-28_20-13-44_260595134347_rgbf000032-resize_1-target.png,250,4.0175,7.0,2522,250,feet,jsons/v1_VE250_randls_62.json,588393,1214127,46,Man
123,749139,DepthScenes,duration_manipulation_targetAtFixation,jsons/v1_VE250_randls_62.json,http://54.235.29.9/FacialAge/BNav_EC2/DepthDuration/v2_depth_duration_MTurk/v2_DepthDuration_HTML.html#97,97,1440,773,1440,900,8-30-2022,6-54-45,124,depth_duration_stimuli/002657_2014-06-13_15-29-54_094959634447_rgbf000150-resize_1/002657_2014-06-13_15-29-54_094959634447_rgbf000150-resize_1-target.png,250,4.919,9.0,3124,250,feet,jsons/v1_VE250_randls_62.json,588393,1214127,46,Man
124,749139,DepthScenes,duration_manipulation_targetAtFixation,jsons/v1_VE250_randls_62.json,http://54.235.29.9/FacialAge/BNav_EC2/DepthDuration/v2_depth_duration_MTurk/v2_DepthDuration_HTML.html#97,97,1440,773,1440,900,8-30-2022,6-54-45,125,depth_duration_stimuli/001011_2014-06-08_23-18-54_260595134347_rgbf000044-resize_4/001011_2014-06-08_23-18-54_260595134347_rgbf000044-resize_4-target.png,250,2.4730000000000003,9.0,2714,252,feet,jsons/v1_VE250_randls_62.json,588393,1214127,46,Man
125,749139,DepthScenes,duration_manipulation_targetAtFixation,jsons/v1_VE250_randls_62.json,http://54.235.29.9/FacialAge/BNav_EC2/DepthDuration/v2_depth_duration_MTurk/v2_DepthDuration_HTML.html#97,97,1440,773,1440,900,8-30-2022,6-54-45,126,depth_duration_stimuli/002875_2014-06-01_15-19-00_094959634447_rgbf000151-resize_1/002875_2014-06-01_15-19-00_094959634447_rgbf000151-resize_1-target.png,250,1.9675,8.0,2868,250,feet,jsons/v1_VE250_randls_62.json,588393,1214127,46,Man
126,749139,DepthScenes,duration_manipulation_targetAtFixation,jsons/v1_VE250_randls_62.json,http://54.235.29.9/FacialAge/BNav_EC2/DepthDuration/v2_depth_duration_MTurk/v2_DepthDuration_HTML.html#97,97,1440,773,1440,900,8-30-2022,6-54-45,127,depth_duration_stimuli/002153_2014-06-25_21-27-18_260595134347_rgbf000038-resize_5/002153_2014-06-25_21-27-18_260595134347_rgbf000038-resize_5-target.png,250,2.505,7.0,2872,251,feet,jsons/v1_VE250_randls_62.json,588393,1214127,46,Man
127,749139,DepthScenes,duration_manipulation_targetAtFixation,jsons/v1_VE250_randls_62.json,http://54.235.29.9/FacialAge/BNav_EC2/DepthDuration/v2_depth_duration_MTurk/v2_DepthDuration_HTML.html#97,97,1440,773,1440,900,8-30-2022,6-54-45,128,depth_duration_stimuli/002660_2014-06-13_15-44-18_094959634447_rgbf001878-resize_2/002660_2014-06-13_15-44-18_094959634447_rgbf001878-resize_2-target.png,250,3.576,9.0,3484,250,feet,jsons/v1_VE250_randls_62.json,588393,1214127,46,Man
128,749139,DepthScenes,duration_manipulation_targetAtFixation,jsons/v1_VE250_randls_62.json,http://54.235.29.9/FacialAge/BNav_EC2/DepthDuration/v2_depth_duration_MTurk/v2_DepthDuration_HTML.html#97,97,1440,773,1440,900,8-30-2022,6-54-45,129,depth_duration_stimuli/002663_2014-06-13_15-50-26_094959634447_rgbf000075-resize_1/002663_2014-06-13_15-50-26_094959634447_rgbf000075-resize_1-target.png,250,4.7495,12.0,2537,250,feet,jsons/v1_VE250_randls_62.json,588393,1214127,46,Man
129,749139,DepthScenes,duration_manipulation_targetAtFixation,jsons/v1_VE250_randls_62.json,http://54.235.29.9/FacialAge/BNav_EC2/DepthDuration/v2_depth_duration_MTurk/v2_DepthDuration_HTML.html#97,97,1440,773,1440,900,8-30-2022,6-54-45,130,depth_duration_stimuli/000409_2014-06-04_19-23-33_260595134347_rgbf000067-resize_0/000409_2014-06-04_19-23-33_260595134347_rgbf000067-resize_0-target.png,250,3.7335,10.0,3176,254,feet,jsons/v1_VE250_randls_62.json,588393,1214127,46,Man
130,749139,DepthScenes,duration_manipulation_targetAtFixation,jsons/v1_VE250_randls_62.json,http://54.235.29.9/FacialAge/BNav_EC2/DepthDuration/v2_depth_duration_MTurk/v2_DepthDuration_HTML.html#97,97,1440,773,1440,900,8-30-2022,6-54-45,131,depth_duration_stimuli/002213_2014-06-28_18-37-58_260595134347_rgbf000055-resize_1/002213_2014-06-28_18-37-58_260595134347_rgbf000055-resize_1-target.png,250,3.62,14.0,2970,249,feet,jsons/v1_VE250_randls_62.json,588393,1214127,46,Man
131,749139,DepthScenes,duration_manipulation_targetAtFixation,jsons/v1_VE250_randls_62.json,http://54.235.29.9/FacialAge/BNav_EC2/DepthDuration/v2_depth_duration_MTurk/v2_DepthDuration_HTML.html#97,97,1440,773,1440,900,8-30-2022,6-54-45,132,depth_duration_stimuli/000691_2014-06-08_13-08-50_260595134347_rgbf000132-resize_3/000691_2014-06-08_13-08-50_260595134347_rgbf000132-resize_3-target.png,250,4.1530000000000005,12.0,2417,248,feet,jsons/v1_VE250_randls_62.json,588393,1214127,46,Man
132,749139,DepthScenes,duration_manipulation_targetAtFixation,jsons/v1_VE250_randls_62.json,http://54.235.29.9/FacialAge/BNav_EC2/DepthDuration/v2_depth_duration_MTurk/v2_DepthDuration_HTML.html#97,97,1440,773,1440,900,8-30-2022,6-54-45,133,depth_duration_stimuli/001150_2014-06-17_15-27-34_260595134347_rgbf000108-resize_2/001150_2014-06-17_15-27-34_260595134347_rgbf000108-resize_2-target.png,250,4.0325,11.0,2571,255,feet,jsons/v1_VE250_randls_62.json,588393,1214127,46,Man
133,749139,DepthScenes,duration_manipulation_targetAtFixation,jsons/v1_VE250_randls_62.json,http://54.235.29.9/FacialAge/BNav_EC2/DepthDuration/v2_depth_duration_MTurk/v2_DepthDuration_HTML.html#97,97,1440,773,1440,900,8-30-2022,6-54-45,134,depth_duration_stimuli/000665_2014-06-09_20-42-35_260595134347_rgbf000110-resize_1/000665_2014-06-09_20-42-35_260595134347_rgbf000110-resize_1-target.png,250,3.057,10.0,2855,250,feet,jsons/v1_VE250_randls_62.json,588393,1214127,46,Man
134,749139,DepthScenes,duration_manipulation_targetAtFixation,jsons/v1_VE250_randls_62.json,http://54.235.29.9/FacialAge/BNav_EC2/DepthDuration/v2_depth_duration_MTurk/v2_DepthDuration_HTML.html#97,97,1440,773,1440,900,8-30-2022,6-54-45,135,depth_duration_stimuli/002072_2014-06-24_21-48-06_260595134347_rgbf000115-resize_0/002072_2014-06-24_21-48-06_260595134347_rgbf000115-resize-original.jpg,250,4.702,0.0,2489,246,feet,jsons/v1_VE250_randls_62.json,588393,1214127,46,Man
135,749139,DepthScenes,duration_manipulation_targetAtFixation,jsons/v1_VE250_randls_62.json,http://54.235.29.9/FacialAge/BNav_EC2/DepthDuration/v2_depth_duration_MTurk/v2_DepthDuration_HTML.html#97,97,1440,773,1440,900,8-30-2022,6-54-45,136,depth_duration_stimuli/000436_2014-06-09_22-25-11_260595134347_rgbf000137-resize_1/000436_2014-06-09_22-25-11_260595134347_rgbf000137-resize_1-target.png,250,4.0705,12.0,2338,249,feet,jsons/v1_VE250_randls_62.json,588393,1214127,46,Man
136,749139,DepthScenes,duration_manipulation_targetAtFixation,jsons/v1_VE250_randls_62.json,http://54.235.29.9/FacialAge/BNav_EC2/DepthDuration/v2_depth_duration_MTurk/v2_DepthDuration_HTML.html#97,97,1440,773,1440,900,8-30-2022,6-54-45,137,depth_duration_stimuli/002444_2014-06-28_20-32-08_260595134347_rgbf000027-resize_0/002444_2014-06-28_20-32-08_260595134347_rgbf000027-resize_0-target.png,250,4.388999999999999,11.0,2377,250,feet,jsons/v1_VE250_randls_62.json,588393,1214127,46,Man
137,749139,DepthScenes,duration_manipulation_targetAtFixation,jsons/v1_VE250_randls_62.json,http://54.235.29.9/FacialAge/BNav_EC2/DepthDuration/v2_depth_duration_MTurk/v2_DepthDuration_HTML.html#97,97,1440,773,1440,900,8-30-2022,6-54-45,138,depth_duration_stimuli/001808_2014-06-26_20-50-58_260595134347_rgbf000029-resize_1/001808_2014-06-26_20-50-58_260595134347_rgbf000029-resize_1-target.png,250,4.249,12.0,2177,249,feet,jsons/v1_VE250_randls_62.json,588393,1214127,46,Man
138,749139,DepthScenes,duration_manipulation_targetAtFixation,jsons/v1_VE250_randls_62.json,http://54.235.29.9/FacialAge/BNav_EC2/DepthDuration/v2_depth_duration_MTurk/v2_DepthDuration_HTML.html#97,97,1440,773,1440,900,8-30-2022,6-54-45,139,depth_duration_stimuli/001815_2014-06-26_20-52-55_260595134347_rgbf000020-resize_0/001815_2014-06-26_20-52-55_260595134347_rgbf000020-resize_0-target.png,250,3.3865,11.0,2392,251,feet,jsons/v1_VE250_randls_62.json,588393,1214127,46,Man
139,749139,DepthScenes,duration_manipulation_targetAtFixation,jsons/v1_VE250_randls_62.json,http://54.235.29.9/FacialAge/BNav_EC2/DepthDuration/v2_depth_duration_MTurk/v2_DepthDuration_HTML.html#97,97,1440,773,1440,900,8-30-2022,6-54-45,140,depth_duration_stimuli/001806_2014-06-26_20-50-20_260595134347_rgbf000091-resize_1/001806_2014-06-26_20-50-20_260595134347_rgbf000091-resize_1-target.png,250,2.7305,7.0,2591,252,feet,jsons/v1_VE250_randls_62.json,588393,1214127,46,Man
140,749139,DepthScenes,duration_manipulation_targetAtFixation,jsons/v1_VE250_randls_62.json,http://54.235.29.9/FacialAge/BNav_EC2/DepthDuration/v2_depth_duration_MTurk/v2_DepthDuration_HTML.html#97,97,1440,773,1440,900,8-30-2022,6-54-45,141,depth_duration_stimuli/001617_2014-06-20_11-35-32_260595134347_rgbf000066-resize_1/001617_2014-06-20_11-35-32_260595134347_rgbf000066-resize_1-target.png,250,3.7910000000000004,11.0,2859,263,feet,jsons/v1_VE250_randls_62.json,588393,1214127,46,Man
141,749139,DepthScenes,duration_manipulation_targetAtFixation,jsons/v1_VE250_randls_62.json,http://54.235.29.9/FacialAge/BNav_EC2/DepthDuration/v2_depth_duration_MTurk/v2_DepthDuration_HTML.html#97,97,1440,773,1440,900,8-30-2022,6-54-45,142,depth_duration_stimuli/000682_2014-06-08_23-14-58_260595134347_rgbf000041-resize_5/000682_2014-06-08_23-14-58_260595134347_rgbf000041-resize_5-target.png,250,2.7239999999999998,8.0,3975,254,feet,jsons/v1_VE250_randls_62.json,588393,1214127,46,Man
142,749139,DepthScenes,duration_manipulation_targetAtFixation,jsons/v1_VE250_randls_62.json,http://54.235.29.9/FacialAge/BNav_EC2/DepthDuration/v2_depth_duration_MTurk/v2_DepthDuration_HTML.html#97,97,1440,773,1440,900,8-30-2022,6-54-45,143,depth_duration_stimuli/001650_2014-06-20_12-09-00_260595134347_rgbf000087-resize_3/001650_2014-06-20_12-09-00_260595134347_rgbf000087-resize_3-target.png,250,1.9505,4.0,2997,254,feet,jsons/v1_VE250_randls_62.json,588393,1214127,46,Man
143,749139,DepthScenes,duration_manipulation_targetAtFixation,jsons/v1_VE250_randls_62.json,http://54.235.29.9/FacialAge/BNav_EC2/DepthDuration/v2_depth_duration_MTurk/v2_DepthDuration_HTML.html#97,97,1440,773,1440,900,8-30-2022,6-54-45,144,depth_duration_stimuli/000758_2014-06-08_22-05-08_260595134347_rgbf000085-resize_0/000758_2014-06-08_22-05-08_260595134347_rgbf000085-resize_0-target.png,250,3.3810000000000002,10.0,3777,253,feet,jsons/v1_VE250_randls_62.json,588393,1214127,46,Man
144,749139,DepthScenes,duration_manipulation_targetAtFixation,jsons/v1_VE250_randls_62.json,http://54.235.29.9/FacialAge/BNav_EC2/DepthDuration/v2_depth_duration_MTurk/v2_DepthDuration_HTML.html#97,97,1440,773,1440,900,8-30-2022,6-54-45,145,depth_duration_stimuli/000854_2014-06-09_19-43-13_260595134347_rgbf000066-resize_0/000854_2014-06-09_19-43-13_260595134347_rgbf000066-resize_0-target.png,250,3.068,7.0,2591,247,feet,jsons/v1_VE250_randls_62.json,588393,1214127,46,Man
145,749139,DepthScenes,duration_manipulation_targetAtFixation,jsons/v1_VE250_randls_62.json,http://54.235.29.9/FacialAge/BNav_EC2/DepthDuration/v2_depth_duration_MTurk/v2_DepthDuration_HTML.html#97,97,1440,773,1440,900,8-30-2022,6-54-45,146,depth_duration_stimuli/001498_2014-06-19_17-45-14_260595134347_rgbf000129-resize_4/001498_2014-06-19_17-45-14_260595134347_rgbf000129-resize-original.jpg,250,1.4075,0.0,2844,250,feet,jsons/v1_VE250_randls_62.json,588393,1214127,46,Man
146,749139,DepthScenes,duration_manipulation_targetAtFixation,jsons/v1_VE250_randls_62.json,http://54.235.29.9/FacialAge/BNav_EC2/DepthDuration/v2_depth_duration_MTurk/v2_DepthDuration_HTML.html#97,97,1440,773,1440,900,8-30-2022,6-54-45,147,depth_duration_stimuli/001016_2014-06-09_16-16-10_260595134347_rgbf000112-resize_5/001016_2014-06-09_16-16-10_260595134347_rgbf000112-resize_5-target.png,250,1.6565,8.0,3236,253,feet,jsons/v1_VE250_randls_62.json,588393,1214127,46,Man
147,749139,DepthScenes,duration_manipulation_targetAtFixation,jsons/v1_VE250_randls_62.json,http://54.235.29.9/FacialAge/BNav_EC2/DepthDuration/v2_depth_duration_MTurk/v2_DepthDuration_HTML.html#97,97,1440,773,1440,900,8-30-2022,6-54-45,148,depth_duration_stimuli/002340_2014-06-28_20-05-46_260595134347_rgbf000113-resize_0/002340_2014-06-28_20-05-46_260595134347_rgbf000113-resize_0-target.png,250,2.4735,10.0,3496,253,feet,jsons/v1_VE250_randls_62.json,588393,1214127,46,Man
148,749139,DepthScenes,duration_manipulation_targetAtFixation,jsons/v1_VE250_randls_62.json,http://54.235.29.9/FacialAge/BNav_EC2/DepthDuration/v2_depth_duration_MTurk/v2_DepthDuration_HTML.html#97,97,1440,773,1440,900,8-30-2022,6-54-45,149,depth_duration_stimuli/000929_2014-06-09_16-33-19_260595134347_rgbf000139-resize_0/000929_2014-06-09_16-33-19_260595134347_rgbf000139-resize_0-target.png,250,2.8680000000000003,9.0,2426,249,feet,jsons/v1_VE250_randls_62.json,588393,1214127,46,Man
149,749139,DepthScenes,duration_manipulation_targetAtFixation,jsons/v1_VE250_randls_62.json,http://54.235.29.9/FacialAge/BNav_EC2/DepthDuration/v2_depth_duration_MTurk/v2_DepthDuration_HTML.html#97,97,1440,773,1440,900,8-30-2022,6-54-45,150,depth_duration_stimuli/000457_2014-06-08_16-52-43_260595134347_rgbf000199-resize_1/000457_2014-06-08_16-52-43_260595134347_rgbf000199-resize_1-target.png,250,3.6489999999999996,8.0,3294,254,feet,jsons/v1_VE250_randls_62.json,588393,1214127,46,Man
150,749139,DepthScenes,duration_manipulation_targetAtFixation,jsons/v1_VE250_randls_62.json,http://54.235.29.9/FacialAge/BNav_EC2/DepthDuration/v2_depth_duration_MTurk/v2_DepthDuration_HTML.html#97,97,1440,773,1440,900,8-30-2022,6-54-45,151,depth_duration_stimuli/001158_2014-06-17_15-32-16_260595134347_rgbf000138-resize_2/001158_2014-06-17_15-32-16_260595134347_rgbf000138-resize_2-target.png,250,4.5315,12.0,2935,251,feet,jsons/v1_VE250_randls_62.json,588393,1214127,46,Man
151,749139,DepthScenes,duration_manipulation_targetAtFixation,jsons/v1_VE250_randls_62.json,http://54.235.29.9/FacialAge/BNav_EC2/DepthDuration/v2_depth_duration_MTurk/v2_DepthDuration_HTML.html#97,97,1440,773,1440,900,8-30-2022,6-54-45,152,depth_duration_stimuli/000556_2014-06-09_22-42-56_260595134347_rgbf000214-resize_1/000556_2014-06-09_22-42-56_260595134347_rgbf000214-resize_1-target.png,250,4.8415,14.0,4365,256,feet,jsons/v1_VE250_randls_62.json,588393,1214127,46,Man
152,749139,DepthScenes,duration_manipulation_targetAtFixation,jsons/v1_VE250_randls_62.json,http://54.235.29.9/FacialAge/BNav_EC2/DepthDuration/v2_depth_duration_MTurk/v2_DepthDuration_HTML.html#97,97,1440,773,1440,900,8-30-2022,6-54-45,153,depth_duration_stimuli/000486_2014-06-09_20-47-20_260595134347_rgbf000143-resize_2/000486_2014-06-09_20-47-20_260595134347_rgbf000143-resize_2-target.png,250,4.8325,13.0,3147,247,feet,jsons/v1_VE250_randls_62.json,588393,1214127,46,Man
153,749139,DepthScenes,duration_manipulation_targetAtFixation,jsons/v1_VE250_randls_62.json,http://54.235.29.9/FacialAge/BNav_EC2/DepthDuration/v2_depth_duration_MTurk/v2_DepthDuration_HTML.html#97,97,1440,773,1440,900,8-30-2022,6-54-45,154,depth_duration_stimuli/003083_2014-06-15_15-21-03_094959634447_rgbf000063-resize_1/003083_2014-06-15_15-21-03_094959634447_rgbf000063-resize_1-target.png,250,4.1405,14.0,3058,254,feet,jsons/v1_VE250_randls_62.json,588393,1214127,46,Man
154,749139,DepthScenes,duration_manipulation_targetAtFixation,jsons/v1_VE250_randls_62.json,http://54.235.29.9/FacialAge/BNav_EC2/DepthDuration/v2_depth_duration_MTurk/v2_DepthDuration_HTML.html#97,97,1440,773,1440,900,8-30-2022,6-54-45,155,depth_duration_stimuli/001449_2014-06-19_17-01-27_260595134347_rgbf000116-resize_2/001449_2014-06-19_17-01-27_260595134347_rgbf000116-resize_2-target.png,250,3.452,12.0,2787,258,feet,jsons/v1_VE250_randls_62.json,588393,1214127,46,Man
155,749139,DepthScenes,duration_manipulation_targetAtFixation,jsons/v1_VE250_randls_62.json,http://54.235.29.9/FacialAge/BNav_EC2/DepthDuration/v2_depth_duration_MTurk/v2_DepthDuration_HTML.html#97,97,1440,773,1440,900,8-30-2022,6-54-45,156,depth_duration_stimuli/001450_2014-06-19_17-02-03_260595134347_rgbf000203-resize_4/001450_2014-06-19_17-02-03_260595134347_rgbf000203-resize_4-target.png,250,4.0106666666667,13.0,3199,249,feet,jsons/v1_VE250_randls_62.json,588393,1214127,46,Man
156,749139,DepthScenes,duration_manipulation_targetAtFixation,jsons/v1_VE250_randls_62.json,http://54.235.29.9/FacialAge/BNav_EC2/DepthDuration/v2_depth_duration_MTurk/v2_DepthDuration_HTML.html#97,97,1440,773,1440,900,8-30-2022,6-54-45,157,depth_duration_stimuli/001175_2014-06-17_15-45-55_260595134347_rgbf000129-resize_4/001175_2014-06-17_15-45-55_260595134347_rgbf000129-resize_4-target.png,250,4.255,13.0,2479,255,feet,jsons/v1_VE250_randls_62.json,588393,1214127,46,Man
157,749139,DepthScenes,duration_manipulation_targetAtFixation,jsons/v1_VE250_randls_62.json,http://54.235.29.9/FacialAge/BNav_EC2/DepthDuration/v2_depth_duration_MTurk/v2_DepthDuration_HTML.html#97,97,1440,773,1440,900,8-30-2022,6-54-45,158,depth_duration_stimuli/003490_2014-05-21_15-50-11_094959634447_rgbf000101-resize_3/003490_2014-05-21_15-50-11_094959634447_rgbf000101-resize_3-target.png,250,3.6445,12.0,2385,252,feet,jsons/v1_VE250_randls_62.json,588393,1214127,46,Man
158,749139,DepthScenes,duration_manipulation_targetAtFixation,jsons/v1_VE250_randls_62.json,http://54.235.29.9/FacialAge/BNav_EC2/DepthDuration/v2_depth_duration_MTurk/v2_DepthDuration_HTML.html#97,97,1440,773,1440,900,8-30-2022,6-54-45,159,depth_duration_stimuli/002118_2014-06-25_20-32-08_260595134347_rgbf000078-resize_1/002118_2014-06-25_20-32-08_260595134347_rgbf000078-resize_1-target.png,250,2.6460000000000004,9.0,3279,262,feet,jsons/v1_VE250_randls_62.json,588393,1214127,46,Man
159,749139,DepthScenes,duration_manipulation_targetAtFixation,jsons/v1_VE250_randls_62.json,http://54.235.29.9/FacialAge/BNav_EC2/DepthDuration/v2_depth_duration_MTurk/v2_DepthDuration_HTML.html#97,97,1440,773,1440,900,8-30-2022,6-54-45,160,depth_duration_stimuli/001516_2014-06-20_16-25-09_260595134347_rgbf000076-resize_2/001516_2014-06-20_16-25-09_260595134347_rgbf000076-resize_2-target.png,250,1.7445,7.0,2772,251,feet,jsons/v1_VE250_randls_62.json,588393,1214127,46,Man
160,749139,DepthScenes,duration_manipulation_targetAtFixation,jsons/v1_VE250_randls_62.json,http://54.235.29.9/FacialAge/BNav_EC2/DepthDuration/v2_depth_duration_MTurk/v2_DepthDuration_HTML.html#97,97,1440,773,1440,900,8-30-2022,6-54-45,161,depth_duration_stimuli/000878_2014-06-08_22-52-45_260595134347_rgbf000045-resize_2/000878_2014-06-08_22-52-45_260595134347_rgbf000045-resize_2-target.png,250,2.092,7.0,3000,249,feet,jsons/v1_VE250_randls_62.json,588393,1214127,46,Man
161,749139,DepthScenes,duration_manipulation_targetAtFixation,jsons/v1_VE250_randls_62.json,http://54.235.29.9/FacialAge/BNav_EC2/DepthDuration/v2_depth_duration_MTurk/v2_DepthDuration_HTML.html#97,97,1440,773,1440,900,8-30-2022,6-54-45,162,depth_duration_stimuli/002953_2014-06-08_17-32-18_094959634447_rgbf000059-resize_5/002953_2014-06-08_17-32-18_094959634447_rgbf000059-resize_5-target.png,250,1.551,5.0,2420,249,feet,jsons/v1_VE250_randls_62.json,588393,1214127,46,Man
162,749139,DepthScenes,duration_manipulation_targetAtFixation,jsons/v1_VE250_randls_62.json,http://54.235.29.9/FacialAge/BNav_EC2/DepthDuration/v2_depth_duration_MTurk/v2_DepthDuration_HTML.html#97,97,1440,773,1440,900,8-30-2022,6-54-45,163,depth_duration_stimuli/000810_2014-06-08_17-20-01_260595134347_rgbf000105-resize_0/000810_2014-06-08_17-20-01_260595134347_rgbf000105-resize_0-target.png,250,1.4865,6.0,2902,254,feet,jsons/v1_VE250_randls_62.json,588393,1214127,46,Man
163,749139,DepthScenes,duration_manipulation_targetAtFixation,jsons/v1_VE250_randls_62.json,http://54.235.29.9/FacialAge/BNav_EC2/DepthDuration/v2_depth_duration_MTurk/v2_DepthDuration_HTML.html#97,97,1440,773,1440,900,8-30-2022,6-54-45,164,depth_duration_stimuli/001214_2014-06-17_16-13-55_260595134347_rgbf000111-resize_0/001214_2014-06-17_16-13-55_260595134347_rgbf000111-resize_0-target.png,250,2.6505,6.0,2551,254,feet,jsons/v1_VE250_randls_62.json,588393,1214127,46,Man
