,subjID,experimentName,versionName,sequenceName,url,selected_row,windowWidth,windowHeight,screenWidth,screenHeight,startDate,startTime,trial,stimulus,duration,actual_depth,depth_estimate,trial_RT,log_sceneDuration,unitSelection,seq_filepath,experimentTime,totalTime,age,gender
0,749493,DepthScenes,duration_manipulation_targetAtFixation,jsons/v1_VE250_randls_77.json,http://54.235.29.9/FacialAge/BNav_EC2/DepthDuration/v2_depth_duration_MTurk/v2_DepthDuration_HTML.html#379,379,1786,978,1680,1050,8-29-2022,15-39-12,1,depth_duration_stimuli/000436_2014-06-09_22-25-11_260595134347_rgbf000137-resize_1/000436_2014-06-09_22-25-11_260595134347_rgbf000137-resize_1-target.png,250,4.0705,10,3508,249,feet,jsons/v1_VE250_randls_77.json,501869,708961,42,Woman
1,749493,DepthScenes,duration_manipulation_targetAtFixation,jsons/v1_VE250_randls_77.json,http://54.235.29.9/FacialAge/BNav_EC2/DepthDuration/v2_depth_duration_MTurk/v2_DepthDuration_HTML.html#379,379,1786,978,1680,1050,8-29-2022,15-39-12,2,depth_duration_stimuli/002444_2014-06-28_20-32-08_260595134347_rgbf000027-resize_0/002444_2014-06-28_20-32-08_260595134347_rgbf000027-resize_0-target.png,250,4.388999999999999,8,2696,249,feet,jsons/v1_VE250_randls_77.json,501869,708961,42,Woman
2,749493,DepthScenes,duration_manipulation_targetAtFixation,jsons/v1_VE250_randls_77.json,http://54.235.29.9/FacialAge/BNav_EC2/DepthDuration/v2_depth_duration_MTurk/v2_DepthDuration_HTML.html#379,379,1786,978,1680,1050,8-29-2022,15-39-12,3,depth_duration_stimuli/001092_2014-06-15_17-34-58_260595134347_rgbf000171-resize_3/001092_2014-06-15_17-34-58_260595134347_rgbf000171-resize_3-target.png,250,2.6935,2,2347,249,feet,jsons/v1_VE250_randls_77.json,501869,708961,42,Woman
3,749493,DepthScenes,duration_manipulation_targetAtFixation,jsons/v1_VE250_randls_77.json,http://54.235.29.9/FacialAge/BNav_EC2/DepthDuration/v2_depth_duration_MTurk/v2_DepthDuration_HTML.html#379,379,1786,978,1680,1050,8-29-2022,15-39-12,4,depth_duration_stimuli/002545_2014-06-24_13-38-53_094959634447_rgbf000080-resize_4/002545_2014-06-24_13-38-53_094959634447_rgbf000080-resize_4-target.png,250,1.9205,5,2739,249,feet,jsons/v1_VE250_randls_77.json,501869,708961,42,Woman
4,749493,DepthScenes,duration_manipulation_targetAtFixation,jsons/v1_VE250_randls_77.json,http://54.235.29.9/FacialAge/BNav_EC2/DepthDuration/v2_depth_duration_MTurk/v2_DepthDuration_HTML.html#379,379,1786,978,1680,1050,8-29-2022,15-39-12,5,depth_duration_stimuli/001059_2014-06-08_21-53-27_260595134347_rgbf000061-resize_4/001059_2014-06-08_21-53-27_260595134347_rgbf000061-resize_4-target.png,250,2.4185,4,3131,249,feet,jsons/v1_VE250_randls_77.json,501869,708961,42,Woman
5,749493,DepthScenes,duration_manipulation_targetAtFixation,jsons/v1_VE250_randls_77.json,http://54.235.29.9/FacialAge/BNav_EC2/DepthDuration/v2_depth_duration_MTurk/v2_DepthDuration_HTML.html#379,379,1786,978,1680,1050,8-29-2022,15-39-12,6,depth_duration_stimuli/001032_2014-06-08_13-23-17_260595134347_rgbf000021-resize_3/001032_2014-06-08_13-23-17_260595134347_rgbf000021-resize_3-target.png,250,3.2725,2,2235,250,feet,jsons/v1_VE250_randls_77.json,501869,708961,42,Woman
6,749493,DepthScenes,duration_manipulation_targetAtFixation,jsons/v1_VE250_randls_77.json,http://54.235.29.9/FacialAge/BNav_EC2/DepthDuration/v2_depth_duration_MTurk/v2_DepthDuration_HTML.html#379,379,1786,978,1680,1050,8-29-2022,15-39-12,7,depth_duration_stimuli/002057_2014-06-24_21-00-13_260595134347_rgbf000120-resize_1/002057_2014-06-24_21-00-13_260595134347_rgbf000120-resize_1-target.png,250,2.967,8,4084,250,feet,jsons/v1_VE250_randls_77.json,501869,708961,42,Woman
7,749493,DepthScenes,duration_manipulation_targetAtFixation,jsons/v1_VE250_randls_77.json,http://54.235.29.9/FacialAge/BNav_EC2/DepthDuration/v2_depth_duration_MTurk/v2_DepthDuration_HTML.html#379,379,1786,978,1680,1050,8-29-2022,15-39-12,8,depth_duration_stimuli/000709_2014-06-08_13-51-55_260595134347_rgbf000068-resize_3/000709_2014-06-08_13-51-55_260595134347_rgbf000068-resize_3-target.png,250,1.8030000000000002,2,2546,250,feet,jsons/v1_VE250_randls_77.json,501869,708961,42,Woman
8,749493,DepthScenes,duration_manipulation_targetAtFixation,jsons/v1_VE250_randls_77.json,http://54.235.29.9/FacialAge/BNav_EC2/DepthDuration/v2_depth_duration_MTurk/v2_DepthDuration_HTML.html#379,379,1786,978,1680,1050,8-29-2022,15-39-12,9,depth_duration_stimuli/001570_2014-06-20_17-21-09_260595134347_rgbf000135-resize_4/001570_2014-06-20_17-21-09_260595134347_rgbf000135-resize_4-target.png,250,4.467,8,3563,250,feet,jsons/v1_VE250_randls_77.json,501869,708961,42,Woman
9,749493,DepthScenes,duration_manipulation_targetAtFixation,jsons/v1_VE250_randls_77.json,http://54.235.29.9/FacialAge/BNav_EC2/DepthDuration/v2_depth_duration_MTurk/v2_DepthDuration_HTML.html#379,379,1786,978,1680,1050,8-29-2022,15-39-12,10,depth_duration_stimuli/001392_2014-06-19_16-07-59_260595134347_rgbf000046-resize_1/001392_2014-06-19_16-07-59_260595134347_rgbf000046-resize_1-target.png,250,4.135,10,4043,249,feet,jsons/v1_VE250_randls_77.json,501869,708961,42,Woman
10,749493,DepthScenes,duration_manipulation_targetAtFixation,jsons/v1_VE250_randls_77.json,http://54.235.29.9/FacialAge/BNav_EC2/DepthDuration/v2_depth_duration_MTurk/v2_DepthDuration_HTML.html#379,379,1786,978,1680,1050,8-29-2022,15-39-12,11,depth_duration_stimuli/002905_2014-06-03_18-04-43_094959634447_rgbf000151-resize_2/002905_2014-06-03_18-04-43_094959634447_rgbf000151-resize_2-target.png,250,2.0295,2,2531,250,feet,jsons/v1_VE250_randls_77.json,501869,708961,42,Woman
11,749493,DepthScenes,duration_manipulation_targetAtFixation,jsons/v1_VE250_randls_77.json,http://54.235.29.9/FacialAge/BNav_EC2/DepthDuration/v2_depth_duration_MTurk/v2_DepthDuration_HTML.html#379,379,1786,978,1680,1050,8-29-2022,15-39-12,12,depth_duration_stimuli/003423_2014-05-21_10-23-26_094959634447_rgbf002665-resize_2/003423_2014-05-21_10-23-26_094959634447_rgbf002665-resize_2-target.png,250,3.2575,12,3852,249,feet,jsons/v1_VE250_randls_77.json,501869,708961,42,Woman
12,749493,DepthScenes,duration_manipulation_targetAtFixation,jsons/v1_VE250_randls_77.json,http://54.235.29.9/FacialAge/BNav_EC2/DepthDuration/v2_depth_duration_MTurk/v2_DepthDuration_HTML.html#379,379,1786,978,1680,1050,8-29-2022,15-39-12,13,depth_duration_stimuli/000569_2014-06-09_22-51-47_260595134347_rgbf000141-resize_3/000569_2014-06-09_22-51-47_260595134347_rgbf000141-resize-original.jpg,250,4.512,0,2003,250,feet,jsons/v1_VE250_randls_77.json,501869,708961,42,Woman
13,749493,DepthScenes,duration_manipulation_targetAtFixation,jsons/v1_VE250_randls_77.json,http://54.235.29.9/FacialAge/BNav_EC2/DepthDuration/v2_depth_duration_MTurk/v2_DepthDuration_HTML.html#379,379,1786,978,1680,1050,8-29-2022,15-39-12,14,depth_duration_stimuli/000810_2014-06-08_17-20-01_260595134347_rgbf000105-resize_0/000810_2014-06-08_17-20-01_260595134347_rgbf000105-resize_0-target.png,250,1.4865,5,5467,250,feet,jsons/v1_VE250_randls_77.json,501869,708961,42,Woman
14,749493,DepthScenes,duration_manipulation_targetAtFixation,jsons/v1_VE250_randls_77.json,http://54.235.29.9/FacialAge/BNav_EC2/DepthDuration/v2_depth_duration_MTurk/v2_DepthDuration_HTML.html#379,379,1786,978,1680,1050,8-29-2022,15-39-12,15,depth_duration_stimuli/001214_2014-06-17_16-13-55_260595134347_rgbf000111-resize_0/001214_2014-06-17_16-13-55_260595134347_rgbf000111-resize_0-target.png,250,2.6505,3,2923,250,feet,jsons/v1_VE250_randls_77.json,501869,708961,42,Woman
15,749493,DepthScenes,duration_manipulation_targetAtFixation,jsons/v1_VE250_randls_77.json,http://54.235.29.9/FacialAge/BNav_EC2/DepthDuration/v2_depth_duration_MTurk/v2_DepthDuration_HTML.html#379,379,1786,978,1680,1050,8-29-2022,15-39-12,16,depth_duration_stimuli/001167_2014-06-17_15-38-07_260595134347_rgbf000108-resize_0/001167_2014-06-17_15-38-07_260595134347_rgbf000108-resize_0-target.png,250,1.8505,2,2099,250,feet,jsons/v1_VE250_randls_77.json,501869,708961,42,Woman
16,749493,DepthScenes,duration_manipulation_targetAtFixation,jsons/v1_VE250_randls_77.json,http://54.235.29.9/FacialAge/BNav_EC2/DepthDuration/v2_depth_duration_MTurk/v2_DepthDuration_HTML.html#379,379,1786,978,1680,1050,8-29-2022,15-39-12,17,depth_duration_stimuli/003587_2014-05-23_16-48-02_094959634447_rgbf002384-resize_2/003587_2014-05-23_16-48-02_094959634447_rgbf002384-resize_2-target.png,250,1.357,1,2243,249,feet,jsons/v1_VE250_randls_77.json,501869,708961,42,Woman
17,749493,DepthScenes,duration_manipulation_targetAtFixation,jsons/v1_VE250_randls_77.json,http://54.235.29.9/FacialAge/BNav_EC2/DepthDuration/v2_depth_duration_MTurk/v2_DepthDuration_HTML.html#379,379,1786,978,1680,1050,8-29-2022,15-39-12,18,depth_duration_stimuli/000522_2014-06-08_13-35-06_260595134347_rgbf000244-resize_1/000522_2014-06-08_13-35-06_260595134347_rgbf000244-resize_1-target.png,250,2.3715,2,2843,249,feet,jsons/v1_VE250_randls_77.json,501869,708961,42,Woman
18,749493,DepthScenes,duration_manipulation_targetAtFixation,jsons/v1_VE250_randls_77.json,http://54.235.29.9/FacialAge/BNav_EC2/DepthDuration/v2_depth_duration_MTurk/v2_DepthDuration_HTML.html#379,379,1786,978,1680,1050,8-29-2022,15-39-12,19,depth_duration_stimuli/002949_2014-06-26_15-57-42_094959634447_rgbf000079-resize_1/002949_2014-06-26_15-57-42_094959634447_rgbf000079-resize_1-target.png,250,1.8915,3,2539,250,feet,jsons/v1_VE250_randls_77.json,501869,708961,42,Woman
19,749493,DepthScenes,duration_manipulation_targetAtFixation,jsons/v1_VE250_randls_77.json,http://54.235.29.9/FacialAge/BNav_EC2/DepthDuration/v2_depth_duration_MTurk/v2_DepthDuration_HTML.html#379,379,1786,978,1680,1050,8-29-2022,15-39-12,20,depth_duration_stimuli/000414_2014-06-04_19-49-13_260595134347_rgbf000044-resize_0/000414_2014-06-04_19-49-13_260595134347_rgbf000044-resize_0-target.png,250,4.329,12,3483,250,feet,jsons/v1_VE250_randls_77.json,501869,708961,42,Woman
20,749493,DepthScenes,duration_manipulation_targetAtFixation,jsons/v1_VE250_randls_77.json,http://54.235.29.9/FacialAge/BNav_EC2/DepthDuration/v2_depth_duration_MTurk/v2_DepthDuration_HTML.html#379,379,1786,978,1680,1050,8-29-2022,15-39-12,21,depth_duration_stimuli/003129_2014-05-12_10-48-10_094959634447_rgbf000100-resize_0/003129_2014-05-12_10-48-10_094959634447_rgbf000100-resize_0-target.png,250,4.9305,10,2955,251,feet,jsons/v1_VE250_randls_77.json,501869,708961,42,Woman
21,749493,DepthScenes,duration_manipulation_targetAtFixation,jsons/v1_VE250_randls_77.json,http://54.235.29.9/FacialAge/BNav_EC2/DepthDuration/v2_depth_duration_MTurk/v2_DepthDuration_HTML.html#379,379,1786,978,1680,1050,8-29-2022,15-39-12,22,depth_duration_stimuli/002570_2014-06-24_13-59-54_094959634447_rgbf000059-resize_0/002570_2014-06-24_13-59-54_094959634447_rgbf000059-resize_0-target.png,250,4.037,8,2619,250,feet,jsons/v1_VE250_randls_77.json,501869,708961,42,Woman
22,749493,DepthScenes,duration_manipulation_targetAtFixation,jsons/v1_VE250_randls_77.json,http://54.235.29.9/FacialAge/BNav_EC2/DepthDuration/v2_depth_duration_MTurk/v2_DepthDuration_HTML.html#379,379,1786,978,1680,1050,8-29-2022,15-39-12,23,depth_duration_stimuli/002467_2014-06-28_20-38-07_260595134347_rgbf000026-resize_2/002467_2014-06-28_20-38-07_260595134347_rgbf000026-resize_2-target.png,250,4.742,12,3251,250,feet,jsons/v1_VE250_randls_77.json,501869,708961,42,Woman
23,749493,DepthScenes,duration_manipulation_targetAtFixation,jsons/v1_VE250_randls_77.json,http://54.235.29.9/FacialAge/BNav_EC2/DepthDuration/v2_depth_duration_MTurk/v2_DepthDuration_HTML.html#379,379,1786,978,1680,1050,8-29-2022,15-39-12,24,depth_duration_stimuli/003292_2014-05-14_21-53-49_094959634447_rgbf000100-resize_2/003292_2014-05-14_21-53-49_094959634447_rgbf000100-resize_2-target.png,250,3.4815,10,4123,249,feet,jsons/v1_VE250_randls_77.json,501869,708961,42,Woman
24,749493,DepthScenes,duration_manipulation_targetAtFixation,jsons/v1_VE250_randls_77.json,http://54.235.29.9/FacialAge/BNav_EC2/DepthDuration/v2_depth_duration_MTurk/v2_DepthDuration_HTML.html#379,379,1786,978,1680,1050,8-29-2022,15-39-12,25,depth_duration_stimuli/002639_2014-06-24_14-51-37_094959634447_rgbf000074-resize_4/002639_2014-06-24_14-51-37_094959634447_rgbf000074-resize_4-target.png,250,4.0375,8,2699,250,feet,jsons/v1_VE250_randls_77.json,501869,708961,42,Woman
25,749493,DepthScenes,duration_manipulation_targetAtFixation,jsons/v1_VE250_randls_77.json,http://54.235.29.9/FacialAge/BNav_EC2/DepthDuration/v2_depth_duration_MTurk/v2_DepthDuration_HTML.html#379,379,1786,978,1680,1050,8-29-2022,15-39-12,26,depth_duration_stimuli/002748_2014-06-22_19-07-22_094959634447_rgbf000078-resize_1/002748_2014-06-22_19-07-22_094959634447_rgbf000078-resize_1-target.png,250,4.6705,15,2515,250,feet,jsons/v1_VE250_randls_77.json,501869,708961,42,Woman
26,749493,DepthScenes,duration_manipulation_targetAtFixation,jsons/v1_VE250_randls_77.json,http://54.235.29.9/FacialAge/BNav_EC2/DepthDuration/v2_depth_duration_MTurk/v2_DepthDuration_HTML.html#379,379,1786,978,1680,1050,8-29-2022,15-39-12,27,depth_duration_stimuli/002995_2014-06-15_12-31-26_094959634447_rgbf000150-resize_1/002995_2014-06-15_12-31-26_094959634447_rgbf000150-resize_1-target.png,250,3.8360000000000003,10,2626,250,feet,jsons/v1_VE250_randls_77.json,501869,708961,42,Woman
27,749493,DepthScenes,duration_manipulation_targetAtFixation,jsons/v1_VE250_randls_77.json,http://54.235.29.9/FacialAge/BNav_EC2/DepthDuration/v2_depth_duration_MTurk/v2_DepthDuration_HTML.html#379,379,1786,978,1680,1050,8-29-2022,15-39-12,28,depth_duration_stimuli/001016_2014-06-09_16-16-10_260595134347_rgbf000112-resize_5/001016_2014-06-09_16-16-10_260595134347_rgbf000112-resize_5-target.png,250,1.6565,4,2812,249,feet,jsons/v1_VE250_randls_77.json,501869,708961,42,Woman
28,749493,DepthScenes,duration_manipulation_targetAtFixation,jsons/v1_VE250_randls_77.json,http://54.235.29.9/FacialAge/BNav_EC2/DepthDuration/v2_depth_duration_MTurk/v2_DepthDuration_HTML.html#379,379,1786,978,1680,1050,8-29-2022,15-39-12,29,depth_duration_stimuli/002340_2014-06-28_20-05-46_260595134347_rgbf000113-resize_0/002340_2014-06-28_20-05-46_260595134347_rgbf000113-resize_0-target.png,250,2.4735,5,3315,250,feet,jsons/v1_VE250_randls_77.json,501869,708961,42,Woman
29,749493,DepthScenes,duration_manipulation_targetAtFixation,jsons/v1_VE250_randls_77.json,http://54.235.29.9/FacialAge/BNav_EC2/DepthDuration/v2_depth_duration_MTurk/v2_DepthDuration_HTML.html#379,379,1786,978,1680,1050,8-29-2022,15-39-12,30,depth_duration_stimuli/000375_2014-06-08_11-17-29_260595134347_rgbf000133-resize_2/000375_2014-06-08_11-17-29_260595134347_rgbf000133-resize-original.jpg,250,4.718,0,2156,249,feet,jsons/v1_VE250_randls_77.json,501869,708961,42,Woman
30,749493,DepthScenes,duration_manipulation_targetAtFixation,jsons/v1_VE250_randls_77.json,http://54.235.29.9/FacialAge/BNav_EC2/DepthDuration/v2_depth_duration_MTurk/v2_DepthDuration_HTML.html#379,379,1786,978,1680,1050,8-29-2022,15-39-12,31,depth_duration_stimuli/001417_2014-06-19_16-25-36_260595134347_rgbf000115-resize_5/001417_2014-06-19_16-25-36_260595134347_rgbf000115-resize_5-target.png,250,4.6255,10,3171,250,feet,jsons/v1_VE250_randls_77.json,501869,708961,42,Woman
31,749493,DepthScenes,duration_manipulation_targetAtFixation,jsons/v1_VE250_randls_77.json,http://54.235.29.9/FacialAge/BNav_EC2/DepthDuration/v2_depth_duration_MTurk/v2_DepthDuration_HTML.html#379,379,1786,978,1680,1050,8-29-2022,15-39-12,32,depth_duration_stimuli/003081_2014-06-15_15-19-16_094959634447_rgbf000150-resize_1/003081_2014-06-15_15-19-16_094959634447_rgbf000150-resize_1-target.png,250,3.9125,8,2603,249,feet,jsons/v1_VE250_randls_77.json,501869,708961,42,Woman
32,749493,DepthScenes,duration_manipulation_targetAtFixation,jsons/v1_VE250_randls_77.json,http://54.235.29.9/FacialAge/BNav_EC2/DepthDuration/v2_depth_duration_MTurk/v2_DepthDuration_HTML.html#379,379,1786,978,1680,1050,8-29-2022,15-39-12,33,depth_duration_stimuli/000788_2014-06-08_22-34-36_260595134347_rgbf000131-resize_1/000788_2014-06-08_22-34-36_260595134347_rgbf000131-resize_1-target.png,250,3.359,6,2299,250,feet,jsons/v1_VE250_randls_77.json,501869,708961,42,Woman
33,749493,DepthScenes,duration_manipulation_targetAtFixation,jsons/v1_VE250_randls_77.json,http://54.235.29.9/FacialAge/BNav_EC2/DepthDuration/v2_depth_duration_MTurk/v2_DepthDuration_HTML.html#379,379,1786,978,1680,1050,8-29-2022,15-39-12,34,depth_duration_stimuli/001235_2014-06-17_16-37-36_260595134347_rgbf000084-resize_4/001235_2014-06-17_16-37-36_260595134347_rgbf000084-resize_4-target.png,250,3.6605,5,2091,249,feet,jsons/v1_VE250_randls_77.json,501869,708961,42,Woman
34,749493,DepthScenes,duration_manipulation_targetAtFixation,jsons/v1_VE250_randls_77.json,http://54.235.29.9/FacialAge/BNav_EC2/DepthDuration/v2_depth_duration_MTurk/v2_DepthDuration_HTML.html#379,379,1786,978,1680,1050,8-29-2022,15-39-12,35,depth_duration_stimuli/002989_2014-06-15_12-25-03_094959634447_rgbf000150-resize_3/002989_2014-06-15_12-25-03_094959634447_rgbf000150-resize_3-target.png,250,4.1975,10,2771,250,feet,jsons/v1_VE250_randls_77.json,501869,708961,42,Woman
35,749493,DepthScenes,duration_manipulation_targetAtFixation,jsons/v1_VE250_randls_77.json,http://54.235.29.9/FacialAge/BNav_EC2/DepthDuration/v2_depth_duration_MTurk/v2_DepthDuration_HTML.html#379,379,1786,978,1680,1050,8-29-2022,15-39-12,36,depth_duration_stimuli/000866_2014-06-09_20-45-42_260595134347_rgbf000139-resize_1/000866_2014-06-09_20-45-42_260595134347_rgbf000139-resize_1-target.png,250,3.2155,6,2544,249,feet,jsons/v1_VE250_randls_77.json,501869,708961,42,Woman
36,749493,DepthScenes,duration_manipulation_targetAtFixation,jsons/v1_VE250_randls_77.json,http://54.235.29.9/FacialAge/BNav_EC2/DepthDuration/v2_depth_duration_MTurk/v2_DepthDuration_HTML.html#379,379,1786,978,1680,1050,8-29-2022,15-39-12,37,depth_duration_stimuli/001244_2014-06-17_16-47-45_260595134347_rgbf000030-resize_4/001244_2014-06-17_16-47-45_260595134347_rgbf000030-resize_4-target.png,250,2.0425,4,2391,250,feet,jsons/v1_VE250_randls_77.json,501869,708961,42,Woman
37,749493,DepthScenes,duration_manipulation_targetAtFixation,jsons/v1_VE250_randls_77.json,http://54.235.29.9/FacialAge/BNav_EC2/DepthDuration/v2_depth_duration_MTurk/v2_DepthDuration_HTML.html#379,379,1786,978,1680,1050,8-29-2022,15-39-12,38,depth_duration_stimuli/003495_2014-05-21_16-01-51_094959634447_rgbf000100-resize_3/003495_2014-05-21_16-01-51_094959634447_rgbf000100-resize_3-target.png,250,1.6255,1,1979,249,feet,jsons/v1_VE250_randls_77.json,501869,708961,42,Woman
38,749493,DepthScenes,duration_manipulation_targetAtFixation,jsons/v1_VE250_randls_77.json,http://54.235.29.9/FacialAge/BNav_EC2/DepthDuration/v2_depth_duration_MTurk/v2_DepthDuration_HTML.html#379,379,1786,978,1680,1050,8-29-2022,15-39-12,39,depth_duration_stimuli/002213_2014-06-28_18-37-58_260595134347_rgbf000055-resize_1/002213_2014-06-28_18-37-58_260595134347_rgbf000055-resize_1-target.png,250,3.62,10,2584,246,feet,jsons/v1_VE250_randls_77.json,501869,708961,42,Woman
39,749493,DepthScenes,duration_manipulation_targetAtFixation,jsons/v1_VE250_randls_77.json,http://54.235.29.9/FacialAge/BNav_EC2/DepthDuration/v2_depth_duration_MTurk/v2_DepthDuration_HTML.html#379,379,1786,978,1680,1050,8-29-2022,15-39-12,40,depth_duration_stimuli/000691_2014-06-08_13-08-50_260595134347_rgbf000132-resize_3/000691_2014-06-08_13-08-50_260595134347_rgbf000132-resize_3-target.png,250,4.1530000000000005,8,2668,242,feet,jsons/v1_VE250_randls_77.json,501869,708961,42,Woman
40,749493,DepthScenes,duration_manipulation_targetAtFixation,jsons/v1_VE250_randls_77.json,http://54.235.29.9/FacialAge/BNav_EC2/DepthDuration/v2_depth_duration_MTurk/v2_DepthDuration_HTML.html#379,379,1786,978,1680,1050,8-29-2022,15-39-12,41,depth_duration_stimuli/000486_2014-06-09_20-47-20_260595134347_rgbf000143-resize_2/000486_2014-06-09_20-47-20_260595134347_rgbf000143-resize_2-target.png,250,4.8325,10,2595,250,feet,jsons/v1_VE250_randls_77.json,501869,708961,42,Woman
41,749493,DepthScenes,duration_manipulation_targetAtFixation,jsons/v1_VE250_randls_77.json,http://54.235.29.9/FacialAge/BNav_EC2/DepthDuration/v2_depth_duration_MTurk/v2_DepthDuration_HTML.html#379,379,1786,978,1680,1050,8-29-2022,15-39-12,42,depth_duration_stimuli/003083_2014-06-15_15-21-03_094959634447_rgbf000063-resize_1/003083_2014-06-15_15-21-03_094959634447_rgbf000063-resize_1-target.png,250,4.1405,12,3643,249,feet,jsons/v1_VE250_randls_77.json,501869,708961,42,Woman
42,749493,DepthScenes,duration_manipulation_targetAtFixation,jsons/v1_VE250_randls_77.json,http://54.235.29.9/FacialAge/BNav_EC2/DepthDuration/v2_depth_duration_MTurk/v2_DepthDuration_HTML.html#379,379,1786,978,1680,1050,8-29-2022,15-39-12,43,depth_duration_stimuli/002279_2014-06-28_18-55-32_260595134347_rgbf000040-resize_5/002279_2014-06-28_18-55-32_260595134347_rgbf000040-resize_5-target.png,250,1.5043333333333,1,2187,249,feet,jsons/v1_VE250_randls_77.json,501869,708961,42,Woman
43,749493,DepthScenes,duration_manipulation_targetAtFixation,jsons/v1_VE250_randls_77.json,http://54.235.29.9/FacialAge/BNav_EC2/DepthDuration/v2_depth_duration_MTurk/v2_DepthDuration_HTML.html#379,379,1786,978,1680,1050,8-29-2022,15-39-12,44,depth_duration_stimuli/000635_2014-06-08_16-38-42_260595134347_rgbf000106-resize_1/000635_2014-06-08_16-38-42_260595134347_rgbf000106-resize_1-target.png,250,2.074,5,2310,250,feet,jsons/v1_VE250_randls_77.json,501869,708961,42,Woman
44,749493,DepthScenes,duration_manipulation_targetAtFixation,jsons/v1_VE250_randls_77.json,http://54.235.29.9/FacialAge/BNav_EC2/DepthDuration/v2_depth_duration_MTurk/v2_DepthDuration_HTML.html#379,379,1786,978,1680,1050,8-29-2022,15-39-12,45,depth_duration_stimuli/000787_2014-06-08_22-33-53_260595134347_rgbf000175-resize_1/000787_2014-06-08_22-33-53_260595134347_rgbf000175-resize-original.jpg,250,4.784,0,2129,249,feet,jsons/v1_VE250_randls_77.json,501869,708961,42,Woman
45,749493,DepthScenes,duration_manipulation_targetAtFixation,jsons/v1_VE250_randls_77.json,http://54.235.29.9/FacialAge/BNav_EC2/DepthDuration/v2_depth_duration_MTurk/v2_DepthDuration_HTML.html#379,379,1786,978,1680,1050,8-29-2022,15-39-12,46,depth_duration_stimuli/001808_2014-06-26_20-50-58_260595134347_rgbf000029-resize_1/001808_2014-06-26_20-50-58_260595134347_rgbf000029-resize_1-target.png,250,4.249,10,3164,250,feet,jsons/v1_VE250_randls_77.json,501869,708961,42,Woman
46,749493,DepthScenes,duration_manipulation_targetAtFixation,jsons/v1_VE250_randls_77.json,http://54.235.29.9/FacialAge/BNav_EC2/DepthDuration/v2_depth_duration_MTurk/v2_DepthDuration_HTML.html#379,379,1786,978,1680,1050,8-29-2022,15-39-12,47,depth_duration_stimuli/001815_2014-06-26_20-52-55_260595134347_rgbf000020-resize_0/001815_2014-06-26_20-52-55_260595134347_rgbf000020-resize_0-target.png,250,3.3865,12,2284,249,feet,jsons/v1_VE250_randls_77.json,501869,708961,42,Woman
47,749493,DepthScenes,duration_manipulation_targetAtFixation,jsons/v1_VE250_randls_77.json,http://54.235.29.9/FacialAge/BNav_EC2/DepthDuration/v2_depth_duration_MTurk/v2_DepthDuration_HTML.html#379,379,1786,978,1680,1050,8-29-2022,15-39-12,48,depth_duration_stimuli/002118_2014-06-25_20-32-08_260595134347_rgbf000078-resize_1/002118_2014-06-25_20-32-08_260595134347_rgbf000078-resize_1-target.png,250,2.6460000000000004,6,2747,250,feet,jsons/v1_VE250_randls_77.json,501869,708961,42,Woman
48,749493,DepthScenes,duration_manipulation_targetAtFixation,jsons/v1_VE250_randls_77.json,http://54.235.29.9/FacialAge/BNav_EC2/DepthDuration/v2_depth_duration_MTurk/v2_DepthDuration_HTML.html#379,379,1786,978,1680,1050,8-29-2022,15-39-12,49,depth_duration_stimuli/001516_2014-06-20_16-25-09_260595134347_rgbf000076-resize_2/001516_2014-06-20_16-25-09_260595134347_rgbf000076-resize_2-target.png,250,1.7445,5,2196,249,feet,jsons/v1_VE250_randls_77.json,501869,708961,42,Woman
49,749493,DepthScenes,duration_manipulation_targetAtFixation,jsons/v1_VE250_randls_77.json,http://54.235.29.9/FacialAge/BNav_EC2/DepthDuration/v2_depth_duration_MTurk/v2_DepthDuration_HTML.html#379,379,1786,978,1680,1050,8-29-2022,15-39-12,50,depth_duration_stimuli/001133_2014-06-17_14-49-16_260595134347_rgbf000100-resize_0/001133_2014-06-17_14-49-16_260595134347_rgbf000100-resize_0-target.png,250,4.2115,10,2595,250,feet,jsons/v1_VE250_randls_77.json,501869,708961,42,Woman
50,749493,DepthScenes,duration_manipulation_targetAtFixation,jsons/v1_VE250_randls_77.json,http://54.235.29.9/FacialAge/BNav_EC2/DepthDuration/v2_depth_duration_MTurk/v2_DepthDuration_HTML.html#379,379,1786,978,1680,1050,8-29-2022,15-39-12,51,depth_duration_stimuli/001132_2014-06-17_14-48-54_260595134347_rgbf000100-resize_2/001132_2014-06-17_14-48-54_260595134347_rgbf000100-resize_2-target.png,250,3.753,12,2379,249,feet,jsons/v1_VE250_randls_77.json,501869,708961,42,Woman
51,749493,DepthScenes,duration_manipulation_targetAtFixation,jsons/v1_VE250_randls_77.json,http://54.235.29.9/FacialAge/BNav_EC2/DepthDuration/v2_depth_duration_MTurk/v2_DepthDuration_HTML.html#379,379,1786,978,1680,1050,8-29-2022,15-39-12,52,depth_duration_stimuli/001810_2014-06-26_20-51-35_260595134347_rgbf000040-resize_3/001810_2014-06-26_20-51-35_260595134347_rgbf000040-resize_3-target.png,250,2.2525,5,2716,249,feet,jsons/v1_VE250_randls_77.json,501869,708961,42,Woman
52,749493,DepthScenes,duration_manipulation_targetAtFixation,jsons/v1_VE250_randls_77.json,http://54.235.29.9/FacialAge/BNav_EC2/DepthDuration/v2_depth_duration_MTurk/v2_DepthDuration_HTML.html#379,379,1786,978,1680,1050,8-29-2022,15-39-12,53,depth_duration_stimuli/003010_2014-06-15_12-54-35_094959634447_rgbf000112-resize_0/003010_2014-06-15_12-54-35_094959634447_rgbf000112-resize_0-target.png,250,3.1185,12,2778,250,feet,jsons/v1_VE250_randls_77.json,501869,708961,42,Woman
53,749493,DepthScenes,duration_manipulation_targetAtFixation,jsons/v1_VE250_randls_77.json,http://54.235.29.9/FacialAge/BNav_EC2/DepthDuration/v2_depth_duration_MTurk/v2_DepthDuration_HTML.html#379,379,1786,978,1680,1050,8-29-2022,15-39-12,54,depth_duration_stimuli/000739_2014-06-08_18-45-58_260595134347_rgbf000068-resize_1/000739_2014-06-08_18-45-58_260595134347_rgbf000068-resize_1-target.png,250,3.534,10,2452,249,feet,jsons/v1_VE250_randls_77.json,501869,708961,42,Woman
54,749493,DepthScenes,duration_manipulation_targetAtFixation,jsons/v1_VE250_randls_77.json,http://54.235.29.9/FacialAge/BNav_EC2/DepthDuration/v2_depth_duration_MTurk/v2_DepthDuration_HTML.html#379,379,1786,978,1680,1050,8-29-2022,15-39-12,55,depth_duration_stimuli/000734_2014-06-08_17-39-11_260595134347_rgbf000128-resize_2/000734_2014-06-08_17-39-11_260595134347_rgbf000128-resize_2-target.png,250,4.098,8,2555,249,feet,jsons/v1_VE250_randls_77.json,501869,708961,42,Woman
55,749493,DepthScenes,duration_manipulation_targetAtFixation,jsons/v1_VE250_randls_77.json,http://54.235.29.9/FacialAge/BNav_EC2/DepthDuration/v2_depth_duration_MTurk/v2_DepthDuration_HTML.html#379,379,1786,978,1680,1050,8-29-2022,15-39-12,56,depth_duration_stimuli/003070_2014-06-15_14-58-27_094959634447_rgbf000150-resize_3/003070_2014-06-15_14-58-27_094959634447_rgbf000150-resize_3-target.png,250,2.9415,8,2315,249,feet,jsons/v1_VE250_randls_77.json,501869,708961,42,Woman
56,749493,DepthScenes,duration_manipulation_targetAtFixation,jsons/v1_VE250_randls_77.json,http://54.235.29.9/FacialAge/BNav_EC2/DepthDuration/v2_depth_duration_MTurk/v2_DepthDuration_HTML.html#379,379,1786,978,1680,1050,8-29-2022,15-39-12,57,depth_duration_stimuli/000943_2014-06-09_19-31-07_260595134347_rgbf000128-resize_1/000943_2014-06-09_19-31-07_260595134347_rgbf000128-resize_1-target.png,250,1.9765,5,2595,249,feet,jsons/v1_VE250_randls_77.json,501869,708961,42,Woman
57,749493,DepthScenes,duration_manipulation_targetAtFixation,jsons/v1_VE250_randls_77.json,http://54.235.29.9/FacialAge/BNav_EC2/DepthDuration/v2_depth_duration_MTurk/v2_DepthDuration_HTML.html#379,379,1786,978,1680,1050,8-29-2022,15-39-12,58,depth_duration_stimuli/002988_2014-06-15_12-24-20_094959634447_rgbf000150-resize_1/002988_2014-06-15_12-24-20_094959634447_rgbf000150-resize_1-target.png,250,4.7669999999999995,10,2675,250,feet,jsons/v1_VE250_randls_77.json,501869,708961,42,Woman
58,749493,DepthScenes,duration_manipulation_targetAtFixation,jsons/v1_VE250_randls_77.json,http://54.235.29.9/FacialAge/BNav_EC2/DepthDuration/v2_depth_duration_MTurk/v2_DepthDuration_HTML.html#379,379,1786,978,1680,1050,8-29-2022,15-39-12,59,depth_duration_stimuli/001052_2014-06-08_18-24-54_260595134347_rgbf000130-resize_1/001052_2014-06-08_18-24-54_260595134347_rgbf000130-resize_1-target.png,250,4.1045,7,2299,249,feet,jsons/v1_VE250_randls_77.json,501869,708961,42,Woman
59,749493,DepthScenes,duration_manipulation_targetAtFixation,jsons/v1_VE250_randls_77.json,http://54.235.29.9/FacialAge/BNav_EC2/DepthDuration/v2_depth_duration_MTurk/v2_DepthDuration_HTML.html#379,379,1786,978,1680,1050,8-29-2022,15-39-12,60,depth_duration_stimuli/002039_2014-06-24_20-22-38_260595134347_rgbf000084-resize_1/002039_2014-06-24_20-22-38_260595134347_rgbf000084-resize_1-target.png,250,4.408,12,2795,250,feet,jsons/v1_VE250_randls_77.json,501869,708961,42,Woman
60,749493,DepthScenes,duration_manipulation_targetAtFixation,jsons/v1_VE250_randls_77.json,http://54.235.29.9/FacialAge/BNav_EC2/DepthDuration/v2_depth_duration_MTurk/v2_DepthDuration_HTML.html#379,379,1786,978,1680,1050,8-29-2022,15-39-12,61,depth_duration_stimuli/002103_2014-06-25_20-00-40_260595134347_rgbf000049-resize_0/002103_2014-06-25_20-00-40_260595134347_rgbf000049-resize_0-target.png,250,4.105,12,2868,250,feet,jsons/v1_VE250_randls_77.json,501869,708961,42,Woman
61,749493,DepthScenes,duration_manipulation_targetAtFixation,jsons/v1_VE250_randls_77.json,http://54.235.29.9/FacialAge/BNav_EC2/DepthDuration/v2_depth_duration_MTurk/v2_DepthDuration_HTML.html#379,379,1786,978,1680,1050,8-29-2022,15-39-12,62,depth_duration_stimuli/001449_2014-06-19_17-01-27_260595134347_rgbf000116-resize_2/001449_2014-06-19_17-01-27_260595134347_rgbf000116-resize_2-target.png,250,3.452,10,2500,249,feet,jsons/v1_VE250_randls_77.json,501869,708961,42,Woman
62,749493,DepthScenes,duration_manipulation_targetAtFixation,jsons/v1_VE250_randls_77.json,http://54.235.29.9/FacialAge/BNav_EC2/DepthDuration/v2_depth_duration_MTurk/v2_DepthDuration_HTML.html#379,379,1786,978,1680,1050,8-29-2022,15-39-12,63,depth_duration_stimuli/001450_2014-06-19_17-02-03_260595134347_rgbf000203-resize_4/001450_2014-06-19_17-02-03_260595134347_rgbf000203-resize_4-target.png,250,4.0106666666667,12,2219,249,feet,jsons/v1_VE250_randls_77.json,501869,708961,42,Woman
63,749493,DepthScenes,duration_manipulation_targetAtFixation,jsons/v1_VE250_randls_77.json,http://54.235.29.9/FacialAge/BNav_EC2/DepthDuration/v2_depth_duration_MTurk/v2_DepthDuration_HTML.html#379,379,1786,978,1680,1050,8-29-2022,15-39-12,64,depth_duration_stimuli/002549_2014-06-24_13-41-39_094959634447_rgbf000022-resize_3/002549_2014-06-24_13-41-39_094959634447_rgbf000022-resize_3-target.png,250,1.476,2,2659,249,feet,jsons/v1_VE250_randls_77.json,501869,708961,42,Woman
64,749493,DepthScenes,duration_manipulation_targetAtFixation,jsons/v1_VE250_randls_77.json,http://54.235.29.9/FacialAge/BNav_EC2/DepthDuration/v2_depth_duration_MTurk/v2_DepthDuration_HTML.html#379,379,1786,978,1680,1050,8-29-2022,15-39-12,65,depth_duration_stimuli/002750_2014-06-22_19-08-03_094959634447_rgbf000094-resize_4/002750_2014-06-22_19-08-03_094959634447_rgbf000094-resize_4-target.png,250,2.354,7,2612,249,feet,jsons/v1_VE250_randls_77.json,501869,708961,42,Woman
65,749493,DepthScenes,duration_manipulation_targetAtFixation,jsons/v1_VE250_randls_77.json,http://54.235.29.9/FacialAge/BNav_EC2/DepthDuration/v2_depth_duration_MTurk/v2_DepthDuration_HTML.html#379,379,1786,978,1680,1050,8-29-2022,15-39-12,66,depth_duration_stimuli/001222_2014-06-17_16-24-06_260595134347_rgbf000073-resize_0/001222_2014-06-17_16-24-06_260595134347_rgbf000073-resize-original.jpg,250,1.4385,0,2218,250,feet,jsons/v1_VE250_randls_77.json,501869,708961,42,Woman
66,749493,DepthScenes,duration_manipulation_targetAtFixation,jsons/v1_VE250_randls_77.json,http://54.235.29.9/FacialAge/BNav_EC2/DepthDuration/v2_depth_duration_MTurk/v2_DepthDuration_HTML.html#379,379,1786,978,1680,1050,8-29-2022,15-39-12,67,depth_duration_stimuli/001806_2014-06-26_20-50-20_260595134347_rgbf000091-resize_1/001806_2014-06-26_20-50-20_260595134347_rgbf000091-resize_1-target.png,250,2.7305,3,2147,249,feet,jsons/v1_VE250_randls_77.json,501869,708961,42,Woman
67,749493,DepthScenes,duration_manipulation_targetAtFixation,jsons/v1_VE250_randls_77.json,http://54.235.29.9/FacialAge/BNav_EC2/DepthDuration/v2_depth_duration_MTurk/v2_DepthDuration_HTML.html#379,379,1786,978,1680,1050,8-29-2022,15-39-12,68,depth_duration_stimuli/001617_2014-06-20_11-35-32_260595134347_rgbf000066-resize_1/001617_2014-06-20_11-35-32_260595134347_rgbf000066-resize_1-target.png,250,3.7910000000000004,8,2404,249,feet,jsons/v1_VE250_randls_77.json,501869,708961,42,Woman
68,749493,DepthScenes,duration_manipulation_targetAtFixation,jsons/v1_VE250_randls_77.json,http://54.235.29.9/FacialAge/BNav_EC2/DepthDuration/v2_depth_duration_MTurk/v2_DepthDuration_HTML.html#379,379,1786,978,1680,1050,8-29-2022,15-39-12,69,depth_duration_stimuli/000009_2014-05-26_14-32-05_260595134347_rgbf000034-resize_3/000009_2014-05-26_14-32-05_260595134347_rgbf000034-resize_3-target.png,250,3.8715,12,2257,249,feet,jsons/v1_VE250_randls_77.json,501869,708961,42,Woman
69,749493,DepthScenes,duration_manipulation_targetAtFixation,jsons/v1_VE250_randls_77.json,http://54.235.29.9/FacialAge/BNav_EC2/DepthDuration/v2_depth_duration_MTurk/v2_DepthDuration_HTML.html#379,379,1786,978,1680,1050,8-29-2022,15-39-12,70,depth_duration_stimuli/001828_2014-06-26_21-40-03_260595134347_rgbf000024-resize_0/001828_2014-06-26_21-40-03_260595134347_rgbf000024-resize_0-target.png,250,4.8260000000000005,7,2452,249,feet,jsons/v1_VE250_randls_77.json,501869,708961,42,Woman
70,749493,DepthScenes,duration_manipulation_targetAtFixation,jsons/v1_VE250_randls_77.json,http://54.235.29.9/FacialAge/BNav_EC2/DepthDuration/v2_depth_duration_MTurk/v2_DepthDuration_HTML.html#379,379,1786,978,1680,1050,8-29-2022,15-39-12,71,depth_duration_stimuli/000493_2014-06-09_21-01-18_260595134347_rgbf000196-resize_3/000493_2014-06-09_21-01-18_260595134347_rgbf000196-resize_3-target.png,250,3.44,8,2242,249,feet,jsons/v1_VE250_randls_77.json,501869,708961,42,Woman
71,749493,DepthScenes,duration_manipulation_targetAtFixation,jsons/v1_VE250_randls_77.json,http://54.235.29.9/FacialAge/BNav_EC2/DepthDuration/v2_depth_duration_MTurk/v2_DepthDuration_HTML.html#379,379,1786,978,1680,1050,8-29-2022,15-39-12,72,depth_duration_stimuli/000191_2014-05-12_17-07-38_260595134347_rgbf000199-resize_0/000191_2014-05-12_17-07-38_260595134347_rgbf000199-resize_0-target.png,250,3.7995,12,3918,249,feet,jsons/v1_VE250_randls_77.json,501869,708961,42,Woman
72,749493,DepthScenes,duration_manipulation_targetAtFixation,jsons/v1_VE250_randls_77.json,http://54.235.29.9/FacialAge/BNav_EC2/DepthDuration/v2_depth_duration_MTurk/v2_DepthDuration_HTML.html#379,379,1786,978,1680,1050,8-29-2022,15-39-12,73,depth_duration_stimuli/000447_2014-06-08_16-15-46_260595134347_rgbf000130-resize_1/000447_2014-06-08_16-15-46_260595134347_rgbf000130-resize_1-target.png,250,4.479,12,2184,250,feet,jsons/v1_VE250_randls_77.json,501869,708961,42,Woman
73,749493,DepthScenes,duration_manipulation_targetAtFixation,jsons/v1_VE250_randls_77.json,http://54.235.29.9/FacialAge/BNav_EC2/DepthDuration/v2_depth_duration_MTurk/v2_DepthDuration_HTML.html#379,379,1786,978,1680,1050,8-29-2022,15-39-12,74,depth_duration_stimuli/001447_2014-06-19_17-00-32_260595134347_rgbf000082-resize_5/001447_2014-06-19_17-00-32_260595134347_rgbf000082-resize_5-target.png,250,4.13775,7,2700,250,feet,jsons/v1_VE250_randls_77.json,501869,708961,42,Woman
74,749493,DepthScenes,duration_manipulation_targetAtFixation,jsons/v1_VE250_randls_77.json,http://54.235.29.9/FacialAge/BNav_EC2/DepthDuration/v2_depth_duration_MTurk/v2_DepthDuration_HTML.html#379,379,1786,978,1680,1050,8-29-2022,15-39-12,75,depth_duration_stimuli/001175_2014-06-17_15-45-55_260595134347_rgbf000129-resize_4/001175_2014-06-17_15-45-55_260595134347_rgbf000129-resize_4-target.png,250,4.255,15,2466,249,feet,jsons/v1_VE250_randls_77.json,501869,708961,42,Woman
75,749493,DepthScenes,duration_manipulation_targetAtFixation,jsons/v1_VE250_randls_77.json,http://54.235.29.9/FacialAge/BNav_EC2/DepthDuration/v2_depth_duration_MTurk/v2_DepthDuration_HTML.html#379,379,1786,978,1680,1050,8-29-2022,15-39-12,76,depth_duration_stimuli/003490_2014-05-21_15-50-11_094959634447_rgbf000101-resize_3/003490_2014-05-21_15-50-11_094959634447_rgbf000101-resize_3-target.png,250,3.6445,12,2211,250,feet,jsons/v1_VE250_randls_77.json,501869,708961,42,Woman
76,749493,DepthScenes,duration_manipulation_targetAtFixation,jsons/v1_VE250_randls_77.json,http://54.235.29.9/FacialAge/BNav_EC2/DepthDuration/v2_depth_duration_MTurk/v2_DepthDuration_HTML.html#379,379,1786,978,1680,1050,8-29-2022,15-39-12,77,depth_duration_stimuli/000736_2014-06-08_18-24-15_260595134347_rgbf000206-resize_3/000736_2014-06-08_18-24-15_260595134347_rgbf000206-resize_3-target.png,250,3.515,5,2315,250,feet,jsons/v1_VE250_randls_77.json,501869,708961,42,Woman
77,749493,DepthScenes,duration_manipulation_targetAtFixation,jsons/v1_VE250_randls_77.json,http://54.235.29.9/FacialAge/BNav_EC2/DepthDuration/v2_depth_duration_MTurk/v2_DepthDuration_HTML.html#379,379,1786,978,1680,1050,8-29-2022,15-39-12,78,depth_duration_stimuli/000137_2014-05-20_17-04-49_260595134347_rgbf000120-resize_1/000137_2014-05-20_17-04-49_260595134347_rgbf000120-resize_1-target.png,250,3.786,6,2643,249,feet,jsons/v1_VE250_randls_77.json,501869,708961,42,Woman
78,749493,DepthScenes,duration_manipulation_targetAtFixation,jsons/v1_VE250_randls_77.json,http://54.235.29.9/FacialAge/BNav_EC2/DepthDuration/v2_depth_duration_MTurk/v2_DepthDuration_HTML.html#379,379,1786,978,1680,1050,8-29-2022,15-39-12,79,depth_duration_stimuli/001199_2014-06-17_16-03-48_260595134347_rgbf000077-resize_0/001199_2014-06-17_16-03-48_260595134347_rgbf000077-resize_0-target.png,250,3.4375,7,2164,250,feet,jsons/v1_VE250_randls_77.json,501869,708961,42,Woman
79,749493,DepthScenes,duration_manipulation_targetAtFixation,jsons/v1_VE250_randls_77.json,http://54.235.29.9/FacialAge/BNav_EC2/DepthDuration/v2_depth_duration_MTurk/v2_DepthDuration_HTML.html#379,379,1786,978,1680,1050,8-29-2022,15-39-12,80,depth_duration_stimuli/000502_2014-06-08_23-02-32_260595134347_rgbf000063-resize_4/000502_2014-06-08_23-02-32_260595134347_rgbf000063-resize_4-target.png,250,2.431,4,2602,250,feet,jsons/v1_VE250_randls_77.json,501869,708961,42,Woman
80,749493,DepthScenes,duration_manipulation_targetAtFixation,jsons/v1_VE250_randls_77.json,http://54.235.29.9/FacialAge/BNav_EC2/DepthDuration/v2_depth_duration_MTurk/v2_DepthDuration_HTML.html#379,379,1786,978,1680,1050,8-29-2022,15-39-12,81,depth_duration_stimuli/000469_2014-06-09_19-42-10_260595134347_rgbf000081-resize_1/000469_2014-06-09_19-42-10_260595134347_rgbf000081-resize_1-target.png,250,1.652,2,2003,250,feet,jsons/v1_VE250_randls_77.json,501869,708961,42,Woman
81,749493,DepthScenes,duration_manipulation_targetAtFixation,jsons/v1_VE250_randls_77.json,http://54.235.29.9/FacialAge/BNav_EC2/DepthDuration/v2_depth_duration_MTurk/v2_DepthDuration_HTML.html#379,379,1786,978,1680,1050,8-29-2022,15-39-12,82,depth_duration_stimuli/000483_2014-06-09_20-41-45_260595134347_rgbf000116-resize_4/000483_2014-06-09_20-41-45_260595134347_rgbf000116-resize_4-target.png,250,1.337,2,2132,249,feet,jsons/v1_VE250_randls_77.json,501869,708961,42,Woman
82,749493,DepthScenes,duration_manipulation_targetAtFixation,jsons/v1_VE250_randls_77.json,http://54.235.29.9/FacialAge/BNav_EC2/DepthDuration/v2_depth_duration_MTurk/v2_DepthDuration_HTML.html#379,379,1786,978,1680,1050,8-29-2022,15-39-12,83,depth_duration_stimuli/002445_2014-06-28_20-32-16_260595134347_rgbf000029-resize_4/002445_2014-06-28_20-32-16_260595134347_rgbf000029-resize_4-target.png,250,2.5315,2,1931,250,feet,jsons/v1_VE250_randls_77.json,501869,708961,42,Woman
83,749493,DepthScenes,duration_manipulation_targetAtFixation,jsons/v1_VE250_randls_77.json,http://54.235.29.9/FacialAge/BNav_EC2/DepthDuration/v2_depth_duration_MTurk/v2_DepthDuration_HTML.html#379,379,1786,978,1680,1050,8-29-2022,15-39-12,84,depth_duration_stimuli/000780_2014-06-08_22-28-29_260595134347_rgbf000126-resize_1/000780_2014-06-08_22-28-29_260595134347_rgbf000126-resize_1-target.png,250,3.3825,8,3227,249,feet,jsons/v1_VE250_randls_77.json,501869,708961,42,Woman
84,749493,DepthScenes,duration_manipulation_targetAtFixation,jsons/v1_VE250_randls_77.json,http://54.235.29.9/FacialAge/BNav_EC2/DepthDuration/v2_depth_duration_MTurk/v2_DepthDuration_HTML.html#379,379,1786,978,1680,1050,8-29-2022,15-39-12,85,depth_duration_stimuli/001029_2014-06-08_13-17-57_260595134347_rgbf000065-resize_1/001029_2014-06-08_13-17-57_260595134347_rgbf000065-resize_1-target.png,250,3.0835,6,5907,249,feet,jsons/v1_VE250_randls_77.json,501869,708961,42,Woman
85,749493,DepthScenes,duration_manipulation_targetAtFixation,jsons/v1_VE250_randls_77.json,http://54.235.29.9/FacialAge/BNav_EC2/DepthDuration/v2_depth_duration_MTurk/v2_DepthDuration_HTML.html#379,379,1786,978,1680,1050,8-29-2022,15-39-12,86,depth_duration_stimuli/000677_2014-06-08_23-10-32_260595134347_rgbf000158-resize_6/000677_2014-06-08_23-10-32_260595134347_rgbf000158-resize_6-target.png,250,3.556,6,2203,249,feet,jsons/v1_VE250_randls_77.json,501869,708961,42,Woman
86,749493,DepthScenes,duration_manipulation_targetAtFixation,jsons/v1_VE250_randls_77.json,http://54.235.29.9/FacialAge/BNav_EC2/DepthDuration/v2_depth_duration_MTurk/v2_DepthDuration_HTML.html#379,379,1786,978,1680,1050,8-29-2022,15-39-12,87,depth_duration_stimuli/000692_2014-06-08_13-09-42_260595134347_rgbf000199-resize_2/000692_2014-06-08_13-09-42_260595134347_rgbf000199-resize_2-target.png,250,3.661,7,2651,250,feet,jsons/v1_VE250_randls_77.json,501869,708961,42,Woman
87,749493,DepthScenes,duration_manipulation_targetAtFixation,jsons/v1_VE250_randls_77.json,http://54.235.29.9/FacialAge/BNav_EC2/DepthDuration/v2_depth_duration_MTurk/v2_DepthDuration_HTML.html#379,379,1786,978,1680,1050,8-29-2022,15-39-12,88,depth_duration_stimuli/001094_2014-06-15_17-36-00_260595134347_rgbf000205-resize_0/001094_2014-06-15_17-36-00_260595134347_rgbf000205-resize_0-target.png,250,4.2175,10,2315,249,feet,jsons/v1_VE250_randls_77.json,501869,708961,42,Woman
88,749493,DepthScenes,duration_manipulation_targetAtFixation,jsons/v1_VE250_randls_77.json,http://54.235.29.9/FacialAge/BNav_EC2/DepthDuration/v2_depth_duration_MTurk/v2_DepthDuration_HTML.html#379,379,1786,978,1680,1050,8-29-2022,15-39-12,89,depth_duration_stimuli/001164_2014-06-17_15-35-46_260595134347_rgbf000085-resize_3/001164_2014-06-17_15-35-46_260595134347_rgbf000085-resize_3-target.png,250,2.354,6,3131,249,feet,jsons/v1_VE250_randls_77.json,501869,708961,42,Woman
89,749493,DepthScenes,duration_manipulation_targetAtFixation,jsons/v1_VE250_randls_77.json,http://54.235.29.9/FacialAge/BNav_EC2/DepthDuration/v2_depth_duration_MTurk/v2_DepthDuration_HTML.html#379,379,1786,978,1680,1050,8-29-2022,15-39-12,90,depth_duration_stimuli/001136_2014-06-17_15-19-41_260595134347_rgbf000076-resize_3/001136_2014-06-17_15-19-41_260595134347_rgbf000076-resize_3-target.png,250,1.8655,4,1899,250,feet,jsons/v1_VE250_randls_77.json,501869,708961,42,Woman
90,749493,DepthScenes,duration_manipulation_targetAtFixation,jsons/v1_VE250_randls_77.json,http://54.235.29.9/FacialAge/BNav_EC2/DepthDuration/v2_depth_duration_MTurk/v2_DepthDuration_HTML.html#379,379,1786,978,1680,1050,8-29-2022,15-39-12,91,depth_duration_stimuli/001066_2014-06-08_22-03-20_260595134347_rgbf000066-resize_4/001066_2014-06-08_22-03-20_260595134347_rgbf000066-resize_4-target.png,250,4.2330000000000005,8,2755,250,feet,jsons/v1_VE250_randls_77.json,501869,708961,42,Woman
91,749493,DepthScenes,duration_manipulation_targetAtFixation,jsons/v1_VE250_randls_77.json,http://54.235.29.9/FacialAge/BNav_EC2/DepthDuration/v2_depth_duration_MTurk/v2_DepthDuration_HTML.html#379,379,1786,978,1680,1050,8-29-2022,15-39-12,92,depth_duration_stimuli/000742_2014-06-08_18-48-09_260595134347_rgbf000164-resize_4/000742_2014-06-08_18-48-09_260595134347_rgbf000164-resize_4-target.png,250,4.632,8,2628,249,feet,jsons/v1_VE250_randls_77.json,501869,708961,42,Woman
92,749493,DepthScenes,duration_manipulation_targetAtFixation,jsons/v1_VE250_randls_77.json,http://54.235.29.9/FacialAge/BNav_EC2/DepthDuration/v2_depth_duration_MTurk/v2_DepthDuration_HTML.html#379,379,1786,978,1680,1050,8-29-2022,15-39-12,93,depth_duration_stimuli/002763_2014-06-22_19-13-10_094959634447_rgbf000075-resize_4/002763_2014-06-22_19-13-10_094959634447_rgbf000075-resize_4-target.png,250,1.68375,4,2347,250,feet,jsons/v1_VE250_randls_77.json,501869,708961,42,Woman
93,749493,DepthScenes,duration_manipulation_targetAtFixation,jsons/v1_VE250_randls_77.json,http://54.235.29.9/FacialAge/BNav_EC2/DepthDuration/v2_depth_duration_MTurk/v2_DepthDuration_HTML.html#379,379,1786,978,1680,1050,8-29-2022,15-39-12,94,depth_duration_stimuli/002209_2014-06-28_18-36-10_260595134347_rgbf000051-resize_1/002209_2014-06-28_18-36-10_260595134347_rgbf000051-resize_1-target.png,250,2.057,4,2507,250,feet,jsons/v1_VE250_randls_77.json,501869,708961,42,Woman
94,749493,DepthScenes,duration_manipulation_targetAtFixation,jsons/v1_VE250_randls_77.json,http://54.235.29.9/FacialAge/BNav_EC2/DepthDuration/v2_depth_duration_MTurk/v2_DepthDuration_HTML.html#379,379,1786,978,1680,1050,8-29-2022,15-39-12,95,depth_duration_stimuli/003621_2014-05-23_18-06-08_094959634447_rgbf000101-resize_1/003621_2014-05-23_18-06-08_094959634447_rgbf000101-resize_1-target.png,250,3.9835,10,2507,250,feet,jsons/v1_VE250_randls_77.json,501869,708961,42,Woman
95,749493,DepthScenes,duration_manipulation_targetAtFixation,jsons/v1_VE250_randls_77.json,http://54.235.29.9/FacialAge/BNav_EC2/DepthDuration/v2_depth_duration_MTurk/v2_DepthDuration_HTML.html#379,379,1786,978,1680,1050,8-29-2022,15-39-12,96,depth_duration_stimuli/001584_2014-06-20_11-07-43_260595134347_rgbf000002-resize_1/001584_2014-06-20_11-07-43_260595134347_rgbf000002-resize_1-target.png,250,3.53,10,2396,249,feet,jsons/v1_VE250_randls_77.json,501869,708961,42,Woman
96,749493,DepthScenes,duration_manipulation_targetAtFixation,jsons/v1_VE250_randls_77.json,http://54.235.29.9/FacialAge/BNav_EC2/DepthDuration/v2_depth_duration_MTurk/v2_DepthDuration_HTML.html#379,379,1786,978,1680,1050,8-29-2022,15-39-12,97,depth_duration_stimuli/002788_2014-06-22_19-36-03_094959634447_rgbf000088-resize_2/002788_2014-06-22_19-36-03_094959634447_rgbf000088-resize_2-target.png,250,1.6465,8,2132,249,feet,jsons/v1_VE250_randls_77.json,501869,708961,42,Woman
97,749493,DepthScenes,duration_manipulation_targetAtFixation,jsons/v1_VE250_randls_77.json,http://54.235.29.9/FacialAge/BNav_EC2/DepthDuration/v2_depth_duration_MTurk/v2_DepthDuration_HTML.html#379,379,1786,978,1680,1050,8-29-2022,15-39-12,98,depth_duration_stimuli/000749_2014-06-08_21-55-06_260595134347_rgbf000070-resize_2/000749_2014-06-08_21-55-06_260595134347_rgbf000070-resize_2-target.png,250,2.331,6,1956,249,feet,jsons/v1_VE250_randls_77.json,501869,708961,42,Woman
98,749493,DepthScenes,duration_manipulation_targetAtFixation,jsons/v1_VE250_randls_77.json,http://54.235.29.9/FacialAge/BNav_EC2/DepthDuration/v2_depth_duration_MTurk/v2_DepthDuration_HTML.html#379,379,1786,978,1680,1050,8-29-2022,15-39-12,99,depth_duration_stimuli/001540_2014-06-20_17-01-05_260595134347_rgbf000086-resize_2/001540_2014-06-20_17-01-05_260595134347_rgbf000086-resize-original.jpg,250,1.459,0,2011,249,feet,jsons/v1_VE250_randls_77.json,501869,708961,42,Woman
99,749493,DepthScenes,duration_manipulation_targetAtFixation,jsons/v1_VE250_randls_77.json,http://54.235.29.9/FacialAge/BNav_EC2/DepthDuration/v2_depth_duration_MTurk/v2_DepthDuration_HTML.html#379,379,1786,978,1680,1050,8-29-2022,15-39-12,100,depth_duration_stimuli/001011_2014-06-08_23-18-54_260595134347_rgbf000044-resize_4/001011_2014-06-08_23-18-54_260595134347_rgbf000044-resize_4-target.png,250,2.4730000000000003,7,2259,249,feet,jsons/v1_VE250_randls_77.json,501869,708961,42,Woman
100,749493,DepthScenes,duration_manipulation_targetAtFixation,jsons/v1_VE250_randls_77.json,http://54.235.29.9/FacialAge/BNav_EC2/DepthDuration/v2_depth_duration_MTurk/v2_DepthDuration_HTML.html#379,379,1786,978,1680,1050,8-29-2022,15-39-12,101,depth_duration_stimuli/002875_2014-06-01_15-19-00_094959634447_rgbf000151-resize_1/002875_2014-06-01_15-19-00_094959634447_rgbf000151-resize_1-target.png,250,1.9675,6,2132,250,feet,jsons/v1_VE250_randls_77.json,501869,708961,42,Woman
101,749493,DepthScenes,duration_manipulation_targetAtFixation,jsons/v1_VE250_randls_77.json,http://54.235.29.9/FacialAge/BNav_EC2/DepthDuration/v2_depth_duration_MTurk/v2_DepthDuration_HTML.html#379,379,1786,978,1680,1050,8-29-2022,15-39-12,102,depth_duration_stimuli/000773_2014-06-08_22-24-54_260595134347_rgbf000093-resize_1/000773_2014-06-08_22-24-54_260595134347_rgbf000093-resize_1-target.png,250,4.973,10,2027,249,feet,jsons/v1_VE250_randls_77.json,501869,708961,42,Woman
102,749493,DepthScenes,duration_manipulation_targetAtFixation,jsons/v1_VE250_randls_77.json,http://54.235.29.9/FacialAge/BNav_EC2/DepthDuration/v2_depth_duration_MTurk/v2_DepthDuration_HTML.html#379,379,1786,978,1680,1050,8-29-2022,15-39-12,103,depth_duration_stimuli/002414_2014-06-28_20-24-58_260595134347_rgbf000067-resize_4/002414_2014-06-28_20-24-58_260595134347_rgbf000067-resize_4-target.png,250,4.363,10,5859,249,feet,jsons/v1_VE250_randls_77.json,501869,708961,42,Woman
103,749493,DepthScenes,duration_manipulation_targetAtFixation,jsons/v1_VE250_randls_77.json,http://54.235.29.9/FacialAge/BNav_EC2/DepthDuration/v2_depth_duration_MTurk/v2_DepthDuration_HTML.html#379,379,1786,978,1680,1050,8-29-2022,15-39-12,104,depth_duration_stimuli/000470_2014-06-09_19-42-40_260595134347_rgbf000094-resize_1/000470_2014-06-09_19-42-40_260595134347_rgbf000094-resize_1-target.png,250,1.831,4,3787,249,feet,jsons/v1_VE250_randls_77.json,501869,708961,42,Woman
104,749493,DepthScenes,duration_manipulation_targetAtFixation,jsons/v1_VE250_randls_77.json,http://54.235.29.9/FacialAge/BNav_EC2/DepthDuration/v2_depth_duration_MTurk/v2_DepthDuration_HTML.html#379,379,1786,978,1680,1050,8-29-2022,15-39-12,105,depth_duration_stimuli/000109_2014-05-14_23-41-52_260595134347_rgbf000035-resize_9/000109_2014-05-14_23-41-52_260595134347_rgbf000035-resize_9-target.png,250,1.3545,2,1923,251,feet,jsons/v1_VE250_randls_77.json,501869,708961,42,Woman
105,749493,DepthScenes,duration_manipulation_targetAtFixation,jsons/v1_VE250_randls_77.json,http://54.235.29.9/FacialAge/BNav_EC2/DepthDuration/v2_depth_duration_MTurk/v2_DepthDuration_HTML.html#379,379,1786,978,1680,1050,8-29-2022,15-39-12,106,depth_duration_stimuli/002375_2014-06-28_20-13-44_260595134347_rgbf000032-resize_1/002375_2014-06-28_20-13-44_260595134347_rgbf000032-resize_1-target.png,250,4.0175,5,2844,249,feet,jsons/v1_VE250_randls_77.json,501869,708961,42,Woman
106,749493,DepthScenes,duration_manipulation_targetAtFixation,jsons/v1_VE250_randls_77.json,http://54.235.29.9/FacialAge/BNav_EC2/DepthDuration/v2_depth_duration_MTurk/v2_DepthDuration_HTML.html#379,379,1786,978,1680,1050,8-29-2022,15-39-12,107,depth_duration_stimuli/002657_2014-06-13_15-29-54_094959634447_rgbf000150-resize_1/002657_2014-06-13_15-29-54_094959634447_rgbf000150-resize_1-target.png,250,4.919,12,2282,250,feet,jsons/v1_VE250_randls_77.json,501869,708961,42,Woman
107,749493,DepthScenes,duration_manipulation_targetAtFixation,jsons/v1_VE250_randls_77.json,http://54.235.29.9/FacialAge/BNav_EC2/DepthDuration/v2_depth_duration_MTurk/v2_DepthDuration_HTML.html#379,379,1786,978,1680,1050,8-29-2022,15-39-12,108,depth_duration_stimuli/001110_2014-06-15_17-25-28_260595134347_rgbf000150-resize_1/001110_2014-06-15_17-25-28_260595134347_rgbf000150-resize_1-target.png,250,1.7115,5,2307,250,feet,jsons/v1_VE250_randls_77.json,501869,708961,42,Woman
108,749493,DepthScenes,duration_manipulation_targetAtFixation,jsons/v1_VE250_randls_77.json,http://54.235.29.9/FacialAge/BNav_EC2/DepthDuration/v2_depth_duration_MTurk/v2_DepthDuration_HTML.html#379,379,1786,978,1680,1050,8-29-2022,15-39-12,109,depth_duration_stimuli/000927_2014-06-09_16-32-30_260595134347_rgbf000123-resize_3/000927_2014-06-09_16-32-30_260595134347_rgbf000123-resize_3-target.png,250,2.6785,6,1947,250,feet,jsons/v1_VE250_randls_77.json,501869,708961,42,Woman
109,749493,DepthScenes,duration_manipulation_targetAtFixation,jsons/v1_VE250_randls_77.json,http://54.235.29.9/FacialAge/BNav_EC2/DepthDuration/v2_depth_duration_MTurk/v2_DepthDuration_HTML.html#379,379,1786,978,1680,1050,8-29-2022,15-39-12,110,depth_duration_stimuli/003492_2014-05-21_15-50-55_094959634447_rgbf000828-resize_1/003492_2014-05-21_15-50-55_094959634447_rgbf000828-resize_1-target.png,250,4.06875,10,2812,250,feet,jsons/v1_VE250_randls_77.json,501869,708961,42,Woman
110,749493,DepthScenes,duration_manipulation_targetAtFixation,jsons/v1_VE250_randls_77.json,http://54.235.29.9/FacialAge/BNav_EC2/DepthDuration/v2_depth_duration_MTurk/v2_DepthDuration_HTML.html#379,379,1786,978,1680,1050,8-29-2022,15-39-12,111,depth_duration_stimuli/002568_2014-06-24_13-59-21_094959634447_rgbf000062-resize_4/002568_2014-06-24_13-59-21_094959634447_rgbf000062-resize_4-target.png,250,3.015,10,2354,250,feet,jsons/v1_VE250_randls_77.json,501869,708961,42,Woman
111,749493,DepthScenes,duration_manipulation_targetAtFixation,jsons/v1_VE250_randls_77.json,http://54.235.29.9/FacialAge/BNav_EC2/DepthDuration/v2_depth_duration_MTurk/v2_DepthDuration_HTML.html#379,379,1786,978,1680,1050,8-29-2022,15-39-12,112,depth_duration_stimuli/000878_2014-06-08_22-52-45_260595134347_rgbf000045-resize_2/000878_2014-06-08_22-52-45_260595134347_rgbf000045-resize_2-target.png,250,2.092,6,4067,250,feet,jsons/v1_VE250_randls_77.json,501869,708961,42,Woman
112,749493,DepthScenes,duration_manipulation_targetAtFixation,jsons/v1_VE250_randls_77.json,http://54.235.29.9/FacialAge/BNav_EC2/DepthDuration/v2_depth_duration_MTurk/v2_DepthDuration_HTML.html#379,379,1786,978,1680,1050,8-29-2022,15-39-12,113,depth_duration_stimuli/002953_2014-06-08_17-32-18_094959634447_rgbf000059-resize_5/002953_2014-06-08_17-32-18_094959634447_rgbf000059-resize_5-target.png,250,1.551,3,6515,250,feet,jsons/v1_VE250_randls_77.json,501869,708961,42,Woman
113,749493,DepthScenes,duration_manipulation_targetAtFixation,jsons/v1_VE250_randls_77.json,http://54.235.29.9/FacialAge/BNav_EC2/DepthDuration/v2_depth_duration_MTurk/v2_DepthDuration_HTML.html#379,379,1786,978,1680,1050,8-29-2022,15-39-12,114,depth_duration_stimuli/002630_2014-06-24_14-47-50_094959634447_rgbf000055-resize_1/002630_2014-06-24_14-47-50_094959634447_rgbf000055-resize_1-target.png,250,3.0095,10,2004,250,feet,jsons/v1_VE250_randls_77.json,501869,708961,42,Woman
114,749493,DepthScenes,duration_manipulation_targetAtFixation,jsons/v1_VE250_randls_77.json,http://54.235.29.9/FacialAge/BNav_EC2/DepthDuration/v2_depth_duration_MTurk/v2_DepthDuration_HTML.html#379,379,1786,978,1680,1050,8-29-2022,15-39-12,115,depth_duration_stimuli/002758_2014-06-22_19-11-20_094959634447_rgbf000128-resize_1/002758_2014-06-22_19-11-20_094959634447_rgbf000128-resize_1-target.png,250,2.555,6,1970,250,feet,jsons/v1_VE250_randls_77.json,501869,708961,42,Woman
115,749493,DepthScenes,duration_manipulation_targetAtFixation,jsons/v1_VE250_randls_77.json,http://54.235.29.9/FacialAge/BNav_EC2/DepthDuration/v2_depth_duration_MTurk/v2_DepthDuration_HTML.html#379,379,1786,978,1680,1050,8-29-2022,15-39-12,116,depth_duration_stimuli/001170_2014-06-17_15-43-44_260595134347_rgbf000096-resize_6/001170_2014-06-17_15-43-44_260595134347_rgbf000096-resize-original.jpg,250,1.1909999999999998,0,2852,249,feet,jsons/v1_VE250_randls_77.json,501869,708961,42,Woman
116,749493,DepthScenes,duration_manipulation_targetAtFixation,jsons/v1_VE250_randls_77.json,http://54.235.29.9/FacialAge/BNav_EC2/DepthDuration/v2_depth_duration_MTurk/v2_DepthDuration_HTML.html#379,379,1786,978,1680,1050,8-29-2022,15-39-12,117,depth_duration_stimuli/000906_2014-06-08_13-35-43_260595134347_rgbf000155-resize_1/000906_2014-06-08_13-35-43_260595134347_rgbf000155-resize_1-target.png,250,2.8489999999999998,10,2324,249,feet,jsons/v1_VE250_randls_77.json,501869,708961,42,Woman
117,749493,DepthScenes,duration_manipulation_targetAtFixation,jsons/v1_VE250_randls_77.json,http://54.235.29.9/FacialAge/BNav_EC2/DepthDuration/v2_depth_duration_MTurk/v2_DepthDuration_HTML.html#379,379,1786,978,1680,1050,8-29-2022,15-39-12,118,depth_duration_stimuli/002805_2014-06-22_19-54-03_094959634447_rgbf000079-resize_1/002805_2014-06-22_19-54-03_094959634447_rgbf000079-resize_1-target.png,250,3.1439999999999997,12,1892,250,feet,jsons/v1_VE250_randls_77.json,501869,708961,42,Woman
118,749493,DepthScenes,duration_manipulation_targetAtFixation,jsons/v1_VE250_randls_77.json,http://54.235.29.9/FacialAge/BNav_EC2/DepthDuration/v2_depth_duration_MTurk/v2_DepthDuration_HTML.html#379,379,1786,978,1680,1050,8-29-2022,15-39-12,119,depth_duration_stimuli/001555_2014-06-20_17-12-10_260595134347_rgbf000065-resize_4/001555_2014-06-20_17-12-10_260595134347_rgbf000065-resize_4-target.png,250,1.633,2,1715,250,feet,jsons/v1_VE250_randls_77.json,501869,708961,42,Woman
119,749493,DepthScenes,duration_manipulation_targetAtFixation,jsons/v1_VE250_randls_77.json,http://54.235.29.9/FacialAge/BNav_EC2/DepthDuration/v2_depth_duration_MTurk/v2_DepthDuration_HTML.html#379,379,1786,978,1680,1050,8-29-2022,15-39-12,120,depth_duration_stimuli/000103_2014-05-14_22-01-17_260595134347_rgbf000152-resize_5/000103_2014-05-14_22-01-17_260595134347_rgbf000152-resize_5-target.png,250,1.993,6,1900,250,feet,jsons/v1_VE250_randls_77.json,501869,708961,42,Woman
120,749493,DepthScenes,duration_manipulation_targetAtFixation,jsons/v1_VE250_randls_77.json,http://54.235.29.9/FacialAge/BNav_EC2/DepthDuration/v2_depth_duration_MTurk/v2_DepthDuration_HTML.html#379,379,1786,978,1680,1050,8-29-2022,15-39-12,121,depth_duration_stimuli/002043_2014-06-24_20-29-38_260595134347_rgbf000039-resize_4/002043_2014-06-24_20-29-38_260595134347_rgbf000039-resize_4-target.png,250,2.8435,7,2018,250,feet,jsons/v1_VE250_randls_77.json,501869,708961,42,Woman
121,749493,DepthScenes,duration_manipulation_targetAtFixation,jsons/v1_VE250_randls_77.json,http://54.235.29.9/FacialAge/BNav_EC2/DepthDuration/v2_depth_duration_MTurk/v2_DepthDuration_HTML.html#379,379,1786,978,1680,1050,8-29-2022,15-39-12,122,depth_duration_stimuli/003048_2014-06-15_13-49-43_094959634447_rgbf000150-resize_1/003048_2014-06-15_13-49-43_094959634447_rgbf000150-resize_1-target.png,250,4.0035,9,3604,249,feet,jsons/v1_VE250_randls_77.json,501869,708961,42,Woman
122,749493,DepthScenes,duration_manipulation_targetAtFixation,jsons/v1_VE250_randls_77.json,http://54.235.29.9/FacialAge/BNav_EC2/DepthDuration/v2_depth_duration_MTurk/v2_DepthDuration_HTML.html#379,379,1786,978,1680,1050,8-29-2022,15-39-12,123,depth_duration_stimuli/000682_2014-06-08_23-14-58_260595134347_rgbf000041-resize_5/000682_2014-06-08_23-14-58_260595134347_rgbf000041-resize_5-target.png,250,2.7239999999999998,8,3291,250,feet,jsons/v1_VE250_randls_77.json,501869,708961,42,Woman
123,749493,DepthScenes,duration_manipulation_targetAtFixation,jsons/v1_VE250_randls_77.json,http://54.235.29.9/FacialAge/BNav_EC2/DepthDuration/v2_depth_duration_MTurk/v2_DepthDuration_HTML.html#379,379,1786,978,1680,1050,8-29-2022,15-39-12,124,depth_duration_stimuli/001650_2014-06-20_12-09-00_260595134347_rgbf000087-resize_3/001650_2014-06-20_12-09-00_260595134347_rgbf000087-resize_3-target.png,250,1.9505,2,1858,250,feet,jsons/v1_VE250_randls_77.json,501869,708961,42,Woman
124,749493,DepthScenes,duration_manipulation_targetAtFixation,jsons/v1_VE250_randls_77.json,http://54.235.29.9/FacialAge/BNav_EC2/DepthDuration/v2_depth_duration_MTurk/v2_DepthDuration_HTML.html#379,379,1786,978,1680,1050,8-29-2022,15-39-12,125,depth_duration_stimuli/000368_2014-06-09_15-53-01_260595134347_rgbf000155-resize_2/000368_2014-06-09_15-53-01_260595134347_rgbf000155-resize_2-target.png,250,2.4859999999999998,5,2163,250,feet,jsons/v1_VE250_randls_77.json,501869,708961,42,Woman
125,749493,DepthScenes,duration_manipulation_targetAtFixation,jsons/v1_VE250_randls_77.json,http://54.235.29.9/FacialAge/BNav_EC2/DepthDuration/v2_depth_duration_MTurk/v2_DepthDuration_HTML.html#379,379,1786,978,1680,1050,8-29-2022,15-39-12,126,depth_duration_stimuli/002678_2014-06-13_16-15-32_094959634447_rgbf000151-resize_6/002678_2014-06-13_16-15-32_094959634447_rgbf000151-resize_6-target.png,250,2.1830000000000003,6,2299,249,feet,jsons/v1_VE250_randls_77.json,501869,708961,42,Woman
126,749493,DepthScenes,duration_manipulation_targetAtFixation,jsons/v1_VE250_randls_77.json,http://54.235.29.9/FacialAge/BNav_EC2/DepthDuration/v2_depth_duration_MTurk/v2_DepthDuration_HTML.html#379,379,1786,978,1680,1050,8-29-2022,15-39-12,127,depth_duration_stimuli/002725_2014-06-22_11-47-51_094959634447_rgbf000070-resize_1/002725_2014-06-22_11-47-51_094959634447_rgbf000070-resize_1-target.png,250,2.195,8,2931,250,feet,jsons/v1_VE250_randls_77.json,501869,708961,42,Woman
127,749493,DepthScenes,duration_manipulation_targetAtFixation,jsons/v1_VE250_randls_77.json,http://54.235.29.9/FacialAge/BNav_EC2/DepthDuration/v2_depth_duration_MTurk/v2_DepthDuration_HTML.html#379,379,1786,978,1680,1050,8-29-2022,15-39-12,128,depth_duration_stimuli/002344_2014-06-28_20-06-29_260595134347_rgbf000030-resize_1/002344_2014-06-28_20-06-29_260595134347_rgbf000030-resize_1-target.png,250,1.5795,2,2187,249,feet,jsons/v1_VE250_randls_77.json,501869,708961,42,Woman
128,749493,DepthScenes,duration_manipulation_targetAtFixation,jsons/v1_VE250_randls_77.json,http://54.235.29.9/FacialAge/BNav_EC2/DepthDuration/v2_depth_duration_MTurk/v2_DepthDuration_HTML.html#379,379,1786,978,1680,1050,8-29-2022,15-39-12,129,depth_duration_stimuli/000506_2014-06-08_23-21-00_260595134347_rgbf000070-resize_7/000506_2014-06-08_23-21-00_260595134347_rgbf000070-resize_7-target.png,250,4.0585,7,2611,250,feet,jsons/v1_VE250_randls_77.json,501869,708961,42,Woman
129,749493,DepthScenes,duration_manipulation_targetAtFixation,jsons/v1_VE250_randls_77.json,http://54.235.29.9/FacialAge/BNav_EC2/DepthDuration/v2_depth_duration_MTurk/v2_DepthDuration_HTML.html#379,379,1786,978,1680,1050,8-29-2022,15-39-12,130,depth_duration_stimuli/003079_2014-06-15_15-18-20_094959634447_rgbf000152-resize_8/003079_2014-06-15_15-18-20_094959634447_rgbf000152-resize_8-target.png,250,2.8775,10,2403,250,feet,jsons/v1_VE250_randls_77.json,501869,708961,42,Woman
130,749493,DepthScenes,duration_manipulation_targetAtFixation,jsons/v1_VE250_randls_77.json,http://54.235.29.9/FacialAge/BNav_EC2/DepthDuration/v2_depth_duration_MTurk/v2_DepthDuration_HTML.html#379,379,1786,978,1680,1050,8-29-2022,15-39-12,131,depth_duration_stimuli/000929_2014-06-09_16-33-19_260595134347_rgbf000139-resize_0/000929_2014-06-09_16-33-19_260595134347_rgbf000139-resize_0-target.png,250,2.8680000000000003,7,2627,250,feet,jsons/v1_VE250_randls_77.json,501869,708961,42,Woman
131,749493,DepthScenes,duration_manipulation_targetAtFixation,jsons/v1_VE250_randls_77.json,http://54.235.29.9/FacialAge/BNav_EC2/DepthDuration/v2_depth_duration_MTurk/v2_DepthDuration_HTML.html#379,379,1786,978,1680,1050,8-29-2022,15-39-12,132,depth_duration_stimuli/000457_2014-06-08_16-52-43_260595134347_rgbf000199-resize_1/000457_2014-06-08_16-52-43_260595134347_rgbf000199-resize_1-target.png,250,3.6489999999999996,8,1988,249,feet,jsons/v1_VE250_randls_77.json,501869,708961,42,Woman
132,749493,DepthScenes,duration_manipulation_targetAtFixation,jsons/v1_VE250_randls_77.json,http://54.235.29.9/FacialAge/BNav_EC2/DepthDuration/v2_depth_duration_MTurk/v2_DepthDuration_HTML.html#379,379,1786,978,1680,1050,8-29-2022,15-39-12,133,depth_duration_stimuli/000642_2014-06-08_16-59-25_260595134347_rgbf000098-resize_2/000642_2014-06-08_16-59-25_260595134347_rgbf000098-resize_2-target.png,250,2.8815,7,2132,249,feet,jsons/v1_VE250_randls_77.json,501869,708961,42,Woman
133,749493,DepthScenes,duration_manipulation_targetAtFixation,jsons/v1_VE250_randls_77.json,http://54.235.29.9/FacialAge/BNav_EC2/DepthDuration/v2_depth_duration_MTurk/v2_DepthDuration_HTML.html#379,379,1786,978,1680,1050,8-29-2022,15-39-12,134,depth_duration_stimuli/002425_2014-06-28_20-27-29_260595134347_rgbf000031-resize_8/002425_2014-06-28_20-27-29_260595134347_rgbf000031-resize_8-target.png,250,3.8960000000000004,10,2899,250,feet,jsons/v1_VE250_randls_77.json,501869,708961,42,Woman
134,749493,DepthScenes,duration_manipulation_targetAtFixation,jsons/v1_VE250_randls_77.json,http://54.235.29.9/FacialAge/BNav_EC2/DepthDuration/v2_depth_duration_MTurk/v2_DepthDuration_HTML.html#379,379,1786,978,1680,1050,8-29-2022,15-39-12,135,depth_duration_stimuli/002072_2014-06-24_21-48-06_260595134347_rgbf000115-resize_0/002072_2014-06-24_21-48-06_260595134347_rgbf000115-resize-original.jpg,250,4.702,0,1697,249,feet,jsons/v1_VE250_randls_77.json,501869,708961,42,Woman
135,749493,DepthScenes,duration_manipulation_targetAtFixation,jsons/v1_VE250_randls_77.json,http://54.235.29.9/FacialAge/BNav_EC2/DepthDuration/v2_depth_duration_MTurk/v2_DepthDuration_HTML.html#379,379,1786,978,1680,1050,8-29-2022,15-39-12,136,depth_duration_stimuli/000917_2014-06-09_22-45-29_260595134347_rgbf000149-resize_3/000917_2014-06-09_22-45-29_260595134347_rgbf000149-resize_3-target.png,250,4.1865,9,2876,250,feet,jsons/v1_VE250_randls_77.json,501869,708961,42,Woman
136,749493,DepthScenes,duration_manipulation_targetAtFixation,jsons/v1_VE250_randls_77.json,http://54.235.29.9/FacialAge/BNav_EC2/DepthDuration/v2_depth_duration_MTurk/v2_DepthDuration_HTML.html#379,379,1786,978,1680,1050,8-29-2022,15-39-12,137,depth_duration_stimuli/002323_2014-06-28_20-01-54_260595134347_rgbf000051-resize_4/002323_2014-06-28_20-01-54_260595134347_rgbf000051-resize_4-target.png,250,3.7310000000000003,10,2043,249,feet,jsons/v1_VE250_randls_77.json,501869,708961,42,Woman
137,749493,DepthScenes,duration_manipulation_targetAtFixation,jsons/v1_VE250_randls_77.json,http://54.235.29.9/FacialAge/BNav_EC2/DepthDuration/v2_depth_duration_MTurk/v2_DepthDuration_HTML.html#379,379,1786,978,1680,1050,8-29-2022,15-39-12,138,depth_duration_stimuli/002272_2014-06-28_18-53-56_260595134347_rgbf000067-resize_2/002272_2014-06-28_18-53-56_260595134347_rgbf000067-resize_2-target.png,250,1.138,3,2068,249,feet,jsons/v1_VE250_randls_77.json,501869,708961,42,Woman
138,749493,DepthScenes,duration_manipulation_targetAtFixation,jsons/v1_VE250_randls_77.json,http://54.235.29.9/FacialAge/BNav_EC2/DepthDuration/v2_depth_duration_MTurk/v2_DepthDuration_HTML.html#379,379,1786,978,1680,1050,8-29-2022,15-39-12,139,depth_duration_stimuli/001571_2014-06-20_17-21-32_260595134347_rgbf000089-resize_1/001571_2014-06-20_17-21-32_260595134347_rgbf000089-resize_1-target.png,250,1.86,4,2100,249,feet,jsons/v1_VE250_randls_77.json,501869,708961,42,Woman
139,749493,DepthScenes,duration_manipulation_targetAtFixation,jsons/v1_VE250_randls_77.json,http://54.235.29.9/FacialAge/BNav_EC2/DepthDuration/v2_depth_duration_MTurk/v2_DepthDuration_HTML.html#379,379,1786,978,1680,1050,8-29-2022,15-39-12,140,depth_duration_stimuli/002964_2014-06-08_17-46-11_094959634447_rgbf000091-resize_4/002964_2014-06-08_17-46-11_094959634447_rgbf000091-resize_4-target.png,250,1.6909999999999998,2,1914,250,feet,jsons/v1_VE250_randls_77.json,501869,708961,42,Woman
140,749493,DepthScenes,duration_manipulation_targetAtFixation,jsons/v1_VE250_randls_77.json,http://54.235.29.9/FacialAge/BNav_EC2/DepthDuration/v2_depth_duration_MTurk/v2_DepthDuration_HTML.html#379,379,1786,978,1680,1050,8-29-2022,15-39-12,141,depth_duration_stimuli/002136_2014-06-25_21-18-03_260595134347_rgbf000109-resize_3/002136_2014-06-25_21-18-03_260595134347_rgbf000109-resize_3-target.png,250,1.9569999999999999,5,2019,250,feet,jsons/v1_VE250_randls_77.json,501869,708961,42,Woman
141,749493,DepthScenes,duration_manipulation_targetAtFixation,jsons/v1_VE250_randls_77.json,http://54.235.29.9/FacialAge/BNav_EC2/DepthDuration/v2_depth_duration_MTurk/v2_DepthDuration_HTML.html#379,379,1786,978,1680,1050,8-29-2022,15-39-12,142,depth_duration_stimuli/001056_2014-06-08_18-46-44_260595134347_rgbf000068-resize_0/001056_2014-06-08_18-46-44_260595134347_rgbf000068-resize_0-target.png,250,2.6625,6,1851,250,feet,jsons/v1_VE250_randls_77.json,501869,708961,42,Woman
142,749493,DepthScenes,duration_manipulation_targetAtFixation,jsons/v1_VE250_randls_77.json,http://54.235.29.9/FacialAge/BNav_EC2/DepthDuration/v2_depth_duration_MTurk/v2_DepthDuration_HTML.html#379,379,1786,978,1680,1050,8-29-2022,15-39-12,143,depth_duration_stimuli/002199_2014-06-28_18-33-56_260595134347_rgbf000074-resize_0/002199_2014-06-28_18-33-56_260595134347_rgbf000074-resize_0-target.png,250,1.996,2,1747,250,feet,jsons/v1_VE250_randls_77.json,501869,708961,42,Woman
143,749493,DepthScenes,duration_manipulation_targetAtFixation,jsons/v1_VE250_randls_77.json,http://54.235.29.9/FacialAge/BNav_EC2/DepthDuration/v2_depth_duration_MTurk/v2_DepthDuration_HTML.html#379,379,1786,978,1680,1050,8-29-2022,15-39-12,144,depth_duration_stimuli/002784_2014-06-22_19-26-30_094959634447_rgbf000083-resize_3/002784_2014-06-22_19-26-30_094959634447_rgbf000083-resize_3-target.png,250,1.8046666666667,2,1851,250,feet,jsons/v1_VE250_randls_77.json,501869,708961,42,Woman
144,749493,DepthScenes,duration_manipulation_targetAtFixation,jsons/v1_VE250_randls_77.json,http://54.235.29.9/FacialAge/BNav_EC2/DepthDuration/v2_depth_duration_MTurk/v2_DepthDuration_HTML.html#379,379,1786,978,1680,1050,8-29-2022,15-39-12,145,depth_duration_stimuli/001100_2014-06-15_17-46-26_260595134347_rgbf000225-resize_2/001100_2014-06-15_17-46-26_260595134347_rgbf000225-resize_2-target.png,250,2.24,3,1852,250,feet,jsons/v1_VE250_randls_77.json,501869,708961,42,Woman
145,749493,DepthScenes,duration_manipulation_targetAtFixation,jsons/v1_VE250_randls_77.json,http://54.235.29.9/FacialAge/BNav_EC2/DepthDuration/v2_depth_duration_MTurk/v2_DepthDuration_HTML.html#379,379,1786,978,1680,1050,8-29-2022,15-39-12,146,depth_duration_stimuli/001498_2014-06-19_17-45-14_260595134347_rgbf000129-resize_4/001498_2014-06-19_17-45-14_260595134347_rgbf000129-resize-original.jpg,250,1.4075,0,1819,249,feet,jsons/v1_VE250_randls_77.json,501869,708961,42,Woman
146,749493,DepthScenes,duration_manipulation_targetAtFixation,jsons/v1_VE250_randls_77.json,http://54.235.29.9/FacialAge/BNav_EC2/DepthDuration/v2_depth_duration_MTurk/v2_DepthDuration_HTML.html#379,379,1786,978,1680,1050,8-29-2022,15-39-12,147,depth_duration_stimuli/002600_2014-06-24_14-27-04_094959634447_rgbf000074-resize_2/002600_2014-06-24_14-27-04_094959634447_rgbf000074-resize_2-target.png,250,2.7575,10,2819,250,feet,jsons/v1_VE250_randls_77.json,501869,708961,42,Woman
147,749493,DepthScenes,duration_manipulation_targetAtFixation,jsons/v1_VE250_randls_77.json,http://54.235.29.9/FacialAge/BNav_EC2/DepthDuration/v2_depth_duration_MTurk/v2_DepthDuration_HTML.html#379,379,1786,978,1680,1050,8-29-2022,15-39-12,148,depth_duration_stimuli/003228_2014-05-14_13-42-35_094959634447_rgbf000101-resize_1/003228_2014-05-14_13-42-35_094959634447_rgbf000101-resize_1-target.png,250,1.9680000000000002,5,2019,250,feet,jsons/v1_VE250_randls_77.json,501869,708961,42,Woman
148,749493,DepthScenes,duration_manipulation_targetAtFixation,jsons/v1_VE250_randls_77.json,http://54.235.29.9/FacialAge/BNav_EC2/DepthDuration/v2_depth_duration_MTurk/v2_DepthDuration_HTML.html#379,379,1786,978,1680,1050,8-29-2022,15-39-12,149,depth_duration_stimuli/002509_2014-06-24_13-19-22_094959634447_rgbf000077-resize_0/002509_2014-06-24_13-19-22_094959634447_rgbf000077-resize_0-target.png,250,1.3065,4,1851,250,feet,jsons/v1_VE250_randls_77.json,501869,708961,42,Woman
149,749493,DepthScenes,duration_manipulation_targetAtFixation,jsons/v1_VE250_randls_77.json,http://54.235.29.9/FacialAge/BNav_EC2/DepthDuration/v2_depth_duration_MTurk/v2_DepthDuration_HTML.html#379,379,1786,978,1680,1050,8-29-2022,15-39-12,150,depth_duration_stimuli/003338_2014-05-20_11-01-23_094959634447_rgbf000051-resize_6/003338_2014-05-20_11-01-23_094959634447_rgbf000051-resize_6-target.png,250,1.693,5,1939,250,feet,jsons/v1_VE250_randls_77.json,501869,708961,42,Woman
150,749493,DepthScenes,duration_manipulation_targetAtFixation,jsons/v1_VE250_randls_77.json,http://54.235.29.9/FacialAge/BNav_EC2/DepthDuration/v2_depth_duration_MTurk/v2_DepthDuration_HTML.html#379,379,1786,978,1680,1050,8-29-2022,15-39-12,151,depth_duration_stimuli/002663_2014-06-13_15-50-26_094959634447_rgbf000075-resize_1/002663_2014-06-13_15-50-26_094959634447_rgbf000075-resize_1-target.png,250,4.7495,7,2547,250,feet,jsons/v1_VE250_randls_77.json,501869,708961,42,Woman
151,749493,DepthScenes,duration_manipulation_targetAtFixation,jsons/v1_VE250_randls_77.json,http://54.235.29.9/FacialAge/BNav_EC2/DepthDuration/v2_depth_duration_MTurk/v2_DepthDuration_HTML.html#379,379,1786,978,1680,1050,8-29-2022,15-39-12,152,depth_duration_stimuli/000409_2014-06-04_19-23-33_260595134347_rgbf000067-resize_0/000409_2014-06-04_19-23-33_260595134347_rgbf000067-resize_0-target.png,250,3.7335,10,2251,249,feet,jsons/v1_VE250_randls_77.json,501869,708961,42,Woman
152,749493,DepthScenes,duration_manipulation_targetAtFixation,jsons/v1_VE250_randls_77.json,http://54.235.29.9/FacialAge/BNav_EC2/DepthDuration/v2_depth_duration_MTurk/v2_DepthDuration_HTML.html#379,379,1786,978,1680,1050,8-29-2022,15-39-12,153,depth_duration_stimuli/001150_2014-06-17_15-27-34_260595134347_rgbf000108-resize_2/001150_2014-06-17_15-27-34_260595134347_rgbf000108-resize_2-target.png,250,4.0325,8,2100,249,feet,jsons/v1_VE250_randls_77.json,501869,708961,42,Woman
153,749493,DepthScenes,duration_manipulation_targetAtFixation,jsons/v1_VE250_randls_77.json,http://54.235.29.9/FacialAge/BNav_EC2/DepthDuration/v2_depth_duration_MTurk/v2_DepthDuration_HTML.html#379,379,1786,978,1680,1050,8-29-2022,15-39-12,154,depth_duration_stimuli/000665_2014-06-09_20-42-35_260595134347_rgbf000110-resize_1/000665_2014-06-09_20-42-35_260595134347_rgbf000110-resize_1-target.png,250,3.057,7,2411,249,feet,jsons/v1_VE250_randls_77.json,501869,708961,42,Woman
154,749493,DepthScenes,duration_manipulation_targetAtFixation,jsons/v1_VE250_randls_77.json,http://54.235.29.9/FacialAge/BNav_EC2/DepthDuration/v2_depth_duration_MTurk/v2_DepthDuration_HTML.html#379,379,1786,978,1680,1050,8-29-2022,15-39-12,155,depth_duration_stimuli/002153_2014-06-25_21-27-18_260595134347_rgbf000038-resize_5/002153_2014-06-25_21-27-18_260595134347_rgbf000038-resize_5-target.png,250,2.505,8,1939,249,feet,jsons/v1_VE250_randls_77.json,501869,708961,42,Woman
155,749493,DepthScenes,duration_manipulation_targetAtFixation,jsons/v1_VE250_randls_77.json,http://54.235.29.9/FacialAge/BNav_EC2/DepthDuration/v2_depth_duration_MTurk/v2_DepthDuration_HTML.html#379,379,1786,978,1680,1050,8-29-2022,15-39-12,156,depth_duration_stimuli/002660_2014-06-13_15-44-18_094959634447_rgbf001878-resize_2/002660_2014-06-13_15-44-18_094959634447_rgbf001878-resize_2-target.png,250,3.576,10,1900,250,feet,jsons/v1_VE250_randls_77.json,501869,708961,42,Woman
156,749493,DepthScenes,duration_manipulation_targetAtFixation,jsons/v1_VE250_randls_77.json,http://54.235.29.9/FacialAge/BNav_EC2/DepthDuration/v2_depth_duration_MTurk/v2_DepthDuration_HTML.html#379,379,1786,978,1680,1050,8-29-2022,15-39-12,157,depth_duration_stimuli/003534_2014-05-22_15-06-10_094959634447_rgbf000102-resize_4/003534_2014-05-22_15-06-10_094959634447_rgbf000102-resize_4-target.png,250,1.426,1,1795,249,feet,jsons/v1_VE250_randls_77.json,501869,708961,42,Woman
157,749493,DepthScenes,duration_manipulation_targetAtFixation,jsons/v1_VE250_randls_77.json,http://54.235.29.9/FacialAge/BNav_EC2/DepthDuration/v2_depth_duration_MTurk/v2_DepthDuration_HTML.html#379,379,1786,978,1680,1050,8-29-2022,15-39-12,158,depth_duration_stimuli/002637_2014-06-24_14-51-13_094959634447_rgbf000066-resize_4/002637_2014-06-24_14-51-13_094959634447_rgbf000066-resize_4-target.png,250,1.9955,6,1731,250,feet,jsons/v1_VE250_randls_77.json,501869,708961,42,Woman
158,749493,DepthScenes,duration_manipulation_targetAtFixation,jsons/v1_VE250_randls_77.json,http://54.235.29.9/FacialAge/BNav_EC2/DepthDuration/v2_depth_duration_MTurk/v2_DepthDuration_HTML.html#379,379,1786,978,1680,1050,8-29-2022,15-39-12,159,depth_duration_stimuli/000758_2014-06-08_22-05-08_260595134347_rgbf000085-resize_0/000758_2014-06-08_22-05-08_260595134347_rgbf000085-resize_0-target.png,250,3.3810000000000002,10,1996,249,feet,jsons/v1_VE250_randls_77.json,501869,708961,42,Woman
159,749493,DepthScenes,duration_manipulation_targetAtFixation,jsons/v1_VE250_randls_77.json,http://54.235.29.9/FacialAge/BNav_EC2/DepthDuration/v2_depth_duration_MTurk/v2_DepthDuration_HTML.html#379,379,1786,978,1680,1050,8-29-2022,15-39-12,160,depth_duration_stimuli/000854_2014-06-09_19-43-13_260595134347_rgbf000066-resize_0/000854_2014-06-09_19-43-13_260595134347_rgbf000066-resize_0-target.png,250,3.068,7,2098,250,feet,jsons/v1_VE250_randls_77.json,501869,708961,42,Woman
160,749493,DepthScenes,duration_manipulation_targetAtFixation,jsons/v1_VE250_randls_77.json,http://54.235.29.9/FacialAge/BNav_EC2/DepthDuration/v2_depth_duration_MTurk/v2_DepthDuration_HTML.html#379,379,1786,978,1680,1050,8-29-2022,15-39-12,161,depth_duration_stimuli/001055_2014-06-08_18-45-35_260595134347_rgbf000111-resize_4/001055_2014-06-08_18-45-35_260595134347_rgbf000111-resize_4-target.png,250,2.4290000000000003,10,2656,249,feet,jsons/v1_VE250_randls_77.json,501869,708961,42,Woman
161,749493,DepthScenes,duration_manipulation_targetAtFixation,jsons/v1_VE250_randls_77.json,http://54.235.29.9/FacialAge/BNav_EC2/DepthDuration/v2_depth_duration_MTurk/v2_DepthDuration_HTML.html#379,379,1786,978,1680,1050,8-29-2022,15-39-12,162,depth_duration_stimuli/000549_2014-06-08_22-10-24_260595134347_rgbf000247-resize_3/000549_2014-06-08_22-10-24_260595134347_rgbf000247-resize_3-target.png,250,1.841,2,1803,250,feet,jsons/v1_VE250_randls_77.json,501869,708961,42,Woman
162,749493,DepthScenes,duration_manipulation_targetAtFixation,jsons/v1_VE250_randls_77.json,http://54.235.29.9/FacialAge/BNav_EC2/DepthDuration/v2_depth_duration_MTurk/v2_DepthDuration_HTML.html#379,379,1786,978,1680,1050,8-29-2022,15-39-12,163,depth_duration_stimuli/001158_2014-06-17_15-32-16_260595134347_rgbf000138-resize_2/001158_2014-06-17_15-32-16_260595134347_rgbf000138-resize_2-target.png,250,4.5315,12,2067,249,feet,jsons/v1_VE250_randls_77.json,501869,708961,42,Woman
163,749493,DepthScenes,duration_manipulation_targetAtFixation,jsons/v1_VE250_randls_77.json,http://54.235.29.9/FacialAge/BNav_EC2/DepthDuration/v2_depth_duration_MTurk/v2_DepthDuration_HTML.html#379,379,1786,978,1680,1050,8-29-2022,15-39-12,164,depth_duration_stimuli/000556_2014-06-09_22-42-56_260595134347_rgbf000214-resize_1/000556_2014-06-09_22-42-56_260595134347_rgbf000214-resize_1-target.png,250,4.8415,12,2307,249,feet,jsons/v1_VE250_randls_77.json,501869,708961,42,Woman
