,subjID,experimentName,versionName,sequenceName,url,selected_row,windowWidth,windowHeight,screenWidth,screenHeight,startDate,startTime,trial,stimulus,duration,actual_depth,depth_estimate,trial_RT,log_sceneDuration,unitSelection,seq_filepath,experimentTime,totalTime,age,gender
0,750246,DepthScenes,duration_manipulation_targetAtFixation,jsons/v1_VE1000_randls_6.json,http://54.235.29.9/FacialAge/BNav_EC2/DepthDuration/v2_depth_duration_MTurk/v2_DepthDuration_HTML.html#42,42,1364,625,1364,768,8-22-2022,7-59-32,1,depth_duration_stimuli/002663_2014-06-13_15-50-26_094959634447_rgbf000075-resize_1/002663_2014-06-13_15-50-26_094959634447_rgbf000075-resize_1-target.png,1000,4.7495,2,3537,999,meters,jsons/v1_VE1000_randls_6.json,715147,864939,48,Woman
1,750246,DepthScenes,duration_manipulation_targetAtFixation,jsons/v1_VE1000_randls_6.json,http://54.235.29.9/FacialAge/BNav_EC2/DepthDuration/v2_depth_duration_MTurk/v2_DepthDuration_HTML.html#42,42,1364,625,1364,768,8-22-2022,7-59-32,2,depth_duration_stimuli/000409_2014-06-04_19-23-33_260595134347_rgbf000067-resize_0/000409_2014-06-04_19-23-33_260595134347_rgbf000067-resize_0-target.png,1000,3.7335,1,3683,998,meters,jsons/v1_VE1000_randls_6.json,715147,864939,48,Woman
2,750246,DepthScenes,duration_manipulation_targetAtFixation,jsons/v1_VE1000_randls_6.json,http://54.235.29.9/FacialAge/BNav_EC2/DepthDuration/v2_depth_duration_MTurk/v2_DepthDuration_HTML.html#42,42,1364,625,1364,768,8-22-2022,7-59-32,3,depth_duration_stimuli/002905_2014-06-03_18-04-43_094959634447_rgbf000151-resize_2/002905_2014-06-03_18-04-43_094959634447_rgbf000151-resize_2-target.png,1000,2.0295,0,4330,1008,meters,jsons/v1_VE1000_randls_6.json,715147,864939,48,Woman
3,750246,DepthScenes,duration_manipulation_targetAtFixation,jsons/v1_VE1000_randls_6.json,http://54.235.29.9/FacialAge/BNav_EC2/DepthDuration/v2_depth_duration_MTurk/v2_DepthDuration_HTML.html#42,42,1364,625,1364,768,8-22-2022,7-59-32,4,depth_duration_stimuli/003423_2014-05-21_10-23-26_094959634447_rgbf002665-resize_2/003423_2014-05-21_10-23-26_094959634447_rgbf002665-resize_2-target.png,1000,3.2575,1,3508,994,meters,jsons/v1_VE1000_randls_6.json,715147,864939,48,Woman
4,750246,DepthScenes,duration_manipulation_targetAtFixation,jsons/v1_VE1000_randls_6.json,http://54.235.29.9/FacialAge/BNav_EC2/DepthDuration/v2_depth_duration_MTurk/v2_DepthDuration_HTML.html#42,42,1364,625,1364,768,8-22-2022,7-59-32,5,depth_duration_stimuli/000642_2014-06-08_16-59-25_260595134347_rgbf000098-resize_2/000642_2014-06-08_16-59-25_260595134347_rgbf000098-resize_2-target.png,1000,2.8815,2,3878,989,meters,jsons/v1_VE1000_randls_6.json,715147,864939,48,Woman
5,750246,DepthScenes,duration_manipulation_targetAtFixation,jsons/v1_VE1000_randls_6.json,http://54.235.29.9/FacialAge/BNav_EC2/DepthDuration/v2_depth_duration_MTurk/v2_DepthDuration_HTML.html#42,42,1364,625,1364,768,8-22-2022,7-59-32,6,depth_duration_stimuli/002425_2014-06-28_20-27-29_260595134347_rgbf000031-resize_8/002425_2014-06-28_20-27-29_260595134347_rgbf000031-resize_8-target.png,1000,3.8960000000000004,1,4571,996,meters,jsons/v1_VE1000_randls_6.json,715147,864939,48,Woman
6,750246,DepthScenes,duration_manipulation_targetAtFixation,jsons/v1_VE1000_randls_6.json,http://54.235.29.9/FacialAge/BNav_EC2/DepthDuration/v2_depth_duration_MTurk/v2_DepthDuration_HTML.html#42,42,1364,625,1364,768,8-22-2022,7-59-32,7,depth_duration_stimuli/001449_2014-06-19_17-01-27_260595134347_rgbf000116-resize_2/001449_2014-06-19_17-01-27_260595134347_rgbf000116-resize_2-target.png,1000,3.452,4,3569,1002,meters,jsons/v1_VE1000_randls_6.json,715147,864939,48,Woman
7,750246,DepthScenes,duration_manipulation_targetAtFixation,jsons/v1_VE1000_randls_6.json,http://54.235.29.9/FacialAge/BNav_EC2/DepthDuration/v2_depth_duration_MTurk/v2_DepthDuration_HTML.html#42,42,1364,625,1364,768,8-22-2022,7-59-32,8,depth_duration_stimuli/001450_2014-06-19_17-02-03_260595134347_rgbf000203-resize_4/001450_2014-06-19_17-02-03_260595134347_rgbf000203-resize_4-target.png,1000,4.0106666666667,8,4176,986,meters,jsons/v1_VE1000_randls_6.json,715147,864939,48,Woman
8,750246,DepthScenes,duration_manipulation_targetAtFixation,jsons/v1_VE1000_randls_6.json,http://54.235.29.9/FacialAge/BNav_EC2/DepthDuration/v2_depth_duration_MTurk/v2_DepthDuration_HTML.html#42,42,1364,625,1364,768,8-22-2022,7-59-32,9,depth_duration_stimuli/002272_2014-06-28_18-53-56_260595134347_rgbf000067-resize_2/002272_2014-06-28_18-53-56_260595134347_rgbf000067-resize_2-target.png,1000,1.138,8,4261,988,meters,jsons/v1_VE1000_randls_6.json,715147,864939,48,Woman
9,750246,DepthScenes,duration_manipulation_targetAtFixation,jsons/v1_VE1000_randls_6.json,http://54.235.29.9/FacialAge/BNav_EC2/DepthDuration/v2_depth_duration_MTurk/v2_DepthDuration_HTML.html#42,42,1364,625,1364,768,8-22-2022,7-59-32,10,depth_duration_stimuli/001571_2014-06-20_17-21-32_260595134347_rgbf000089-resize_1/001571_2014-06-20_17-21-32_260595134347_rgbf000089-resize_1-target.png,1000,1.86,5,4052,998,meters,jsons/v1_VE1000_randls_6.json,715147,864939,48,Woman
10,750246,DepthScenes,duration_manipulation_targetAtFixation,jsons/v1_VE1000_randls_6.json,http://54.235.29.9/FacialAge/BNav_EC2/DepthDuration/v2_depth_duration_MTurk/v2_DepthDuration_HTML.html#42,42,1364,625,1364,768,8-22-2022,7-59-32,11,depth_duration_stimuli/002630_2014-06-24_14-47-50_094959634447_rgbf000055-resize_1/002630_2014-06-24_14-47-50_094959634447_rgbf000055-resize_1-target.png,1000,3.0095,9,4273,988,meters,jsons/v1_VE1000_randls_6.json,715147,864939,48,Woman
11,750246,DepthScenes,duration_manipulation_targetAtFixation,jsons/v1_VE1000_randls_6.json,http://54.235.29.9/FacialAge/BNav_EC2/DepthDuration/v2_depth_duration_MTurk/v2_DepthDuration_HTML.html#42,42,1364,625,1364,768,8-22-2022,7-59-32,12,depth_duration_stimuli/002758_2014-06-22_19-11-20_094959634447_rgbf000128-resize_1/002758_2014-06-22_19-11-20_094959634447_rgbf000128-resize_1-target.png,1000,2.555,4,5051,1012,meters,jsons/v1_VE1000_randls_6.json,715147,864939,48,Woman
12,750246,DepthScenes,duration_manipulation_targetAtFixation,jsons/v1_VE1000_randls_6.json,http://54.235.29.9/FacialAge/BNav_EC2/DepthDuration/v2_depth_duration_MTurk/v2_DepthDuration_HTML.html#42,42,1364,625,1364,768,8-22-2022,7-59-32,13,depth_duration_stimuli/000569_2014-06-09_22-51-47_260595134347_rgbf000141-resize_3/000569_2014-06-09_22-51-47_260595134347_rgbf000141-resize-original.jpg,1000,4.512,0,4598,970,meters,jsons/v1_VE1000_randls_6.json,715147,864939,48,Woman
13,750246,DepthScenes,duration_manipulation_targetAtFixation,jsons/v1_VE1000_randls_6.json,http://54.235.29.9/FacialAge/BNav_EC2/DepthDuration/v2_depth_duration_MTurk/v2_DepthDuration_HTML.html#42,42,1364,625,1364,768,8-22-2022,7-59-32,14,depth_duration_stimuli/002784_2014-06-22_19-26-30_094959634447_rgbf000083-resize_3/002784_2014-06-22_19-26-30_094959634447_rgbf000083-resize_3-target.png,1000,1.8046666666667,5,5316,998,meters,jsons/v1_VE1000_randls_6.json,715147,864939,48,Woman
14,750246,DepthScenes,duration_manipulation_targetAtFixation,jsons/v1_VE1000_randls_6.json,http://54.235.29.9/FacialAge/BNav_EC2/DepthDuration/v2_depth_duration_MTurk/v2_DepthDuration_HTML.html#42,42,1364,625,1364,768,8-22-2022,7-59-32,15,depth_duration_stimuli/001100_2014-06-15_17-46-26_260595134347_rgbf000225-resize_2/001100_2014-06-15_17-46-26_260595134347_rgbf000225-resize_2-target.png,1000,2.24,4,4520,1012,meters,jsons/v1_VE1000_randls_6.json,715147,864939,48,Woman
15,750246,DepthScenes,duration_manipulation_targetAtFixation,jsons/v1_VE1000_randls_6.json,http://54.235.29.9/FacialAge/BNav_EC2/DepthDuration/v2_depth_duration_MTurk/v2_DepthDuration_HTML.html#42,42,1364,625,1364,768,8-22-2022,7-59-32,16,depth_duration_stimuli/002988_2014-06-15_12-24-20_094959634447_rgbf000150-resize_1/002988_2014-06-15_12-24-20_094959634447_rgbf000150-resize_1-target.png,1000,4.7669999999999995,0,4502,984,meters,jsons/v1_VE1000_randls_6.json,715147,864939,48,Woman
16,750246,DepthScenes,duration_manipulation_targetAtFixation,jsons/v1_VE1000_randls_6.json,http://54.235.29.9/FacialAge/BNav_EC2/DepthDuration/v2_depth_duration_MTurk/v2_DepthDuration_HTML.html#42,42,1364,625,1364,768,8-22-2022,7-59-32,17,depth_duration_stimuli/001052_2014-06-08_18-24-54_260595134347_rgbf000130-resize_1/001052_2014-06-08_18-24-54_260595134347_rgbf000130-resize_1-target.png,1000,4.1045,8,3618,994,meters,jsons/v1_VE1000_randls_6.json,715147,864939,48,Woman
17,750246,DepthScenes,duration_manipulation_targetAtFixation,jsons/v1_VE1000_randls_6.json,http://54.235.29.9/FacialAge/BNav_EC2/DepthDuration/v2_depth_duration_MTurk/v2_DepthDuration_HTML.html#42,42,1364,625,1364,768,8-22-2022,7-59-32,18,depth_duration_stimuli/002748_2014-06-22_19-07-22_094959634447_rgbf000078-resize_1/002748_2014-06-22_19-07-22_094959634447_rgbf000078-resize_1-target.png,1000,4.6705,7,4339,995,meters,jsons/v1_VE1000_randls_6.json,715147,864939,48,Woman
18,750246,DepthScenes,duration_manipulation_targetAtFixation,jsons/v1_VE1000_randls_6.json,http://54.235.29.9/FacialAge/BNav_EC2/DepthDuration/v2_depth_duration_MTurk/v2_DepthDuration_HTML.html#42,42,1364,625,1364,768,8-22-2022,7-59-32,19,depth_duration_stimuli/002995_2014-06-15_12-31-26_094959634447_rgbf000150-resize_1/002995_2014-06-15_12-31-26_094959634447_rgbf000150-resize_1-target.png,1000,3.8360000000000003,0,4775,998,meters,jsons/v1_VE1000_randls_6.json,715147,864939,48,Woman
19,750246,DepthScenes,duration_manipulation_targetAtFixation,jsons/v1_VE1000_randls_6.json,http://54.235.29.9/FacialAge/BNav_EC2/DepthDuration/v2_depth_duration_MTurk/v2_DepthDuration_HTML.html#42,42,1364,625,1364,768,8-22-2022,7-59-32,20,depth_duration_stimuli/002213_2014-06-28_18-37-58_260595134347_rgbf000055-resize_1/002213_2014-06-28_18-37-58_260595134347_rgbf000055-resize_1-target.png,1000,3.62,5,8442,1003,meters,jsons/v1_VE1000_randls_6.json,715147,864939,48,Woman
20,750246,DepthScenes,duration_manipulation_targetAtFixation,jsons/v1_VE1000_randls_6.json,http://54.235.29.9/FacialAge/BNav_EC2/DepthDuration/v2_depth_duration_MTurk/v2_DepthDuration_HTML.html#42,42,1364,625,1364,768,8-22-2022,7-59-32,21,depth_duration_stimuli/000691_2014-06-08_13-08-50_260595134347_rgbf000132-resize_3/000691_2014-06-08_13-08-50_260595134347_rgbf000132-resize_3-target.png,1000,4.1530000000000005,5,3694,984,meters,jsons/v1_VE1000_randls_6.json,715147,864939,48,Woman
21,750246,DepthScenes,duration_manipulation_targetAtFixation,jsons/v1_VE1000_randls_6.json,http://54.235.29.9/FacialAge/BNav_EC2/DepthDuration/v2_depth_duration_MTurk/v2_DepthDuration_HTML.html#42,42,1364,625,1364,768,8-22-2022,7-59-32,22,depth_duration_stimuli/003492_2014-05-21_15-50-55_094959634447_rgbf000828-resize_1/003492_2014-05-21_15-50-55_094959634447_rgbf000828-resize_1-target.png,1000,4.06875,0,3820,995,meters,jsons/v1_VE1000_randls_6.json,715147,864939,48,Woman
22,750246,DepthScenes,duration_manipulation_targetAtFixation,jsons/v1_VE1000_randls_6.json,http://54.235.29.9/FacialAge/BNav_EC2/DepthDuration/v2_depth_duration_MTurk/v2_DepthDuration_HTML.html#42,42,1364,625,1364,768,8-22-2022,7-59-32,23,depth_duration_stimuli/002568_2014-06-24_13-59-21_094959634447_rgbf000062-resize_4/002568_2014-06-24_13-59-21_094959634447_rgbf000062-resize_4-target.png,1000,3.015,0,3295,996,meters,jsons/v1_VE1000_randls_6.json,715147,864939,48,Woman
23,750246,DepthScenes,duration_manipulation_targetAtFixation,jsons/v1_VE1000_randls_6.json,http://54.235.29.9/FacialAge/BNav_EC2/DepthDuration/v2_depth_duration_MTurk/v2_DepthDuration_HTML.html#42,42,1364,625,1364,768,8-22-2022,7-59-32,24,depth_duration_stimuli/001011_2014-06-08_23-18-54_260595134347_rgbf000044-resize_4/001011_2014-06-08_23-18-54_260595134347_rgbf000044-resize_4-target.png,1000,2.4730000000000003,2,3914,1028,meters,jsons/v1_VE1000_randls_6.json,715147,864939,48,Woman
24,750246,DepthScenes,duration_manipulation_targetAtFixation,jsons/v1_VE1000_randls_6.json,http://54.235.29.9/FacialAge/BNav_EC2/DepthDuration/v2_depth_duration_MTurk/v2_DepthDuration_HTML.html#42,42,1364,625,1364,768,8-22-2022,7-59-32,25,depth_duration_stimuli/002875_2014-06-01_15-19-00_094959634447_rgbf000151-resize_1/002875_2014-06-01_15-19-00_094959634447_rgbf000151-resize_1-target.png,1000,1.9675,0,3452,994,meters,jsons/v1_VE1000_randls_6.json,715147,864939,48,Woman
25,750246,DepthScenes,duration_manipulation_targetAtFixation,jsons/v1_VE1000_randls_6.json,http://54.235.29.9/FacialAge/BNav_EC2/DepthDuration/v2_depth_duration_MTurk/v2_DepthDuration_HTML.html#42,42,1364,625,1364,768,8-22-2022,7-59-32,26,depth_duration_stimuli/002964_2014-06-08_17-46-11_094959634447_rgbf000091-resize_4/002964_2014-06-08_17-46-11_094959634447_rgbf000091-resize_4-target.png,1000,1.6909999999999998,4,3421,992,meters,jsons/v1_VE1000_randls_6.json,715147,864939,48,Woman
26,750246,DepthScenes,duration_manipulation_targetAtFixation,jsons/v1_VE1000_randls_6.json,http://54.235.29.9/FacialAge/BNav_EC2/DepthDuration/v2_depth_duration_MTurk/v2_DepthDuration_HTML.html#42,42,1364,625,1364,768,8-22-2022,7-59-32,27,depth_duration_stimuli/002136_2014-06-25_21-18-03_260595134347_rgbf000109-resize_3/002136_2014-06-25_21-18-03_260595134347_rgbf000109-resize_3-target.png,1000,1.9569999999999999,7,3965,994,meters,jsons/v1_VE1000_randls_6.json,715147,864939,48,Woman
27,750246,DepthScenes,duration_manipulation_targetAtFixation,jsons/v1_VE1000_randls_6.json,http://54.235.29.9/FacialAge/BNav_EC2/DepthDuration/v2_depth_duration_MTurk/v2_DepthDuration_HTML.html#42,42,1364,625,1364,768,8-22-2022,7-59-32,28,depth_duration_stimuli/001555_2014-06-20_17-12-10_260595134347_rgbf000065-resize_4/001555_2014-06-20_17-12-10_260595134347_rgbf000065-resize_4-target.png,1000,1.633,7,4204,1001,meters,jsons/v1_VE1000_randls_6.json,715147,864939,48,Woman
28,750246,DepthScenes,duration_manipulation_targetAtFixation,jsons/v1_VE1000_randls_6.json,http://54.235.29.9/FacialAge/BNav_EC2/DepthDuration/v2_depth_duration_MTurk/v2_DepthDuration_HTML.html#42,42,1364,625,1364,768,8-22-2022,7-59-32,29,depth_duration_stimuli/000103_2014-05-14_22-01-17_260595134347_rgbf000152-resize_5/000103_2014-05-14_22-01-17_260595134347_rgbf000152-resize_5-target.png,1000,1.993,2,4737,990,meters,jsons/v1_VE1000_randls_6.json,715147,864939,48,Woman
29,750246,DepthScenes,duration_manipulation_targetAtFixation,jsons/v1_VE1000_randls_6.json,http://54.235.29.9/FacialAge/BNav_EC2/DepthDuration/v2_depth_duration_MTurk/v2_DepthDuration_HTML.html#42,42,1364,625,1364,768,8-22-2022,7-59-32,30,depth_duration_stimuli/000375_2014-06-08_11-17-29_260595134347_rgbf000133-resize_2/000375_2014-06-08_11-17-29_260595134347_rgbf000133-resize-original.jpg,1000,4.718,7,3860,990,meters,jsons/v1_VE1000_randls_6.json,715147,864939,48,Woman
30,750246,DepthScenes,duration_manipulation_targetAtFixation,jsons/v1_VE1000_randls_6.json,http://54.235.29.9/FacialAge/BNav_EC2/DepthDuration/v2_depth_duration_MTurk/v2_DepthDuration_HTML.html#42,42,1364,625,1364,768,8-22-2022,7-59-32,31,depth_duration_stimuli/001175_2014-06-17_15-45-55_260595134347_rgbf000129-resize_4/001175_2014-06-17_15-45-55_260595134347_rgbf000129-resize_4-target.png,1000,4.255,4,4123,1004,meters,jsons/v1_VE1000_randls_6.json,715147,864939,48,Woman
31,750246,DepthScenes,duration_manipulation_targetAtFixation,jsons/v1_VE1000_randls_6.json,http://54.235.29.9/FacialAge/BNav_EC2/DepthDuration/v2_depth_duration_MTurk/v2_DepthDuration_HTML.html#42,42,1364,625,1364,768,8-22-2022,7-59-32,32,depth_duration_stimuli/003490_2014-05-21_15-50-11_094959634447_rgbf000101-resize_3/003490_2014-05-21_15-50-11_094959634447_rgbf000101-resize_3-target.png,1000,3.6445,0,3861,999,meters,jsons/v1_VE1000_randls_6.json,715147,864939,48,Woman
32,750246,DepthScenes,duration_manipulation_targetAtFixation,jsons/v1_VE1000_randls_6.json,http://54.235.29.9/FacialAge/BNav_EC2/DepthDuration/v2_depth_duration_MTurk/v2_DepthDuration_HTML.html#42,42,1364,625,1364,768,8-22-2022,7-59-32,33,depth_duration_stimuli/003534_2014-05-22_15-06-10_094959634447_rgbf000102-resize_4/003534_2014-05-22_15-06-10_094959634447_rgbf000102-resize_4-target.png,1000,1.426,5,4329,1001,meters,jsons/v1_VE1000_randls_6.json,715147,864939,48,Woman
33,750246,DepthScenes,duration_manipulation_targetAtFixation,jsons/v1_VE1000_randls_6.json,http://54.235.29.9/FacialAge/BNav_EC2/DepthDuration/v2_depth_duration_MTurk/v2_DepthDuration_HTML.html#42,42,1364,625,1364,768,8-22-2022,7-59-32,34,depth_duration_stimuli/002637_2014-06-24_14-51-13_094959634447_rgbf000066-resize_4/002637_2014-06-24_14-51-13_094959634447_rgbf000066-resize_4-target.png,1000,1.9955,0,3716,998,meters,jsons/v1_VE1000_randls_6.json,715147,864939,48,Woman
34,750246,DepthScenes,duration_manipulation_targetAtFixation,jsons/v1_VE1000_randls_6.json,http://54.235.29.9/FacialAge/BNav_EC2/DepthDuration/v2_depth_duration_MTurk/v2_DepthDuration_HTML.html#42,42,1364,625,1364,768,8-22-2022,7-59-32,35,depth_duration_stimuli/001110_2014-06-15_17-25-28_260595134347_rgbf000150-resize_1/001110_2014-06-15_17-25-28_260595134347_rgbf000150-resize_1-target.png,1000,1.7115,5,3354,987,meters,jsons/v1_VE1000_randls_6.json,715147,864939,48,Woman
35,750246,DepthScenes,duration_manipulation_targetAtFixation,jsons/v1_VE1000_randls_6.json,http://54.235.29.9/FacialAge/BNav_EC2/DepthDuration/v2_depth_duration_MTurk/v2_DepthDuration_HTML.html#42,42,1364,625,1364,768,8-22-2022,7-59-32,36,depth_duration_stimuli/000927_2014-06-09_16-32-30_260595134347_rgbf000123-resize_3/000927_2014-06-09_16-32-30_260595134347_rgbf000123-resize_3-target.png,1000,2.6785,0,3750,998,meters,jsons/v1_VE1000_randls_6.json,715147,864939,48,Woman
36,750246,DepthScenes,duration_manipulation_targetAtFixation,jsons/v1_VE1000_randls_6.json,http://54.235.29.9/FacialAge/BNav_EC2/DepthDuration/v2_depth_duration_MTurk/v2_DepthDuration_HTML.html#42,42,1364,625,1364,768,8-22-2022,7-59-32,37,depth_duration_stimuli/001810_2014-06-26_20-51-35_260595134347_rgbf000040-resize_3/001810_2014-06-26_20-51-35_260595134347_rgbf000040-resize_3-target.png,1000,2.2525,8,4285,1002,meters,jsons/v1_VE1000_randls_6.json,715147,864939,48,Woman
37,750246,DepthScenes,duration_manipulation_targetAtFixation,jsons/v1_VE1000_randls_6.json,http://54.235.29.9/FacialAge/BNav_EC2/DepthDuration/v2_depth_duration_MTurk/v2_DepthDuration_HTML.html#42,42,1364,625,1364,768,8-22-2022,7-59-32,38,depth_duration_stimuli/003010_2014-06-15_12-54-35_094959634447_rgbf000112-resize_0/003010_2014-06-15_12-54-35_094959634447_rgbf000112-resize_0-target.png,1000,3.1185,7,4252,990,meters,jsons/v1_VE1000_randls_6.json,715147,864939,48,Woman
38,750246,DepthScenes,duration_manipulation_targetAtFixation,jsons/v1_VE1000_randls_6.json,http://54.235.29.9/FacialAge/BNav_EC2/DepthDuration/v2_depth_duration_MTurk/v2_DepthDuration_HTML.html#42,42,1364,625,1364,768,8-22-2022,7-59-32,39,depth_duration_stimuli/002445_2014-06-28_20-32-16_260595134347_rgbf000029-resize_4/002445_2014-06-28_20-32-16_260595134347_rgbf000029-resize_4-target.png,1000,2.5315,5,3763,992,meters,jsons/v1_VE1000_randls_6.json,715147,864939,48,Woman
39,750246,DepthScenes,duration_manipulation_targetAtFixation,jsons/v1_VE1000_randls_6.json,http://54.235.29.9/FacialAge/BNav_EC2/DepthDuration/v2_depth_duration_MTurk/v2_DepthDuration_HTML.html#42,42,1364,625,1364,768,8-22-2022,7-59-32,40,depth_duration_stimuli/000780_2014-06-08_22-28-29_260595134347_rgbf000126-resize_1/000780_2014-06-08_22-28-29_260595134347_rgbf000126-resize_1-target.png,1000,3.3825,5,8842,972,meters,jsons/v1_VE1000_randls_6.json,715147,864939,48,Woman
40,750246,DepthScenes,duration_manipulation_targetAtFixation,jsons/v1_VE1000_randls_6.json,http://54.235.29.9/FacialAge/BNav_EC2/DepthDuration/v2_depth_duration_MTurk/v2_DepthDuration_HTML.html#42,42,1364,625,1364,768,8-22-2022,7-59-32,41,depth_duration_stimuli/002763_2014-06-22_19-13-10_094959634447_rgbf000075-resize_4/002763_2014-06-22_19-13-10_094959634447_rgbf000075-resize_4-target.png,1000,1.68375,4,3590,999,meters,jsons/v1_VE1000_randls_6.json,715147,864939,48,Woman
41,750246,DepthScenes,duration_manipulation_targetAtFixation,jsons/v1_VE1000_randls_6.json,http://54.235.29.9/FacialAge/BNav_EC2/DepthDuration/v2_depth_duration_MTurk/v2_DepthDuration_HTML.html#42,42,1364,625,1364,768,8-22-2022,7-59-32,42,depth_duration_stimuli/002209_2014-06-28_18-36-10_260595134347_rgbf000051-resize_1/002209_2014-06-28_18-36-10_260595134347_rgbf000051-resize_1-target.png,1000,2.057,5,3422,1005,meters,jsons/v1_VE1000_randls_6.json,715147,864939,48,Woman
42,750246,DepthScenes,duration_manipulation_targetAtFixation,jsons/v1_VE1000_randls_6.json,http://54.235.29.9/FacialAge/BNav_EC2/DepthDuration/v2_depth_duration_MTurk/v2_DepthDuration_HTML.html#42,42,1364,625,1364,768,8-22-2022,7-59-32,43,depth_duration_stimuli/000009_2014-05-26_14-32-05_260595134347_rgbf000034-resize_3/000009_2014-05-26_14-32-05_260595134347_rgbf000034-resize_3-target.png,1000,3.8715,2,3388,1002,meters,jsons/v1_VE1000_randls_6.json,715147,864939,48,Woman
43,750246,DepthScenes,duration_manipulation_targetAtFixation,jsons/v1_VE1000_randls_6.json,http://54.235.29.9/FacialAge/BNav_EC2/DepthDuration/v2_depth_duration_MTurk/v2_DepthDuration_HTML.html#42,42,1364,625,1364,768,8-22-2022,7-59-32,44,depth_duration_stimuli/001828_2014-06-26_21-40-03_260595134347_rgbf000024-resize_0/001828_2014-06-26_21-40-03_260595134347_rgbf000024-resize_0-target.png,1000,4.8260000000000005,1,3614,997,meters,jsons/v1_VE1000_randls_6.json,715147,864939,48,Woman
44,750246,DepthScenes,duration_manipulation_targetAtFixation,jsons/v1_VE1000_randls_6.json,http://54.235.29.9/FacialAge/BNav_EC2/DepthDuration/v2_depth_duration_MTurk/v2_DepthDuration_HTML.html#42,42,1364,625,1364,768,8-22-2022,7-59-32,45,depth_duration_stimuli/000787_2014-06-08_22-33-53_260595134347_rgbf000175-resize_1/000787_2014-06-08_22-33-53_260595134347_rgbf000175-resize-original.jpg,1000,4.784,0,3551,988,meters,jsons/v1_VE1000_randls_6.json,715147,864939,48,Woman
45,750246,DepthScenes,duration_manipulation_targetAtFixation,jsons/v1_VE1000_randls_6.json,http://54.235.29.9/FacialAge/BNav_EC2/DepthDuration/v2_depth_duration_MTurk/v2_DepthDuration_HTML.html#42,42,1364,625,1364,768,8-22-2022,7-59-32,46,depth_duration_stimuli/000917_2014-06-09_22-45-29_260595134347_rgbf000149-resize_3/000917_2014-06-09_22-45-29_260595134347_rgbf000149-resize_3-target.png,1000,4.1865,5,3703,986,meters,jsons/v1_VE1000_randls_6.json,715147,864939,48,Woman
46,750246,DepthScenes,duration_manipulation_targetAtFixation,jsons/v1_VE1000_randls_6.json,http://54.235.29.9/FacialAge/BNav_EC2/DepthDuration/v2_depth_duration_MTurk/v2_DepthDuration_HTML.html#42,42,1364,625,1364,768,8-22-2022,7-59-32,47,depth_duration_stimuli/002323_2014-06-28_20-01-54_260595134347_rgbf000051-resize_4/002323_2014-06-28_20-01-54_260595134347_rgbf000051-resize_4-target.png,1000,3.7310000000000003,7,3621,990,meters,jsons/v1_VE1000_randls_6.json,715147,864939,48,Woman
47,750246,DepthScenes,duration_manipulation_targetAtFixation,jsons/v1_VE1000_randls_6.json,http://54.235.29.9/FacialAge/BNav_EC2/DepthDuration/v2_depth_duration_MTurk/v2_DepthDuration_HTML.html#42,42,1364,625,1364,768,8-22-2022,7-59-32,48,depth_duration_stimuli/001570_2014-06-20_17-21-09_260595134347_rgbf000135-resize_4/001570_2014-06-20_17-21-09_260595134347_rgbf000135-resize_4-target.png,1000,4.467,7,4120,996,meters,jsons/v1_VE1000_randls_6.json,715147,864939,48,Woman
48,750246,DepthScenes,duration_manipulation_targetAtFixation,jsons/v1_VE1000_randls_6.json,http://54.235.29.9/FacialAge/BNav_EC2/DepthDuration/v2_depth_duration_MTurk/v2_DepthDuration_HTML.html#42,42,1364,625,1364,768,8-22-2022,7-59-32,49,depth_duration_stimuli/001392_2014-06-19_16-07-59_260595134347_rgbf000046-resize_1/001392_2014-06-19_16-07-59_260595134347_rgbf000046-resize_1-target.png,1000,4.135,4,3074,997,meters,jsons/v1_VE1000_randls_6.json,715147,864939,48,Woman
49,750246,DepthScenes,duration_manipulation_targetAtFixation,jsons/v1_VE1000_randls_6.json,http://54.235.29.9/FacialAge/BNav_EC2/DepthDuration/v2_depth_duration_MTurk/v2_DepthDuration_HTML.html#42,42,1364,625,1364,768,8-22-2022,7-59-32,50,depth_duration_stimuli/000788_2014-06-08_22-34-36_260595134347_rgbf000131-resize_1/000788_2014-06-08_22-34-36_260595134347_rgbf000131-resize_1-target.png,1000,3.359,2,4347,986,meters,jsons/v1_VE1000_randls_6.json,715147,864939,48,Woman
50,750246,DepthScenes,duration_manipulation_targetAtFixation,jsons/v1_VE1000_randls_6.json,http://54.235.29.9/FacialAge/BNav_EC2/DepthDuration/v2_depth_duration_MTurk/v2_DepthDuration_HTML.html#42,42,1364,625,1364,768,8-22-2022,7-59-32,51,depth_duration_stimuli/001235_2014-06-17_16-37-36_260595134347_rgbf000084-resize_4/001235_2014-06-17_16-37-36_260595134347_rgbf000084-resize_4-target.png,1000,3.6605,8,3478,1009,meters,jsons/v1_VE1000_randls_6.json,715147,864939,48,Woman
51,750246,DepthScenes,duration_manipulation_targetAtFixation,jsons/v1_VE1000_randls_6.json,http://54.235.29.9/FacialAge/BNav_EC2/DepthDuration/v2_depth_duration_MTurk/v2_DepthDuration_HTML.html#42,42,1364,625,1364,768,8-22-2022,7-59-32,52,depth_duration_stimuli/000739_2014-06-08_18-45-58_260595134347_rgbf000068-resize_1/000739_2014-06-08_18-45-58_260595134347_rgbf000068-resize_1-target.png,1000,3.534,0,3623,986,meters,jsons/v1_VE1000_randls_6.json,715147,864939,48,Woman
52,750246,DepthScenes,duration_manipulation_targetAtFixation,jsons/v1_VE1000_randls_6.json,http://54.235.29.9/FacialAge/BNav_EC2/DepthDuration/v2_depth_duration_MTurk/v2_DepthDuration_HTML.html#42,42,1364,625,1364,768,8-22-2022,7-59-32,53,depth_duration_stimuli/000734_2014-06-08_17-39-11_260595134347_rgbf000128-resize_2/000734_2014-06-08_17-39-11_260595134347_rgbf000128-resize_2-target.png,1000,4.098,8,3853,999,meters,jsons/v1_VE1000_randls_6.json,715147,864939,48,Woman
53,750246,DepthScenes,duration_manipulation_targetAtFixation,jsons/v1_VE1000_randls_6.json,http://54.235.29.9/FacialAge/BNav_EC2/DepthDuration/v2_depth_duration_MTurk/v2_DepthDuration_HTML.html#42,42,1364,625,1364,768,8-22-2022,7-59-32,54,depth_duration_stimuli/000736_2014-06-08_18-24-15_260595134347_rgbf000206-resize_3/000736_2014-06-08_18-24-15_260595134347_rgbf000206-resize_3-target.png,1000,3.515,0,4029,988,meters,jsons/v1_VE1000_randls_6.json,715147,864939,48,Woman
54,750246,DepthScenes,duration_manipulation_targetAtFixation,jsons/v1_VE1000_randls_6.json,http://54.235.29.9/FacialAge/BNav_EC2/DepthDuration/v2_depth_duration_MTurk/v2_DepthDuration_HTML.html#42,42,1364,625,1364,768,8-22-2022,7-59-32,55,depth_duration_stimuli/000137_2014-05-20_17-04-49_260595134347_rgbf000120-resize_1/000137_2014-05-20_17-04-49_260595134347_rgbf000120-resize_1-target.png,1000,3.786,7,3880,998,meters,jsons/v1_VE1000_randls_6.json,715147,864939,48,Woman
55,750246,DepthScenes,duration_manipulation_targetAtFixation,jsons/v1_VE1000_randls_6.json,http://54.235.29.9/FacialAge/BNav_EC2/DepthDuration/v2_depth_duration_MTurk/v2_DepthDuration_HTML.html#42,42,1364,625,1364,768,8-22-2022,7-59-32,56,depth_duration_stimuli/001244_2014-06-17_16-47-45_260595134347_rgbf000030-resize_4/001244_2014-06-17_16-47-45_260595134347_rgbf000030-resize_4-target.png,1000,2.0425,5,3992,988,meters,jsons/v1_VE1000_randls_6.json,715147,864939,48,Woman
56,750246,DepthScenes,duration_manipulation_targetAtFixation,jsons/v1_VE1000_randls_6.json,http://54.235.29.9/FacialAge/BNav_EC2/DepthDuration/v2_depth_duration_MTurk/v2_DepthDuration_HTML.html#42,42,1364,625,1364,768,8-22-2022,7-59-32,57,depth_duration_stimuli/003495_2014-05-21_16-01-51_094959634447_rgbf000100-resize_3/003495_2014-05-21_16-01-51_094959634447_rgbf000100-resize_3-target.png,1000,1.6255,0,4031,988,meters,jsons/v1_VE1000_randls_6.json,715147,864939,48,Woman
57,750246,DepthScenes,duration_manipulation_targetAtFixation,jsons/v1_VE1000_randls_6.json,http://54.235.29.9/FacialAge/BNav_EC2/DepthDuration/v2_depth_duration_MTurk/v2_DepthDuration_HTML.html#42,42,1364,625,1364,768,8-22-2022,7-59-32,58,depth_duration_stimuli/002039_2014-06-24_20-22-38_260595134347_rgbf000084-resize_1/002039_2014-06-24_20-22-38_260595134347_rgbf000084-resize_1-target.png,1000,4.408,8,4628,987,meters,jsons/v1_VE1000_randls_6.json,715147,864939,48,Woman
58,750246,DepthScenes,duration_manipulation_targetAtFixation,jsons/v1_VE1000_randls_6.json,http://54.235.29.9/FacialAge/BNav_EC2/DepthDuration/v2_depth_duration_MTurk/v2_DepthDuration_HTML.html#42,42,1364,625,1364,768,8-22-2022,7-59-32,59,depth_duration_stimuli/002103_2014-06-25_20-00-40_260595134347_rgbf000049-resize_0/002103_2014-06-25_20-00-40_260595134347_rgbf000049-resize_0-target.png,1000,4.105,6,4021,990,meters,jsons/v1_VE1000_randls_6.json,715147,864939,48,Woman
59,750246,DepthScenes,duration_manipulation_targetAtFixation,jsons/v1_VE1000_randls_6.json,http://54.235.29.9/FacialAge/BNav_EC2/DepthDuration/v2_depth_duration_MTurk/v2_DepthDuration_HTML.html#42,42,1364,625,1364,768,8-22-2022,7-59-32,60,depth_duration_stimuli/003070_2014-06-15_14-58-27_094959634447_rgbf000150-resize_3/003070_2014-06-15_14-58-27_094959634447_rgbf000150-resize_3-target.png,1000,2.9415,8,4932,1002,meters,jsons/v1_VE1000_randls_6.json,715147,864939,48,Woman
60,750246,DepthScenes,duration_manipulation_targetAtFixation,jsons/v1_VE1000_randls_6.json,http://54.235.29.9/FacialAge/BNav_EC2/DepthDuration/v2_depth_duration_MTurk/v2_DepthDuration_HTML.html#42,42,1364,625,1364,768,8-22-2022,7-59-32,61,depth_duration_stimuli/000943_2014-06-09_19-31-07_260595134347_rgbf000128-resize_1/000943_2014-06-09_19-31-07_260595134347_rgbf000128-resize_1-target.png,1000,1.9765,8,3304,998,meters,jsons/v1_VE1000_randls_6.json,715147,864939,48,Woman
61,750246,DepthScenes,duration_manipulation_targetAtFixation,jsons/v1_VE1000_randls_6.json,http://54.235.29.9/FacialAge/BNav_EC2/DepthDuration/v2_depth_duration_MTurk/v2_DepthDuration_HTML.html#42,42,1364,625,1364,768,8-22-2022,7-59-32,62,depth_duration_stimuli/001150_2014-06-17_15-27-34_260595134347_rgbf000108-resize_2/001150_2014-06-17_15-27-34_260595134347_rgbf000108-resize_2-target.png,1000,4.0325,2,3549,996,meters,jsons/v1_VE1000_randls_6.json,715147,864939,48,Woman
62,750246,DepthScenes,duration_manipulation_targetAtFixation,jsons/v1_VE1000_randls_6.json,http://54.235.29.9/FacialAge/BNav_EC2/DepthDuration/v2_depth_duration_MTurk/v2_DepthDuration_HTML.html#42,42,1364,625,1364,768,8-22-2022,7-59-32,63,depth_duration_stimuli/000665_2014-06-09_20-42-35_260595134347_rgbf000110-resize_1/000665_2014-06-09_20-42-35_260595134347_rgbf000110-resize_1-target.png,1000,3.057,7,3718,996,meters,jsons/v1_VE1000_randls_6.json,715147,864939,48,Woman
63,750246,DepthScenes,duration_manipulation_targetAtFixation,jsons/v1_VE1000_randls_6.json,http://54.235.29.9/FacialAge/BNav_EC2/DepthDuration/v2_depth_duration_MTurk/v2_DepthDuration_HTML.html#42,42,1364,625,1364,768,8-22-2022,7-59-32,64,depth_duration_stimuli/000414_2014-06-04_19-49-13_260595134347_rgbf000044-resize_0/000414_2014-06-04_19-49-13_260595134347_rgbf000044-resize_0-target.png,1000,4.329,5,3671,993,meters,jsons/v1_VE1000_randls_6.json,715147,864939,48,Woman
64,750246,DepthScenes,duration_manipulation_targetAtFixation,jsons/v1_VE1000_randls_6.json,http://54.235.29.9/FacialAge/BNav_EC2/DepthDuration/v2_depth_duration_MTurk/v2_DepthDuration_HTML.html#42,42,1364,625,1364,768,8-22-2022,7-59-32,65,depth_duration_stimuli/003129_2014-05-12_10-48-10_094959634447_rgbf000100-resize_0/003129_2014-05-12_10-48-10_094959634447_rgbf000100-resize_0-target.png,1000,4.9305,8,3789,993,meters,jsons/v1_VE1000_randls_6.json,715147,864939,48,Woman
65,750246,DepthScenes,duration_manipulation_targetAtFixation,jsons/v1_VE1000_randls_6.json,http://54.235.29.9/FacialAge/BNav_EC2/DepthDuration/v2_depth_duration_MTurk/v2_DepthDuration_HTML.html#42,42,1364,625,1364,768,8-22-2022,7-59-32,66,depth_duration_stimuli/001222_2014-06-17_16-24-06_260595134347_rgbf000073-resize_0/001222_2014-06-17_16-24-06_260595134347_rgbf000073-resize-original.jpg,1000,1.4385,0,4706,997,meters,jsons/v1_VE1000_randls_6.json,715147,864939,48,Woman
66,750246,DepthScenes,duration_manipulation_targetAtFixation,jsons/v1_VE1000_randls_6.json,http://54.235.29.9/FacialAge/BNav_EC2/DepthDuration/v2_depth_duration_MTurk/v2_DepthDuration_HTML.html#42,42,1364,625,1364,768,8-22-2022,7-59-32,67,depth_duration_stimuli/000368_2014-06-09_15-53-01_260595134347_rgbf000155-resize_2/000368_2014-06-09_15-53-01_260595134347_rgbf000155-resize_2-target.png,1000,2.4859999999999998,0,3715,995,meters,jsons/v1_VE1000_randls_6.json,715147,864939,48,Woman
67,750246,DepthScenes,duration_manipulation_targetAtFixation,jsons/v1_VE1000_randls_6.json,http://54.235.29.9/FacialAge/BNav_EC2/DepthDuration/v2_depth_duration_MTurk/v2_DepthDuration_HTML.html#42,42,1364,625,1364,768,8-22-2022,7-59-32,68,depth_duration_stimuli/002678_2014-06-13_16-15-32_094959634447_rgbf000151-resize_6/002678_2014-06-13_16-15-32_094959634447_rgbf000151-resize_6-target.png,1000,2.1830000000000003,1,3838,988,meters,jsons/v1_VE1000_randls_6.json,715147,864939,48,Woman
68,750246,DepthScenes,duration_manipulation_targetAtFixation,jsons/v1_VE1000_randls_6.json,http://54.235.29.9/FacialAge/BNav_EC2/DepthDuration/v2_depth_duration_MTurk/v2_DepthDuration_HTML.html#42,42,1364,625,1364,768,8-22-2022,7-59-32,69,depth_duration_stimuli/002043_2014-06-24_20-29-38_260595134347_rgbf000039-resize_4/002043_2014-06-24_20-29-38_260595134347_rgbf000039-resize_4-target.png,1000,2.8435,4,3663,1006,meters,jsons/v1_VE1000_randls_6.json,715147,864939,48,Woman
69,750246,DepthScenes,duration_manipulation_targetAtFixation,jsons/v1_VE1000_randls_6.json,http://54.235.29.9/FacialAge/BNav_EC2/DepthDuration/v2_depth_duration_MTurk/v2_DepthDuration_HTML.html#42,42,1364,625,1364,768,8-22-2022,7-59-32,70,depth_duration_stimuli/003048_2014-06-15_13-49-43_094959634447_rgbf000150-resize_1/003048_2014-06-15_13-49-43_094959634447_rgbf000150-resize_1-target.png,1000,4.0035,7,3415,998,meters,jsons/v1_VE1000_randls_6.json,715147,864939,48,Woman
70,750246,DepthScenes,duration_manipulation_targetAtFixation,jsons/v1_VE1000_randls_6.json,http://54.235.29.9/FacialAge/BNav_EC2/DepthDuration/v2_depth_duration_MTurk/v2_DepthDuration_HTML.html#42,42,1364,625,1364,768,8-22-2022,7-59-32,71,depth_duration_stimuli/000810_2014-06-08_17-20-01_260595134347_rgbf000105-resize_0/000810_2014-06-08_17-20-01_260595134347_rgbf000105-resize_0-target.png,1000,1.4865,0,4213,1010,meters,jsons/v1_VE1000_randls_6.json,715147,864939,48,Woman
71,750246,DepthScenes,duration_manipulation_targetAtFixation,jsons/v1_VE1000_randls_6.json,http://54.235.29.9/FacialAge/BNav_EC2/DepthDuration/v2_depth_duration_MTurk/v2_DepthDuration_HTML.html#42,42,1364,625,1364,768,8-22-2022,7-59-32,72,depth_duration_stimuli/001214_2014-06-17_16-13-55_260595134347_rgbf000111-resize_0/001214_2014-06-17_16-13-55_260595134347_rgbf000111-resize_0-target.png,1000,2.6505,0,3250,999,meters,jsons/v1_VE1000_randls_6.json,715147,864939,48,Woman
72,750246,DepthScenes,duration_manipulation_targetAtFixation,jsons/v1_VE1000_randls_6.json,http://54.235.29.9/FacialAge/BNav_EC2/DepthDuration/v2_depth_duration_MTurk/v2_DepthDuration_HTML.html#42,42,1364,625,1364,768,8-22-2022,7-59-32,73,depth_duration_stimuli/001029_2014-06-08_13-17-57_260595134347_rgbf000065-resize_1/001029_2014-06-08_13-17-57_260595134347_rgbf000065-resize_1-target.png,1000,3.0835,0,4452,1009,meters,jsons/v1_VE1000_randls_6.json,715147,864939,48,Woman
73,750246,DepthScenes,duration_manipulation_targetAtFixation,jsons/v1_VE1000_randls_6.json,http://54.235.29.9/FacialAge/BNav_EC2/DepthDuration/v2_depth_duration_MTurk/v2_DepthDuration_HTML.html#42,42,1364,625,1364,768,8-22-2022,7-59-32,74,depth_duration_stimuli/000677_2014-06-08_23-10-32_260595134347_rgbf000158-resize_6/000677_2014-06-08_23-10-32_260595134347_rgbf000158-resize_6-target.png,1000,3.556,0,3319,986,meters,jsons/v1_VE1000_randls_6.json,715147,864939,48,Woman
74,750246,DepthScenes,duration_manipulation_targetAtFixation,jsons/v1_VE1000_randls_6.json,http://54.235.29.9/FacialAge/BNav_EC2/DepthDuration/v2_depth_duration_MTurk/v2_DepthDuration_HTML.html#42,42,1364,625,1364,768,8-22-2022,7-59-32,75,depth_duration_stimuli/000506_2014-06-08_23-21-00_260595134347_rgbf000070-resize_7/000506_2014-06-08_23-21-00_260595134347_rgbf000070-resize_7-target.png,1000,4.0585,2,4351,990,meters,jsons/v1_VE1000_randls_6.json,715147,864939,48,Woman
75,750246,DepthScenes,duration_manipulation_targetAtFixation,jsons/v1_VE1000_randls_6.json,http://54.235.29.9/FacialAge/BNav_EC2/DepthDuration/v2_depth_duration_MTurk/v2_DepthDuration_HTML.html#42,42,1364,625,1364,768,8-22-2022,7-59-32,76,depth_duration_stimuli/003079_2014-06-15_15-18-20_094959634447_rgbf000152-resize_8/003079_2014-06-15_15-18-20_094959634447_rgbf000152-resize_8-target.png,1000,2.8775,0,3583,997,meters,jsons/v1_VE1000_randls_6.json,715147,864939,48,Woman
76,750246,DepthScenes,duration_manipulation_targetAtFixation,jsons/v1_VE1000_randls_6.json,http://54.235.29.9/FacialAge/BNav_EC2/DepthDuration/v2_depth_duration_MTurk/v2_DepthDuration_HTML.html#42,42,1364,625,1364,768,8-22-2022,7-59-32,77,depth_duration_stimuli/001417_2014-06-19_16-25-36_260595134347_rgbf000115-resize_5/001417_2014-06-19_16-25-36_260595134347_rgbf000115-resize_5-target.png,1000,4.6255,2,3427,997,meters,jsons/v1_VE1000_randls_6.json,715147,864939,48,Woman
77,750246,DepthScenes,duration_manipulation_targetAtFixation,jsons/v1_VE1000_randls_6.json,http://54.235.29.9/FacialAge/BNav_EC2/DepthDuration/v2_depth_duration_MTurk/v2_DepthDuration_HTML.html#42,42,1364,625,1364,768,8-22-2022,7-59-32,78,depth_duration_stimuli/003081_2014-06-15_15-19-16_094959634447_rgbf000150-resize_1/003081_2014-06-15_15-19-16_094959634447_rgbf000150-resize_1-target.png,1000,3.9125,0,4042,989,meters,jsons/v1_VE1000_randls_6.json,715147,864939,48,Woman
78,750246,DepthScenes,duration_manipulation_targetAtFixation,jsons/v1_VE1000_randls_6.json,http://54.235.29.9/FacialAge/BNav_EC2/DepthDuration/v2_depth_duration_MTurk/v2_DepthDuration_HTML.html#42,42,1364,625,1364,768,8-22-2022,7-59-32,79,depth_duration_stimuli/003621_2014-05-23_18-06-08_094959634447_rgbf000101-resize_1/003621_2014-05-23_18-06-08_094959634447_rgbf000101-resize_1-target.png,1000,3.9835,1,3744,1000,meters,jsons/v1_VE1000_randls_6.json,715147,864939,48,Woman
79,750246,DepthScenes,duration_manipulation_targetAtFixation,jsons/v1_VE1000_randls_6.json,http://54.235.29.9/FacialAge/BNav_EC2/DepthDuration/v2_depth_duration_MTurk/v2_DepthDuration_HTML.html#42,42,1364,625,1364,768,8-22-2022,7-59-32,80,depth_duration_stimuli/001584_2014-06-20_11-07-43_260595134347_rgbf000002-resize_1/001584_2014-06-20_11-07-43_260595134347_rgbf000002-resize_1-target.png,1000,3.53,2,3627,999,meters,jsons/v1_VE1000_randls_6.json,715147,864939,48,Woman
80,750246,DepthScenes,duration_manipulation_targetAtFixation,jsons/v1_VE1000_randls_6.json,http://54.235.29.9/FacialAge/BNav_EC2/DepthDuration/v2_depth_duration_MTurk/v2_DepthDuration_HTML.html#42,42,1364,625,1364,768,8-22-2022,7-59-32,81,depth_duration_stimuli/002375_2014-06-28_20-13-44_260595134347_rgbf000032-resize_1/002375_2014-06-28_20-13-44_260595134347_rgbf000032-resize_1-target.png,1000,4.0175,0,8064,1001,meters,jsons/v1_VE1000_randls_6.json,715147,864939,48,Woman
81,750246,DepthScenes,duration_manipulation_targetAtFixation,jsons/v1_VE1000_randls_6.json,http://54.235.29.9/FacialAge/BNav_EC2/DepthDuration/v2_depth_duration_MTurk/v2_DepthDuration_HTML.html#42,42,1364,625,1364,768,8-22-2022,7-59-32,82,depth_duration_stimuli/002657_2014-06-13_15-29-54_094959634447_rgbf000150-resize_1/002657_2014-06-13_15-29-54_094959634447_rgbf000150-resize_1-target.png,1000,4.919,1,3594,986,meters,jsons/v1_VE1000_randls_6.json,715147,864939,48,Woman
82,750246,DepthScenes,duration_manipulation_targetAtFixation,jsons/v1_VE1000_randls_6.json,http://54.235.29.9/FacialAge/BNav_EC2/DepthDuration/v2_depth_duration_MTurk/v2_DepthDuration_HTML.html#42,42,1364,625,1364,768,8-22-2022,7-59-32,83,depth_duration_stimuli/002509_2014-06-24_13-19-22_094959634447_rgbf000077-resize_0/002509_2014-06-24_13-19-22_094959634447_rgbf000077-resize_0-target.png,1000,1.3065,2,3562,1000,meters,jsons/v1_VE1000_randls_6.json,715147,864939,48,Woman
83,750246,DepthScenes,duration_manipulation_targetAtFixation,jsons/v1_VE1000_randls_6.json,http://54.235.29.9/FacialAge/BNav_EC2/DepthDuration/v2_depth_duration_MTurk/v2_DepthDuration_HTML.html#42,42,1364,625,1364,768,8-22-2022,7-59-32,84,depth_duration_stimuli/003338_2014-05-20_11-01-23_094959634447_rgbf000051-resize_6/003338_2014-05-20_11-01-23_094959634447_rgbf000051-resize_6-target.png,1000,1.693,3,3554,981,meters,jsons/v1_VE1000_randls_6.json,715147,864939,48,Woman
84,750246,DepthScenes,duration_manipulation_targetAtFixation,jsons/v1_VE1000_randls_6.json,http://54.235.29.9/FacialAge/BNav_EC2/DepthDuration/v2_depth_duration_MTurk/v2_DepthDuration_HTML.html#42,42,1364,625,1364,768,8-22-2022,7-59-32,85,depth_duration_stimuli/002549_2014-06-24_13-41-39_094959634447_rgbf000022-resize_3/002549_2014-06-24_13-41-39_094959634447_rgbf000022-resize_3-target.png,1000,1.476,5,5244,987,meters,jsons/v1_VE1000_randls_6.json,715147,864939,48,Woman
85,750246,DepthScenes,duration_manipulation_targetAtFixation,jsons/v1_VE1000_randls_6.json,http://54.235.29.9/FacialAge/BNav_EC2/DepthDuration/v2_depth_duration_MTurk/v2_DepthDuration_HTML.html#42,42,1364,625,1364,768,8-22-2022,7-59-32,86,depth_duration_stimuli/002750_2014-06-22_19-08-03_094959634447_rgbf000094-resize_4/002750_2014-06-22_19-08-03_094959634447_rgbf000094-resize_4-target.png,1000,2.354,4,3175,997,meters,jsons/v1_VE1000_randls_6.json,715147,864939,48,Woman
86,750246,DepthScenes,duration_manipulation_targetAtFixation,jsons/v1_VE1000_randls_6.json,http://54.235.29.9/FacialAge/BNav_EC2/DepthDuration/v2_depth_duration_MTurk/v2_DepthDuration_HTML.html#42,42,1364,625,1364,768,8-22-2022,7-59-32,87,depth_duration_stimuli/002057_2014-06-24_21-00-13_260595134347_rgbf000120-resize_1/002057_2014-06-24_21-00-13_260595134347_rgbf000120-resize_1-target.png,1000,2.967,5,3763,999,meters,jsons/v1_VE1000_randls_6.json,715147,864939,48,Woman
87,750246,DepthScenes,duration_manipulation_targetAtFixation,jsons/v1_VE1000_randls_6.json,http://54.235.29.9/FacialAge/BNav_EC2/DepthDuration/v2_depth_duration_MTurk/v2_DepthDuration_HTML.html#42,42,1364,625,1364,768,8-22-2022,7-59-32,88,depth_duration_stimuli/000709_2014-06-08_13-51-55_260595134347_rgbf000068-resize_3/000709_2014-06-08_13-51-55_260595134347_rgbf000068-resize_3-target.png,1000,1.8030000000000002,4,3582,1008,meters,jsons/v1_VE1000_randls_6.json,715147,864939,48,Woman
88,750246,DepthScenes,duration_manipulation_targetAtFixation,jsons/v1_VE1000_randls_6.json,http://54.235.29.9/FacialAge/BNav_EC2/DepthDuration/v2_depth_duration_MTurk/v2_DepthDuration_HTML.html#42,42,1364,625,1364,768,8-22-2022,7-59-32,89,depth_duration_stimuli/000773_2014-06-08_22-24-54_260595134347_rgbf000093-resize_1/000773_2014-06-08_22-24-54_260595134347_rgbf000093-resize_1-target.png,1000,4.973,2,5902,998,meters,jsons/v1_VE1000_randls_6.json,715147,864939,48,Woman
89,750246,DepthScenes,duration_manipulation_targetAtFixation,jsons/v1_VE1000_randls_6.json,http://54.235.29.9/FacialAge/BNav_EC2/DepthDuration/v2_depth_duration_MTurk/v2_DepthDuration_HTML.html#42,42,1364,625,1364,768,8-22-2022,7-59-32,90,depth_duration_stimuli/002414_2014-06-28_20-24-58_260595134347_rgbf000067-resize_4/002414_2014-06-28_20-24-58_260595134347_rgbf000067-resize_4-target.png,1000,4.363,8,3502,1014,meters,jsons/v1_VE1000_randls_6.json,715147,864939,48,Woman
90,750246,DepthScenes,duration_manipulation_targetAtFixation,jsons/v1_VE1000_randls_6.json,http://54.235.29.9/FacialAge/BNav_EC2/DepthDuration/v2_depth_duration_MTurk/v2_DepthDuration_HTML.html#42,42,1364,625,1364,768,8-22-2022,7-59-32,91,depth_duration_stimuli/000906_2014-06-08_13-35-43_260595134347_rgbf000155-resize_1/000906_2014-06-08_13-35-43_260595134347_rgbf000155-resize_1-target.png,1000,2.8489999999999998,9,3774,987,meters,jsons/v1_VE1000_randls_6.json,715147,864939,48,Woman
91,750246,DepthScenes,duration_manipulation_targetAtFixation,jsons/v1_VE1000_randls_6.json,http://54.235.29.9/FacialAge/BNav_EC2/DepthDuration/v2_depth_duration_MTurk/v2_DepthDuration_HTML.html#42,42,1364,625,1364,768,8-22-2022,7-59-32,92,depth_duration_stimuli/002805_2014-06-22_19-54-03_094959634447_rgbf000079-resize_1/002805_2014-06-22_19-54-03_094959634447_rgbf000079-resize_1-target.png,1000,3.1439999999999997,5,4007,997,meters,jsons/v1_VE1000_randls_6.json,715147,864939,48,Woman
92,750246,DepthScenes,duration_manipulation_targetAtFixation,jsons/v1_VE1000_randls_6.json,http://54.235.29.9/FacialAge/BNav_EC2/DepthDuration/v2_depth_duration_MTurk/v2_DepthDuration_HTML.html#42,42,1364,625,1364,768,8-22-2022,7-59-32,93,depth_duration_stimuli/002570_2014-06-24_13-59-54_094959634447_rgbf000059-resize_0/002570_2014-06-24_13-59-54_094959634447_rgbf000059-resize_0-target.png,1000,4.037,3,5174,992,meters,jsons/v1_VE1000_randls_6.json,715147,864939,48,Woman
93,750246,DepthScenes,duration_manipulation_targetAtFixation,jsons/v1_VE1000_randls_6.json,http://54.235.29.9/FacialAge/BNav_EC2/DepthDuration/v2_depth_duration_MTurk/v2_DepthDuration_HTML.html#42,42,1364,625,1364,768,8-22-2022,7-59-32,94,depth_duration_stimuli/002467_2014-06-28_20-38-07_260595134347_rgbf000026-resize_2/002467_2014-06-28_20-38-07_260595134347_rgbf000026-resize_2-target.png,1000,4.742,3,3880,987,meters,jsons/v1_VE1000_randls_6.json,715147,864939,48,Woman
94,750246,DepthScenes,duration_manipulation_targetAtFixation,jsons/v1_VE1000_randls_6.json,http://54.235.29.9/FacialAge/BNav_EC2/DepthDuration/v2_depth_duration_MTurk/v2_DepthDuration_HTML.html#42,42,1364,625,1364,768,8-22-2022,7-59-32,95,depth_duration_stimuli/001806_2014-06-26_20-50-20_260595134347_rgbf000091-resize_1/001806_2014-06-26_20-50-20_260595134347_rgbf000091-resize_1-target.png,1000,2.7305,5,3265,989,meters,jsons/v1_VE1000_randls_6.json,715147,864939,48,Woman
95,750246,DepthScenes,duration_manipulation_targetAtFixation,jsons/v1_VE1000_randls_6.json,http://54.235.29.9/FacialAge/BNav_EC2/DepthDuration/v2_depth_duration_MTurk/v2_DepthDuration_HTML.html#42,42,1364,625,1364,768,8-22-2022,7-59-32,96,depth_duration_stimuli/001617_2014-06-20_11-35-32_260595134347_rgbf000066-resize_1/001617_2014-06-20_11-35-32_260595134347_rgbf000066-resize_1-target.png,1000,3.7910000000000004,0,2988,993,meters,jsons/v1_VE1000_randls_6.json,715147,864939,48,Woman
96,750246,DepthScenes,duration_manipulation_targetAtFixation,jsons/v1_VE1000_randls_6.json,http://54.235.29.9/FacialAge/BNav_EC2/DepthDuration/v2_depth_duration_MTurk/v2_DepthDuration_HTML.html#42,42,1364,625,1364,768,8-22-2022,7-59-32,97,depth_duration_stimuli/002153_2014-06-25_21-27-18_260595134347_rgbf000038-resize_5/002153_2014-06-25_21-27-18_260595134347_rgbf000038-resize_5-target.png,1000,2.505,0,3400,999,meters,jsons/v1_VE1000_randls_6.json,715147,864939,48,Woman
97,750246,DepthScenes,duration_manipulation_targetAtFixation,jsons/v1_VE1000_randls_6.json,http://54.235.29.9/FacialAge/BNav_EC2/DepthDuration/v2_depth_duration_MTurk/v2_DepthDuration_HTML.html#42,42,1364,625,1364,768,8-22-2022,7-59-32,98,depth_duration_stimuli/002660_2014-06-13_15-44-18_094959634447_rgbf001878-resize_2/002660_2014-06-13_15-44-18_094959634447_rgbf001878-resize_2-target.png,1000,3.576,1,3280,1000,meters,jsons/v1_VE1000_randls_6.json,715147,864939,48,Woman
98,750246,DepthScenes,duration_manipulation_targetAtFixation,jsons/v1_VE1000_randls_6.json,http://54.235.29.9/FacialAge/BNav_EC2/DepthDuration/v2_depth_duration_MTurk/v2_DepthDuration_HTML.html#42,42,1364,625,1364,768,8-22-2022,7-59-32,99,depth_duration_stimuli/001540_2014-06-20_17-01-05_260595134347_rgbf000086-resize_2/001540_2014-06-20_17-01-05_260595134347_rgbf000086-resize-original.jpg,1000,1.459,0,4097,1010,meters,jsons/v1_VE1000_randls_6.json,715147,864939,48,Woman
99,750246,DepthScenes,duration_manipulation_targetAtFixation,jsons/v1_VE1000_randls_6.json,http://54.235.29.9/FacialAge/BNav_EC2/DepthDuration/v2_depth_duration_MTurk/v2_DepthDuration_HTML.html#42,42,1364,625,1364,768,8-22-2022,7-59-32,100,depth_duration_stimuli/001055_2014-06-08_18-45-35_260595134347_rgbf000111-resize_4/001055_2014-06-08_18-45-35_260595134347_rgbf000111-resize_4-target.png,1000,2.4290000000000003,1,3800,991,meters,jsons/v1_VE1000_randls_6.json,715147,864939,48,Woman
100,750246,DepthScenes,duration_manipulation_targetAtFixation,jsons/v1_VE1000_randls_6.json,http://54.235.29.9/FacialAge/BNav_EC2/DepthDuration/v2_depth_duration_MTurk/v2_DepthDuration_HTML.html#42,42,1364,625,1364,768,8-22-2022,7-59-32,101,depth_duration_stimuli/000549_2014-06-08_22-10-24_260595134347_rgbf000247-resize_3/000549_2014-06-08_22-10-24_260595134347_rgbf000247-resize_3-target.png,1000,1.841,0,3035,993,meters,jsons/v1_VE1000_randls_6.json,715147,864939,48,Woman
101,750246,DepthScenes,duration_manipulation_targetAtFixation,jsons/v1_VE1000_randls_6.json,http://54.235.29.9/FacialAge/BNav_EC2/DepthDuration/v2_depth_duration_MTurk/v2_DepthDuration_HTML.html#42,42,1364,625,1364,768,8-22-2022,7-59-32,102,depth_duration_stimuli/000470_2014-06-09_19-42-40_260595134347_rgbf000094-resize_1/000470_2014-06-09_19-42-40_260595134347_rgbf000094-resize_1-target.png,1000,1.831,7,4151,998,meters,jsons/v1_VE1000_randls_6.json,715147,864939,48,Woman
102,750246,DepthScenes,duration_manipulation_targetAtFixation,jsons/v1_VE1000_randls_6.json,http://54.235.29.9/FacialAge/BNav_EC2/DepthDuration/v2_depth_duration_MTurk/v2_DepthDuration_HTML.html#42,42,1364,625,1364,768,8-22-2022,7-59-32,103,depth_duration_stimuli/000109_2014-05-14_23-41-52_260595134347_rgbf000035-resize_9/000109_2014-05-14_23-41-52_260595134347_rgbf000035-resize_9-target.png,1000,1.3545,7,5118,1001,meters,jsons/v1_VE1000_randls_6.json,715147,864939,48,Woman
103,750246,DepthScenes,duration_manipulation_targetAtFixation,jsons/v1_VE1000_randls_6.json,http://54.235.29.9/FacialAge/BNav_EC2/DepthDuration/v2_depth_duration_MTurk/v2_DepthDuration_HTML.html#42,42,1364,625,1364,768,8-22-2022,7-59-32,104,depth_duration_stimuli/000469_2014-06-09_19-42-10_260595134347_rgbf000081-resize_1/000469_2014-06-09_19-42-10_260595134347_rgbf000081-resize_1-target.png,1000,1.652,4,5096,999,meters,jsons/v1_VE1000_randls_6.json,715147,864939,48,Woman
104,750246,DepthScenes,duration_manipulation_targetAtFixation,jsons/v1_VE1000_randls_6.json,http://54.235.29.9/FacialAge/BNav_EC2/DepthDuration/v2_depth_duration_MTurk/v2_DepthDuration_HTML.html#42,42,1364,625,1364,768,8-22-2022,7-59-32,105,depth_duration_stimuli/000483_2014-06-09_20-41-45_260595134347_rgbf000116-resize_4/000483_2014-06-09_20-41-45_260595134347_rgbf000116-resize_4-target.png,1000,1.337,7,3517,995,meters,jsons/v1_VE1000_randls_6.json,715147,864939,48,Woman
105,750246,DepthScenes,duration_manipulation_targetAtFixation,jsons/v1_VE1000_randls_6.json,http://54.235.29.9/FacialAge/BNav_EC2/DepthDuration/v2_depth_duration_MTurk/v2_DepthDuration_HTML.html#42,42,1364,625,1364,768,8-22-2022,7-59-32,106,depth_duration_stimuli/001164_2014-06-17_15-35-46_260595134347_rgbf000085-resize_3/001164_2014-06-17_15-35-46_260595134347_rgbf000085-resize_3-target.png,1000,2.354,0,3565,998,meters,jsons/v1_VE1000_randls_6.json,715147,864939,48,Woman
106,750246,DepthScenes,duration_manipulation_targetAtFixation,jsons/v1_VE1000_randls_6.json,http://54.235.29.9/FacialAge/BNav_EC2/DepthDuration/v2_depth_duration_MTurk/v2_DepthDuration_HTML.html#42,42,1364,625,1364,768,8-22-2022,7-59-32,107,depth_duration_stimuli/001136_2014-06-17_15-19-41_260595134347_rgbf000076-resize_3/001136_2014-06-17_15-19-41_260595134347_rgbf000076-resize_3-target.png,1000,1.8655,7,3827,993,meters,jsons/v1_VE1000_randls_6.json,715147,864939,48,Woman
107,750246,DepthScenes,duration_manipulation_targetAtFixation,jsons/v1_VE1000_randls_6.json,http://54.235.29.9/FacialAge/BNav_EC2/DepthDuration/v2_depth_duration_MTurk/v2_DepthDuration_HTML.html#42,42,1364,625,1364,768,8-22-2022,7-59-32,108,depth_duration_stimuli/003292_2014-05-14_21-53-49_094959634447_rgbf000100-resize_2/003292_2014-05-14_21-53-49_094959634447_rgbf000100-resize_2-target.png,1000,3.4815,8,3954,1002,meters,jsons/v1_VE1000_randls_6.json,715147,864939,48,Woman
108,750246,DepthScenes,duration_manipulation_targetAtFixation,jsons/v1_VE1000_randls_6.json,http://54.235.29.9/FacialAge/BNav_EC2/DepthDuration/v2_depth_duration_MTurk/v2_DepthDuration_HTML.html#42,42,1364,625,1364,768,8-22-2022,7-59-32,109,depth_duration_stimuli/002639_2014-06-24_14-51-37_094959634447_rgbf000074-resize_4/002639_2014-06-24_14-51-37_094959634447_rgbf000074-resize_4-target.png,1000,4.0375,4,3515,1000,meters,jsons/v1_VE1000_randls_6.json,715147,864939,48,Woman
109,750246,DepthScenes,duration_manipulation_targetAtFixation,jsons/v1_VE1000_randls_6.json,http://54.235.29.9/FacialAge/BNav_EC2/DepthDuration/v2_depth_duration_MTurk/v2_DepthDuration_HTML.html#42,42,1364,625,1364,768,8-22-2022,7-59-32,110,depth_duration_stimuli/002725_2014-06-22_11-47-51_094959634447_rgbf000070-resize_1/002725_2014-06-22_11-47-51_094959634447_rgbf000070-resize_1-target.png,1000,2.195,1,3955,996,meters,jsons/v1_VE1000_randls_6.json,715147,864939,48,Woman
110,750246,DepthScenes,duration_manipulation_targetAtFixation,jsons/v1_VE1000_randls_6.json,http://54.235.29.9/FacialAge/BNav_EC2/DepthDuration/v2_depth_duration_MTurk/v2_DepthDuration_HTML.html#42,42,1364,625,1364,768,8-22-2022,7-59-32,111,depth_duration_stimuli/002344_2014-06-28_20-06-29_260595134347_rgbf000030-resize_1/002344_2014-06-28_20-06-29_260595134347_rgbf000030-resize_1-target.png,1000,1.5795,5,3421,1013,meters,jsons/v1_VE1000_randls_6.json,715147,864939,48,Woman
111,750246,DepthScenes,duration_manipulation_targetAtFixation,jsons/v1_VE1000_randls_6.json,http://54.235.29.9/FacialAge/BNav_EC2/DepthDuration/v2_depth_duration_MTurk/v2_DepthDuration_HTML.html#42,42,1364,625,1364,768,8-22-2022,7-59-32,112,depth_duration_stimuli/000929_2014-06-09_16-33-19_260595134347_rgbf000139-resize_0/000929_2014-06-09_16-33-19_260595134347_rgbf000139-resize_0-target.png,1000,2.8680000000000003,0,3555,1013,meters,jsons/v1_VE1000_randls_6.json,715147,864939,48,Woman
112,750246,DepthScenes,duration_manipulation_targetAtFixation,jsons/v1_VE1000_randls_6.json,http://54.235.29.9/FacialAge/BNav_EC2/DepthDuration/v2_depth_duration_MTurk/v2_DepthDuration_HTML.html#42,42,1364,625,1364,768,8-22-2022,7-59-32,113,depth_duration_stimuli/000457_2014-06-08_16-52-43_260595134347_rgbf000199-resize_1/000457_2014-06-08_16-52-43_260595134347_rgbf000199-resize_1-target.png,1000,3.6489999999999996,4,3035,985,meters,jsons/v1_VE1000_randls_6.json,715147,864939,48,Woman
113,750246,DepthScenes,duration_manipulation_targetAtFixation,jsons/v1_VE1000_randls_6.json,http://54.235.29.9/FacialAge/BNav_EC2/DepthDuration/v2_depth_duration_MTurk/v2_DepthDuration_HTML.html#42,42,1364,625,1364,768,8-22-2022,7-59-32,114,depth_duration_stimuli/002279_2014-06-28_18-55-32_260595134347_rgbf000040-resize_5/002279_2014-06-28_18-55-32_260595134347_rgbf000040-resize_5-target.png,1000,1.5043333333333,5,3686,987,meters,jsons/v1_VE1000_randls_6.json,715147,864939,48,Woman
114,750246,DepthScenes,duration_manipulation_targetAtFixation,jsons/v1_VE1000_randls_6.json,http://54.235.29.9/FacialAge/BNav_EC2/DepthDuration/v2_depth_duration_MTurk/v2_DepthDuration_HTML.html#42,42,1364,625,1364,768,8-22-2022,7-59-32,115,depth_duration_stimuli/000635_2014-06-08_16-38-42_260595134347_rgbf000106-resize_1/000635_2014-06-08_16-38-42_260595134347_rgbf000106-resize_1-target.png,1000,2.074,0,3546,999,meters,jsons/v1_VE1000_randls_6.json,715147,864939,48,Woman
115,750246,DepthScenes,duration_manipulation_targetAtFixation,jsons/v1_VE1000_randls_6.json,http://54.235.29.9/FacialAge/BNav_EC2/DepthDuration/v2_depth_duration_MTurk/v2_DepthDuration_HTML.html#42,42,1364,625,1364,768,8-22-2022,7-59-32,116,depth_duration_stimuli/001170_2014-06-17_15-43-44_260595134347_rgbf000096-resize_6/001170_2014-06-17_15-43-44_260595134347_rgbf000096-resize-original.jpg,1000,1.1909999999999998,6,4625,985,meters,jsons/v1_VE1000_randls_6.json,715147,864939,48,Woman
116,750246,DepthScenes,duration_manipulation_targetAtFixation,jsons/v1_VE1000_randls_6.json,http://54.235.29.9/FacialAge/BNav_EC2/DepthDuration/v2_depth_duration_MTurk/v2_DepthDuration_HTML.html#42,42,1364,625,1364,768,8-22-2022,7-59-32,117,depth_duration_stimuli/000692_2014-06-08_13-09-42_260595134347_rgbf000199-resize_2/000692_2014-06-08_13-09-42_260595134347_rgbf000199-resize_2-target.png,1000,3.661,2,3496,990,meters,jsons/v1_VE1000_randls_6.json,715147,864939,48,Woman
117,750246,DepthScenes,duration_manipulation_targetAtFixation,jsons/v1_VE1000_randls_6.json,http://54.235.29.9/FacialAge/BNav_EC2/DepthDuration/v2_depth_duration_MTurk/v2_DepthDuration_HTML.html#42,42,1364,625,1364,768,8-22-2022,7-59-32,118,depth_duration_stimuli/001094_2014-06-15_17-36-00_260595134347_rgbf000205-resize_0/001094_2014-06-15_17-36-00_260595134347_rgbf000205-resize_0-target.png,1000,4.2175,5,4612,1006,meters,jsons/v1_VE1000_randls_6.json,715147,864939,48,Woman
118,750246,DepthScenes,duration_manipulation_targetAtFixation,jsons/v1_VE1000_randls_6.json,http://54.235.29.9/FacialAge/BNav_EC2/DepthDuration/v2_depth_duration_MTurk/v2_DepthDuration_HTML.html#42,42,1364,625,1364,768,8-22-2022,7-59-32,119,depth_duration_stimuli/001199_2014-06-17_16-03-48_260595134347_rgbf000077-resize_0/001199_2014-06-17_16-03-48_260595134347_rgbf000077-resize_0-target.png,1000,3.4375,4,3852,994,meters,jsons/v1_VE1000_randls_6.json,715147,864939,48,Woman
119,750246,DepthScenes,duration_manipulation_targetAtFixation,jsons/v1_VE1000_randls_6.json,http://54.235.29.9/FacialAge/BNav_EC2/DepthDuration/v2_depth_duration_MTurk/v2_DepthDuration_HTML.html#42,42,1364,625,1364,768,8-22-2022,7-59-32,120,depth_duration_stimuli/000502_2014-06-08_23-02-32_260595134347_rgbf000063-resize_4/000502_2014-06-08_23-02-32_260595134347_rgbf000063-resize_4-target.png,1000,2.431,2,3387,990,meters,jsons/v1_VE1000_randls_6.json,715147,864939,48,Woman
120,750246,DepthScenes,duration_manipulation_targetAtFixation,jsons/v1_VE1000_randls_6.json,http://54.235.29.9/FacialAge/BNav_EC2/DepthDuration/v2_depth_duration_MTurk/v2_DepthDuration_HTML.html#42,42,1364,625,1364,768,8-22-2022,7-59-32,121,depth_duration_stimuli/002788_2014-06-22_19-36-03_094959634447_rgbf000088-resize_2/002788_2014-06-22_19-36-03_094959634447_rgbf000088-resize_2-target.png,1000,1.6465,0,3482,1003,meters,jsons/v1_VE1000_randls_6.json,715147,864939,48,Woman
121,750246,DepthScenes,duration_manipulation_targetAtFixation,jsons/v1_VE1000_randls_6.json,http://54.235.29.9/FacialAge/BNav_EC2/DepthDuration/v2_depth_duration_MTurk/v2_DepthDuration_HTML.html#42,42,1364,625,1364,768,8-22-2022,7-59-32,122,depth_duration_stimuli/000749_2014-06-08_21-55-06_260595134347_rgbf000070-resize_2/000749_2014-06-08_21-55-06_260595134347_rgbf000070-resize_2-target.png,1000,2.331,5,3160,1002,meters,jsons/v1_VE1000_randls_6.json,715147,864939,48,Woman
122,750246,DepthScenes,duration_manipulation_targetAtFixation,jsons/v1_VE1000_randls_6.json,http://54.235.29.9/FacialAge/BNav_EC2/DepthDuration/v2_depth_duration_MTurk/v2_DepthDuration_HTML.html#42,42,1364,625,1364,768,8-22-2022,7-59-32,123,depth_duration_stimuli/001092_2014-06-15_17-34-58_260595134347_rgbf000171-resize_3/001092_2014-06-15_17-34-58_260595134347_rgbf000171-resize_3-target.png,1000,2.6935,0,3108,987,meters,jsons/v1_VE1000_randls_6.json,715147,864939,48,Woman
123,750246,DepthScenes,duration_manipulation_targetAtFixation,jsons/v1_VE1000_randls_6.json,http://54.235.29.9/FacialAge/BNav_EC2/DepthDuration/v2_depth_duration_MTurk/v2_DepthDuration_HTML.html#42,42,1364,625,1364,768,8-22-2022,7-59-32,124,depth_duration_stimuli/002545_2014-06-24_13-38-53_094959634447_rgbf000080-resize_4/002545_2014-06-24_13-38-53_094959634447_rgbf000080-resize_4-target.png,1000,1.9205,0,3125,1001,meters,jsons/v1_VE1000_randls_6.json,715147,864939,48,Woman
124,750246,DepthScenes,duration_manipulation_targetAtFixation,jsons/v1_VE1000_randls_6.json,http://54.235.29.9/FacialAge/BNav_EC2/DepthDuration/v2_depth_duration_MTurk/v2_DepthDuration_HTML.html#42,42,1364,625,1364,768,8-22-2022,7-59-32,125,depth_duration_stimuli/002989_2014-06-15_12-25-03_094959634447_rgbf000150-resize_3/002989_2014-06-15_12-25-03_094959634447_rgbf000150-resize_3-target.png,1000,4.1975,0,3240,1007,meters,jsons/v1_VE1000_randls_6.json,715147,864939,48,Woman
125,750246,DepthScenes,duration_manipulation_targetAtFixation,jsons/v1_VE1000_randls_6.json,http://54.235.29.9/FacialAge/BNav_EC2/DepthDuration/v2_depth_duration_MTurk/v2_DepthDuration_HTML.html#42,42,1364,625,1364,768,8-22-2022,7-59-32,126,depth_duration_stimuli/000866_2014-06-09_20-45-42_260595134347_rgbf000139-resize_1/000866_2014-06-09_20-45-42_260595134347_rgbf000139-resize_1-target.png,1000,3.2155,0,3072,994,meters,jsons/v1_VE1000_randls_6.json,715147,864939,48,Woman
126,750246,DepthScenes,duration_manipulation_targetAtFixation,jsons/v1_VE1000_randls_6.json,http://54.235.29.9/FacialAge/BNav_EC2/DepthDuration/v2_depth_duration_MTurk/v2_DepthDuration_HTML.html#42,42,1364,625,1364,768,8-22-2022,7-59-32,127,depth_duration_stimuli/000878_2014-06-08_22-52-45_260595134347_rgbf000045-resize_2/000878_2014-06-08_22-52-45_260595134347_rgbf000045-resize_2-target.png,1000,2.092,0,3323,988,meters,jsons/v1_VE1000_randls_6.json,715147,864939,48,Woman
127,750246,DepthScenes,duration_manipulation_targetAtFixation,jsons/v1_VE1000_randls_6.json,http://54.235.29.9/FacialAge/BNav_EC2/DepthDuration/v2_depth_duration_MTurk/v2_DepthDuration_HTML.html#42,42,1364,625,1364,768,8-22-2022,7-59-32,128,depth_duration_stimuli/002953_2014-06-08_17-32-18_094959634447_rgbf000059-resize_5/002953_2014-06-08_17-32-18_094959634447_rgbf000059-resize_5-target.png,1000,1.551,0,3320,1001,meters,jsons/v1_VE1000_randls_6.json,715147,864939,48,Woman
128,750246,DepthScenes,duration_manipulation_targetAtFixation,jsons/v1_VE1000_randls_6.json,http://54.235.29.9/FacialAge/BNav_EC2/DepthDuration/v2_depth_duration_MTurk/v2_DepthDuration_HTML.html#42,42,1364,625,1364,768,8-22-2022,7-59-32,129,depth_duration_stimuli/000447_2014-06-08_16-15-46_260595134347_rgbf000130-resize_1/000447_2014-06-08_16-15-46_260595134347_rgbf000130-resize_1-target.png,1000,4.479,5,3575,1015,meters,jsons/v1_VE1000_randls_6.json,715147,864939,48,Woman
129,750246,DepthScenes,duration_manipulation_targetAtFixation,jsons/v1_VE1000_randls_6.json,http://54.235.29.9/FacialAge/BNav_EC2/DepthDuration/v2_depth_duration_MTurk/v2_DepthDuration_HTML.html#42,42,1364,625,1364,768,8-22-2022,7-59-32,130,depth_duration_stimuli/001447_2014-06-19_17-00-32_260595134347_rgbf000082-resize_5/001447_2014-06-19_17-00-32_260595134347_rgbf000082-resize_5-target.png,1000,4.13775,4,3634,983,meters,jsons/v1_VE1000_randls_6.json,715147,864939,48,Woman
130,750246,DepthScenes,duration_manipulation_targetAtFixation,jsons/v1_VE1000_randls_6.json,http://54.235.29.9/FacialAge/BNav_EC2/DepthDuration/v2_depth_duration_MTurk/v2_DepthDuration_HTML.html#42,42,1364,625,1364,768,8-22-2022,7-59-32,131,depth_duration_stimuli/000493_2014-06-09_21-01-18_260595134347_rgbf000196-resize_3/000493_2014-06-09_21-01-18_260595134347_rgbf000196-resize_3-target.png,1000,3.44,7,3573,998,meters,jsons/v1_VE1000_randls_6.json,715147,864939,48,Woman
131,750246,DepthScenes,duration_manipulation_targetAtFixation,jsons/v1_VE1000_randls_6.json,http://54.235.29.9/FacialAge/BNav_EC2/DepthDuration/v2_depth_duration_MTurk/v2_DepthDuration_HTML.html#42,42,1364,625,1364,768,8-22-2022,7-59-32,132,depth_duration_stimuli/000191_2014-05-12_17-07-38_260595134347_rgbf000199-resize_0/000191_2014-05-12_17-07-38_260595134347_rgbf000199-resize_0-target.png,1000,3.7995,5,3366,998,meters,jsons/v1_VE1000_randls_6.json,715147,864939,48,Woman
132,750246,DepthScenes,duration_manipulation_targetAtFixation,jsons/v1_VE1000_randls_6.json,http://54.235.29.9/FacialAge/BNav_EC2/DepthDuration/v2_depth_duration_MTurk/v2_DepthDuration_HTML.html#42,42,1364,625,1364,768,8-22-2022,7-59-32,133,depth_duration_stimuli/001059_2014-06-08_21-53-27_260595134347_rgbf000061-resize_4/001059_2014-06-08_21-53-27_260595134347_rgbf000061-resize_4-target.png,1000,2.4185,2,3229,990,meters,jsons/v1_VE1000_randls_6.json,715147,864939,48,Woman
133,750246,DepthScenes,duration_manipulation_targetAtFixation,jsons/v1_VE1000_randls_6.json,http://54.235.29.9/FacialAge/BNav_EC2/DepthDuration/v2_depth_duration_MTurk/v2_DepthDuration_HTML.html#42,42,1364,625,1364,768,8-22-2022,7-59-32,134,depth_duration_stimuli/001032_2014-06-08_13-23-17_260595134347_rgbf000021-resize_3/001032_2014-06-08_13-23-17_260595134347_rgbf000021-resize_3-target.png,1000,3.2725,0,3003,992,meters,jsons/v1_VE1000_randls_6.json,715147,864939,48,Woman
134,750246,DepthScenes,duration_manipulation_targetAtFixation,jsons/v1_VE1000_randls_6.json,http://54.235.29.9/FacialAge/BNav_EC2/DepthDuration/v2_depth_duration_MTurk/v2_DepthDuration_HTML.html#42,42,1364,625,1364,768,8-22-2022,7-59-32,135,depth_duration_stimuli/002072_2014-06-24_21-48-06_260595134347_rgbf000115-resize_0/002072_2014-06-24_21-48-06_260595134347_rgbf000115-resize-original.jpg,1000,4.702,4,2920,994,meters,jsons/v1_VE1000_randls_6.json,715147,864939,48,Woman
135,750246,DepthScenes,duration_manipulation_targetAtFixation,jsons/v1_VE1000_randls_6.json,http://54.235.29.9/FacialAge/BNav_EC2/DepthDuration/v2_depth_duration_MTurk/v2_DepthDuration_HTML.html#42,42,1364,625,1364,768,8-22-2022,7-59-32,136,depth_duration_stimuli/001066_2014-06-08_22-03-20_260595134347_rgbf000066-resize_4/001066_2014-06-08_22-03-20_260595134347_rgbf000066-resize_4-target.png,1000,4.2330000000000005,5,3545,998,meters,jsons/v1_VE1000_randls_6.json,715147,864939,48,Woman
136,750246,DepthScenes,duration_manipulation_targetAtFixation,jsons/v1_VE1000_randls_6.json,http://54.235.29.9/FacialAge/BNav_EC2/DepthDuration/v2_depth_duration_MTurk/v2_DepthDuration_HTML.html#42,42,1364,625,1364,768,8-22-2022,7-59-32,137,depth_duration_stimuli/000742_2014-06-08_18-48-09_260595134347_rgbf000164-resize_4/000742_2014-06-08_18-48-09_260595134347_rgbf000164-resize_4-target.png,1000,4.632,0,3810,993,meters,jsons/v1_VE1000_randls_6.json,715147,864939,48,Woman
137,750246,DepthScenes,duration_manipulation_targetAtFixation,jsons/v1_VE1000_randls_6.json,http://54.235.29.9/FacialAge/BNav_EC2/DepthDuration/v2_depth_duration_MTurk/v2_DepthDuration_HTML.html#42,42,1364,625,1364,768,8-22-2022,7-59-32,138,depth_duration_stimuli/001056_2014-06-08_18-46-44_260595134347_rgbf000068-resize_0/001056_2014-06-08_18-46-44_260595134347_rgbf000068-resize_0-target.png,1000,2.6625,0,3471,1001,meters,jsons/v1_VE1000_randls_6.json,715147,864939,48,Woman
138,750246,DepthScenes,duration_manipulation_targetAtFixation,jsons/v1_VE1000_randls_6.json,http://54.235.29.9/FacialAge/BNav_EC2/DepthDuration/v2_depth_duration_MTurk/v2_DepthDuration_HTML.html#42,42,1364,625,1364,768,8-22-2022,7-59-32,139,depth_duration_stimuli/002199_2014-06-28_18-33-56_260595134347_rgbf000074-resize_0/002199_2014-06-28_18-33-56_260595134347_rgbf000074-resize_0-target.png,1000,1.996,0,3247,999,meters,jsons/v1_VE1000_randls_6.json,715147,864939,48,Woman
139,750246,DepthScenes,duration_manipulation_targetAtFixation,jsons/v1_VE1000_randls_6.json,http://54.235.29.9/FacialAge/BNav_EC2/DepthDuration/v2_depth_duration_MTurk/v2_DepthDuration_HTML.html#42,42,1364,625,1364,768,8-22-2022,7-59-32,140,depth_duration_stimuli/000436_2014-06-09_22-25-11_260595134347_rgbf000137-resize_1/000436_2014-06-09_22-25-11_260595134347_rgbf000137-resize_1-target.png,1000,4.0705,0,3230,984,meters,jsons/v1_VE1000_randls_6.json,715147,864939,48,Woman
140,750246,DepthScenes,duration_manipulation_targetAtFixation,jsons/v1_VE1000_randls_6.json,http://54.235.29.9/FacialAge/BNav_EC2/DepthDuration/v2_depth_duration_MTurk/v2_DepthDuration_HTML.html#42,42,1364,625,1364,768,8-22-2022,7-59-32,141,depth_duration_stimuli/002444_2014-06-28_20-32-08_260595134347_rgbf000027-resize_0/002444_2014-06-28_20-32-08_260595134347_rgbf000027-resize_0-target.png,1000,4.388999999999999,0,3213,985,meters,jsons/v1_VE1000_randls_6.json,715147,864939,48,Woman
141,750246,DepthScenes,duration_manipulation_targetAtFixation,jsons/v1_VE1000_randls_6.json,http://54.235.29.9/FacialAge/BNav_EC2/DepthDuration/v2_depth_duration_MTurk/v2_DepthDuration_HTML.html#42,42,1364,625,1364,768,8-22-2022,7-59-32,142,depth_duration_stimuli/001158_2014-06-17_15-32-16_260595134347_rgbf000138-resize_2/001158_2014-06-17_15-32-16_260595134347_rgbf000138-resize_2-target.png,1000,4.5315,2,3852,996,meters,jsons/v1_VE1000_randls_6.json,715147,864939,48,Woman
142,750246,DepthScenes,duration_manipulation_targetAtFixation,jsons/v1_VE1000_randls_6.json,http://54.235.29.9/FacialAge/BNav_EC2/DepthDuration/v2_depth_duration_MTurk/v2_DepthDuration_HTML.html#42,42,1364,625,1364,768,8-22-2022,7-59-32,143,depth_duration_stimuli/000556_2014-06-09_22-42-56_260595134347_rgbf000214-resize_1/000556_2014-06-09_22-42-56_260595134347_rgbf000214-resize_1-target.png,1000,4.8415,5,3524,999,meters,jsons/v1_VE1000_randls_6.json,715147,864939,48,Woman
143,750246,DepthScenes,duration_manipulation_targetAtFixation,jsons/v1_VE1000_randls_6.json,http://54.235.29.9/FacialAge/BNav_EC2/DepthDuration/v2_depth_duration_MTurk/v2_DepthDuration_HTML.html#42,42,1364,625,1364,768,8-22-2022,7-59-32,144,depth_duration_stimuli/001808_2014-06-26_20-50-58_260595134347_rgbf000029-resize_1/001808_2014-06-26_20-50-58_260595134347_rgbf000029-resize_1-target.png,1000,4.249,4,3701,994,meters,jsons/v1_VE1000_randls_6.json,715147,864939,48,Woman
144,750246,DepthScenes,duration_manipulation_targetAtFixation,jsons/v1_VE1000_randls_6.json,http://54.235.29.9/FacialAge/BNav_EC2/DepthDuration/v2_depth_duration_MTurk/v2_DepthDuration_HTML.html#42,42,1364,625,1364,768,8-22-2022,7-59-32,145,depth_duration_stimuli/001815_2014-06-26_20-52-55_260595134347_rgbf000020-resize_0/001815_2014-06-26_20-52-55_260595134347_rgbf000020-resize_0-target.png,1000,3.3865,0,3278,990,meters,jsons/v1_VE1000_randls_6.json,715147,864939,48,Woman
145,750246,DepthScenes,duration_manipulation_targetAtFixation,jsons/v1_VE1000_randls_6.json,http://54.235.29.9/FacialAge/BNav_EC2/DepthDuration/v2_depth_duration_MTurk/v2_DepthDuration_HTML.html#42,42,1364,625,1364,768,8-22-2022,7-59-32,146,depth_duration_stimuli/001498_2014-06-19_17-45-14_260595134347_rgbf000129-resize_4/001498_2014-06-19_17-45-14_260595134347_rgbf000129-resize-original.jpg,1000,1.4075,2,3083,998,meters,jsons/v1_VE1000_randls_6.json,715147,864939,48,Woman
146,750246,DepthScenes,duration_manipulation_targetAtFixation,jsons/v1_VE1000_randls_6.json,http://54.235.29.9/FacialAge/BNav_EC2/DepthDuration/v2_depth_duration_MTurk/v2_DepthDuration_HTML.html#42,42,1364,625,1364,768,8-22-2022,7-59-32,147,depth_duration_stimuli/000682_2014-06-08_23-14-58_260595134347_rgbf000041-resize_5/000682_2014-06-08_23-14-58_260595134347_rgbf000041-resize_5-target.png,1000,2.7239999999999998,0,3621,997,meters,jsons/v1_VE1000_randls_6.json,715147,864939,48,Woman
147,750246,DepthScenes,duration_manipulation_targetAtFixation,jsons/v1_VE1000_randls_6.json,http://54.235.29.9/FacialAge/BNav_EC2/DepthDuration/v2_depth_duration_MTurk/v2_DepthDuration_HTML.html#42,42,1364,625,1364,768,8-22-2022,7-59-32,148,depth_duration_stimuli/001650_2014-06-20_12-09-00_260595134347_rgbf000087-resize_3/001650_2014-06-20_12-09-00_260595134347_rgbf000087-resize_3-target.png,1000,1.9505,7,4034,1001,meters,jsons/v1_VE1000_randls_6.json,715147,864939,48,Woman
148,750246,DepthScenes,duration_manipulation_targetAtFixation,jsons/v1_VE1000_randls_6.json,http://54.235.29.9/FacialAge/BNav_EC2/DepthDuration/v2_depth_duration_MTurk/v2_DepthDuration_HTML.html#42,42,1364,625,1364,768,8-22-2022,7-59-32,149,depth_duration_stimuli/000758_2014-06-08_22-05-08_260595134347_rgbf000085-resize_0/000758_2014-06-08_22-05-08_260595134347_rgbf000085-resize_0-target.png,1000,3.3810000000000002,9,3998,1002,meters,jsons/v1_VE1000_randls_6.json,715147,864939,48,Woman
149,750246,DepthScenes,duration_manipulation_targetAtFixation,jsons/v1_VE1000_randls_6.json,http://54.235.29.9/FacialAge/BNav_EC2/DepthDuration/v2_depth_duration_MTurk/v2_DepthDuration_HTML.html#42,42,1364,625,1364,768,8-22-2022,7-59-32,150,depth_duration_stimuli/000854_2014-06-09_19-43-13_260595134347_rgbf000066-resize_0/000854_2014-06-09_19-43-13_260595134347_rgbf000066-resize_0-target.png,1000,3.068,8,3673,991,meters,jsons/v1_VE1000_randls_6.json,715147,864939,48,Woman
150,750246,DepthScenes,duration_manipulation_targetAtFixation,jsons/v1_VE1000_randls_6.json,http://54.235.29.9/FacialAge/BNav_EC2/DepthDuration/v2_depth_duration_MTurk/v2_DepthDuration_HTML.html#42,42,1364,625,1364,768,8-22-2022,7-59-32,151,depth_duration_stimuli/002600_2014-06-24_14-27-04_094959634447_rgbf000074-resize_2/002600_2014-06-24_14-27-04_094959634447_rgbf000074-resize_2-target.png,1000,2.7575,8,3402,990,meters,jsons/v1_VE1000_randls_6.json,715147,864939,48,Woman
151,750246,DepthScenes,duration_manipulation_targetAtFixation,jsons/v1_VE1000_randls_6.json,http://54.235.29.9/FacialAge/BNav_EC2/DepthDuration/v2_depth_duration_MTurk/v2_DepthDuration_HTML.html#42,42,1364,625,1364,768,8-22-2022,7-59-32,152,depth_duration_stimuli/003228_2014-05-14_13-42-35_094959634447_rgbf000101-resize_1/003228_2014-05-14_13-42-35_094959634447_rgbf000101-resize_1-target.png,1000,1.9680000000000002,8,3249,1009,meters,jsons/v1_VE1000_randls_6.json,715147,864939,48,Woman
152,750246,DepthScenes,duration_manipulation_targetAtFixation,jsons/v1_VE1000_randls_6.json,http://54.235.29.9/FacialAge/BNav_EC2/DepthDuration/v2_depth_duration_MTurk/v2_DepthDuration_HTML.html#42,42,1364,625,1364,768,8-22-2022,7-59-32,153,depth_duration_stimuli/001016_2014-06-09_16-16-10_260595134347_rgbf000112-resize_5/001016_2014-06-09_16-16-10_260595134347_rgbf000112-resize_5-target.png,1000,1.6565,2,3702,986,meters,jsons/v1_VE1000_randls_6.json,715147,864939,48,Woman
153,750246,DepthScenes,duration_manipulation_targetAtFixation,jsons/v1_VE1000_randls_6.json,http://54.235.29.9/FacialAge/BNav_EC2/DepthDuration/v2_depth_duration_MTurk/v2_DepthDuration_HTML.html#42,42,1364,625,1364,768,8-22-2022,7-59-32,154,depth_duration_stimuli/002340_2014-06-28_20-05-46_260595134347_rgbf000113-resize_0/002340_2014-06-28_20-05-46_260595134347_rgbf000113-resize_0-target.png,1000,2.4735,0,2959,1006,meters,jsons/v1_VE1000_randls_6.json,715147,864939,48,Woman
154,750246,DepthScenes,duration_manipulation_targetAtFixation,jsons/v1_VE1000_randls_6.json,http://54.235.29.9/FacialAge/BNav_EC2/DepthDuration/v2_depth_duration_MTurk/v2_DepthDuration_HTML.html#42,42,1364,625,1364,768,8-22-2022,7-59-32,155,depth_duration_stimuli/002118_2014-06-25_20-32-08_260595134347_rgbf000078-resize_1/002118_2014-06-25_20-32-08_260595134347_rgbf000078-resize_1-target.png,1000,2.6460000000000004,0,3820,990,meters,jsons/v1_VE1000_randls_6.json,715147,864939,48,Woman
155,750246,DepthScenes,duration_manipulation_targetAtFixation,jsons/v1_VE1000_randls_6.json,http://54.235.29.9/FacialAge/BNav_EC2/DepthDuration/v2_depth_duration_MTurk/v2_DepthDuration_HTML.html#42,42,1364,625,1364,768,8-22-2022,7-59-32,156,depth_duration_stimuli/001516_2014-06-20_16-25-09_260595134347_rgbf000076-resize_2/001516_2014-06-20_16-25-09_260595134347_rgbf000076-resize_2-target.png,1000,1.7445,2,3131,999,meters,jsons/v1_VE1000_randls_6.json,715147,864939,48,Woman
156,750246,DepthScenes,duration_manipulation_targetAtFixation,jsons/v1_VE1000_randls_6.json,http://54.235.29.9/FacialAge/BNav_EC2/DepthDuration/v2_depth_duration_MTurk/v2_DepthDuration_HTML.html#42,42,1364,625,1364,768,8-22-2022,7-59-32,157,depth_duration_stimuli/001167_2014-06-17_15-38-07_260595134347_rgbf000108-resize_0/001167_2014-06-17_15-38-07_260595134347_rgbf000108-resize_0-target.png,1000,1.8505,0,4163,988,meters,jsons/v1_VE1000_randls_6.json,715147,864939,48,Woman
157,750246,DepthScenes,duration_manipulation_targetAtFixation,jsons/v1_VE1000_randls_6.json,http://54.235.29.9/FacialAge/BNav_EC2/DepthDuration/v2_depth_duration_MTurk/v2_DepthDuration_HTML.html#42,42,1364,625,1364,768,8-22-2022,7-59-32,158,depth_duration_stimuli/003587_2014-05-23_16-48-02_094959634447_rgbf002384-resize_2/003587_2014-05-23_16-48-02_094959634447_rgbf002384-resize_2-target.png,1000,1.357,0,3060,1009,meters,jsons/v1_VE1000_randls_6.json,715147,864939,48,Woman
158,750246,DepthScenes,duration_manipulation_targetAtFixation,jsons/v1_VE1000_randls_6.json,http://54.235.29.9/FacialAge/BNav_EC2/DepthDuration/v2_depth_duration_MTurk/v2_DepthDuration_HTML.html#42,42,1364,625,1364,768,8-22-2022,7-59-32,159,depth_duration_stimuli/000486_2014-06-09_20-47-20_260595134347_rgbf000143-resize_2/000486_2014-06-09_20-47-20_260595134347_rgbf000143-resize_2-target.png,1000,4.8325,0,3717,994,meters,jsons/v1_VE1000_randls_6.json,715147,864939,48,Woman
159,750246,DepthScenes,duration_manipulation_targetAtFixation,jsons/v1_VE1000_randls_6.json,http://54.235.29.9/FacialAge/BNav_EC2/DepthDuration/v2_depth_duration_MTurk/v2_DepthDuration_HTML.html#42,42,1364,625,1364,768,8-22-2022,7-59-32,160,depth_duration_stimuli/003083_2014-06-15_15-21-03_094959634447_rgbf000063-resize_1/003083_2014-06-15_15-21-03_094959634447_rgbf000063-resize_1-target.png,1000,4.1405,0,3259,991,meters,jsons/v1_VE1000_randls_6.json,715147,864939,48,Woman
160,750246,DepthScenes,duration_manipulation_targetAtFixation,jsons/v1_VE1000_randls_6.json,http://54.235.29.9/FacialAge/BNav_EC2/DepthDuration/v2_depth_duration_MTurk/v2_DepthDuration_HTML.html#42,42,1364,625,1364,768,8-22-2022,7-59-32,161,depth_duration_stimuli/000522_2014-06-08_13-35-06_260595134347_rgbf000244-resize_1/000522_2014-06-08_13-35-06_260595134347_rgbf000244-resize_1-target.png,1000,2.3715,0,2991,987,meters,jsons/v1_VE1000_randls_6.json,715147,864939,48,Woman
161,750246,DepthScenes,duration_manipulation_targetAtFixation,jsons/v1_VE1000_randls_6.json,http://54.235.29.9/FacialAge/BNav_EC2/DepthDuration/v2_depth_duration_MTurk/v2_DepthDuration_HTML.html#42,42,1364,625,1364,768,8-22-2022,7-59-32,162,depth_duration_stimuli/002949_2014-06-26_15-57-42_094959634447_rgbf000079-resize_1/002949_2014-06-26_15-57-42_094959634447_rgbf000079-resize_1-target.png,1000,1.8915,1,3292,998,meters,jsons/v1_VE1000_randls_6.json,715147,864939,48,Woman
162,750246,DepthScenes,duration_manipulation_targetAtFixation,jsons/v1_VE1000_randls_6.json,http://54.235.29.9/FacialAge/BNav_EC2/DepthDuration/v2_depth_duration_MTurk/v2_DepthDuration_HTML.html#42,42,1364,625,1364,768,8-22-2022,7-59-32,163,depth_duration_stimuli/001133_2014-06-17_14-49-16_260595134347_rgbf000100-resize_0/001133_2014-06-17_14-49-16_260595134347_rgbf000100-resize_0-target.png,1000,4.2115,0,3005,971,meters,jsons/v1_VE1000_randls_6.json,715147,864939,48,Woman
163,750246,DepthScenes,duration_manipulation_targetAtFixation,jsons/v1_VE1000_randls_6.json,http://54.235.29.9/FacialAge/BNav_EC2/DepthDuration/v2_depth_duration_MTurk/v2_DepthDuration_HTML.html#42,42,1364,625,1364,768,8-22-2022,7-59-32,164,depth_duration_stimuli/001132_2014-06-17_14-48-54_260595134347_rgbf000100-resize_2/001132_2014-06-17_14-48-54_260595134347_rgbf000100-resize_2-target.png,1000,3.753,0,2961,990,meters,jsons/v1_VE1000_randls_6.json,715147,864939,48,Woman
