,subjID,experimentName,versionName,sequenceName,url,selected_row,windowWidth,windowHeight,screenWidth,screenHeight,startDate,startTime,trial,stimulus,duration,actual_depth,depth_estimate,trial_RT,log_sceneDuration,unitSelection,seq_filepath,experimentTime,totalTime,age,gender
0,750531,DepthScenes,duration_manipulation_targetAtFixation,jsons/v1_VE250_randls_56.json,http://54.235.29.9/FacialAge/BNav_EC2/DepthDuration/v2_depth_duration_MTurk/v2_DepthDuration_HTML.html#423,423,1366,625,1366,768,9-3-2022,13-49-6,1,depth_duration_stimuli/001016_2014-06-09_16-16-10_260595134347_rgbf000112-resize_5/001016_2014-06-09_16-16-10_260595134347_rgbf000112-resize_5-target.png,250,1.6565,5,4790,250,feet,jsons/v1_VE250_randls_56.json,2102084,2212920,57,Man
1,750531,DepthScenes,duration_manipulation_targetAtFixation,jsons/v1_VE250_randls_56.json,http://54.235.29.9/FacialAge/BNav_EC2/DepthDuration/v2_depth_duration_MTurk/v2_DepthDuration_HTML.html#423,423,1366,625,1366,768,9-3-2022,13-49-6,2,depth_duration_stimuli/002340_2014-06-28_20-05-46_260595134347_rgbf000113-resize_0/002340_2014-06-28_20-05-46_260595134347_rgbf000113-resize_0-target.png,250,2.4735,4,3078,250,feet,jsons/v1_VE250_randls_56.json,2102084,2212920,57,Man
2,750531,DepthScenes,duration_manipulation_targetAtFixation,jsons/v1_VE250_randls_56.json,http://54.235.29.9/FacialAge/BNav_EC2/DepthDuration/v2_depth_duration_MTurk/v2_DepthDuration_HTML.html#423,423,1366,625,1366,768,9-3-2022,13-49-6,3,depth_duration_stimuli/000414_2014-06-04_19-49-13_260595134347_rgbf000044-resize_0/000414_2014-06-04_19-49-13_260595134347_rgbf000044-resize_0-target.png,250,4.329,8,3008,249,feet,jsons/v1_VE250_randls_56.json,2102084,2212920,57,Man
3,750531,DepthScenes,duration_manipulation_targetAtFixation,jsons/v1_VE250_randls_56.json,http://54.235.29.9/FacialAge/BNav_EC2/DepthDuration/v2_depth_duration_MTurk/v2_DepthDuration_HTML.html#423,423,1366,625,1366,768,9-3-2022,13-49-6,4,depth_duration_stimuli/003129_2014-05-12_10-48-10_094959634447_rgbf000100-resize_0/003129_2014-05-12_10-48-10_094959634447_rgbf000100-resize_0-target.png,250,4.9305,6,3348,249,feet,jsons/v1_VE250_randls_56.json,2102084,2212920,57,Man
4,750531,DepthScenes,duration_manipulation_targetAtFixation,jsons/v1_VE250_randls_56.json,http://54.235.29.9/FacialAge/BNav_EC2/DepthDuration/v2_depth_duration_MTurk/v2_DepthDuration_HTML.html#423,423,1366,625,1366,768,9-3-2022,13-49-6,5,depth_duration_stimuli/001029_2014-06-08_13-17-57_260595134347_rgbf000065-resize_1/001029_2014-06-08_13-17-57_260595134347_rgbf000065-resize_1-target.png,250,3.0835,5,2610,251,feet,jsons/v1_VE250_randls_56.json,2102084,2212920,57,Man
5,750531,DepthScenes,duration_manipulation_targetAtFixation,jsons/v1_VE250_randls_56.json,http://54.235.29.9/FacialAge/BNav_EC2/DepthDuration/v2_depth_duration_MTurk/v2_DepthDuration_HTML.html#423,423,1366,625,1366,768,9-3-2022,13-49-6,6,depth_duration_stimuli/000677_2014-06-08_23-10-32_260595134347_rgbf000158-resize_6/000677_2014-06-08_23-10-32_260595134347_rgbf000158-resize_6-target.png,250,3.556,6,2558,251,feet,jsons/v1_VE250_randls_56.json,2102084,2212920,57,Man
6,750531,DepthScenes,duration_manipulation_targetAtFixation,jsons/v1_VE250_randls_56.json,http://54.235.29.9/FacialAge/BNav_EC2/DepthDuration/v2_depth_duration_MTurk/v2_DepthDuration_HTML.html#423,423,1366,625,1366,768,9-3-2022,13-49-6,7,depth_duration_stimuli/001555_2014-06-20_17-12-10_260595134347_rgbf000065-resize_4/001555_2014-06-20_17-12-10_260595134347_rgbf000065-resize_4-target.png,250,1.633,6,2718,249,feet,jsons/v1_VE250_randls_56.json,2102084,2212920,57,Man
7,750531,DepthScenes,duration_manipulation_targetAtFixation,jsons/v1_VE250_randls_56.json,http://54.235.29.9/FacialAge/BNav_EC2/DepthDuration/v2_depth_duration_MTurk/v2_DepthDuration_HTML.html#423,423,1366,625,1366,768,9-3-2022,13-49-6,8,depth_duration_stimuli/000103_2014-05-14_22-01-17_260595134347_rgbf000152-resize_5/000103_2014-05-14_22-01-17_260595134347_rgbf000152-resize_5-target.png,250,1.993,7,3140,250,feet,jsons/v1_VE250_randls_56.json,2102084,2212920,57,Man
8,750531,DepthScenes,duration_manipulation_targetAtFixation,jsons/v1_VE250_randls_56.json,http://54.235.29.9/FacialAge/BNav_EC2/DepthDuration/v2_depth_duration_MTurk/v2_DepthDuration_HTML.html#423,423,1366,625,1366,768,9-3-2022,13-49-6,9,depth_duration_stimuli/002763_2014-06-22_19-13-10_094959634447_rgbf000075-resize_4/002763_2014-06-22_19-13-10_094959634447_rgbf000075-resize_4-target.png,250,1.68375,6,2669,251,feet,jsons/v1_VE250_randls_56.json,2102084,2212920,57,Man
9,750531,DepthScenes,duration_manipulation_targetAtFixation,jsons/v1_VE250_randls_56.json,http://54.235.29.9/FacialAge/BNav_EC2/DepthDuration/v2_depth_duration_MTurk/v2_DepthDuration_HTML.html#423,423,1366,625,1366,768,9-3-2022,13-49-6,10,depth_duration_stimuli/002209_2014-06-28_18-36-10_260595134347_rgbf000051-resize_1/002209_2014-06-28_18-36-10_260595134347_rgbf000051-resize_1-target.png,250,2.057,5,2678,250,feet,jsons/v1_VE250_randls_56.json,2102084,2212920,57,Man
10,750531,DepthScenes,duration_manipulation_targetAtFixation,jsons/v1_VE250_randls_56.json,http://54.235.29.9/FacialAge/BNav_EC2/DepthDuration/v2_depth_duration_MTurk/v2_DepthDuration_HTML.html#423,423,1366,625,1366,768,9-3-2022,13-49-6,11,depth_duration_stimuli/002964_2014-06-08_17-46-11_094959634447_rgbf000091-resize_4/002964_2014-06-08_17-46-11_094959634447_rgbf000091-resize_4-target.png,250,1.6909999999999998,6,8929,250,feet,jsons/v1_VE250_randls_56.json,2102084,2212920,57,Man
11,750531,DepthScenes,duration_manipulation_targetAtFixation,jsons/v1_VE250_randls_56.json,http://54.235.29.9/FacialAge/BNav_EC2/DepthDuration/v2_depth_duration_MTurk/v2_DepthDuration_HTML.html#423,423,1366,625,1366,768,9-3-2022,13-49-6,12,depth_duration_stimuli/002136_2014-06-25_21-18-03_260595134347_rgbf000109-resize_3/002136_2014-06-25_21-18-03_260595134347_rgbf000109-resize_3-target.png,250,1.9569999999999999,7,2820,249,feet,jsons/v1_VE250_randls_56.json,2102084,2212920,57,Man
12,750531,DepthScenes,duration_manipulation_targetAtFixation,jsons/v1_VE250_randls_56.json,http://54.235.29.9/FacialAge/BNav_EC2/DepthDuration/v2_depth_duration_MTurk/v2_DepthDuration_HTML.html#423,423,1366,625,1366,768,9-3-2022,13-49-6,13,depth_duration_stimuli/000569_2014-06-09_22-51-47_260595134347_rgbf000141-resize_3/000569_2014-06-09_22-51-47_260595134347_rgbf000141-resize-original.jpg,250,4.512,12,3974,250,feet,jsons/v1_VE250_randls_56.json,2102084,2212920,57,Man
13,750531,DepthScenes,duration_manipulation_targetAtFixation,jsons/v1_VE250_randls_56.json,http://54.235.29.9/FacialAge/BNav_EC2/DepthDuration/v2_depth_duration_MTurk/v2_DepthDuration_HTML.html#423,423,1366,625,1366,768,9-3-2022,13-49-6,14,depth_duration_stimuli/001810_2014-06-26_20-51-35_260595134347_rgbf000040-resize_3/001810_2014-06-26_20-51-35_260595134347_rgbf000040-resize_3-target.png,250,2.2525,5,2758,249,feet,jsons/v1_VE250_randls_56.json,2102084,2212920,57,Man
14,750531,DepthScenes,duration_manipulation_targetAtFixation,jsons/v1_VE250_randls_56.json,http://54.235.29.9/FacialAge/BNav_EC2/DepthDuration/v2_depth_duration_MTurk/v2_DepthDuration_HTML.html#423,423,1366,625,1366,768,9-3-2022,13-49-6,15,depth_duration_stimuli/003010_2014-06-15_12-54-35_094959634447_rgbf000112-resize_0/003010_2014-06-15_12-54-35_094959634447_rgbf000112-resize_0-target.png,250,3.1185,6,2951,250,feet,jsons/v1_VE250_randls_56.json,2102084,2212920,57,Man
15,750531,DepthScenes,duration_manipulation_targetAtFixation,jsons/v1_VE250_randls_56.json,http://54.235.29.9/FacialAge/BNav_EC2/DepthDuration/v2_depth_duration_MTurk/v2_DepthDuration_HTML.html#423,423,1366,625,1366,768,9-3-2022,13-49-6,16,depth_duration_stimuli/001158_2014-06-17_15-32-16_260595134347_rgbf000138-resize_2/001158_2014-06-17_15-32-16_260595134347_rgbf000138-resize_2-target.png,250,4.5315,5,3458,249,feet,jsons/v1_VE250_randls_56.json,2102084,2212920,57,Man
16,750531,DepthScenes,duration_manipulation_targetAtFixation,jsons/v1_VE250_randls_56.json,http://54.235.29.9/FacialAge/BNav_EC2/DepthDuration/v2_depth_duration_MTurk/v2_DepthDuration_HTML.html#423,423,1366,625,1366,768,9-3-2022,13-49-6,17,depth_duration_stimuli/000556_2014-06-09_22-42-56_260595134347_rgbf000214-resize_1/000556_2014-06-09_22-42-56_260595134347_rgbf000214-resize_1-target.png,250,4.8415,9,3107,249,feet,jsons/v1_VE250_randls_56.json,2102084,2212920,57,Man
17,750531,DepthScenes,duration_manipulation_targetAtFixation,jsons/v1_VE250_randls_56.json,http://54.235.29.9/FacialAge/BNav_EC2/DepthDuration/v2_depth_duration_MTurk/v2_DepthDuration_HTML.html#423,423,1366,625,1366,768,9-3-2022,13-49-6,18,depth_duration_stimuli/000692_2014-06-08_13-09-42_260595134347_rgbf000199-resize_2/000692_2014-06-08_13-09-42_260595134347_rgbf000199-resize_2-target.png,250,3.661,11,3290,250,feet,jsons/v1_VE250_randls_56.json,2102084,2212920,57,Man
18,750531,DepthScenes,duration_manipulation_targetAtFixation,jsons/v1_VE250_randls_56.json,http://54.235.29.9/FacialAge/BNav_EC2/DepthDuration/v2_depth_duration_MTurk/v2_DepthDuration_HTML.html#423,423,1366,625,1366,768,9-3-2022,13-49-6,19,depth_duration_stimuli/001094_2014-06-15_17-36-00_260595134347_rgbf000205-resize_0/001094_2014-06-15_17-36-00_260595134347_rgbf000205-resize_0-target.png,250,4.2175,6,3459,250,feet,jsons/v1_VE250_randls_56.json,2102084,2212920,57,Man
19,750531,DepthScenes,duration_manipulation_targetAtFixation,jsons/v1_VE250_randls_56.json,http://54.235.29.9/FacialAge/BNav_EC2/DepthDuration/v2_depth_duration_MTurk/v2_DepthDuration_HTML.html#423,423,1366,625,1366,768,9-3-2022,13-49-6,20,depth_duration_stimuli/000470_2014-06-09_19-42-40_260595134347_rgbf000094-resize_1/000470_2014-06-09_19-42-40_260595134347_rgbf000094-resize_1-target.png,250,1.831,5,2700,250,feet,jsons/v1_VE250_randls_56.json,2102084,2212920,57,Man
20,750531,DepthScenes,duration_manipulation_targetAtFixation,jsons/v1_VE250_randls_56.json,http://54.235.29.9/FacialAge/BNav_EC2/DepthDuration/v2_depth_duration_MTurk/v2_DepthDuration_HTML.html#423,423,1366,625,1366,768,9-3-2022,13-49-6,21,depth_duration_stimuli/000109_2014-05-14_23-41-52_260595134347_rgbf000035-resize_9/000109_2014-05-14_23-41-52_260595134347_rgbf000035-resize_9-target.png,250,1.3545,6,2897,248,feet,jsons/v1_VE250_randls_56.json,2102084,2212920,57,Man
21,750531,DepthScenes,duration_manipulation_targetAtFixation,jsons/v1_VE250_randls_56.json,http://54.235.29.9/FacialAge/BNav_EC2/DepthDuration/v2_depth_duration_MTurk/v2_DepthDuration_HTML.html#423,423,1366,625,1366,768,9-3-2022,13-49-6,22,depth_duration_stimuli/003292_2014-05-14_21-53-49_094959634447_rgbf000100-resize_2/003292_2014-05-14_21-53-49_094959634447_rgbf000100-resize_2-target.png,250,3.4815,6,3221,251,feet,jsons/v1_VE250_randls_56.json,2102084,2212920,57,Man
22,750531,DepthScenes,duration_manipulation_targetAtFixation,jsons/v1_VE250_randls_56.json,http://54.235.29.9/FacialAge/BNav_EC2/DepthDuration/v2_depth_duration_MTurk/v2_DepthDuration_HTML.html#423,423,1366,625,1366,768,9-3-2022,13-49-6,23,depth_duration_stimuli/002639_2014-06-24_14-51-37_094959634447_rgbf000074-resize_4/002639_2014-06-24_14-51-37_094959634447_rgbf000074-resize_4-target.png,250,4.0375,8,3225,248,feet,jsons/v1_VE250_randls_56.json,2102084,2212920,57,Man
23,750531,DepthScenes,duration_manipulation_targetAtFixation,jsons/v1_VE250_randls_56.json,http://54.235.29.9/FacialAge/BNav_EC2/DepthDuration/v2_depth_duration_MTurk/v2_DepthDuration_HTML.html#423,423,1366,625,1366,768,9-3-2022,13-49-6,24,depth_duration_stimuli/002039_2014-06-24_20-22-38_260595134347_rgbf000084-resize_1/002039_2014-06-24_20-22-38_260595134347_rgbf000084-resize_1-target.png,250,4.408,8,4373,249,feet,jsons/v1_VE250_randls_56.json,2102084,2212920,57,Man
24,750531,DepthScenes,duration_manipulation_targetAtFixation,jsons/v1_VE250_randls_56.json,http://54.235.29.9/FacialAge/BNav_EC2/DepthDuration/v2_depth_duration_MTurk/v2_DepthDuration_HTML.html#423,423,1366,625,1366,768,9-3-2022,13-49-6,25,depth_duration_stimuli/002103_2014-06-25_20-00-40_260595134347_rgbf000049-resize_0/002103_2014-06-25_20-00-40_260595134347_rgbf000049-resize_0-target.png,250,4.105,6,14894,250,feet,jsons/v1_VE250_randls_56.json,2102084,2212920,57,Man
25,750531,DepthScenes,duration_manipulation_targetAtFixation,jsons/v1_VE250_randls_56.json,http://54.235.29.9/FacialAge/BNav_EC2/DepthDuration/v2_depth_duration_MTurk/v2_DepthDuration_HTML.html#423,423,1366,625,1366,768,9-3-2022,13-49-6,26,depth_duration_stimuli/002784_2014-06-22_19-26-30_094959634447_rgbf000083-resize_3/002784_2014-06-22_19-26-30_094959634447_rgbf000083-resize_3-target.png,250,1.8046666666667,7,2907,248,feet,jsons/v1_VE250_randls_56.json,2102084,2212920,57,Man
26,750531,DepthScenes,duration_manipulation_targetAtFixation,jsons/v1_VE250_randls_56.json,http://54.235.29.9/FacialAge/BNav_EC2/DepthDuration/v2_depth_duration_MTurk/v2_DepthDuration_HTML.html#423,423,1366,625,1366,768,9-3-2022,13-49-6,27,depth_duration_stimuli/001100_2014-06-15_17-46-26_260595134347_rgbf000225-resize_2/001100_2014-06-15_17-46-26_260595134347_rgbf000225-resize_2-target.png,250,2.24,6,2778,250,feet,jsons/v1_VE250_randls_56.json,2102084,2212920,57,Man
27,750531,DepthScenes,duration_manipulation_targetAtFixation,jsons/v1_VE250_randls_56.json,http://54.235.29.9/FacialAge/BNav_EC2/DepthDuration/v2_depth_duration_MTurk/v2_DepthDuration_HTML.html#423,423,1366,625,1366,768,9-3-2022,13-49-6,28,depth_duration_stimuli/000009_2014-05-26_14-32-05_260595134347_rgbf000034-resize_3/000009_2014-05-26_14-32-05_260595134347_rgbf000034-resize_3-target.png,250,3.8715,8,3087,249,feet,jsons/v1_VE250_randls_56.json,2102084,2212920,57,Man
28,750531,DepthScenes,duration_manipulation_targetAtFixation,jsons/v1_VE250_randls_56.json,http://54.235.29.9/FacialAge/BNav_EC2/DepthDuration/v2_depth_duration_MTurk/v2_DepthDuration_HTML.html#423,423,1366,625,1366,768,9-3-2022,13-49-6,29,depth_duration_stimuli/001828_2014-06-26_21-40-03_260595134347_rgbf000024-resize_0/001828_2014-06-26_21-40-03_260595134347_rgbf000024-resize_0-target.png,250,4.8260000000000005,6,10349,250,feet,jsons/v1_VE250_randls_56.json,2102084,2212920,57,Man
29,750531,DepthScenes,duration_manipulation_targetAtFixation,jsons/v1_VE250_randls_56.json,http://54.235.29.9/FacialAge/BNav_EC2/DepthDuration/v2_depth_duration_MTurk/v2_DepthDuration_HTML.html#423,423,1366,625,1366,768,9-3-2022,13-49-6,30,depth_duration_stimuli/000375_2014-06-08_11-17-29_260595134347_rgbf000133-resize_2/000375_2014-06-08_11-17-29_260595134347_rgbf000133-resize-original.jpg,250,4.718,7,4669,250,feet,jsons/v1_VE250_randls_56.json,2102084,2212920,57,Man
30,750531,DepthScenes,duration_manipulation_targetAtFixation,jsons/v1_VE250_randls_56.json,http://54.235.29.9/FacialAge/BNav_EC2/DepthDuration/v2_depth_duration_MTurk/v2_DepthDuration_HTML.html#423,423,1366,625,1366,768,9-3-2022,13-49-6,31,depth_duration_stimuli/000917_2014-06-09_22-45-29_260595134347_rgbf000149-resize_3/000917_2014-06-09_22-45-29_260595134347_rgbf000149-resize_3-target.png,250,4.1865,6,3520,249,feet,jsons/v1_VE250_randls_56.json,2102084,2212920,57,Man
31,750531,DepthScenes,duration_manipulation_targetAtFixation,jsons/v1_VE250_randls_56.json,http://54.235.29.9/FacialAge/BNav_EC2/DepthDuration/v2_depth_duration_MTurk/v2_DepthDuration_HTML.html#423,423,1366,625,1366,768,9-3-2022,13-49-6,32,depth_duration_stimuli/002323_2014-06-28_20-01-54_260595134347_rgbf000051-resize_4/002323_2014-06-28_20-01-54_260595134347_rgbf000051-resize_4-target.png,250,3.7310000000000003,6,2615,250,feet,jsons/v1_VE250_randls_56.json,2102084,2212920,57,Man
32,750531,DepthScenes,duration_manipulation_targetAtFixation,jsons/v1_VE250_randls_56.json,http://54.235.29.9/FacialAge/BNav_EC2/DepthDuration/v2_depth_duration_MTurk/v2_DepthDuration_HTML.html#423,423,1366,625,1366,768,9-3-2022,13-49-6,33,depth_duration_stimuli/001055_2014-06-08_18-45-35_260595134347_rgbf000111-resize_4/001055_2014-06-08_18-45-35_260595134347_rgbf000111-resize_4-target.png,250,2.4290000000000003,7,2769,249,feet,jsons/v1_VE250_randls_56.json,2102084,2212920,57,Man
33,750531,DepthScenes,duration_manipulation_targetAtFixation,jsons/v1_VE250_randls_56.json,http://54.235.29.9/FacialAge/BNav_EC2/DepthDuration/v2_depth_duration_MTurk/v2_DepthDuration_HTML.html#423,423,1366,625,1366,768,9-3-2022,13-49-6,34,depth_duration_stimuli/000549_2014-06-08_22-10-24_260595134347_rgbf000247-resize_3/000549_2014-06-08_22-10-24_260595134347_rgbf000247-resize_3-target.png,250,1.841,6,2678,251,feet,jsons/v1_VE250_randls_56.json,2102084,2212920,57,Man
34,750531,DepthScenes,duration_manipulation_targetAtFixation,jsons/v1_VE250_randls_56.json,http://54.235.29.9/FacialAge/BNav_EC2/DepthDuration/v2_depth_duration_MTurk/v2_DepthDuration_HTML.html#423,423,1366,625,1366,768,9-3-2022,13-49-6,35,depth_duration_stimuli/003492_2014-05-21_15-50-55_094959634447_rgbf000828-resize_1/003492_2014-05-21_15-50-55_094959634447_rgbf000828-resize_1-target.png,250,4.06875,13,3468,250,feet,jsons/v1_VE250_randls_56.json,2102084,2212920,57,Man
35,750531,DepthScenes,duration_manipulation_targetAtFixation,jsons/v1_VE250_randls_56.json,http://54.235.29.9/FacialAge/BNav_EC2/DepthDuration/v2_depth_duration_MTurk/v2_DepthDuration_HTML.html#423,423,1366,625,1366,768,9-3-2022,13-49-6,36,depth_duration_stimuli/002568_2014-06-24_13-59-21_094959634447_rgbf000062-resize_4/002568_2014-06-24_13-59-21_094959634447_rgbf000062-resize_4-target.png,250,3.015,12,3140,250,feet,jsons/v1_VE250_randls_56.json,2102084,2212920,57,Man
36,750531,DepthScenes,duration_manipulation_targetAtFixation,jsons/v1_VE250_randls_56.json,http://54.235.29.9/FacialAge/BNav_EC2/DepthDuration/v2_depth_duration_MTurk/v2_DepthDuration_HTML.html#423,423,1366,625,1366,768,9-3-2022,13-49-6,37,depth_duration_stimuli/002272_2014-06-28_18-53-56_260595134347_rgbf000067-resize_2/002272_2014-06-28_18-53-56_260595134347_rgbf000067-resize_2-target.png,250,1.138,6,3879,251,feet,jsons/v1_VE250_randls_56.json,2102084,2212920,57,Man
37,750531,DepthScenes,duration_manipulation_targetAtFixation,jsons/v1_VE250_randls_56.json,http://54.235.29.9/FacialAge/BNav_EC2/DepthDuration/v2_depth_duration_MTurk/v2_DepthDuration_HTML.html#423,423,1366,625,1366,768,9-3-2022,13-49-6,38,depth_duration_stimuli/001571_2014-06-20_17-21-32_260595134347_rgbf000089-resize_1/001571_2014-06-20_17-21-32_260595134347_rgbf000089-resize_1-target.png,250,1.86,8,3719,249,feet,jsons/v1_VE250_randls_56.json,2102084,2212920,57,Man
38,750531,DepthScenes,duration_manipulation_targetAtFixation,jsons/v1_VE250_randls_56.json,http://54.235.29.9/FacialAge/BNav_EC2/DepthDuration/v2_depth_duration_MTurk/v2_DepthDuration_HTML.html#423,423,1366,625,1366,768,9-3-2022,13-49-6,39,depth_duration_stimuli/000493_2014-06-09_21-01-18_260595134347_rgbf000196-resize_3/000493_2014-06-09_21-01-18_260595134347_rgbf000196-resize_3-target.png,250,3.44,8,3649,250,feet,jsons/v1_VE250_randls_56.json,2102084,2212920,57,Man
39,750531,DepthScenes,duration_manipulation_targetAtFixation,jsons/v1_VE250_randls_56.json,http://54.235.29.9/FacialAge/BNav_EC2/DepthDuration/v2_depth_duration_MTurk/v2_DepthDuration_HTML.html#423,423,1366,625,1366,768,9-3-2022,13-49-6,40,depth_duration_stimuli/000191_2014-05-12_17-07-38_260595134347_rgbf000199-resize_0/000191_2014-05-12_17-07-38_260595134347_rgbf000199-resize_0-target.png,250,3.7995,7,5838,251,feet,jsons/v1_VE250_randls_56.json,2102084,2212920,57,Man
40,750531,DepthScenes,duration_manipulation_targetAtFixation,jsons/v1_VE250_randls_56.json,http://54.235.29.9/FacialAge/BNav_EC2/DepthDuration/v2_depth_duration_MTurk/v2_DepthDuration_HTML.html#423,423,1366,625,1366,768,9-3-2022,13-49-6,41,depth_duration_stimuli/002905_2014-06-03_18-04-43_094959634447_rgbf000151-resize_2/002905_2014-06-03_18-04-43_094959634447_rgbf000151-resize_2-target.png,250,2.0295,8,3389,251,feet,jsons/v1_VE250_randls_56.json,2102084,2212920,57,Man
41,750531,DepthScenes,duration_manipulation_targetAtFixation,jsons/v1_VE250_randls_56.json,http://54.235.29.9/FacialAge/BNav_EC2/DepthDuration/v2_depth_duration_MTurk/v2_DepthDuration_HTML.html#423,423,1366,625,1366,768,9-3-2022,13-49-6,42,depth_duration_stimuli/003423_2014-05-21_10-23-26_094959634447_rgbf002665-resize_2/003423_2014-05-21_10-23-26_094959634447_rgbf002665-resize_2-target.png,250,3.2575,12,2870,251,feet,jsons/v1_VE250_randls_56.json,2102084,2212920,57,Man
42,750531,DepthScenes,duration_manipulation_targetAtFixation,jsons/v1_VE250_randls_56.json,http://54.235.29.9/FacialAge/BNav_EC2/DepthDuration/v2_depth_duration_MTurk/v2_DepthDuration_HTML.html#423,423,1366,625,1366,768,9-3-2022,13-49-6,43,depth_duration_stimuli/000878_2014-06-08_22-52-45_260595134347_rgbf000045-resize_2/000878_2014-06-08_22-52-45_260595134347_rgbf000045-resize_2-target.png,250,2.092,2,4078,249,feet,jsons/v1_VE250_randls_56.json,2102084,2212920,57,Man
43,750531,DepthScenes,duration_manipulation_targetAtFixation,jsons/v1_VE250_randls_56.json,http://54.235.29.9/FacialAge/BNav_EC2/DepthDuration/v2_depth_duration_MTurk/v2_DepthDuration_HTML.html#423,423,1366,625,1366,768,9-3-2022,13-49-6,44,depth_duration_stimuli/002953_2014-06-08_17-32-18_094959634447_rgbf000059-resize_5/002953_2014-06-08_17-32-18_094959634447_rgbf000059-resize_5-target.png,250,1.551,2,3488,250,feet,jsons/v1_VE250_randls_56.json,2102084,2212920,57,Man
44,750531,DepthScenes,duration_manipulation_targetAtFixation,jsons/v1_VE250_randls_56.json,http://54.235.29.9/FacialAge/BNav_EC2/DepthDuration/v2_depth_duration_MTurk/v2_DepthDuration_HTML.html#423,423,1366,625,1366,768,9-3-2022,13-49-6,45,depth_duration_stimuli/000787_2014-06-08_22-33-53_260595134347_rgbf000175-resize_1/000787_2014-06-08_22-33-53_260595134347_rgbf000175-resize-original.jpg,250,4.784,4,2810,250,feet,jsons/v1_VE250_randls_56.json,2102084,2212920,57,Man
45,750531,DepthScenes,duration_manipulation_targetAtFixation,jsons/v1_VE250_randls_56.json,http://54.235.29.9/FacialAge/BNav_EC2/DepthDuration/v2_depth_duration_MTurk/v2_DepthDuration_HTML.html#423,423,1366,625,1366,768,9-3-2022,13-49-6,46,depth_duration_stimuli/002153_2014-06-25_21-27-18_260595134347_rgbf000038-resize_5/002153_2014-06-25_21-27-18_260595134347_rgbf000038-resize_5-target.png,250,2.505,5,29392,250,feet,jsons/v1_VE250_randls_56.json,2102084,2212920,57,Man
46,750531,DepthScenes,duration_manipulation_targetAtFixation,jsons/v1_VE250_randls_56.json,http://54.235.29.9/FacialAge/BNav_EC2/DepthDuration/v2_depth_duration_MTurk/v2_DepthDuration_HTML.html#423,423,1366,625,1366,768,9-3-2022,13-49-6,47,depth_duration_stimuli/002660_2014-06-13_15-44-18_094959634447_rgbf001878-resize_2/002660_2014-06-13_15-44-18_094959634447_rgbf001878-resize_2-target.png,250,3.576,5,2530,249,feet,jsons/v1_VE250_randls_56.json,2102084,2212920,57,Man
47,750531,DepthScenes,duration_manipulation_targetAtFixation,jsons/v1_VE250_randls_56.json,http://54.235.29.9/FacialAge/BNav_EC2/DepthDuration/v2_depth_duration_MTurk/v2_DepthDuration_HTML.html#423,423,1366,625,1366,768,9-3-2022,13-49-6,48,depth_duration_stimuli/000929_2014-06-09_16-33-19_260595134347_rgbf000139-resize_0/000929_2014-06-09_16-33-19_260595134347_rgbf000139-resize_0-target.png,250,2.8680000000000003,6,3416,249,feet,jsons/v1_VE250_randls_56.json,2102084,2212920,57,Man
48,750531,DepthScenes,duration_manipulation_targetAtFixation,jsons/v1_VE250_randls_56.json,http://54.235.29.9/FacialAge/BNav_EC2/DepthDuration/v2_depth_duration_MTurk/v2_DepthDuration_HTML.html#423,423,1366,625,1366,768,9-3-2022,13-49-6,49,depth_duration_stimuli/000457_2014-06-08_16-52-43_260595134347_rgbf000199-resize_1/000457_2014-06-08_16-52-43_260595134347_rgbf000199-resize_1-target.png,250,3.6489999999999996,5,61977,250,feet,jsons/v1_VE250_randls_56.json,2102084,2212920,57,Man
49,750531,DepthScenes,duration_manipulation_targetAtFixation,jsons/v1_VE250_randls_56.json,http://54.235.29.9/FacialAge/BNav_EC2/DepthDuration/v2_depth_duration_MTurk/v2_DepthDuration_HTML.html#423,423,1366,625,1366,768,9-3-2022,13-49-6,50,depth_duration_stimuli/001167_2014-06-17_15-38-07_260595134347_rgbf000108-resize_0/001167_2014-06-17_15-38-07_260595134347_rgbf000108-resize_0-target.png,250,1.8505,4,3140,249,feet,jsons/v1_VE250_randls_56.json,2102084,2212920,57,Man
50,750531,DepthScenes,duration_manipulation_targetAtFixation,jsons/v1_VE250_randls_56.json,http://54.235.29.9/FacialAge/BNav_EC2/DepthDuration/v2_depth_duration_MTurk/v2_DepthDuration_HTML.html#423,423,1366,625,1366,768,9-3-2022,13-49-6,51,depth_duration_stimuli/003587_2014-05-23_16-48-02_094959634447_rgbf002384-resize_2/003587_2014-05-23_16-48-02_094959634447_rgbf002384-resize_2-target.png,250,1.357,5,3708,248,feet,jsons/v1_VE250_randls_56.json,2102084,2212920,57,Man
51,750531,DepthScenes,duration_manipulation_targetAtFixation,jsons/v1_VE250_randls_56.json,http://54.235.29.9/FacialAge/BNav_EC2/DepthDuration/v2_depth_duration_MTurk/v2_DepthDuration_HTML.html#423,423,1366,625,1366,768,9-3-2022,13-49-6,52,depth_duration_stimuli/001059_2014-06-08_21-53-27_260595134347_rgbf000061-resize_4/001059_2014-06-08_21-53-27_260595134347_rgbf000061-resize_4-target.png,250,2.4185,5,3238,248,feet,jsons/v1_VE250_randls_56.json,2102084,2212920,57,Man
52,750531,DepthScenes,duration_manipulation_targetAtFixation,jsons/v1_VE250_randls_56.json,http://54.235.29.9/FacialAge/BNav_EC2/DepthDuration/v2_depth_duration_MTurk/v2_DepthDuration_HTML.html#423,423,1366,625,1366,768,9-3-2022,13-49-6,53,depth_duration_stimuli/001032_2014-06-08_13-23-17_260595134347_rgbf000021-resize_3/001032_2014-06-08_13-23-17_260595134347_rgbf000021-resize_3-target.png,250,3.2725,5,134669,249,feet,jsons/v1_VE250_randls_56.json,2102084,2212920,57,Man
53,750531,DepthScenes,duration_manipulation_targetAtFixation,jsons/v1_VE250_randls_56.json,http://54.235.29.9/FacialAge/BNav_EC2/DepthDuration/v2_depth_duration_MTurk/v2_DepthDuration_HTML.html#423,423,1366,625,1366,768,9-3-2022,13-49-6,54,depth_duration_stimuli/002445_2014-06-28_20-32-16_260595134347_rgbf000029-resize_4/002445_2014-06-28_20-32-16_260595134347_rgbf000029-resize_4-target.png,250,2.5315,5,10745,249,feet,jsons/v1_VE250_randls_56.json,2102084,2212920,57,Man
54,750531,DepthScenes,duration_manipulation_targetAtFixation,jsons/v1_VE250_randls_56.json,http://54.235.29.9/FacialAge/BNav_EC2/DepthDuration/v2_depth_duration_MTurk/v2_DepthDuration_HTML.html#423,423,1366,625,1366,768,9-3-2022,13-49-6,55,depth_duration_stimuli/000780_2014-06-08_22-28-29_260595134347_rgbf000126-resize_1/000780_2014-06-08_22-28-29_260595134347_rgbf000126-resize_1-target.png,250,3.3825,7,13502,251,feet,jsons/v1_VE250_randls_56.json,2102084,2212920,57,Man
55,750531,DepthScenes,duration_manipulation_targetAtFixation,jsons/v1_VE250_randls_56.json,http://54.235.29.9/FacialAge/BNav_EC2/DepthDuration/v2_depth_duration_MTurk/v2_DepthDuration_HTML.html#423,423,1366,625,1366,768,9-3-2022,13-49-6,56,depth_duration_stimuli/000758_2014-06-08_22-05-08_260595134347_rgbf000085-resize_0/000758_2014-06-08_22-05-08_260595134347_rgbf000085-resize_0-target.png,250,3.3810000000000002,5,569188,248,feet,jsons/v1_VE250_randls_56.json,2102084,2212920,57,Man
56,750531,DepthScenes,duration_manipulation_targetAtFixation,jsons/v1_VE250_randls_56.json,http://54.235.29.9/FacialAge/BNav_EC2/DepthDuration/v2_depth_duration_MTurk/v2_DepthDuration_HTML.html#423,423,1366,625,1366,768,9-3-2022,13-49-6,57,depth_duration_stimuli/000854_2014-06-09_19-43-13_260595134347_rgbf000066-resize_0/000854_2014-06-09_19-43-13_260595134347_rgbf000066-resize_0-target.png,250,3.068,6,3205,248,feet,jsons/v1_VE250_randls_56.json,2102084,2212920,57,Man
57,750531,DepthScenes,duration_manipulation_targetAtFixation,jsons/v1_VE250_randls_56.json,http://54.235.29.9/FacialAge/BNav_EC2/DepthDuration/v2_depth_duration_MTurk/v2_DepthDuration_HTML.html#423,423,1366,625,1366,768,9-3-2022,13-49-6,58,depth_duration_stimuli/000447_2014-06-08_16-15-46_260595134347_rgbf000130-resize_1/000447_2014-06-08_16-15-46_260595134347_rgbf000130-resize_1-target.png,250,4.479,8,4489,250,feet,jsons/v1_VE250_randls_56.json,2102084,2212920,57,Man
58,750531,DepthScenes,duration_manipulation_targetAtFixation,jsons/v1_VE250_randls_56.json,http://54.235.29.9/FacialAge/BNav_EC2/DepthDuration/v2_depth_duration_MTurk/v2_DepthDuration_HTML.html#423,423,1366,625,1366,768,9-3-2022,13-49-6,59,depth_duration_stimuli/001447_2014-06-19_17-00-32_260595134347_rgbf000082-resize_5/001447_2014-06-19_17-00-32_260595134347_rgbf000082-resize_5-target.png,250,4.13775,12,3880,250,feet,jsons/v1_VE250_randls_56.json,2102084,2212920,57,Man
59,750531,DepthScenes,duration_manipulation_targetAtFixation,jsons/v1_VE250_randls_56.json,http://54.235.29.9/FacialAge/BNav_EC2/DepthDuration/v2_depth_duration_MTurk/v2_DepthDuration_HTML.html#423,423,1366,625,1366,768,9-3-2022,13-49-6,60,depth_duration_stimuli/001110_2014-06-15_17-25-28_260595134347_rgbf000150-resize_1/001110_2014-06-15_17-25-28_260595134347_rgbf000150-resize_1-target.png,250,1.7115,6,5601,251,feet,jsons/v1_VE250_randls_56.json,2102084,2212920,57,Man
60,750531,DepthScenes,duration_manipulation_targetAtFixation,jsons/v1_VE250_randls_56.json,http://54.235.29.9/FacialAge/BNav_EC2/DepthDuration/v2_depth_duration_MTurk/v2_DepthDuration_HTML.html#423,423,1366,625,1366,768,9-3-2022,13-49-6,61,depth_duration_stimuli/000927_2014-06-09_16-32-30_260595134347_rgbf000123-resize_3/000927_2014-06-09_16-32-30_260595134347_rgbf000123-resize_3-target.png,250,2.6785,7,3076,249,feet,jsons/v1_VE250_randls_56.json,2102084,2212920,57,Man
61,750531,DepthScenes,duration_manipulation_targetAtFixation,jsons/v1_VE250_randls_56.json,http://54.235.29.9/FacialAge/BNav_EC2/DepthDuration/v2_depth_duration_MTurk/v2_DepthDuration_HTML.html#423,423,1366,625,1366,768,9-3-2022,13-49-6,62,depth_duration_stimuli/002375_2014-06-28_20-13-44_260595134347_rgbf000032-resize_1/002375_2014-06-28_20-13-44_260595134347_rgbf000032-resize_1-target.png,250,4.0175,6,2657,249,feet,jsons/v1_VE250_randls_56.json,2102084,2212920,57,Man
62,750531,DepthScenes,duration_manipulation_targetAtFixation,jsons/v1_VE250_randls_56.json,http://54.235.29.9/FacialAge/BNav_EC2/DepthDuration/v2_depth_duration_MTurk/v2_DepthDuration_HTML.html#423,423,1366,625,1366,768,9-3-2022,13-49-6,63,depth_duration_stimuli/002657_2014-06-13_15-29-54_094959634447_rgbf000150-resize_1/002657_2014-06-13_15-29-54_094959634447_rgbf000150-resize_1-target.png,250,4.919,7,59512,248,feet,jsons/v1_VE250_randls_56.json,2102084,2212920,57,Man
63,750531,DepthScenes,duration_manipulation_targetAtFixation,jsons/v1_VE250_randls_56.json,http://54.235.29.9/FacialAge/BNav_EC2/DepthDuration/v2_depth_duration_MTurk/v2_DepthDuration_HTML.html#423,423,1366,625,1366,768,9-3-2022,13-49-6,64,depth_duration_stimuli/002213_2014-06-28_18-37-58_260595134347_rgbf000055-resize_1/002213_2014-06-28_18-37-58_260595134347_rgbf000055-resize_1-target.png,250,3.62,6,7370,249,feet,jsons/v1_VE250_randls_56.json,2102084,2212920,57,Man
64,750531,DepthScenes,duration_manipulation_targetAtFixation,jsons/v1_VE250_randls_56.json,http://54.235.29.9/FacialAge/BNav_EC2/DepthDuration/v2_depth_duration_MTurk/v2_DepthDuration_HTML.html#423,423,1366,625,1366,768,9-3-2022,13-49-6,65,depth_duration_stimuli/000691_2014-06-08_13-08-50_260595134347_rgbf000132-resize_3/000691_2014-06-08_13-08-50_260595134347_rgbf000132-resize_3-target.png,250,4.1530000000000005,7,4024,249,feet,jsons/v1_VE250_randls_56.json,2102084,2212920,57,Man
65,750531,DepthScenes,duration_manipulation_targetAtFixation,jsons/v1_VE250_randls_56.json,http://54.235.29.9/FacialAge/BNav_EC2/DepthDuration/v2_depth_duration_MTurk/v2_DepthDuration_HTML.html#423,423,1366,625,1366,768,9-3-2022,13-49-6,66,depth_duration_stimuli/001222_2014-06-17_16-24-06_260595134347_rgbf000073-resize_0/001222_2014-06-17_16-24-06_260595134347_rgbf000073-resize-original.jpg,250,1.4385,7,7466,250,feet,jsons/v1_VE250_randls_56.json,2102084,2212920,57,Man
66,750531,DepthScenes,duration_manipulation_targetAtFixation,jsons/v1_VE250_randls_56.json,http://54.235.29.9/FacialAge/BNav_EC2/DepthDuration/v2_depth_duration_MTurk/v2_DepthDuration_HTML.html#423,423,1366,625,1366,768,9-3-2022,13-49-6,67,depth_duration_stimuli/000469_2014-06-09_19-42-10_260595134347_rgbf000081-resize_1/000469_2014-06-09_19-42-10_260595134347_rgbf000081-resize_1-target.png,250,1.652,7,5670,250,feet,jsons/v1_VE250_randls_56.json,2102084,2212920,57,Man
67,750531,DepthScenes,duration_manipulation_targetAtFixation,jsons/v1_VE250_randls_56.json,http://54.235.29.9/FacialAge/BNav_EC2/DepthDuration/v2_depth_duration_MTurk/v2_DepthDuration_HTML.html#423,423,1366,625,1366,768,9-3-2022,13-49-6,68,depth_duration_stimuli/000483_2014-06-09_20-41-45_260595134347_rgbf000116-resize_4/000483_2014-06-09_20-41-45_260595134347_rgbf000116-resize_4-target.png,250,1.337,9,7188,250,feet,jsons/v1_VE250_randls_56.json,2102084,2212920,57,Man
68,750531,DepthScenes,duration_manipulation_targetAtFixation,jsons/v1_VE250_randls_56.json,http://54.235.29.9/FacialAge/BNav_EC2/DepthDuration/v2_depth_duration_MTurk/v2_DepthDuration_HTML.html#423,423,1366,625,1366,768,9-3-2022,13-49-6,69,depth_duration_stimuli/000642_2014-06-08_16-59-25_260595134347_rgbf000098-resize_2/000642_2014-06-08_16-59-25_260595134347_rgbf000098-resize_2-target.png,250,2.8815,6,3738,250,feet,jsons/v1_VE250_randls_56.json,2102084,2212920,57,Man
69,750531,DepthScenes,duration_manipulation_targetAtFixation,jsons/v1_VE250_randls_56.json,http://54.235.29.9/FacialAge/BNav_EC2/DepthDuration/v2_depth_duration_MTurk/v2_DepthDuration_HTML.html#423,423,1366,625,1366,768,9-3-2022,13-49-6,70,depth_duration_stimuli/002425_2014-06-28_20-27-29_260595134347_rgbf000031-resize_8/002425_2014-06-28_20-27-29_260595134347_rgbf000031-resize_8-target.png,250,3.8960000000000004,5,4258,247,feet,jsons/v1_VE250_randls_56.json,2102084,2212920,57,Man
70,750531,DepthScenes,duration_manipulation_targetAtFixation,jsons/v1_VE250_randls_56.json,http://54.235.29.9/FacialAge/BNav_EC2/DepthDuration/v2_depth_duration_MTurk/v2_DepthDuration_HTML.html#423,423,1366,625,1366,768,9-3-2022,13-49-6,71,depth_duration_stimuli/002118_2014-06-25_20-32-08_260595134347_rgbf000078-resize_1/002118_2014-06-25_20-32-08_260595134347_rgbf000078-resize_1-target.png,250,2.6460000000000004,7,6431,250,feet,jsons/v1_VE250_randls_56.json,2102084,2212920,57,Man
71,750531,DepthScenes,duration_manipulation_targetAtFixation,jsons/v1_VE250_randls_56.json,http://54.235.29.9/FacialAge/BNav_EC2/DepthDuration/v2_depth_duration_MTurk/v2_DepthDuration_HTML.html#423,423,1366,625,1366,768,9-3-2022,13-49-6,72,depth_duration_stimuli/001516_2014-06-20_16-25-09_260595134347_rgbf000076-resize_2/001516_2014-06-20_16-25-09_260595134347_rgbf000076-resize_2-target.png,250,1.7445,6,4547,248,feet,jsons/v1_VE250_randls_56.json,2102084,2212920,57,Man
72,750531,DepthScenes,duration_manipulation_targetAtFixation,jsons/v1_VE250_randls_56.json,http://54.235.29.9/FacialAge/BNav_EC2/DepthDuration/v2_depth_duration_MTurk/v2_DepthDuration_HTML.html#423,423,1366,625,1366,768,9-3-2022,13-49-6,73,depth_duration_stimuli/000486_2014-06-09_20-47-20_260595134347_rgbf000143-resize_2/000486_2014-06-09_20-47-20_260595134347_rgbf000143-resize_2-target.png,250,4.8325,5,6438,249,feet,jsons/v1_VE250_randls_56.json,2102084,2212920,57,Man
73,750531,DepthScenes,duration_manipulation_targetAtFixation,jsons/v1_VE250_randls_56.json,http://54.235.29.9/FacialAge/BNav_EC2/DepthDuration/v2_depth_duration_MTurk/v2_DepthDuration_HTML.html#423,423,1366,625,1366,768,9-3-2022,13-49-6,74,depth_duration_stimuli/003083_2014-06-15_15-21-03_094959634447_rgbf000063-resize_1/003083_2014-06-15_15-21-03_094959634447_rgbf000063-resize_1-target.png,250,4.1405,6,6272,251,feet,jsons/v1_VE250_randls_56.json,2102084,2212920,57,Man
74,750531,DepthScenes,duration_manipulation_targetAtFixation,jsons/v1_VE250_randls_56.json,http://54.235.29.9/FacialAge/BNav_EC2/DepthDuration/v2_depth_duration_MTurk/v2_DepthDuration_HTML.html#423,423,1366,625,1366,768,9-3-2022,13-49-6,75,depth_duration_stimuli/000788_2014-06-08_22-34-36_260595134347_rgbf000131-resize_1/000788_2014-06-08_22-34-36_260595134347_rgbf000131-resize_1-target.png,250,3.359,8,8699,251,feet,jsons/v1_VE250_randls_56.json,2102084,2212920,57,Man
75,750531,DepthScenes,duration_manipulation_targetAtFixation,jsons/v1_VE250_randls_56.json,http://54.235.29.9/FacialAge/BNav_EC2/DepthDuration/v2_depth_duration_MTurk/v2_DepthDuration_HTML.html#423,423,1366,625,1366,768,9-3-2022,13-49-6,76,depth_duration_stimuli/001235_2014-06-17_16-37-36_260595134347_rgbf000084-resize_4/001235_2014-06-17_16-37-36_260595134347_rgbf000084-resize_4-target.png,250,3.6605,5,4632,250,feet,jsons/v1_VE250_randls_56.json,2102084,2212920,57,Man
76,750531,DepthScenes,duration_manipulation_targetAtFixation,jsons/v1_VE250_randls_56.json,http://54.235.29.9/FacialAge/BNav_EC2/DepthDuration/v2_depth_duration_MTurk/v2_DepthDuration_HTML.html#423,423,1366,625,1366,768,9-3-2022,13-49-6,77,depth_duration_stimuli/001133_2014-06-17_14-49-16_260595134347_rgbf000100-resize_0/001133_2014-06-17_14-49-16_260595134347_rgbf000100-resize_0-target.png,250,4.2115,8,14438,249,feet,jsons/v1_VE250_randls_56.json,2102084,2212920,57,Man
77,750531,DepthScenes,duration_manipulation_targetAtFixation,jsons/v1_VE250_randls_56.json,http://54.235.29.9/FacialAge/BNav_EC2/DepthDuration/v2_depth_duration_MTurk/v2_DepthDuration_HTML.html#423,423,1366,625,1366,768,9-3-2022,13-49-6,78,depth_duration_stimuli/001132_2014-06-17_14-48-54_260595134347_rgbf000100-resize_2/001132_2014-06-17_14-48-54_260595134347_rgbf000100-resize_2-target.png,250,3.753,5,8353,252,feet,jsons/v1_VE250_randls_56.json,2102084,2212920,57,Man
78,750531,DepthScenes,duration_manipulation_targetAtFixation,jsons/v1_VE250_randls_56.json,http://54.235.29.9/FacialAge/BNav_EC2/DepthDuration/v2_depth_duration_MTurk/v2_DepthDuration_HTML.html#423,423,1366,625,1366,768,9-3-2022,13-49-6,79,depth_duration_stimuli/002057_2014-06-24_21-00-13_260595134347_rgbf000120-resize_1/002057_2014-06-24_21-00-13_260595134347_rgbf000120-resize_1-target.png,250,2.967,7,5187,248,feet,jsons/v1_VE250_randls_56.json,2102084,2212920,57,Man
79,750531,DepthScenes,duration_manipulation_targetAtFixation,jsons/v1_VE250_randls_56.json,http://54.235.29.9/FacialAge/BNav_EC2/DepthDuration/v2_depth_duration_MTurk/v2_DepthDuration_HTML.html#423,423,1366,625,1366,768,9-3-2022,13-49-6,80,depth_duration_stimuli/000709_2014-06-08_13-51-55_260595134347_rgbf000068-resize_3/000709_2014-06-08_13-51-55_260595134347_rgbf000068-resize_3-target.png,250,1.8030000000000002,6,9756,249,feet,jsons/v1_VE250_randls_56.json,2102084,2212920,57,Man
80,750531,DepthScenes,duration_manipulation_targetAtFixation,jsons/v1_VE250_randls_56.json,http://54.235.29.9/FacialAge/BNav_EC2/DepthDuration/v2_depth_duration_MTurk/v2_DepthDuration_HTML.html#423,423,1366,625,1366,768,9-3-2022,13-49-6,81,depth_duration_stimuli/001199_2014-06-17_16-03-48_260595134347_rgbf000077-resize_0/001199_2014-06-17_16-03-48_260595134347_rgbf000077-resize_0-target.png,250,3.4375,5,17997,250,feet,jsons/v1_VE250_randls_56.json,2102084,2212920,57,Man
81,750531,DepthScenes,duration_manipulation_targetAtFixation,jsons/v1_VE250_randls_56.json,http://54.235.29.9/FacialAge/BNav_EC2/DepthDuration/v2_depth_duration_MTurk/v2_DepthDuration_HTML.html#423,423,1366,625,1366,768,9-3-2022,13-49-6,82,depth_duration_stimuli/000502_2014-06-08_23-02-32_260595134347_rgbf000063-resize_4/000502_2014-06-08_23-02-32_260595134347_rgbf000063-resize_4-target.png,250,2.431,6,3786,250,feet,jsons/v1_VE250_randls_56.json,2102084,2212920,57,Man
82,750531,DepthScenes,duration_manipulation_targetAtFixation,jsons/v1_VE250_randls_56.json,http://54.235.29.9/FacialAge/BNav_EC2/DepthDuration/v2_depth_duration_MTurk/v2_DepthDuration_HTML.html#423,423,1366,625,1366,768,9-3-2022,13-49-6,83,depth_duration_stimuli/002630_2014-06-24_14-47-50_094959634447_rgbf000055-resize_1/002630_2014-06-24_14-47-50_094959634447_rgbf000055-resize_1-target.png,250,3.0095,6,3220,250,feet,jsons/v1_VE250_randls_56.json,2102084,2212920,57,Man
83,750531,DepthScenes,duration_manipulation_targetAtFixation,jsons/v1_VE250_randls_56.json,http://54.235.29.9/FacialAge/BNav_EC2/DepthDuration/v2_depth_duration_MTurk/v2_DepthDuration_HTML.html#423,423,1366,625,1366,768,9-3-2022,13-49-6,84,depth_duration_stimuli/002758_2014-06-22_19-11-20_094959634447_rgbf000128-resize_1/002758_2014-06-22_19-11-20_094959634447_rgbf000128-resize_1-target.png,250,2.555,5,2543,250,feet,jsons/v1_VE250_randls_56.json,2102084,2212920,57,Man
84,750531,DepthScenes,duration_manipulation_targetAtFixation,jsons/v1_VE250_randls_56.json,http://54.235.29.9/FacialAge/BNav_EC2/DepthDuration/v2_depth_duration_MTurk/v2_DepthDuration_HTML.html#423,423,1366,625,1366,768,9-3-2022,13-49-6,85,depth_duration_stimuli/001806_2014-06-26_20-50-20_260595134347_rgbf000091-resize_1/001806_2014-06-26_20-50-20_260595134347_rgbf000091-resize_1-target.png,250,2.7305,8,3165,249,feet,jsons/v1_VE250_randls_56.json,2102084,2212920,57,Man
85,750531,DepthScenes,duration_manipulation_targetAtFixation,jsons/v1_VE250_randls_56.json,http://54.235.29.9/FacialAge/BNav_EC2/DepthDuration/v2_depth_duration_MTurk/v2_DepthDuration_HTML.html#423,423,1366,625,1366,768,9-3-2022,13-49-6,86,depth_duration_stimuli/001617_2014-06-20_11-35-32_260595134347_rgbf000066-resize_1/001617_2014-06-20_11-35-32_260595134347_rgbf000066-resize_1-target.png,250,3.7910000000000004,6,3759,250,feet,jsons/v1_VE250_randls_56.json,2102084,2212920,57,Man
86,750531,DepthScenes,duration_manipulation_targetAtFixation,jsons/v1_VE250_randls_56.json,http://54.235.29.9/FacialAge/BNav_EC2/DepthDuration/v2_depth_duration_MTurk/v2_DepthDuration_HTML.html#423,423,1366,625,1366,768,9-3-2022,13-49-6,87,depth_duration_stimuli/001056_2014-06-08_18-46-44_260595134347_rgbf000068-resize_0/001056_2014-06-08_18-46-44_260595134347_rgbf000068-resize_0-target.png,250,2.6625,9,3465,250,feet,jsons/v1_VE250_randls_56.json,2102084,2212920,57,Man
87,750531,DepthScenes,duration_manipulation_targetAtFixation,jsons/v1_VE250_randls_56.json,http://54.235.29.9/FacialAge/BNav_EC2/DepthDuration/v2_depth_duration_MTurk/v2_DepthDuration_HTML.html#423,423,1366,625,1366,768,9-3-2022,13-49-6,88,depth_duration_stimuli/002199_2014-06-28_18-33-56_260595134347_rgbf000074-resize_0/002199_2014-06-28_18-33-56_260595134347_rgbf000074-resize_0-target.png,250,1.996,5,8748,248,feet,jsons/v1_VE250_randls_56.json,2102084,2212920,57,Man
88,750531,DepthScenes,duration_manipulation_targetAtFixation,jsons/v1_VE250_randls_56.json,http://54.235.29.9/FacialAge/BNav_EC2/DepthDuration/v2_depth_duration_MTurk/v2_DepthDuration_HTML.html#423,423,1366,625,1366,768,9-3-2022,13-49-6,89,depth_duration_stimuli/002549_2014-06-24_13-41-39_094959634447_rgbf000022-resize_3/002549_2014-06-24_13-41-39_094959634447_rgbf000022-resize_3-target.png,250,1.476,7,3068,248,feet,jsons/v1_VE250_randls_56.json,2102084,2212920,57,Man
89,750531,DepthScenes,duration_manipulation_targetAtFixation,jsons/v1_VE250_randls_56.json,http://54.235.29.9/FacialAge/BNav_EC2/DepthDuration/v2_depth_duration_MTurk/v2_DepthDuration_HTML.html#423,423,1366,625,1366,768,9-3-2022,13-49-6,90,depth_duration_stimuli/002750_2014-06-22_19-08-03_094959634447_rgbf000094-resize_4/002750_2014-06-22_19-08-03_094959634447_rgbf000094-resize_4-target.png,250,2.354,5,105483,250,feet,jsons/v1_VE250_randls_56.json,2102084,2212920,57,Man
90,750531,DepthScenes,duration_manipulation_targetAtFixation,jsons/v1_VE250_randls_56.json,http://54.235.29.9/FacialAge/BNav_EC2/DepthDuration/v2_depth_duration_MTurk/v2_DepthDuration_HTML.html#423,423,1366,625,1366,768,9-3-2022,13-49-6,91,depth_duration_stimuli/002748_2014-06-22_19-07-22_094959634447_rgbf000078-resize_1/002748_2014-06-22_19-07-22_094959634447_rgbf000078-resize_1-target.png,250,4.6705,7,2854,249,feet,jsons/v1_VE250_randls_56.json,2102084,2212920,57,Man
91,750531,DepthScenes,duration_manipulation_targetAtFixation,jsons/v1_VE250_randls_56.json,http://54.235.29.9/FacialAge/BNav_EC2/DepthDuration/v2_depth_duration_MTurk/v2_DepthDuration_HTML.html#423,423,1366,625,1366,768,9-3-2022,13-49-6,92,depth_duration_stimuli/002995_2014-06-15_12-31-26_094959634447_rgbf000150-resize_1/002995_2014-06-15_12-31-26_094959634447_rgbf000150-resize_1-target.png,250,3.8360000000000003,6,173529,250,feet,jsons/v1_VE250_randls_56.json,2102084,2212920,57,Man
92,750531,DepthScenes,duration_manipulation_targetAtFixation,jsons/v1_VE250_randls_56.json,http://54.235.29.9/FacialAge/BNav_EC2/DepthDuration/v2_depth_duration_MTurk/v2_DepthDuration_HTML.html#423,423,1366,625,1366,768,9-3-2022,13-49-6,93,depth_duration_stimuli/001011_2014-06-08_23-18-54_260595134347_rgbf000044-resize_4/001011_2014-06-08_23-18-54_260595134347_rgbf000044-resize_4-target.png,250,2.4730000000000003,9,3339,250,feet,jsons/v1_VE250_randls_56.json,2102084,2212920,57,Man
93,750531,DepthScenes,duration_manipulation_targetAtFixation,jsons/v1_VE250_randls_56.json,http://54.235.29.9/FacialAge/BNav_EC2/DepthDuration/v2_depth_duration_MTurk/v2_DepthDuration_HTML.html#423,423,1366,625,1366,768,9-3-2022,13-49-6,94,depth_duration_stimuli/002875_2014-06-01_15-19-00_094959634447_rgbf000151-resize_1/002875_2014-06-01_15-19-00_094959634447_rgbf000151-resize_1-target.png,250,1.9675,4,3277,250,feet,jsons/v1_VE250_randls_56.json,2102084,2212920,57,Man
94,750531,DepthScenes,duration_manipulation_targetAtFixation,jsons/v1_VE250_randls_56.json,http://54.235.29.9/FacialAge/BNav_EC2/DepthDuration/v2_depth_duration_MTurk/v2_DepthDuration_HTML.html#423,423,1366,625,1366,768,9-3-2022,13-49-6,95,depth_duration_stimuli/003070_2014-06-15_14-58-27_094959634447_rgbf000150-resize_3/003070_2014-06-15_14-58-27_094959634447_rgbf000150-resize_3-target.png,250,2.9415,6,4077,249,feet,jsons/v1_VE250_randls_56.json,2102084,2212920,57,Man
95,750531,DepthScenes,duration_manipulation_targetAtFixation,jsons/v1_VE250_randls_56.json,http://54.235.29.9/FacialAge/BNav_EC2/DepthDuration/v2_depth_duration_MTurk/v2_DepthDuration_HTML.html#423,423,1366,625,1366,768,9-3-2022,13-49-6,96,depth_duration_stimuli/000943_2014-06-09_19-31-07_260595134347_rgbf000128-resize_1/000943_2014-06-09_19-31-07_260595134347_rgbf000128-resize_1-target.png,250,1.9765,8,28710,251,feet,jsons/v1_VE250_randls_56.json,2102084,2212920,57,Man
96,750531,DepthScenes,duration_manipulation_targetAtFixation,jsons/v1_VE250_randls_56.json,http://54.235.29.9/FacialAge/BNav_EC2/DepthDuration/v2_depth_duration_MTurk/v2_DepthDuration_HTML.html#423,423,1366,625,1366,768,9-3-2022,13-49-6,97,depth_duration_stimuli/002989_2014-06-15_12-25-03_094959634447_rgbf000150-resize_3/002989_2014-06-15_12-25-03_094959634447_rgbf000150-resize_3-target.png,250,4.1975,12,2977,250,feet,jsons/v1_VE250_randls_56.json,2102084,2212920,57,Man
97,750531,DepthScenes,duration_manipulation_targetAtFixation,jsons/v1_VE250_randls_56.json,http://54.235.29.9/FacialAge/BNav_EC2/DepthDuration/v2_depth_duration_MTurk/v2_DepthDuration_HTML.html#423,423,1366,625,1366,768,9-3-2022,13-49-6,98,depth_duration_stimuli/000866_2014-06-09_20-45-42_260595134347_rgbf000139-resize_1/000866_2014-06-09_20-45-42_260595134347_rgbf000139-resize_1-target.png,250,3.2155,5,2579,250,feet,jsons/v1_VE250_randls_56.json,2102084,2212920,57,Man
98,750531,DepthScenes,duration_manipulation_targetAtFixation,jsons/v1_VE250_randls_56.json,http://54.235.29.9/FacialAge/BNav_EC2/DepthDuration/v2_depth_duration_MTurk/v2_DepthDuration_HTML.html#423,423,1366,625,1366,768,9-3-2022,13-49-6,99,depth_duration_stimuli/001540_2014-06-20_17-01-05_260595134347_rgbf000086-resize_2/001540_2014-06-20_17-01-05_260595134347_rgbf000086-resize-original.jpg,250,1.459,6,3817,250,feet,jsons/v1_VE250_randls_56.json,2102084,2212920,57,Man
99,750531,DepthScenes,duration_manipulation_targetAtFixation,jsons/v1_VE250_randls_56.json,http://54.235.29.9/FacialAge/BNav_EC2/DepthDuration/v2_depth_duration_MTurk/v2_DepthDuration_HTML.html#423,423,1366,625,1366,768,9-3-2022,13-49-6,100,depth_duration_stimuli/002279_2014-06-28_18-55-32_260595134347_rgbf000040-resize_5/002279_2014-06-28_18-55-32_260595134347_rgbf000040-resize_5-target.png,250,1.5043333333333,6,35943,251,feet,jsons/v1_VE250_randls_56.json,2102084,2212920,57,Man
100,750531,DepthScenes,duration_manipulation_targetAtFixation,jsons/v1_VE250_randls_56.json,http://54.235.29.9/FacialAge/BNav_EC2/DepthDuration/v2_depth_duration_MTurk/v2_DepthDuration_HTML.html#423,423,1366,625,1366,768,9-3-2022,13-49-6,101,depth_duration_stimuli/000635_2014-06-08_16-38-42_260595134347_rgbf000106-resize_1/000635_2014-06-08_16-38-42_260595134347_rgbf000106-resize_1-target.png,250,2.074,6,2538,248,feet,jsons/v1_VE250_randls_56.json,2102084,2212920,57,Man
101,750531,DepthScenes,duration_manipulation_targetAtFixation,jsons/v1_VE250_randls_56.json,http://54.235.29.9/FacialAge/BNav_EC2/DepthDuration/v2_depth_duration_MTurk/v2_DepthDuration_HTML.html#423,423,1366,625,1366,768,9-3-2022,13-49-6,102,depth_duration_stimuli/001164_2014-06-17_15-35-46_260595134347_rgbf000085-resize_3/001164_2014-06-17_15-35-46_260595134347_rgbf000085-resize_3-target.png,250,2.354,8,2890,251,feet,jsons/v1_VE250_randls_56.json,2102084,2212920,57,Man
102,750531,DepthScenes,duration_manipulation_targetAtFixation,jsons/v1_VE250_randls_56.json,http://54.235.29.9/FacialAge/BNav_EC2/DepthDuration/v2_depth_duration_MTurk/v2_DepthDuration_HTML.html#423,423,1366,625,1366,768,9-3-2022,13-49-6,103,depth_duration_stimuli/001136_2014-06-17_15-19-41_260595134347_rgbf000076-resize_3/001136_2014-06-17_15-19-41_260595134347_rgbf000076-resize_3-target.png,250,1.8655,6,2561,250,feet,jsons/v1_VE250_randls_56.json,2102084,2212920,57,Man
103,750531,DepthScenes,duration_manipulation_targetAtFixation,jsons/v1_VE250_randls_56.json,http://54.235.29.9/FacialAge/BNav_EC2/DepthDuration/v2_depth_duration_MTurk/v2_DepthDuration_HTML.html#423,423,1366,625,1366,768,9-3-2022,13-49-6,104,depth_duration_stimuli/000682_2014-06-08_23-14-58_260595134347_rgbf000041-resize_5/000682_2014-06-08_23-14-58_260595134347_rgbf000041-resize_5-target.png,250,2.7239999999999998,12,3210,250,feet,jsons/v1_VE250_randls_56.json,2102084,2212920,57,Man
104,750531,DepthScenes,duration_manipulation_targetAtFixation,jsons/v1_VE250_randls_56.json,http://54.235.29.9/FacialAge/BNav_EC2/DepthDuration/v2_depth_duration_MTurk/v2_DepthDuration_HTML.html#423,423,1366,625,1366,768,9-3-2022,13-49-6,105,depth_duration_stimuli/001650_2014-06-20_12-09-00_260595134347_rgbf000087-resize_3/001650_2014-06-20_12-09-00_260595134347_rgbf000087-resize_3-target.png,250,1.9505,7,3789,250,feet,jsons/v1_VE250_randls_56.json,2102084,2212920,57,Man
105,750531,DepthScenes,duration_manipulation_targetAtFixation,jsons/v1_VE250_randls_56.json,http://54.235.29.9/FacialAge/BNav_EC2/DepthDuration/v2_depth_duration_MTurk/v2_DepthDuration_HTML.html#423,423,1366,625,1366,768,9-3-2022,13-49-6,106,depth_duration_stimuli/001150_2014-06-17_15-27-34_260595134347_rgbf000108-resize_2/001150_2014-06-17_15-27-34_260595134347_rgbf000108-resize_2-target.png,250,4.0325,8,3088,250,feet,jsons/v1_VE250_randls_56.json,2102084,2212920,57,Man
106,750531,DepthScenes,duration_manipulation_targetAtFixation,jsons/v1_VE250_randls_56.json,http://54.235.29.9/FacialAge/BNav_EC2/DepthDuration/v2_depth_duration_MTurk/v2_DepthDuration_HTML.html#423,423,1366,625,1366,768,9-3-2022,13-49-6,107,depth_duration_stimuli/000665_2014-06-09_20-42-35_260595134347_rgbf000110-resize_1/000665_2014-06-09_20-42-35_260595134347_rgbf000110-resize_1-target.png,250,3.057,9,3720,251,feet,jsons/v1_VE250_randls_56.json,2102084,2212920,57,Man
107,750531,DepthScenes,duration_manipulation_targetAtFixation,jsons/v1_VE250_randls_56.json,http://54.235.29.9/FacialAge/BNav_EC2/DepthDuration/v2_depth_duration_MTurk/v2_DepthDuration_HTML.html#423,423,1366,625,1366,768,9-3-2022,13-49-6,108,depth_duration_stimuli/001175_2014-06-17_15-45-55_260595134347_rgbf000129-resize_4/001175_2014-06-17_15-45-55_260595134347_rgbf000129-resize_4-target.png,250,4.255,7,32188,251,feet,jsons/v1_VE250_randls_56.json,2102084,2212920,57,Man
108,750531,DepthScenes,duration_manipulation_targetAtFixation,jsons/v1_VE250_randls_56.json,http://54.235.29.9/FacialAge/BNav_EC2/DepthDuration/v2_depth_duration_MTurk/v2_DepthDuration_HTML.html#423,423,1366,625,1366,768,9-3-2022,13-49-6,109,depth_duration_stimuli/003490_2014-05-21_15-50-11_094959634447_rgbf000101-resize_3/003490_2014-05-21_15-50-11_094959634447_rgbf000101-resize_3-target.png,250,3.6445,8,5059,251,feet,jsons/v1_VE250_randls_56.json,2102084,2212920,57,Man
109,750531,DepthScenes,duration_manipulation_targetAtFixation,jsons/v1_VE250_randls_56.json,http://54.235.29.9/FacialAge/BNav_EC2/DepthDuration/v2_depth_duration_MTurk/v2_DepthDuration_HTML.html#423,423,1366,625,1366,768,9-3-2022,13-49-6,110,depth_duration_stimuli/001244_2014-06-17_16-47-45_260595134347_rgbf000030-resize_4/001244_2014-06-17_16-47-45_260595134347_rgbf000030-resize_4-target.png,250,2.0425,6,2839,250,feet,jsons/v1_VE250_randls_56.json,2102084,2212920,57,Man
110,750531,DepthScenes,duration_manipulation_targetAtFixation,jsons/v1_VE250_randls_56.json,http://54.235.29.9/FacialAge/BNav_EC2/DepthDuration/v2_depth_duration_MTurk/v2_DepthDuration_HTML.html#423,423,1366,625,1366,768,9-3-2022,13-49-6,111,depth_duration_stimuli/003495_2014-05-21_16-01-51_094959634447_rgbf000100-resize_3/003495_2014-05-21_16-01-51_094959634447_rgbf000100-resize_3-target.png,250,1.6255,8,3678,250,feet,jsons/v1_VE250_randls_56.json,2102084,2212920,57,Man
111,750531,DepthScenes,duration_manipulation_targetAtFixation,jsons/v1_VE250_randls_56.json,http://54.235.29.9/FacialAge/BNav_EC2/DepthDuration/v2_depth_duration_MTurk/v2_DepthDuration_HTML.html#423,423,1366,625,1366,768,9-3-2022,13-49-6,112,depth_duration_stimuli/000773_2014-06-08_22-24-54_260595134347_rgbf000093-resize_1/000773_2014-06-08_22-24-54_260595134347_rgbf000093-resize_1-target.png,250,4.973,8,3389,251,feet,jsons/v1_VE250_randls_56.json,2102084,2212920,57,Man
112,750531,DepthScenes,duration_manipulation_targetAtFixation,jsons/v1_VE250_randls_56.json,http://54.235.29.9/FacialAge/BNav_EC2/DepthDuration/v2_depth_duration_MTurk/v2_DepthDuration_HTML.html#423,423,1366,625,1366,768,9-3-2022,13-49-6,113,depth_duration_stimuli/002414_2014-06-28_20-24-58_260595134347_rgbf000067-resize_4/002414_2014-06-28_20-24-58_260595134347_rgbf000067-resize_4-target.png,250,4.363,7,2881,250,feet,jsons/v1_VE250_randls_56.json,2102084,2212920,57,Man
113,750531,DepthScenes,duration_manipulation_targetAtFixation,jsons/v1_VE250_randls_56.json,http://54.235.29.9/FacialAge/BNav_EC2/DepthDuration/v2_depth_duration_MTurk/v2_DepthDuration_HTML.html#423,423,1366,625,1366,768,9-3-2022,13-49-6,114,depth_duration_stimuli/000736_2014-06-08_18-24-15_260595134347_rgbf000206-resize_3/000736_2014-06-08_18-24-15_260595134347_rgbf000206-resize_3-target.png,250,3.515,6,2593,249,feet,jsons/v1_VE250_randls_56.json,2102084,2212920,57,Man
114,750531,DepthScenes,duration_manipulation_targetAtFixation,jsons/v1_VE250_randls_56.json,http://54.235.29.9/FacialAge/BNav_EC2/DepthDuration/v2_depth_duration_MTurk/v2_DepthDuration_HTML.html#423,423,1366,625,1366,768,9-3-2022,13-49-6,115,depth_duration_stimuli/000137_2014-05-20_17-04-49_260595134347_rgbf000120-resize_1/000137_2014-05-20_17-04-49_260595134347_rgbf000120-resize_1-target.png,250,3.786,12,2691,249,feet,jsons/v1_VE250_randls_56.json,2102084,2212920,57,Man
115,750531,DepthScenes,duration_manipulation_targetAtFixation,jsons/v1_VE250_randls_56.json,http://54.235.29.9/FacialAge/BNav_EC2/DepthDuration/v2_depth_duration_MTurk/v2_DepthDuration_HTML.html#423,423,1366,625,1366,768,9-3-2022,13-49-6,116,depth_duration_stimuli/001170_2014-06-17_15-43-44_260595134347_rgbf000096-resize_6/001170_2014-06-17_15-43-44_260595134347_rgbf000096-resize-original.jpg,250,1.1909999999999998,8,3146,248,feet,jsons/v1_VE250_randls_56.json,2102084,2212920,57,Man
116,750531,DepthScenes,duration_manipulation_targetAtFixation,jsons/v1_VE250_randls_56.json,http://54.235.29.9/FacialAge/BNav_EC2/DepthDuration/v2_depth_duration_MTurk/v2_DepthDuration_HTML.html#423,423,1366,625,1366,768,9-3-2022,13-49-6,117,depth_duration_stimuli/001092_2014-06-15_17-34-58_260595134347_rgbf000171-resize_3/001092_2014-06-15_17-34-58_260595134347_rgbf000171-resize_3-target.png,250,2.6935,5,5124,247,feet,jsons/v1_VE250_randls_56.json,2102084,2212920,57,Man
117,750531,DepthScenes,duration_manipulation_targetAtFixation,jsons/v1_VE250_randls_56.json,http://54.235.29.9/FacialAge/BNav_EC2/DepthDuration/v2_depth_duration_MTurk/v2_DepthDuration_HTML.html#423,423,1366,625,1366,768,9-3-2022,13-49-6,118,depth_duration_stimuli/002545_2014-06-24_13-38-53_094959634447_rgbf000080-resize_4/002545_2014-06-24_13-38-53_094959634447_rgbf000080-resize_4-target.png,250,1.9205,6,2448,249,feet,jsons/v1_VE250_randls_56.json,2102084,2212920,57,Man
118,750531,DepthScenes,duration_manipulation_targetAtFixation,jsons/v1_VE250_randls_56.json,http://54.235.29.9/FacialAge/BNav_EC2/DepthDuration/v2_depth_duration_MTurk/v2_DepthDuration_HTML.html#423,423,1366,625,1366,768,9-3-2022,13-49-6,119,depth_duration_stimuli/002788_2014-06-22_19-36-03_094959634447_rgbf000088-resize_2/002788_2014-06-22_19-36-03_094959634447_rgbf000088-resize_2-target.png,250,1.6465,4,3437,249,feet,jsons/v1_VE250_randls_56.json,2102084,2212920,57,Man
119,750531,DepthScenes,duration_manipulation_targetAtFixation,jsons/v1_VE250_randls_56.json,http://54.235.29.9/FacialAge/BNav_EC2/DepthDuration/v2_depth_duration_MTurk/v2_DepthDuration_HTML.html#423,423,1366,625,1366,768,9-3-2022,13-49-6,120,depth_duration_stimuli/000749_2014-06-08_21-55-06_260595134347_rgbf000070-resize_2/000749_2014-06-08_21-55-06_260595134347_rgbf000070-resize_2-target.png,250,2.331,6,2808,249,feet,jsons/v1_VE250_randls_56.json,2102084,2212920,57,Man
120,750531,DepthScenes,duration_manipulation_targetAtFixation,jsons/v1_VE250_randls_56.json,http://54.235.29.9/FacialAge/BNav_EC2/DepthDuration/v2_depth_duration_MTurk/v2_DepthDuration_HTML.html#423,423,1366,625,1366,768,9-3-2022,13-49-6,121,depth_duration_stimuli/002988_2014-06-15_12-24-20_094959634447_rgbf000150-resize_1/002988_2014-06-15_12-24-20_094959634447_rgbf000150-resize_1-target.png,250,4.7669999999999995,6,2710,249,feet,jsons/v1_VE250_randls_56.json,2102084,2212920,57,Man
121,750531,DepthScenes,duration_manipulation_targetAtFixation,jsons/v1_VE250_randls_56.json,http://54.235.29.9/FacialAge/BNav_EC2/DepthDuration/v2_depth_duration_MTurk/v2_DepthDuration_HTML.html#423,423,1366,625,1366,768,9-3-2022,13-49-6,122,depth_duration_stimuli/001052_2014-06-08_18-24-54_260595134347_rgbf000130-resize_1/001052_2014-06-08_18-24-54_260595134347_rgbf000130-resize_1-target.png,250,4.1045,6,2496,249,feet,jsons/v1_VE250_randls_56.json,2102084,2212920,57,Man
122,750531,DepthScenes,duration_manipulation_targetAtFixation,jsons/v1_VE250_randls_56.json,http://54.235.29.9/FacialAge/BNav_EC2/DepthDuration/v2_depth_duration_MTurk/v2_DepthDuration_HTML.html#423,423,1366,625,1366,768,9-3-2022,13-49-6,123,depth_duration_stimuli/000739_2014-06-08_18-45-58_260595134347_rgbf000068-resize_1/000739_2014-06-08_18-45-58_260595134347_rgbf000068-resize_1-target.png,250,3.534,7,2620,250,feet,jsons/v1_VE250_randls_56.json,2102084,2212920,57,Man
123,750531,DepthScenes,duration_manipulation_targetAtFixation,jsons/v1_VE250_randls_56.json,http://54.235.29.9/FacialAge/BNav_EC2/DepthDuration/v2_depth_duration_MTurk/v2_DepthDuration_HTML.html#423,423,1366,625,1366,768,9-3-2022,13-49-6,124,depth_duration_stimuli/000734_2014-06-08_17-39-11_260595134347_rgbf000128-resize_2/000734_2014-06-08_17-39-11_260595134347_rgbf000128-resize_2-target.png,250,4.098,7,2970,249,feet,jsons/v1_VE250_randls_56.json,2102084,2212920,57,Man
124,750531,DepthScenes,duration_manipulation_targetAtFixation,jsons/v1_VE250_randls_56.json,http://54.235.29.9/FacialAge/BNav_EC2/DepthDuration/v2_depth_duration_MTurk/v2_DepthDuration_HTML.html#423,423,1366,625,1366,768,9-3-2022,13-49-6,125,depth_duration_stimuli/002600_2014-06-24_14-27-04_094959634447_rgbf000074-resize_2/002600_2014-06-24_14-27-04_094959634447_rgbf000074-resize_2-target.png,250,2.7575,8,2741,252,feet,jsons/v1_VE250_randls_56.json,2102084,2212920,57,Man
125,750531,DepthScenes,duration_manipulation_targetAtFixation,jsons/v1_VE250_randls_56.json,http://54.235.29.9/FacialAge/BNav_EC2/DepthDuration/v2_depth_duration_MTurk/v2_DepthDuration_HTML.html#423,423,1366,625,1366,768,9-3-2022,13-49-6,126,depth_duration_stimuli/003228_2014-05-14_13-42-35_094959634447_rgbf000101-resize_1/003228_2014-05-14_13-42-35_094959634447_rgbf000101-resize_1-target.png,250,1.9680000000000002,2,2316,250,feet,jsons/v1_VE250_randls_56.json,2102084,2212920,57,Man
126,750531,DepthScenes,duration_manipulation_targetAtFixation,jsons/v1_VE250_randls_56.json,http://54.235.29.9/FacialAge/BNav_EC2/DepthDuration/v2_depth_duration_MTurk/v2_DepthDuration_HTML.html#423,423,1366,625,1366,768,9-3-2022,13-49-6,127,depth_duration_stimuli/002663_2014-06-13_15-50-26_094959634447_rgbf000075-resize_1/002663_2014-06-13_15-50-26_094959634447_rgbf000075-resize_1-target.png,250,4.7495,5,2487,250,feet,jsons/v1_VE250_randls_56.json,2102084,2212920,57,Man
127,750531,DepthScenes,duration_manipulation_targetAtFixation,jsons/v1_VE250_randls_56.json,http://54.235.29.9/FacialAge/BNav_EC2/DepthDuration/v2_depth_duration_MTurk/v2_DepthDuration_HTML.html#423,423,1366,625,1366,768,9-3-2022,13-49-6,128,depth_duration_stimuli/000409_2014-06-04_19-23-33_260595134347_rgbf000067-resize_0/000409_2014-06-04_19-23-33_260595134347_rgbf000067-resize_0-target.png,250,3.7335,6,2648,249,feet,jsons/v1_VE250_randls_56.json,2102084,2212920,57,Man
128,750531,DepthScenes,duration_manipulation_targetAtFixation,jsons/v1_VE250_randls_56.json,http://54.235.29.9/FacialAge/BNav_EC2/DepthDuration/v2_depth_duration_MTurk/v2_DepthDuration_HTML.html#423,423,1366,625,1366,768,9-3-2022,13-49-6,129,depth_duration_stimuli/001449_2014-06-19_17-01-27_260595134347_rgbf000116-resize_2/001449_2014-06-19_17-01-27_260595134347_rgbf000116-resize_2-target.png,250,3.452,4,2807,248,feet,jsons/v1_VE250_randls_56.json,2102084,2212920,57,Man
129,750531,DepthScenes,duration_manipulation_targetAtFixation,jsons/v1_VE250_randls_56.json,http://54.235.29.9/FacialAge/BNav_EC2/DepthDuration/v2_depth_duration_MTurk/v2_DepthDuration_HTML.html#423,423,1366,625,1366,768,9-3-2022,13-49-6,130,depth_duration_stimuli/001450_2014-06-19_17-02-03_260595134347_rgbf000203-resize_4/001450_2014-06-19_17-02-03_260595134347_rgbf000203-resize_4-target.png,250,4.0106666666667,6,2539,251,feet,jsons/v1_VE250_randls_56.json,2102084,2212920,57,Man
130,750531,DepthScenes,duration_manipulation_targetAtFixation,jsons/v1_VE250_randls_56.json,http://54.235.29.9/FacialAge/BNav_EC2/DepthDuration/v2_depth_duration_MTurk/v2_DepthDuration_HTML.html#423,423,1366,625,1366,768,9-3-2022,13-49-6,131,depth_duration_stimuli/002570_2014-06-24_13-59-54_094959634447_rgbf000059-resize_0/002570_2014-06-24_13-59-54_094959634447_rgbf000059-resize_0-target.png,250,4.037,4,2860,251,feet,jsons/v1_VE250_randls_56.json,2102084,2212920,57,Man
131,750531,DepthScenes,duration_manipulation_targetAtFixation,jsons/v1_VE250_randls_56.json,http://54.235.29.9/FacialAge/BNav_EC2/DepthDuration/v2_depth_duration_MTurk/v2_DepthDuration_HTML.html#423,423,1366,625,1366,768,9-3-2022,13-49-6,132,depth_duration_stimuli/002467_2014-06-28_20-38-07_260595134347_rgbf000026-resize_2/002467_2014-06-28_20-38-07_260595134347_rgbf000026-resize_2-target.png,250,4.742,6,2417,250,feet,jsons/v1_VE250_randls_56.json,2102084,2212920,57,Man
132,750531,DepthScenes,duration_manipulation_targetAtFixation,jsons/v1_VE250_randls_56.json,http://54.235.29.9/FacialAge/BNav_EC2/DepthDuration/v2_depth_duration_MTurk/v2_DepthDuration_HTML.html#423,423,1366,625,1366,768,9-3-2022,13-49-6,133,depth_duration_stimuli/000506_2014-06-08_23-21-00_260595134347_rgbf000070-resize_7/000506_2014-06-08_23-21-00_260595134347_rgbf000070-resize_7-target.png,250,4.0585,5,2647,249,feet,jsons/v1_VE250_randls_56.json,2102084,2212920,57,Man
133,750531,DepthScenes,duration_manipulation_targetAtFixation,jsons/v1_VE250_randls_56.json,http://54.235.29.9/FacialAge/BNav_EC2/DepthDuration/v2_depth_duration_MTurk/v2_DepthDuration_HTML.html#423,423,1366,625,1366,768,9-3-2022,13-49-6,134,depth_duration_stimuli/003079_2014-06-15_15-18-20_094959634447_rgbf000152-resize_8/003079_2014-06-15_15-18-20_094959634447_rgbf000152-resize_8-target.png,250,2.8775,8,2978,250,feet,jsons/v1_VE250_randls_56.json,2102084,2212920,57,Man
134,750531,DepthScenes,duration_manipulation_targetAtFixation,jsons/v1_VE250_randls_56.json,http://54.235.29.9/FacialAge/BNav_EC2/DepthDuration/v2_depth_duration_MTurk/v2_DepthDuration_HTML.html#423,423,1366,625,1366,768,9-3-2022,13-49-6,135,depth_duration_stimuli/002072_2014-06-24_21-48-06_260595134347_rgbf000115-resize_0/002072_2014-06-24_21-48-06_260595134347_rgbf000115-resize-original.jpg,250,4.702,6,4568,249,feet,jsons/v1_VE250_randls_56.json,2102084,2212920,57,Man
135,750531,DepthScenes,duration_manipulation_targetAtFixation,jsons/v1_VE250_randls_56.json,http://54.235.29.9/FacialAge/BNav_EC2/DepthDuration/v2_depth_duration_MTurk/v2_DepthDuration_HTML.html#423,423,1366,625,1366,768,9-3-2022,13-49-6,136,depth_duration_stimuli/000522_2014-06-08_13-35-06_260595134347_rgbf000244-resize_1/000522_2014-06-08_13-35-06_260595134347_rgbf000244-resize_1-target.png,250,2.3715,4,3282,249,feet,jsons/v1_VE250_randls_56.json,2102084,2212920,57,Man
136,750531,DepthScenes,duration_manipulation_targetAtFixation,jsons/v1_VE250_randls_56.json,http://54.235.29.9/FacialAge/BNav_EC2/DepthDuration/v2_depth_duration_MTurk/v2_DepthDuration_HTML.html#423,423,1366,625,1366,768,9-3-2022,13-49-6,137,depth_duration_stimuli/002949_2014-06-26_15-57-42_094959634447_rgbf000079-resize_1/002949_2014-06-26_15-57-42_094959634447_rgbf000079-resize_1-target.png,250,1.8915,6,3217,249,feet,jsons/v1_VE250_randls_56.json,2102084,2212920,57,Man
137,750531,DepthScenes,duration_manipulation_targetAtFixation,jsons/v1_VE250_randls_56.json,http://54.235.29.9/FacialAge/BNav_EC2/DepthDuration/v2_depth_duration_MTurk/v2_DepthDuration_HTML.html#423,423,1366,625,1366,768,9-3-2022,13-49-6,138,depth_duration_stimuli/000436_2014-06-09_22-25-11_260595134347_rgbf000137-resize_1/000436_2014-06-09_22-25-11_260595134347_rgbf000137-resize_1-target.png,250,4.0705,13,3375,249,feet,jsons/v1_VE250_randls_56.json,2102084,2212920,57,Man
138,750531,DepthScenes,duration_manipulation_targetAtFixation,jsons/v1_VE250_randls_56.json,http://54.235.29.9/FacialAge/BNav_EC2/DepthDuration/v2_depth_duration_MTurk/v2_DepthDuration_HTML.html#423,423,1366,625,1366,768,9-3-2022,13-49-6,139,depth_duration_stimuli/002444_2014-06-28_20-32-08_260595134347_rgbf000027-resize_0/002444_2014-06-28_20-32-08_260595134347_rgbf000027-resize_0-target.png,250,4.388999999999999,6,2588,249,feet,jsons/v1_VE250_randls_56.json,2102084,2212920,57,Man
139,750531,DepthScenes,duration_manipulation_targetAtFixation,jsons/v1_VE250_randls_56.json,http://54.235.29.9/FacialAge/BNav_EC2/DepthDuration/v2_depth_duration_MTurk/v2_DepthDuration_HTML.html#423,423,1366,625,1366,768,9-3-2022,13-49-6,140,depth_duration_stimuli/001570_2014-06-20_17-21-09_260595134347_rgbf000135-resize_4/001570_2014-06-20_17-21-09_260595134347_rgbf000135-resize_4-target.png,250,4.467,5,2900,250,feet,jsons/v1_VE250_randls_56.json,2102084,2212920,57,Man
140,750531,DepthScenes,duration_manipulation_targetAtFixation,jsons/v1_VE250_randls_56.json,http://54.235.29.9/FacialAge/BNav_EC2/DepthDuration/v2_depth_duration_MTurk/v2_DepthDuration_HTML.html#423,423,1366,625,1366,768,9-3-2022,13-49-6,141,depth_duration_stimuli/001392_2014-06-19_16-07-59_260595134347_rgbf000046-resize_1/001392_2014-06-19_16-07-59_260595134347_rgbf000046-resize_1-target.png,250,4.135,6,2578,249,feet,jsons/v1_VE250_randls_56.json,2102084,2212920,57,Man
141,750531,DepthScenes,duration_manipulation_targetAtFixation,jsons/v1_VE250_randls_56.json,http://54.235.29.9/FacialAge/BNav_EC2/DepthDuration/v2_depth_duration_MTurk/v2_DepthDuration_HTML.html#423,423,1366,625,1366,768,9-3-2022,13-49-6,142,depth_duration_stimuli/002043_2014-06-24_20-29-38_260595134347_rgbf000039-resize_4/002043_2014-06-24_20-29-38_260595134347_rgbf000039-resize_4-target.png,250,2.8435,7,2729,248,feet,jsons/v1_VE250_randls_56.json,2102084,2212920,57,Man
142,750531,DepthScenes,duration_manipulation_targetAtFixation,jsons/v1_VE250_randls_56.json,http://54.235.29.9/FacialAge/BNav_EC2/DepthDuration/v2_depth_duration_MTurk/v2_DepthDuration_HTML.html#423,423,1366,625,1366,768,9-3-2022,13-49-6,143,depth_duration_stimuli/003048_2014-06-15_13-49-43_094959634447_rgbf000150-resize_1/003048_2014-06-15_13-49-43_094959634447_rgbf000150-resize_1-target.png,250,4.0035,7,3107,250,feet,jsons/v1_VE250_randls_56.json,2102084,2212920,57,Man
143,750531,DepthScenes,duration_manipulation_targetAtFixation,jsons/v1_VE250_randls_56.json,http://54.235.29.9/FacialAge/BNav_EC2/DepthDuration/v2_depth_duration_MTurk/v2_DepthDuration_HTML.html#423,423,1366,625,1366,768,9-3-2022,13-49-6,144,depth_duration_stimuli/003621_2014-05-23_18-06-08_094959634447_rgbf000101-resize_1/003621_2014-05-23_18-06-08_094959634447_rgbf000101-resize_1-target.png,250,3.9835,6,2483,250,feet,jsons/v1_VE250_randls_56.json,2102084,2212920,57,Man
144,750531,DepthScenes,duration_manipulation_targetAtFixation,jsons/v1_VE250_randls_56.json,http://54.235.29.9/FacialAge/BNav_EC2/DepthDuration/v2_depth_duration_MTurk/v2_DepthDuration_HTML.html#423,423,1366,625,1366,768,9-3-2022,13-49-6,145,depth_duration_stimuli/001584_2014-06-20_11-07-43_260595134347_rgbf000002-resize_1/001584_2014-06-20_11-07-43_260595134347_rgbf000002-resize_1-target.png,250,3.53,5,2540,249,feet,jsons/v1_VE250_randls_56.json,2102084,2212920,57,Man
145,750531,DepthScenes,duration_manipulation_targetAtFixation,jsons/v1_VE250_randls_56.json,http://54.235.29.9/FacialAge/BNav_EC2/DepthDuration/v2_depth_duration_MTurk/v2_DepthDuration_HTML.html#423,423,1366,625,1366,768,9-3-2022,13-49-6,146,depth_duration_stimuli/001498_2014-06-19_17-45-14_260595134347_rgbf000129-resize_4/001498_2014-06-19_17-45-14_260595134347_rgbf000129-resize-original.jpg,250,1.4075,6,173702,247,feet,jsons/v1_VE250_randls_56.json,2102084,2212920,57,Man
146,750531,DepthScenes,duration_manipulation_targetAtFixation,jsons/v1_VE250_randls_56.json,http://54.235.29.9/FacialAge/BNav_EC2/DepthDuration/v2_depth_duration_MTurk/v2_DepthDuration_HTML.html#423,423,1366,625,1366,768,9-3-2022,13-49-6,147,depth_duration_stimuli/001066_2014-06-08_22-03-20_260595134347_rgbf000066-resize_4/001066_2014-06-08_22-03-20_260595134347_rgbf000066-resize_4-target.png,250,4.2330000000000005,7,6858,249,feet,jsons/v1_VE250_randls_56.json,2102084,2212920,57,Man
147,750531,DepthScenes,duration_manipulation_targetAtFixation,jsons/v1_VE250_randls_56.json,http://54.235.29.9/FacialAge/BNav_EC2/DepthDuration/v2_depth_duration_MTurk/v2_DepthDuration_HTML.html#423,423,1366,625,1366,768,9-3-2022,13-49-6,148,depth_duration_stimuli/000742_2014-06-08_18-48-09_260595134347_rgbf000164-resize_4/000742_2014-06-08_18-48-09_260595134347_rgbf000164-resize_4-target.png,250,4.632,5,3918,249,feet,jsons/v1_VE250_randls_56.json,2102084,2212920,57,Man
148,750531,DepthScenes,duration_manipulation_targetAtFixation,jsons/v1_VE250_randls_56.json,http://54.235.29.9/FacialAge/BNav_EC2/DepthDuration/v2_depth_duration_MTurk/v2_DepthDuration_HTML.html#423,423,1366,625,1366,768,9-3-2022,13-49-6,149,depth_duration_stimuli/002725_2014-06-22_11-47-51_094959634447_rgbf000070-resize_1/002725_2014-06-22_11-47-51_094959634447_rgbf000070-resize_1-target.png,250,2.195,6,2559,250,feet,jsons/v1_VE250_randls_56.json,2102084,2212920,57,Man
149,750531,DepthScenes,duration_manipulation_targetAtFixation,jsons/v1_VE250_randls_56.json,http://54.235.29.9/FacialAge/BNav_EC2/DepthDuration/v2_depth_duration_MTurk/v2_DepthDuration_HTML.html#423,423,1366,625,1366,768,9-3-2022,13-49-6,150,depth_duration_stimuli/002344_2014-06-28_20-06-29_260595134347_rgbf000030-resize_1/002344_2014-06-28_20-06-29_260595134347_rgbf000030-resize_1-target.png,250,1.5795,6,2969,250,feet,jsons/v1_VE250_randls_56.json,2102084,2212920,57,Man
150,750531,DepthScenes,duration_manipulation_targetAtFixation,jsons/v1_VE250_randls_56.json,http://54.235.29.9/FacialAge/BNav_EC2/DepthDuration/v2_depth_duration_MTurk/v2_DepthDuration_HTML.html#423,423,1366,625,1366,768,9-3-2022,13-49-6,151,depth_duration_stimuli/002509_2014-06-24_13-19-22_094959634447_rgbf000077-resize_0/002509_2014-06-24_13-19-22_094959634447_rgbf000077-resize_0-target.png,250,1.3065,3,2437,250,feet,jsons/v1_VE250_randls_56.json,2102084,2212920,57,Man
151,750531,DepthScenes,duration_manipulation_targetAtFixation,jsons/v1_VE250_randls_56.json,http://54.235.29.9/FacialAge/BNav_EC2/DepthDuration/v2_depth_duration_MTurk/v2_DepthDuration_HTML.html#423,423,1366,625,1366,768,9-3-2022,13-49-6,152,depth_duration_stimuli/003338_2014-05-20_11-01-23_094959634447_rgbf000051-resize_6/003338_2014-05-20_11-01-23_094959634447_rgbf000051-resize_6-target.png,250,1.693,5,2538,250,feet,jsons/v1_VE250_randls_56.json,2102084,2212920,57,Man
152,750531,DepthScenes,duration_manipulation_targetAtFixation,jsons/v1_VE250_randls_56.json,http://54.235.29.9/FacialAge/BNav_EC2/DepthDuration/v2_depth_duration_MTurk/v2_DepthDuration_HTML.html#423,423,1366,625,1366,768,9-3-2022,13-49-6,153,depth_duration_stimuli/001808_2014-06-26_20-50-58_260595134347_rgbf000029-resize_1/001808_2014-06-26_20-50-58_260595134347_rgbf000029-resize_1-target.png,250,4.249,7,2986,250,feet,jsons/v1_VE250_randls_56.json,2102084,2212920,57,Man
153,750531,DepthScenes,duration_manipulation_targetAtFixation,jsons/v1_VE250_randls_56.json,http://54.235.29.9/FacialAge/BNav_EC2/DepthDuration/v2_depth_duration_MTurk/v2_DepthDuration_HTML.html#423,423,1366,625,1366,768,9-3-2022,13-49-6,154,depth_duration_stimuli/001815_2014-06-26_20-52-55_260595134347_rgbf000020-resize_0/001815_2014-06-26_20-52-55_260595134347_rgbf000020-resize_0-target.png,250,3.3865,5,2603,251,feet,jsons/v1_VE250_randls_56.json,2102084,2212920,57,Man
154,750531,DepthScenes,duration_manipulation_targetAtFixation,jsons/v1_VE250_randls_56.json,http://54.235.29.9/FacialAge/BNav_EC2/DepthDuration/v2_depth_duration_MTurk/v2_DepthDuration_HTML.html#423,423,1366,625,1366,768,9-3-2022,13-49-6,155,depth_duration_stimuli/000368_2014-06-09_15-53-01_260595134347_rgbf000155-resize_2/000368_2014-06-09_15-53-01_260595134347_rgbf000155-resize_2-target.png,250,2.4859999999999998,6,2804,250,feet,jsons/v1_VE250_randls_56.json,2102084,2212920,57,Man
155,750531,DepthScenes,duration_manipulation_targetAtFixation,jsons/v1_VE250_randls_56.json,http://54.235.29.9/FacialAge/BNav_EC2/DepthDuration/v2_depth_duration_MTurk/v2_DepthDuration_HTML.html#423,423,1366,625,1366,768,9-3-2022,13-49-6,156,depth_duration_stimuli/002678_2014-06-13_16-15-32_094959634447_rgbf000151-resize_6/002678_2014-06-13_16-15-32_094959634447_rgbf000151-resize_6-target.png,250,2.1830000000000003,4,2688,249,feet,jsons/v1_VE250_randls_56.json,2102084,2212920,57,Man
156,750531,DepthScenes,duration_manipulation_targetAtFixation,jsons/v1_VE250_randls_56.json,http://54.235.29.9/FacialAge/BNav_EC2/DepthDuration/v2_depth_duration_MTurk/v2_DepthDuration_HTML.html#423,423,1366,625,1366,768,9-3-2022,13-49-6,157,depth_duration_stimuli/001417_2014-06-19_16-25-36_260595134347_rgbf000115-resize_5/001417_2014-06-19_16-25-36_260595134347_rgbf000115-resize_5-target.png,250,4.6255,6,7459,249,feet,jsons/v1_VE250_randls_56.json,2102084,2212920,57,Man
157,750531,DepthScenes,duration_manipulation_targetAtFixation,jsons/v1_VE250_randls_56.json,http://54.235.29.9/FacialAge/BNav_EC2/DepthDuration/v2_depth_duration_MTurk/v2_DepthDuration_HTML.html#423,423,1366,625,1366,768,9-3-2022,13-49-6,158,depth_duration_stimuli/003081_2014-06-15_15-19-16_094959634447_rgbf000150-resize_1/003081_2014-06-15_15-19-16_094959634447_rgbf000150-resize_1-target.png,250,3.9125,5,2624,250,feet,jsons/v1_VE250_randls_56.json,2102084,2212920,57,Man
158,750531,DepthScenes,duration_manipulation_targetAtFixation,jsons/v1_VE250_randls_56.json,http://54.235.29.9/FacialAge/BNav_EC2/DepthDuration/v2_depth_duration_MTurk/v2_DepthDuration_HTML.html#423,423,1366,625,1366,768,9-3-2022,13-49-6,159,depth_duration_stimuli/000810_2014-06-08_17-20-01_260595134347_rgbf000105-resize_0/000810_2014-06-08_17-20-01_260595134347_rgbf000105-resize_0-target.png,250,1.4865,5,2558,250,feet,jsons/v1_VE250_randls_56.json,2102084,2212920,57,Man
159,750531,DepthScenes,duration_manipulation_targetAtFixation,jsons/v1_VE250_randls_56.json,http://54.235.29.9/FacialAge/BNav_EC2/DepthDuration/v2_depth_duration_MTurk/v2_DepthDuration_HTML.html#423,423,1366,625,1366,768,9-3-2022,13-49-6,160,depth_duration_stimuli/001214_2014-06-17_16-13-55_260595134347_rgbf000111-resize_0/001214_2014-06-17_16-13-55_260595134347_rgbf000111-resize_0-target.png,250,2.6505,6,2860,251,feet,jsons/v1_VE250_randls_56.json,2102084,2212920,57,Man
160,750531,DepthScenes,duration_manipulation_targetAtFixation,jsons/v1_VE250_randls_56.json,http://54.235.29.9/FacialAge/BNav_EC2/DepthDuration/v2_depth_duration_MTurk/v2_DepthDuration_HTML.html#423,423,1366,625,1366,768,9-3-2022,13-49-6,161,depth_duration_stimuli/003534_2014-05-22_15-06-10_094959634447_rgbf000102-resize_4/003534_2014-05-22_15-06-10_094959634447_rgbf000102-resize_4-target.png,250,1.426,4,2911,250,feet,jsons/v1_VE250_randls_56.json,2102084,2212920,57,Man
161,750531,DepthScenes,duration_manipulation_targetAtFixation,jsons/v1_VE250_randls_56.json,http://54.235.29.9/FacialAge/BNav_EC2/DepthDuration/v2_depth_duration_MTurk/v2_DepthDuration_HTML.html#423,423,1366,625,1366,768,9-3-2022,13-49-6,162,depth_duration_stimuli/002637_2014-06-24_14-51-13_094959634447_rgbf000066-resize_4/002637_2014-06-24_14-51-13_094959634447_rgbf000066-resize_4-target.png,250,1.9955,6,3006,250,feet,jsons/v1_VE250_randls_56.json,2102084,2212920,57,Man
162,750531,DepthScenes,duration_manipulation_targetAtFixation,jsons/v1_VE250_randls_56.json,http://54.235.29.9/FacialAge/BNav_EC2/DepthDuration/v2_depth_duration_MTurk/v2_DepthDuration_HTML.html#423,423,1366,625,1366,768,9-3-2022,13-49-6,163,depth_duration_stimuli/000906_2014-06-08_13-35-43_260595134347_rgbf000155-resize_1/000906_2014-06-08_13-35-43_260595134347_rgbf000155-resize_1-target.png,250,2.8489999999999998,8,3949,250,feet,jsons/v1_VE250_randls_56.json,2102084,2212920,57,Man
163,750531,DepthScenes,duration_manipulation_targetAtFixation,jsons/v1_VE250_randls_56.json,http://54.235.29.9/FacialAge/BNav_EC2/DepthDuration/v2_depth_duration_MTurk/v2_DepthDuration_HTML.html#423,423,1366,625,1366,768,9-3-2022,13-49-6,164,depth_duration_stimuli/002805_2014-06-22_19-54-03_094959634447_rgbf000079-resize_1/002805_2014-06-22_19-54-03_094959634447_rgbf000079-resize_1-target.png,250,3.1439999999999997,12,2610,250,feet,jsons/v1_VE250_randls_56.json,2102084,2212920,57,Man
