,subjID,experimentName,versionName,sequenceName,url,selected_row,windowWidth,windowHeight,screenWidth,screenHeight,startDate,startTime,trial,stimulus,duration,actual_depth,depth_estimate,trial_RT,log_sceneDuration,unitSelection,seq_filepath,experimentTime,totalTime,age,gender
0,750706,DepthScenes,duration_manipulation_targetAtFixation,jsons/v1_VE1000_randls_37.json,http://54.235.29.9/FacialAge/BNav_EC2/DepthDuration/v2_depth_duration_MTurk/v2_DepthDuration_HTML.html#11,11,1366,625,1366,768,8-22-2022,5-14-13,1,depth_duration_stimuli/002279_2014-06-28_18-55-32_260595134347_rgbf000040-resize_5/002279_2014-06-28_18-55-32_260595134347_rgbf000040-resize_5-target.png,1000,1.5043333333333,1,3250,1000,meters,jsons/v1_VE1000_randls_37.json,630927,817950,24,Woman
1,750706,DepthScenes,duration_manipulation_targetAtFixation,jsons/v1_VE1000_randls_37.json,http://54.235.29.9/FacialAge/BNav_EC2/DepthDuration/v2_depth_duration_MTurk/v2_DepthDuration_HTML.html#11,11,1366,625,1366,768,8-22-2022,5-14-13,2,depth_duration_stimuli/000635_2014-06-08_16-38-42_260595134347_rgbf000106-resize_1/000635_2014-06-08_16-38-42_260595134347_rgbf000106-resize_1-target.png,1000,2.074,1,2680,998,meters,jsons/v1_VE1000_randls_37.json,630927,817950,24,Woman
2,750706,DepthScenes,duration_manipulation_targetAtFixation,jsons/v1_VE1000_randls_37.json,http://54.235.29.9/FacialAge/BNav_EC2/DepthDuration/v2_depth_duration_MTurk/v2_DepthDuration_HTML.html#11,11,1366,625,1366,768,8-22-2022,5-14-13,3,depth_duration_stimuli/002988_2014-06-15_12-24-20_094959634447_rgbf000150-resize_1/002988_2014-06-15_12-24-20_094959634447_rgbf000150-resize_1-target.png,1000,4.7669999999999995,1,3962,999,meters,jsons/v1_VE1000_randls_37.json,630927,817950,24,Woman
3,750706,DepthScenes,duration_manipulation_targetAtFixation,jsons/v1_VE1000_randls_37.json,http://54.235.29.9/FacialAge/BNav_EC2/DepthDuration/v2_depth_duration_MTurk/v2_DepthDuration_HTML.html#11,11,1366,625,1366,768,8-22-2022,5-14-13,4,depth_duration_stimuli/001052_2014-06-08_18-24-54_260595134347_rgbf000130-resize_1/001052_2014-06-08_18-24-54_260595134347_rgbf000130-resize_1-target.png,1000,4.1045,1,2395,999,meters,jsons/v1_VE1000_randls_37.json,630927,817950,24,Woman
4,750706,DepthScenes,duration_manipulation_targetAtFixation,jsons/v1_VE1000_randls_37.json,http://54.235.29.9/FacialAge/BNav_EC2/DepthDuration/v2_depth_duration_MTurk/v2_DepthDuration_HTML.html#11,11,1366,625,1366,768,8-22-2022,5-14-13,5,depth_duration_stimuli/001092_2014-06-15_17-34-58_260595134347_rgbf000171-resize_3/001092_2014-06-15_17-34-58_260595134347_rgbf000171-resize_3-target.png,1000,2.6935,1,2946,1002,meters,jsons/v1_VE1000_randls_37.json,630927,817950,24,Woman
5,750706,DepthScenes,duration_manipulation_targetAtFixation,jsons/v1_VE1000_randls_37.json,http://54.235.29.9/FacialAge/BNav_EC2/DepthDuration/v2_depth_duration_MTurk/v2_DepthDuration_HTML.html#11,11,1366,625,1366,768,8-22-2022,5-14-13,6,depth_duration_stimuli/002545_2014-06-24_13-38-53_094959634447_rgbf000080-resize_4/002545_2014-06-24_13-38-53_094959634447_rgbf000080-resize_4-target.png,1000,1.9205,1,2986,1001,meters,jsons/v1_VE1000_randls_37.json,630927,817950,24,Woman
6,750706,DepthScenes,duration_manipulation_targetAtFixation,jsons/v1_VE1000_randls_37.json,http://54.235.29.9/FacialAge/BNav_EC2/DepthDuration/v2_depth_duration_MTurk/v2_DepthDuration_HTML.html#11,11,1366,625,1366,768,8-22-2022,5-14-13,7,depth_duration_stimuli/000906_2014-06-08_13-35-43_260595134347_rgbf000155-resize_1/000906_2014-06-08_13-35-43_260595134347_rgbf000155-resize_1-target.png,1000,2.8489999999999998,1,2548,1001,meters,jsons/v1_VE1000_randls_37.json,630927,817950,24,Woman
7,750706,DepthScenes,duration_manipulation_targetAtFixation,jsons/v1_VE1000_randls_37.json,http://54.235.29.9/FacialAge/BNav_EC2/DepthDuration/v2_depth_duration_MTurk/v2_DepthDuration_HTML.html#11,11,1366,625,1366,768,8-22-2022,5-14-13,8,depth_duration_stimuli/002805_2014-06-22_19-54-03_094959634447_rgbf000079-resize_1/002805_2014-06-22_19-54-03_094959634447_rgbf000079-resize_1-target.png,1000,3.1439999999999997,1,2500,985,meters,jsons/v1_VE1000_randls_37.json,630927,817950,24,Woman
8,750706,DepthScenes,duration_manipulation_targetAtFixation,jsons/v1_VE1000_randls_37.json,http://54.235.29.9/FacialAge/BNav_EC2/DepthDuration/v2_depth_duration_MTurk/v2_DepthDuration_HTML.html#11,11,1366,625,1366,768,8-22-2022,5-14-13,9,depth_duration_stimuli/002600_2014-06-24_14-27-04_094959634447_rgbf000074-resize_2/002600_2014-06-24_14-27-04_094959634447_rgbf000074-resize_2-target.png,1000,2.7575,1,2444,1004,meters,jsons/v1_VE1000_randls_37.json,630927,817950,24,Woman
9,750706,DepthScenes,duration_manipulation_targetAtFixation,jsons/v1_VE1000_randls_37.json,http://54.235.29.9/FacialAge/BNav_EC2/DepthDuration/v2_depth_duration_MTurk/v2_DepthDuration_HTML.html#11,11,1366,625,1366,768,8-22-2022,5-14-13,10,depth_duration_stimuli/003228_2014-05-14_13-42-35_094959634447_rgbf000101-resize_1/003228_2014-05-14_13-42-35_094959634447_rgbf000101-resize_1-target.png,1000,1.9680000000000002,1,2457,1001,meters,jsons/v1_VE1000_randls_37.json,630927,817950,24,Woman
10,750706,DepthScenes,duration_manipulation_targetAtFixation,jsons/v1_VE1000_randls_37.json,http://54.235.29.9/FacialAge/BNav_EC2/DepthDuration/v2_depth_duration_MTurk/v2_DepthDuration_HTML.html#11,11,1366,625,1366,768,8-22-2022,5-14-13,11,depth_duration_stimuli/002057_2014-06-24_21-00-13_260595134347_rgbf000120-resize_1/002057_2014-06-24_21-00-13_260595134347_rgbf000120-resize_1-target.png,1000,2.967,1,2347,999,meters,jsons/v1_VE1000_randls_37.json,630927,817950,24,Woman
11,750706,DepthScenes,duration_manipulation_targetAtFixation,jsons/v1_VE1000_randls_37.json,http://54.235.29.9/FacialAge/BNav_EC2/DepthDuration/v2_depth_duration_MTurk/v2_DepthDuration_HTML.html#11,11,1366,625,1366,768,8-22-2022,5-14-13,12,depth_duration_stimuli/000709_2014-06-08_13-51-55_260595134347_rgbf000068-resize_3/000709_2014-06-08_13-51-55_260595134347_rgbf000068-resize_3-target.png,1000,1.8030000000000002,1,2596,985,meters,jsons/v1_VE1000_randls_37.json,630927,817950,24,Woman
12,750706,DepthScenes,duration_manipulation_targetAtFixation,jsons/v1_VE1000_randls_37.json,http://54.235.29.9/FacialAge/BNav_EC2/DepthDuration/v2_depth_duration_MTurk/v2_DepthDuration_HTML.html#11,11,1366,625,1366,768,8-22-2022,5-14-13,13,depth_duration_stimuli/000569_2014-06-09_22-51-47_260595134347_rgbf000141-resize_3/000569_2014-06-09_22-51-47_260595134347_rgbf000141-resize-original.jpg,1000,4.512,1,2722,1001,meters,jsons/v1_VE1000_randls_37.json,630927,817950,24,Woman
13,750706,DepthScenes,duration_manipulation_targetAtFixation,jsons/v1_VE1000_randls_37.json,http://54.235.29.9/FacialAge/BNav_EC2/DepthDuration/v2_depth_duration_MTurk/v2_DepthDuration_HTML.html#11,11,1366,625,1366,768,8-22-2022,5-14-13,14,depth_duration_stimuli/001066_2014-06-08_22-03-20_260595134347_rgbf000066-resize_4/001066_2014-06-08_22-03-20_260595134347_rgbf000066-resize_4-target.png,1000,4.2330000000000005,1,2768,1000,meters,jsons/v1_VE1000_randls_37.json,630927,817950,24,Woman
14,750706,DepthScenes,duration_manipulation_targetAtFixation,jsons/v1_VE1000_randls_37.json,http://54.235.29.9/FacialAge/BNav_EC2/DepthDuration/v2_depth_duration_MTurk/v2_DepthDuration_HTML.html#11,11,1366,625,1366,768,8-22-2022,5-14-13,15,depth_duration_stimuli/000742_2014-06-08_18-48-09_260595134347_rgbf000164-resize_4/000742_2014-06-08_18-48-09_260595134347_rgbf000164-resize_4-target.png,1000,4.632,1,2946,998,meters,jsons/v1_VE1000_randls_37.json,630927,817950,24,Woman
15,750706,DepthScenes,duration_manipulation_targetAtFixation,jsons/v1_VE1000_randls_37.json,http://54.235.29.9/FacialAge/BNav_EC2/DepthDuration/v2_depth_duration_MTurk/v2_DepthDuration_HTML.html#11,11,1366,625,1366,768,8-22-2022,5-14-13,16,depth_duration_stimuli/001059_2014-06-08_21-53-27_260595134347_rgbf000061-resize_4/001059_2014-06-08_21-53-27_260595134347_rgbf000061-resize_4-target.png,1000,2.4185,1,2549,1000,meters,jsons/v1_VE1000_randls_37.json,630927,817950,24,Woman
16,750706,DepthScenes,duration_manipulation_targetAtFixation,jsons/v1_VE1000_randls_37.json,http://54.235.29.9/FacialAge/BNav_EC2/DepthDuration/v2_depth_duration_MTurk/v2_DepthDuration_HTML.html#11,11,1366,625,1366,768,8-22-2022,5-14-13,17,depth_duration_stimuli/001032_2014-06-08_13-23-17_260595134347_rgbf000021-resize_3/001032_2014-06-08_13-23-17_260595134347_rgbf000021-resize_3-target.png,1000,3.2725,1,2521,999,meters,jsons/v1_VE1000_randls_37.json,630927,817950,24,Woman
17,750706,DepthScenes,duration_manipulation_targetAtFixation,jsons/v1_VE1000_randls_37.json,http://54.235.29.9/FacialAge/BNav_EC2/DepthDuration/v2_depth_duration_MTurk/v2_DepthDuration_HTML.html#11,11,1366,625,1366,768,8-22-2022,5-14-13,18,depth_duration_stimuli/000009_2014-05-26_14-32-05_260595134347_rgbf000034-resize_3/000009_2014-05-26_14-32-05_260595134347_rgbf000034-resize_3-target.png,1000,3.8715,1,3467,999,meters,jsons/v1_VE1000_randls_37.json,630927,817950,24,Woman
18,750706,DepthScenes,duration_manipulation_targetAtFixation,jsons/v1_VE1000_randls_37.json,http://54.235.29.9/FacialAge/BNav_EC2/DepthDuration/v2_depth_duration_MTurk/v2_DepthDuration_HTML.html#11,11,1366,625,1366,768,8-22-2022,5-14-13,19,depth_duration_stimuli/001828_2014-06-26_21-40-03_260595134347_rgbf000024-resize_0/001828_2014-06-26_21-40-03_260595134347_rgbf000024-resize_0-target.png,1000,4.8260000000000005,1,3307,1000,meters,jsons/v1_VE1000_randls_37.json,630927,817950,24,Woman
19,750706,DepthScenes,duration_manipulation_targetAtFixation,jsons/v1_VE1000_randls_37.json,http://54.235.29.9/FacialAge/BNav_EC2/DepthDuration/v2_depth_duration_MTurk/v2_DepthDuration_HTML.html#11,11,1366,625,1366,768,8-22-2022,5-14-13,20,depth_duration_stimuli/000522_2014-06-08_13-35-06_260595134347_rgbf000244-resize_1/000522_2014-06-08_13-35-06_260595134347_rgbf000244-resize_1-target.png,1000,2.3715,1,2436,1016,meters,jsons/v1_VE1000_randls_37.json,630927,817950,24,Woman
20,750706,DepthScenes,duration_manipulation_targetAtFixation,jsons/v1_VE1000_randls_37.json,http://54.235.29.9/FacialAge/BNav_EC2/DepthDuration/v2_depth_duration_MTurk/v2_DepthDuration_HTML.html#11,11,1366,625,1366,768,8-22-2022,5-14-13,21,depth_duration_stimuli/002949_2014-06-26_15-57-42_094959634447_rgbf000079-resize_1/002949_2014-06-26_15-57-42_094959634447_rgbf000079-resize_1-target.png,1000,1.8915,1,2714,1000,meters,jsons/v1_VE1000_randls_37.json,630927,817950,24,Woman
21,750706,DepthScenes,duration_manipulation_targetAtFixation,jsons/v1_VE1000_randls_37.json,http://54.235.29.9/FacialAge/BNav_EC2/DepthDuration/v2_depth_duration_MTurk/v2_DepthDuration_HTML.html#11,11,1366,625,1366,768,8-22-2022,5-14-13,22,depth_duration_stimuli/002153_2014-06-25_21-27-18_260595134347_rgbf000038-resize_5/002153_2014-06-25_21-27-18_260595134347_rgbf000038-resize_5-target.png,1000,2.505,1,2411,1000,meters,jsons/v1_VE1000_randls_37.json,630927,817950,24,Woman
22,750706,DepthScenes,duration_manipulation_targetAtFixation,jsons/v1_VE1000_randls_37.json,http://54.235.29.9/FacialAge/BNav_EC2/DepthDuration/v2_depth_duration_MTurk/v2_DepthDuration_HTML.html#11,11,1366,625,1366,768,8-22-2022,5-14-13,23,depth_duration_stimuli/002660_2014-06-13_15-44-18_094959634447_rgbf001878-resize_2/002660_2014-06-13_15-44-18_094959634447_rgbf001878-resize_2-target.png,1000,3.576,1,2898,994,meters,jsons/v1_VE1000_randls_37.json,630927,817950,24,Woman
23,750706,DepthScenes,duration_manipulation_targetAtFixation,jsons/v1_VE1000_randls_37.json,http://54.235.29.9/FacialAge/BNav_EC2/DepthDuration/v2_depth_duration_MTurk/v2_DepthDuration_HTML.html#11,11,1366,625,1366,768,8-22-2022,5-14-13,24,depth_duration_stimuli/000773_2014-06-08_22-24-54_260595134347_rgbf000093-resize_1/000773_2014-06-08_22-24-54_260595134347_rgbf000093-resize_1-target.png,1000,4.973,1,4892,999,meters,jsons/v1_VE1000_randls_37.json,630927,817950,24,Woman
24,750706,DepthScenes,duration_manipulation_targetAtFixation,jsons/v1_VE1000_randls_37.json,http://54.235.29.9/FacialAge/BNav_EC2/DepthDuration/v2_depth_duration_MTurk/v2_DepthDuration_HTML.html#11,11,1366,625,1366,768,8-22-2022,5-14-13,25,depth_duration_stimuli/002414_2014-06-28_20-24-58_260595134347_rgbf000067-resize_4/002414_2014-06-28_20-24-58_260595134347_rgbf000067-resize_4-target.png,1000,4.363,1,2488,1007,meters,jsons/v1_VE1000_randls_37.json,630927,817950,24,Woman
25,750706,DepthScenes,duration_manipulation_targetAtFixation,jsons/v1_VE1000_randls_37.json,http://54.235.29.9/FacialAge/BNav_EC2/DepthDuration/v2_depth_duration_MTurk/v2_DepthDuration_HTML.html#11,11,1366,625,1366,768,8-22-2022,5-14-13,26,depth_duration_stimuli/000447_2014-06-08_16-15-46_260595134347_rgbf000130-resize_1/000447_2014-06-08_16-15-46_260595134347_rgbf000130-resize_1-target.png,1000,4.479,1,2898,993,meters,jsons/v1_VE1000_randls_37.json,630927,817950,24,Woman
26,750706,DepthScenes,duration_manipulation_targetAtFixation,jsons/v1_VE1000_randls_37.json,http://54.235.29.9/FacialAge/BNav_EC2/DepthDuration/v2_depth_duration_MTurk/v2_DepthDuration_HTML.html#11,11,1366,625,1366,768,8-22-2022,5-14-13,27,depth_duration_stimuli/001447_2014-06-19_17-00-32_260595134347_rgbf000082-resize_5/001447_2014-06-19_17-00-32_260595134347_rgbf000082-resize_5-target.png,1000,4.13775,1,2475,1000,meters,jsons/v1_VE1000_randls_37.json,630927,817950,24,Woman
27,750706,DepthScenes,duration_manipulation_targetAtFixation,jsons/v1_VE1000_randls_37.json,http://54.235.29.9/FacialAge/BNav_EC2/DepthDuration/v2_depth_duration_MTurk/v2_DepthDuration_HTML.html#11,11,1366,625,1366,768,8-22-2022,5-14-13,28,depth_duration_stimuli/000758_2014-06-08_22-05-08_260595134347_rgbf000085-resize_0/000758_2014-06-08_22-05-08_260595134347_rgbf000085-resize_0-target.png,1000,3.3810000000000002,1,4890,995,meters,jsons/v1_VE1000_randls_37.json,630927,817950,24,Woman
28,750706,DepthScenes,duration_manipulation_targetAtFixation,jsons/v1_VE1000_randls_37.json,http://54.235.29.9/FacialAge/BNav_EC2/DepthDuration/v2_depth_duration_MTurk/v2_DepthDuration_HTML.html#11,11,1366,625,1366,768,8-22-2022,5-14-13,29,depth_duration_stimuli/000854_2014-06-09_19-43-13_260595134347_rgbf000066-resize_0/000854_2014-06-09_19-43-13_260595134347_rgbf000066-resize_0-target.png,1000,3.068,1,2642,999,meters,jsons/v1_VE1000_randls_37.json,630927,817950,24,Woman
29,750706,DepthScenes,duration_manipulation_targetAtFixation,jsons/v1_VE1000_randls_37.json,http://54.235.29.9/FacialAge/BNav_EC2/DepthDuration/v2_depth_duration_MTurk/v2_DepthDuration_HTML.html#11,11,1366,625,1366,768,8-22-2022,5-14-13,30,depth_duration_stimuli/000375_2014-06-08_11-17-29_260595134347_rgbf000133-resize_2/000375_2014-06-08_11-17-29_260595134347_rgbf000133-resize-original.jpg,1000,4.718,0,2665,997,meters,jsons/v1_VE1000_randls_37.json,630927,817950,24,Woman
30,750706,DepthScenes,duration_manipulation_targetAtFixation,jsons/v1_VE1000_randls_37.json,http://54.235.29.9/FacialAge/BNav_EC2/DepthDuration/v2_depth_duration_MTurk/v2_DepthDuration_HTML.html#11,11,1366,625,1366,768,8-22-2022,5-14-13,31,depth_duration_stimuli/000506_2014-06-08_23-21-00_260595134347_rgbf000070-resize_7/000506_2014-06-08_23-21-00_260595134347_rgbf000070-resize_7-target.png,1000,4.0585,1,2843,985,meters,jsons/v1_VE1000_randls_37.json,630927,817950,24,Woman
31,750706,DepthScenes,duration_manipulation_targetAtFixation,jsons/v1_VE1000_randls_37.json,http://54.235.29.9/FacialAge/BNav_EC2/DepthDuration/v2_depth_duration_MTurk/v2_DepthDuration_HTML.html#11,11,1366,625,1366,768,8-22-2022,5-14-13,32,depth_duration_stimuli/003079_2014-06-15_15-18-20_094959634447_rgbf000152-resize_8/003079_2014-06-15_15-18-20_094959634447_rgbf000152-resize_8-target.png,1000,2.8775,1,3339,1000,meters,jsons/v1_VE1000_randls_37.json,630927,817950,24,Woman
32,750706,DepthScenes,duration_manipulation_targetAtFixation,jsons/v1_VE1000_randls_37.json,http://54.235.29.9/FacialAge/BNav_EC2/DepthDuration/v2_depth_duration_MTurk/v2_DepthDuration_HTML.html#11,11,1366,625,1366,768,8-22-2022,5-14-13,33,depth_duration_stimuli/003292_2014-05-14_21-53-49_094959634447_rgbf000100-resize_2/003292_2014-05-14_21-53-49_094959634447_rgbf000100-resize_2-target.png,1000,3.4815,1,3467,1002,meters,jsons/v1_VE1000_randls_37.json,630927,817950,24,Woman
33,750706,DepthScenes,duration_manipulation_targetAtFixation,jsons/v1_VE1000_randls_37.json,http://54.235.29.9/FacialAge/BNav_EC2/DepthDuration/v2_depth_duration_MTurk/v2_DepthDuration_HTML.html#11,11,1366,625,1366,768,8-22-2022,5-14-13,34,depth_duration_stimuli/002639_2014-06-24_14-51-37_094959634447_rgbf000074-resize_4/002639_2014-06-24_14-51-37_094959634447_rgbf000074-resize_4-target.png,1000,4.0375,1,2739,1000,meters,jsons/v1_VE1000_randls_37.json,630927,817950,24,Woman
34,750706,DepthScenes,duration_manipulation_targetAtFixation,jsons/v1_VE1000_randls_37.json,http://54.235.29.9/FacialAge/BNav_EC2/DepthDuration/v2_depth_duration_MTurk/v2_DepthDuration_HTML.html#11,11,1366,625,1366,768,8-22-2022,5-14-13,35,depth_duration_stimuli/002213_2014-06-28_18-37-58_260595134347_rgbf000055-resize_1/002213_2014-06-28_18-37-58_260595134347_rgbf000055-resize_1-target.png,1000,3.62,1,2665,1006,meters,jsons/v1_VE1000_randls_37.json,630927,817950,24,Woman
35,750706,DepthScenes,duration_manipulation_targetAtFixation,jsons/v1_VE1000_randls_37.json,http://54.235.29.9/FacialAge/BNav_EC2/DepthDuration/v2_depth_duration_MTurk/v2_DepthDuration_HTML.html#11,11,1366,625,1366,768,8-22-2022,5-14-13,36,depth_duration_stimuli/000691_2014-06-08_13-08-50_260595134347_rgbf000132-resize_3/000691_2014-06-08_13-08-50_260595134347_rgbf000132-resize_3-target.png,1000,4.1530000000000005,1,3073,994,meters,jsons/v1_VE1000_randls_37.json,630927,817950,24,Woman
36,750706,DepthScenes,duration_manipulation_targetAtFixation,jsons/v1_VE1000_randls_37.json,http://54.235.29.9/FacialAge/BNav_EC2/DepthDuration/v2_depth_duration_MTurk/v2_DepthDuration_HTML.html#11,11,1366,625,1366,768,8-22-2022,5-14-13,37,depth_duration_stimuli/002748_2014-06-22_19-07-22_094959634447_rgbf000078-resize_1/002748_2014-06-22_19-07-22_094959634447_rgbf000078-resize_1-target.png,1000,4.6705,1,2907,1000,meters,jsons/v1_VE1000_randls_37.json,630927,817950,24,Woman
37,750706,DepthScenes,duration_manipulation_targetAtFixation,jsons/v1_VE1000_randls_37.json,http://54.235.29.9/FacialAge/BNav_EC2/DepthDuration/v2_depth_duration_MTurk/v2_DepthDuration_HTML.html#11,11,1366,625,1366,768,8-22-2022,5-14-13,38,depth_duration_stimuli/002995_2014-06-15_12-31-26_094959634447_rgbf000150-resize_1/002995_2014-06-15_12-31-26_094959634447_rgbf000150-resize_1-target.png,1000,3.8360000000000003,1,2905,998,meters,jsons/v1_VE1000_randls_37.json,630927,817950,24,Woman
38,750706,DepthScenes,duration_manipulation_targetAtFixation,jsons/v1_VE1000_randls_37.json,http://54.235.29.9/FacialAge/BNav_EC2/DepthDuration/v2_depth_duration_MTurk/v2_DepthDuration_HTML.html#11,11,1366,625,1366,768,8-22-2022,5-14-13,39,depth_duration_stimuli/000810_2014-06-08_17-20-01_260595134347_rgbf000105-resize_0/000810_2014-06-08_17-20-01_260595134347_rgbf000105-resize_0-target.png,1000,1.4865,1,4812,985,meters,jsons/v1_VE1000_randls_37.json,630927,817950,24,Woman
39,750706,DepthScenes,duration_manipulation_targetAtFixation,jsons/v1_VE1000_randls_37.json,http://54.235.29.9/FacialAge/BNav_EC2/DepthDuration/v2_depth_duration_MTurk/v2_DepthDuration_HTML.html#11,11,1366,625,1366,768,8-22-2022,5-14-13,40,depth_duration_stimuli/001214_2014-06-17_16-13-55_260595134347_rgbf000111-resize_0/001214_2014-06-17_16-13-55_260595134347_rgbf000111-resize_0-target.png,1000,2.6505,1,2664,1005,meters,jsons/v1_VE1000_randls_37.json,630927,817950,24,Woman
40,750706,DepthScenes,duration_manipulation_targetAtFixation,jsons/v1_VE1000_randls_37.json,http://54.235.29.9/FacialAge/BNav_EC2/DepthDuration/v2_depth_duration_MTurk/v2_DepthDuration_HTML.html#11,11,1366,625,1366,768,8-22-2022,5-14-13,41,depth_duration_stimuli/002039_2014-06-24_20-22-38_260595134347_rgbf000084-resize_1/002039_2014-06-24_20-22-38_260595134347_rgbf000084-resize_1-target.png,1000,4.408,1,2744,1004,meters,jsons/v1_VE1000_randls_37.json,630927,817950,24,Woman
41,750706,DepthScenes,duration_manipulation_targetAtFixation,jsons/v1_VE1000_randls_37.json,http://54.235.29.9/FacialAge/BNav_EC2/DepthDuration/v2_depth_duration_MTurk/v2_DepthDuration_HTML.html#11,11,1366,625,1366,768,8-22-2022,5-14-13,42,depth_duration_stimuli/002103_2014-06-25_20-00-40_260595134347_rgbf000049-resize_0/002103_2014-06-25_20-00-40_260595134347_rgbf000049-resize_0-target.png,1000,4.105,1,2675,1000,meters,jsons/v1_VE1000_randls_37.json,630927,817950,24,Woman
42,750706,DepthScenes,duration_manipulation_targetAtFixation,jsons/v1_VE1000_randls_37.json,http://54.235.29.9/FacialAge/BNav_EC2/DepthDuration/v2_depth_duration_MTurk/v2_DepthDuration_HTML.html#11,11,1366,625,1366,768,8-22-2022,5-14-13,43,depth_duration_stimuli/001011_2014-06-08_23-18-54_260595134347_rgbf000044-resize_4/001011_2014-06-08_23-18-54_260595134347_rgbf000044-resize_4-target.png,1000,2.4730000000000003,1,2514,990,meters,jsons/v1_VE1000_randls_37.json,630927,817950,24,Woman
43,750706,DepthScenes,duration_manipulation_targetAtFixation,jsons/v1_VE1000_randls_37.json,http://54.235.29.9/FacialAge/BNav_EC2/DepthDuration/v2_depth_duration_MTurk/v2_DepthDuration_HTML.html#11,11,1366,625,1366,768,8-22-2022,5-14-13,44,depth_duration_stimuli/002875_2014-06-01_15-19-00_094959634447_rgbf000151-resize_1/002875_2014-06-01_15-19-00_094959634447_rgbf000151-resize_1-target.png,1000,1.9675,1,2339,1000,meters,jsons/v1_VE1000_randls_37.json,630927,817950,24,Woman
44,750706,DepthScenes,duration_manipulation_targetAtFixation,jsons/v1_VE1000_randls_37.json,http://54.235.29.9/FacialAge/BNav_EC2/DepthDuration/v2_depth_duration_MTurk/v2_DepthDuration_HTML.html#11,11,1366,625,1366,768,8-22-2022,5-14-13,45,depth_duration_stimuli/000787_2014-06-08_22-33-53_260595134347_rgbf000175-resize_1/000787_2014-06-08_22-33-53_260595134347_rgbf000175-resize-original.jpg,1000,4.784,0,2871,1008,meters,jsons/v1_VE1000_randls_37.json,630927,817950,24,Woman
45,750706,DepthScenes,duration_manipulation_targetAtFixation,jsons/v1_VE1000_randls_37.json,http://54.235.29.9/FacialAge/BNav_EC2/DepthDuration/v2_depth_duration_MTurk/v2_DepthDuration_HTML.html#11,11,1366,625,1366,768,8-22-2022,5-14-13,46,depth_duration_stimuli/002272_2014-06-28_18-53-56_260595134347_rgbf000067-resize_2/002272_2014-06-28_18-53-56_260595134347_rgbf000067-resize_2-target.png,1000,1.138,1,2590,999,meters,jsons/v1_VE1000_randls_37.json,630927,817950,24,Woman
46,750706,DepthScenes,duration_manipulation_targetAtFixation,jsons/v1_VE1000_randls_37.json,http://54.235.29.9/FacialAge/BNav_EC2/DepthDuration/v2_depth_duration_MTurk/v2_DepthDuration_HTML.html#11,11,1366,625,1366,768,8-22-2022,5-14-13,47,depth_duration_stimuli/001571_2014-06-20_17-21-32_260595134347_rgbf000089-resize_1/001571_2014-06-20_17-21-32_260595134347_rgbf000089-resize_1-target.png,1000,1.86,1,2627,999,meters,jsons/v1_VE1000_randls_37.json,630927,817950,24,Woman
47,750706,DepthScenes,duration_manipulation_targetAtFixation,jsons/v1_VE1000_randls_37.json,http://54.235.29.9/FacialAge/BNav_EC2/DepthDuration/v2_depth_duration_MTurk/v2_DepthDuration_HTML.html#11,11,1366,625,1366,768,8-22-2022,5-14-13,48,depth_duration_stimuli/002989_2014-06-15_12-25-03_094959634447_rgbf000150-resize_3/002989_2014-06-15_12-25-03_094959634447_rgbf000150-resize_3-target.png,1000,4.1975,1,3029,999,meters,jsons/v1_VE1000_randls_37.json,630927,817950,24,Woman
48,750706,DepthScenes,duration_manipulation_targetAtFixation,jsons/v1_VE1000_randls_37.json,http://54.235.29.9/FacialAge/BNav_EC2/DepthDuration/v2_depth_duration_MTurk/v2_DepthDuration_HTML.html#11,11,1366,625,1366,768,8-22-2022,5-14-13,49,depth_duration_stimuli/000866_2014-06-09_20-45-42_260595134347_rgbf000139-resize_1/000866_2014-06-09_20-45-42_260595134347_rgbf000139-resize_1-target.png,1000,3.2155,1,2482,998,meters,jsons/v1_VE1000_randls_37.json,630927,817950,24,Woman
49,750706,DepthScenes,duration_manipulation_targetAtFixation,jsons/v1_VE1000_randls_37.json,http://54.235.29.9/FacialAge/BNav_EC2/DepthDuration/v2_depth_duration_MTurk/v2_DepthDuration_HTML.html#11,11,1366,625,1366,768,8-22-2022,5-14-13,50,depth_duration_stimuli/002549_2014-06-24_13-41-39_094959634447_rgbf000022-resize_3/002549_2014-06-24_13-41-39_094959634447_rgbf000022-resize_3-target.png,1000,1.476,1,2374,990,meters,jsons/v1_VE1000_randls_37.json,630927,817950,24,Woman
50,750706,DepthScenes,duration_manipulation_targetAtFixation,jsons/v1_VE1000_randls_37.json,http://54.235.29.9/FacialAge/BNav_EC2/DepthDuration/v2_depth_duration_MTurk/v2_DepthDuration_HTML.html#11,11,1366,625,1366,768,8-22-2022,5-14-13,51,depth_duration_stimuli/002750_2014-06-22_19-08-03_094959634447_rgbf000094-resize_4/002750_2014-06-22_19-08-03_094959634447_rgbf000094-resize_4-target.png,1000,2.354,1,5722,1003,meters,jsons/v1_VE1000_randls_37.json,630927,817950,24,Woman
51,750706,DepthScenes,duration_manipulation_targetAtFixation,jsons/v1_VE1000_randls_37.json,http://54.235.29.9/FacialAge/BNav_EC2/DepthDuration/v2_depth_duration_MTurk/v2_DepthDuration_HTML.html#11,11,1366,625,1366,768,8-22-2022,5-14-13,52,depth_duration_stimuli/001016_2014-06-09_16-16-10_260595134347_rgbf000112-resize_5/001016_2014-06-09_16-16-10_260595134347_rgbf000112-resize_5-target.png,1000,1.6565,1,2628,1000,meters,jsons/v1_VE1000_randls_37.json,630927,817950,24,Woman
52,750706,DepthScenes,duration_manipulation_targetAtFixation,jsons/v1_VE1000_randls_37.json,http://54.235.29.9/FacialAge/BNav_EC2/DepthDuration/v2_depth_duration_MTurk/v2_DepthDuration_HTML.html#11,11,1366,625,1366,768,8-22-2022,5-14-13,53,depth_duration_stimuli/002340_2014-06-28_20-05-46_260595134347_rgbf000113-resize_0/002340_2014-06-28_20-05-46_260595134347_rgbf000113-resize_0-target.png,1000,2.4735,1,2879,999,meters,jsons/v1_VE1000_randls_37.json,630927,817950,24,Woman
53,750706,DepthScenes,duration_manipulation_targetAtFixation,jsons/v1_VE1000_randls_37.json,http://54.235.29.9/FacialAge/BNav_EC2/DepthDuration/v2_depth_duration_MTurk/v2_DepthDuration_HTML.html#11,11,1366,625,1366,768,8-22-2022,5-14-13,54,depth_duration_stimuli/000469_2014-06-09_19-42-10_260595134347_rgbf000081-resize_1/000469_2014-06-09_19-42-10_260595134347_rgbf000081-resize_1-target.png,1000,1.652,1,2931,998,meters,jsons/v1_VE1000_randls_37.json,630927,817950,24,Woman
54,750706,DepthScenes,duration_manipulation_targetAtFixation,jsons/v1_VE1000_randls_37.json,http://54.235.29.9/FacialAge/BNav_EC2/DepthDuration/v2_depth_duration_MTurk/v2_DepthDuration_HTML.html#11,11,1366,625,1366,768,8-22-2022,5-14-13,55,depth_duration_stimuli/000483_2014-06-09_20-41-45_260595134347_rgbf000116-resize_4/000483_2014-06-09_20-41-45_260595134347_rgbf000116-resize_4-target.png,1000,1.337,1,2507,999,meters,jsons/v1_VE1000_randls_37.json,630927,817950,24,Woman
55,750706,DepthScenes,duration_manipulation_targetAtFixation,jsons/v1_VE1000_randls_37.json,http://54.235.29.9/FacialAge/BNav_EC2/DepthDuration/v2_depth_duration_MTurk/v2_DepthDuration_HTML.html#11,11,1366,625,1366,768,8-22-2022,5-14-13,56,depth_duration_stimuli/002118_2014-06-25_20-32-08_260595134347_rgbf000078-resize_1/002118_2014-06-25_20-32-08_260595134347_rgbf000078-resize_1-target.png,1000,2.6460000000000004,1,2363,999,meters,jsons/v1_VE1000_randls_37.json,630927,817950,24,Woman
56,750706,DepthScenes,duration_manipulation_targetAtFixation,jsons/v1_VE1000_randls_37.json,http://54.235.29.9/FacialAge/BNav_EC2/DepthDuration/v2_depth_duration_MTurk/v2_DepthDuration_HTML.html#11,11,1366,625,1366,768,8-22-2022,5-14-13,57,depth_duration_stimuli/001516_2014-06-20_16-25-09_260595134347_rgbf000076-resize_2/001516_2014-06-20_16-25-09_260595134347_rgbf000076-resize_2-target.png,1000,1.7445,1,2475,1000,meters,jsons/v1_VE1000_randls_37.json,630927,817950,24,Woman
57,750706,DepthScenes,duration_manipulation_targetAtFixation,jsons/v1_VE1000_randls_37.json,http://54.235.29.9/FacialAge/BNav_EC2/DepthDuration/v2_depth_duration_MTurk/v2_DepthDuration_HTML.html#11,11,1366,625,1366,768,8-22-2022,5-14-13,58,depth_duration_stimuli/002663_2014-06-13_15-50-26_094959634447_rgbf000075-resize_1/002663_2014-06-13_15-50-26_094959634447_rgbf000075-resize_1-target.png,1000,4.7495,1,2715,1011,meters,jsons/v1_VE1000_randls_37.json,630927,817950,24,Woman
58,750706,DepthScenes,duration_manipulation_targetAtFixation,jsons/v1_VE1000_randls_37.json,http://54.235.29.9/FacialAge/BNav_EC2/DepthDuration/v2_depth_duration_MTurk/v2_DepthDuration_HTML.html#11,11,1366,625,1366,768,8-22-2022,5-14-13,59,depth_duration_stimuli/000409_2014-06-04_19-23-33_260595134347_rgbf000067-resize_0/000409_2014-06-04_19-23-33_260595134347_rgbf000067-resize_0-target.png,1000,3.7335,1,2363,1003,meters,jsons/v1_VE1000_randls_37.json,630927,817950,24,Woman
59,750706,DepthScenes,duration_manipulation_targetAtFixation,jsons/v1_VE1000_randls_37.json,http://54.235.29.9/FacialAge/BNav_EC2/DepthDuration/v2_depth_duration_MTurk/v2_DepthDuration_HTML.html#11,11,1366,625,1366,768,8-22-2022,5-14-13,60,depth_duration_stimuli/002509_2014-06-24_13-19-22_094959634447_rgbf000077-resize_0/002509_2014-06-24_13-19-22_094959634447_rgbf000077-resize_0-target.png,1000,1.3065,1,2487,1005,meters,jsons/v1_VE1000_randls_37.json,630927,817950,24,Woman
60,750706,DepthScenes,duration_manipulation_targetAtFixation,jsons/v1_VE1000_randls_37.json,http://54.235.29.9/FacialAge/BNav_EC2/DepthDuration/v2_depth_duration_MTurk/v2_DepthDuration_HTML.html#11,11,1366,625,1366,768,8-22-2022,5-14-13,61,depth_duration_stimuli/003338_2014-05-20_11-01-23_094959634447_rgbf000051-resize_6/003338_2014-05-20_11-01-23_094959634447_rgbf000051-resize_6-target.png,1000,1.693,1,2531,1014,meters,jsons/v1_VE1000_randls_37.json,630927,817950,24,Woman
61,750706,DepthScenes,duration_manipulation_targetAtFixation,jsons/v1_VE1000_randls_37.json,http://54.235.29.9/FacialAge/BNav_EC2/DepthDuration/v2_depth_duration_MTurk/v2_DepthDuration_HTML.html#11,11,1366,625,1366,768,8-22-2022,5-14-13,62,depth_duration_stimuli/001570_2014-06-20_17-21-09_260595134347_rgbf000135-resize_4/001570_2014-06-20_17-21-09_260595134347_rgbf000135-resize_4-target.png,1000,4.467,1,2924,1000,meters,jsons/v1_VE1000_randls_37.json,630927,817950,24,Woman
62,750706,DepthScenes,duration_manipulation_targetAtFixation,jsons/v1_VE1000_randls_37.json,http://54.235.29.9/FacialAge/BNav_EC2/DepthDuration/v2_depth_duration_MTurk/v2_DepthDuration_HTML.html#11,11,1366,625,1366,768,8-22-2022,5-14-13,63,depth_duration_stimuli/001392_2014-06-19_16-07-59_260595134347_rgbf000046-resize_1/001392_2014-06-19_16-07-59_260595134347_rgbf000046-resize_1-target.png,1000,4.135,1,2599,988,meters,jsons/v1_VE1000_randls_37.json,630927,817950,24,Woman
63,750706,DepthScenes,duration_manipulation_targetAtFixation,jsons/v1_VE1000_randls_37.json,http://54.235.29.9/FacialAge/BNav_EC2/DepthDuration/v2_depth_duration_MTurk/v2_DepthDuration_HTML.html#11,11,1366,625,1366,768,8-22-2022,5-14-13,64,depth_duration_stimuli/000682_2014-06-08_23-14-58_260595134347_rgbf000041-resize_5/000682_2014-06-08_23-14-58_260595134347_rgbf000041-resize_5-target.png,1000,2.7239999999999998,1,2437,1006,meters,jsons/v1_VE1000_randls_37.json,630927,817950,24,Woman
64,750706,DepthScenes,duration_manipulation_targetAtFixation,jsons/v1_VE1000_randls_37.json,http://54.235.29.9/FacialAge/BNav_EC2/DepthDuration/v2_depth_duration_MTurk/v2_DepthDuration_HTML.html#11,11,1366,625,1366,768,8-22-2022,5-14-13,65,depth_duration_stimuli/001650_2014-06-20_12-09-00_260595134347_rgbf000087-resize_3/001650_2014-06-20_12-09-00_260595134347_rgbf000087-resize_3-target.png,1000,1.9505,1,2325,992,meters,jsons/v1_VE1000_randls_37.json,630927,817950,24,Woman
65,750706,DepthScenes,duration_manipulation_targetAtFixation,jsons/v1_VE1000_randls_37.json,http://54.235.29.9/FacialAge/BNav_EC2/DepthDuration/v2_depth_duration_MTurk/v2_DepthDuration_HTML.html#11,11,1366,625,1366,768,8-22-2022,5-14-13,66,depth_duration_stimuli/001222_2014-06-17_16-24-06_260595134347_rgbf000073-resize_0/001222_2014-06-17_16-24-06_260595134347_rgbf000073-resize-original.jpg,1000,1.4385,0,4956,1001,meters,jsons/v1_VE1000_randls_37.json,630927,817950,24,Woman
66,750706,DepthScenes,duration_manipulation_targetAtFixation,jsons/v1_VE1000_randls_37.json,http://54.235.29.9/FacialAge/BNav_EC2/DepthDuration/v2_depth_duration_MTurk/v2_DepthDuration_HTML.html#11,11,1366,625,1366,768,8-22-2022,5-14-13,67,depth_duration_stimuli/000917_2014-06-09_22-45-29_260595134347_rgbf000149-resize_3/000917_2014-06-09_22-45-29_260595134347_rgbf000149-resize_3-target.png,1000,4.1865,1,2443,1006,meters,jsons/v1_VE1000_randls_37.json,630927,817950,24,Woman
67,750706,DepthScenes,duration_manipulation_targetAtFixation,jsons/v1_VE1000_randls_37.json,http://54.235.29.9/FacialAge/BNav_EC2/DepthDuration/v2_depth_duration_MTurk/v2_DepthDuration_HTML.html#11,11,1366,625,1366,768,8-22-2022,5-14-13,68,depth_duration_stimuli/002323_2014-06-28_20-01-54_260595134347_rgbf000051-resize_4/002323_2014-06-28_20-01-54_260595134347_rgbf000051-resize_4-target.png,1000,3.7310000000000003,1,2795,1002,meters,jsons/v1_VE1000_randls_37.json,630927,817950,24,Woman
68,750706,DepthScenes,duration_manipulation_targetAtFixation,jsons/v1_VE1000_randls_37.json,http://54.235.29.9/FacialAge/BNav_EC2/DepthDuration/v2_depth_duration_MTurk/v2_DepthDuration_HTML.html#11,11,1366,625,1366,768,8-22-2022,5-14-13,69,depth_duration_stimuli/001029_2014-06-08_13-17-57_260595134347_rgbf000065-resize_1/001029_2014-06-08_13-17-57_260595134347_rgbf000065-resize_1-target.png,1000,3.0835,1,2301,985,meters,jsons/v1_VE1000_randls_37.json,630927,817950,24,Woman
69,750706,DepthScenes,duration_manipulation_targetAtFixation,jsons/v1_VE1000_randls_37.json,http://54.235.29.9/FacialAge/BNav_EC2/DepthDuration/v2_depth_duration_MTurk/v2_DepthDuration_HTML.html#11,11,1366,625,1366,768,8-22-2022,5-14-13,70,depth_duration_stimuli/000677_2014-06-08_23-10-32_260595134347_rgbf000158-resize_6/000677_2014-06-08_23-10-32_260595134347_rgbf000158-resize_6-target.png,1000,3.556,1,2362,999,meters,jsons/v1_VE1000_randls_37.json,630927,817950,24,Woman
70,750706,DepthScenes,duration_manipulation_targetAtFixation,jsons/v1_VE1000_randls_37.json,http://54.235.29.9/FacialAge/BNav_EC2/DepthDuration/v2_depth_duration_MTurk/v2_DepthDuration_HTML.html#11,11,1366,625,1366,768,8-22-2022,5-14-13,71,depth_duration_stimuli/000739_2014-06-08_18-45-58_260595134347_rgbf000068-resize_1/000739_2014-06-08_18-45-58_260595134347_rgbf000068-resize_1-target.png,1000,3.534,1,2475,1001,meters,jsons/v1_VE1000_randls_37.json,630927,817950,24,Woman
71,750706,DepthScenes,duration_manipulation_targetAtFixation,jsons/v1_VE1000_randls_37.json,http://54.235.29.9/FacialAge/BNav_EC2/DepthDuration/v2_depth_duration_MTurk/v2_DepthDuration_HTML.html#11,11,1366,625,1366,768,8-22-2022,5-14-13,72,depth_duration_stimuli/000734_2014-06-08_17-39-11_260595134347_rgbf000128-resize_2/000734_2014-06-08_17-39-11_260595134347_rgbf000128-resize_2-target.png,1000,4.098,1,6172,992,meters,jsons/v1_VE1000_randls_37.json,630927,817950,24,Woman
72,750706,DepthScenes,duration_manipulation_targetAtFixation,jsons/v1_VE1000_randls_37.json,http://54.235.29.9/FacialAge/BNav_EC2/DepthDuration/v2_depth_duration_MTurk/v2_DepthDuration_HTML.html#11,11,1366,625,1366,768,8-22-2022,5-14-13,73,depth_duration_stimuli/001808_2014-06-26_20-50-58_260595134347_rgbf000029-resize_1/001808_2014-06-26_20-50-58_260595134347_rgbf000029-resize_1-target.png,1000,4.249,1,2826,998,meters,jsons/v1_VE1000_randls_37.json,630927,817950,24,Woman
73,750706,DepthScenes,duration_manipulation_targetAtFixation,jsons/v1_VE1000_randls_37.json,http://54.235.29.9/FacialAge/BNav_EC2/DepthDuration/v2_depth_duration_MTurk/v2_DepthDuration_HTML.html#11,11,1366,625,1366,768,8-22-2022,5-14-13,74,depth_duration_stimuli/001815_2014-06-26_20-52-55_260595134347_rgbf000020-resize_0/001815_2014-06-26_20-52-55_260595134347_rgbf000020-resize_0-target.png,1000,3.3865,1,2432,999,meters,jsons/v1_VE1000_randls_37.json,630927,817950,24,Woman
74,750706,DepthScenes,duration_manipulation_targetAtFixation,jsons/v1_VE1000_randls_37.json,http://54.235.29.9/FacialAge/BNav_EC2/DepthDuration/v2_depth_duration_MTurk/v2_DepthDuration_HTML.html#11,11,1366,625,1366,768,8-22-2022,5-14-13,75,depth_duration_stimuli/001199_2014-06-17_16-03-48_260595134347_rgbf000077-resize_0/001199_2014-06-17_16-03-48_260595134347_rgbf000077-resize_0-target.png,1000,3.4375,1,2525,994,meters,jsons/v1_VE1000_randls_37.json,630927,817950,24,Woman
75,750706,DepthScenes,duration_manipulation_targetAtFixation,jsons/v1_VE1000_randls_37.json,http://54.235.29.9/FacialAge/BNav_EC2/DepthDuration/v2_depth_duration_MTurk/v2_DepthDuration_HTML.html#11,11,1366,625,1366,768,8-22-2022,5-14-13,76,depth_duration_stimuli/000502_2014-06-08_23-02-32_260595134347_rgbf000063-resize_4/000502_2014-06-08_23-02-32_260595134347_rgbf000063-resize_4-target.png,1000,2.431,1,2384,1001,meters,jsons/v1_VE1000_randls_37.json,630927,817950,24,Woman
76,750706,DepthScenes,duration_manipulation_targetAtFixation,jsons/v1_VE1000_randls_37.json,http://54.235.29.9/FacialAge/BNav_EC2/DepthDuration/v2_depth_duration_MTurk/v2_DepthDuration_HTML.html#11,11,1366,625,1366,768,8-22-2022,5-14-13,77,depth_duration_stimuli/001167_2014-06-17_15-38-07_260595134347_rgbf000108-resize_0/001167_2014-06-17_15-38-07_260595134347_rgbf000108-resize_0-target.png,1000,1.8505,1,3214,1009,meters,jsons/v1_VE1000_randls_37.json,630927,817950,24,Woman
77,750706,DepthScenes,duration_manipulation_targetAtFixation,jsons/v1_VE1000_randls_37.json,http://54.235.29.9/FacialAge/BNav_EC2/DepthDuration/v2_depth_duration_MTurk/v2_DepthDuration_HTML.html#11,11,1366,625,1366,768,8-22-2022,5-14-13,78,depth_duration_stimuli/003587_2014-05-23_16-48-02_094959634447_rgbf002384-resize_2/003587_2014-05-23_16-48-02_094959634447_rgbf002384-resize_2-target.png,1000,1.357,1,2521,991,meters,jsons/v1_VE1000_randls_37.json,630927,817950,24,Woman
78,750706,DepthScenes,duration_manipulation_targetAtFixation,jsons/v1_VE1000_randls_37.json,http://54.235.29.9/FacialAge/BNav_EC2/DepthDuration/v2_depth_duration_MTurk/v2_DepthDuration_HTML.html#11,11,1366,625,1366,768,8-22-2022,5-14-13,79,depth_duration_stimuli/002784_2014-06-22_19-26-30_094959634447_rgbf000083-resize_3/002784_2014-06-22_19-26-30_094959634447_rgbf000083-resize_3-target.png,1000,1.8046666666667,1,2507,1011,meters,jsons/v1_VE1000_randls_37.json,630927,817950,24,Woman
79,750706,DepthScenes,duration_manipulation_targetAtFixation,jsons/v1_VE1000_randls_37.json,http://54.235.29.9/FacialAge/BNav_EC2/DepthDuration/v2_depth_duration_MTurk/v2_DepthDuration_HTML.html#11,11,1366,625,1366,768,8-22-2022,5-14-13,80,depth_duration_stimuli/001100_2014-06-15_17-46-26_260595134347_rgbf000225-resize_2/001100_2014-06-15_17-46-26_260595134347_rgbf000225-resize_2-target.png,1000,2.24,1,2458,999,meters,jsons/v1_VE1000_randls_37.json,630927,817950,24,Woman
80,750706,DepthScenes,duration_manipulation_targetAtFixation,jsons/v1_VE1000_randls_37.json,http://54.235.29.9/FacialAge/BNav_EC2/DepthDuration/v2_depth_duration_MTurk/v2_DepthDuration_HTML.html#11,11,1366,625,1366,768,8-22-2022,5-14-13,81,depth_duration_stimuli/001806_2014-06-26_20-50-20_260595134347_rgbf000091-resize_1/001806_2014-06-26_20-50-20_260595134347_rgbf000091-resize_1-target.png,1000,2.7305,1,2479,1000,meters,jsons/v1_VE1000_randls_37.json,630927,817950,24,Woman
81,750706,DepthScenes,duration_manipulation_targetAtFixation,jsons/v1_VE1000_randls_37.json,http://54.235.29.9/FacialAge/BNav_EC2/DepthDuration/v2_depth_duration_MTurk/v2_DepthDuration_HTML.html#11,11,1366,625,1366,768,8-22-2022,5-14-13,82,depth_duration_stimuli/001617_2014-06-20_11-35-32_260595134347_rgbf000066-resize_1/001617_2014-06-20_11-35-32_260595134347_rgbf000066-resize_1-target.png,1000,3.7910000000000004,1,3215,996,meters,jsons/v1_VE1000_randls_37.json,630927,817950,24,Woman
82,750706,DepthScenes,duration_manipulation_targetAtFixation,jsons/v1_VE1000_randls_37.json,http://54.235.29.9/FacialAge/BNav_EC2/DepthDuration/v2_depth_duration_MTurk/v2_DepthDuration_HTML.html#11,11,1366,625,1366,768,8-22-2022,5-14-13,83,depth_duration_stimuli/001150_2014-06-17_15-27-34_260595134347_rgbf000108-resize_2/001150_2014-06-17_15-27-34_260595134347_rgbf000108-resize_2-target.png,1000,4.0325,1,2427,1000,meters,jsons/v1_VE1000_randls_37.json,630927,817950,24,Woman
83,750706,DepthScenes,duration_manipulation_targetAtFixation,jsons/v1_VE1000_randls_37.json,http://54.235.29.9/FacialAge/BNav_EC2/DepthDuration/v2_depth_duration_MTurk/v2_DepthDuration_HTML.html#11,11,1366,625,1366,768,8-22-2022,5-14-13,84,depth_duration_stimuli/000665_2014-06-09_20-42-35_260595134347_rgbf000110-resize_1/000665_2014-06-09_20-42-35_260595134347_rgbf000110-resize_1-target.png,1000,3.057,1,2451,999,meters,jsons/v1_VE1000_randls_37.json,630927,817950,24,Woman
84,750706,DepthScenes,duration_manipulation_targetAtFixation,jsons/v1_VE1000_randls_37.json,http://54.235.29.9/FacialAge/BNav_EC2/DepthDuration/v2_depth_duration_MTurk/v2_DepthDuration_HTML.html#11,11,1366,625,1366,768,8-22-2022,5-14-13,85,depth_duration_stimuli/001158_2014-06-17_15-32-16_260595134347_rgbf000138-resize_2/001158_2014-06-17_15-32-16_260595134347_rgbf000138-resize_2-target.png,1000,4.5315,1,2844,1000,meters,jsons/v1_VE1000_randls_37.json,630927,817950,24,Woman
85,750706,DepthScenes,duration_manipulation_targetAtFixation,jsons/v1_VE1000_randls_37.json,http://54.235.29.9/FacialAge/BNav_EC2/DepthDuration/v2_depth_duration_MTurk/v2_DepthDuration_HTML.html#11,11,1366,625,1366,768,8-22-2022,5-14-13,86,depth_duration_stimuli/000556_2014-06-09_22-42-56_260595134347_rgbf000214-resize_1/000556_2014-06-09_22-42-56_260595134347_rgbf000214-resize_1-target.png,1000,4.8415,1,2859,1007,meters,jsons/v1_VE1000_randls_37.json,630927,817950,24,Woman
86,750706,DepthScenes,duration_manipulation_targetAtFixation,jsons/v1_VE1000_randls_37.json,http://54.235.29.9/FacialAge/BNav_EC2/DepthDuration/v2_depth_duration_MTurk/v2_DepthDuration_HTML.html#11,11,1366,625,1366,768,8-22-2022,5-14-13,87,depth_duration_stimuli/000368_2014-06-09_15-53-01_260595134347_rgbf000155-resize_2/000368_2014-06-09_15-53-01_260595134347_rgbf000155-resize_2-target.png,1000,2.4859999999999998,1,3456,1009,meters,jsons/v1_VE1000_randls_37.json,630927,817950,24,Woman
87,750706,DepthScenes,duration_manipulation_targetAtFixation,jsons/v1_VE1000_randls_37.json,http://54.235.29.9/FacialAge/BNav_EC2/DepthDuration/v2_depth_duration_MTurk/v2_DepthDuration_HTML.html#11,11,1366,625,1366,768,8-22-2022,5-14-13,88,depth_duration_stimuli/002678_2014-06-13_16-15-32_094959634447_rgbf000151-resize_6/002678_2014-06-13_16-15-32_094959634447_rgbf000151-resize_6-target.png,1000,2.1830000000000003,1,4269,985,meters,jsons/v1_VE1000_randls_37.json,630927,817950,24,Woman
88,750706,DepthScenes,duration_manipulation_targetAtFixation,jsons/v1_VE1000_randls_37.json,http://54.235.29.9/FacialAge/BNav_EC2/DepthDuration/v2_depth_duration_MTurk/v2_DepthDuration_HTML.html#11,11,1366,625,1366,768,8-22-2022,5-14-13,89,depth_duration_stimuli/002964_2014-06-08_17-46-11_094959634447_rgbf000091-resize_4/002964_2014-06-08_17-46-11_094959634447_rgbf000091-resize_4-target.png,1000,1.6909999999999998,1,4939,1000,meters,jsons/v1_VE1000_randls_37.json,630927,817950,24,Woman
89,750706,DepthScenes,duration_manipulation_targetAtFixation,jsons/v1_VE1000_randls_37.json,http://54.235.29.9/FacialAge/BNav_EC2/DepthDuration/v2_depth_duration_MTurk/v2_DepthDuration_HTML.html#11,11,1366,625,1366,768,8-22-2022,5-14-13,90,depth_duration_stimuli/002136_2014-06-25_21-18-03_260595134347_rgbf000109-resize_3/002136_2014-06-25_21-18-03_260595134347_rgbf000109-resize_3-target.png,1000,1.9569999999999999,1,2867,999,meters,jsons/v1_VE1000_randls_37.json,630927,817950,24,Woman
90,750706,DepthScenes,duration_manipulation_targetAtFixation,jsons/v1_VE1000_randls_37.json,http://54.235.29.9/FacialAge/BNav_EC2/DepthDuration/v2_depth_duration_MTurk/v2_DepthDuration_HTML.html#11,11,1366,625,1366,768,8-22-2022,5-14-13,91,depth_duration_stimuli/001244_2014-06-17_16-47-45_260595134347_rgbf000030-resize_4/001244_2014-06-17_16-47-45_260595134347_rgbf000030-resize_4-target.png,1000,2.0425,1,4364,1000,meters,jsons/v1_VE1000_randls_37.json,630927,817950,24,Woman
91,750706,DepthScenes,duration_manipulation_targetAtFixation,jsons/v1_VE1000_randls_37.json,http://54.235.29.9/FacialAge/BNav_EC2/DepthDuration/v2_depth_duration_MTurk/v2_DepthDuration_HTML.html#11,11,1366,625,1366,768,8-22-2022,5-14-13,92,depth_duration_stimuli/003495_2014-05-21_16-01-51_094959634447_rgbf000100-resize_3/003495_2014-05-21_16-01-51_094959634447_rgbf000100-resize_3-target.png,1000,1.6255,1,2955,1005,meters,jsons/v1_VE1000_randls_37.json,630927,817950,24,Woman
92,750706,DepthScenes,duration_manipulation_targetAtFixation,jsons/v1_VE1000_randls_37.json,http://54.235.29.9/FacialAge/BNav_EC2/DepthDuration/v2_depth_duration_MTurk/v2_DepthDuration_HTML.html#11,11,1366,625,1366,768,8-22-2022,5-14-13,93,depth_duration_stimuli/002375_2014-06-28_20-13-44_260595134347_rgbf000032-resize_1/002375_2014-06-28_20-13-44_260595134347_rgbf000032-resize_1-target.png,1000,4.0175,1,2540,999,meters,jsons/v1_VE1000_randls_37.json,630927,817950,24,Woman
93,750706,DepthScenes,duration_manipulation_targetAtFixation,jsons/v1_VE1000_randls_37.json,http://54.235.29.9/FacialAge/BNav_EC2/DepthDuration/v2_depth_duration_MTurk/v2_DepthDuration_HTML.html#11,11,1366,625,1366,768,8-22-2022,5-14-13,94,depth_duration_stimuli/002657_2014-06-13_15-29-54_094959634447_rgbf000150-resize_1/002657_2014-06-13_15-29-54_094959634447_rgbf000150-resize_1-target.png,1000,4.919,1,2908,993,meters,jsons/v1_VE1000_randls_37.json,630927,817950,24,Woman
94,750706,DepthScenes,duration_manipulation_targetAtFixation,jsons/v1_VE1000_randls_37.json,http://54.235.29.9/FacialAge/BNav_EC2/DepthDuration/v2_depth_duration_MTurk/v2_DepthDuration_HTML.html#11,11,1366,625,1366,768,8-22-2022,5-14-13,95,depth_duration_stimuli/003534_2014-05-22_15-06-10_094959634447_rgbf000102-resize_4/003534_2014-05-22_15-06-10_094959634447_rgbf000102-resize_4-target.png,1000,1.426,1,2892,1000,meters,jsons/v1_VE1000_randls_37.json,630927,817950,24,Woman
95,750706,DepthScenes,duration_manipulation_targetAtFixation,jsons/v1_VE1000_randls_37.json,http://54.235.29.9/FacialAge/BNav_EC2/DepthDuration/v2_depth_duration_MTurk/v2_DepthDuration_HTML.html#11,11,1366,625,1366,768,8-22-2022,5-14-13,96,depth_duration_stimuli/002637_2014-06-24_14-51-13_094959634447_rgbf000066-resize_4/002637_2014-06-24_14-51-13_094959634447_rgbf000066-resize_4-target.png,1000,1.9955,1,3140,1013,meters,jsons/v1_VE1000_randls_37.json,630927,817950,24,Woman
96,750706,DepthScenes,duration_manipulation_targetAtFixation,jsons/v1_VE1000_randls_37.json,http://54.235.29.9/FacialAge/BNav_EC2/DepthDuration/v2_depth_duration_MTurk/v2_DepthDuration_HTML.html#11,11,1366,625,1366,768,8-22-2022,5-14-13,97,depth_duration_stimuli/001449_2014-06-19_17-01-27_260595134347_rgbf000116-resize_2/001449_2014-06-19_17-01-27_260595134347_rgbf000116-resize_2-target.png,1000,3.452,1,2655,988,meters,jsons/v1_VE1000_randls_37.json,630927,817950,24,Woman
97,750706,DepthScenes,duration_manipulation_targetAtFixation,jsons/v1_VE1000_randls_37.json,http://54.235.29.9/FacialAge/BNav_EC2/DepthDuration/v2_depth_duration_MTurk/v2_DepthDuration_HTML.html#11,11,1366,625,1366,768,8-22-2022,5-14-13,98,depth_duration_stimuli/001450_2014-06-19_17-02-03_260595134347_rgbf000203-resize_4/001450_2014-06-19_17-02-03_260595134347_rgbf000203-resize_4-target.png,1000,4.0106666666667,1,3163,1000,meters,jsons/v1_VE1000_randls_37.json,630927,817950,24,Woman
98,750706,DepthScenes,duration_manipulation_targetAtFixation,jsons/v1_VE1000_randls_37.json,http://54.235.29.9/FacialAge/BNav_EC2/DepthDuration/v2_depth_duration_MTurk/v2_DepthDuration_HTML.html#11,11,1366,625,1366,768,8-22-2022,5-14-13,99,depth_duration_stimuli/001540_2014-06-20_17-01-05_260595134347_rgbf000086-resize_2/001540_2014-06-20_17-01-05_260595134347_rgbf000086-resize-original.jpg,1000,1.459,0,3292,999,meters,jsons/v1_VE1000_randls_37.json,630927,817950,24,Woman
99,750706,DepthScenes,duration_manipulation_targetAtFixation,jsons/v1_VE1000_randls_37.json,http://54.235.29.9/FacialAge/BNav_EC2/DepthDuration/v2_depth_duration_MTurk/v2_DepthDuration_HTML.html#11,11,1366,625,1366,768,8-22-2022,5-14-13,100,depth_duration_stimuli/000788_2014-06-08_22-34-36_260595134347_rgbf000131-resize_1/000788_2014-06-08_22-34-36_260595134347_rgbf000131-resize_1-target.png,1000,3.359,1,3154,989,meters,jsons/v1_VE1000_randls_37.json,630927,817950,24,Woman
100,750706,DepthScenes,duration_manipulation_targetAtFixation,jsons/v1_VE1000_randls_37.json,http://54.235.29.9/FacialAge/BNav_EC2/DepthDuration/v2_depth_duration_MTurk/v2_DepthDuration_HTML.html#11,11,1366,625,1366,768,8-22-2022,5-14-13,101,depth_duration_stimuli/001235_2014-06-17_16-37-36_260595134347_rgbf000084-resize_4/001235_2014-06-17_16-37-36_260595134347_rgbf000084-resize_4-target.png,1000,3.6605,1,2531,1013,meters,jsons/v1_VE1000_randls_37.json,630927,817950,24,Woman
101,750706,DepthScenes,duration_manipulation_targetAtFixation,jsons/v1_VE1000_randls_37.json,http://54.235.29.9/FacialAge/BNav_EC2/DepthDuration/v2_depth_duration_MTurk/v2_DepthDuration_HTML.html#11,11,1366,625,1366,768,8-22-2022,5-14-13,102,depth_duration_stimuli/001417_2014-06-19_16-25-36_260595134347_rgbf000115-resize_5/001417_2014-06-19_16-25-36_260595134347_rgbf000115-resize_5-target.png,1000,4.6255,1,2891,1000,meters,jsons/v1_VE1000_randls_37.json,630927,817950,24,Woman
102,750706,DepthScenes,duration_manipulation_targetAtFixation,jsons/v1_VE1000_randls_37.json,http://54.235.29.9/FacialAge/BNav_EC2/DepthDuration/v2_depth_duration_MTurk/v2_DepthDuration_HTML.html#11,11,1366,625,1366,768,8-22-2022,5-14-13,103,depth_duration_stimuli/003081_2014-06-15_15-19-16_094959634447_rgbf000150-resize_1/003081_2014-06-15_15-19-16_094959634447_rgbf000150-resize_1-target.png,1000,3.9125,1,3123,1000,meters,jsons/v1_VE1000_randls_37.json,630927,817950,24,Woman
103,750706,DepthScenes,duration_manipulation_targetAtFixation,jsons/v1_VE1000_randls_37.json,http://54.235.29.9/FacialAge/BNav_EC2/DepthDuration/v2_depth_duration_MTurk/v2_DepthDuration_HTML.html#11,11,1366,625,1366,768,8-22-2022,5-14-13,104,depth_duration_stimuli/000878_2014-06-08_22-52-45_260595134347_rgbf000045-resize_2/000878_2014-06-08_22-52-45_260595134347_rgbf000045-resize_2-target.png,1000,2.092,1,3139,1003,meters,jsons/v1_VE1000_randls_37.json,630927,817950,24,Woman
104,750706,DepthScenes,duration_manipulation_targetAtFixation,jsons/v1_VE1000_randls_37.json,http://54.235.29.9/FacialAge/BNav_EC2/DepthDuration/v2_depth_duration_MTurk/v2_DepthDuration_HTML.html#11,11,1366,625,1366,768,8-22-2022,5-14-13,105,depth_duration_stimuli/002953_2014-06-08_17-32-18_094959634447_rgbf000059-resize_5/002953_2014-06-08_17-32-18_094959634447_rgbf000059-resize_5-target.png,1000,1.551,1,2607,998,meters,jsons/v1_VE1000_randls_37.json,630927,817950,24,Woman
105,750706,DepthScenes,duration_manipulation_targetAtFixation,jsons/v1_VE1000_randls_37.json,http://54.235.29.9/FacialAge/BNav_EC2/DepthDuration/v2_depth_duration_MTurk/v2_DepthDuration_HTML.html#11,11,1366,625,1366,768,8-22-2022,5-14-13,106,depth_duration_stimuli/000736_2014-06-08_18-24-15_260595134347_rgbf000206-resize_3/000736_2014-06-08_18-24-15_260595134347_rgbf000206-resize_3-target.png,1000,3.515,1,2836,1002,meters,jsons/v1_VE1000_randls_37.json,630927,817950,24,Woman
106,750706,DepthScenes,duration_manipulation_targetAtFixation,jsons/v1_VE1000_randls_37.json,http://54.235.29.9/FacialAge/BNav_EC2/DepthDuration/v2_depth_duration_MTurk/v2_DepthDuration_HTML.html#11,11,1366,625,1366,768,8-22-2022,5-14-13,107,depth_duration_stimuli/000137_2014-05-20_17-04-49_260595134347_rgbf000120-resize_1/000137_2014-05-20_17-04-49_260595134347_rgbf000120-resize_1-target.png,1000,3.786,1,3139,1011,meters,jsons/v1_VE1000_randls_37.json,630927,817950,24,Woman
107,750706,DepthScenes,duration_manipulation_targetAtFixation,jsons/v1_VE1000_randls_37.json,http://54.235.29.9/FacialAge/BNav_EC2/DepthDuration/v2_depth_duration_MTurk/v2_DepthDuration_HTML.html#11,11,1366,625,1366,768,8-22-2022,5-14-13,108,depth_duration_stimuli/001055_2014-06-08_18-45-35_260595134347_rgbf000111-resize_4/001055_2014-06-08_18-45-35_260595134347_rgbf000111-resize_4-target.png,1000,2.4290000000000003,1,21491,1009,meters,jsons/v1_VE1000_randls_37.json,630927,817950,24,Woman
108,750706,DepthScenes,duration_manipulation_targetAtFixation,jsons/v1_VE1000_randls_37.json,http://54.235.29.9/FacialAge/BNav_EC2/DepthDuration/v2_depth_duration_MTurk/v2_DepthDuration_HTML.html#11,11,1366,625,1366,768,8-22-2022,5-14-13,109,depth_duration_stimuli/000549_2014-06-08_22-10-24_260595134347_rgbf000247-resize_3/000549_2014-06-08_22-10-24_260595134347_rgbf000247-resize_3-target.png,1000,1.841,1,2499,1000,meters,jsons/v1_VE1000_randls_37.json,630927,817950,24,Woman
109,750706,DepthScenes,duration_manipulation_targetAtFixation,jsons/v1_VE1000_randls_37.json,http://54.235.29.9/FacialAge/BNav_EC2/DepthDuration/v2_depth_duration_MTurk/v2_DepthDuration_HTML.html#11,11,1366,625,1366,768,8-22-2022,5-14-13,110,depth_duration_stimuli/000486_2014-06-09_20-47-20_260595134347_rgbf000143-resize_2/000486_2014-06-09_20-47-20_260595134347_rgbf000143-resize_2-target.png,1000,4.8325,1,3436,1002,meters,jsons/v1_VE1000_randls_37.json,630927,817950,24,Woman
110,750706,DepthScenes,duration_manipulation_targetAtFixation,jsons/v1_VE1000_randls_37.json,http://54.235.29.9/FacialAge/BNav_EC2/DepthDuration/v2_depth_duration_MTurk/v2_DepthDuration_HTML.html#11,11,1366,625,1366,768,8-22-2022,5-14-13,111,depth_duration_stimuli/003083_2014-06-15_15-21-03_094959634447_rgbf000063-resize_1/003083_2014-06-15_15-21-03_094959634447_rgbf000063-resize_1-target.png,1000,4.1405,1,2363,999,meters,jsons/v1_VE1000_randls_37.json,630927,817950,24,Woman
111,750706,DepthScenes,duration_manipulation_targetAtFixation,jsons/v1_VE1000_randls_37.json,http://54.235.29.9/FacialAge/BNav_EC2/DepthDuration/v2_depth_duration_MTurk/v2_DepthDuration_HTML.html#11,11,1366,625,1366,768,8-22-2022,5-14-13,112,depth_duration_stimuli/002788_2014-06-22_19-36-03_094959634447_rgbf000088-resize_2/002788_2014-06-22_19-36-03_094959634447_rgbf000088-resize_2-target.png,1000,1.6465,1,3379,1000,meters,jsons/v1_VE1000_randls_37.json,630927,817950,24,Woman
112,750706,DepthScenes,duration_manipulation_targetAtFixation,jsons/v1_VE1000_randls_37.json,http://54.235.29.9/FacialAge/BNav_EC2/DepthDuration/v2_depth_duration_MTurk/v2_DepthDuration_HTML.html#11,11,1366,625,1366,768,8-22-2022,5-14-13,113,depth_duration_stimuli/000749_2014-06-08_21-55-06_260595134347_rgbf000070-resize_2/000749_2014-06-08_21-55-06_260595134347_rgbf000070-resize_2-target.png,1000,2.331,1,2760,988,meters,jsons/v1_VE1000_randls_37.json,630927,817950,24,Woman
113,750706,DepthScenes,duration_manipulation_targetAtFixation,jsons/v1_VE1000_randls_37.json,http://54.235.29.9/FacialAge/BNav_EC2/DepthDuration/v2_depth_duration_MTurk/v2_DepthDuration_HTML.html#11,11,1366,625,1366,768,8-22-2022,5-14-13,114,depth_duration_stimuli/000414_2014-06-04_19-49-13_260595134347_rgbf000044-resize_0/000414_2014-06-04_19-49-13_260595134347_rgbf000044-resize_0-target.png,1000,4.329,1,2433,997,meters,jsons/v1_VE1000_randls_37.json,630927,817950,24,Woman
114,750706,DepthScenes,duration_manipulation_targetAtFixation,jsons/v1_VE1000_randls_37.json,http://54.235.29.9/FacialAge/BNav_EC2/DepthDuration/v2_depth_duration_MTurk/v2_DepthDuration_HTML.html#11,11,1366,625,1366,768,8-22-2022,5-14-13,115,depth_duration_stimuli/003129_2014-05-12_10-48-10_094959634447_rgbf000100-resize_0/003129_2014-05-12_10-48-10_094959634447_rgbf000100-resize_0-target.png,1000,4.9305,1,2968,996,meters,jsons/v1_VE1000_randls_37.json,630927,817950,24,Woman
115,750706,DepthScenes,duration_manipulation_targetAtFixation,jsons/v1_VE1000_randls_37.json,http://54.235.29.9/FacialAge/BNav_EC2/DepthDuration/v2_depth_duration_MTurk/v2_DepthDuration_HTML.html#11,11,1366,625,1366,768,8-22-2022,5-14-13,116,depth_duration_stimuli/001170_2014-06-17_15-43-44_260595134347_rgbf000096-resize_6/001170_2014-06-17_15-43-44_260595134347_rgbf000096-resize-original.jpg,1000,1.1909999999999998,0,4027,1000,meters,jsons/v1_VE1000_randls_37.json,630927,817950,24,Woman
116,750706,DepthScenes,duration_manipulation_targetAtFixation,jsons/v1_VE1000_randls_37.json,http://54.235.29.9/FacialAge/BNav_EC2/DepthDuration/v2_depth_duration_MTurk/v2_DepthDuration_HTML.html#11,11,1366,625,1366,768,8-22-2022,5-14-13,117,depth_duration_stimuli/002763_2014-06-22_19-13-10_094959634447_rgbf000075-resize_4/002763_2014-06-22_19-13-10_094959634447_rgbf000075-resize_4-target.png,1000,1.68375,1,8775,1948,meters,jsons/v1_VE1000_randls_37.json,630927,817950,24,Woman
117,750706,DepthScenes,duration_manipulation_targetAtFixation,jsons/v1_VE1000_randls_37.json,http://54.235.29.9/FacialAge/BNav_EC2/DepthDuration/v2_depth_duration_MTurk/v2_DepthDuration_HTML.html#11,11,1366,625,1366,768,8-22-2022,5-14-13,118,depth_duration_stimuli/002209_2014-06-28_18-36-10_260595134347_rgbf000051-resize_1/002209_2014-06-28_18-36-10_260595134347_rgbf000051-resize_1-target.png,1000,2.057,1,2603,1000,meters,jsons/v1_VE1000_randls_37.json,630927,817950,24,Woman
118,750706,DepthScenes,duration_manipulation_targetAtFixation,jsons/v1_VE1000_randls_37.json,http://54.235.29.9/FacialAge/BNav_EC2/DepthDuration/v2_depth_duration_MTurk/v2_DepthDuration_HTML.html#11,11,1366,625,1366,768,8-22-2022,5-14-13,119,depth_duration_stimuli/000436_2014-06-09_22-25-11_260595134347_rgbf000137-resize_1/000436_2014-06-09_22-25-11_260595134347_rgbf000137-resize_1-target.png,1000,4.0705,1,3046,994,meters,jsons/v1_VE1000_randls_37.json,630927,817950,24,Woman
119,750706,DepthScenes,duration_manipulation_targetAtFixation,jsons/v1_VE1000_randls_37.json,http://54.235.29.9/FacialAge/BNav_EC2/DepthDuration/v2_depth_duration_MTurk/v2_DepthDuration_HTML.html#11,11,1366,625,1366,768,8-22-2022,5-14-13,120,depth_duration_stimuli/002444_2014-06-28_20-32-08_260595134347_rgbf000027-resize_0/002444_2014-06-28_20-32-08_260595134347_rgbf000027-resize_0-target.png,1000,4.388999999999999,1,2542,998,meters,jsons/v1_VE1000_randls_37.json,630927,817950,24,Woman
120,750706,DepthScenes,duration_manipulation_targetAtFixation,jsons/v1_VE1000_randls_37.json,http://54.235.29.9/FacialAge/BNav_EC2/DepthDuration/v2_depth_duration_MTurk/v2_DepthDuration_HTML.html#11,11,1366,625,1366,768,8-22-2022,5-14-13,121,depth_duration_stimuli/002570_2014-06-24_13-59-54_094959634447_rgbf000059-resize_0/002570_2014-06-24_13-59-54_094959634447_rgbf000059-resize_0-target.png,1000,4.037,1,2364,1000,meters,jsons/v1_VE1000_randls_37.json,630927,817950,24,Woman
121,750706,DepthScenes,duration_manipulation_targetAtFixation,jsons/v1_VE1000_randls_37.json,http://54.235.29.9/FacialAge/BNav_EC2/DepthDuration/v2_depth_duration_MTurk/v2_DepthDuration_HTML.html#11,11,1366,625,1366,768,8-22-2022,5-14-13,122,depth_duration_stimuli/002467_2014-06-28_20-38-07_260595134347_rgbf000026-resize_2/002467_2014-06-28_20-38-07_260595134347_rgbf000026-resize_2-target.png,1000,4.742,1,3298,975,meters,jsons/v1_VE1000_randls_37.json,630927,817950,24,Woman
122,750706,DepthScenes,duration_manipulation_targetAtFixation,jsons/v1_VE1000_randls_37.json,http://54.235.29.9/FacialAge/BNav_EC2/DepthDuration/v2_depth_duration_MTurk/v2_DepthDuration_HTML.html#11,11,1366,625,1366,768,8-22-2022,5-14-13,123,depth_duration_stimuli/003621_2014-05-23_18-06-08_094959634447_rgbf000101-resize_1/003621_2014-05-23_18-06-08_094959634447_rgbf000101-resize_1-target.png,1000,3.9835,1,3780,1013,meters,jsons/v1_VE1000_randls_37.json,630927,817950,24,Woman
123,750706,DepthScenes,duration_manipulation_targetAtFixation,jsons/v1_VE1000_randls_37.json,http://54.235.29.9/FacialAge/BNav_EC2/DepthDuration/v2_depth_duration_MTurk/v2_DepthDuration_HTML.html#11,11,1366,625,1366,768,8-22-2022,5-14-13,124,depth_duration_stimuli/001584_2014-06-20_11-07-43_260595134347_rgbf000002-resize_1/001584_2014-06-20_11-07-43_260595134347_rgbf000002-resize_1-target.png,1000,3.53,1,2571,1001,meters,jsons/v1_VE1000_randls_37.json,630927,817950,24,Woman
124,750706,DepthScenes,duration_manipulation_targetAtFixation,jsons/v1_VE1000_randls_37.json,http://54.235.29.9/FacialAge/BNav_EC2/DepthDuration/v2_depth_duration_MTurk/v2_DepthDuration_HTML.html#11,11,1366,625,1366,768,8-22-2022,5-14-13,125,depth_duration_stimuli/001555_2014-06-20_17-12-10_260595134347_rgbf000065-resize_4/001555_2014-06-20_17-12-10_260595134347_rgbf000065-resize_4-target.png,1000,1.633,1,2597,994,meters,jsons/v1_VE1000_randls_37.json,630927,817950,24,Woman
125,750706,DepthScenes,duration_manipulation_targetAtFixation,jsons/v1_VE1000_randls_37.json,http://54.235.29.9/FacialAge/BNav_EC2/DepthDuration/v2_depth_duration_MTurk/v2_DepthDuration_HTML.html#11,11,1366,625,1366,768,8-22-2022,5-14-13,126,depth_duration_stimuli/000103_2014-05-14_22-01-17_260595134347_rgbf000152-resize_5/000103_2014-05-14_22-01-17_260595134347_rgbf000152-resize_5-target.png,1000,1.993,1,2331,1003,meters,jsons/v1_VE1000_randls_37.json,630927,817950,24,Woman
126,750706,DepthScenes,duration_manipulation_targetAtFixation,jsons/v1_VE1000_randls_37.json,http://54.235.29.9/FacialAge/BNav_EC2/DepthDuration/v2_depth_duration_MTurk/v2_DepthDuration_HTML.html#11,11,1366,625,1366,768,8-22-2022,5-14-13,127,depth_duration_stimuli/002630_2014-06-24_14-47-50_094959634447_rgbf000055-resize_1/002630_2014-06-24_14-47-50_094959634447_rgbf000055-resize_1-target.png,1000,3.0095,1,2964,987,meters,jsons/v1_VE1000_randls_37.json,630927,817950,24,Woman
127,750706,DepthScenes,duration_manipulation_targetAtFixation,jsons/v1_VE1000_randls_37.json,http://54.235.29.9/FacialAge/BNav_EC2/DepthDuration/v2_depth_duration_MTurk/v2_DepthDuration_HTML.html#11,11,1366,625,1366,768,8-22-2022,5-14-13,128,depth_duration_stimuli/002758_2014-06-22_19-11-20_094959634447_rgbf000128-resize_1/002758_2014-06-22_19-11-20_094959634447_rgbf000128-resize_1-target.png,1000,2.555,1,5288,996,meters,jsons/v1_VE1000_randls_37.json,630927,817950,24,Woman
128,750706,DepthScenes,duration_manipulation_targetAtFixation,jsons/v1_VE1000_randls_37.json,http://54.235.29.9/FacialAge/BNav_EC2/DepthDuration/v2_depth_duration_MTurk/v2_DepthDuration_HTML.html#11,11,1366,625,1366,768,8-22-2022,5-14-13,129,depth_duration_stimuli/001110_2014-06-15_17-25-28_260595134347_rgbf000150-resize_1/001110_2014-06-15_17-25-28_260595134347_rgbf000150-resize_1-target.png,1000,1.7115,1,4579,1003,meters,jsons/v1_VE1000_randls_37.json,630927,817950,24,Woman
129,750706,DepthScenes,duration_manipulation_targetAtFixation,jsons/v1_VE1000_randls_37.json,http://54.235.29.9/FacialAge/BNav_EC2/DepthDuration/v2_depth_duration_MTurk/v2_DepthDuration_HTML.html#11,11,1366,625,1366,768,8-22-2022,5-14-13,130,depth_duration_stimuli/000927_2014-06-09_16-32-30_260595134347_rgbf000123-resize_3/000927_2014-06-09_16-32-30_260595134347_rgbf000123-resize_3-target.png,1000,2.6785,1,4679,989,meters,jsons/v1_VE1000_randls_37.json,630927,817950,24,Woman
130,750706,DepthScenes,duration_manipulation_targetAtFixation,jsons/v1_VE1000_randls_37.json,http://54.235.29.9/FacialAge/BNav_EC2/DepthDuration/v2_depth_duration_MTurk/v2_DepthDuration_HTML.html#11,11,1366,625,1366,768,8-22-2022,5-14-13,131,depth_duration_stimuli/000470_2014-06-09_19-42-40_260595134347_rgbf000094-resize_1/000470_2014-06-09_19-42-40_260595134347_rgbf000094-resize_1-target.png,1000,1.831,1,5437,993,meters,jsons/v1_VE1000_randls_37.json,630927,817950,24,Woman
131,750706,DepthScenes,duration_manipulation_targetAtFixation,jsons/v1_VE1000_randls_37.json,http://54.235.29.9/FacialAge/BNav_EC2/DepthDuration/v2_depth_duration_MTurk/v2_DepthDuration_HTML.html#11,11,1366,625,1366,768,8-22-2022,5-14-13,132,depth_duration_stimuli/000109_2014-05-14_23-41-52_260595134347_rgbf000035-resize_9/000109_2014-05-14_23-41-52_260595134347_rgbf000035-resize_9-target.png,1000,1.3545,1,9273,999,meters,jsons/v1_VE1000_randls_37.json,630927,817950,24,Woman
132,750706,DepthScenes,duration_manipulation_targetAtFixation,jsons/v1_VE1000_randls_37.json,http://54.235.29.9/FacialAge/BNav_EC2/DepthDuration/v2_depth_duration_MTurk/v2_DepthDuration_HTML.html#11,11,1366,625,1366,768,8-22-2022,5-14-13,133,depth_duration_stimuli/003492_2014-05-21_15-50-55_094959634447_rgbf000828-resize_1/003492_2014-05-21_15-50-55_094959634447_rgbf000828-resize_1-target.png,1000,4.06875,1,10879,1004,meters,jsons/v1_VE1000_randls_37.json,630927,817950,24,Woman
133,750706,DepthScenes,duration_manipulation_targetAtFixation,jsons/v1_VE1000_randls_37.json,http://54.235.29.9/FacialAge/BNav_EC2/DepthDuration/v2_depth_duration_MTurk/v2_DepthDuration_HTML.html#11,11,1366,625,1366,768,8-22-2022,5-14-13,134,depth_duration_stimuli/002568_2014-06-24_13-59-21_094959634447_rgbf000062-resize_4/002568_2014-06-24_13-59-21_094959634447_rgbf000062-resize_4-target.png,1000,3.015,1,7153,1002,meters,jsons/v1_VE1000_randls_37.json,630927,817950,24,Woman
134,750706,DepthScenes,duration_manipulation_targetAtFixation,jsons/v1_VE1000_randls_37.json,http://54.235.29.9/FacialAge/BNav_EC2/DepthDuration/v2_depth_duration_MTurk/v2_DepthDuration_HTML.html#11,11,1366,625,1366,768,8-22-2022,5-14-13,135,depth_duration_stimuli/002072_2014-06-24_21-48-06_260595134347_rgbf000115-resize_0/002072_2014-06-24_21-48-06_260595134347_rgbf000115-resize-original.jpg,1000,4.702,0,4306,998,meters,jsons/v1_VE1000_randls_37.json,630927,817950,24,Woman
135,750706,DepthScenes,duration_manipulation_targetAtFixation,jsons/v1_VE1000_randls_37.json,http://54.235.29.9/FacialAge/BNav_EC2/DepthDuration/v2_depth_duration_MTurk/v2_DepthDuration_HTML.html#11,11,1366,625,1366,768,8-22-2022,5-14-13,136,depth_duration_stimuli/000692_2014-06-08_13-09-42_260595134347_rgbf000199-resize_2/000692_2014-06-08_13-09-42_260595134347_rgbf000199-resize_2-target.png,1000,3.661,1,14243,1011,meters,jsons/v1_VE1000_randls_37.json,630927,817950,24,Woman
136,750706,DepthScenes,duration_manipulation_targetAtFixation,jsons/v1_VE1000_randls_37.json,http://54.235.29.9/FacialAge/BNav_EC2/DepthDuration/v2_depth_duration_MTurk/v2_DepthDuration_HTML.html#11,11,1366,625,1366,768,8-22-2022,5-14-13,137,depth_duration_stimuli/001094_2014-06-15_17-36-00_260595134347_rgbf000205-resize_0/001094_2014-06-15_17-36-00_260595134347_rgbf000205-resize_0-target.png,1000,4.2175,1,4970,1002,meters,jsons/v1_VE1000_randls_37.json,630927,817950,24,Woman
137,750706,DepthScenes,duration_manipulation_targetAtFixation,jsons/v1_VE1000_randls_37.json,http://54.235.29.9/FacialAge/BNav_EC2/DepthDuration/v2_depth_duration_MTurk/v2_DepthDuration_HTML.html#11,11,1366,625,1366,768,8-22-2022,5-14-13,138,depth_duration_stimuli/001164_2014-06-17_15-35-46_260595134347_rgbf000085-resize_3/001164_2014-06-17_15-35-46_260595134347_rgbf000085-resize_3-target.png,1000,2.354,1,3867,1000,meters,jsons/v1_VE1000_randls_37.json,630927,817950,24,Woman
138,750706,DepthScenes,duration_manipulation_targetAtFixation,jsons/v1_VE1000_randls_37.json,http://54.235.29.9/FacialAge/BNav_EC2/DepthDuration/v2_depth_duration_MTurk/v2_DepthDuration_HTML.html#11,11,1366,625,1366,768,8-22-2022,5-14-13,139,depth_duration_stimuli/001136_2014-06-17_15-19-41_260595134347_rgbf000076-resize_3/001136_2014-06-17_15-19-41_260595134347_rgbf000076-resize_3-target.png,1000,1.8655,1,3734,994,meters,jsons/v1_VE1000_randls_37.json,630927,817950,24,Woman
139,750706,DepthScenes,duration_manipulation_targetAtFixation,jsons/v1_VE1000_randls_37.json,http://54.235.29.9/FacialAge/BNav_EC2/DepthDuration/v2_depth_duration_MTurk/v2_DepthDuration_HTML.html#11,11,1366,625,1366,768,8-22-2022,5-14-13,140,depth_duration_stimuli/002725_2014-06-22_11-47-51_094959634447_rgbf000070-resize_1/002725_2014-06-22_11-47-51_094959634447_rgbf000070-resize_1-target.png,1000,2.195,1,2899,1000,meters,jsons/v1_VE1000_randls_37.json,630927,817950,24,Woman
140,750706,DepthScenes,duration_manipulation_targetAtFixation,jsons/v1_VE1000_randls_37.json,http://54.235.29.9/FacialAge/BNav_EC2/DepthDuration/v2_depth_duration_MTurk/v2_DepthDuration_HTML.html#11,11,1366,625,1366,768,8-22-2022,5-14-13,141,depth_duration_stimuli/002344_2014-06-28_20-06-29_260595134347_rgbf000030-resize_1/002344_2014-06-28_20-06-29_260595134347_rgbf000030-resize_1-target.png,1000,1.5795,1,2931,1008,meters,jsons/v1_VE1000_randls_37.json,630927,817950,24,Woman
141,750706,DepthScenes,duration_manipulation_targetAtFixation,jsons/v1_VE1000_randls_37.json,http://54.235.29.9/FacialAge/BNav_EC2/DepthDuration/v2_depth_duration_MTurk/v2_DepthDuration_HTML.html#11,11,1366,625,1366,768,8-22-2022,5-14-13,142,depth_duration_stimuli/000929_2014-06-09_16-33-19_260595134347_rgbf000139-resize_0/000929_2014-06-09_16-33-19_260595134347_rgbf000139-resize_0-target.png,1000,2.8680000000000003,1,2584,988,meters,jsons/v1_VE1000_randls_37.json,630927,817950,24,Woman
142,750706,DepthScenes,duration_manipulation_targetAtFixation,jsons/v1_VE1000_randls_37.json,http://54.235.29.9/FacialAge/BNav_EC2/DepthDuration/v2_depth_duration_MTurk/v2_DepthDuration_HTML.html#11,11,1366,625,1366,768,8-22-2022,5-14-13,143,depth_duration_stimuli/000457_2014-06-08_16-52-43_260595134347_rgbf000199-resize_1/000457_2014-06-08_16-52-43_260595134347_rgbf000199-resize_1-target.png,1000,3.6489999999999996,1,3434,998,meters,jsons/v1_VE1000_randls_37.json,630927,817950,24,Woman
143,750706,DepthScenes,duration_manipulation_targetAtFixation,jsons/v1_VE1000_randls_37.json,http://54.235.29.9/FacialAge/BNav_EC2/DepthDuration/v2_depth_duration_MTurk/v2_DepthDuration_HTML.html#11,11,1366,625,1366,768,8-22-2022,5-14-13,144,depth_duration_stimuli/002445_2014-06-28_20-32-16_260595134347_rgbf000029-resize_4/002445_2014-06-28_20-32-16_260595134347_rgbf000029-resize_4-target.png,1000,2.5315,1,2908,1002,meters,jsons/v1_VE1000_randls_37.json,630927,817950,24,Woman
144,750706,DepthScenes,duration_manipulation_targetAtFixation,jsons/v1_VE1000_randls_37.json,http://54.235.29.9/FacialAge/BNav_EC2/DepthDuration/v2_depth_duration_MTurk/v2_DepthDuration_HTML.html#11,11,1366,625,1366,768,8-22-2022,5-14-13,145,depth_duration_stimuli/000780_2014-06-08_22-28-29_260595134347_rgbf000126-resize_1/000780_2014-06-08_22-28-29_260595134347_rgbf000126-resize_1-target.png,1000,3.3825,1,2432,988,meters,jsons/v1_VE1000_randls_37.json,630927,817950,24,Woman
145,750706,DepthScenes,duration_manipulation_targetAtFixation,jsons/v1_VE1000_randls_37.json,http://54.235.29.9/FacialAge/BNav_EC2/DepthDuration/v2_depth_duration_MTurk/v2_DepthDuration_HTML.html#11,11,1366,625,1366,768,8-22-2022,5-14-13,146,depth_duration_stimuli/001498_2014-06-19_17-45-14_260595134347_rgbf000129-resize_4/001498_2014-06-19_17-45-14_260595134347_rgbf000129-resize-original.jpg,1000,1.4075,0,4424,989,meters,jsons/v1_VE1000_randls_37.json,630927,817950,24,Woman
146,750706,DepthScenes,duration_manipulation_targetAtFixation,jsons/v1_VE1000_randls_37.json,http://54.235.29.9/FacialAge/BNav_EC2/DepthDuration/v2_depth_duration_MTurk/v2_DepthDuration_HTML.html#11,11,1366,625,1366,768,8-22-2022,5-14-13,147,depth_duration_stimuli/001175_2014-06-17_15-45-55_260595134347_rgbf000129-resize_4/001175_2014-06-17_15-45-55_260595134347_rgbf000129-resize_4-target.png,1000,4.255,1,3070,994,meters,jsons/v1_VE1000_randls_37.json,630927,817950,24,Woman
147,750706,DepthScenes,duration_manipulation_targetAtFixation,jsons/v1_VE1000_randls_37.json,http://54.235.29.9/FacialAge/BNav_EC2/DepthDuration/v2_depth_duration_MTurk/v2_DepthDuration_HTML.html#11,11,1366,625,1366,768,8-22-2022,5-14-13,148,depth_duration_stimuli/003490_2014-05-21_15-50-11_094959634447_rgbf000101-resize_3/003490_2014-05-21_15-50-11_094959634447_rgbf000101-resize_3-target.png,1000,3.6445,1,2954,999,meters,jsons/v1_VE1000_randls_37.json,630927,817950,24,Woman
148,750706,DepthScenes,duration_manipulation_targetAtFixation,jsons/v1_VE1000_randls_37.json,http://54.235.29.9/FacialAge/BNav_EC2/DepthDuration/v2_depth_duration_MTurk/v2_DepthDuration_HTML.html#11,11,1366,625,1366,768,8-22-2022,5-14-13,149,depth_duration_stimuli/003070_2014-06-15_14-58-27_094959634447_rgbf000150-resize_3/003070_2014-06-15_14-58-27_094959634447_rgbf000150-resize_3-target.png,1000,2.9415,1,2651,999,meters,jsons/v1_VE1000_randls_37.json,630927,817950,24,Woman
149,750706,DepthScenes,duration_manipulation_targetAtFixation,jsons/v1_VE1000_randls_37.json,http://54.235.29.9/FacialAge/BNav_EC2/DepthDuration/v2_depth_duration_MTurk/v2_DepthDuration_HTML.html#11,11,1366,625,1366,768,8-22-2022,5-14-13,150,depth_duration_stimuli/000943_2014-06-09_19-31-07_260595134347_rgbf000128-resize_1/000943_2014-06-09_19-31-07_260595134347_rgbf000128-resize_1-target.png,1000,1.9765,1,2491,1000,meters,jsons/v1_VE1000_randls_37.json,630927,817950,24,Woman
150,750706,DepthScenes,duration_manipulation_targetAtFixation,jsons/v1_VE1000_randls_37.json,http://54.235.29.9/FacialAge/BNav_EC2/DepthDuration/v2_depth_duration_MTurk/v2_DepthDuration_HTML.html#11,11,1366,625,1366,768,8-22-2022,5-14-13,151,depth_duration_stimuli/001133_2014-06-17_14-49-16_260595134347_rgbf000100-resize_0/001133_2014-06-17_14-49-16_260595134347_rgbf000100-resize_0-target.png,1000,4.2115,1,2477,985,meters,jsons/v1_VE1000_randls_37.json,630927,817950,24,Woman
151,750706,DepthScenes,duration_manipulation_targetAtFixation,jsons/v1_VE1000_randls_37.json,http://54.235.29.9/FacialAge/BNav_EC2/DepthDuration/v2_depth_duration_MTurk/v2_DepthDuration_HTML.html#11,11,1366,625,1366,768,8-22-2022,5-14-13,152,depth_duration_stimuli/001132_2014-06-17_14-48-54_260595134347_rgbf000100-resize_2/001132_2014-06-17_14-48-54_260595134347_rgbf000100-resize_2-target.png,1000,3.753,1,2977,990,meters,jsons/v1_VE1000_randls_37.json,630927,817950,24,Woman
152,750706,DepthScenes,duration_manipulation_targetAtFixation,jsons/v1_VE1000_randls_37.json,http://54.235.29.9/FacialAge/BNav_EC2/DepthDuration/v2_depth_duration_MTurk/v2_DepthDuration_HTML.html#11,11,1366,625,1366,768,8-22-2022,5-14-13,153,depth_duration_stimuli/001810_2014-06-26_20-51-35_260595134347_rgbf000040-resize_3/001810_2014-06-26_20-51-35_260595134347_rgbf000040-resize_3-target.png,1000,2.2525,1,2847,990,meters,jsons/v1_VE1000_randls_37.json,630927,817950,24,Woman
153,750706,DepthScenes,duration_manipulation_targetAtFixation,jsons/v1_VE1000_randls_37.json,http://54.235.29.9/FacialAge/BNav_EC2/DepthDuration/v2_depth_duration_MTurk/v2_DepthDuration_HTML.html#11,11,1366,625,1366,768,8-22-2022,5-14-13,154,depth_duration_stimuli/003010_2014-06-15_12-54-35_094959634447_rgbf000112-resize_0/003010_2014-06-15_12-54-35_094959634447_rgbf000112-resize_0-target.png,1000,3.1185,0,4051,1000,meters,jsons/v1_VE1000_randls_37.json,630927,817950,24,Woman
154,750706,DepthScenes,duration_manipulation_targetAtFixation,jsons/v1_VE1000_randls_37.json,http://54.235.29.9/FacialAge/BNav_EC2/DepthDuration/v2_depth_duration_MTurk/v2_DepthDuration_HTML.html#11,11,1366,625,1366,768,8-22-2022,5-14-13,155,depth_duration_stimuli/000642_2014-06-08_16-59-25_260595134347_rgbf000098-resize_2/000642_2014-06-08_16-59-25_260595134347_rgbf000098-resize_2-target.png,1000,2.8815,1,2965,993,meters,jsons/v1_VE1000_randls_37.json,630927,817950,24,Woman
155,750706,DepthScenes,duration_manipulation_targetAtFixation,jsons/v1_VE1000_randls_37.json,http://54.235.29.9/FacialAge/BNav_EC2/DepthDuration/v2_depth_duration_MTurk/v2_DepthDuration_HTML.html#11,11,1366,625,1366,768,8-22-2022,5-14-13,156,depth_duration_stimuli/002425_2014-06-28_20-27-29_260595134347_rgbf000031-resize_8/002425_2014-06-28_20-27-29_260595134347_rgbf000031-resize_8-target.png,1000,3.8960000000000004,1,3417,1000,meters,jsons/v1_VE1000_randls_37.json,630927,817950,24,Woman
156,750706,DepthScenes,duration_manipulation_targetAtFixation,jsons/v1_VE1000_randls_37.json,http://54.235.29.9/FacialAge/BNav_EC2/DepthDuration/v2_depth_duration_MTurk/v2_DepthDuration_HTML.html#11,11,1366,625,1366,768,8-22-2022,5-14-13,157,depth_duration_stimuli/002905_2014-06-03_18-04-43_094959634447_rgbf000151-resize_2/002905_2014-06-03_18-04-43_094959634447_rgbf000151-resize_2-target.png,1000,2.0295,1,2859,1000,meters,jsons/v1_VE1000_randls_37.json,630927,817950,24,Woman
157,750706,DepthScenes,duration_manipulation_targetAtFixation,jsons/v1_VE1000_randls_37.json,http://54.235.29.9/FacialAge/BNav_EC2/DepthDuration/v2_depth_duration_MTurk/v2_DepthDuration_HTML.html#11,11,1366,625,1366,768,8-22-2022,5-14-13,158,depth_duration_stimuli/003423_2014-05-21_10-23-26_094959634447_rgbf002665-resize_2/003423_2014-05-21_10-23-26_094959634447_rgbf002665-resize_2-target.png,1000,3.2575,1,2801,989,meters,jsons/v1_VE1000_randls_37.json,630927,817950,24,Woman
158,750706,DepthScenes,duration_manipulation_targetAtFixation,jsons/v1_VE1000_randls_37.json,http://54.235.29.9/FacialAge/BNav_EC2/DepthDuration/v2_depth_duration_MTurk/v2_DepthDuration_HTML.html#11,11,1366,625,1366,768,8-22-2022,5-14-13,159,depth_duration_stimuli/001056_2014-06-08_18-46-44_260595134347_rgbf000068-resize_0/001056_2014-06-08_18-46-44_260595134347_rgbf000068-resize_0-target.png,1000,2.6625,1,2590,994,meters,jsons/v1_VE1000_randls_37.json,630927,817950,24,Woman
159,750706,DepthScenes,duration_manipulation_targetAtFixation,jsons/v1_VE1000_randls_37.json,http://54.235.29.9/FacialAge/BNav_EC2/DepthDuration/v2_depth_duration_MTurk/v2_DepthDuration_HTML.html#11,11,1366,625,1366,768,8-22-2022,5-14-13,160,depth_duration_stimuli/002199_2014-06-28_18-33-56_260595134347_rgbf000074-resize_0/002199_2014-06-28_18-33-56_260595134347_rgbf000074-resize_0-target.png,1000,1.996,1,2715,1000,meters,jsons/v1_VE1000_randls_37.json,630927,817950,24,Woman
160,750706,DepthScenes,duration_manipulation_targetAtFixation,jsons/v1_VE1000_randls_37.json,http://54.235.29.9/FacialAge/BNav_EC2/DepthDuration/v2_depth_duration_MTurk/v2_DepthDuration_HTML.html#11,11,1366,625,1366,768,8-22-2022,5-14-13,161,depth_duration_stimuli/002043_2014-06-24_20-29-38_260595134347_rgbf000039-resize_4/002043_2014-06-24_20-29-38_260595134347_rgbf000039-resize_4-target.png,1000,2.8435,1,2660,1000,meters,jsons/v1_VE1000_randls_37.json,630927,817950,24,Woman
161,750706,DepthScenes,duration_manipulation_targetAtFixation,jsons/v1_VE1000_randls_37.json,http://54.235.29.9/FacialAge/BNav_EC2/DepthDuration/v2_depth_duration_MTurk/v2_DepthDuration_HTML.html#11,11,1366,625,1366,768,8-22-2022,5-14-13,162,depth_duration_stimuli/003048_2014-06-15_13-49-43_094959634447_rgbf000150-resize_1/003048_2014-06-15_13-49-43_094959634447_rgbf000150-resize_1-target.png,1000,4.0035,1,2607,991,meters,jsons/v1_VE1000_randls_37.json,630927,817950,24,Woman
162,750706,DepthScenes,duration_manipulation_targetAtFixation,jsons/v1_VE1000_randls_37.json,http://54.235.29.9/FacialAge/BNav_EC2/DepthDuration/v2_depth_duration_MTurk/v2_DepthDuration_HTML.html#11,11,1366,625,1366,768,8-22-2022,5-14-13,163,depth_duration_stimuli/000493_2014-06-09_21-01-18_260595134347_rgbf000196-resize_3/000493_2014-06-09_21-01-18_260595134347_rgbf000196-resize_3-target.png,1000,3.44,1,2990,1000,meters,jsons/v1_VE1000_randls_37.json,630927,817950,24,Woman
163,750706,DepthScenes,duration_manipulation_targetAtFixation,jsons/v1_VE1000_randls_37.json,http://54.235.29.9/FacialAge/BNav_EC2/DepthDuration/v2_depth_duration_MTurk/v2_DepthDuration_HTML.html#11,11,1366,625,1366,768,8-22-2022,5-14-13,164,depth_duration_stimuli/000191_2014-05-12_17-07-38_260595134347_rgbf000199-resize_0/000191_2014-05-12_17-07-38_260595134347_rgbf000199-resize_0-target.png,1000,3.7995,1,2935,995,meters,jsons/v1_VE1000_randls_37.json,630927,817950,24,Woman
