,subjID,experimentName,versionName,sequenceName,url,selected_row,windowWidth,windowHeight,screenWidth,screenHeight,startDate,startTime,trial,stimulus,duration,actual_depth,depth_estimate,trial_RT,log_sceneDuration,unitSelection,seq_filepath,experimentTime,totalTime,age,gender
0,751099,DepthScenes,duration_manipulation_targetAtFixation,jsons/VE125_randls_21_rotated.json,http://54.235.29.9/FacialAge/BNav_EC2/DepthDuration/v2_depth_duration_MTurk/v2_DepthDuration_HTML.html#272,272,1745,982,1920,1080,8-29-2022,11-52-21,1,depth_duration_stimuli/002949_2014-06-26_15-57-42_094959634447_rgbf000079-resize_1/002949_2014-06-26_15-57-42_094959634447_rgbf000079-resize_1-target.png,125,1.8915,5.0,3336,124,feet,jsons/VE125_randls_21_rotated.json,566376,769984,36,Man
1,751099,DepthScenes,duration_manipulation_targetAtFixation,jsons/VE125_randls_21_rotated.json,http://54.235.29.9/FacialAge/BNav_EC2/DepthDuration/v2_depth_duration_MTurk/v2_DepthDuration_HTML.html#272,272,1745,982,1920,1080,8-29-2022,11-52-21,2,depth_duration_stimuli/000522_2014-06-08_13-35-06_260595134347_rgbf000244-resize_1/000522_2014-06-08_13-35-06_260595134347_rgbf000244-resize_1-target.png,125,2.3715,0.0,4626,124,feet,jsons/VE125_randls_21_rotated.json,566376,769984,36,Man
2,751099,DepthScenes,duration_manipulation_targetAtFixation,jsons/VE125_randls_21_rotated.json,http://54.235.29.9/FacialAge/BNav_EC2/DepthDuration/v2_depth_duration_MTurk/v2_DepthDuration_HTML.html#272,272,1745,982,1920,1080,8-29-2022,11-52-21,3,depth_duration_stimuli/003129_2014-05-12_10-48-10_094959634447_rgbf000100-resize_0/003129_2014-05-12_10-48-10_094959634447_rgbf000100-resize_0-target.png,125,4.9305,11.0,4940,124,feet,jsons/VE125_randls_21_rotated.json,566376,769984,36,Man
3,751099,DepthScenes,duration_manipulation_targetAtFixation,jsons/VE125_randls_21_rotated.json,http://54.235.29.9/FacialAge/BNav_EC2/DepthDuration/v2_depth_duration_MTurk/v2_DepthDuration_HTML.html#272,272,1745,982,1920,1080,8-29-2022,11-52-21,4,depth_duration_stimuli/000414_2014-06-04_19-49-13_260595134347_rgbf000044-resize_0/000414_2014-06-04_19-49-13_260595134347_rgbf000044-resize_0-target.png,125,4.329,9.0,3206,124,feet,jsons/VE125_randls_21_rotated.json,566376,769984,36,Man
4,751099,DepthScenes,duration_manipulation_targetAtFixation,jsons/VE125_randls_21_rotated.json,http://54.235.29.9/FacialAge/BNav_EC2/DepthDuration/v2_depth_duration_MTurk/v2_DepthDuration_HTML.html#272,272,1745,982,1920,1080,8-29-2022,11-52-21,5,depth_duration_stimuli/000635_2014-06-08_16-38-42_260595134347_rgbf000106-resize_1/000635_2014-06-08_16-38-42_260595134347_rgbf000106-resize_1-target.png,125,2.074,6.0,4622,124,feet,jsons/VE125_randls_21_rotated.json,566376,769984,36,Man
5,751099,DepthScenes,duration_manipulation_targetAtFixation,jsons/VE125_randls_21_rotated.json,http://54.235.29.9/FacialAge/BNav_EC2/DepthDuration/v2_depth_duration_MTurk/v2_DepthDuration_HTML.html#272,272,1745,982,1920,1080,8-29-2022,11-52-21,6,depth_duration_stimuli/002279_2014-06-28_18-55-32_260595134347_rgbf000040-resize_5/002279_2014-06-28_18-55-32_260595134347_rgbf000040-resize_5-target.png,125,1.5043333333333,4.0,3483,124,feet,jsons/VE125_randls_21_rotated.json,566376,769984,36,Man
6,751099,DepthScenes,duration_manipulation_targetAtFixation,jsons/VE125_randls_21_rotated.json,http://54.235.29.9/FacialAge/BNav_EC2/DepthDuration/v2_depth_duration_MTurk/v2_DepthDuration_HTML.html#272,272,1745,982,1920,1080,8-29-2022,11-52-21,7,depth_duration_stimuli/000457_2014-06-08_16-52-43_260595134347_rgbf000199-resize_1/000457_2014-06-08_16-52-43_260595134347_rgbf000199-resize_1-target.png,125,3.6489999999999996,7.5,5493,124,feet,jsons/VE125_randls_21_rotated.json,566376,769984,36,Man
7,751099,DepthScenes,duration_manipulation_targetAtFixation,jsons/VE125_randls_21_rotated.json,http://54.235.29.9/FacialAge/BNav_EC2/DepthDuration/v2_depth_duration_MTurk/v2_DepthDuration_HTML.html#272,272,1745,982,1920,1080,8-29-2022,11-52-21,8,depth_duration_stimuli/000929_2014-06-09_16-33-19_260595134347_rgbf000139-resize_0/000929_2014-06-09_16-33-19_260595134347_rgbf000139-resize_0-target.png,125,2.8680000000000003,8.0,3843,125,feet,jsons/VE125_randls_21_rotated.json,566376,769984,36,Man
8,751099,DepthScenes,duration_manipulation_targetAtFixation,jsons/VE125_randls_21_rotated.json,http://54.235.29.9/FacialAge/BNav_EC2/DepthDuration/v2_depth_duration_MTurk/v2_DepthDuration_HTML.html#272,272,1745,982,1920,1080,8-29-2022,11-52-21,9,depth_duration_stimuli/001214_2014-06-17_16-13-55_260595134347_rgbf000111-resize_0/001214_2014-06-17_16-13-55_260595134347_rgbf000111-resize_0-target.png,125,2.6505,6.0,3481,124,feet,jsons/VE125_randls_21_rotated.json,566376,769984,36,Man
9,751099,DepthScenes,duration_manipulation_targetAtFixation,jsons/VE125_randls_21_rotated.json,http://54.235.29.9/FacialAge/BNav_EC2/DepthDuration/v2_depth_duration_MTurk/v2_DepthDuration_HTML.html#272,272,1745,982,1920,1080,8-29-2022,11-52-21,10,depth_duration_stimuli/000810_2014-06-08_17-20-01_260595134347_rgbf000105-resize_0/000810_2014-06-08_17-20-01_260595134347_rgbf000105-resize_0-target.png,125,1.4865,7.0,3858,124,feet,jsons/VE125_randls_21_rotated.json,566376,769984,36,Man
10,751099,DepthScenes,duration_manipulation_targetAtFixation,jsons/VE125_randls_21_rotated.json,http://54.235.29.9/FacialAge/BNav_EC2/DepthDuration/v2_depth_duration_MTurk/v2_DepthDuration_HTML.html#272,272,1745,982,1920,1080,8-29-2022,11-52-21,11,depth_duration_stimuli/002758_2014-06-22_19-11-20_094959634447_rgbf000128-resize_1/002758_2014-06-22_19-11-20_094959634447_rgbf000128-resize_1-target.png,125,2.555,5.5,4326,124,feet,jsons/VE125_randls_21_rotated.json,566376,769984,36,Man
11,751099,DepthScenes,duration_manipulation_targetAtFixation,jsons/VE125_randls_21_rotated.json,http://54.235.29.9/FacialAge/BNav_EC2/DepthDuration/v2_depth_duration_MTurk/v2_DepthDuration_HTML.html#272,272,1745,982,1920,1080,8-29-2022,11-52-21,12,depth_duration_stimuli/002630_2014-06-24_14-47-50_094959634447_rgbf000055-resize_1/002630_2014-06-24_14-47-50_094959634447_rgbf000055-resize_1-target.png,125,3.0095,17.0,4685,124,feet,jsons/VE125_randls_21_rotated.json,566376,769984,36,Man
12,751099,DepthScenes,duration_manipulation_targetAtFixation,jsons/VE125_randls_21_rotated.json,http://54.235.29.9/FacialAge/BNav_EC2/DepthDuration/v2_depth_duration_MTurk/v2_DepthDuration_HTML.html#272,272,1745,982,1920,1080,8-29-2022,11-52-21,13,depth_duration_stimuli/000502_2014-06-08_23-02-32_260595134347_rgbf000063-resize_4/000502_2014-06-08_23-02-32_260595134347_rgbf000063-resize_4-target.png,125,2.431,5.0,3381,124,feet,jsons/VE125_randls_21_rotated.json,566376,769984,36,Man
13,751099,DepthScenes,duration_manipulation_targetAtFixation,jsons/VE125_randls_21_rotated.json,http://54.235.29.9/FacialAge/BNav_EC2/DepthDuration/v2_depth_duration_MTurk/v2_DepthDuration_HTML.html#272,272,1745,982,1920,1080,8-29-2022,11-52-21,14,depth_duration_stimuli/001199_2014-06-17_16-03-48_260595134347_rgbf000077-resize_0/001199_2014-06-17_16-03-48_260595134347_rgbf000077-resize_0-target.png,125,3.4375,12.0,3041,124,feet,jsons/VE125_randls_21_rotated.json,566376,769984,36,Man
14,751099,DepthScenes,duration_manipulation_targetAtFixation,jsons/VE125_randls_21_rotated.json,http://54.235.29.9/FacialAge/BNav_EC2/DepthDuration/v2_depth_duration_MTurk/v2_DepthDuration_HTML.html#272,272,1745,982,1920,1080,8-29-2022,11-52-21,15,depth_duration_stimuli/001094_2014-06-15_17-36-00_260595134347_rgbf000205-resize_0/001094_2014-06-15_17-36-00_260595134347_rgbf000205-resize_0-target.png,125,4.2175,14.0,4776,124,feet,jsons/VE125_randls_21_rotated.json,566376,769984,36,Man
15,751099,DepthScenes,duration_manipulation_targetAtFixation,jsons/VE125_randls_21_rotated.json,http://54.235.29.9/FacialAge/BNav_EC2/DepthDuration/v2_depth_duration_MTurk/v2_DepthDuration_HTML.html#272,272,1745,982,1920,1080,8-29-2022,11-52-21,16,depth_duration_stimuli/000692_2014-06-08_13-09-42_260595134347_rgbf000199-resize_2/000692_2014-06-08_13-09-42_260595134347_rgbf000199-resize_2-target.png,125,3.661,16.0,4971,124,feet,jsons/VE125_randls_21_rotated.json,566376,769984,36,Man
16,751099,DepthScenes,duration_manipulation_targetAtFixation,jsons/VE125_randls_21_rotated.json,http://54.235.29.9/FacialAge/BNav_EC2/DepthDuration/v2_depth_duration_MTurk/v2_DepthDuration_HTML.html#272,272,1745,982,1920,1080,8-29-2022,11-52-21,17,depth_duration_stimuli/001100_2014-06-15_17-46-26_260595134347_rgbf000225-resize_2/001100_2014-06-15_17-46-26_260595134347_rgbf000225-resize_2-target.png,125,2.24,4.0,3372,125,feet,jsons/VE125_randls_21_rotated.json,566376,769984,36,Man
17,751099,DepthScenes,duration_manipulation_targetAtFixation,jsons/VE125_randls_21_rotated.json,http://54.235.29.9/FacialAge/BNav_EC2/DepthDuration/v2_depth_duration_MTurk/v2_DepthDuration_HTML.html#272,272,1745,982,1920,1080,8-29-2022,11-52-21,18,depth_duration_stimuli/002784_2014-06-22_19-26-30_094959634447_rgbf000083-resize_3/002784_2014-06-22_19-26-30_094959634447_rgbf000083-resize_3-target.png,125,1.8046666666667,4.5,3939,125,feet,jsons/VE125_randls_21_rotated.json,566376,769984,36,Man
18,751099,DepthScenes,duration_manipulation_targetAtFixation,jsons/VE125_randls_21_rotated.json,http://54.235.29.9/FacialAge/BNav_EC2/DepthDuration/v2_depth_duration_MTurk/v2_DepthDuration_HTML.html#272,272,1745,982,1920,1080,8-29-2022,11-52-21,19,depth_duration_stimuli/001498_2014-06-19_17-45-14_260595134347_rgbf000129-resize_4/001498_2014-06-19_17-45-14_260595134347_rgbf000129-resize-original.jpg,125,1.4075,0.0,2510,124,feet,jsons/VE125_randls_21_rotated.json,566376,769984,36,Man
19,751099,DepthScenes,duration_manipulation_targetAtFixation,jsons/VE125_randls_21_rotated.json,http://54.235.29.9/FacialAge/BNav_EC2/DepthDuration/v2_depth_duration_MTurk/v2_DepthDuration_HTML.html#272,272,1745,982,1920,1080,8-29-2022,11-52-21,20,depth_duration_stimuli/003079_2014-06-15_15-18-20_094959634447_rgbf000152-resize_8/003079_2014-06-15_15-18-20_094959634447_rgbf000152-resize_8-target.png,125,2.8775,9.0,2787,123,feet,jsons/VE125_randls_21_rotated.json,566376,769984,36,Man
20,751099,DepthScenes,duration_manipulation_targetAtFixation,jsons/VE125_randls_21_rotated.json,http://54.235.29.9/FacialAge/BNav_EC2/DepthDuration/v2_depth_duration_MTurk/v2_DepthDuration_HTML.html#272,272,1745,982,1920,1080,8-29-2022,11-52-21,21,depth_duration_stimuli/000506_2014-06-08_23-21-00_260595134347_rgbf000070-resize_7/000506_2014-06-08_23-21-00_260595134347_rgbf000070-resize_7-target.png,125,4.0585,8.0,2407,124,feet,jsons/VE125_randls_21_rotated.json,566376,769984,36,Man
21,751099,DepthScenes,duration_manipulation_targetAtFixation,jsons/VE125_randls_21_rotated.json,http://54.235.29.9/FacialAge/BNav_EC2/DepthDuration/v2_depth_duration_MTurk/v2_DepthDuration_HTML.html#272,272,1745,982,1920,1080,8-29-2022,11-52-21,22,depth_duration_stimuli/001617_2014-06-20_11-35-32_260595134347_rgbf000066-resize_1/001617_2014-06-20_11-35-32_260595134347_rgbf000066-resize_1-target.png,125,3.7910000000000004,15.0,2876,124,feet,jsons/VE125_randls_21_rotated.json,566376,769984,36,Man
22,751099,DepthScenes,duration_manipulation_targetAtFixation,jsons/VE125_randls_21_rotated.json,http://54.235.29.9/FacialAge/BNav_EC2/DepthDuration/v2_depth_duration_MTurk/v2_DepthDuration_HTML.html#272,272,1745,982,1920,1080,8-29-2022,11-52-21,23,depth_duration_stimuli/001806_2014-06-26_20-50-20_260595134347_rgbf000091-resize_1/001806_2014-06-26_20-50-20_260595134347_rgbf000091-resize_1-target.png,125,2.7305,5.4,4898,124,feet,jsons/VE125_randls_21_rotated.json,566376,769984,36,Man
23,751099,DepthScenes,duration_manipulation_targetAtFixation,jsons/VE125_randls_21_rotated.json,http://54.235.29.9/FacialAge/BNav_EC2/DepthDuration/v2_depth_duration_MTurk/v2_DepthDuration_HTML.html#272,272,1745,982,1920,1080,8-29-2022,11-52-21,24,depth_duration_stimuli/000691_2014-06-08_13-08-50_260595134347_rgbf000132-resize_3/000691_2014-06-08_13-08-50_260595134347_rgbf000132-resize_3-target.png,125,4.1530000000000005,8.5,3579,124,feet,jsons/VE125_randls_21_rotated.json,566376,769984,36,Man
24,751099,DepthScenes,duration_manipulation_targetAtFixation,jsons/VE125_randls_21_rotated.json,http://54.235.29.9/FacialAge/BNav_EC2/DepthDuration/v2_depth_duration_MTurk/v2_DepthDuration_HTML.html#272,272,1745,982,1920,1080,8-29-2022,11-52-21,25,depth_duration_stimuli/002213_2014-06-28_18-37-58_260595134347_rgbf000055-resize_1/002213_2014-06-28_18-37-58_260595134347_rgbf000055-resize_1-target.png,125,3.62,15.0,4402,124,feet,jsons/VE125_randls_21_rotated.json,566376,769984,36,Man
25,751099,DepthScenes,duration_manipulation_targetAtFixation,jsons/VE125_randls_21_rotated.json,http://54.235.29.9/FacialAge/BNav_EC2/DepthDuration/v2_depth_duration_MTurk/v2_DepthDuration_HTML.html#272,272,1745,982,1920,1080,8-29-2022,11-52-21,26,depth_duration_stimuli/003048_2014-06-15_13-49-43_094959634447_rgbf000150-resize_1/003048_2014-06-15_13-49-43_094959634447_rgbf000150-resize_1-target.png,125,4.0035,9.0,3072,124,feet,jsons/VE125_randls_21_rotated.json,566376,769984,36,Man
26,751099,DepthScenes,duration_manipulation_targetAtFixation,jsons/VE125_randls_21_rotated.json,http://54.235.29.9/FacialAge/BNav_EC2/DepthDuration/v2_depth_duration_MTurk/v2_DepthDuration_HTML.html#272,272,1745,982,1920,1080,8-29-2022,11-52-21,27,depth_duration_stimuli/002043_2014-06-24_20-29-38_260595134347_rgbf000039-resize_4/002043_2014-06-24_20-29-38_260595134347_rgbf000039-resize_4-target.png,125,2.8435,7.0,2774,124,feet,jsons/VE125_randls_21_rotated.json,566376,769984,36,Man
27,751099,DepthScenes,duration_manipulation_targetAtFixation,jsons/VE125_randls_21_rotated.json,http://54.235.29.9/FacialAge/BNav_EC2/DepthDuration/v2_depth_duration_MTurk/v2_DepthDuration_HTML.html#272,272,1745,982,1920,1080,8-29-2022,11-52-21,28,depth_duration_stimuli/003083_2014-06-15_15-21-03_094959634447_rgbf000063-resize_1/003083_2014-06-15_15-21-03_094959634447_rgbf000063-resize_1-target.png,125,4.1405,14.0,2838,123,feet,jsons/VE125_randls_21_rotated.json,566376,769984,36,Man
28,751099,DepthScenes,duration_manipulation_targetAtFixation,jsons/VE125_randls_21_rotated.json,http://54.235.29.9/FacialAge/BNav_EC2/DepthDuration/v2_depth_duration_MTurk/v2_DepthDuration_HTML.html#272,272,1745,982,1920,1080,8-29-2022,11-52-21,29,depth_duration_stimuli/000486_2014-06-09_20-47-20_260595134347_rgbf000143-resize_2/000486_2014-06-09_20-47-20_260595134347_rgbf000143-resize_2-target.png,125,4.8325,12.0,3705,124,feet,jsons/VE125_randls_21_rotated.json,566376,769984,36,Man
29,751099,DepthScenes,duration_manipulation_targetAtFixation,jsons/VE125_randls_21_rotated.json,http://54.235.29.9/FacialAge/BNav_EC2/DepthDuration/v2_depth_duration_MTurk/v2_DepthDuration_HTML.html#272,272,1745,982,1920,1080,8-29-2022,11-52-21,30,depth_duration_stimuli/002072_2014-06-24_21-48-06_260595134347_rgbf000115-resize_0/002072_2014-06-24_21-48-06_260595134347_rgbf000115-resize-original.jpg,125,4.702,0.0,2631,124,feet,jsons/VE125_randls_21_rotated.json,566376,769984,36,Man
30,751099,DepthScenes,duration_manipulation_targetAtFixation,jsons/VE125_randls_21_rotated.json,http://54.235.29.9/FacialAge/BNav_EC2/DepthDuration/v2_depth_duration_MTurk/v2_DepthDuration_HTML.html#272,272,1745,982,1920,1080,8-29-2022,11-52-21,31,depth_duration_stimuli/003081_2014-06-15_15-19-16_094959634447_rgbf000150-resize_1/003081_2014-06-15_15-19-16_094959634447_rgbf000150-resize_1-target.png,125,3.9125,12.0,3458,124,feet,jsons/VE125_randls_21_rotated.json,566376,769984,36,Man
31,751099,DepthScenes,duration_manipulation_targetAtFixation,jsons/VE125_randls_21_rotated.json,http://54.235.29.9/FacialAge/BNav_EC2/DepthDuration/v2_depth_duration_MTurk/v2_DepthDuration_HTML.html#272,272,1745,982,1920,1080,8-29-2022,11-52-21,32,depth_duration_stimuli/001417_2014-06-19_16-25-36_260595134347_rgbf000115-resize_5/001417_2014-06-19_16-25-36_260595134347_rgbf000115-resize_5-target.png,125,4.6255,13.0,4046,124,feet,jsons/VE125_randls_21_rotated.json,566376,769984,36,Man
32,751099,DepthScenes,duration_manipulation_targetAtFixation,jsons/VE125_randls_21_rotated.json,http://54.235.29.9/FacialAge/BNav_EC2/DepthDuration/v2_depth_duration_MTurk/v2_DepthDuration_HTML.html#272,272,1745,982,1920,1080,8-29-2022,11-52-21,33,depth_duration_stimuli/002805_2014-06-22_19-54-03_094959634447_rgbf000079-resize_1/002805_2014-06-22_19-54-03_094959634447_rgbf000079-resize_1-target.png,125,3.1439999999999997,7.0,2779,124,feet,jsons/VE125_randls_21_rotated.json,566376,769984,36,Man
33,751099,DepthScenes,duration_manipulation_targetAtFixation,jsons/VE125_randls_21_rotated.json,http://54.235.29.9/FacialAge/BNav_EC2/DepthDuration/v2_depth_duration_MTurk/v2_DepthDuration_HTML.html#272,272,1745,982,1920,1080,8-29-2022,11-52-21,34,depth_duration_stimuli/000906_2014-06-08_13-35-43_260595134347_rgbf000155-resize_1/000906_2014-06-08_13-35-43_260595134347_rgbf000155-resize_1-target.png,125,2.8489999999999998,12.0,2468,124,feet,jsons/VE125_randls_21_rotated.json,566376,769984,36,Man
34,751099,DepthScenes,duration_manipulation_targetAtFixation,jsons/VE125_randls_21_rotated.json,http://54.235.29.9/FacialAge/BNav_EC2/DepthDuration/v2_depth_duration_MTurk/v2_DepthDuration_HTML.html#272,272,1745,982,1920,1080,8-29-2022,11-52-21,35,depth_duration_stimuli/000677_2014-06-08_23-10-32_260595134347_rgbf000158-resize_6/000677_2014-06-08_23-10-32_260595134347_rgbf000158-resize_6-target.png,125,3.556,8.0,2548,124,feet,jsons/VE125_randls_21_rotated.json,566376,769984,36,Man
35,751099,DepthScenes,duration_manipulation_targetAtFixation,jsons/VE125_randls_21_rotated.json,http://54.235.29.9/FacialAge/BNav_EC2/DepthDuration/v2_depth_duration_MTurk/v2_DepthDuration_HTML.html#272,272,1745,982,1920,1080,8-29-2022,11-52-21,36,depth_duration_stimuli/001029_2014-06-08_13-17-57_260595134347_rgbf000065-resize_1/001029_2014-06-08_13-17-57_260595134347_rgbf000065-resize_1-target.png,125,3.0835,9.0,2489,125,feet,jsons/VE125_randls_21_rotated.json,566376,769984,36,Man
36,751099,DepthScenes,duration_manipulation_targetAtFixation,jsons/VE125_randls_21_rotated.json,http://54.235.29.9/FacialAge/BNav_EC2/DepthDuration/v2_depth_duration_MTurk/v2_DepthDuration_HTML.html#272,272,1745,982,1920,1080,8-29-2022,11-52-21,37,depth_duration_stimuli/000866_2014-06-09_20-45-42_260595134347_rgbf000139-resize_1/000866_2014-06-09_20-45-42_260595134347_rgbf000139-resize_1-target.png,125,3.2155,5.0,2313,124,feet,jsons/VE125_randls_21_rotated.json,566376,769984,36,Man
37,751099,DepthScenes,duration_manipulation_targetAtFixation,jsons/VE125_randls_21_rotated.json,http://54.235.29.9/FacialAge/BNav_EC2/DepthDuration/v2_depth_duration_MTurk/v2_DepthDuration_HTML.html#272,272,1745,982,1920,1080,8-29-2022,11-52-21,38,depth_duration_stimuli/002989_2014-06-15_12-25-03_094959634447_rgbf000150-resize_3/002989_2014-06-15_12-25-03_094959634447_rgbf000150-resize_3-target.png,125,4.1975,14.0,3600,125,feet,jsons/VE125_randls_21_rotated.json,566376,769984,36,Man
38,751099,DepthScenes,duration_manipulation_targetAtFixation,jsons/VE125_randls_21_rotated.json,http://54.235.29.9/FacialAge/BNav_EC2/DepthDuration/v2_depth_duration_MTurk/v2_DepthDuration_HTML.html#272,272,1745,982,1920,1080,8-29-2022,11-52-21,39,depth_duration_stimuli/002995_2014-06-15_12-31-26_094959634447_rgbf000150-resize_1/002995_2014-06-15_12-31-26_094959634447_rgbf000150-resize_1-target.png,125,3.8360000000000003,12.0,2893,124,feet,jsons/VE125_randls_21_rotated.json,566376,769984,36,Man
39,751099,DepthScenes,duration_manipulation_targetAtFixation,jsons/VE125_randls_21_rotated.json,http://54.235.29.9/FacialAge/BNav_EC2/DepthDuration/v2_depth_duration_MTurk/v2_DepthDuration_HTML.html#272,272,1745,982,1920,1080,8-29-2022,11-52-21,40,depth_duration_stimuli/002748_2014-06-22_19-07-22_094959634447_rgbf000078-resize_1/002748_2014-06-22_19-07-22_094959634447_rgbf000078-resize_1-target.png,125,4.6705,16.0,4060,124,feet,jsons/VE125_randls_21_rotated.json,566376,769984,36,Man
40,751099,DepthScenes,duration_manipulation_targetAtFixation,jsons/VE125_randls_21_rotated.json,http://54.235.29.9/FacialAge/BNav_EC2/DepthDuration/v2_depth_duration_MTurk/v2_DepthDuration_HTML.html#272,272,1745,982,1920,1080,8-29-2022,11-52-21,41,depth_duration_stimuli/003587_2014-05-23_16-48-02_094959634447_rgbf002384-resize_2/003587_2014-05-23_16-48-02_094959634447_rgbf002384-resize_2-target.png,125,1.357,3.0,2883,124,feet,jsons/VE125_randls_21_rotated.json,566376,769984,36,Man
41,751099,DepthScenes,duration_manipulation_targetAtFixation,jsons/VE125_randls_21_rotated.json,http://54.235.29.9/FacialAge/BNav_EC2/DepthDuration/v2_depth_duration_MTurk/v2_DepthDuration_HTML.html#272,272,1745,982,1920,1080,8-29-2022,11-52-21,42,depth_duration_stimuli/001167_2014-06-17_15-38-07_260595134347_rgbf000108-resize_0/001167_2014-06-17_15-38-07_260595134347_rgbf000108-resize_0-target.png,125,1.8505,3.5,3202,124,feet,jsons/VE125_randls_21_rotated.json,566376,769984,36,Man
42,751099,DepthScenes,duration_manipulation_targetAtFixation,jsons/VE125_randls_21_rotated.json,http://54.235.29.9/FacialAge/BNav_EC2/DepthDuration/v2_depth_duration_MTurk/v2_DepthDuration_HTML.html#272,272,1745,982,1920,1080,8-29-2022,11-52-21,43,depth_duration_stimuli/002323_2014-06-28_20-01-54_260595134347_rgbf000051-resize_4/002323_2014-06-28_20-01-54_260595134347_rgbf000051-resize_4-target.png,125,3.7310000000000003,10.0,2429,124,feet,jsons/VE125_randls_21_rotated.json,566376,769984,36,Man
43,751099,DepthScenes,duration_manipulation_targetAtFixation,jsons/VE125_randls_21_rotated.json,http://54.235.29.9/FacialAge/BNav_EC2/DepthDuration/v2_depth_duration_MTurk/v2_DepthDuration_HTML.html#272,272,1745,982,1920,1080,8-29-2022,11-52-21,44,depth_duration_stimuli/000917_2014-06-09_22-45-29_260595134347_rgbf000149-resize_3/000917_2014-06-09_22-45-29_260595134347_rgbf000149-resize_3-target.png,125,4.1865,11.0,3059,123,feet,jsons/VE125_randls_21_rotated.json,566376,769984,36,Man
44,751099,DepthScenes,duration_manipulation_targetAtFixation,jsons/VE125_randls_21_rotated.json,http://54.235.29.9/FacialAge/BNav_EC2/DepthDuration/v2_depth_duration_MTurk/v2_DepthDuration_HTML.html#272,272,1745,982,1920,1080,8-29-2022,11-52-21,45,depth_duration_stimuli/000409_2014-06-04_19-23-33_260595134347_rgbf000067-resize_0/000409_2014-06-04_19-23-33_260595134347_rgbf000067-resize_0-target.png,125,3.7335,8.5,5039,124,feet,jsons/VE125_randls_21_rotated.json,566376,769984,36,Man
45,751099,DepthScenes,duration_manipulation_targetAtFixation,jsons/VE125_randls_21_rotated.json,http://54.235.29.9/FacialAge/BNav_EC2/DepthDuration/v2_depth_duration_MTurk/v2_DepthDuration_HTML.html#272,272,1745,982,1920,1080,8-29-2022,11-52-21,46,depth_duration_stimuli/002663_2014-06-13_15-50-26_094959634447_rgbf000075-resize_1/002663_2014-06-13_15-50-26_094959634447_rgbf000075-resize_1-target.png,125,4.7495,10.0,2339,124,feet,jsons/VE125_randls_21_rotated.json,566376,769984,36,Man
46,751099,DepthScenes,duration_manipulation_targetAtFixation,jsons/VE125_randls_21_rotated.json,http://54.235.29.9/FacialAge/BNav_EC2/DepthDuration/v2_depth_duration_MTurk/v2_DepthDuration_HTML.html#272,272,1745,982,1920,1080,8-29-2022,11-52-21,47,depth_duration_stimuli/001584_2014-06-20_11-07-43_260595134347_rgbf000002-resize_1/001584_2014-06-20_11-07-43_260595134347_rgbf000002-resize_1-target.png,125,3.53,9.0,4730,124,feet,jsons/VE125_randls_21_rotated.json,566376,769984,36,Man
47,751099,DepthScenes,duration_manipulation_targetAtFixation,jsons/VE125_randls_21_rotated.json,http://54.235.29.9/FacialAge/BNav_EC2/DepthDuration/v2_depth_duration_MTurk/v2_DepthDuration_HTML.html#272,272,1745,982,1920,1080,8-29-2022,11-52-21,48,depth_duration_stimuli/003621_2014-05-23_18-06-08_094959634447_rgbf000101-resize_1/003621_2014-05-23_18-06-08_094959634447_rgbf000101-resize_1-target.png,125,3.9835,13.0,3615,124,feet,jsons/VE125_randls_21_rotated.json,566376,769984,36,Man
48,751099,DepthScenes,duration_manipulation_targetAtFixation,jsons/VE125_randls_21_rotated.json,http://54.235.29.9/FacialAge/BNav_EC2/DepthDuration/v2_depth_duration_MTurk/v2_DepthDuration_HTML.html#272,272,1745,982,1920,1080,8-29-2022,11-52-21,49,depth_duration_stimuli/001170_2014-06-17_15-43-44_260595134347_rgbf000096-resize_6/001170_2014-06-17_15-43-44_260595134347_rgbf000096-resize-original.jpg,125,1.1909999999999998,0.0,2542,125,feet,jsons/VE125_randls_21_rotated.json,566376,769984,36,Man
49,751099,DepthScenes,duration_manipulation_targetAtFixation,jsons/VE125_randls_21_rotated.json,http://54.235.29.9/FacialAge/BNav_EC2/DepthDuration/v2_depth_duration_MTurk/v2_DepthDuration_HTML.html#272,272,1745,982,1920,1080,8-29-2022,11-52-21,50,depth_duration_stimuli/003010_2014-06-15_12-54-35_094959634447_rgbf000112-resize_0/003010_2014-06-15_12-54-35_094959634447_rgbf000112-resize_0-target.png,125,3.1185,12.0,4702,123,feet,jsons/VE125_randls_21_rotated.json,566376,769984,36,Man
50,751099,DepthScenes,duration_manipulation_targetAtFixation,jsons/VE125_randls_21_rotated.json,http://54.235.29.9/FacialAge/BNav_EC2/DepthDuration/v2_depth_duration_MTurk/v2_DepthDuration_HTML.html#272,272,1745,982,1920,1080,8-29-2022,11-52-21,51,depth_duration_stimuli/001810_2014-06-26_20-51-35_260595134347_rgbf000040-resize_3/001810_2014-06-26_20-51-35_260595134347_rgbf000040-resize_3-target.png,125,2.2525,6.0,2802,124,feet,jsons/VE125_randls_21_rotated.json,566376,769984,36,Man
51,751099,DepthScenes,duration_manipulation_targetAtFixation,jsons/VE125_randls_21_rotated.json,http://54.235.29.9/FacialAge/BNav_EC2/DepthDuration/v2_depth_duration_MTurk/v2_DepthDuration_HTML.html#272,272,1745,982,1920,1080,8-29-2022,11-52-21,52,depth_duration_stimuli/001392_2014-06-19_16-07-59_260595134347_rgbf000046-resize_1/001392_2014-06-19_16-07-59_260595134347_rgbf000046-resize_1-target.png,125,4.135,10.0,2200,124,feet,jsons/VE125_randls_21_rotated.json,566376,769984,36,Man
52,751099,DepthScenes,duration_manipulation_targetAtFixation,jsons/VE125_randls_21_rotated.json,http://54.235.29.9/FacialAge/BNav_EC2/DepthDuration/v2_depth_duration_MTurk/v2_DepthDuration_HTML.html#272,272,1745,982,1920,1080,8-29-2022,11-52-21,53,depth_duration_stimuli/001570_2014-06-20_17-21-09_260595134347_rgbf000135-resize_4/001570_2014-06-20_17-21-09_260595134347_rgbf000135-resize_4-target.png,125,4.467,14.0,2459,124,feet,jsons/VE125_randls_21_rotated.json,566376,769984,36,Man
53,751099,DepthScenes,duration_manipulation_targetAtFixation,jsons/VE125_randls_21_rotated.json,http://54.235.29.9/FacialAge/BNav_EC2/DepthDuration/v2_depth_duration_MTurk/v2_DepthDuration_HTML.html#272,272,1745,982,1920,1080,8-29-2022,11-52-21,54,depth_duration_stimuli/002750_2014-06-22_19-08-03_094959634447_rgbf000094-resize_4/002750_2014-06-22_19-08-03_094959634447_rgbf000094-resize_4-target.png,125,2.354,5.5,4494,124,feet,jsons/VE125_randls_21_rotated.json,566376,769984,36,Man
54,751099,DepthScenes,duration_manipulation_targetAtFixation,jsons/VE125_randls_21_rotated.json,http://54.235.29.9/FacialAge/BNav_EC2/DepthDuration/v2_depth_duration_MTurk/v2_DepthDuration_HTML.html#272,272,1745,982,1920,1080,8-29-2022,11-52-21,55,depth_duration_stimuli/002549_2014-06-24_13-41-39_094959634447_rgbf000022-resize_3/002549_2014-06-24_13-41-39_094959634447_rgbf000022-resize_3-target.png,125,1.476,6.0,3132,123,feet,jsons/VE125_randls_21_rotated.json,566376,769984,36,Man
55,751099,DepthScenes,duration_manipulation_targetAtFixation,jsons/VE125_randls_21_rotated.json,http://54.235.29.9/FacialAge/BNav_EC2/DepthDuration/v2_depth_duration_MTurk/v2_DepthDuration_HTML.html#272,272,1745,982,1920,1080,8-29-2022,11-52-21,56,depth_duration_stimuli/000556_2014-06-09_22-42-56_260595134347_rgbf000214-resize_1/000556_2014-06-09_22-42-56_260595134347_rgbf000214-resize_1-target.png,125,4.8415,10.0,2533,124,feet,jsons/VE125_randls_21_rotated.json,566376,769984,36,Man
56,751099,DepthScenes,duration_manipulation_targetAtFixation,jsons/VE125_randls_21_rotated.json,http://54.235.29.9/FacialAge/BNav_EC2/DepthDuration/v2_depth_duration_MTurk/v2_DepthDuration_HTML.html#272,272,1745,982,1920,1080,8-29-2022,11-52-21,57,depth_duration_stimuli/001158_2014-06-17_15-32-16_260595134347_rgbf000138-resize_2/001158_2014-06-17_15-32-16_260595134347_rgbf000138-resize_2-target.png,125,4.5315,8.0,4071,124,feet,jsons/VE125_randls_21_rotated.json,566376,769984,36,Man
57,751099,DepthScenes,duration_manipulation_targetAtFixation,jsons/VE125_randls_21_rotated.json,http://54.235.29.9/FacialAge/BNav_EC2/DepthDuration/v2_depth_duration_MTurk/v2_DepthDuration_HTML.html#272,272,1745,982,1920,1080,8-29-2022,11-52-21,58,depth_duration_stimuli/002103_2014-06-25_20-00-40_260595134347_rgbf000049-resize_0/002103_2014-06-25_20-00-40_260595134347_rgbf000049-resize_0-target.png,125,4.105,9.0,2667,124,feet,jsons/VE125_randls_21_rotated.json,566376,769984,36,Man
58,751099,DepthScenes,duration_manipulation_targetAtFixation,jsons/VE125_randls_21_rotated.json,http://54.235.29.9/FacialAge/BNav_EC2/DepthDuration/v2_depth_duration_MTurk/v2_DepthDuration_HTML.html#272,272,1745,982,1920,1080,8-29-2022,11-52-21,59,depth_duration_stimuli/002039_2014-06-24_20-22-38_260595134347_rgbf000084-resize_1/002039_2014-06-24_20-22-38_260595134347_rgbf000084-resize_1-target.png,125,4.408,12.0,2520,124,feet,jsons/VE125_randls_21_rotated.json,566376,769984,36,Man
59,751099,DepthScenes,duration_manipulation_targetAtFixation,jsons/VE125_randls_21_rotated.json,http://54.235.29.9/FacialAge/BNav_EC2/DepthDuration/v2_depth_duration_MTurk/v2_DepthDuration_HTML.html#272,272,1745,982,1920,1080,8-29-2022,11-52-21,60,depth_duration_stimuli/001136_2014-06-17_15-19-41_260595134347_rgbf000076-resize_3/001136_2014-06-17_15-19-41_260595134347_rgbf000076-resize_3-target.png,125,1.8655,5.0,2254,125,feet,jsons/VE125_randls_21_rotated.json,566376,769984,36,Man
60,751099,DepthScenes,duration_manipulation_targetAtFixation,jsons/VE125_randls_21_rotated.json,http://54.235.29.9/FacialAge/BNav_EC2/DepthDuration/v2_depth_duration_MTurk/v2_DepthDuration_HTML.html#272,272,1745,982,1920,1080,8-29-2022,11-52-21,61,depth_duration_stimuli/001164_2014-06-17_15-35-46_260595134347_rgbf000085-resize_3/001164_2014-06-17_15-35-46_260595134347_rgbf000085-resize_3-target.png,125,2.354,6.0,2237,124,feet,jsons/VE125_randls_21_rotated.json,566376,769984,36,Man
61,751099,DepthScenes,duration_manipulation_targetAtFixation,jsons/VE125_randls_21_rotated.json,http://54.235.29.9/FacialAge/BNav_EC2/DepthDuration/v2_depth_duration_MTurk/v2_DepthDuration_HTML.html#272,272,1745,982,1920,1080,8-29-2022,11-52-21,62,depth_duration_stimuli/001650_2014-06-20_12-09-00_260595134347_rgbf000087-resize_3/001650_2014-06-20_12-09-00_260595134347_rgbf000087-resize_3-target.png,125,1.9505,3.5,3124,124,feet,jsons/VE125_randls_21_rotated.json,566376,769984,36,Man
62,751099,DepthScenes,duration_manipulation_targetAtFixation,jsons/VE125_randls_21_rotated.json,http://54.235.29.9/FacialAge/BNav_EC2/DepthDuration/v2_depth_duration_MTurk/v2_DepthDuration_HTML.html#272,272,1745,982,1920,1080,8-29-2022,11-52-21,63,depth_duration_stimuli/000682_2014-06-08_23-14-58_260595134347_rgbf000041-resize_5/000682_2014-06-08_23-14-58_260595134347_rgbf000041-resize_5-target.png,125,2.7239999999999998,6.0,3203,124,feet,jsons/VE125_randls_21_rotated.json,566376,769984,36,Man
63,751099,DepthScenes,duration_manipulation_targetAtFixation,jsons/VE125_randls_21_rotated.json,http://54.235.29.9/FacialAge/BNav_EC2/DepthDuration/v2_depth_duration_MTurk/v2_DepthDuration_HTML.html#272,272,1745,982,1920,1080,8-29-2022,11-52-21,64,depth_duration_stimuli/002209_2014-06-28_18-36-10_260595134347_rgbf000051-resize_1/002209_2014-06-28_18-36-10_260595134347_rgbf000051-resize_1-target.png,125,2.057,5.5,3401,124,feet,jsons/VE125_randls_21_rotated.json,566376,769984,36,Man
64,751099,DepthScenes,duration_manipulation_targetAtFixation,jsons/VE125_randls_21_rotated.json,http://54.235.29.9/FacialAge/BNav_EC2/DepthDuration/v2_depth_duration_MTurk/v2_DepthDuration_HTML.html#272,272,1745,982,1920,1080,8-29-2022,11-52-21,65,depth_duration_stimuli/002763_2014-06-22_19-13-10_094959634447_rgbf000075-resize_4/002763_2014-06-22_19-13-10_094959634447_rgbf000075-resize_4-target.png,125,1.68375,4.5,2677,124,feet,jsons/VE125_randls_21_rotated.json,566376,769984,36,Man
65,751099,DepthScenes,duration_manipulation_targetAtFixation,jsons/VE125_randls_21_rotated.json,http://54.235.29.9/FacialAge/BNav_EC2/DepthDuration/v2_depth_duration_MTurk/v2_DepthDuration_HTML.html#272,272,1745,982,1920,1080,8-29-2022,11-52-21,66,depth_duration_stimuli/001540_2014-06-20_17-01-05_260595134347_rgbf000086-resize_2/001540_2014-06-20_17-01-05_260595134347_rgbf000086-resize-original.jpg,125,1.459,0.0,2675,124,feet,jsons/VE125_randls_21_rotated.json,566376,769984,36,Man
66,751099,DepthScenes,duration_manipulation_targetAtFixation,jsons/VE125_randls_21_rotated.json,http://54.235.29.9/FacialAge/BNav_EC2/DepthDuration/v2_depth_duration_MTurk/v2_DepthDuration_HTML.html#272,272,1745,982,1920,1080,8-29-2022,11-52-21,67,depth_duration_stimuli/001815_2014-06-26_20-52-55_260595134347_rgbf000020-resize_0/001815_2014-06-26_20-52-55_260595134347_rgbf000020-resize_0-target.png,125,3.3865,8.0,2312,124,feet,jsons/VE125_randls_21_rotated.json,566376,769984,36,Man
67,751099,DepthScenes,duration_manipulation_targetAtFixation,jsons/VE125_randls_21_rotated.json,http://54.235.29.9/FacialAge/BNav_EC2/DepthDuration/v2_depth_duration_MTurk/v2_DepthDuration_HTML.html#272,272,1745,982,1920,1080,8-29-2022,11-52-21,68,depth_duration_stimuli/001808_2014-06-26_20-50-58_260595134347_rgbf000029-resize_1/001808_2014-06-26_20-50-58_260595134347_rgbf000029-resize_1-target.png,125,4.249,10.0,2644,125,feet,jsons/VE125_randls_21_rotated.json,566376,769984,36,Man
68,751099,DepthScenes,duration_manipulation_targetAtFixation,jsons/VE125_randls_21_rotated.json,http://54.235.29.9/FacialAge/BNav_EC2/DepthDuration/v2_depth_duration_MTurk/v2_DepthDuration_HTML.html#272,272,1745,982,1920,1080,8-29-2022,11-52-21,69,depth_duration_stimuli/000742_2014-06-08_18-48-09_260595134347_rgbf000164-resize_4/000742_2014-06-08_18-48-09_260595134347_rgbf000164-resize_4-target.png,125,4.632,9.0,3192,124,feet,jsons/VE125_randls_21_rotated.json,566376,769984,36,Man
69,751099,DepthScenes,duration_manipulation_targetAtFixation,jsons/VE125_randls_21_rotated.json,http://54.235.29.9/FacialAge/BNav_EC2/DepthDuration/v2_depth_duration_MTurk/v2_DepthDuration_HTML.html#272,272,1745,982,1920,1080,8-29-2022,11-52-21,70,depth_duration_stimuli/001066_2014-06-08_22-03-20_260595134347_rgbf000066-resize_4/001066_2014-06-08_22-03-20_260595134347_rgbf000066-resize_4-target.png,125,4.2330000000000005,13.0,2815,124,feet,jsons/VE125_randls_21_rotated.json,566376,769984,36,Man
70,751099,DepthScenes,duration_manipulation_targetAtFixation,jsons/VE125_randls_21_rotated.json,http://54.235.29.9/FacialAge/BNav_EC2/DepthDuration/v2_depth_duration_MTurk/v2_DepthDuration_HTML.html#272,272,1745,982,1920,1080,8-29-2022,11-52-21,71,depth_duration_stimuli/002678_2014-06-13_16-15-32_094959634447_rgbf000151-resize_6/002678_2014-06-13_16-15-32_094959634447_rgbf000151-resize_6-target.png,125,2.1830000000000003,8.0,2938,124,feet,jsons/VE125_randls_21_rotated.json,566376,769984,36,Man
71,751099,DepthScenes,duration_manipulation_targetAtFixation,jsons/VE125_randls_21_rotated.json,http://54.235.29.9/FacialAge/BNav_EC2/DepthDuration/v2_depth_duration_MTurk/v2_DepthDuration_HTML.html#272,272,1745,982,1920,1080,8-29-2022,11-52-21,72,depth_duration_stimuli/000368_2014-06-09_15-53-01_260595134347_rgbf000155-resize_2/000368_2014-06-09_15-53-01_260595134347_rgbf000155-resize_2-target.png,125,2.4859999999999998,6.0,2725,123,feet,jsons/VE125_randls_21_rotated.json,566376,769984,36,Man
72,751099,DepthScenes,duration_manipulation_targetAtFixation,jsons/VE125_randls_21_rotated.json,http://54.235.29.9/FacialAge/BNav_EC2/DepthDuration/v2_depth_duration_MTurk/v2_DepthDuration_HTML.html#272,272,1745,982,1920,1080,8-29-2022,11-52-21,73,depth_duration_stimuli/001052_2014-06-08_18-24-54_260595134347_rgbf000130-resize_1/001052_2014-06-08_18-24-54_260595134347_rgbf000130-resize_1-target.png,125,4.1045,15.0,2717,124,feet,jsons/VE125_randls_21_rotated.json,566376,769984,36,Man
73,751099,DepthScenes,duration_manipulation_targetAtFixation,jsons/VE125_randls_21_rotated.json,http://54.235.29.9/FacialAge/BNav_EC2/DepthDuration/v2_depth_duration_MTurk/v2_DepthDuration_HTML.html#272,272,1745,982,1920,1080,8-29-2022,11-52-21,74,depth_duration_stimuli/002988_2014-06-15_12-24-20_094959634447_rgbf000150-resize_1/002988_2014-06-15_12-24-20_094959634447_rgbf000150-resize_1-target.png,125,4.7669999999999995,12.0,2471,124,feet,jsons/VE125_randls_21_rotated.json,566376,769984,36,Man
74,751099,DepthScenes,duration_manipulation_targetAtFixation,jsons/VE125_randls_21_rotated.json,http://54.235.29.9/FacialAge/BNav_EC2/DepthDuration/v2_depth_duration_MTurk/v2_DepthDuration_HTML.html#272,272,1745,982,1920,1080,8-29-2022,11-52-21,75,depth_duration_stimuli/000749_2014-06-08_21-55-06_260595134347_rgbf000070-resize_2/000749_2014-06-08_21-55-06_260595134347_rgbf000070-resize_2-target.png,125,2.331,7.0,4185,124,feet,jsons/VE125_randls_21_rotated.json,566376,769984,36,Man
75,751099,DepthScenes,duration_manipulation_targetAtFixation,jsons/VE125_randls_21_rotated.json,http://54.235.29.9/FacialAge/BNav_EC2/DepthDuration/v2_depth_duration_MTurk/v2_DepthDuration_HTML.html#272,272,1745,982,1920,1080,8-29-2022,11-52-21,76,depth_duration_stimuli/002788_2014-06-22_19-36-03_094959634447_rgbf000088-resize_2/002788_2014-06-22_19-36-03_094959634447_rgbf000088-resize_2-target.png,125,1.6465,7.5,3399,124,feet,jsons/VE125_randls_21_rotated.json,566376,769984,36,Man
76,751099,DepthScenes,duration_manipulation_targetAtFixation,jsons/VE125_randls_21_rotated.json,http://54.235.29.9/FacialAge/BNav_EC2/DepthDuration/v2_depth_duration_MTurk/v2_DepthDuration_HTML.html#272,272,1745,982,1920,1080,8-29-2022,11-52-21,77,depth_duration_stimuli/001132_2014-06-17_14-48-54_260595134347_rgbf000100-resize_2/001132_2014-06-17_14-48-54_260595134347_rgbf000100-resize_2-target.png,125,3.753,8.0,3455,124,feet,jsons/VE125_randls_21_rotated.json,566376,769984,36,Man
77,751099,DepthScenes,duration_manipulation_targetAtFixation,jsons/VE125_randls_21_rotated.json,http://54.235.29.9/FacialAge/BNav_EC2/DepthDuration/v2_depth_duration_MTurk/v2_DepthDuration_HTML.html#272,272,1745,982,1920,1080,8-29-2022,11-52-21,78,depth_duration_stimuli/001133_2014-06-17_14-49-16_260595134347_rgbf000100-resize_0/001133_2014-06-17_14-49-16_260595134347_rgbf000100-resize_0-target.png,125,4.2115,9.0,3235,124,feet,jsons/VE125_randls_21_rotated.json,566376,769984,36,Man
78,751099,DepthScenes,duration_manipulation_targetAtFixation,jsons/VE125_randls_21_rotated.json,http://54.235.29.9/FacialAge/BNav_EC2/DepthDuration/v2_depth_duration_MTurk/v2_DepthDuration_HTML.html#272,272,1745,982,1920,1080,8-29-2022,11-52-21,79,depth_duration_stimuli/002953_2014-06-08_17-32-18_094959634447_rgbf000059-resize_5/002953_2014-06-08_17-32-18_094959634447_rgbf000059-resize_5-target.png,125,1.551,3.5,3464,124,feet,jsons/VE125_randls_21_rotated.json,566376,769984,36,Man
79,751099,DepthScenes,duration_manipulation_targetAtFixation,jsons/VE125_randls_21_rotated.json,http://54.235.29.9/FacialAge/BNav_EC2/DepthDuration/v2_depth_duration_MTurk/v2_DepthDuration_HTML.html#272,272,1745,982,1920,1080,8-29-2022,11-52-21,80,depth_duration_stimuli/000878_2014-06-08_22-52-45_260595134347_rgbf000045-resize_2/000878_2014-06-08_22-52-45_260595134347_rgbf000045-resize_2-target.png,125,2.092,5.5,2759,124,feet,jsons/VE125_randls_21_rotated.json,566376,769984,36,Man
80,751099,DepthScenes,duration_manipulation_targetAtFixation,jsons/VE125_randls_21_rotated.json,http://54.235.29.9/FacialAge/BNav_EC2/DepthDuration/v2_depth_duration_MTurk/v2_DepthDuration_HTML.html#272,272,1745,982,1920,1080,8-29-2022,11-52-21,81,depth_duration_stimuli/002637_2014-06-24_14-51-13_094959634447_rgbf000066-resize_4/002637_2014-06-24_14-51-13_094959634447_rgbf000066-resize_4-target.png,125,1.9955,7.0,2577,124,feet,jsons/VE125_randls_21_rotated.json,566376,769984,36,Man
81,751099,DepthScenes,duration_manipulation_targetAtFixation,jsons/VE125_randls_21_rotated.json,http://54.235.29.9/FacialAge/BNav_EC2/DepthDuration/v2_depth_duration_MTurk/v2_DepthDuration_HTML.html#272,272,1745,982,1920,1080,8-29-2022,11-52-21,82,depth_duration_stimuli/003534_2014-05-22_15-06-10_094959634447_rgbf000102-resize_4/003534_2014-05-22_15-06-10_094959634447_rgbf000102-resize_4-target.png,125,1.426,4.0,2304,125,feet,jsons/VE125_randls_21_rotated.json,566376,769984,36,Man
82,751099,DepthScenes,duration_manipulation_targetAtFixation,jsons/VE125_randls_21_rotated.json,http://54.235.29.9/FacialAge/BNav_EC2/DepthDuration/v2_depth_duration_MTurk/v2_DepthDuration_HTML.html#272,272,1745,982,1920,1080,8-29-2022,11-52-21,83,depth_duration_stimuli/002344_2014-06-28_20-06-29_260595134347_rgbf000030-resize_1/002344_2014-06-28_20-06-29_260595134347_rgbf000030-resize_1-target.png,125,1.5795,5.0,2238,124,feet,jsons/VE125_randls_21_rotated.json,566376,769984,36,Man
83,751099,DepthScenes,duration_manipulation_targetAtFixation,jsons/VE125_randls_21_rotated.json,http://54.235.29.9/FacialAge/BNav_EC2/DepthDuration/v2_depth_duration_MTurk/v2_DepthDuration_HTML.html#272,272,1745,982,1920,1080,8-29-2022,11-52-21,84,depth_duration_stimuli/002725_2014-06-22_11-47-51_094959634447_rgbf000070-resize_1/002725_2014-06-22_11-47-51_094959634447_rgbf000070-resize_1-target.png,125,2.195,5.5,4406,124,feet,jsons/VE125_randls_21_rotated.json,566376,769984,36,Man
84,751099,DepthScenes,duration_manipulation_targetAtFixation,jsons/VE125_randls_21_rotated.json,http://54.235.29.9/FacialAge/BNav_EC2/DepthDuration/v2_depth_duration_MTurk/v2_DepthDuration_HTML.html#272,272,1745,982,1920,1080,8-29-2022,11-52-21,85,depth_duration_stimuli/002467_2014-06-28_20-38-07_260595134347_rgbf000026-resize_2/002467_2014-06-28_20-38-07_260595134347_rgbf000026-resize_2-target.png,125,4.742,8.0,2329,124,feet,jsons/VE125_randls_21_rotated.json,566376,769984,36,Man
85,751099,DepthScenes,duration_manipulation_targetAtFixation,jsons/VE125_randls_21_rotated.json,http://54.235.29.9/FacialAge/BNav_EC2/DepthDuration/v2_depth_duration_MTurk/v2_DepthDuration_HTML.html#272,272,1745,982,1920,1080,8-29-2022,11-52-21,86,depth_duration_stimuli/002570_2014-06-24_13-59-54_094959634447_rgbf000059-resize_0/002570_2014-06-24_13-59-54_094959634447_rgbf000059-resize_0-target.png,125,4.037,7.0,2305,124,feet,jsons/VE125_randls_21_rotated.json,566376,769984,36,Man
86,751099,DepthScenes,duration_manipulation_targetAtFixation,jsons/VE125_randls_21_rotated.json,http://54.235.29.9/FacialAge/BNav_EC2/DepthDuration/v2_depth_duration_MTurk/v2_DepthDuration_HTML.html#272,272,1745,982,1920,1080,8-29-2022,11-52-21,87,depth_duration_stimuli/002444_2014-06-28_20-32-08_260595134347_rgbf000027-resize_0/002444_2014-06-28_20-32-08_260595134347_rgbf000027-resize_0-target.png,125,4.388999999999999,10.0,2157,124,feet,jsons/VE125_randls_21_rotated.json,566376,769984,36,Man
87,751099,DepthScenes,duration_manipulation_targetAtFixation,jsons/VE125_randls_21_rotated.json,http://54.235.29.9/FacialAge/BNav_EC2/DepthDuration/v2_depth_duration_MTurk/v2_DepthDuration_HTML.html#272,272,1745,982,1920,1080,8-29-2022,11-52-21,88,depth_duration_stimuli/000436_2014-06-09_22-25-11_260595134347_rgbf000137-resize_1/000436_2014-06-09_22-25-11_260595134347_rgbf000137-resize_1-target.png,125,4.0705,12.0,2171,124,feet,jsons/VE125_randls_21_rotated.json,566376,769984,36,Man
88,751099,DepthScenes,duration_manipulation_targetAtFixation,jsons/VE125_randls_21_rotated.json,http://54.235.29.9/FacialAge/BNav_EC2/DepthDuration/v2_depth_duration_MTurk/v2_DepthDuration_HTML.html#272,272,1745,982,1920,1080,8-29-2022,11-52-21,89,depth_duration_stimuli/002414_2014-06-28_20-24-58_260595134347_rgbf000067-resize_4/002414_2014-06-28_20-24-58_260595134347_rgbf000067-resize_4-target.png,125,4.363,11.5,4285,124,feet,jsons/VE125_randls_21_rotated.json,566376,769984,36,Man
89,751099,DepthScenes,duration_manipulation_targetAtFixation,jsons/VE125_randls_21_rotated.json,http://54.235.29.9/FacialAge/BNav_EC2/DepthDuration/v2_depth_duration_MTurk/v2_DepthDuration_HTML.html#272,272,1745,982,1920,1080,8-29-2022,11-52-21,90,depth_duration_stimuli/000773_2014-06-08_22-24-54_260595134347_rgbf000093-resize_1/000773_2014-06-08_22-24-54_260595134347_rgbf000093-resize_1-target.png,125,4.973,12.0,2392,123,feet,jsons/VE125_randls_21_rotated.json,566376,769984,36,Man
90,751099,DepthScenes,duration_manipulation_targetAtFixation,jsons/VE125_randls_21_rotated.json,http://54.235.29.9/FacialAge/BNav_EC2/DepthDuration/v2_depth_duration_MTurk/v2_DepthDuration_HTML.html#272,272,1745,982,1920,1080,8-29-2022,11-52-21,91,depth_duration_stimuli/002657_2014-06-13_15-29-54_094959634447_rgbf000150-resize_1/002657_2014-06-13_15-29-54_094959634447_rgbf000150-resize_1-target.png,125,4.919,10.0,2626,124,feet,jsons/VE125_randls_21_rotated.json,566376,769984,36,Man
91,751099,DepthScenes,duration_manipulation_targetAtFixation,jsons/VE125_randls_21_rotated.json,http://54.235.29.9/FacialAge/BNav_EC2/DepthDuration/v2_depth_duration_MTurk/v2_DepthDuration_HTML.html#272,272,1745,982,1920,1080,8-29-2022,11-52-21,92,depth_duration_stimuli/002375_2014-06-28_20-13-44_260595134347_rgbf000032-resize_1/002375_2014-06-28_20-13-44_260595134347_rgbf000032-resize_1-target.png,125,4.0175,6.5,2904,124,feet,jsons/VE125_randls_21_rotated.json,566376,769984,36,Man
92,751099,DepthScenes,duration_manipulation_targetAtFixation,jsons/VE125_randls_21_rotated.json,http://54.235.29.9/FacialAge/BNav_EC2/DepthDuration/v2_depth_duration_MTurk/v2_DepthDuration_HTML.html#272,272,1745,982,1920,1080,8-29-2022,11-52-21,93,depth_duration_stimuli/000927_2014-06-09_16-32-30_260595134347_rgbf000123-resize_3/000927_2014-06-09_16-32-30_260595134347_rgbf000123-resize_3-target.png,125,2.6785,8.0,2582,124,feet,jsons/VE125_randls_21_rotated.json,566376,769984,36,Man
93,751099,DepthScenes,duration_manipulation_targetAtFixation,jsons/VE125_randls_21_rotated.json,http://54.235.29.9/FacialAge/BNav_EC2/DepthDuration/v2_depth_duration_MTurk/v2_DepthDuration_HTML.html#272,272,1745,982,1920,1080,8-29-2022,11-52-21,94,depth_duration_stimuli/001110_2014-06-15_17-25-28_260595134347_rgbf000150-resize_1/001110_2014-06-15_17-25-28_260595134347_rgbf000150-resize_1-target.png,125,1.7115,5.5,2848,124,feet,jsons/VE125_randls_21_rotated.json,566376,769984,36,Man
94,751099,DepthScenes,duration_manipulation_targetAtFixation,jsons/VE125_randls_21_rotated.json,http://54.235.29.9/FacialAge/BNav_EC2/DepthDuration/v2_depth_duration_MTurk/v2_DepthDuration_HTML.html#272,272,1745,982,1920,1080,8-29-2022,11-52-21,95,depth_duration_stimuli/002340_2014-06-28_20-05-46_260595134347_rgbf000113-resize_0/002340_2014-06-28_20-05-46_260595134347_rgbf000113-resize_0-target.png,125,2.4735,10.0,2608,124,feet,jsons/VE125_randls_21_rotated.json,566376,769984,36,Man
95,751099,DepthScenes,duration_manipulation_targetAtFixation,jsons/VE125_randls_21_rotated.json,http://54.235.29.9/FacialAge/BNav_EC2/DepthDuration/v2_depth_duration_MTurk/v2_DepthDuration_HTML.html#272,272,1745,982,1920,1080,8-29-2022,11-52-21,96,depth_duration_stimuli/001016_2014-06-09_16-16-10_260595134347_rgbf000112-resize_5/001016_2014-06-09_16-16-10_260595134347_rgbf000112-resize_5-target.png,125,1.6565,5.5,2560,124,feet,jsons/VE125_randls_21_rotated.json,566376,769984,36,Man
96,751099,DepthScenes,duration_manipulation_targetAtFixation,jsons/VE125_randls_21_rotated.json,http://54.235.29.9/FacialAge/BNav_EC2/DepthDuration/v2_depth_duration_MTurk/v2_DepthDuration_HTML.html#272,272,1745,982,1920,1080,8-29-2022,11-52-21,97,depth_duration_stimuli/000734_2014-06-08_17-39-11_260595134347_rgbf000128-resize_2/000734_2014-06-08_17-39-11_260595134347_rgbf000128-resize_2-target.png,125,4.098,12.0,2241,124,feet,jsons/VE125_randls_21_rotated.json,566376,769984,36,Man
97,751099,DepthScenes,duration_manipulation_targetAtFixation,jsons/VE125_randls_21_rotated.json,http://54.235.29.9/FacialAge/BNav_EC2/DepthDuration/v2_depth_duration_MTurk/v2_DepthDuration_HTML.html#272,272,1745,982,1920,1080,8-29-2022,11-52-21,98,depth_duration_stimuli/000739_2014-06-08_18-45-58_260595134347_rgbf000068-resize_1/000739_2014-06-08_18-45-58_260595134347_rgbf000068-resize_1-target.png,125,3.534,10.0,2221,124,feet,jsons/VE125_randls_21_rotated.json,566376,769984,36,Man
98,751099,DepthScenes,duration_manipulation_targetAtFixation,jsons/VE125_randls_21_rotated.json,http://54.235.29.9/FacialAge/BNav_EC2/DepthDuration/v2_depth_duration_MTurk/v2_DepthDuration_HTML.html#272,272,1745,982,1920,1080,8-29-2022,11-52-21,99,depth_duration_stimuli/001222_2014-06-17_16-24-06_260595134347_rgbf000073-resize_0/001222_2014-06-17_16-24-06_260595134347_rgbf000073-resize-original.jpg,125,1.4385,0.0,2192,125,feet,jsons/VE125_randls_21_rotated.json,566376,769984,36,Man
99,751099,DepthScenes,duration_manipulation_targetAtFixation,jsons/VE125_randls_21_rotated.json,http://54.235.29.9/FacialAge/BNav_EC2/DepthDuration/v2_depth_duration_MTurk/v2_DepthDuration_HTML.html#272,272,1745,982,1920,1080,8-29-2022,11-52-21,100,depth_duration_stimuli/001571_2014-06-20_17-21-32_260595134347_rgbf000089-resize_1/001571_2014-06-20_17-21-32_260595134347_rgbf000089-resize_1-target.png,125,1.86,4.0,3080,123,feet,jsons/VE125_randls_21_rotated.json,566376,769984,36,Man
100,751099,DepthScenes,duration_manipulation_targetAtFixation,jsons/VE125_randls_21_rotated.json,http://54.235.29.9/FacialAge/BNav_EC2/DepthDuration/v2_depth_duration_MTurk/v2_DepthDuration_HTML.html#272,272,1745,982,1920,1080,8-29-2022,11-52-21,101,depth_duration_stimuli/002272_2014-06-28_18-53-56_260595134347_rgbf000067-resize_2/002272_2014-06-28_18-53-56_260595134347_rgbf000067-resize_2-target.png,125,1.138,3.0,2972,124,feet,jsons/VE125_randls_21_rotated.json,566376,769984,36,Man
101,751099,DepthScenes,duration_manipulation_targetAtFixation,jsons/VE125_randls_21_rotated.json,http://54.235.29.9/FacialAge/BNav_EC2/DepthDuration/v2_depth_duration_MTurk/v2_DepthDuration_HTML.html#272,272,1745,982,1920,1080,8-29-2022,11-52-21,102,depth_duration_stimuli/001235_2014-06-17_16-37-36_260595134347_rgbf000084-resize_4/001235_2014-06-17_16-37-36_260595134347_rgbf000084-resize_4-target.png,125,3.6605,7.0,2891,123,feet,jsons/VE125_randls_21_rotated.json,566376,769984,36,Man
102,751099,DepthScenes,duration_manipulation_targetAtFixation,jsons/VE125_randls_21_rotated.json,http://54.235.29.9/FacialAge/BNav_EC2/DepthDuration/v2_depth_duration_MTurk/v2_DepthDuration_HTML.html#272,272,1745,982,1920,1080,8-29-2022,11-52-21,103,depth_duration_stimuli/000788_2014-06-08_22-34-36_260595134347_rgbf000131-resize_1/000788_2014-06-08_22-34-36_260595134347_rgbf000131-resize_1-target.png,125,3.359,5.5,4225,124,feet,jsons/VE125_randls_21_rotated.json,566376,769984,36,Man
103,751099,DepthScenes,duration_manipulation_targetAtFixation,jsons/VE125_randls_21_rotated.json,http://54.235.29.9/FacialAge/BNav_EC2/DepthDuration/v2_depth_duration_MTurk/v2_DepthDuration_HTML.html#272,272,1745,982,1920,1080,8-29-2022,11-52-21,104,depth_duration_stimuli/000137_2014-05-20_17-04-49_260595134347_rgbf000120-resize_1/000137_2014-05-20_17-04-49_260595134347_rgbf000120-resize_1-target.png,125,3.786,8.0,2267,124,feet,jsons/VE125_randls_21_rotated.json,566376,769984,36,Man
104,751099,DepthScenes,duration_manipulation_targetAtFixation,jsons/VE125_randls_21_rotated.json,http://54.235.29.9/FacialAge/BNav_EC2/DepthDuration/v2_depth_duration_MTurk/v2_DepthDuration_HTML.html#272,272,1745,982,1920,1080,8-29-2022,11-52-21,105,depth_duration_stimuli/000736_2014-06-08_18-24-15_260595134347_rgbf000206-resize_3/000736_2014-06-08_18-24-15_260595134347_rgbf000206-resize_3-target.png,125,3.515,5.8,3479,124,feet,jsons/VE125_randls_21_rotated.json,566376,769984,36,Man
105,751099,DepthScenes,duration_manipulation_targetAtFixation,jsons/VE125_randls_21_rotated.json,http://54.235.29.9/FacialAge/BNav_EC2/DepthDuration/v2_depth_duration_MTurk/v2_DepthDuration_HTML.html#272,272,1745,982,1920,1080,8-29-2022,11-52-21,106,depth_duration_stimuli/000709_2014-06-08_13-51-55_260595134347_rgbf000068-resize_3/000709_2014-06-08_13-51-55_260595134347_rgbf000068-resize_3-target.png,125,1.8030000000000002,3.5,3317,124,feet,jsons/VE125_randls_21_rotated.json,566376,769984,36,Man
106,751099,DepthScenes,duration_manipulation_targetAtFixation,jsons/VE125_randls_21_rotated.json,http://54.235.29.9/FacialAge/BNav_EC2/DepthDuration/v2_depth_duration_MTurk/v2_DepthDuration_HTML.html#272,272,1745,982,1920,1080,8-29-2022,11-52-21,107,depth_duration_stimuli/002057_2014-06-24_21-00-13_260595134347_rgbf000120-resize_1/002057_2014-06-24_21-00-13_260595134347_rgbf000120-resize_1-target.png,125,2.967,7.0,3491,124,feet,jsons/VE125_randls_21_rotated.json,566376,769984,36,Man
107,751099,DepthScenes,duration_manipulation_targetAtFixation,jsons/VE125_randls_21_rotated.json,http://54.235.29.9/FacialAge/BNav_EC2/DepthDuration/v2_depth_duration_MTurk/v2_DepthDuration_HTML.html#272,272,1745,982,1920,1080,8-29-2022,11-52-21,108,depth_duration_stimuli/002639_2014-06-24_14-51-37_094959634447_rgbf000074-resize_4/002639_2014-06-24_14-51-37_094959634447_rgbf000074-resize_4-target.png,125,4.0375,8.0,2875,124,feet,jsons/VE125_randls_21_rotated.json,566376,769984,36,Man
108,751099,DepthScenes,duration_manipulation_targetAtFixation,jsons/VE125_randls_21_rotated.json,http://54.235.29.9/FacialAge/BNav_EC2/DepthDuration/v2_depth_duration_MTurk/v2_DepthDuration_HTML.html#272,272,1745,982,1920,1080,8-29-2022,11-52-21,109,depth_duration_stimuli/003292_2014-05-14_21-53-49_094959634447_rgbf000100-resize_2/003292_2014-05-14_21-53-49_094959634447_rgbf000100-resize_2-target.png,125,3.4815,6.0,2308,124,feet,jsons/VE125_randls_21_rotated.json,566376,769984,36,Man
109,751099,DepthScenes,duration_manipulation_targetAtFixation,jsons/VE125_randls_21_rotated.json,http://54.235.29.9/FacialAge/BNav_EC2/DepthDuration/v2_depth_duration_MTurk/v2_DepthDuration_HTML.html#272,272,1745,982,1920,1080,8-29-2022,11-52-21,110,depth_duration_stimuli/001447_2014-06-19_17-00-32_260595134347_rgbf000082-resize_5/001447_2014-06-19_17-00-32_260595134347_rgbf000082-resize_5-target.png,125,4.13775,7.0,3398,124,feet,jsons/VE125_randls_21_rotated.json,566376,769984,36,Man
110,751099,DepthScenes,duration_manipulation_targetAtFixation,jsons/VE125_randls_21_rotated.json,http://54.235.29.9/FacialAge/BNav_EC2/DepthDuration/v2_depth_duration_MTurk/v2_DepthDuration_HTML.html#272,272,1745,982,1920,1080,8-29-2022,11-52-21,111,depth_duration_stimuli/000447_2014-06-08_16-15-46_260595134347_rgbf000130-resize_1/000447_2014-06-08_16-15-46_260595134347_rgbf000130-resize_1-target.png,125,4.479,12.0,1982,124,feet,jsons/VE125_randls_21_rotated.json,566376,769984,36,Man
111,751099,DepthScenes,duration_manipulation_targetAtFixation,jsons/VE125_randls_21_rotated.json,http://54.235.29.9/FacialAge/BNav_EC2/DepthDuration/v2_depth_duration_MTurk/v2_DepthDuration_HTML.html#272,272,1745,982,1920,1080,8-29-2022,11-52-21,112,depth_duration_stimuli/002568_2014-06-24_13-59-21_094959634447_rgbf000062-resize_4/002568_2014-06-24_13-59-21_094959634447_rgbf000062-resize_4-target.png,125,3.015,9.0,2711,124,feet,jsons/VE125_randls_21_rotated.json,566376,769984,36,Man
112,751099,DepthScenes,duration_manipulation_targetAtFixation,jsons/VE125_randls_21_rotated.json,http://54.235.29.9/FacialAge/BNav_EC2/DepthDuration/v2_depth_duration_MTurk/v2_DepthDuration_HTML.html#272,272,1745,982,1920,1080,8-29-2022,11-52-21,113,depth_duration_stimuli/003492_2014-05-21_15-50-55_094959634447_rgbf000828-resize_1/003492_2014-05-21_15-50-55_094959634447_rgbf000828-resize_1-target.png,125,4.06875,10.0,2281,124,feet,jsons/VE125_randls_21_rotated.json,566376,769984,36,Man
113,751099,DepthScenes,duration_manipulation_targetAtFixation,jsons/VE125_randls_21_rotated.json,http://54.235.29.9/FacialAge/BNav_EC2/DepthDuration/v2_depth_duration_MTurk/v2_DepthDuration_HTML.html#272,272,1745,982,1920,1080,8-29-2022,11-52-21,114,depth_duration_stimuli/001032_2014-06-08_13-23-17_260595134347_rgbf000021-resize_3/001032_2014-06-08_13-23-17_260595134347_rgbf000021-resize_3-target.png,125,3.2725,6.5,3161,124,feet,jsons/VE125_randls_21_rotated.json,566376,769984,36,Man
114,751099,DepthScenes,duration_manipulation_targetAtFixation,jsons/VE125_randls_21_rotated.json,http://54.235.29.9/FacialAge/BNav_EC2/DepthDuration/v2_depth_duration_MTurk/v2_DepthDuration_HTML.html#272,272,1745,982,1920,1080,8-29-2022,11-52-21,115,depth_duration_stimuli/001059_2014-06-08_21-53-27_260595134347_rgbf000061-resize_4/001059_2014-06-08_21-53-27_260595134347_rgbf000061-resize_4-target.png,125,2.4185,6.5,3626,124,feet,jsons/VE125_randls_21_rotated.json,566376,769984,36,Man
115,751099,DepthScenes,duration_manipulation_targetAtFixation,jsons/VE125_randls_21_rotated.json,http://54.235.29.9/FacialAge/BNav_EC2/DepthDuration/v2_depth_duration_MTurk/v2_DepthDuration_HTML.html#272,272,1745,982,1920,1080,8-29-2022,11-52-21,116,depth_duration_stimuli/000780_2014-06-08_22-28-29_260595134347_rgbf000126-resize_1/000780_2014-06-08_22-28-29_260595134347_rgbf000126-resize_1-target.png,125,3.3825,12.0,2397,124,feet,jsons/VE125_randls_21_rotated.json,566376,769984,36,Man
116,751099,DepthScenes,duration_manipulation_targetAtFixation,jsons/VE125_randls_21_rotated.json,http://54.235.29.9/FacialAge/BNav_EC2/DepthDuration/v2_depth_duration_MTurk/v2_DepthDuration_HTML.html#272,272,1745,982,1920,1080,8-29-2022,11-52-21,117,depth_duration_stimuli/002445_2014-06-28_20-32-16_260595134347_rgbf000029-resize_4/002445_2014-06-28_20-32-16_260595134347_rgbf000029-resize_4-target.png,125,2.5315,7.0,2353,124,feet,jsons/VE125_randls_21_rotated.json,566376,769984,36,Man
117,751099,DepthScenes,duration_manipulation_targetAtFixation,jsons/VE125_randls_21_rotated.json,http://54.235.29.9/FacialAge/BNav_EC2/DepthDuration/v2_depth_duration_MTurk/v2_DepthDuration_HTML.html#272,272,1745,982,1920,1080,8-29-2022,11-52-21,118,depth_duration_stimuli/002545_2014-06-24_13-38-53_094959634447_rgbf000080-resize_4/002545_2014-06-24_13-38-53_094959634447_rgbf000080-resize_4-target.png,125,1.9205,5.5,2820,124,feet,jsons/VE125_randls_21_rotated.json,566376,769984,36,Man
118,751099,DepthScenes,duration_manipulation_targetAtFixation,jsons/VE125_randls_21_rotated.json,http://54.235.29.9/FacialAge/BNav_EC2/DepthDuration/v2_depth_duration_MTurk/v2_DepthDuration_HTML.html#272,272,1745,982,1920,1080,8-29-2022,11-52-21,119,depth_duration_stimuli/001092_2014-06-15_17-34-58_260595134347_rgbf000171-resize_3/001092_2014-06-15_17-34-58_260595134347_rgbf000171-resize_3-target.png,125,2.6935,6.0,2883,124,feet,jsons/VE125_randls_21_rotated.json,566376,769984,36,Man
119,751099,DepthScenes,duration_manipulation_targetAtFixation,jsons/VE125_randls_21_rotated.json,http://54.235.29.9/FacialAge/BNav_EC2/DepthDuration/v2_depth_duration_MTurk/v2_DepthDuration_HTML.html#272,272,1745,982,1920,1080,8-29-2022,11-52-21,120,depth_duration_stimuli/000787_2014-06-08_22-33-53_260595134347_rgbf000175-resize_1/000787_2014-06-08_22-33-53_260595134347_rgbf000175-resize-original.jpg,125,4.784,0.0,2105,124,feet,jsons/VE125_randls_21_rotated.json,566376,769984,36,Man
120,751099,DepthScenes,duration_manipulation_targetAtFixation,jsons/VE125_randls_21_rotated.json,http://54.235.29.9/FacialAge/BNav_EC2/DepthDuration/v2_depth_duration_MTurk/v2_DepthDuration_HTML.html#272,272,1745,982,1920,1080,8-29-2022,11-52-21,121,depth_duration_stimuli/000665_2014-06-09_20-42-35_260595134347_rgbf000110-resize_1/000665_2014-06-09_20-42-35_260595134347_rgbf000110-resize_1-target.png,125,3.057,8.0,2729,124,feet,jsons/VE125_randls_21_rotated.json,566376,769984,36,Man
121,751099,DepthScenes,duration_manipulation_targetAtFixation,jsons/VE125_randls_21_rotated.json,http://54.235.29.9/FacialAge/BNav_EC2/DepthDuration/v2_depth_duration_MTurk/v2_DepthDuration_HTML.html#272,272,1745,982,1920,1080,8-29-2022,11-52-21,122,depth_duration_stimuli/001150_2014-06-17_15-27-34_260595134347_rgbf000108-resize_2/001150_2014-06-17_15-27-34_260595134347_rgbf000108-resize_2-target.png,125,4.0325,12.0,2003,124,feet,jsons/VE125_randls_21_rotated.json,566376,769984,36,Man
122,751099,DepthScenes,duration_manipulation_targetAtFixation,jsons/VE125_randls_21_rotated.json,http://54.235.29.9/FacialAge/BNav_EC2/DepthDuration/v2_depth_duration_MTurk/v2_DepthDuration_HTML.html#272,272,1745,982,1920,1080,8-29-2022,11-52-21,123,depth_duration_stimuli/000943_2014-06-09_19-31-07_260595134347_rgbf000128-resize_1/000943_2014-06-09_19-31-07_260595134347_rgbf000128-resize_1-target.png,125,1.9765,5.0,2065,123,feet,jsons/VE125_randls_21_rotated.json,566376,769984,36,Man
123,751099,DepthScenes,duration_manipulation_targetAtFixation,jsons/VE125_randls_21_rotated.json,http://54.235.29.9/FacialAge/BNav_EC2/DepthDuration/v2_depth_duration_MTurk/v2_DepthDuration_HTML.html#272,272,1745,982,1920,1080,8-29-2022,11-52-21,124,depth_duration_stimuli/003070_2014-06-15_14-58-27_094959634447_rgbf000150-resize_3/003070_2014-06-15_14-58-27_094959634447_rgbf000150-resize_3-target.png,125,2.9415,8.0,3061,124,feet,jsons/VE125_randls_21_rotated.json,566376,769984,36,Man
124,751099,DepthScenes,duration_manipulation_targetAtFixation,jsons/VE125_randls_21_rotated.json,http://54.235.29.9/FacialAge/BNav_EC2/DepthDuration/v2_depth_duration_MTurk/v2_DepthDuration_HTML.html#272,272,1745,982,1920,1080,8-29-2022,11-52-21,125,depth_duration_stimuli/002136_2014-06-25_21-18-03_260595134347_rgbf000109-resize_3/002136_2014-06-25_21-18-03_260595134347_rgbf000109-resize_3-target.png,125,1.9569999999999999,6.0,2135,124,feet,jsons/VE125_randls_21_rotated.json,566376,769984,36,Man
125,751099,DepthScenes,duration_manipulation_targetAtFixation,jsons/VE125_randls_21_rotated.json,http://54.235.29.9/FacialAge/BNav_EC2/DepthDuration/v2_depth_duration_MTurk/v2_DepthDuration_HTML.html#272,272,1745,982,1920,1080,8-29-2022,11-52-21,126,depth_duration_stimuli/002964_2014-06-08_17-46-11_094959634447_rgbf000091-resize_4/002964_2014-06-08_17-46-11_094959634447_rgbf000091-resize_4-target.png,125,1.6909999999999998,4.0,2117,124,feet,jsons/VE125_randls_21_rotated.json,566376,769984,36,Man
126,751099,DepthScenes,duration_manipulation_targetAtFixation,jsons/VE125_randls_21_rotated.json,http://54.235.29.9/FacialAge/BNav_EC2/DepthDuration/v2_depth_duration_MTurk/v2_DepthDuration_HTML.html#272,272,1745,982,1920,1080,8-29-2022,11-52-21,127,depth_duration_stimuli/003228_2014-05-14_13-42-35_094959634447_rgbf000101-resize_1/003228_2014-05-14_13-42-35_094959634447_rgbf000101-resize_1-target.png,125,1.9680000000000002,5.0,2089,124,feet,jsons/VE125_randls_21_rotated.json,566376,769984,36,Man
127,751099,DepthScenes,duration_manipulation_targetAtFixation,jsons/VE125_randls_21_rotated.json,http://54.235.29.9/FacialAge/BNav_EC2/DepthDuration/v2_depth_duration_MTurk/v2_DepthDuration_HTML.html#272,272,1745,982,1920,1080,8-29-2022,11-52-21,128,depth_duration_stimuli/002600_2014-06-24_14-27-04_094959634447_rgbf000074-resize_2/002600_2014-06-24_14-27-04_094959634447_rgbf000074-resize_2-target.png,125,2.7575,8.0,2864,124,feet,jsons/VE125_randls_21_rotated.json,566376,769984,36,Man
128,751099,DepthScenes,duration_manipulation_targetAtFixation,jsons/VE125_randls_21_rotated.json,http://54.235.29.9/FacialAge/BNav_EC2/DepthDuration/v2_depth_duration_MTurk/v2_DepthDuration_HTML.html#272,272,1745,982,1920,1080,8-29-2022,11-52-21,129,depth_duration_stimuli/002660_2014-06-13_15-44-18_094959634447_rgbf001878-resize_2/002660_2014-06-13_15-44-18_094959634447_rgbf001878-resize_2-target.png,125,3.576,12.0,2097,124,feet,jsons/VE125_randls_21_rotated.json,566376,769984,36,Man
129,751099,DepthScenes,duration_manipulation_targetAtFixation,jsons/VE125_randls_21_rotated.json,http://54.235.29.9/FacialAge/BNav_EC2/DepthDuration/v2_depth_duration_MTurk/v2_DepthDuration_HTML.html#272,272,1745,982,1920,1080,8-29-2022,11-52-21,130,depth_duration_stimuli/002153_2014-06-25_21-27-18_260595134347_rgbf000038-resize_5/002153_2014-06-25_21-27-18_260595134347_rgbf000038-resize_5-target.png,125,2.505,7.5,3452,123,feet,jsons/VE125_randls_21_rotated.json,566376,769984,36,Man
130,751099,DepthScenes,duration_manipulation_targetAtFixation,jsons/VE125_randls_21_rotated.json,http://54.235.29.9/FacialAge/BNav_EC2/DepthDuration/v2_depth_duration_MTurk/v2_DepthDuration_HTML.html#272,272,1745,982,1920,1080,8-29-2022,11-52-21,131,depth_duration_stimuli/001516_2014-06-20_16-25-09_260595134347_rgbf000076-resize_2/001516_2014-06-20_16-25-09_260595134347_rgbf000076-resize_2-target.png,125,1.7445,5.5,3011,123,feet,jsons/VE125_randls_21_rotated.json,566376,769984,36,Man
131,751099,DepthScenes,duration_manipulation_targetAtFixation,jsons/VE125_randls_21_rotated.json,http://54.235.29.9/FacialAge/BNav_EC2/DepthDuration/v2_depth_duration_MTurk/v2_DepthDuration_HTML.html#272,272,1745,982,1920,1080,8-29-2022,11-52-21,132,depth_duration_stimuli/002118_2014-06-25_20-32-08_260595134347_rgbf000078-resize_1/002118_2014-06-25_20-32-08_260595134347_rgbf000078-resize_1-target.png,125,2.6460000000000004,6.0,1962,124,feet,jsons/VE125_randls_21_rotated.json,566376,769984,36,Man
132,751099,DepthScenes,duration_manipulation_targetAtFixation,jsons/VE125_randls_21_rotated.json,http://54.235.29.9/FacialAge/BNav_EC2/DepthDuration/v2_depth_duration_MTurk/v2_DepthDuration_HTML.html#272,272,1745,982,1920,1080,8-29-2022,11-52-21,133,depth_duration_stimuli/003423_2014-05-21_10-23-26_094959634447_rgbf002665-resize_2/003423_2014-05-21_10-23-26_094959634447_rgbf002665-resize_2-target.png,125,3.2575,9.0,2417,124,feet,jsons/VE125_randls_21_rotated.json,566376,769984,36,Man
133,751099,DepthScenes,duration_manipulation_targetAtFixation,jsons/VE125_randls_21_rotated.json,http://54.235.29.9/FacialAge/BNav_EC2/DepthDuration/v2_depth_duration_MTurk/v2_DepthDuration_HTML.html#272,272,1745,982,1920,1080,8-29-2022,11-52-21,134,depth_duration_stimuli/002905_2014-06-03_18-04-43_094959634447_rgbf000151-resize_2/002905_2014-06-03_18-04-43_094959634447_rgbf000151-resize_2-target.png,125,2.0295,5.5,2501,124,feet,jsons/VE125_randls_21_rotated.json,566376,769984,36,Man
134,751099,DepthScenes,duration_manipulation_targetAtFixation,jsons/VE125_randls_21_rotated.json,http://54.235.29.9/FacialAge/BNav_EC2/DepthDuration/v2_depth_duration_MTurk/v2_DepthDuration_HTML.html#272,272,1745,982,1920,1080,8-29-2022,11-52-21,135,depth_duration_stimuli/000375_2014-06-08_11-17-29_260595134347_rgbf000133-resize_2/000375_2014-06-08_11-17-29_260595134347_rgbf000133-resize-original.jpg,125,4.718,0.0,2056,123,feet,jsons/VE125_randls_21_rotated.json,566376,769984,36,Man
135,751099,DepthScenes,duration_manipulation_targetAtFixation,jsons/VE125_randls_21_rotated.json,http://54.235.29.9/FacialAge/BNav_EC2/DepthDuration/v2_depth_duration_MTurk/v2_DepthDuration_HTML.html#272,272,1745,982,1920,1080,8-29-2022,11-52-21,136,depth_duration_stimuli/003495_2014-05-21_16-01-51_094959634447_rgbf000100-resize_3/003495_2014-05-21_16-01-51_094959634447_rgbf000100-resize_3-target.png,125,1.6255,4.0,2028,124,feet,jsons/VE125_randls_21_rotated.json,566376,769984,36,Man
136,751099,DepthScenes,duration_manipulation_targetAtFixation,jsons/VE125_randls_21_rotated.json,http://54.235.29.9/FacialAge/BNav_EC2/DepthDuration/v2_depth_duration_MTurk/v2_DepthDuration_HTML.html#272,272,1745,982,1920,1080,8-29-2022,11-52-21,137,depth_duration_stimuli/001244_2014-06-17_16-47-45_260595134347_rgbf000030-resize_4/001244_2014-06-17_16-47-45_260595134347_rgbf000030-resize_4-target.png,125,2.0425,4.5,2729,124,feet,jsons/VE125_randls_21_rotated.json,566376,769984,36,Man
137,751099,DepthScenes,duration_manipulation_targetAtFixation,jsons/VE125_randls_21_rotated.json,http://54.235.29.9/FacialAge/BNav_EC2/DepthDuration/v2_depth_duration_MTurk/v2_DepthDuration_HTML.html#272,272,1745,982,1920,1080,8-29-2022,11-52-21,138,depth_duration_stimuli/000109_2014-05-14_23-41-52_260595134347_rgbf000035-resize_9/000109_2014-05-14_23-41-52_260595134347_rgbf000035-resize_9-target.png,125,1.3545,4.0,2277,124,feet,jsons/VE125_randls_21_rotated.json,566376,769984,36,Man
138,751099,DepthScenes,duration_manipulation_targetAtFixation,jsons/VE125_randls_21_rotated.json,http://54.235.29.9/FacialAge/BNav_EC2/DepthDuration/v2_depth_duration_MTurk/v2_DepthDuration_HTML.html#272,272,1745,982,1920,1080,8-29-2022,11-52-21,139,depth_duration_stimuli/000470_2014-06-09_19-42-40_260595134347_rgbf000094-resize_1/000470_2014-06-09_19-42-40_260595134347_rgbf000094-resize_1-target.png,125,1.831,4.5,2431,124,feet,jsons/VE125_randls_21_rotated.json,566376,769984,36,Man
139,751099,DepthScenes,duration_manipulation_targetAtFixation,jsons/VE125_randls_21_rotated.json,http://54.235.29.9/FacialAge/BNav_EC2/DepthDuration/v2_depth_duration_MTurk/v2_DepthDuration_HTML.html#272,272,1745,982,1920,1080,8-29-2022,11-52-21,140,depth_duration_stimuli/000854_2014-06-09_19-43-13_260595134347_rgbf000066-resize_0/000854_2014-06-09_19-43-13_260595134347_rgbf000066-resize_0-target.png,125,3.068,3.5,2684,124,feet,jsons/VE125_randls_21_rotated.json,566376,769984,36,Man
140,751099,DepthScenes,duration_manipulation_targetAtFixation,jsons/VE125_randls_21_rotated.json,http://54.235.29.9/FacialAge/BNav_EC2/DepthDuration/v2_depth_duration_MTurk/v2_DepthDuration_HTML.html#272,272,1745,982,1920,1080,8-29-2022,11-52-21,141,depth_duration_stimuli/000758_2014-06-08_22-05-08_260595134347_rgbf000085-resize_0/000758_2014-06-08_22-05-08_260595134347_rgbf000085-resize_0-target.png,125,3.3810000000000002,13.0,3392,124,feet,jsons/VE125_randls_21_rotated.json,566376,769984,36,Man
141,751099,DepthScenes,duration_manipulation_targetAtFixation,jsons/VE125_randls_21_rotated.json,http://54.235.29.9/FacialAge/BNav_EC2/DepthDuration/v2_depth_duration_MTurk/v2_DepthDuration_HTML.html#272,272,1745,982,1920,1080,8-29-2022,11-52-21,142,depth_duration_stimuli/002875_2014-06-01_15-19-00_094959634447_rgbf000151-resize_1/002875_2014-06-01_15-19-00_094959634447_rgbf000151-resize_1-target.png,125,1.9675,5.0,2102,124,feet,jsons/VE125_randls_21_rotated.json,566376,769984,36,Man
142,751099,DepthScenes,duration_manipulation_targetAtFixation,jsons/VE125_randls_21_rotated.json,http://54.235.29.9/FacialAge/BNav_EC2/DepthDuration/v2_depth_duration_MTurk/v2_DepthDuration_HTML.html#272,272,1745,982,1920,1080,8-29-2022,11-52-21,143,depth_duration_stimuli/001011_2014-06-08_23-18-54_260595134347_rgbf000044-resize_4/001011_2014-06-08_23-18-54_260595134347_rgbf000044-resize_4-target.png,125,2.4730000000000003,6.5,2434,124,feet,jsons/VE125_randls_21_rotated.json,566376,769984,36,Man
143,751099,DepthScenes,duration_manipulation_targetAtFixation,jsons/VE125_randls_21_rotated.json,http://54.235.29.9/FacialAge/BNav_EC2/DepthDuration/v2_depth_duration_MTurk/v2_DepthDuration_HTML.html#272,272,1745,982,1920,1080,8-29-2022,11-52-21,144,depth_duration_stimuli/000549_2014-06-08_22-10-24_260595134347_rgbf000247-resize_3/000549_2014-06-08_22-10-24_260595134347_rgbf000247-resize_3-target.png,125,1.841,3.5,2652,124,feet,jsons/VE125_randls_21_rotated.json,566376,769984,36,Man
144,751099,DepthScenes,duration_manipulation_targetAtFixation,jsons/VE125_randls_21_rotated.json,http://54.235.29.9/FacialAge/BNav_EC2/DepthDuration/v2_depth_duration_MTurk/v2_DepthDuration_HTML.html#272,272,1745,982,1920,1080,8-29-2022,11-52-21,145,depth_duration_stimuli/001055_2014-06-08_18-45-35_260595134347_rgbf000111-resize_4/001055_2014-06-08_18-45-35_260595134347_rgbf000111-resize_4-target.png,125,2.4290000000000003,12.0,2454,124,feet,jsons/VE125_randls_21_rotated.json,566376,769984,36,Man
145,751099,DepthScenes,duration_manipulation_targetAtFixation,jsons/VE125_randls_21_rotated.json,http://54.235.29.9/FacialAge/BNav_EC2/DepthDuration/v2_depth_duration_MTurk/v2_DepthDuration_HTML.html#272,272,1745,982,1920,1080,8-29-2022,11-52-21,146,depth_duration_stimuli/001450_2014-06-19_17-02-03_260595134347_rgbf000203-resize_4/001450_2014-06-19_17-02-03_260595134347_rgbf000203-resize_4-target.png,125,4.0106666666667,10.0,2255,124,feet,jsons/VE125_randls_21_rotated.json,566376,769984,36,Man
146,751099,DepthScenes,duration_manipulation_targetAtFixation,jsons/VE125_randls_21_rotated.json,http://54.235.29.9/FacialAge/BNav_EC2/DepthDuration/v2_depth_duration_MTurk/v2_DepthDuration_HTML.html#272,272,1745,982,1920,1080,8-29-2022,11-52-21,147,depth_duration_stimuli/001449_2014-06-19_17-01-27_260595134347_rgbf000116-resize_2/001449_2014-06-19_17-01-27_260595134347_rgbf000116-resize_2-target.png,125,3.452,6.5,2806,124,feet,jsons/VE125_randls_21_rotated.json,566376,769984,36,Man
147,751099,DepthScenes,duration_manipulation_targetAtFixation,jsons/VE125_randls_21_rotated.json,http://54.235.29.9/FacialAge/BNav_EC2/DepthDuration/v2_depth_duration_MTurk/v2_DepthDuration_HTML.html#272,272,1745,982,1920,1080,8-29-2022,11-52-21,148,depth_duration_stimuli/002425_2014-06-28_20-27-29_260595134347_rgbf000031-resize_8/002425_2014-06-28_20-27-29_260595134347_rgbf000031-resize_8-target.png,125,3.8960000000000004,13.0,2519,125,feet,jsons/VE125_randls_21_rotated.json,566376,769984,36,Man
148,751099,DepthScenes,duration_manipulation_targetAtFixation,jsons/VE125_randls_21_rotated.json,http://54.235.29.9/FacialAge/BNav_EC2/DepthDuration/v2_depth_duration_MTurk/v2_DepthDuration_HTML.html#272,272,1745,982,1920,1080,8-29-2022,11-52-21,149,depth_duration_stimuli/000642_2014-06-08_16-59-25_260595134347_rgbf000098-resize_2/000642_2014-06-08_16-59-25_260595134347_rgbf000098-resize_2-target.png,125,2.8815,5.0,2075,124,feet,jsons/VE125_randls_21_rotated.json,566376,769984,36,Man
149,751099,DepthScenes,duration_manipulation_targetAtFixation,jsons/VE125_randls_21_rotated.json,http://54.235.29.9/FacialAge/BNav_EC2/DepthDuration/v2_depth_duration_MTurk/v2_DepthDuration_HTML.html#272,272,1745,982,1920,1080,8-29-2022,11-52-21,150,depth_duration_stimuli/000103_2014-05-14_22-01-17_260595134347_rgbf000152-resize_5/000103_2014-05-14_22-01-17_260595134347_rgbf000152-resize_5-target.png,125,1.993,6.0,2311,124,feet,jsons/VE125_randls_21_rotated.json,566376,769984,36,Man
150,751099,DepthScenes,duration_manipulation_targetAtFixation,jsons/VE125_randls_21_rotated.json,http://54.235.29.9/FacialAge/BNav_EC2/DepthDuration/v2_depth_duration_MTurk/v2_DepthDuration_HTML.html#272,272,1745,982,1920,1080,8-29-2022,11-52-21,151,depth_duration_stimuli/001555_2014-06-20_17-12-10_260595134347_rgbf000065-resize_4/001555_2014-06-20_17-12-10_260595134347_rgbf000065-resize_4-target.png,125,1.633,4.5,2289,124,feet,jsons/VE125_randls_21_rotated.json,566376,769984,36,Man
151,751099,DepthScenes,duration_manipulation_targetAtFixation,jsons/VE125_randls_21_rotated.json,http://54.235.29.9/FacialAge/BNav_EC2/DepthDuration/v2_depth_duration_MTurk/v2_DepthDuration_HTML.html#272,272,1745,982,1920,1080,8-29-2022,11-52-21,152,depth_duration_stimuli/000569_2014-06-09_22-51-47_260595134347_rgbf000141-resize_3/000569_2014-06-09_22-51-47_260595134347_rgbf000141-resize-original.jpg,125,4.512,0.0,2232,124,feet,jsons/VE125_randls_21_rotated.json,566376,769984,36,Man
152,751099,DepthScenes,duration_manipulation_targetAtFixation,jsons/VE125_randls_21_rotated.json,http://54.235.29.9/FacialAge/BNav_EC2/DepthDuration/v2_depth_duration_MTurk/v2_DepthDuration_HTML.html#272,272,1745,982,1920,1080,8-29-2022,11-52-21,153,depth_duration_stimuli/000191_2014-05-12_17-07-38_260595134347_rgbf000199-resize_0/000191_2014-05-12_17-07-38_260595134347_rgbf000199-resize_0-target.png,125,3.7995,10.0,2219,125,feet,jsons/VE125_randls_21_rotated.json,566376,769984,36,Man
153,751099,DepthScenes,duration_manipulation_targetAtFixation,jsons/VE125_randls_21_rotated.json,http://54.235.29.9/FacialAge/BNav_EC2/DepthDuration/v2_depth_duration_MTurk/v2_DepthDuration_HTML.html#272,272,1745,982,1920,1080,8-29-2022,11-52-21,154,depth_duration_stimuli/000493_2014-06-09_21-01-18_260595134347_rgbf000196-resize_3/000493_2014-06-09_21-01-18_260595134347_rgbf000196-resize_3-target.png,125,3.44,8.0,2440,124,feet,jsons/VE125_randls_21_rotated.json,566376,769984,36,Man
154,751099,DepthScenes,duration_manipulation_targetAtFixation,jsons/VE125_randls_21_rotated.json,http://54.235.29.9/FacialAge/BNav_EC2/DepthDuration/v2_depth_duration_MTurk/v2_DepthDuration_HTML.html#272,272,1745,982,1920,1080,8-29-2022,11-52-21,155,depth_duration_stimuli/003338_2014-05-20_11-01-23_094959634447_rgbf000051-resize_6/003338_2014-05-20_11-01-23_094959634447_rgbf000051-resize_6-target.png,125,1.693,4.0,2231,124,feet,jsons/VE125_randls_21_rotated.json,566376,769984,36,Man
155,751099,DepthScenes,duration_manipulation_targetAtFixation,jsons/VE125_randls_21_rotated.json,http://54.235.29.9/FacialAge/BNav_EC2/DepthDuration/v2_depth_duration_MTurk/v2_DepthDuration_HTML.html#272,272,1745,982,1920,1080,8-29-2022,11-52-21,156,depth_duration_stimuli/002509_2014-06-24_13-19-22_094959634447_rgbf000077-resize_0/002509_2014-06-24_13-19-22_094959634447_rgbf000077-resize_0-target.png,125,1.3065,4.5,2835,124,feet,jsons/VE125_randls_21_rotated.json,566376,769984,36,Man
156,751099,DepthScenes,duration_manipulation_targetAtFixation,jsons/VE125_randls_21_rotated.json,http://54.235.29.9/FacialAge/BNav_EC2/DepthDuration/v2_depth_duration_MTurk/v2_DepthDuration_HTML.html#272,272,1745,982,1920,1080,8-29-2022,11-52-21,157,depth_duration_stimuli/003490_2014-05-21_15-50-11_094959634447_rgbf000101-resize_3/003490_2014-05-21_15-50-11_094959634447_rgbf000101-resize_3-target.png,125,3.6445,8.0,2598,124,feet,jsons/VE125_randls_21_rotated.json,566376,769984,36,Man
157,751099,DepthScenes,duration_manipulation_targetAtFixation,jsons/VE125_randls_21_rotated.json,http://54.235.29.9/FacialAge/BNav_EC2/DepthDuration/v2_depth_duration_MTurk/v2_DepthDuration_HTML.html#272,272,1745,982,1920,1080,8-29-2022,11-52-21,158,depth_duration_stimuli/001175_2014-06-17_15-45-55_260595134347_rgbf000129-resize_4/001175_2014-06-17_15-45-55_260595134347_rgbf000129-resize_4-target.png,125,4.255,13.0,2604,124,feet,jsons/VE125_randls_21_rotated.json,566376,769984,36,Man
158,751099,DepthScenes,duration_manipulation_targetAtFixation,jsons/VE125_randls_21_rotated.json,http://54.235.29.9/FacialAge/BNav_EC2/DepthDuration/v2_depth_duration_MTurk/v2_DepthDuration_HTML.html#272,272,1745,982,1920,1080,8-29-2022,11-52-21,159,depth_duration_stimuli/000483_2014-06-09_20-41-45_260595134347_rgbf000116-resize_4/000483_2014-06-09_20-41-45_260595134347_rgbf000116-resize_4-target.png,125,1.337,5.0,2566,125,feet,jsons/VE125_randls_21_rotated.json,566376,769984,36,Man
159,751099,DepthScenes,duration_manipulation_targetAtFixation,jsons/VE125_randls_21_rotated.json,http://54.235.29.9/FacialAge/BNav_EC2/DepthDuration/v2_depth_duration_MTurk/v2_DepthDuration_HTML.html#272,272,1745,982,1920,1080,8-29-2022,11-52-21,160,depth_duration_stimuli/000469_2014-06-09_19-42-10_260595134347_rgbf000081-resize_1/000469_2014-06-09_19-42-10_260595134347_rgbf000081-resize_1-target.png,125,1.652,5.0,1958,124,feet,jsons/VE125_randls_21_rotated.json,566376,769984,36,Man
160,751099,DepthScenes,duration_manipulation_targetAtFixation,jsons/VE125_randls_21_rotated.json,http://54.235.29.9/FacialAge/BNav_EC2/DepthDuration/v2_depth_duration_MTurk/v2_DepthDuration_HTML.html#272,272,1745,982,1920,1080,8-29-2022,11-52-21,161,depth_duration_stimuli/002199_2014-06-28_18-33-56_260595134347_rgbf000074-resize_0/002199_2014-06-28_18-33-56_260595134347_rgbf000074-resize_0-target.png,125,1.996,3.0,2272,124,feet,jsons/VE125_randls_21_rotated.json,566376,769984,36,Man
161,751099,DepthScenes,duration_manipulation_targetAtFixation,jsons/VE125_randls_21_rotated.json,http://54.235.29.9/FacialAge/BNav_EC2/DepthDuration/v2_depth_duration_MTurk/v2_DepthDuration_HTML.html#272,272,1745,982,1920,1080,8-29-2022,11-52-21,162,depth_duration_stimuli/001056_2014-06-08_18-46-44_260595134347_rgbf000068-resize_0/001056_2014-06-08_18-46-44_260595134347_rgbf000068-resize_0-target.png,125,2.6625,7.0,2455,124,feet,jsons/VE125_randls_21_rotated.json,566376,769984,36,Man
162,751099,DepthScenes,duration_manipulation_targetAtFixation,jsons/VE125_randls_21_rotated.json,http://54.235.29.9/FacialAge/BNav_EC2/DepthDuration/v2_depth_duration_MTurk/v2_DepthDuration_HTML.html#272,272,1745,982,1920,1080,8-29-2022,11-52-21,163,depth_duration_stimuli/001828_2014-06-26_21-40-03_260595134347_rgbf000024-resize_0/001828_2014-06-26_21-40-03_260595134347_rgbf000024-resize_0-target.png,125,4.8260000000000005,10.0,2468,124,feet,jsons/VE125_randls_21_rotated.json,566376,769984,36,Man
163,751099,DepthScenes,duration_manipulation_targetAtFixation,jsons/VE125_randls_21_rotated.json,http://54.235.29.9/FacialAge/BNav_EC2/DepthDuration/v2_depth_duration_MTurk/v2_DepthDuration_HTML.html#272,272,1745,982,1920,1080,8-29-2022,11-52-21,164,depth_duration_stimuli/000009_2014-05-26_14-32-05_260595134347_rgbf000034-resize_3/000009_2014-05-26_14-32-05_260595134347_rgbf000034-resize_3-target.png,125,3.8715,14.0,2888,124,feet,jsons/VE125_randls_21_rotated.json,566376,769984,36,Man
