,subjID,experimentName,versionName,sequenceName,url,selected_row,windowWidth,windowHeight,screenWidth,screenHeight,startDate,startTime,trial,stimulus,duration,actual_depth,depth_estimate,trial_RT,log_sceneDuration,unitSelection,seq_filepath,experimentTime,totalTime,age,gender
0,756315,DepthScenes,duration_manipulation_targetAtFixation,jsons/v1_VE1000_randls_8_rotated.json,http://54.235.29.9/FacialAge/BNav_EC2/DepthDuration/v2_depth_duration_MTurk/v2_DepthDuration_HTML.html#12,12,1024,768,1024,768,8-22-2022,4-59-54,1,depth_duration_stimuli/001447_2014-06-19_17-00-32_260595134347_rgbf000082-resize_5/001447_2014-06-19_17-00-32_260595134347_rgbf000082-resize_5-target.png,1000,4.13775,5,7189,999,meters,jsons/v1_VE1000_randls_8_rotated.json,1957668,2136439,30,Woman
1,756315,DepthScenes,duration_manipulation_targetAtFixation,jsons/v1_VE1000_randls_8_rotated.json,http://54.235.29.9/FacialAge/BNav_EC2/DepthDuration/v2_depth_duration_MTurk/v2_DepthDuration_HTML.html#12,12,1024,768,1024,768,8-22-2022,4-59-54,2,depth_duration_stimuli/000447_2014-06-08_16-15-46_260595134347_rgbf000130-resize_1/000447_2014-06-08_16-15-46_260595134347_rgbf000130-resize_1-target.png,1000,4.479,5,5354,1000,meters,jsons/v1_VE1000_randls_8_rotated.json,1957668,2136439,30,Woman
2,756315,DepthScenes,duration_manipulation_targetAtFixation,jsons/v1_VE1000_randls_8_rotated.json,http://54.235.29.9/FacialAge/BNav_EC2/DepthDuration/v2_depth_duration_MTurk/v2_DepthDuration_HTML.html#12,12,1024,768,1024,768,8-22-2022,4-59-54,3,depth_duration_stimuli/002136_2014-06-25_21-18-03_260595134347_rgbf000109-resize_3/002136_2014-06-25_21-18-03_260595134347_rgbf000109-resize_3-target.png,1000,1.9569999999999999,5,6275,999,meters,jsons/v1_VE1000_randls_8_rotated.json,1957668,2136439,30,Woman
3,756315,DepthScenes,duration_manipulation_targetAtFixation,jsons/v1_VE1000_randls_8_rotated.json,http://54.235.29.9/FacialAge/BNav_EC2/DepthDuration/v2_depth_duration_MTurk/v2_DepthDuration_HTML.html#12,12,1024,768,1024,768,8-22-2022,4-59-54,4,depth_duration_stimuli/002964_2014-06-08_17-46-11_094959634447_rgbf000091-resize_4/002964_2014-06-08_17-46-11_094959634447_rgbf000091-resize_4-target.png,1000,1.6909999999999998,5,6505,996,meters,jsons/v1_VE1000_randls_8_rotated.json,1957668,2136439,30,Woman
4,756315,DepthScenes,duration_manipulation_targetAtFixation,jsons/v1_VE1000_randls_8_rotated.json,http://54.235.29.9/FacialAge/BNav_EC2/DepthDuration/v2_depth_duration_MTurk/v2_DepthDuration_HTML.html#12,12,1024,768,1024,768,8-22-2022,4-59-54,5,depth_duration_stimuli/000109_2014-05-14_23-41-52_260595134347_rgbf000035-resize_9/000109_2014-05-14_23-41-52_260595134347_rgbf000035-resize_9-target.png,1000,1.3545,5,8682,1012,meters,jsons/v1_VE1000_randls_8_rotated.json,1957668,2136439,30,Woman
5,756315,DepthScenes,duration_manipulation_targetAtFixation,jsons/v1_VE1000_randls_8_rotated.json,http://54.235.29.9/FacialAge/BNav_EC2/DepthDuration/v2_depth_duration_MTurk/v2_DepthDuration_HTML.html#12,12,1024,768,1024,768,8-22-2022,4-59-54,6,depth_duration_stimuli/000470_2014-06-09_19-42-40_260595134347_rgbf000094-resize_1/000470_2014-06-09_19-42-40_260595134347_rgbf000094-resize_1-target.png,1000,1.831,4,11154,999,meters,jsons/v1_VE1000_randls_8_rotated.json,1957668,2136439,30,Woman
6,756315,DepthScenes,duration_manipulation_targetAtFixation,jsons/v1_VE1000_randls_8_rotated.json,http://54.235.29.9/FacialAge/BNav_EC2/DepthDuration/v2_depth_duration_MTurk/v2_DepthDuration_HTML.html#12,12,1024,768,1024,768,8-22-2022,4-59-54,7,depth_duration_stimuli/002657_2014-06-13_15-29-54_094959634447_rgbf000150-resize_1/002657_2014-06-13_15-29-54_094959634447_rgbf000150-resize_1-target.png,1000,4.919,5,10179,1000,meters,jsons/v1_VE1000_randls_8_rotated.json,1957668,2136439,30,Woman
7,756315,DepthScenes,duration_manipulation_targetAtFixation,jsons/v1_VE1000_randls_8_rotated.json,http://54.235.29.9/FacialAge/BNav_EC2/DepthDuration/v2_depth_duration_MTurk/v2_DepthDuration_HTML.html#12,12,1024,768,1024,768,8-22-2022,4-59-54,8,depth_duration_stimuli/002375_2014-06-28_20-13-44_260595134347_rgbf000032-resize_1/002375_2014-06-28_20-13-44_260595134347_rgbf000032-resize_1-target.png,1000,4.0175,5,10331,911,meters,jsons/v1_VE1000_randls_8_rotated.json,1957668,2136439,30,Woman
8,756315,DepthScenes,duration_manipulation_targetAtFixation,jsons/v1_VE1000_randls_8_rotated.json,http://54.235.29.9/FacialAge/BNav_EC2/DepthDuration/v2_depth_duration_MTurk/v2_DepthDuration_HTML.html#12,12,1024,768,1024,768,8-22-2022,4-59-54,9,depth_duration_stimuli/001617_2014-06-20_11-35-32_260595134347_rgbf000066-resize_1/001617_2014-06-20_11-35-32_260595134347_rgbf000066-resize_1-target.png,1000,3.7910000000000004,5,9339,998,meters,jsons/v1_VE1000_randls_8_rotated.json,1957668,2136439,30,Woman
9,756315,DepthScenes,duration_manipulation_targetAtFixation,jsons/v1_VE1000_randls_8_rotated.json,http://54.235.29.9/FacialAge/BNav_EC2/DepthDuration/v2_depth_duration_MTurk/v2_DepthDuration_HTML.html#12,12,1024,768,1024,768,8-22-2022,4-59-54,10,depth_duration_stimuli/001806_2014-06-26_20-50-20_260595134347_rgbf000091-resize_1/001806_2014-06-26_20-50-20_260595134347_rgbf000091-resize_1-target.png,1000,2.7305,5,9843,916,meters,jsons/v1_VE1000_randls_8_rotated.json,1957668,2136439,30,Woman
10,756315,DepthScenes,duration_manipulation_targetAtFixation,jsons/v1_VE1000_randls_8_rotated.json,http://54.235.29.9/FacialAge/BNav_EC2/DepthDuration/v2_depth_duration_MTurk/v2_DepthDuration_HTML.html#12,12,1024,768,1024,768,8-22-2022,4-59-54,11,depth_duration_stimuli/002344_2014-06-28_20-06-29_260595134347_rgbf000030-resize_1/002344_2014-06-28_20-06-29_260595134347_rgbf000030-resize_1-target.png,1000,1.5795,5,11356,1000,meters,jsons/v1_VE1000_randls_8_rotated.json,1957668,2136439,30,Woman
11,756315,DepthScenes,duration_manipulation_targetAtFixation,jsons/v1_VE1000_randls_8_rotated.json,http://54.235.29.9/FacialAge/BNav_EC2/DepthDuration/v2_depth_duration_MTurk/v2_DepthDuration_HTML.html#12,12,1024,768,1024,768,8-22-2022,4-59-54,12,depth_duration_stimuli/002725_2014-06-22_11-47-51_094959634447_rgbf000070-resize_1/002725_2014-06-22_11-47-51_094959634447_rgbf000070-resize_1-target.png,1000,2.195,5,6318,995,meters,jsons/v1_VE1000_randls_8_rotated.json,1957668,2136439,30,Woman
12,756315,DepthScenes,duration_manipulation_targetAtFixation,jsons/v1_VE1000_randls_8_rotated.json,http://54.235.29.9/FacialAge/BNav_EC2/DepthDuration/v2_depth_duration_MTurk/v2_DepthDuration_HTML.html#12,12,1024,768,1024,768,8-22-2022,4-59-54,13,depth_duration_stimuli/002875_2014-06-01_15-19-00_094959634447_rgbf000151-resize_1/002875_2014-06-01_15-19-00_094959634447_rgbf000151-resize_1-target.png,1000,1.9675,5,6800,1244,meters,jsons/v1_VE1000_randls_8_rotated.json,1957668,2136439,30,Woman
13,756315,DepthScenes,duration_manipulation_targetAtFixation,jsons/v1_VE1000_randls_8_rotated.json,http://54.235.29.9/FacialAge/BNav_EC2/DepthDuration/v2_depth_duration_MTurk/v2_DepthDuration_HTML.html#12,12,1024,768,1024,768,8-22-2022,4-59-54,14,depth_duration_stimuli/001011_2014-06-08_23-18-54_260595134347_rgbf000044-resize_4/001011_2014-06-08_23-18-54_260595134347_rgbf000044-resize_4-target.png,1000,2.4730000000000003,5,7458,842,meters,jsons/v1_VE1000_randls_8_rotated.json,1957668,2136439,30,Woman
14,756315,DepthScenes,duration_manipulation_targetAtFixation,jsons/v1_VE1000_randls_8_rotated.json,http://54.235.29.9/FacialAge/BNav_EC2/DepthDuration/v2_depth_duration_MTurk/v2_DepthDuration_HTML.html#12,12,1024,768,1024,768,8-22-2022,4-59-54,15,depth_duration_stimuli/001815_2014-06-26_20-52-55_260595134347_rgbf000020-resize_0/001815_2014-06-26_20-52-55_260595134347_rgbf000020-resize_0-target.png,1000,3.3865,4,15115,999,meters,jsons/v1_VE1000_randls_8_rotated.json,1957668,2136439,30,Woman
15,756315,DepthScenes,duration_manipulation_targetAtFixation,jsons/v1_VE1000_randls_8_rotated.json,http://54.235.29.9/FacialAge/BNav_EC2/DepthDuration/v2_depth_duration_MTurk/v2_DepthDuration_HTML.html#12,12,1024,768,1024,768,8-22-2022,4-59-54,16,depth_duration_stimuli/001808_2014-06-26_20-50-58_260595134347_rgbf000029-resize_1/001808_2014-06-26_20-50-58_260595134347_rgbf000029-resize_1-target.png,1000,4.249,4,7370,996,meters,jsons/v1_VE1000_randls_8_rotated.json,1957668,2136439,30,Woman
16,756315,DepthScenes,duration_manipulation_targetAtFixation,jsons/v1_VE1000_randls_8_rotated.json,http://54.235.29.9/FacialAge/BNav_EC2/DepthDuration/v2_depth_duration_MTurk/v2_DepthDuration_HTML.html#12,12,1024,768,1024,768,8-22-2022,4-59-54,17,depth_duration_stimuli/000549_2014-06-08_22-10-24_260595134347_rgbf000247-resize_3/000549_2014-06-08_22-10-24_260595134347_rgbf000247-resize_3-target.png,1000,1.841,5,5873,998,meters,jsons/v1_VE1000_randls_8_rotated.json,1957668,2136439,30,Woman
17,756315,DepthScenes,duration_manipulation_targetAtFixation,jsons/v1_VE1000_randls_8_rotated.json,http://54.235.29.9/FacialAge/BNav_EC2/DepthDuration/v2_depth_duration_MTurk/v2_DepthDuration_HTML.html#12,12,1024,768,1024,768,8-22-2022,4-59-54,18,depth_duration_stimuli/001055_2014-06-08_18-45-35_260595134347_rgbf000111-resize_4/001055_2014-06-08_18-45-35_260595134347_rgbf000111-resize_4-target.png,1000,2.4290000000000003,3,14213,1000,meters,jsons/v1_VE1000_randls_8_rotated.json,1957668,2136439,30,Woman
18,756315,DepthScenes,duration_manipulation_targetAtFixation,jsons/v1_VE1000_randls_8_rotated.json,http://54.235.29.9/FacialAge/BNav_EC2/DepthDuration/v2_depth_duration_MTurk/v2_DepthDuration_HTML.html#12,12,1024,768,1024,768,8-22-2022,4-59-54,19,depth_duration_stimuli/001498_2014-06-19_17-45-14_260595134347_rgbf000129-resize_4/001498_2014-06-19_17-45-14_260595134347_rgbf000129-resize-original.jpg,1000,1.4075,5,9398,1001,meters,jsons/v1_VE1000_randls_8_rotated.json,1957668,2136439,30,Woman
19,756315,DepthScenes,duration_manipulation_targetAtFixation,jsons/v1_VE1000_randls_8_rotated.json,http://54.235.29.9/FacialAge/BNav_EC2/DepthDuration/v2_depth_duration_MTurk/v2_DepthDuration_HTML.html#12,12,1024,768,1024,768,8-22-2022,4-59-54,20,depth_duration_stimuli/002340_2014-06-28_20-05-46_260595134347_rgbf000113-resize_0/002340_2014-06-28_20-05-46_260595134347_rgbf000113-resize_0-target.png,1000,2.4735,5,17317,1000,meters,jsons/v1_VE1000_randls_8_rotated.json,1957668,2136439,30,Woman
20,756315,DepthScenes,duration_manipulation_targetAtFixation,jsons/v1_VE1000_randls_8_rotated.json,http://54.235.29.9/FacialAge/BNav_EC2/DepthDuration/v2_depth_duration_MTurk/v2_DepthDuration_HTML.html#12,12,1024,768,1024,768,8-22-2022,4-59-54,21,depth_duration_stimuli/001016_2014-06-09_16-16-10_260595134347_rgbf000112-resize_5/001016_2014-06-09_16-16-10_260595134347_rgbf000112-resize_5-target.png,1000,1.6565,5,6746,999,meters,jsons/v1_VE1000_randls_8_rotated.json,1957668,2136439,30,Woman
21,756315,DepthScenes,duration_manipulation_targetAtFixation,jsons/v1_VE1000_randls_8_rotated.json,http://54.235.29.9/FacialAge/BNav_EC2/DepthDuration/v2_depth_duration_MTurk/v2_DepthDuration_HTML.html#12,12,1024,768,1024,768,8-22-2022,4-59-54,22,depth_duration_stimuli/002953_2014-06-08_17-32-18_094959634447_rgbf000059-resize_5/002953_2014-06-08_17-32-18_094959634447_rgbf000059-resize_5-target.png,1000,1.551,5,10532,1001,meters,jsons/v1_VE1000_randls_8_rotated.json,1957668,2136439,30,Woman
22,756315,DepthScenes,duration_manipulation_targetAtFixation,jsons/v1_VE1000_randls_8_rotated.json,http://54.235.29.9/FacialAge/BNav_EC2/DepthDuration/v2_depth_duration_MTurk/v2_DepthDuration_HTML.html#12,12,1024,768,1024,768,8-22-2022,4-59-54,23,depth_duration_stimuli/000878_2014-06-08_22-52-45_260595134347_rgbf000045-resize_2/000878_2014-06-08_22-52-45_260595134347_rgbf000045-resize_2-target.png,1000,2.092,5,8930,1000,meters,jsons/v1_VE1000_randls_8_rotated.json,1957668,2136439,30,Woman
23,756315,DepthScenes,duration_manipulation_targetAtFixation,jsons/v1_VE1000_randls_8_rotated.json,http://54.235.29.9/FacialAge/BNav_EC2/DepthDuration/v2_depth_duration_MTurk/v2_DepthDuration_HTML.html#12,12,1024,768,1024,768,8-22-2022,4-59-54,24,depth_duration_stimuli/002750_2014-06-22_19-08-03_094959634447_rgbf000094-resize_4/002750_2014-06-22_19-08-03_094959634447_rgbf000094-resize_4-target.png,1000,2.354,5,16029,970,meters,jsons/v1_VE1000_randls_8_rotated.json,1957668,2136439,30,Woman
24,756315,DepthScenes,duration_manipulation_targetAtFixation,jsons/v1_VE1000_randls_8_rotated.json,http://54.235.29.9/FacialAge/BNav_EC2/DepthDuration/v2_depth_duration_MTurk/v2_DepthDuration_HTML.html#12,12,1024,768,1024,768,8-22-2022,4-59-54,25,depth_duration_stimuli/002549_2014-06-24_13-41-39_094959634447_rgbf000022-resize_3/002549_2014-06-24_13-41-39_094959634447_rgbf000022-resize_3-target.png,1000,1.476,3,10803,1000,meters,jsons/v1_VE1000_randls_8_rotated.json,1957668,2136439,30,Woman
25,756315,DepthScenes,duration_manipulation_targetAtFixation,jsons/v1_VE1000_randls_8_rotated.json,http://54.235.29.9/FacialAge/BNav_EC2/DepthDuration/v2_depth_duration_MTurk/v2_DepthDuration_HTML.html#12,12,1024,768,1024,768,8-22-2022,4-59-54,26,depth_duration_stimuli/000780_2014-06-08_22-28-29_260595134347_rgbf000126-resize_1/000780_2014-06-08_22-28-29_260595134347_rgbf000126-resize_1-target.png,1000,3.3825,5,19459,1000,meters,jsons/v1_VE1000_randls_8_rotated.json,1957668,2136439,30,Woman
26,756315,DepthScenes,duration_manipulation_targetAtFixation,jsons/v1_VE1000_randls_8_rotated.json,http://54.235.29.9/FacialAge/BNav_EC2/DepthDuration/v2_depth_duration_MTurk/v2_DepthDuration_HTML.html#12,12,1024,768,1024,768,8-22-2022,4-59-54,27,depth_duration_stimuli/002445_2014-06-28_20-32-16_260595134347_rgbf000029-resize_4/002445_2014-06-28_20-32-16_260595134347_rgbf000029-resize_4-target.png,1000,2.5315,5,8611,993,meters,jsons/v1_VE1000_randls_8_rotated.json,1957668,2136439,30,Woman
27,756315,DepthScenes,duration_manipulation_targetAtFixation,jsons/v1_VE1000_randls_8_rotated.json,http://54.235.29.9/FacialAge/BNav_EC2/DepthDuration/v2_depth_duration_MTurk/v2_DepthDuration_HTML.html#12,12,1024,768,1024,768,8-22-2022,4-59-54,28,depth_duration_stimuli/003228_2014-05-14_13-42-35_094959634447_rgbf000101-resize_1/003228_2014-05-14_13-42-35_094959634447_rgbf000101-resize_1-target.png,1000,1.9680000000000002,5,40355,1004,meters,jsons/v1_VE1000_randls_8_rotated.json,1957668,2136439,30,Woman
28,756315,DepthScenes,duration_manipulation_targetAtFixation,jsons/v1_VE1000_randls_8_rotated.json,http://54.235.29.9/FacialAge/BNav_EC2/DepthDuration/v2_depth_duration_MTurk/v2_DepthDuration_HTML.html#12,12,1024,768,1024,768,8-22-2022,4-59-54,29,depth_duration_stimuli/002600_2014-06-24_14-27-04_094959634447_rgbf000074-resize_2/002600_2014-06-24_14-27-04_094959634447_rgbf000074-resize_2-target.png,1000,2.7575,5,10263,1000,meters,jsons/v1_VE1000_randls_8_rotated.json,1957668,2136439,30,Woman
29,756315,DepthScenes,duration_manipulation_targetAtFixation,jsons/v1_VE1000_randls_8_rotated.json,http://54.235.29.9/FacialAge/BNav_EC2/DepthDuration/v2_depth_duration_MTurk/v2_DepthDuration_HTML.html#12,12,1024,768,1024,768,8-22-2022,4-59-54,30,depth_duration_stimuli/002072_2014-06-24_21-48-06_260595134347_rgbf000115-resize_0/002072_2014-06-24_21-48-06_260595134347_rgbf000115-resize-original.jpg,1000,4.702,5,21544,1000,meters,jsons/v1_VE1000_randls_8_rotated.json,1957668,2136439,30,Woman
30,756315,DepthScenes,duration_manipulation_targetAtFixation,jsons/v1_VE1000_randls_8_rotated.json,http://54.235.29.9/FacialAge/BNav_EC2/DepthDuration/v2_depth_duration_MTurk/v2_DepthDuration_HTML.html#12,12,1024,768,1024,768,8-22-2022,4-59-54,31,depth_duration_stimuli/000709_2014-06-08_13-51-55_260595134347_rgbf000068-resize_3/000709_2014-06-08_13-51-55_260595134347_rgbf000068-resize_3-target.png,1000,1.8030000000000002,5,8451,1000,meters,jsons/v1_VE1000_randls_8_rotated.json,1957668,2136439,30,Woman
31,756315,DepthScenes,duration_manipulation_targetAtFixation,jsons/v1_VE1000_randls_8_rotated.json,http://54.235.29.9/FacialAge/BNav_EC2/DepthDuration/v2_depth_duration_MTurk/v2_DepthDuration_HTML.html#12,12,1024,768,1024,768,8-22-2022,4-59-54,32,depth_duration_stimuli/002057_2014-06-24_21-00-13_260595134347_rgbf000120-resize_1/002057_2014-06-24_21-00-13_260595134347_rgbf000120-resize_1-target.png,1000,2.967,5,7522,1001,meters,jsons/v1_VE1000_randls_8_rotated.json,1957668,2136439,30,Woman
32,756315,DepthScenes,duration_manipulation_targetAtFixation,jsons/v1_VE1000_randls_8_rotated.json,http://54.235.29.9/FacialAge/BNav_EC2/DepthDuration/v2_depth_duration_MTurk/v2_DepthDuration_HTML.html#12,12,1024,768,1024,768,8-22-2022,4-59-54,33,depth_duration_stimuli/000103_2014-05-14_22-01-17_260595134347_rgbf000152-resize_5/000103_2014-05-14_22-01-17_260595134347_rgbf000152-resize_5-target.png,1000,1.993,3,9327,998,meters,jsons/v1_VE1000_randls_8_rotated.json,1957668,2136439,30,Woman
33,756315,DepthScenes,duration_manipulation_targetAtFixation,jsons/v1_VE1000_randls_8_rotated.json,http://54.235.29.9/FacialAge/BNav_EC2/DepthDuration/v2_depth_duration_MTurk/v2_DepthDuration_HTML.html#12,12,1024,768,1024,768,8-22-2022,4-59-54,34,depth_duration_stimuli/001555_2014-06-20_17-12-10_260595134347_rgbf000065-resize_4/001555_2014-06-20_17-12-10_260595134347_rgbf000065-resize_4-target.png,1000,1.633,5,7731,1000,meters,jsons/v1_VE1000_randls_8_rotated.json,1957668,2136439,30,Woman
34,756315,DepthScenes,duration_manipulation_targetAtFixation,jsons/v1_VE1000_randls_8_rotated.json,http://54.235.29.9/FacialAge/BNav_EC2/DepthDuration/v2_depth_duration_MTurk/v2_DepthDuration_HTML.html#12,12,1024,768,1024,768,8-22-2022,4-59-54,35,depth_duration_stimuli/001094_2014-06-15_17-36-00_260595134347_rgbf000205-resize_0/001094_2014-06-15_17-36-00_260595134347_rgbf000205-resize_0-target.png,1000,4.2175,5,9348,1000,meters,jsons/v1_VE1000_randls_8_rotated.json,1957668,2136439,30,Woman
35,756315,DepthScenes,duration_manipulation_targetAtFixation,jsons/v1_VE1000_randls_8_rotated.json,http://54.235.29.9/FacialAge/BNav_EC2/DepthDuration/v2_depth_duration_MTurk/v2_DepthDuration_HTML.html#12,12,1024,768,1024,768,8-22-2022,4-59-54,36,depth_duration_stimuli/000692_2014-06-08_13-09-42_260595134347_rgbf000199-resize_2/000692_2014-06-08_13-09-42_260595134347_rgbf000199-resize_2-target.png,1000,3.661,5,10481,999,meters,jsons/v1_VE1000_randls_8_rotated.json,1957668,2136439,30,Woman
36,756315,DepthScenes,duration_manipulation_targetAtFixation,jsons/v1_VE1000_randls_8_rotated.json,http://54.235.29.9/FacialAge/BNav_EC2/DepthDuration/v2_depth_duration_MTurk/v2_DepthDuration_HTML.html#12,12,1024,768,1024,768,8-22-2022,4-59-54,37,depth_duration_stimuli/001052_2014-06-08_18-24-54_260595134347_rgbf000130-resize_1/001052_2014-06-08_18-24-54_260595134347_rgbf000130-resize_1-target.png,1000,4.1045,5,15371,1000,meters,jsons/v1_VE1000_randls_8_rotated.json,1957668,2136439,30,Woman
37,756315,DepthScenes,duration_manipulation_targetAtFixation,jsons/v1_VE1000_randls_8_rotated.json,http://54.235.29.9/FacialAge/BNav_EC2/DepthDuration/v2_depth_duration_MTurk/v2_DepthDuration_HTML.html#12,12,1024,768,1024,768,8-22-2022,4-59-54,38,depth_duration_stimuli/002988_2014-06-15_12-24-20_094959634447_rgbf000150-resize_1/002988_2014-06-15_12-24-20_094959634447_rgbf000150-resize_1-target.png,1000,4.7669999999999995,5,10217,999,meters,jsons/v1_VE1000_randls_8_rotated.json,1957668,2136439,30,Woman
38,756315,DepthScenes,duration_manipulation_targetAtFixation,jsons/v1_VE1000_randls_8_rotated.json,http://54.235.29.9/FacialAge/BNav_EC2/DepthDuration/v2_depth_duration_MTurk/v2_DepthDuration_HTML.html#12,12,1024,768,1024,768,8-22-2022,4-59-54,39,depth_duration_stimuli/003048_2014-06-15_13-49-43_094959634447_rgbf000150-resize_1/003048_2014-06-15_13-49-43_094959634447_rgbf000150-resize_1-target.png,1000,4.0035,5,17409,999,meters,jsons/v1_VE1000_randls_8_rotated.json,1957668,2136439,30,Woman
39,756315,DepthScenes,duration_manipulation_targetAtFixation,jsons/v1_VE1000_randls_8_rotated.json,http://54.235.29.9/FacialAge/BNav_EC2/DepthDuration/v2_depth_duration_MTurk/v2_DepthDuration_HTML.html#12,12,1024,768,1024,768,8-22-2022,4-59-54,40,depth_duration_stimuli/002043_2014-06-24_20-29-38_260595134347_rgbf000039-resize_4/002043_2014-06-24_20-29-38_260595134347_rgbf000039-resize_4-target.png,1000,2.8435,5,13515,1000,meters,jsons/v1_VE1000_randls_8_rotated.json,1957668,2136439,30,Woman
40,756315,DepthScenes,duration_manipulation_targetAtFixation,jsons/v1_VE1000_randls_8_rotated.json,http://54.235.29.9/FacialAge/BNav_EC2/DepthDuration/v2_depth_duration_MTurk/v2_DepthDuration_HTML.html#12,12,1024,768,1024,768,8-22-2022,4-59-54,41,depth_duration_stimuli/002467_2014-06-28_20-38-07_260595134347_rgbf000026-resize_2/002467_2014-06-28_20-38-07_260595134347_rgbf000026-resize_2-target.png,1000,4.742,5,17684,1000,meters,jsons/v1_VE1000_randls_8_rotated.json,1957668,2136439,30,Woman
41,756315,DepthScenes,duration_manipulation_targetAtFixation,jsons/v1_VE1000_randls_8_rotated.json,http://54.235.29.9/FacialAge/BNav_EC2/DepthDuration/v2_depth_duration_MTurk/v2_DepthDuration_HTML.html#12,12,1024,768,1024,768,8-22-2022,4-59-54,42,depth_duration_stimuli/002570_2014-06-24_13-59-54_094959634447_rgbf000059-resize_0/002570_2014-06-24_13-59-54_094959634447_rgbf000059-resize_0-target.png,1000,4.037,5,8963,999,meters,jsons/v1_VE1000_randls_8_rotated.json,1957668,2136439,30,Woman
42,756315,DepthScenes,duration_manipulation_targetAtFixation,jsons/v1_VE1000_randls_8_rotated.json,http://54.235.29.9/FacialAge/BNav_EC2/DepthDuration/v2_depth_duration_MTurk/v2_DepthDuration_HTML.html#12,12,1024,768,1024,768,8-22-2022,4-59-54,43,depth_duration_stimuli/000691_2014-06-08_13-08-50_260595134347_rgbf000132-resize_3/000691_2014-06-08_13-08-50_260595134347_rgbf000132-resize_3-target.png,1000,4.1530000000000005,5,11791,1000,meters,jsons/v1_VE1000_randls_8_rotated.json,1957668,2136439,30,Woman
43,756315,DepthScenes,duration_manipulation_targetAtFixation,jsons/v1_VE1000_randls_8_rotated.json,http://54.235.29.9/FacialAge/BNav_EC2/DepthDuration/v2_depth_duration_MTurk/v2_DepthDuration_HTML.html#12,12,1024,768,1024,768,8-22-2022,4-59-54,44,depth_duration_stimuli/002213_2014-06-28_18-37-58_260595134347_rgbf000055-resize_1/002213_2014-06-28_18-37-58_260595134347_rgbf000055-resize_1-target.png,1000,3.62,4,9562,1000,meters,jsons/v1_VE1000_randls_8_rotated.json,1957668,2136439,30,Woman
44,756315,DepthScenes,duration_manipulation_targetAtFixation,jsons/v1_VE1000_randls_8_rotated.json,http://54.235.29.9/FacialAge/BNav_EC2/DepthDuration/v2_depth_duration_MTurk/v2_DepthDuration_HTML.html#12,12,1024,768,1024,768,8-22-2022,4-59-54,45,depth_duration_stimuli/001571_2014-06-20_17-21-32_260595134347_rgbf000089-resize_1/001571_2014-06-20_17-21-32_260595134347_rgbf000089-resize_1-target.png,1000,1.86,5,6970,999,meters,jsons/v1_VE1000_randls_8_rotated.json,1957668,2136439,30,Woman
45,756315,DepthScenes,duration_manipulation_targetAtFixation,jsons/v1_VE1000_randls_8_rotated.json,http://54.235.29.9/FacialAge/BNav_EC2/DepthDuration/v2_depth_duration_MTurk/v2_DepthDuration_HTML.html#12,12,1024,768,1024,768,8-22-2022,4-59-54,46,depth_duration_stimuli/002272_2014-06-28_18-53-56_260595134347_rgbf000067-resize_2/002272_2014-06-28_18-53-56_260595134347_rgbf000067-resize_2-target.png,1000,1.138,5,40386,999,meters,jsons/v1_VE1000_randls_8_rotated.json,1957668,2136439,30,Woman
46,756315,DepthScenes,duration_manipulation_targetAtFixation,jsons/v1_VE1000_randls_8_rotated.json,http://54.235.29.9/FacialAge/BNav_EC2/DepthDuration/v2_depth_duration_MTurk/v2_DepthDuration_HTML.html#12,12,1024,768,1024,768,8-22-2022,4-59-54,47,depth_duration_stimuli/002949_2014-06-26_15-57-42_094959634447_rgbf000079-resize_1/002949_2014-06-26_15-57-42_094959634447_rgbf000079-resize_1-target.png,1000,1.8915,5,28875,1001,meters,jsons/v1_VE1000_randls_8_rotated.json,1957668,2136439,30,Woman
47,756315,DepthScenes,duration_manipulation_targetAtFixation,jsons/v1_VE1000_randls_8_rotated.json,http://54.235.29.9/FacialAge/BNav_EC2/DepthDuration/v2_depth_duration_MTurk/v2_DepthDuration_HTML.html#12,12,1024,768,1024,768,8-22-2022,4-59-54,48,depth_duration_stimuli/000522_2014-06-08_13-35-06_260595134347_rgbf000244-resize_1/000522_2014-06-08_13-35-06_260595134347_rgbf000244-resize_1-target.png,1000,2.3715,5,11930,998,meters,jsons/v1_VE1000_randls_8_rotated.json,1957668,2136439,30,Woman
48,756315,DepthScenes,duration_manipulation_targetAtFixation,jsons/v1_VE1000_randls_8_rotated.json,http://54.235.29.9/FacialAge/BNav_EC2/DepthDuration/v2_depth_duration_MTurk/v2_DepthDuration_HTML.html#12,12,1024,768,1024,768,8-22-2022,4-59-54,49,depth_duration_stimuli/001170_2014-06-17_15-43-44_260595134347_rgbf000096-resize_6/001170_2014-06-17_15-43-44_260595134347_rgbf000096-resize-original.jpg,1000,1.1909999999999998,2,6444,1001,meters,jsons/v1_VE1000_randls_8_rotated.json,1957668,2136439,30,Woman
49,756315,DepthScenes,duration_manipulation_targetAtFixation,jsons/v1_VE1000_randls_8_rotated.json,http://54.235.29.9/FacialAge/BNav_EC2/DepthDuration/v2_depth_duration_MTurk/v2_DepthDuration_HTML.html#12,12,1024,768,1024,768,8-22-2022,4-59-54,50,depth_duration_stimuli/002660_2014-06-13_15-44-18_094959634447_rgbf001878-resize_2/002660_2014-06-13_15-44-18_094959634447_rgbf001878-resize_2-target.png,1000,3.576,5,12084,998,meters,jsons/v1_VE1000_randls_8_rotated.json,1957668,2136439,30,Woman
50,756315,DepthScenes,duration_manipulation_targetAtFixation,jsons/v1_VE1000_randls_8_rotated.json,http://54.235.29.9/FacialAge/BNav_EC2/DepthDuration/v2_depth_duration_MTurk/v2_DepthDuration_HTML.html#12,12,1024,768,1024,768,8-22-2022,4-59-54,51,depth_duration_stimuli/002153_2014-06-25_21-27-18_260595134347_rgbf000038-resize_5/002153_2014-06-25_21-27-18_260595134347_rgbf000038-resize_5-target.png,1000,2.505,4,6319,999,meters,jsons/v1_VE1000_randls_8_rotated.json,1957668,2136439,30,Woman
51,756315,DepthScenes,duration_manipulation_targetAtFixation,jsons/v1_VE1000_randls_8_rotated.json,http://54.235.29.9/FacialAge/BNav_EC2/DepthDuration/v2_depth_duration_MTurk/v2_DepthDuration_HTML.html#12,12,1024,768,1024,768,8-22-2022,4-59-54,52,depth_duration_stimuli/000635_2014-06-08_16-38-42_260595134347_rgbf000106-resize_1/000635_2014-06-08_16-38-42_260595134347_rgbf000106-resize_1-target.png,1000,2.074,5,11770,1000,meters,jsons/v1_VE1000_randls_8_rotated.json,1957668,2136439,30,Woman
52,756315,DepthScenes,duration_manipulation_targetAtFixation,jsons/v1_VE1000_randls_8_rotated.json,http://54.235.29.9/FacialAge/BNav_EC2/DepthDuration/v2_depth_duration_MTurk/v2_DepthDuration_HTML.html#12,12,1024,768,1024,768,8-22-2022,4-59-54,53,depth_duration_stimuli/002279_2014-06-28_18-55-32_260595134347_rgbf000040-resize_5/002279_2014-06-28_18-55-32_260595134347_rgbf000040-resize_5-target.png,1000,1.5043333333333,2,14645,1000,meters,jsons/v1_VE1000_randls_8_rotated.json,1957668,2136439,30,Woman
53,756315,DepthScenes,duration_manipulation_targetAtFixation,jsons/v1_VE1000_randls_8_rotated.json,http://54.235.29.9/FacialAge/BNav_EC2/DepthDuration/v2_depth_duration_MTurk/v2_DepthDuration_HTML.html#12,12,1024,768,1024,768,8-22-2022,4-59-54,54,depth_duration_stimuli/003423_2014-05-21_10-23-26_094959634447_rgbf002665-resize_2/003423_2014-05-21_10-23-26_094959634447_rgbf002665-resize_2-target.png,1000,3.2575,3,11802,1000,meters,jsons/v1_VE1000_randls_8_rotated.json,1957668,2136439,30,Woman
54,756315,DepthScenes,duration_manipulation_targetAtFixation,jsons/v1_VE1000_randls_8_rotated.json,http://54.235.29.9/FacialAge/BNav_EC2/DepthDuration/v2_depth_duration_MTurk/v2_DepthDuration_HTML.html#12,12,1024,768,1024,768,8-22-2022,4-59-54,55,depth_duration_stimuli/002905_2014-06-03_18-04-43_094959634447_rgbf000151-resize_2/002905_2014-06-03_18-04-43_094959634447_rgbf000151-resize_2-target.png,1000,2.0295,5,7067,998,meters,jsons/v1_VE1000_randls_8_rotated.json,1957668,2136439,30,Woman
55,756315,DepthScenes,duration_manipulation_targetAtFixation,jsons/v1_VE1000_randls_8_rotated.json,http://54.235.29.9/FacialAge/BNav_EC2/DepthDuration/v2_depth_duration_MTurk/v2_DepthDuration_HTML.html#12,12,1024,768,1024,768,8-22-2022,4-59-54,56,depth_duration_stimuli/000734_2014-06-08_17-39-11_260595134347_rgbf000128-resize_2/000734_2014-06-08_17-39-11_260595134347_rgbf000128-resize_2-target.png,1000,4.098,1,10001,999,meters,jsons/v1_VE1000_randls_8_rotated.json,1957668,2136439,30,Woman
56,756315,DepthScenes,duration_manipulation_targetAtFixation,jsons/v1_VE1000_randls_8_rotated.json,http://54.235.29.9/FacialAge/BNav_EC2/DepthDuration/v2_depth_duration_MTurk/v2_DepthDuration_HTML.html#12,12,1024,768,1024,768,8-22-2022,4-59-54,57,depth_duration_stimuli/000739_2014-06-08_18-45-58_260595134347_rgbf000068-resize_1/000739_2014-06-08_18-45-58_260595134347_rgbf000068-resize_1-target.png,1000,3.534,5,5767,1000,meters,jsons/v1_VE1000_randls_8_rotated.json,1957668,2136439,30,Woman
57,756315,DepthScenes,duration_manipulation_targetAtFixation,jsons/v1_VE1000_randls_8_rotated.json,http://54.235.29.9/FacialAge/BNav_EC2/DepthDuration/v2_depth_duration_MTurk/v2_DepthDuration_HTML.html#12,12,1024,768,1024,768,8-22-2022,4-59-54,58,depth_duration_stimuli/003083_2014-06-15_15-21-03_094959634447_rgbf000063-resize_1/003083_2014-06-15_15-21-03_094959634447_rgbf000063-resize_1-target.png,1000,4.1405,5,8130,1001,meters,jsons/v1_VE1000_randls_8_rotated.json,1957668,2136439,30,Woman
58,756315,DepthScenes,duration_manipulation_targetAtFixation,jsons/v1_VE1000_randls_8_rotated.json,http://54.235.29.9/FacialAge/BNav_EC2/DepthDuration/v2_depth_duration_MTurk/v2_DepthDuration_HTML.html#12,12,1024,768,1024,768,8-22-2022,4-59-54,59,depth_duration_stimuli/000486_2014-06-09_20-47-20_260595134347_rgbf000143-resize_2/000486_2014-06-09_20-47-20_260595134347_rgbf000143-resize_2-target.png,1000,4.8325,5,7672,1001,meters,jsons/v1_VE1000_randls_8_rotated.json,1957668,2136439,30,Woman
59,756315,DepthScenes,duration_manipulation_targetAtFixation,jsons/v1_VE1000_randls_8_rotated.json,http://54.235.29.9/FacialAge/BNav_EC2/DepthDuration/v2_depth_duration_MTurk/v2_DepthDuration_HTML.html#12,12,1024,768,1024,768,8-22-2022,4-59-54,60,depth_duration_stimuli/002545_2014-06-24_13-38-53_094959634447_rgbf000080-resize_4/002545_2014-06-24_13-38-53_094959634447_rgbf000080-resize_4-target.png,1000,1.9205,4,11276,969,meters,jsons/v1_VE1000_randls_8_rotated.json,1957668,2136439,30,Woman
60,756315,DepthScenes,duration_manipulation_targetAtFixation,jsons/v1_VE1000_randls_8_rotated.json,http://54.235.29.9/FacialAge/BNav_EC2/DepthDuration/v2_depth_duration_MTurk/v2_DepthDuration_HTML.html#12,12,1024,768,1024,768,8-22-2022,4-59-54,61,depth_duration_stimuli/001092_2014-06-15_17-34-58_260595134347_rgbf000171-resize_3/001092_2014-06-15_17-34-58_260595134347_rgbf000171-resize_3-target.png,1000,2.6935,3,11025,997,meters,jsons/v1_VE1000_randls_8_rotated.json,1957668,2136439,30,Woman
61,756315,DepthScenes,duration_manipulation_targetAtFixation,jsons/v1_VE1000_randls_8_rotated.json,http://54.235.29.9/FacialAge/BNav_EC2/DepthDuration/v2_depth_duration_MTurk/v2_DepthDuration_HTML.html#12,12,1024,768,1024,768,8-22-2022,4-59-54,62,depth_duration_stimuli/002103_2014-06-25_20-00-40_260595134347_rgbf000049-resize_0/002103_2014-06-25_20-00-40_260595134347_rgbf000049-resize_0-target.png,1000,4.105,5,14498,1000,meters,jsons/v1_VE1000_randls_8_rotated.json,1957668,2136439,30,Woman
62,756315,DepthScenes,duration_manipulation_targetAtFixation,jsons/v1_VE1000_randls_8_rotated.json,http://54.235.29.9/FacialAge/BNav_EC2/DepthDuration/v2_depth_duration_MTurk/v2_DepthDuration_HTML.html#12,12,1024,768,1024,768,8-22-2022,4-59-54,63,depth_duration_stimuli/002039_2014-06-24_20-22-38_260595134347_rgbf000084-resize_1/002039_2014-06-24_20-22-38_260595134347_rgbf000084-resize_1-target.png,1000,4.408,3,8075,999,meters,jsons/v1_VE1000_randls_8_rotated.json,1957668,2136439,30,Woman
63,756315,DepthScenes,duration_manipulation_targetAtFixation,jsons/v1_VE1000_randls_8_rotated.json,http://54.235.29.9/FacialAge/BNav_EC2/DepthDuration/v2_depth_duration_MTurk/v2_DepthDuration_HTML.html#12,12,1024,768,1024,768,8-22-2022,4-59-54,64,depth_duration_stimuli/001136_2014-06-17_15-19-41_260595134347_rgbf000076-resize_3/001136_2014-06-17_15-19-41_260595134347_rgbf000076-resize_3-target.png,1000,1.8655,5,6443,1011,meters,jsons/v1_VE1000_randls_8_rotated.json,1957668,2136439,30,Woman
64,756315,DepthScenes,duration_manipulation_targetAtFixation,jsons/v1_VE1000_randls_8_rotated.json,http://54.235.29.9/FacialAge/BNav_EC2/DepthDuration/v2_depth_duration_MTurk/v2_DepthDuration_HTML.html#12,12,1024,768,1024,768,8-22-2022,4-59-54,65,depth_duration_stimuli/001164_2014-06-17_15-35-46_260595134347_rgbf000085-resize_3/001164_2014-06-17_15-35-46_260595134347_rgbf000085-resize_3-target.png,1000,2.354,5,12778,998,meters,jsons/v1_VE1000_randls_8_rotated.json,1957668,2136439,30,Woman
65,756315,DepthScenes,duration_manipulation_targetAtFixation,jsons/v1_VE1000_randls_8_rotated.json,http://54.235.29.9/FacialAge/BNav_EC2/DepthDuration/v2_depth_duration_MTurk/v2_DepthDuration_HTML.html#12,12,1024,768,1024,768,8-22-2022,4-59-54,66,depth_duration_stimuli/001540_2014-06-20_17-01-05_260595134347_rgbf000086-resize_2/001540_2014-06-20_17-01-05_260595134347_rgbf000086-resize-original.jpg,1000,1.459,5,5882,1000,meters,jsons/v1_VE1000_randls_8_rotated.json,1957668,2136439,30,Woman
66,756315,DepthScenes,duration_manipulation_targetAtFixation,jsons/v1_VE1000_randls_8_rotated.json,http://54.235.29.9/FacialAge/BNav_EC2/DepthDuration/v2_depth_duration_MTurk/v2_DepthDuration_HTML.html#12,12,1024,768,1024,768,8-22-2022,4-59-54,67,depth_duration_stimuli/000665_2014-06-09_20-42-35_260595134347_rgbf000110-resize_1/000665_2014-06-09_20-42-35_260595134347_rgbf000110-resize_1-target.png,1000,3.057,5,7546,896,meters,jsons/v1_VE1000_randls_8_rotated.json,1957668,2136439,30,Woman
67,756315,DepthScenes,duration_manipulation_targetAtFixation,jsons/v1_VE1000_randls_8_rotated.json,http://54.235.29.9/FacialAge/BNav_EC2/DepthDuration/v2_depth_duration_MTurk/v2_DepthDuration_HTML.html#12,12,1024,768,1024,768,8-22-2022,4-59-54,68,depth_duration_stimuli/001150_2014-06-17_15-27-34_260595134347_rgbf000108-resize_2/001150_2014-06-17_15-27-34_260595134347_rgbf000108-resize_2-target.png,1000,4.0325,5,9561,998,meters,jsons/v1_VE1000_randls_8_rotated.json,1957668,2136439,30,Woman
68,756315,DepthScenes,duration_manipulation_targetAtFixation,jsons/v1_VE1000_randls_8_rotated.json,http://54.235.29.9/FacialAge/BNav_EC2/DepthDuration/v2_depth_duration_MTurk/v2_DepthDuration_HTML.html#12,12,1024,768,1024,768,8-22-2022,4-59-54,69,depth_duration_stimuli/002425_2014-06-28_20-27-29_260595134347_rgbf000031-resize_8/002425_2014-06-28_20-27-29_260595134347_rgbf000031-resize_8-target.png,1000,3.8960000000000004,2,7562,1001,meters,jsons/v1_VE1000_randls_8_rotated.json,1957668,2136439,30,Woman
69,756315,DepthScenes,duration_manipulation_targetAtFixation,jsons/v1_VE1000_randls_8_rotated.json,http://54.235.29.9/FacialAge/BNav_EC2/DepthDuration/v2_depth_duration_MTurk/v2_DepthDuration_HTML.html#12,12,1024,768,1024,768,8-22-2022,4-59-54,70,depth_duration_stimuli/000642_2014-06-08_16-59-25_260595134347_rgbf000098-resize_2/000642_2014-06-08_16-59-25_260595134347_rgbf000098-resize_2-target.png,1000,2.8815,5,9572,1011,meters,jsons/v1_VE1000_randls_8_rotated.json,1957668,2136439,30,Woman
70,756315,DepthScenes,duration_manipulation_targetAtFixation,jsons/v1_VE1000_randls_8_rotated.json,http://54.235.29.9/FacialAge/BNav_EC2/DepthDuration/v2_depth_duration_MTurk/v2_DepthDuration_HTML.html#12,12,1024,768,1024,768,8-22-2022,4-59-54,71,depth_duration_stimuli/002323_2014-06-28_20-01-54_260595134347_rgbf000051-resize_4/002323_2014-06-28_20-01-54_260595134347_rgbf000051-resize_4-target.png,1000,3.7310000000000003,5,9274,1000,meters,jsons/v1_VE1000_randls_8_rotated.json,1957668,2136439,30,Woman
71,756315,DepthScenes,duration_manipulation_targetAtFixation,jsons/v1_VE1000_randls_8_rotated.json,http://54.235.29.9/FacialAge/BNav_EC2/DepthDuration/v2_depth_duration_MTurk/v2_DepthDuration_HTML.html#12,12,1024,768,1024,768,8-22-2022,4-59-54,72,depth_duration_stimuli/000917_2014-06-09_22-45-29_260595134347_rgbf000149-resize_3/000917_2014-06-09_22-45-29_260595134347_rgbf000149-resize_3-target.png,1000,4.1865,5,13007,1000,meters,jsons/v1_VE1000_randls_8_rotated.json,1957668,2136439,30,Woman
72,756315,DepthScenes,duration_manipulation_targetAtFixation,jsons/v1_VE1000_randls_8_rotated.json,http://54.235.29.9/FacialAge/BNav_EC2/DepthDuration/v2_depth_duration_MTurk/v2_DepthDuration_HTML.html#12,12,1024,768,1024,768,8-22-2022,4-59-54,73,depth_duration_stimuli/001516_2014-06-20_16-25-09_260595134347_rgbf000076-resize_2/001516_2014-06-20_16-25-09_260595134347_rgbf000076-resize_2-target.png,1000,1.7445,5,9094,999,meters,jsons/v1_VE1000_randls_8_rotated.json,1957668,2136439,30,Woman
73,756315,DepthScenes,duration_manipulation_targetAtFixation,jsons/v1_VE1000_randls_8_rotated.json,http://54.235.29.9/FacialAge/BNav_EC2/DepthDuration/v2_depth_duration_MTurk/v2_DepthDuration_HTML.html#12,12,1024,768,1024,768,8-22-2022,4-59-54,74,depth_duration_stimuli/002118_2014-06-25_20-32-08_260595134347_rgbf000078-resize_1/002118_2014-06-25_20-32-08_260595134347_rgbf000078-resize_1-target.png,1000,2.6460000000000004,5,18283,999,meters,jsons/v1_VE1000_randls_8_rotated.json,1957668,2136439,30,Woman
74,756315,DepthScenes,duration_manipulation_targetAtFixation,jsons/v1_VE1000_randls_8_rotated.json,http://54.235.29.9/FacialAge/BNav_EC2/DepthDuration/v2_depth_duration_MTurk/v2_DepthDuration_HTML.html#12,12,1024,768,1024,768,8-22-2022,4-59-54,75,depth_duration_stimuli/002637_2014-06-24_14-51-13_094959634447_rgbf000066-resize_4/002637_2014-06-24_14-51-13_094959634447_rgbf000066-resize_4-target.png,1000,1.9955,5,23497,998,meters,jsons/v1_VE1000_randls_8_rotated.json,1957668,2136439,30,Woman
75,756315,DepthScenes,duration_manipulation_targetAtFixation,jsons/v1_VE1000_randls_8_rotated.json,http://54.235.29.9/FacialAge/BNav_EC2/DepthDuration/v2_depth_duration_MTurk/v2_DepthDuration_HTML.html#12,12,1024,768,1024,768,8-22-2022,4-59-54,76,depth_duration_stimuli/003534_2014-05-22_15-06-10_094959634447_rgbf000102-resize_4/003534_2014-05-22_15-06-10_094959634447_rgbf000102-resize_4-target.png,1000,1.426,4,9779,999,meters,jsons/v1_VE1000_randls_8_rotated.json,1957668,2136439,30,Woman
76,756315,DepthScenes,duration_manipulation_targetAtFixation,jsons/v1_VE1000_randls_8_rotated.json,http://54.235.29.9/FacialAge/BNav_EC2/DepthDuration/v2_depth_duration_MTurk/v2_DepthDuration_HTML.html#12,12,1024,768,1024,768,8-22-2022,4-59-54,77,depth_duration_stimuli/000677_2014-06-08_23-10-32_260595134347_rgbf000158-resize_6/000677_2014-06-08_23-10-32_260595134347_rgbf000158-resize_6-target.png,1000,3.556,5,17208,1000,meters,jsons/v1_VE1000_randls_8_rotated.json,1957668,2136439,30,Woman
77,756315,DepthScenes,duration_manipulation_targetAtFixation,jsons/v1_VE1000_randls_8_rotated.json,http://54.235.29.9/FacialAge/BNav_EC2/DepthDuration/v2_depth_duration_MTurk/v2_DepthDuration_HTML.html#12,12,1024,768,1024,768,8-22-2022,4-59-54,78,depth_duration_stimuli/001029_2014-06-08_13-17-57_260595134347_rgbf000065-resize_1/001029_2014-06-08_13-17-57_260595134347_rgbf000065-resize_1-target.png,1000,3.0835,5,12077,999,meters,jsons/v1_VE1000_randls_8_rotated.json,1957668,2136439,30,Woman
78,756315,DepthScenes,duration_manipulation_targetAtFixation,jsons/v1_VE1000_randls_8_rotated.json,http://54.235.29.9/FacialAge/BNav_EC2/DepthDuration/v2_depth_duration_MTurk/v2_DepthDuration_HTML.html#12,12,1024,768,1024,768,8-22-2022,4-59-54,79,depth_duration_stimuli/001828_2014-06-26_21-40-03_260595134347_rgbf000024-resize_0/001828_2014-06-26_21-40-03_260595134347_rgbf000024-resize_0-target.png,1000,4.8260000000000005,5,8324,1001,meters,jsons/v1_VE1000_randls_8_rotated.json,1957668,2136439,30,Woman
79,756315,DepthScenes,duration_manipulation_targetAtFixation,jsons/v1_VE1000_randls_8_rotated.json,http://54.235.29.9/FacialAge/BNav_EC2/DepthDuration/v2_depth_duration_MTurk/v2_DepthDuration_HTML.html#12,12,1024,768,1024,768,8-22-2022,4-59-54,80,depth_duration_stimuli/000009_2014-05-26_14-32-05_260595134347_rgbf000034-resize_3/000009_2014-05-26_14-32-05_260595134347_rgbf000034-resize_3-target.png,1000,3.8715,5,23255,999,meters,jsons/v1_VE1000_randls_8_rotated.json,1957668,2136439,30,Woman
80,756315,DepthScenes,duration_manipulation_targetAtFixation,jsons/v1_VE1000_randls_8_rotated.json,http://54.235.29.9/FacialAge/BNav_EC2/DepthDuration/v2_depth_duration_MTurk/v2_DepthDuration_HTML.html#12,12,1024,768,1024,768,8-22-2022,4-59-54,81,depth_duration_stimuli/000854_2014-06-09_19-43-13_260595134347_rgbf000066-resize_0/000854_2014-06-09_19-43-13_260595134347_rgbf000066-resize_0-target.png,1000,3.068,4,57470,1000,meters,jsons/v1_VE1000_randls_8_rotated.json,1957668,2136439,30,Woman
81,756315,DepthScenes,duration_manipulation_targetAtFixation,jsons/v1_VE1000_randls_8_rotated.json,http://54.235.29.9/FacialAge/BNav_EC2/DepthDuration/v2_depth_duration_MTurk/v2_DepthDuration_HTML.html#12,12,1024,768,1024,768,8-22-2022,4-59-54,82,depth_duration_stimuli/000758_2014-06-08_22-05-08_260595134347_rgbf000085-resize_0/000758_2014-06-08_22-05-08_260595134347_rgbf000085-resize_0-target.png,1000,3.3810000000000002,5,11043,1001,meters,jsons/v1_VE1000_randls_8_rotated.json,1957668,2136439,30,Woman
82,756315,DepthScenes,duration_manipulation_targetAtFixation,jsons/v1_VE1000_randls_8_rotated.json,http://54.235.29.9/FacialAge/BNav_EC2/DepthDuration/v2_depth_duration_MTurk/v2_DepthDuration_HTML.html#12,12,1024,768,1024,768,8-22-2022,4-59-54,83,depth_duration_stimuli/002444_2014-06-28_20-32-08_260595134347_rgbf000027-resize_0/002444_2014-06-28_20-32-08_260595134347_rgbf000027-resize_0-target.png,1000,4.388999999999999,5,41409,952,meters,jsons/v1_VE1000_randls_8_rotated.json,1957668,2136439,30,Woman
83,756315,DepthScenes,duration_manipulation_targetAtFixation,jsons/v1_VE1000_randls_8_rotated.json,http://54.235.29.9/FacialAge/BNav_EC2/DepthDuration/v2_depth_duration_MTurk/v2_DepthDuration_HTML.html#12,12,1024,768,1024,768,8-22-2022,4-59-54,84,depth_duration_stimuli/000436_2014-06-09_22-25-11_260595134347_rgbf000137-resize_1/000436_2014-06-09_22-25-11_260595134347_rgbf000137-resize_1-target.png,1000,4.0705,5,8989,999,meters,jsons/v1_VE1000_randls_8_rotated.json,1957668,2136439,30,Woman
84,756315,DepthScenes,duration_manipulation_targetAtFixation,jsons/v1_VE1000_randls_8_rotated.json,http://54.235.29.9/FacialAge/BNav_EC2/DepthDuration/v2_depth_duration_MTurk/v2_DepthDuration_HTML.html#12,12,1024,768,1024,768,8-22-2022,4-59-54,85,depth_duration_stimuli/002995_2014-06-15_12-31-26_094959634447_rgbf000150-resize_1/002995_2014-06-15_12-31-26_094959634447_rgbf000150-resize_1-target.png,1000,3.8360000000000003,5,8557,1000,meters,jsons/v1_VE1000_randls_8_rotated.json,1957668,2136439,30,Woman
85,756315,DepthScenes,duration_manipulation_targetAtFixation,jsons/v1_VE1000_randls_8_rotated.json,http://54.235.29.9/FacialAge/BNav_EC2/DepthDuration/v2_depth_duration_MTurk/v2_DepthDuration_HTML.html#12,12,1024,768,1024,768,8-22-2022,4-59-54,86,depth_duration_stimuli/002748_2014-06-22_19-07-22_094959634447_rgbf000078-resize_1/002748_2014-06-22_19-07-22_094959634447_rgbf000078-resize_1-target.png,1000,4.6705,5,12351,1006,meters,jsons/v1_VE1000_randls_8_rotated.json,1957668,2136439,30,Woman
86,756315,DepthScenes,duration_manipulation_targetAtFixation,jsons/v1_VE1000_randls_8_rotated.json,http://54.235.29.9/FacialAge/BNav_EC2/DepthDuration/v2_depth_duration_MTurk/v2_DepthDuration_HTML.html#12,12,1024,768,1024,768,8-22-2022,4-59-54,87,depth_duration_stimuli/000556_2014-06-09_22-42-56_260595134347_rgbf000214-resize_1/000556_2014-06-09_22-42-56_260595134347_rgbf000214-resize_1-target.png,1000,4.8415,5,11962,999,meters,jsons/v1_VE1000_randls_8_rotated.json,1957668,2136439,30,Woman
87,756315,DepthScenes,duration_manipulation_targetAtFixation,jsons/v1_VE1000_randls_8_rotated.json,http://54.235.29.9/FacialAge/BNav_EC2/DepthDuration/v2_depth_duration_MTurk/v2_DepthDuration_HTML.html#12,12,1024,768,1024,768,8-22-2022,4-59-54,88,depth_duration_stimuli/001158_2014-06-17_15-32-16_260595134347_rgbf000138-resize_2/001158_2014-06-17_15-32-16_260595134347_rgbf000138-resize_2-target.png,1000,4.5315,5,6626,999,meters,jsons/v1_VE1000_randls_8_rotated.json,1957668,2136439,30,Woman
88,756315,DepthScenes,duration_manipulation_targetAtFixation,jsons/v1_VE1000_randls_8_rotated.json,http://54.235.29.9/FacialAge/BNav_EC2/DepthDuration/v2_depth_duration_MTurk/v2_DepthDuration_HTML.html#12,12,1024,768,1024,768,8-22-2022,4-59-54,89,depth_duration_stimuli/002199_2014-06-28_18-33-56_260595134347_rgbf000074-resize_0/002199_2014-06-28_18-33-56_260595134347_rgbf000074-resize_0-target.png,1000,1.996,5,15819,1000,meters,jsons/v1_VE1000_randls_8_rotated.json,1957668,2136439,30,Woman
89,756315,DepthScenes,duration_manipulation_targetAtFixation,jsons/v1_VE1000_randls_8_rotated.json,http://54.235.29.9/FacialAge/BNav_EC2/DepthDuration/v2_depth_duration_MTurk/v2_DepthDuration_HTML.html#12,12,1024,768,1024,768,8-22-2022,4-59-54,90,depth_duration_stimuli/001056_2014-06-08_18-46-44_260595134347_rgbf000068-resize_0/001056_2014-06-08_18-46-44_260595134347_rgbf000068-resize_0-target.png,1000,2.6625,5,8651,1000,meters,jsons/v1_VE1000_randls_8_rotated.json,1957668,2136439,30,Woman
90,756315,DepthScenes,duration_manipulation_targetAtFixation,jsons/v1_VE1000_randls_8_rotated.json,http://54.235.29.9/FacialAge/BNav_EC2/DepthDuration/v2_depth_duration_MTurk/v2_DepthDuration_HTML.html#12,12,1024,768,1024,768,8-22-2022,4-59-54,91,depth_duration_stimuli/000502_2014-06-08_23-02-32_260595134347_rgbf000063-resize_4/000502_2014-06-08_23-02-32_260595134347_rgbf000063-resize_4-target.png,1000,2.431,5,6673,1003,meters,jsons/v1_VE1000_randls_8_rotated.json,1957668,2136439,30,Woman
91,756315,DepthScenes,duration_manipulation_targetAtFixation,jsons/v1_VE1000_randls_8_rotated.json,http://54.235.29.9/FacialAge/BNav_EC2/DepthDuration/v2_depth_duration_MTurk/v2_DepthDuration_HTML.html#12,12,1024,768,1024,768,8-22-2022,4-59-54,92,depth_duration_stimuli/001199_2014-06-17_16-03-48_260595134347_rgbf000077-resize_0/001199_2014-06-17_16-03-48_260595134347_rgbf000077-resize_0-target.png,1000,3.4375,5,15508,962,meters,jsons/v1_VE1000_randls_8_rotated.json,1957668,2136439,30,Woman
92,756315,DepthScenes,duration_manipulation_targetAtFixation,jsons/v1_VE1000_randls_8_rotated.json,http://54.235.29.9/FacialAge/BNav_EC2/DepthDuration/v2_depth_duration_MTurk/v2_DepthDuration_HTML.html#12,12,1024,768,1024,768,8-22-2022,4-59-54,93,depth_duration_stimuli/002805_2014-06-22_19-54-03_094959634447_rgbf000079-resize_1/002805_2014-06-22_19-54-03_094959634447_rgbf000079-resize_1-target.png,1000,3.1439999999999997,5,13862,999,meters,jsons/v1_VE1000_randls_8_rotated.json,1957668,2136439,30,Woman
93,756315,DepthScenes,duration_manipulation_targetAtFixation,jsons/v1_VE1000_randls_8_rotated.json,http://54.235.29.9/FacialAge/BNav_EC2/DepthDuration/v2_depth_duration_MTurk/v2_DepthDuration_HTML.html#12,12,1024,768,1024,768,8-22-2022,4-59-54,94,depth_duration_stimuli/000906_2014-06-08_13-35-43_260595134347_rgbf000155-resize_1/000906_2014-06-08_13-35-43_260595134347_rgbf000155-resize_1-target.png,1000,2.8489999999999998,5,20237,996,meters,jsons/v1_VE1000_randls_8_rotated.json,1957668,2136439,30,Woman
94,756315,DepthScenes,duration_manipulation_targetAtFixation,jsons/v1_VE1000_randls_8_rotated.json,http://54.235.29.9/FacialAge/BNav_EC2/DepthDuration/v2_depth_duration_MTurk/v2_DepthDuration_HTML.html#12,12,1024,768,1024,768,8-22-2022,4-59-54,95,depth_duration_stimuli/003587_2014-05-23_16-48-02_094959634447_rgbf002384-resize_2/003587_2014-05-23_16-48-02_094959634447_rgbf002384-resize_2-target.png,1000,1.357,5,10765,1000,meters,jsons/v1_VE1000_randls_8_rotated.json,1957668,2136439,30,Woman
95,756315,DepthScenes,duration_manipulation_targetAtFixation,jsons/v1_VE1000_randls_8_rotated.json,http://54.235.29.9/FacialAge/BNav_EC2/DepthDuration/v2_depth_duration_MTurk/v2_DepthDuration_HTML.html#12,12,1024,768,1024,768,8-22-2022,4-59-54,96,depth_duration_stimuli/001167_2014-06-17_15-38-07_260595134347_rgbf000108-resize_0/001167_2014-06-17_15-38-07_260595134347_rgbf000108-resize_0-target.png,1000,1.8505,5,7095,999,meters,jsons/v1_VE1000_randls_8_rotated.json,1957668,2136439,30,Woman
96,756315,DepthScenes,duration_manipulation_targetAtFixation,jsons/v1_VE1000_randls_8_rotated.json,http://54.235.29.9/FacialAge/BNav_EC2/DepthDuration/v2_depth_duration_MTurk/v2_DepthDuration_HTML.html#12,12,1024,768,1024,768,8-22-2022,4-59-54,97,depth_duration_stimuli/001100_2014-06-15_17-46-26_260595134347_rgbf000225-resize_2/001100_2014-06-15_17-46-26_260595134347_rgbf000225-resize_2-target.png,1000,2.24,5,6915,999,meters,jsons/v1_VE1000_randls_8_rotated.json,1957668,2136439,30,Woman
97,756315,DepthScenes,duration_manipulation_targetAtFixation,jsons/v1_VE1000_randls_8_rotated.json,http://54.235.29.9/FacialAge/BNav_EC2/DepthDuration/v2_depth_duration_MTurk/v2_DepthDuration_HTML.html#12,12,1024,768,1024,768,8-22-2022,4-59-54,98,depth_duration_stimuli/002784_2014-06-22_19-26-30_094959634447_rgbf000083-resize_3/002784_2014-06-22_19-26-30_094959634447_rgbf000083-resize_3-target.png,1000,1.8046666666667,5,11266,998,meters,jsons/v1_VE1000_randls_8_rotated.json,1957668,2136439,30,Woman
98,756315,DepthScenes,duration_manipulation_targetAtFixation,jsons/v1_VE1000_randls_8_rotated.json,http://54.235.29.9/FacialAge/BNav_EC2/DepthDuration/v2_depth_duration_MTurk/v2_DepthDuration_HTML.html#12,12,1024,768,1024,768,8-22-2022,4-59-54,99,depth_duration_stimuli/001222_2014-06-17_16-24-06_260595134347_rgbf000073-resize_0/001222_2014-06-17_16-24-06_260595134347_rgbf000073-resize-original.jpg,1000,1.4385,4,11196,1002,meters,jsons/v1_VE1000_randls_8_rotated.json,1957668,2136439,30,Woman
99,756315,DepthScenes,duration_manipulation_targetAtFixation,jsons/v1_VE1000_randls_8_rotated.json,http://54.235.29.9/FacialAge/BNav_EC2/DepthDuration/v2_depth_duration_MTurk/v2_DepthDuration_HTML.html#12,12,1024,768,1024,768,8-22-2022,4-59-54,100,depth_duration_stimuli/000927_2014-06-09_16-32-30_260595134347_rgbf000123-resize_3/000927_2014-06-09_16-32-30_260595134347_rgbf000123-resize_3-target.png,1000,2.6785,5,9681,1037,meters,jsons/v1_VE1000_randls_8_rotated.json,1957668,2136439,30,Woman
100,756315,DepthScenes,duration_manipulation_targetAtFixation,jsons/v1_VE1000_randls_8_rotated.json,http://54.235.29.9/FacialAge/BNav_EC2/DepthDuration/v2_depth_duration_MTurk/v2_DepthDuration_HTML.html#12,12,1024,768,1024,768,8-22-2022,4-59-54,101,depth_duration_stimuli/001110_2014-06-15_17-25-28_260595134347_rgbf000150-resize_1/001110_2014-06-15_17-25-28_260595134347_rgbf000150-resize_1-target.png,1000,1.7115,5,9083,1000,meters,jsons/v1_VE1000_randls_8_rotated.json,1957668,2136439,30,Woman
101,756315,DepthScenes,duration_manipulation_targetAtFixation,jsons/v1_VE1000_randls_8_rotated.json,http://54.235.29.9/FacialAge/BNav_EC2/DepthDuration/v2_depth_duration_MTurk/v2_DepthDuration_HTML.html#12,12,1024,768,1024,768,8-22-2022,4-59-54,102,depth_duration_stimuli/003079_2014-06-15_15-18-20_094959634447_rgbf000152-resize_8/003079_2014-06-15_15-18-20_094959634447_rgbf000152-resize_8-target.png,1000,2.8775,5,13651,1000,meters,jsons/v1_VE1000_randls_8_rotated.json,1957668,2136439,30,Woman
102,756315,DepthScenes,duration_manipulation_targetAtFixation,jsons/v1_VE1000_randls_8_rotated.json,http://54.235.29.9/FacialAge/BNav_EC2/DepthDuration/v2_depth_duration_MTurk/v2_DepthDuration_HTML.html#12,12,1024,768,1024,768,8-22-2022,4-59-54,103,depth_duration_stimuli/000506_2014-06-08_23-21-00_260595134347_rgbf000070-resize_7/000506_2014-06-08_23-21-00_260595134347_rgbf000070-resize_7-target.png,1000,4.0585,5,5610,1000,meters,jsons/v1_VE1000_randls_8_rotated.json,1957668,2136439,30,Woman
103,756315,DepthScenes,duration_manipulation_targetAtFixation,jsons/v1_VE1000_randls_8_rotated.json,http://54.235.29.9/FacialAge/BNav_EC2/DepthDuration/v2_depth_duration_MTurk/v2_DepthDuration_HTML.html#12,12,1024,768,1024,768,8-22-2022,4-59-54,104,depth_duration_stimuli/001450_2014-06-19_17-02-03_260595134347_rgbf000203-resize_4/001450_2014-06-19_17-02-03_260595134347_rgbf000203-resize_4-target.png,1000,4.0106666666667,5,12892,999,meters,jsons/v1_VE1000_randls_8_rotated.json,1957668,2136439,30,Woman
104,756315,DepthScenes,duration_manipulation_targetAtFixation,jsons/v1_VE1000_randls_8_rotated.json,http://54.235.29.9/FacialAge/BNav_EC2/DepthDuration/v2_depth_duration_MTurk/v2_DepthDuration_HTML.html#12,12,1024,768,1024,768,8-22-2022,4-59-54,105,depth_duration_stimuli/001449_2014-06-19_17-01-27_260595134347_rgbf000116-resize_2/001449_2014-06-19_17-01-27_260595134347_rgbf000116-resize_2-target.png,1000,3.452,5,7658,999,meters,jsons/v1_VE1000_randls_8_rotated.json,1957668,2136439,30,Woman
105,756315,DepthScenes,duration_manipulation_targetAtFixation,jsons/v1_VE1000_randls_8_rotated.json,http://54.235.29.9/FacialAge/BNav_EC2/DepthDuration/v2_depth_duration_MTurk/v2_DepthDuration_HTML.html#12,12,1024,768,1024,768,8-22-2022,4-59-54,106,depth_duration_stimuli/002639_2014-06-24_14-51-37_094959634447_rgbf000074-resize_4/002639_2014-06-24_14-51-37_094959634447_rgbf000074-resize_4-target.png,1000,4.0375,5,9106,999,meters,jsons/v1_VE1000_randls_8_rotated.json,1957668,2136439,30,Woman
106,756315,DepthScenes,duration_manipulation_targetAtFixation,jsons/v1_VE1000_randls_8_rotated.json,http://54.235.29.9/FacialAge/BNav_EC2/DepthDuration/v2_depth_duration_MTurk/v2_DepthDuration_HTML.html#12,12,1024,768,1024,768,8-22-2022,4-59-54,107,depth_duration_stimuli/003292_2014-05-14_21-53-49_094959634447_rgbf000100-resize_2/003292_2014-05-14_21-53-49_094959634447_rgbf000100-resize_2-target.png,1000,3.4815,5,8640,1000,meters,jsons/v1_VE1000_randls_8_rotated.json,1957668,2136439,30,Woman
107,756315,DepthScenes,duration_manipulation_targetAtFixation,jsons/v1_VE1000_randls_8_rotated.json,http://54.235.29.9/FacialAge/BNav_EC2/DepthDuration/v2_depth_duration_MTurk/v2_DepthDuration_HTML.html#12,12,1024,768,1024,768,8-22-2022,4-59-54,108,depth_duration_stimuli/000866_2014-06-09_20-45-42_260595134347_rgbf000139-resize_1/000866_2014-06-09_20-45-42_260595134347_rgbf000139-resize_1-target.png,1000,3.2155,3,9171,999,meters,jsons/v1_VE1000_randls_8_rotated.json,1957668,2136439,30,Woman
108,756315,DepthScenes,duration_manipulation_targetAtFixation,jsons/v1_VE1000_randls_8_rotated.json,http://54.235.29.9/FacialAge/BNav_EC2/DepthDuration/v2_depth_duration_MTurk/v2_DepthDuration_HTML.html#12,12,1024,768,1024,768,8-22-2022,4-59-54,109,depth_duration_stimuli/002989_2014-06-15_12-25-03_094959634447_rgbf000150-resize_3/002989_2014-06-15_12-25-03_094959634447_rgbf000150-resize_3-target.png,1000,4.1975,5,10557,1000,meters,jsons/v1_VE1000_randls_8_rotated.json,1957668,2136439,30,Woman
109,756315,DepthScenes,duration_manipulation_targetAtFixation,jsons/v1_VE1000_randls_8_rotated.json,http://54.235.29.9/FacialAge/BNav_EC2/DepthDuration/v2_depth_duration_MTurk/v2_DepthDuration_HTML.html#12,12,1024,768,1024,768,8-22-2022,4-59-54,110,depth_duration_stimuli/001584_2014-06-20_11-07-43_260595134347_rgbf000002-resize_1/001584_2014-06-20_11-07-43_260595134347_rgbf000002-resize_1-target.png,1000,3.53,5,8444,994,meters,jsons/v1_VE1000_randls_8_rotated.json,1957668,2136439,30,Woman
110,756315,DepthScenes,duration_manipulation_targetAtFixation,jsons/v1_VE1000_randls_8_rotated.json,http://54.235.29.9/FacialAge/BNav_EC2/DepthDuration/v2_depth_duration_MTurk/v2_DepthDuration_HTML.html#12,12,1024,768,1024,768,8-22-2022,4-59-54,111,depth_duration_stimuli/003621_2014-05-23_18-06-08_094959634447_rgbf000101-resize_1/003621_2014-05-23_18-06-08_094959634447_rgbf000101-resize_1-target.png,1000,3.9835,4,10784,1000,meters,jsons/v1_VE1000_randls_8_rotated.json,1957668,2136439,30,Woman
111,756315,DepthScenes,duration_manipulation_targetAtFixation,jsons/v1_VE1000_randls_8_rotated.json,http://54.235.29.9/FacialAge/BNav_EC2/DepthDuration/v2_depth_duration_MTurk/v2_DepthDuration_HTML.html#12,12,1024,768,1024,768,8-22-2022,4-59-54,112,depth_duration_stimuli/002678_2014-06-13_16-15-32_094959634447_rgbf000151-resize_6/002678_2014-06-13_16-15-32_094959634447_rgbf000151-resize_6-target.png,1000,2.1830000000000003,5,8344,999,meters,jsons/v1_VE1000_randls_8_rotated.json,1957668,2136439,30,Woman
112,756315,DepthScenes,duration_manipulation_targetAtFixation,jsons/v1_VE1000_randls_8_rotated.json,http://54.235.29.9/FacialAge/BNav_EC2/DepthDuration/v2_depth_duration_MTurk/v2_DepthDuration_HTML.html#12,12,1024,768,1024,768,8-22-2022,4-59-54,113,depth_duration_stimuli/000368_2014-06-09_15-53-01_260595134347_rgbf000155-resize_2/000368_2014-06-09_15-53-01_260595134347_rgbf000155-resize_2-target.png,1000,2.4859999999999998,5,15708,1000,meters,jsons/v1_VE1000_randls_8_rotated.json,1957668,2136439,30,Woman
113,756315,DepthScenes,duration_manipulation_targetAtFixation,jsons/v1_VE1000_randls_8_rotated.json,http://54.235.29.9/FacialAge/BNav_EC2/DepthDuration/v2_depth_duration_MTurk/v2_DepthDuration_HTML.html#12,12,1024,768,1024,768,8-22-2022,4-59-54,114,depth_duration_stimuli/002568_2014-06-24_13-59-21_094959634447_rgbf000062-resize_4/002568_2014-06-24_13-59-21_094959634447_rgbf000062-resize_4-target.png,1000,3.015,5,23715,1001,meters,jsons/v1_VE1000_randls_8_rotated.json,1957668,2136439,30,Woman
114,756315,DepthScenes,duration_manipulation_targetAtFixation,jsons/v1_VE1000_randls_8_rotated.json,http://54.235.29.9/FacialAge/BNav_EC2/DepthDuration/v2_depth_duration_MTurk/v2_DepthDuration_HTML.html#12,12,1024,768,1024,768,8-22-2022,4-59-54,115,depth_duration_stimuli/003492_2014-05-21_15-50-55_094959634447_rgbf000828-resize_1/003492_2014-05-21_15-50-55_094959634447_rgbf000828-resize_1-target.png,1000,4.06875,5,19288,999,meters,jsons/v1_VE1000_randls_8_rotated.json,1957668,2136439,30,Woman
115,756315,DepthScenes,duration_manipulation_targetAtFixation,jsons/v1_VE1000_randls_8_rotated.json,http://54.235.29.9/FacialAge/BNav_EC2/DepthDuration/v2_depth_duration_MTurk/v2_DepthDuration_HTML.html#12,12,1024,768,1024,768,8-22-2022,4-59-54,116,depth_duration_stimuli/003338_2014-05-20_11-01-23_094959634447_rgbf000051-resize_6/003338_2014-05-20_11-01-23_094959634447_rgbf000051-resize_6-target.png,1000,1.693,5,18193,999,meters,jsons/v1_VE1000_randls_8_rotated.json,1957668,2136439,30,Woman
116,756315,DepthScenes,duration_manipulation_targetAtFixation,jsons/v1_VE1000_randls_8_rotated.json,http://54.235.29.9/FacialAge/BNav_EC2/DepthDuration/v2_depth_duration_MTurk/v2_DepthDuration_HTML.html#12,12,1024,768,1024,768,8-22-2022,4-59-54,117,depth_duration_stimuli/002509_2014-06-24_13-19-22_094959634447_rgbf000077-resize_0/002509_2014-06-24_13-19-22_094959634447_rgbf000077-resize_0-target.png,1000,1.3065,5,10151,999,meters,jsons/v1_VE1000_randls_8_rotated.json,1957668,2136439,30,Woman
117,756315,DepthScenes,duration_manipulation_targetAtFixation,jsons/v1_VE1000_randls_8_rotated.json,http://54.235.29.9/FacialAge/BNav_EC2/DepthDuration/v2_depth_duration_MTurk/v2_DepthDuration_HTML.html#12,12,1024,768,1024,768,8-22-2022,4-59-54,118,depth_duration_stimuli/000749_2014-06-08_21-55-06_260595134347_rgbf000070-resize_2/000749_2014-06-08_21-55-06_260595134347_rgbf000070-resize_2-target.png,1000,2.331,5,10986,999,meters,jsons/v1_VE1000_randls_8_rotated.json,1957668,2136439,30,Woman
118,756315,DepthScenes,duration_manipulation_targetAtFixation,jsons/v1_VE1000_randls_8_rotated.json,http://54.235.29.9/FacialAge/BNav_EC2/DepthDuration/v2_depth_duration_MTurk/v2_DepthDuration_HTML.html#12,12,1024,768,1024,768,8-22-2022,4-59-54,119,depth_duration_stimuli/002788_2014-06-22_19-36-03_094959634447_rgbf000088-resize_2/002788_2014-06-22_19-36-03_094959634447_rgbf000088-resize_2-target.png,1000,1.6465,5,13681,1028,meters,jsons/v1_VE1000_randls_8_rotated.json,1957668,2136439,30,Woman
119,756315,DepthScenes,duration_manipulation_targetAtFixation,jsons/v1_VE1000_randls_8_rotated.json,http://54.235.29.9/FacialAge/BNav_EC2/DepthDuration/v2_depth_duration_MTurk/v2_DepthDuration_HTML.html#12,12,1024,768,1024,768,8-22-2022,4-59-54,120,depth_duration_stimuli/000787_2014-06-08_22-33-53_260595134347_rgbf000175-resize_1/000787_2014-06-08_22-33-53_260595134347_rgbf000175-resize-original.jpg,1000,4.784,5,14154,1000,meters,jsons/v1_VE1000_randls_8_rotated.json,1957668,2136439,30,Woman
120,756315,DepthScenes,duration_manipulation_targetAtFixation,jsons/v1_VE1000_randls_8_rotated.json,http://54.235.29.9/FacialAge/BNav_EC2/DepthDuration/v2_depth_duration_MTurk/v2_DepthDuration_HTML.html#12,12,1024,768,1024,768,8-22-2022,4-59-54,121,depth_duration_stimuli/000409_2014-06-04_19-23-33_260595134347_rgbf000067-resize_0/000409_2014-06-04_19-23-33_260595134347_rgbf000067-resize_0-target.png,1000,3.7335,5,8442,1000,meters,jsons/v1_VE1000_randls_8_rotated.json,1957668,2136439,30,Woman
121,756315,DepthScenes,duration_manipulation_targetAtFixation,jsons/v1_VE1000_randls_8_rotated.json,http://54.235.29.9/FacialAge/BNav_EC2/DepthDuration/v2_depth_duration_MTurk/v2_DepthDuration_HTML.html#12,12,1024,768,1024,768,8-22-2022,4-59-54,122,depth_duration_stimuli/002663_2014-06-13_15-50-26_094959634447_rgbf000075-resize_1/002663_2014-06-13_15-50-26_094959634447_rgbf000075-resize_1-target.png,1000,4.7495,5,12675,1001,meters,jsons/v1_VE1000_randls_8_rotated.json,1957668,2136439,30,Woman
122,756315,DepthScenes,duration_manipulation_targetAtFixation,jsons/v1_VE1000_randls_8_rotated.json,http://54.235.29.9/FacialAge/BNav_EC2/DepthDuration/v2_depth_duration_MTurk/v2_DepthDuration_HTML.html#12,12,1024,768,1024,768,8-22-2022,4-59-54,123,depth_duration_stimuli/002414_2014-06-28_20-24-58_260595134347_rgbf000067-resize_4/002414_2014-06-28_20-24-58_260595134347_rgbf000067-resize_4-target.png,1000,4.363,5,8865,998,meters,jsons/v1_VE1000_randls_8_rotated.json,1957668,2136439,30,Woman
123,756315,DepthScenes,duration_manipulation_targetAtFixation,jsons/v1_VE1000_randls_8_rotated.json,http://54.235.29.9/FacialAge/BNav_EC2/DepthDuration/v2_depth_duration_MTurk/v2_DepthDuration_HTML.html#12,12,1024,768,1024,768,8-22-2022,4-59-54,124,depth_duration_stimuli/000773_2014-06-08_22-24-54_260595134347_rgbf000093-resize_1/000773_2014-06-08_22-24-54_260595134347_rgbf000093-resize_1-target.png,1000,4.973,5,8524,968,meters,jsons/v1_VE1000_randls_8_rotated.json,1957668,2136439,30,Woman
124,756315,DepthScenes,duration_manipulation_targetAtFixation,jsons/v1_VE1000_randls_8_rotated.json,http://54.235.29.9/FacialAge/BNav_EC2/DepthDuration/v2_depth_duration_MTurk/v2_DepthDuration_HTML.html#12,12,1024,768,1024,768,8-22-2022,4-59-54,125,depth_duration_stimuli/000742_2014-06-08_18-48-09_260595134347_rgbf000164-resize_4/000742_2014-06-08_18-48-09_260595134347_rgbf000164-resize_4-target.png,1000,4.632,5,15639,1006,meters,jsons/v1_VE1000_randls_8_rotated.json,1957668,2136439,30,Woman
125,756315,DepthScenes,duration_manipulation_targetAtFixation,jsons/v1_VE1000_randls_8_rotated.json,http://54.235.29.9/FacialAge/BNav_EC2/DepthDuration/v2_depth_duration_MTurk/v2_DepthDuration_HTML.html#12,12,1024,768,1024,768,8-22-2022,4-59-54,126,depth_duration_stimuli/001066_2014-06-08_22-03-20_260595134347_rgbf000066-resize_4/001066_2014-06-08_22-03-20_260595134347_rgbf000066-resize_4-target.png,1000,4.2330000000000005,4,8464,999,meters,jsons/v1_VE1000_randls_8_rotated.json,1957668,2136439,30,Woman
126,756315,DepthScenes,duration_manipulation_targetAtFixation,jsons/v1_VE1000_randls_8_rotated.json,http://54.235.29.9/FacialAge/BNav_EC2/DepthDuration/v2_depth_duration_MTurk/v2_DepthDuration_HTML.html#12,12,1024,768,1024,768,8-22-2022,4-59-54,127,depth_duration_stimuli/000457_2014-06-08_16-52-43_260595134347_rgbf000199-resize_1/000457_2014-06-08_16-52-43_260595134347_rgbf000199-resize_1-target.png,1000,3.6489999999999996,4,8430,999,meters,jsons/v1_VE1000_randls_8_rotated.json,1957668,2136439,30,Woman
127,756315,DepthScenes,duration_manipulation_targetAtFixation,jsons/v1_VE1000_randls_8_rotated.json,http://54.235.29.9/FacialAge/BNav_EC2/DepthDuration/v2_depth_duration_MTurk/v2_DepthDuration_HTML.html#12,12,1024,768,1024,768,8-22-2022,4-59-54,128,depth_duration_stimuli/000929_2014-06-09_16-33-19_260595134347_rgbf000139-resize_0/000929_2014-06-09_16-33-19_260595134347_rgbf000139-resize_0-target.png,1000,2.8680000000000003,5,9099,1000,meters,jsons/v1_VE1000_randls_8_rotated.json,1957668,2136439,30,Woman
128,756315,DepthScenes,duration_manipulation_targetAtFixation,jsons/v1_VE1000_randls_8_rotated.json,http://54.235.29.9/FacialAge/BNav_EC2/DepthDuration/v2_depth_duration_MTurk/v2_DepthDuration_HTML.html#12,12,1024,768,1024,768,8-22-2022,4-59-54,129,depth_duration_stimuli/003081_2014-06-15_15-19-16_094959634447_rgbf000150-resize_1/003081_2014-06-15_15-19-16_094959634447_rgbf000150-resize_1-target.png,1000,3.9125,2,7703,1000,meters,jsons/v1_VE1000_randls_8_rotated.json,1957668,2136439,30,Woman
129,756315,DepthScenes,duration_manipulation_targetAtFixation,jsons/v1_VE1000_randls_8_rotated.json,http://54.235.29.9/FacialAge/BNav_EC2/DepthDuration/v2_depth_duration_MTurk/v2_DepthDuration_HTML.html#12,12,1024,768,1024,768,8-22-2022,4-59-54,130,depth_duration_stimuli/001417_2014-06-19_16-25-36_260595134347_rgbf000115-resize_5/001417_2014-06-19_16-25-36_260595134347_rgbf000115-resize_5-target.png,1000,4.6255,5,8797,1000,meters,jsons/v1_VE1000_randls_8_rotated.json,1957668,2136439,30,Woman
130,756315,DepthScenes,duration_manipulation_targetAtFixation,jsons/v1_VE1000_randls_8_rotated.json,http://54.235.29.9/FacialAge/BNav_EC2/DepthDuration/v2_depth_duration_MTurk/v2_DepthDuration_HTML.html#12,12,1024,768,1024,768,8-22-2022,4-59-54,131,depth_duration_stimuli/003129_2014-05-12_10-48-10_094959634447_rgbf000100-resize_0/003129_2014-05-12_10-48-10_094959634447_rgbf000100-resize_0-target.png,1000,4.9305,3,8883,1000,meters,jsons/v1_VE1000_randls_8_rotated.json,1957668,2136439,30,Woman
131,756315,DepthScenes,duration_manipulation_targetAtFixation,jsons/v1_VE1000_randls_8_rotated.json,http://54.235.29.9/FacialAge/BNav_EC2/DepthDuration/v2_depth_duration_MTurk/v2_DepthDuration_HTML.html#12,12,1024,768,1024,768,8-22-2022,4-59-54,132,depth_duration_stimuli/000414_2014-06-04_19-49-13_260595134347_rgbf000044-resize_0/000414_2014-06-04_19-49-13_260595134347_rgbf000044-resize_0-target.png,1000,4.329,3,8166,1000,meters,jsons/v1_VE1000_randls_8_rotated.json,1957668,2136439,30,Woman
132,756315,DepthScenes,duration_manipulation_targetAtFixation,jsons/v1_VE1000_randls_8_rotated.json,http://54.235.29.9/FacialAge/BNav_EC2/DepthDuration/v2_depth_duration_MTurk/v2_DepthDuration_HTML.html#12,12,1024,768,1024,768,8-22-2022,4-59-54,133,depth_duration_stimuli/001392_2014-06-19_16-07-59_260595134347_rgbf000046-resize_1/001392_2014-06-19_16-07-59_260595134347_rgbf000046-resize_1-target.png,1000,4.135,5,11720,1000,meters,jsons/v1_VE1000_randls_8_rotated.json,1957668,2136439,30,Woman
133,756315,DepthScenes,duration_manipulation_targetAtFixation,jsons/v1_VE1000_randls_8_rotated.json,http://54.235.29.9/FacialAge/BNav_EC2/DepthDuration/v2_depth_duration_MTurk/v2_DepthDuration_HTML.html#12,12,1024,768,1024,768,8-22-2022,4-59-54,134,depth_duration_stimuli/001570_2014-06-20_17-21-09_260595134347_rgbf000135-resize_4/001570_2014-06-20_17-21-09_260595134347_rgbf000135-resize_4-target.png,1000,4.467,4,10298,999,meters,jsons/v1_VE1000_randls_8_rotated.json,1957668,2136439,30,Woman
134,756315,DepthScenes,duration_manipulation_targetAtFixation,jsons/v1_VE1000_randls_8_rotated.json,http://54.235.29.9/FacialAge/BNav_EC2/DepthDuration/v2_depth_duration_MTurk/v2_DepthDuration_HTML.html#12,12,1024,768,1024,768,8-22-2022,4-59-54,135,depth_duration_stimuli/000375_2014-06-08_11-17-29_260595134347_rgbf000133-resize_2/000375_2014-06-08_11-17-29_260595134347_rgbf000133-resize-original.jpg,1000,4.718,5,9481,998,meters,jsons/v1_VE1000_randls_8_rotated.json,1957668,2136439,30,Woman
135,756315,DepthScenes,duration_manipulation_targetAtFixation,jsons/v1_VE1000_randls_8_rotated.json,http://54.235.29.9/FacialAge/BNav_EC2/DepthDuration/v2_depth_duration_MTurk/v2_DepthDuration_HTML.html#12,12,1024,768,1024,768,8-22-2022,4-59-54,136,depth_duration_stimuli/002209_2014-06-28_18-36-10_260595134347_rgbf000051-resize_1/002209_2014-06-28_18-36-10_260595134347_rgbf000051-resize_1-target.png,1000,2.057,5,9403,998,meters,jsons/v1_VE1000_randls_8_rotated.json,1957668,2136439,30,Woman
136,756315,DepthScenes,duration_manipulation_targetAtFixation,jsons/v1_VE1000_randls_8_rotated.json,http://54.235.29.9/FacialAge/BNav_EC2/DepthDuration/v2_depth_duration_MTurk/v2_DepthDuration_HTML.html#12,12,1024,768,1024,768,8-22-2022,4-59-54,137,depth_duration_stimuli/002763_2014-06-22_19-13-10_094959634447_rgbf000075-resize_4/002763_2014-06-22_19-13-10_094959634447_rgbf000075-resize_4-target.png,1000,1.68375,5,3331,1000,meters,jsons/v1_VE1000_randls_8_rotated.json,1957668,2136439,30,Woman
137,756315,DepthScenes,duration_manipulation_targetAtFixation,jsons/v1_VE1000_randls_8_rotated.json,http://54.235.29.9/FacialAge/BNav_EC2/DepthDuration/v2_depth_duration_MTurk/v2_DepthDuration_HTML.html#12,12,1024,768,1024,768,8-22-2022,4-59-54,138,depth_duration_stimuli/003495_2014-05-21_16-01-51_094959634447_rgbf000100-resize_3/003495_2014-05-21_16-01-51_094959634447_rgbf000100-resize_3-target.png,1000,1.6255,5,7837,999,meters,jsons/v1_VE1000_randls_8_rotated.json,1957668,2136439,30,Woman
138,756315,DepthScenes,duration_manipulation_targetAtFixation,jsons/v1_VE1000_randls_8_rotated.json,http://54.235.29.9/FacialAge/BNav_EC2/DepthDuration/v2_depth_duration_MTurk/v2_DepthDuration_HTML.html#12,12,1024,768,1024,768,8-22-2022,4-59-54,139,depth_duration_stimuli/001244_2014-06-17_16-47-45_260595134347_rgbf000030-resize_4/001244_2014-06-17_16-47-45_260595134347_rgbf000030-resize_4-target.png,1000,2.0425,2,8496,999,meters,jsons/v1_VE1000_randls_8_rotated.json,1957668,2136439,30,Woman
139,756315,DepthScenes,duration_manipulation_targetAtFixation,jsons/v1_VE1000_randls_8_rotated.json,http://54.235.29.9/FacialAge/BNav_EC2/DepthDuration/v2_depth_duration_MTurk/v2_DepthDuration_HTML.html#12,12,1024,768,1024,768,8-22-2022,4-59-54,140,depth_duration_stimuli/000191_2014-05-12_17-07-38_260595134347_rgbf000199-resize_0/000191_2014-05-12_17-07-38_260595134347_rgbf000199-resize_0-target.png,1000,3.7995,2,14889,999,meters,jsons/v1_VE1000_randls_8_rotated.json,1957668,2136439,30,Woman
140,756315,DepthScenes,duration_manipulation_targetAtFixation,jsons/v1_VE1000_randls_8_rotated.json,http://54.235.29.9/FacialAge/BNav_EC2/DepthDuration/v2_depth_duration_MTurk/v2_DepthDuration_HTML.html#12,12,1024,768,1024,768,8-22-2022,4-59-54,141,depth_duration_stimuli/000493_2014-06-09_21-01-18_260595134347_rgbf000196-resize_3/000493_2014-06-09_21-01-18_260595134347_rgbf000196-resize_3-target.png,1000,3.44,5,12655,999,meters,jsons/v1_VE1000_randls_8_rotated.json,1957668,2136439,30,Woman
141,756315,DepthScenes,duration_manipulation_targetAtFixation,jsons/v1_VE1000_randls_8_rotated.json,http://54.235.29.9/FacialAge/BNav_EC2/DepthDuration/v2_depth_duration_MTurk/v2_DepthDuration_HTML.html#12,12,1024,768,1024,768,8-22-2022,4-59-54,142,depth_duration_stimuli/000137_2014-05-20_17-04-49_260595134347_rgbf000120-resize_1/000137_2014-05-20_17-04-49_260595134347_rgbf000120-resize_1-target.png,1000,3.786,5,11419,998,meters,jsons/v1_VE1000_randls_8_rotated.json,1957668,2136439,30,Woman
142,756315,DepthScenes,duration_manipulation_targetAtFixation,jsons/v1_VE1000_randls_8_rotated.json,http://54.235.29.9/FacialAge/BNav_EC2/DepthDuration/v2_depth_duration_MTurk/v2_DepthDuration_HTML.html#12,12,1024,768,1024,768,8-22-2022,4-59-54,143,depth_duration_stimuli/000736_2014-06-08_18-24-15_260595134347_rgbf000206-resize_3/000736_2014-06-08_18-24-15_260595134347_rgbf000206-resize_3-target.png,1000,3.515,5,7073,998,meters,jsons/v1_VE1000_randls_8_rotated.json,1957668,2136439,30,Woman
143,756315,DepthScenes,duration_manipulation_targetAtFixation,jsons/v1_VE1000_randls_8_rotated.json,http://54.235.29.9/FacialAge/BNav_EC2/DepthDuration/v2_depth_duration_MTurk/v2_DepthDuration_HTML.html#12,12,1024,768,1024,768,8-22-2022,4-59-54,144,depth_duration_stimuli/001032_2014-06-08_13-23-17_260595134347_rgbf000021-resize_3/001032_2014-06-08_13-23-17_260595134347_rgbf000021-resize_3-target.png,1000,3.2725,5,10140,920,meters,jsons/v1_VE1000_randls_8_rotated.json,1957668,2136439,30,Woman
144,756315,DepthScenes,duration_manipulation_targetAtFixation,jsons/v1_VE1000_randls_8_rotated.json,http://54.235.29.9/FacialAge/BNav_EC2/DepthDuration/v2_depth_duration_MTurk/v2_DepthDuration_HTML.html#12,12,1024,768,1024,768,8-22-2022,4-59-54,145,depth_duration_stimuli/001059_2014-06-08_21-53-27_260595134347_rgbf000061-resize_4/001059_2014-06-08_21-53-27_260595134347_rgbf000061-resize_4-target.png,1000,2.4185,2,6079,999,meters,jsons/v1_VE1000_randls_8_rotated.json,1957668,2136439,30,Woman
145,756315,DepthScenes,duration_manipulation_targetAtFixation,jsons/v1_VE1000_randls_8_rotated.json,http://54.235.29.9/FacialAge/BNav_EC2/DepthDuration/v2_depth_duration_MTurk/v2_DepthDuration_HTML.html#12,12,1024,768,1024,768,8-22-2022,4-59-54,146,depth_duration_stimuli/001132_2014-06-17_14-48-54_260595134347_rgbf000100-resize_2/001132_2014-06-17_14-48-54_260595134347_rgbf000100-resize_2-target.png,1000,3.753,5,7635,999,meters,jsons/v1_VE1000_randls_8_rotated.json,1957668,2136439,30,Woman
146,756315,DepthScenes,duration_manipulation_targetAtFixation,jsons/v1_VE1000_randls_8_rotated.json,http://54.235.29.9/FacialAge/BNav_EC2/DepthDuration/v2_depth_duration_MTurk/v2_DepthDuration_HTML.html#12,12,1024,768,1024,768,8-22-2022,4-59-54,147,depth_duration_stimuli/001133_2014-06-17_14-49-16_260595134347_rgbf000100-resize_0/001133_2014-06-17_14-49-16_260595134347_rgbf000100-resize_0-target.png,1000,4.2115,5,7786,999,meters,jsons/v1_VE1000_randls_8_rotated.json,1957668,2136439,30,Woman
147,756315,DepthScenes,duration_manipulation_targetAtFixation,jsons/v1_VE1000_randls_8_rotated.json,http://54.235.29.9/FacialAge/BNav_EC2/DepthDuration/v2_depth_duration_MTurk/v2_DepthDuration_HTML.html#12,12,1024,768,1024,768,8-22-2022,4-59-54,148,depth_duration_stimuli/002758_2014-06-22_19-11-20_094959634447_rgbf000128-resize_1/002758_2014-06-22_19-11-20_094959634447_rgbf000128-resize_1-target.png,1000,2.555,3,15670,998,meters,jsons/v1_VE1000_randls_8_rotated.json,1957668,2136439,30,Woman
148,756315,DepthScenes,duration_manipulation_targetAtFixation,jsons/v1_VE1000_randls_8_rotated.json,http://54.235.29.9/FacialAge/BNav_EC2/DepthDuration/v2_depth_duration_MTurk/v2_DepthDuration_HTML.html#12,12,1024,768,1024,768,8-22-2022,4-59-54,149,depth_duration_stimuli/002630_2014-06-24_14-47-50_094959634447_rgbf000055-resize_1/002630_2014-06-24_14-47-50_094959634447_rgbf000055-resize_1-target.png,1000,3.0095,1,7743,999,meters,jsons/v1_VE1000_randls_8_rotated.json,1957668,2136439,30,Woman
149,756315,DepthScenes,duration_manipulation_targetAtFixation,jsons/v1_VE1000_randls_8_rotated.json,http://54.235.29.9/FacialAge/BNav_EC2/DepthDuration/v2_depth_duration_MTurk/v2_DepthDuration_HTML.html#12,12,1024,768,1024,768,8-22-2022,4-59-54,150,depth_duration_stimuli/001650_2014-06-20_12-09-00_260595134347_rgbf000087-resize_3/001650_2014-06-20_12-09-00_260595134347_rgbf000087-resize_3-target.png,1000,1.9505,5,9931,1022,meters,jsons/v1_VE1000_randls_8_rotated.json,1957668,2136439,30,Woman
150,756315,DepthScenes,duration_manipulation_targetAtFixation,jsons/v1_VE1000_randls_8_rotated.json,http://54.235.29.9/FacialAge/BNav_EC2/DepthDuration/v2_depth_duration_MTurk/v2_DepthDuration_HTML.html#12,12,1024,768,1024,768,8-22-2022,4-59-54,151,depth_duration_stimuli/000682_2014-06-08_23-14-58_260595134347_rgbf000041-resize_5/000682_2014-06-08_23-14-58_260595134347_rgbf000041-resize_5-target.png,1000,2.7239999999999998,4,8404,1007,meters,jsons/v1_VE1000_randls_8_rotated.json,1957668,2136439,30,Woman
151,756315,DepthScenes,duration_manipulation_targetAtFixation,jsons/v1_VE1000_randls_8_rotated.json,http://54.235.29.9/FacialAge/BNav_EC2/DepthDuration/v2_depth_duration_MTurk/v2_DepthDuration_HTML.html#12,12,1024,768,1024,768,8-22-2022,4-59-54,152,depth_duration_stimuli/000569_2014-06-09_22-51-47_260595134347_rgbf000141-resize_3/000569_2014-06-09_22-51-47_260595134347_rgbf000141-resize-original.jpg,1000,4.512,5,8569,998,meters,jsons/v1_VE1000_randls_8_rotated.json,1957668,2136439,30,Woman
152,756315,DepthScenes,duration_manipulation_targetAtFixation,jsons/v1_VE1000_randls_8_rotated.json,http://54.235.29.9/FacialAge/BNav_EC2/DepthDuration/v2_depth_duration_MTurk/v2_DepthDuration_HTML.html#12,12,1024,768,1024,768,8-22-2022,4-59-54,153,depth_duration_stimuli/003010_2014-06-15_12-54-35_094959634447_rgbf000112-resize_0/003010_2014-06-15_12-54-35_094959634447_rgbf000112-resize_0-target.png,1000,3.1185,5,8522,1000,meters,jsons/v1_VE1000_randls_8_rotated.json,1957668,2136439,30,Woman
153,756315,DepthScenes,duration_manipulation_targetAtFixation,jsons/v1_VE1000_randls_8_rotated.json,http://54.235.29.9/FacialAge/BNav_EC2/DepthDuration/v2_depth_duration_MTurk/v2_DepthDuration_HTML.html#12,12,1024,768,1024,768,8-22-2022,4-59-54,154,depth_duration_stimuli/001810_2014-06-26_20-51-35_260595134347_rgbf000040-resize_3/001810_2014-06-26_20-51-35_260595134347_rgbf000040-resize_3-target.png,1000,2.2525,5,9494,1000,meters,jsons/v1_VE1000_randls_8_rotated.json,1957668,2136439,30,Woman
154,756315,DepthScenes,duration_manipulation_targetAtFixation,jsons/v1_VE1000_randls_8_rotated.json,http://54.235.29.9/FacialAge/BNav_EC2/DepthDuration/v2_depth_duration_MTurk/v2_DepthDuration_HTML.html#12,12,1024,768,1024,768,8-22-2022,4-59-54,155,depth_duration_stimuli/000483_2014-06-09_20-41-45_260595134347_rgbf000116-resize_4/000483_2014-06-09_20-41-45_260595134347_rgbf000116-resize_4-target.png,1000,1.337,2,9024,1000,meters,jsons/v1_VE1000_randls_8_rotated.json,1957668,2136439,30,Woman
155,756315,DepthScenes,duration_manipulation_targetAtFixation,jsons/v1_VE1000_randls_8_rotated.json,http://54.235.29.9/FacialAge/BNav_EC2/DepthDuration/v2_depth_duration_MTurk/v2_DepthDuration_HTML.html#12,12,1024,768,1024,768,8-22-2022,4-59-54,156,depth_duration_stimuli/000469_2014-06-09_19-42-10_260595134347_rgbf000081-resize_1/000469_2014-06-09_19-42-10_260595134347_rgbf000081-resize_1-target.png,1000,1.652,3,10106,999,meters,jsons/v1_VE1000_randls_8_rotated.json,1957668,2136439,30,Woman
156,756315,DepthScenes,duration_manipulation_targetAtFixation,jsons/v1_VE1000_randls_8_rotated.json,http://54.235.29.9/FacialAge/BNav_EC2/DepthDuration/v2_depth_duration_MTurk/v2_DepthDuration_HTML.html#12,12,1024,768,1024,768,8-22-2022,4-59-54,157,depth_duration_stimuli/000943_2014-06-09_19-31-07_260595134347_rgbf000128-resize_1/000943_2014-06-09_19-31-07_260595134347_rgbf000128-resize_1-target.png,1000,1.9765,5,10633,999,meters,jsons/v1_VE1000_randls_8_rotated.json,1957668,2136439,30,Woman
157,756315,DepthScenes,duration_manipulation_targetAtFixation,jsons/v1_VE1000_randls_8_rotated.json,http://54.235.29.9/FacialAge/BNav_EC2/DepthDuration/v2_depth_duration_MTurk/v2_DepthDuration_HTML.html#12,12,1024,768,1024,768,8-22-2022,4-59-54,158,depth_duration_stimuli/003070_2014-06-15_14-58-27_094959634447_rgbf000150-resize_3/003070_2014-06-15_14-58-27_094959634447_rgbf000150-resize_3-target.png,1000,2.9415,2,7738,999,meters,jsons/v1_VE1000_randls_8_rotated.json,1957668,2136439,30,Woman
158,756315,DepthScenes,duration_manipulation_targetAtFixation,jsons/v1_VE1000_randls_8_rotated.json,http://54.235.29.9/FacialAge/BNav_EC2/DepthDuration/v2_depth_duration_MTurk/v2_DepthDuration_HTML.html#12,12,1024,768,1024,768,8-22-2022,4-59-54,159,depth_duration_stimuli/001214_2014-06-17_16-13-55_260595134347_rgbf000111-resize_0/001214_2014-06-17_16-13-55_260595134347_rgbf000111-resize_0-target.png,1000,2.6505,2,8017,997,meters,jsons/v1_VE1000_randls_8_rotated.json,1957668,2136439,30,Woman
159,756315,DepthScenes,duration_manipulation_targetAtFixation,jsons/v1_VE1000_randls_8_rotated.json,http://54.235.29.9/FacialAge/BNav_EC2/DepthDuration/v2_depth_duration_MTurk/v2_DepthDuration_HTML.html#12,12,1024,768,1024,768,8-22-2022,4-59-54,160,depth_duration_stimuli/000810_2014-06-08_17-20-01_260595134347_rgbf000105-resize_0/000810_2014-06-08_17-20-01_260595134347_rgbf000105-resize_0-target.png,1000,1.4865,2,6867,1000,meters,jsons/v1_VE1000_randls_8_rotated.json,1957668,2136439,30,Woman
160,756315,DepthScenes,duration_manipulation_targetAtFixation,jsons/v1_VE1000_randls_8_rotated.json,http://54.235.29.9/FacialAge/BNav_EC2/DepthDuration/v2_depth_duration_MTurk/v2_DepthDuration_HTML.html#12,12,1024,768,1024,768,8-22-2022,4-59-54,161,depth_duration_stimuli/003490_2014-05-21_15-50-11_094959634447_rgbf000101-resize_3/003490_2014-05-21_15-50-11_094959634447_rgbf000101-resize_3-target.png,1000,3.6445,5,8599,994,meters,jsons/v1_VE1000_randls_8_rotated.json,1957668,2136439,30,Woman
161,756315,DepthScenes,duration_manipulation_targetAtFixation,jsons/v1_VE1000_randls_8_rotated.json,http://54.235.29.9/FacialAge/BNav_EC2/DepthDuration/v2_depth_duration_MTurk/v2_DepthDuration_HTML.html#12,12,1024,768,1024,768,8-22-2022,4-59-54,162,depth_duration_stimuli/001175_2014-06-17_15-45-55_260595134347_rgbf000129-resize_4/001175_2014-06-17_15-45-55_260595134347_rgbf000129-resize_4-target.png,1000,4.255,5,7018,1126,meters,jsons/v1_VE1000_randls_8_rotated.json,1957668,2136439,30,Woman
162,756315,DepthScenes,duration_manipulation_targetAtFixation,jsons/v1_VE1000_randls_8_rotated.json,http://54.235.29.9/FacialAge/BNav_EC2/DepthDuration/v2_depth_duration_MTurk/v2_DepthDuration_HTML.html#12,12,1024,768,1024,768,8-22-2022,4-59-54,163,depth_duration_stimuli/001235_2014-06-17_16-37-36_260595134347_rgbf000084-resize_4/001235_2014-06-17_16-37-36_260595134347_rgbf000084-resize_4-target.png,1000,3.6605,5,8066,1000,meters,jsons/v1_VE1000_randls_8_rotated.json,1957668,2136439,30,Woman
163,756315,DepthScenes,duration_manipulation_targetAtFixation,jsons/v1_VE1000_randls_8_rotated.json,http://54.235.29.9/FacialAge/BNav_EC2/DepthDuration/v2_depth_duration_MTurk/v2_DepthDuration_HTML.html#12,12,1024,768,1024,768,8-22-2022,4-59-54,164,depth_duration_stimuli/000788_2014-06-08_22-34-36_260595134347_rgbf000131-resize_1/000788_2014-06-08_22-34-36_260595134347_rgbf000131-resize_1-target.png,1000,3.359,5,7852,1002,meters,jsons/v1_VE1000_randls_8_rotated.json,1957668,2136439,30,Woman
