,subjID,experimentName,versionName,sequenceName,url,selected_row,windowWidth,windowHeight,screenWidth,screenHeight,startDate,startTime,trial,stimulus,duration,actual_depth,depth_estimate,trial_RT,log_sceneDuration,unitSelection,seq_filepath,experimentTime,totalTime,age,gender
0,757697,DepthScenes,duration_manipulation_targetAtFixation,jsons/v1_VE1000_randls_4_rotated.json,http://54.235.29.9/FacialAge/BNav_EC2/DepthDuration/v2_depth_duration_MTurk/v2_DepthDuration_HTML.html#139,139,1364,625,1364,768,8-30-2022,7-53-19,1,depth_duration_stimuli/001450_2014-06-19_17-02-03_260595134347_rgbf000203-resize_4/001450_2014-06-19_17-02-03_260595134347_rgbf000203-resize_4-target.png,1000,4.0106666666667,4,130132,999,feet,jsons/v1_VE1000_randls_4_rotated.json,996435,1137151,26,Woman
1,757697,DepthScenes,duration_manipulation_targetAtFixation,jsons/v1_VE1000_randls_4_rotated.json,http://54.235.29.9/FacialAge/BNav_EC2/DepthDuration/v2_depth_duration_MTurk/v2_DepthDuration_HTML.html#139,139,1364,625,1364,768,8-30-2022,7-53-19,2,depth_duration_stimuli/001449_2014-06-19_17-01-27_260595134347_rgbf000116-resize_2/001449_2014-06-19_17-01-27_260595134347_rgbf000116-resize_2-target.png,1000,3.452,2,6550,997,feet,jsons/v1_VE1000_randls_4_rotated.json,996435,1137151,26,Woman
2,757697,DepthScenes,duration_manipulation_targetAtFixation,jsons/v1_VE1000_randls_4_rotated.json,http://54.235.29.9/FacialAge/BNav_EC2/DepthDuration/v2_depth_duration_MTurk/v2_DepthDuration_HTML.html#139,139,1364,625,1364,768,8-30-2022,7-53-19,3,depth_duration_stimuli/002750_2014-06-22_19-08-03_094959634447_rgbf000094-resize_4/002750_2014-06-22_19-08-03_094959634447_rgbf000094-resize_4-target.png,1000,2.354,3,7863,997,feet,jsons/v1_VE1000_randls_4_rotated.json,996435,1137151,26,Woman
3,757697,DepthScenes,duration_manipulation_targetAtFixation,jsons/v1_VE1000_randls_4_rotated.json,http://54.235.29.9/FacialAge/BNav_EC2/DepthDuration/v2_depth_duration_MTurk/v2_DepthDuration_HTML.html#139,139,1364,625,1364,768,8-30-2022,7-53-19,4,depth_duration_stimuli/002549_2014-06-24_13-41-39_094959634447_rgbf000022-resize_3/002549_2014-06-24_13-41-39_094959634447_rgbf000022-resize_3-target.png,1000,1.476,5,7271,992,feet,jsons/v1_VE1000_randls_4_rotated.json,996435,1137151,26,Woman
4,757697,DepthScenes,duration_manipulation_targetAtFixation,jsons/v1_VE1000_randls_4_rotated.json,http://54.235.29.9/FacialAge/BNav_EC2/DepthDuration/v2_depth_duration_MTurk/v2_DepthDuration_HTML.html#139,139,1364,625,1364,768,8-30-2022,7-53-19,5,depth_duration_stimuli/000191_2014-05-12_17-07-38_260595134347_rgbf000199-resize_0/000191_2014-05-12_17-07-38_260595134347_rgbf000199-resize_0-target.png,1000,3.7995,8,9185,1000,feet,jsons/v1_VE1000_randls_4_rotated.json,996435,1137151,26,Woman
5,757697,DepthScenes,duration_manipulation_targetAtFixation,jsons/v1_VE1000_randls_4_rotated.json,http://54.235.29.9/FacialAge/BNav_EC2/DepthDuration/v2_depth_duration_MTurk/v2_DepthDuration_HTML.html#139,139,1364,625,1364,768,8-30-2022,7-53-19,6,depth_duration_stimuli/000493_2014-06-09_21-01-18_260595134347_rgbf000196-resize_3/000493_2014-06-09_21-01-18_260595134347_rgbf000196-resize_3-target.png,1000,3.44,6,7621,999,feet,jsons/v1_VE1000_randls_4_rotated.json,996435,1137151,26,Woman
6,757697,DepthScenes,duration_manipulation_targetAtFixation,jsons/v1_VE1000_randls_4_rotated.json,http://54.235.29.9/FacialAge/BNav_EC2/DepthDuration/v2_depth_duration_MTurk/v2_DepthDuration_HTML.html#139,139,1364,625,1364,768,8-30-2022,7-53-19,7,depth_duration_stimuli/003048_2014-06-15_13-49-43_094959634447_rgbf000150-resize_1/003048_2014-06-15_13-49-43_094959634447_rgbf000150-resize_1-target.png,1000,4.0035,3,6345,998,feet,jsons/v1_VE1000_randls_4_rotated.json,996435,1137151,26,Woman
7,757697,DepthScenes,duration_manipulation_targetAtFixation,jsons/v1_VE1000_randls_4_rotated.json,http://54.235.29.9/FacialAge/BNav_EC2/DepthDuration/v2_depth_duration_MTurk/v2_DepthDuration_HTML.html#139,139,1364,625,1364,768,8-30-2022,7-53-19,8,depth_duration_stimuli/002043_2014-06-24_20-29-38_260595134347_rgbf000039-resize_4/002043_2014-06-24_20-29-38_260595134347_rgbf000039-resize_4-target.png,1000,2.8435,3,7252,1000,feet,jsons/v1_VE1000_randls_4_rotated.json,996435,1137151,26,Woman
8,757697,DepthScenes,duration_manipulation_targetAtFixation,jsons/v1_VE1000_randls_4_rotated.json,http://54.235.29.9/FacialAge/BNav_EC2/DepthDuration/v2_depth_duration_MTurk/v2_DepthDuration_HTML.html#139,139,1364,625,1364,768,8-30-2022,7-53-19,9,depth_duration_stimuli/002639_2014-06-24_14-51-37_094959634447_rgbf000074-resize_4/002639_2014-06-24_14-51-37_094959634447_rgbf000074-resize_4-target.png,1000,4.0375,4,9776,986,feet,jsons/v1_VE1000_randls_4_rotated.json,996435,1137151,26,Woman
9,757697,DepthScenes,duration_manipulation_targetAtFixation,jsons/v1_VE1000_randls_4_rotated.json,http://54.235.29.9/FacialAge/BNav_EC2/DepthDuration/v2_depth_duration_MTurk/v2_DepthDuration_HTML.html#139,139,1364,625,1364,768,8-30-2022,7-53-19,10,depth_duration_stimuli/003292_2014-05-14_21-53-49_094959634447_rgbf000100-resize_2/003292_2014-05-14_21-53-49_094959634447_rgbf000100-resize_2-target.png,1000,3.4815,3,6563,998,feet,jsons/v1_VE1000_randls_4_rotated.json,996435,1137151,26,Woman
10,757697,DepthScenes,duration_manipulation_targetAtFixation,jsons/v1_VE1000_randls_4_rotated.json,http://54.235.29.9/FacialAge/BNav_EC2/DepthDuration/v2_depth_duration_MTurk/v2_DepthDuration_HTML.html#139,139,1364,625,1364,768,8-30-2022,7-53-19,11,depth_duration_stimuli/000927_2014-06-09_16-32-30_260595134347_rgbf000123-resize_3/000927_2014-06-09_16-32-30_260595134347_rgbf000123-resize_3-target.png,1000,2.6785,4,6256,1000,feet,jsons/v1_VE1000_randls_4_rotated.json,996435,1137151,26,Woman
11,757697,DepthScenes,duration_manipulation_targetAtFixation,jsons/v1_VE1000_randls_4_rotated.json,http://54.235.29.9/FacialAge/BNav_EC2/DepthDuration/v2_depth_duration_MTurk/v2_DepthDuration_HTML.html#139,139,1364,625,1364,768,8-30-2022,7-53-19,12,depth_duration_stimuli/001110_2014-06-15_17-25-28_260595134347_rgbf000150-resize_1/001110_2014-06-15_17-25-28_260595134347_rgbf000150-resize_1-target.png,1000,1.7115,4,7760,1004,feet,jsons/v1_VE1000_randls_4_rotated.json,996435,1137151,26,Woman
12,757697,DepthScenes,duration_manipulation_targetAtFixation,jsons/v1_VE1000_randls_4_rotated.json,http://54.235.29.9/FacialAge/BNav_EC2/DepthDuration/v2_depth_duration_MTurk/v2_DepthDuration_HTML.html#139,139,1364,625,1364,768,8-30-2022,7-53-19,13,depth_duration_stimuli/000742_2014-06-08_18-48-09_260595134347_rgbf000164-resize_4/000742_2014-06-08_18-48-09_260595134347_rgbf000164-resize_4-target.png,1000,4.632,4,6973,999,feet,jsons/v1_VE1000_randls_4_rotated.json,996435,1137151,26,Woman
13,757697,DepthScenes,duration_manipulation_targetAtFixation,jsons/v1_VE1000_randls_4_rotated.json,http://54.235.29.9/FacialAge/BNav_EC2/DepthDuration/v2_depth_duration_MTurk/v2_DepthDuration_HTML.html#139,139,1364,625,1364,768,8-30-2022,7-53-19,14,depth_duration_stimuli/001066_2014-06-08_22-03-20_260595134347_rgbf000066-resize_4/001066_2014-06-08_22-03-20_260595134347_rgbf000066-resize_4-target.png,1000,4.2330000000000005,2,6535,998,feet,jsons/v1_VE1000_randls_4_rotated.json,996435,1137151,26,Woman
14,757697,DepthScenes,duration_manipulation_targetAtFixation,jsons/v1_VE1000_randls_4_rotated.json,http://54.235.29.9/FacialAge/BNav_EC2/DepthDuration/v2_depth_duration_MTurk/v2_DepthDuration_HTML.html#139,139,1364,625,1364,768,8-30-2022,7-53-19,15,depth_duration_stimuli/000103_2014-05-14_22-01-17_260595134347_rgbf000152-resize_5/000103_2014-05-14_22-01-17_260595134347_rgbf000152-resize_5-target.png,1000,1.993,3,7095,997,feet,jsons/v1_VE1000_randls_4_rotated.json,996435,1137151,26,Woman
15,757697,DepthScenes,duration_manipulation_targetAtFixation,jsons/v1_VE1000_randls_4_rotated.json,http://54.235.29.9/FacialAge/BNav_EC2/DepthDuration/v2_depth_duration_MTurk/v2_DepthDuration_HTML.html#139,139,1364,625,1364,768,8-30-2022,7-53-19,16,depth_duration_stimuli/001555_2014-06-20_17-12-10_260595134347_rgbf000065-resize_4/001555_2014-06-20_17-12-10_260595134347_rgbf000065-resize_4-target.png,1000,1.633,3,6684,1010,feet,jsons/v1_VE1000_randls_4_rotated.json,996435,1137151,26,Woman
16,757697,DepthScenes,duration_manipulation_targetAtFixation,jsons/v1_VE1000_randls_4_rotated.json,http://54.235.29.9/FacialAge/BNav_EC2/DepthDuration/v2_depth_duration_MTurk/v2_DepthDuration_HTML.html#139,139,1364,625,1364,768,8-30-2022,7-53-19,17,depth_duration_stimuli/002678_2014-06-13_16-15-32_094959634447_rgbf000151-resize_6/002678_2014-06-13_16-15-32_094959634447_rgbf000151-resize_6-target.png,1000,2.1830000000000003,5,7162,998,feet,jsons/v1_VE1000_randls_4_rotated.json,996435,1137151,26,Woman
17,757697,DepthScenes,duration_manipulation_targetAtFixation,jsons/v1_VE1000_randls_4_rotated.json,http://54.235.29.9/FacialAge/BNav_EC2/DepthDuration/v2_depth_duration_MTurk/v2_DepthDuration_HTML.html#139,139,1364,625,1364,768,8-30-2022,7-53-19,18,depth_duration_stimuli/000368_2014-06-09_15-53-01_260595134347_rgbf000155-resize_2/000368_2014-06-09_15-53-01_260595134347_rgbf000155-resize_2-target.png,1000,2.4859999999999998,3,3586,1005,feet,jsons/v1_VE1000_randls_4_rotated.json,996435,1137151,26,Woman
18,757697,DepthScenes,duration_manipulation_targetAtFixation,jsons/v1_VE1000_randls_4_rotated.json,http://54.235.29.9/FacialAge/BNav_EC2/DepthDuration/v2_depth_duration_MTurk/v2_DepthDuration_HTML.html#139,139,1364,625,1364,768,8-30-2022,7-53-19,19,depth_duration_stimuli/001498_2014-06-19_17-45-14_260595134347_rgbf000129-resize_4/001498_2014-06-19_17-45-14_260595134347_rgbf000129-resize-original.jpg,1000,1.4075,0,3869,999,feet,jsons/v1_VE1000_randls_4_rotated.json,996435,1137151,26,Woman
19,757697,DepthScenes,duration_manipulation_targetAtFixation,jsons/v1_VE1000_randls_4_rotated.json,http://54.235.29.9/FacialAge/BNav_EC2/DepthDuration/v2_depth_duration_MTurk/v2_DepthDuration_HTML.html#139,139,1364,625,1364,768,8-30-2022,7-53-19,20,depth_duration_stimuli/001032_2014-06-08_13-23-17_260595134347_rgbf000021-resize_3/001032_2014-06-08_13-23-17_260595134347_rgbf000021-resize_3-target.png,1000,3.2725,4,3720,1003,feet,jsons/v1_VE1000_randls_4_rotated.json,996435,1137151,26,Woman
20,757697,DepthScenes,duration_manipulation_targetAtFixation,jsons/v1_VE1000_randls_4_rotated.json,http://54.235.29.9/FacialAge/BNav_EC2/DepthDuration/v2_depth_duration_MTurk/v2_DepthDuration_HTML.html#139,139,1364,625,1364,768,8-30-2022,7-53-19,21,depth_duration_stimuli/001059_2014-06-08_21-53-27_260595134347_rgbf000061-resize_4/001059_2014-06-08_21-53-27_260595134347_rgbf000061-resize_4-target.png,1000,2.4185,4,3526,1012,feet,jsons/v1_VE1000_randls_4_rotated.json,996435,1137151,26,Woman
21,757697,DepthScenes,duration_manipulation_targetAtFixation,jsons/v1_VE1000_randls_4_rotated.json,http://54.235.29.9/FacialAge/BNav_EC2/DepthDuration/v2_depth_duration_MTurk/v2_DepthDuration_HTML.html#139,139,1364,625,1364,768,8-30-2022,7-53-19,22,depth_duration_stimuli/003010_2014-06-15_12-54-35_094959634447_rgbf000112-resize_0/003010_2014-06-15_12-54-35_094959634447_rgbf000112-resize_0-target.png,1000,3.1185,6,4769,1008,feet,jsons/v1_VE1000_randls_4_rotated.json,996435,1137151,26,Woman
22,757697,DepthScenes,duration_manipulation_targetAtFixation,jsons/v1_VE1000_randls_4_rotated.json,http://54.235.29.9/FacialAge/BNav_EC2/DepthDuration/v2_depth_duration_MTurk/v2_DepthDuration_HTML.html#139,139,1364,625,1364,768,8-30-2022,7-53-19,23,depth_duration_stimuli/001810_2014-06-26_20-51-35_260595134347_rgbf000040-resize_3/001810_2014-06-26_20-51-35_260595134347_rgbf000040-resize_3-target.png,1000,2.2525,3,3766,1012,feet,jsons/v1_VE1000_randls_4_rotated.json,996435,1137151,26,Woman
23,757697,DepthScenes,duration_manipulation_targetAtFixation,jsons/v1_VE1000_randls_4_rotated.json,http://54.235.29.9/FacialAge/BNav_EC2/DepthDuration/v2_depth_duration_MTurk/v2_DepthDuration_HTML.html#139,139,1364,625,1364,768,8-30-2022,7-53-19,24,depth_duration_stimuli/001100_2014-06-15_17-46-26_260595134347_rgbf000225-resize_2/001100_2014-06-15_17-46-26_260595134347_rgbf000225-resize_2-target.png,1000,2.24,2,3869,1013,feet,jsons/v1_VE1000_randls_4_rotated.json,996435,1137151,26,Woman
24,757697,DepthScenes,duration_manipulation_targetAtFixation,jsons/v1_VE1000_randls_4_rotated.json,http://54.235.29.9/FacialAge/BNav_EC2/DepthDuration/v2_depth_duration_MTurk/v2_DepthDuration_HTML.html#139,139,1364,625,1364,768,8-30-2022,7-53-19,25,depth_duration_stimuli/002784_2014-06-22_19-26-30_094959634447_rgbf000083-resize_3/002784_2014-06-22_19-26-30_094959634447_rgbf000083-resize_3-target.png,1000,1.8046666666667,5,3834,1009,feet,jsons/v1_VE1000_randls_4_rotated.json,996435,1137151,26,Woman
25,757697,DepthScenes,duration_manipulation_targetAtFixation,jsons/v1_VE1000_randls_4_rotated.json,http://54.235.29.9/FacialAge/BNav_EC2/DepthDuration/v2_depth_duration_MTurk/v2_DepthDuration_HTML.html#139,139,1364,625,1364,768,8-30-2022,7-53-19,26,depth_duration_stimuli/002660_2014-06-13_15-44-18_094959634447_rgbf001878-resize_2/002660_2014-06-13_15-44-18_094959634447_rgbf001878-resize_2-target.png,1000,3.576,6,4364,1002,feet,jsons/v1_VE1000_randls_4_rotated.json,996435,1137151,26,Woman
26,757697,DepthScenes,duration_manipulation_targetAtFixation,jsons/v1_VE1000_randls_4_rotated.json,http://54.235.29.9/FacialAge/BNav_EC2/DepthDuration/v2_depth_duration_MTurk/v2_DepthDuration_HTML.html#139,139,1364,625,1364,768,8-30-2022,7-53-19,27,depth_duration_stimuli/002153_2014-06-25_21-27-18_260595134347_rgbf000038-resize_5/002153_2014-06-25_21-27-18_260595134347_rgbf000038-resize_5-target.png,1000,2.505,1,10703,994,feet,jsons/v1_VE1000_randls_4_rotated.json,996435,1137151,26,Woman
27,757697,DepthScenes,duration_manipulation_targetAtFixation,jsons/v1_VE1000_randls_4_rotated.json,http://54.235.29.9/FacialAge/BNav_EC2/DepthDuration/v2_depth_duration_MTurk/v2_DepthDuration_HTML.html#139,139,1364,625,1364,768,8-30-2022,7-53-19,28,depth_duration_stimuli/002568_2014-06-24_13-59-21_094959634447_rgbf000062-resize_4/002568_2014-06-24_13-59-21_094959634447_rgbf000062-resize_4-target.png,1000,3.015,6,3997,999,feet,jsons/v1_VE1000_randls_4_rotated.json,996435,1137151,26,Woman
28,757697,DepthScenes,duration_manipulation_targetAtFixation,jsons/v1_VE1000_randls_4_rotated.json,http://54.235.29.9/FacialAge/BNav_EC2/DepthDuration/v2_depth_duration_MTurk/v2_DepthDuration_HTML.html#139,139,1364,625,1364,768,8-30-2022,7-53-19,29,depth_duration_stimuli/003492_2014-05-21_15-50-55_094959634447_rgbf000828-resize_1/003492_2014-05-21_15-50-55_094959634447_rgbf000828-resize_1-target.png,1000,4.06875,8,4087,989,feet,jsons/v1_VE1000_randls_4_rotated.json,996435,1137151,26,Woman
29,757697,DepthScenes,duration_manipulation_targetAtFixation,jsons/v1_VE1000_randls_4_rotated.json,http://54.235.29.9/FacialAge/BNav_EC2/DepthDuration/v2_depth_duration_MTurk/v2_DepthDuration_HTML.html#139,139,1364,625,1364,768,8-30-2022,7-53-19,30,depth_duration_stimuli/002072_2014-06-24_21-48-06_260595134347_rgbf000115-resize_0/002072_2014-06-24_21-48-06_260595134347_rgbf000115-resize-original.jpg,1000,4.702,0,3647,1003,feet,jsons/v1_VE1000_randls_4_rotated.json,996435,1137151,26,Woman
30,757697,DepthScenes,duration_manipulation_targetAtFixation,jsons/v1_VE1000_randls_4_rotated.json,http://54.235.29.9/FacialAge/BNav_EC2/DepthDuration/v2_depth_duration_MTurk/v2_DepthDuration_HTML.html#139,139,1364,625,1364,768,8-30-2022,7-53-19,31,depth_duration_stimuli/002949_2014-06-26_15-57-42_094959634447_rgbf000079-resize_1/002949_2014-06-26_15-57-42_094959634447_rgbf000079-resize_1-target.png,1000,1.8915,2,3989,1011,feet,jsons/v1_VE1000_randls_4_rotated.json,996435,1137151,26,Woman
31,757697,DepthScenes,duration_manipulation_targetAtFixation,jsons/v1_VE1000_randls_4_rotated.json,http://54.235.29.9/FacialAge/BNav_EC2/DepthDuration/v2_depth_duration_MTurk/v2_DepthDuration_HTML.html#139,139,1364,625,1364,768,8-30-2022,7-53-19,32,depth_duration_stimuli/000522_2014-06-08_13-35-06_260595134347_rgbf000244-resize_1/000522_2014-06-08_13-35-06_260595134347_rgbf000244-resize_1-target.png,1000,2.3715,1,3964,999,feet,jsons/v1_VE1000_randls_4_rotated.json,996435,1137151,26,Woman
32,757697,DepthScenes,duration_manipulation_targetAtFixation,jsons/v1_VE1000_randls_4_rotated.json,http://54.235.29.9/FacialAge/BNav_EC2/DepthDuration/v2_depth_duration_MTurk/v2_DepthDuration_HTML.html#139,139,1364,625,1364,768,8-30-2022,7-53-19,33,depth_duration_stimuli/002103_2014-06-25_20-00-40_260595134347_rgbf000049-resize_0/002103_2014-06-25_20-00-40_260595134347_rgbf000049-resize_0-target.png,1000,4.105,5,3575,1000,feet,jsons/v1_VE1000_randls_4_rotated.json,996435,1137151,26,Woman
33,757697,DepthScenes,duration_manipulation_targetAtFixation,jsons/v1_VE1000_randls_4_rotated.json,http://54.235.29.9/FacialAge/BNav_EC2/DepthDuration/v2_depth_duration_MTurk/v2_DepthDuration_HTML.html#139,139,1364,625,1364,768,8-30-2022,7-53-19,34,depth_duration_stimuli/002039_2014-06-24_20-22-38_260595134347_rgbf000084-resize_1/002039_2014-06-24_20-22-38_260595134347_rgbf000084-resize_1-target.png,1000,4.408,6,4050,997,feet,jsons/v1_VE1000_randls_4_rotated.json,996435,1137151,26,Woman
34,757697,DepthScenes,duration_manipulation_targetAtFixation,jsons/v1_VE1000_randls_4_rotated.json,http://54.235.29.9/FacialAge/BNav_EC2/DepthDuration/v2_depth_duration_MTurk/v2_DepthDuration_HTML.html#139,139,1364,625,1364,768,8-30-2022,7-53-19,35,depth_duration_stimuli/002467_2014-06-28_20-38-07_260595134347_rgbf000026-resize_2/002467_2014-06-28_20-38-07_260595134347_rgbf000026-resize_2-target.png,1000,4.742,3,3634,1011,feet,jsons/v1_VE1000_randls_4_rotated.json,996435,1137151,26,Woman
35,757697,DepthScenes,duration_manipulation_targetAtFixation,jsons/v1_VE1000_randls_4_rotated.json,http://54.235.29.9/FacialAge/BNav_EC2/DepthDuration/v2_depth_duration_MTurk/v2_DepthDuration_HTML.html#139,139,1364,625,1364,768,8-30-2022,7-53-19,36,depth_duration_stimuli/002570_2014-06-24_13-59-54_094959634447_rgbf000059-resize_0/002570_2014-06-24_13-59-54_094959634447_rgbf000059-resize_0-target.png,1000,4.037,2,3611,999,feet,jsons/v1_VE1000_randls_4_rotated.json,996435,1137151,26,Woman
36,757697,DepthScenes,duration_manipulation_targetAtFixation,jsons/v1_VE1000_randls_4_rotated.json,http://54.235.29.9/FacialAge/BNav_EC2/DepthDuration/v2_depth_duration_MTurk/v2_DepthDuration_HTML.html#139,139,1364,625,1364,768,8-30-2022,7-53-19,37,depth_duration_stimuli/000109_2014-05-14_23-41-52_260595134347_rgbf000035-resize_9/000109_2014-05-14_23-41-52_260595134347_rgbf000035-resize_9-target.png,1000,1.3545,1,3431,996,feet,jsons/v1_VE1000_randls_4_rotated.json,996435,1137151,26,Woman
37,757697,DepthScenes,duration_manipulation_targetAtFixation,jsons/v1_VE1000_randls_4_rotated.json,http://54.235.29.9/FacialAge/BNav_EC2/DepthDuration/v2_depth_duration_MTurk/v2_DepthDuration_HTML.html#139,139,1364,625,1364,768,8-30-2022,7-53-19,38,depth_duration_stimuli/000470_2014-06-09_19-42-40_260595134347_rgbf000094-resize_1/000470_2014-06-09_19-42-40_260595134347_rgbf000094-resize_1-target.png,1000,1.831,2,4221,1008,feet,jsons/v1_VE1000_randls_4_rotated.json,996435,1137151,26,Woman
38,757697,DepthScenes,duration_manipulation_targetAtFixation,jsons/v1_VE1000_randls_4_rotated.json,http://54.235.29.9/FacialAge/BNav_EC2/DepthDuration/v2_depth_duration_MTurk/v2_DepthDuration_HTML.html#139,139,1364,625,1364,768,8-30-2022,7-53-19,39,depth_duration_stimuli/000749_2014-06-08_21-55-06_260595134347_rgbf000070-resize_2/000749_2014-06-08_21-55-06_260595134347_rgbf000070-resize_2-target.png,1000,2.331,1,3695,986,feet,jsons/v1_VE1000_randls_4_rotated.json,996435,1137151,26,Woman
39,757697,DepthScenes,duration_manipulation_targetAtFixation,jsons/v1_VE1000_randls_4_rotated.json,http://54.235.29.9/FacialAge/BNav_EC2/DepthDuration/v2_depth_duration_MTurk/v2_DepthDuration_HTML.html#139,139,1364,625,1364,768,8-30-2022,7-53-19,40,depth_duration_stimuli/002788_2014-06-22_19-36-03_094959634447_rgbf000088-resize_2/002788_2014-06-22_19-36-03_094959634447_rgbf000088-resize_2-target.png,1000,1.6465,4,3912,998,feet,jsons/v1_VE1000_randls_4_rotated.json,996435,1137151,26,Woman
40,757697,DepthScenes,duration_manipulation_targetAtFixation,jsons/v1_VE1000_randls_4_rotated.json,http://54.235.29.9/FacialAge/BNav_EC2/DepthDuration/v2_depth_duration_MTurk/v2_DepthDuration_HTML.html#139,139,1364,625,1364,768,8-30-2022,7-53-19,41,depth_duration_stimuli/002414_2014-06-28_20-24-58_260595134347_rgbf000067-resize_4/002414_2014-06-28_20-24-58_260595134347_rgbf000067-resize_4-target.png,1000,4.363,5,4070,997,feet,jsons/v1_VE1000_randls_4_rotated.json,996435,1137151,26,Woman
41,757697,DepthScenes,duration_manipulation_targetAtFixation,jsons/v1_VE1000_randls_4_rotated.json,http://54.235.29.9/FacialAge/BNav_EC2/DepthDuration/v2_depth_duration_MTurk/v2_DepthDuration_HTML.html#139,139,1364,625,1364,768,8-30-2022,7-53-19,42,depth_duration_stimuli/000773_2014-06-08_22-24-54_260595134347_rgbf000093-resize_1/000773_2014-06-08_22-24-54_260595134347_rgbf000093-resize_1-target.png,1000,4.973,5,3445,1007,feet,jsons/v1_VE1000_randls_4_rotated.json,996435,1137151,26,Woman
42,757697,DepthScenes,duration_manipulation_targetAtFixation,jsons/v1_VE1000_randls_4_rotated.json,http://54.235.29.9/FacialAge/BNav_EC2/DepthDuration/v2_depth_duration_MTurk/v2_DepthDuration_HTML.html#139,139,1364,625,1364,768,8-30-2022,7-53-19,43,depth_duration_stimuli/000457_2014-06-08_16-52-43_260595134347_rgbf000199-resize_1/000457_2014-06-08_16-52-43_260595134347_rgbf000199-resize_1-target.png,1000,3.6489999999999996,3,3859,1003,feet,jsons/v1_VE1000_randls_4_rotated.json,996435,1137151,26,Woman
43,757697,DepthScenes,duration_manipulation_targetAtFixation,jsons/v1_VE1000_randls_4_rotated.json,http://54.235.29.9/FacialAge/BNav_EC2/DepthDuration/v2_depth_duration_MTurk/v2_DepthDuration_HTML.html#139,139,1364,625,1364,768,8-30-2022,7-53-19,44,depth_duration_stimuli/000929_2014-06-09_16-33-19_260595134347_rgbf000139-resize_0/000929_2014-06-09_16-33-19_260595134347_rgbf000139-resize_0-target.png,1000,2.8680000000000003,1,3970,998,feet,jsons/v1_VE1000_randls_4_rotated.json,996435,1137151,26,Woman
44,757697,DepthScenes,duration_manipulation_targetAtFixation,jsons/v1_VE1000_randls_4_rotated.json,http://54.235.29.9/FacialAge/BNav_EC2/DepthDuration/v2_depth_duration_MTurk/v2_DepthDuration_HTML.html#139,139,1364,625,1364,768,8-30-2022,7-53-19,45,depth_duration_stimuli/001214_2014-06-17_16-13-55_260595134347_rgbf000111-resize_0/001214_2014-06-17_16-13-55_260595134347_rgbf000111-resize_0-target.png,1000,2.6505,2,4392,998,feet,jsons/v1_VE1000_randls_4_rotated.json,996435,1137151,26,Woman
45,757697,DepthScenes,duration_manipulation_targetAtFixation,jsons/v1_VE1000_randls_4_rotated.json,http://54.235.29.9/FacialAge/BNav_EC2/DepthDuration/v2_depth_duration_MTurk/v2_DepthDuration_HTML.html#139,139,1364,625,1364,768,8-30-2022,7-53-19,46,depth_duration_stimuli/000810_2014-06-08_17-20-01_260595134347_rgbf000105-resize_0/000810_2014-06-08_17-20-01_260595134347_rgbf000105-resize_0-target.png,1000,1.4865,3,4464,1002,feet,jsons/v1_VE1000_randls_4_rotated.json,996435,1137151,26,Woman
46,757697,DepthScenes,duration_manipulation_targetAtFixation,jsons/v1_VE1000_randls_4_rotated.json,http://54.235.29.9/FacialAge/BNav_EC2/DepthDuration/v2_depth_duration_MTurk/v2_DepthDuration_HTML.html#139,139,1364,625,1364,768,8-30-2022,7-53-19,47,depth_duration_stimuli/001052_2014-06-08_18-24-54_260595134347_rgbf000130-resize_1/001052_2014-06-08_18-24-54_260595134347_rgbf000130-resize_1-target.png,1000,4.1045,6,4889,1001,feet,jsons/v1_VE1000_randls_4_rotated.json,996435,1137151,26,Woman
47,757697,DepthScenes,duration_manipulation_targetAtFixation,jsons/v1_VE1000_randls_4_rotated.json,http://54.235.29.9/FacialAge/BNav_EC2/DepthDuration/v2_depth_duration_MTurk/v2_DepthDuration_HTML.html#139,139,1364,625,1364,768,8-30-2022,7-53-19,48,depth_duration_stimuli/002988_2014-06-15_12-24-20_094959634447_rgbf000150-resize_1/002988_2014-06-15_12-24-20_094959634447_rgbf000150-resize_1-target.png,1000,4.7669999999999995,8,4707,1001,feet,jsons/v1_VE1000_randls_4_rotated.json,996435,1137151,26,Woman
48,757697,DepthScenes,duration_manipulation_targetAtFixation,jsons/v1_VE1000_randls_4_rotated.json,http://54.235.29.9/FacialAge/BNav_EC2/DepthDuration/v2_depth_duration_MTurk/v2_DepthDuration_HTML.html#139,139,1364,625,1364,768,8-30-2022,7-53-19,49,depth_duration_stimuli/001170_2014-06-17_15-43-44_260595134347_rgbf000096-resize_6/001170_2014-06-17_15-43-44_260595134347_rgbf000096-resize-original.jpg,1000,1.1909999999999998,0,4921,1005,feet,jsons/v1_VE1000_randls_4_rotated.json,996435,1137151,26,Woman
49,757697,DepthScenes,duration_manipulation_targetAtFixation,jsons/v1_VE1000_randls_4_rotated.json,http://54.235.29.9/FacialAge/BNav_EC2/DepthDuration/v2_depth_duration_MTurk/v2_DepthDuration_HTML.html#139,139,1364,625,1364,768,8-30-2022,7-53-19,50,depth_duration_stimuli/002323_2014-06-28_20-01-54_260595134347_rgbf000051-resize_4/002323_2014-06-28_20-01-54_260595134347_rgbf000051-resize_4-target.png,1000,3.7310000000000003,2,5255,996,feet,jsons/v1_VE1000_randls_4_rotated.json,996435,1137151,26,Woman
50,757697,DepthScenes,duration_manipulation_targetAtFixation,jsons/v1_VE1000_randls_4_rotated.json,http://54.235.29.9/FacialAge/BNav_EC2/DepthDuration/v2_depth_duration_MTurk/v2_DepthDuration_HTML.html#139,139,1364,625,1364,768,8-30-2022,7-53-19,51,depth_duration_stimuli/000917_2014-06-09_22-45-29_260595134347_rgbf000149-resize_3/000917_2014-06-09_22-45-29_260595134347_rgbf000149-resize_3-target.png,1000,4.1865,5,4587,1008,feet,jsons/v1_VE1000_randls_4_rotated.json,996435,1137151,26,Woman
51,757697,DepthScenes,duration_manipulation_targetAtFixation,jsons/v1_VE1000_randls_4_rotated.json,http://54.235.29.9/FacialAge/BNav_EC2/DepthDuration/v2_depth_duration_MTurk/v2_DepthDuration_HTML.html#139,139,1364,625,1364,768,8-30-2022,7-53-19,52,depth_duration_stimuli/003587_2014-05-23_16-48-02_094959634447_rgbf002384-resize_2/003587_2014-05-23_16-48-02_094959634447_rgbf002384-resize_2-target.png,1000,1.357,2,5681,1000,feet,jsons/v1_VE1000_randls_4_rotated.json,996435,1137151,26,Woman
52,757697,DepthScenes,duration_manipulation_targetAtFixation,jsons/v1_VE1000_randls_4_rotated.json,http://54.235.29.9/FacialAge/BNav_EC2/DepthDuration/v2_depth_duration_MTurk/v2_DepthDuration_HTML.html#139,139,1364,625,1364,768,8-30-2022,7-53-19,53,depth_duration_stimuli/001167_2014-06-17_15-38-07_260595134347_rgbf000108-resize_0/001167_2014-06-17_15-38-07_260595134347_rgbf000108-resize_0-target.png,1000,1.8505,3,4534,1013,feet,jsons/v1_VE1000_randls_4_rotated.json,996435,1137151,26,Woman
53,757697,DepthScenes,duration_manipulation_targetAtFixation,jsons/v1_VE1000_randls_4_rotated.json,http://54.235.29.9/FacialAge/BNav_EC2/DepthDuration/v2_depth_duration_MTurk/v2_DepthDuration_HTML.html#139,139,1364,625,1364,768,8-30-2022,7-53-19,54,depth_duration_stimuli/003490_2014-05-21_15-50-11_094959634447_rgbf000101-resize_3/003490_2014-05-21_15-50-11_094959634447_rgbf000101-resize_3-target.png,1000,3.6445,6,4475,1003,feet,jsons/v1_VE1000_randls_4_rotated.json,996435,1137151,26,Woman
54,757697,DepthScenes,duration_manipulation_targetAtFixation,jsons/v1_VE1000_randls_4_rotated.json,http://54.235.29.9/FacialAge/BNav_EC2/DepthDuration/v2_depth_duration_MTurk/v2_DepthDuration_HTML.html#139,139,1364,625,1364,768,8-30-2022,7-53-19,55,depth_duration_stimuli/001175_2014-06-17_15-45-55_260595134347_rgbf000129-resize_4/001175_2014-06-17_15-45-55_260595134347_rgbf000129-resize_4-target.png,1000,4.255,5,4389,1001,feet,jsons/v1_VE1000_randls_4_rotated.json,996435,1137151,26,Woman
55,757697,DepthScenes,duration_manipulation_targetAtFixation,jsons/v1_VE1000_randls_4_rotated.json,http://54.235.29.9/FacialAge/BNav_EC2/DepthDuration/v2_depth_duration_MTurk/v2_DepthDuration_HTML.html#139,139,1364,625,1364,768,8-30-2022,7-53-19,56,depth_duration_stimuli/001617_2014-06-20_11-35-32_260595134347_rgbf000066-resize_1/001617_2014-06-20_11-35-32_260595134347_rgbf000066-resize_1-target.png,1000,3.7910000000000004,3,4089,1008,feet,jsons/v1_VE1000_randls_4_rotated.json,996435,1137151,26,Woman
56,757697,DepthScenes,duration_manipulation_targetAtFixation,jsons/v1_VE1000_randls_4_rotated.json,http://54.235.29.9/FacialAge/BNav_EC2/DepthDuration/v2_depth_duration_MTurk/v2_DepthDuration_HTML.html#139,139,1364,625,1364,768,8-30-2022,7-53-19,57,depth_duration_stimuli/001806_2014-06-26_20-50-20_260595134347_rgbf000091-resize_1/001806_2014-06-26_20-50-20_260595134347_rgbf000091-resize_1-target.png,1000,2.7305,2,3905,999,feet,jsons/v1_VE1000_randls_4_rotated.json,996435,1137151,26,Woman
57,757697,DepthScenes,duration_manipulation_targetAtFixation,jsons/v1_VE1000_randls_4_rotated.json,http://54.235.29.9/FacialAge/BNav_EC2/DepthDuration/v2_depth_duration_MTurk/v2_DepthDuration_HTML.html#139,139,1364,625,1364,768,8-30-2022,7-53-19,58,depth_duration_stimuli/002545_2014-06-24_13-38-53_094959634447_rgbf000080-resize_4/002545_2014-06-24_13-38-53_094959634447_rgbf000080-resize_4-target.png,1000,1.9205,3,5428,1002,feet,jsons/v1_VE1000_randls_4_rotated.json,996435,1137151,26,Woman
58,757697,DepthScenes,duration_manipulation_targetAtFixation,jsons/v1_VE1000_randls_4_rotated.json,http://54.235.29.9/FacialAge/BNav_EC2/DepthDuration/v2_depth_duration_MTurk/v2_DepthDuration_HTML.html#139,139,1364,625,1364,768,8-30-2022,7-53-19,59,depth_duration_stimuli/001092_2014-06-15_17-34-58_260595134347_rgbf000171-resize_3/001092_2014-06-15_17-34-58_260595134347_rgbf000171-resize_3-target.png,1000,2.6935,2,3635,1006,feet,jsons/v1_VE1000_randls_4_rotated.json,996435,1137151,26,Woman
59,757697,DepthScenes,duration_manipulation_targetAtFixation,jsons/v1_VE1000_randls_4_rotated.json,http://54.235.29.9/FacialAge/BNav_EC2/DepthDuration/v2_depth_duration_MTurk/v2_DepthDuration_HTML.html#139,139,1364,625,1364,768,8-30-2022,7-53-19,60,depth_duration_stimuli/001815_2014-06-26_20-52-55_260595134347_rgbf000020-resize_0/001815_2014-06-26_20-52-55_260595134347_rgbf000020-resize_0-target.png,1000,3.3865,6,4043,1000,feet,jsons/v1_VE1000_randls_4_rotated.json,996435,1137151,26,Woman
60,757697,DepthScenes,duration_manipulation_targetAtFixation,jsons/v1_VE1000_randls_4_rotated.json,http://54.235.29.9/FacialAge/BNav_EC2/DepthDuration/v2_depth_duration_MTurk/v2_DepthDuration_HTML.html#139,139,1364,625,1364,768,8-30-2022,7-53-19,61,depth_duration_stimuli/001808_2014-06-26_20-50-58_260595134347_rgbf000029-resize_1/001808_2014-06-26_20-50-58_260595134347_rgbf000029-resize_1-target.png,1000,4.249,8,3594,999,feet,jsons/v1_VE1000_randls_4_rotated.json,996435,1137151,26,Woman
61,757697,DepthScenes,duration_manipulation_targetAtFixation,jsons/v1_VE1000_randls_4_rotated.json,http://54.235.29.9/FacialAge/BNav_EC2/DepthDuration/v2_depth_duration_MTurk/v2_DepthDuration_HTML.html#139,139,1364,625,1364,768,8-30-2022,7-53-19,62,depth_duration_stimuli/000549_2014-06-08_22-10-24_260595134347_rgbf000247-resize_3/000549_2014-06-08_22-10-24_260595134347_rgbf000247-resize_3-target.png,1000,1.841,2,4378,1011,feet,jsons/v1_VE1000_randls_4_rotated.json,996435,1137151,26,Woman
62,757697,DepthScenes,duration_manipulation_targetAtFixation,jsons/v1_VE1000_randls_4_rotated.json,http://54.235.29.9/FacialAge/BNav_EC2/DepthDuration/v2_depth_duration_MTurk/v2_DepthDuration_HTML.html#139,139,1364,625,1364,768,8-30-2022,7-53-19,63,depth_duration_stimuli/001055_2014-06-08_18-45-35_260595134347_rgbf000111-resize_4/001055_2014-06-08_18-45-35_260595134347_rgbf000111-resize_4-target.png,1000,2.4290000000000003,5,3600,995,feet,jsons/v1_VE1000_randls_4_rotated.json,996435,1137151,26,Woman
63,757697,DepthScenes,duration_manipulation_targetAtFixation,jsons/v1_VE1000_randls_4_rotated.json,http://54.235.29.9/FacialAge/BNav_EC2/DepthDuration/v2_depth_duration_MTurk/v2_DepthDuration_HTML.html#139,139,1364,625,1364,768,8-30-2022,7-53-19,64,depth_duration_stimuli/000677_2014-06-08_23-10-32_260595134347_rgbf000158-resize_6/000677_2014-06-08_23-10-32_260595134347_rgbf000158-resize_6-target.png,1000,3.556,6,3760,991,feet,jsons/v1_VE1000_randls_4_rotated.json,996435,1137151,26,Woman
64,757697,DepthScenes,duration_manipulation_targetAtFixation,jsons/v1_VE1000_randls_4_rotated.json,http://54.235.29.9/FacialAge/BNav_EC2/DepthDuration/v2_depth_duration_MTurk/v2_DepthDuration_HTML.html#139,139,1364,625,1364,768,8-30-2022,7-53-19,65,depth_duration_stimuli/001029_2014-06-08_13-17-57_260595134347_rgbf000065-resize_1/001029_2014-06-08_13-17-57_260595134347_rgbf000065-resize_1-target.png,1000,3.0835,3,3493,1005,feet,jsons/v1_VE1000_randls_4_rotated.json,996435,1137151,26,Woman
65,757697,DepthScenes,duration_manipulation_targetAtFixation,jsons/v1_VE1000_randls_4_rotated.json,http://54.235.29.9/FacialAge/BNav_EC2/DepthDuration/v2_depth_duration_MTurk/v2_DepthDuration_HTML.html#139,139,1364,625,1364,768,8-30-2022,7-53-19,66,depth_duration_stimuli/001540_2014-06-20_17-01-05_260595134347_rgbf000086-resize_2/001540_2014-06-20_17-01-05_260595134347_rgbf000086-resize-original.jpg,1000,1.459,0,3982,999,feet,jsons/v1_VE1000_randls_4_rotated.json,996435,1137151,26,Woman
66,757697,DepthScenes,duration_manipulation_targetAtFixation,jsons/v1_VE1000_randls_4_rotated.json,http://54.235.29.9/FacialAge/BNav_EC2/DepthDuration/v2_depth_duration_MTurk/v2_DepthDuration_HTML.html#139,139,1364,625,1364,768,8-30-2022,7-53-19,67,depth_duration_stimuli/000409_2014-06-04_19-23-33_260595134347_rgbf000067-resize_0/000409_2014-06-04_19-23-33_260595134347_rgbf000067-resize_0-target.png,1000,3.7335,3,3992,1016,feet,jsons/v1_VE1000_randls_4_rotated.json,996435,1137151,26,Woman
67,757697,DepthScenes,duration_manipulation_targetAtFixation,jsons/v1_VE1000_randls_4_rotated.json,http://54.235.29.9/FacialAge/BNav_EC2/DepthDuration/v2_depth_duration_MTurk/v2_DepthDuration_HTML.html#139,139,1364,625,1364,768,8-30-2022,7-53-19,68,depth_duration_stimuli/002663_2014-06-13_15-50-26_094959634447_rgbf000075-resize_1/002663_2014-06-13_15-50-26_094959634447_rgbf000075-resize_1-target.png,1000,4.7495,8,3927,1009,feet,jsons/v1_VE1000_randls_4_rotated.json,996435,1137151,26,Woman
68,757697,DepthScenes,duration_manipulation_targetAtFixation,jsons/v1_VE1000_randls_4_rotated.json,http://54.235.29.9/FacialAge/BNav_EC2/DepthDuration/v2_depth_duration_MTurk/v2_DepthDuration_HTML.html#139,139,1364,625,1364,768,8-30-2022,7-53-19,69,depth_duration_stimuli/003081_2014-06-15_15-19-16_094959634447_rgbf000150-resize_1/003081_2014-06-15_15-19-16_094959634447_rgbf000150-resize_1-target.png,1000,3.9125,6,4207,1010,feet,jsons/v1_VE1000_randls_4_rotated.json,996435,1137151,26,Woman
69,757697,DepthScenes,duration_manipulation_targetAtFixation,jsons/v1_VE1000_randls_4_rotated.json,http://54.235.29.9/FacialAge/BNav_EC2/DepthDuration/v2_depth_duration_MTurk/v2_DepthDuration_HTML.html#139,139,1364,625,1364,768,8-30-2022,7-53-19,70,depth_duration_stimuli/001417_2014-06-19_16-25-36_260595134347_rgbf000115-resize_5/001417_2014-06-19_16-25-36_260595134347_rgbf000115-resize_5-target.png,1000,4.6255,3,3666,1000,feet,jsons/v1_VE1000_randls_4_rotated.json,996435,1137151,26,Woman
70,757697,DepthScenes,duration_manipulation_targetAtFixation,jsons/v1_VE1000_randls_4_rotated.json,http://54.235.29.9/FacialAge/BNav_EC2/DepthDuration/v2_depth_duration_MTurk/v2_DepthDuration_HTML.html#139,139,1364,625,1364,768,8-30-2022,7-53-19,71,depth_duration_stimuli/002425_2014-06-28_20-27-29_260595134347_rgbf000031-resize_8/002425_2014-06-28_20-27-29_260595134347_rgbf000031-resize_8-target.png,1000,3.8960000000000004,6,3640,998,feet,jsons/v1_VE1000_randls_4_rotated.json,996435,1137151,26,Woman
71,757697,DepthScenes,duration_manipulation_targetAtFixation,jsons/v1_VE1000_randls_4_rotated.json,http://54.235.29.9/FacialAge/BNav_EC2/DepthDuration/v2_depth_duration_MTurk/v2_DepthDuration_HTML.html#139,139,1364,625,1364,768,8-30-2022,7-53-19,72,depth_duration_stimuli/000642_2014-06-08_16-59-25_260595134347_rgbf000098-resize_2/000642_2014-06-08_16-59-25_260595134347_rgbf000098-resize_2-target.png,1000,2.8815,2,3606,1012,feet,jsons/v1_VE1000_randls_4_rotated.json,996435,1137151,26,Woman
72,757697,DepthScenes,duration_manipulation_targetAtFixation,jsons/v1_VE1000_randls_4_rotated.json,http://54.235.29.9/FacialAge/BNav_EC2/DepthDuration/v2_depth_duration_MTurk/v2_DepthDuration_HTML.html#139,139,1364,625,1364,768,8-30-2022,7-53-19,73,depth_duration_stimuli/000502_2014-06-08_23-02-32_260595134347_rgbf000063-resize_4/000502_2014-06-08_23-02-32_260595134347_rgbf000063-resize_4-target.png,1000,2.431,5,4942,1004,feet,jsons/v1_VE1000_randls_4_rotated.json,996435,1137151,26,Woman
73,757697,DepthScenes,duration_manipulation_targetAtFixation,jsons/v1_VE1000_randls_4_rotated.json,http://54.235.29.9/FacialAge/BNav_EC2/DepthDuration/v2_depth_duration_MTurk/v2_DepthDuration_HTML.html#139,139,1364,625,1364,768,8-30-2022,7-53-19,74,depth_duration_stimuli/001199_2014-06-17_16-03-48_260595134347_rgbf000077-resize_0/001199_2014-06-17_16-03-48_260595134347_rgbf000077-resize_0-target.png,1000,3.4375,5,4459,1016,feet,jsons/v1_VE1000_randls_4_rotated.json,996435,1137151,26,Woman
74,757697,DepthScenes,duration_manipulation_targetAtFixation,jsons/v1_VE1000_randls_4_rotated.json,http://54.235.29.9/FacialAge/BNav_EC2/DepthDuration/v2_depth_duration_MTurk/v2_DepthDuration_HTML.html#139,139,1364,625,1364,768,8-30-2022,7-53-19,75,depth_duration_stimuli/000780_2014-06-08_22-28-29_260595134347_rgbf000126-resize_1/000780_2014-06-08_22-28-29_260595134347_rgbf000126-resize_1-target.png,1000,3.3825,5,6190,1008,feet,jsons/v1_VE1000_randls_4_rotated.json,996435,1137151,26,Woman
75,757697,DepthScenes,duration_manipulation_targetAtFixation,jsons/v1_VE1000_randls_4_rotated.json,http://54.235.29.9/FacialAge/BNav_EC2/DepthDuration/v2_depth_duration_MTurk/v2_DepthDuration_HTML.html#139,139,1364,625,1364,768,8-30-2022,7-53-19,76,depth_duration_stimuli/002445_2014-06-28_20-32-16_260595134347_rgbf000029-resize_4/002445_2014-06-28_20-32-16_260595134347_rgbf000029-resize_4-target.png,1000,2.5315,3,4024,988,feet,jsons/v1_VE1000_randls_4_rotated.json,996435,1137151,26,Woman
76,757697,DepthScenes,duration_manipulation_targetAtFixation,jsons/v1_VE1000_randls_4_rotated.json,http://54.235.29.9/FacialAge/BNav_EC2/DepthDuration/v2_depth_duration_MTurk/v2_DepthDuration_HTML.html#139,139,1364,625,1364,768,8-30-2022,7-53-19,77,depth_duration_stimuli/002805_2014-06-22_19-54-03_094959634447_rgbf000079-resize_1/002805_2014-06-22_19-54-03_094959634447_rgbf000079-resize_1-target.png,1000,3.1439999999999997,8,4033,1006,feet,jsons/v1_VE1000_randls_4_rotated.json,996435,1137151,26,Woman
77,757697,DepthScenes,duration_manipulation_targetAtFixation,jsons/v1_VE1000_randls_4_rotated.json,http://54.235.29.9/FacialAge/BNav_EC2/DepthDuration/v2_depth_duration_MTurk/v2_DepthDuration_HTML.html#139,139,1364,625,1364,768,8-30-2022,7-53-19,78,depth_duration_stimuli/000906_2014-06-08_13-35-43_260595134347_rgbf000155-resize_1/000906_2014-06-08_13-35-43_260595134347_rgbf000155-resize_1-target.png,1000,2.8489999999999998,5,66083,1001,feet,jsons/v1_VE1000_randls_4_rotated.json,996435,1137151,26,Woman
78,757697,DepthScenes,duration_manipulation_targetAtFixation,jsons/v1_VE1000_randls_4_rotated.json,http://54.235.29.9/FacialAge/BNav_EC2/DepthDuration/v2_depth_duration_MTurk/v2_DepthDuration_HTML.html#139,139,1364,625,1364,768,8-30-2022,7-53-19,79,depth_duration_stimuli/002199_2014-06-28_18-33-56_260595134347_rgbf000074-resize_0/002199_2014-06-28_18-33-56_260595134347_rgbf000074-resize_0-target.png,1000,1.996,2,3704,997,feet,jsons/v1_VE1000_randls_4_rotated.json,996435,1137151,26,Woman
79,757697,DepthScenes,duration_manipulation_targetAtFixation,jsons/v1_VE1000_randls_4_rotated.json,http://54.235.29.9/FacialAge/BNav_EC2/DepthDuration/v2_depth_duration_MTurk/v2_DepthDuration_HTML.html#139,139,1364,625,1364,768,8-30-2022,7-53-19,80,depth_duration_stimuli/001056_2014-06-08_18-46-44_260595134347_rgbf000068-resize_0/001056_2014-06-08_18-46-44_260595134347_rgbf000068-resize_0-target.png,1000,2.6625,5,4888,1010,feet,jsons/v1_VE1000_randls_4_rotated.json,996435,1137151,26,Woman
80,757697,DepthScenes,duration_manipulation_targetAtFixation,jsons/v1_VE1000_randls_4_rotated.json,http://54.235.29.9/FacialAge/BNav_EC2/DepthDuration/v2_depth_duration_MTurk/v2_DepthDuration_HTML.html#139,139,1364,625,1364,768,8-30-2022,7-53-19,81,depth_duration_stimuli/000483_2014-06-09_20-41-45_260595134347_rgbf000116-resize_4/000483_2014-06-09_20-41-45_260595134347_rgbf000116-resize_4-target.png,1000,1.337,2,4014,1007,feet,jsons/v1_VE1000_randls_4_rotated.json,996435,1137151,26,Woman
81,757697,DepthScenes,duration_manipulation_targetAtFixation,jsons/v1_VE1000_randls_4_rotated.json,http://54.235.29.9/FacialAge/BNav_EC2/DepthDuration/v2_depth_duration_MTurk/v2_DepthDuration_HTML.html#139,139,1364,625,1364,768,8-30-2022,7-53-19,82,depth_duration_stimuli/000469_2014-06-09_19-42-10_260595134347_rgbf000081-resize_1/000469_2014-06-09_19-42-10_260595134347_rgbf000081-resize_1-target.png,1000,1.652,3,3553,998,feet,jsons/v1_VE1000_randls_4_rotated.json,996435,1137151,26,Woman
82,757697,DepthScenes,duration_manipulation_targetAtFixation,jsons/v1_VE1000_randls_4_rotated.json,http://54.235.29.9/FacialAge/BNav_EC2/DepthDuration/v2_depth_duration_MTurk/v2_DepthDuration_HTML.html#139,139,1364,625,1364,768,8-30-2022,7-53-19,83,depth_duration_stimuli/003495_2014-05-21_16-01-51_094959634447_rgbf000100-resize_3/003495_2014-05-21_16-01-51_094959634447_rgbf000100-resize_3-target.png,1000,1.6255,3,3598,1000,feet,jsons/v1_VE1000_randls_4_rotated.json,996435,1137151,26,Woman
83,757697,DepthScenes,duration_manipulation_targetAtFixation,jsons/v1_VE1000_randls_4_rotated.json,http://54.235.29.9/FacialAge/BNav_EC2/DepthDuration/v2_depth_duration_MTurk/v2_DepthDuration_HTML.html#139,139,1364,625,1364,768,8-30-2022,7-53-19,84,depth_duration_stimuli/001244_2014-06-17_16-47-45_260595134347_rgbf000030-resize_4/001244_2014-06-17_16-47-45_260595134347_rgbf000030-resize_4-target.png,1000,2.0425,1,3798,998,feet,jsons/v1_VE1000_randls_4_rotated.json,996435,1137151,26,Woman
84,757697,DepthScenes,duration_manipulation_targetAtFixation,jsons/v1_VE1000_randls_4_rotated.json,http://54.235.29.9/FacialAge/BNav_EC2/DepthDuration/v2_depth_duration_MTurk/v2_DepthDuration_HTML.html#139,139,1364,625,1364,768,8-30-2022,7-53-19,85,depth_duration_stimuli/000691_2014-06-08_13-08-50_260595134347_rgbf000132-resize_3/000691_2014-06-08_13-08-50_260595134347_rgbf000132-resize_3-target.png,1000,4.1530000000000005,8,3968,1005,feet,jsons/v1_VE1000_randls_4_rotated.json,996435,1137151,26,Woman
85,757697,DepthScenes,duration_manipulation_targetAtFixation,jsons/v1_VE1000_randls_4_rotated.json,http://54.235.29.9/FacialAge/BNav_EC2/DepthDuration/v2_depth_duration_MTurk/v2_DepthDuration_HTML.html#139,139,1364,625,1364,768,8-30-2022,7-53-19,86,depth_duration_stimuli/002213_2014-06-28_18-37-58_260595134347_rgbf000055-resize_1/002213_2014-06-28_18-37-58_260595134347_rgbf000055-resize_1-target.png,1000,3.62,7,4182,1000,feet,jsons/v1_VE1000_randls_4_rotated.json,996435,1137151,26,Woman
86,757697,DepthScenes,duration_manipulation_targetAtFixation,jsons/v1_VE1000_randls_4_rotated.json,http://54.235.29.9/FacialAge/BNav_EC2/DepthDuration/v2_depth_duration_MTurk/v2_DepthDuration_HTML.html#139,139,1364,625,1364,768,8-30-2022,7-53-19,87,depth_duration_stimuli/001447_2014-06-19_17-00-32_260595134347_rgbf000082-resize_5/001447_2014-06-19_17-00-32_260595134347_rgbf000082-resize_5-target.png,1000,4.13775,6,4513,994,feet,jsons/v1_VE1000_randls_4_rotated.json,996435,1137151,26,Woman
87,757697,DepthScenes,duration_manipulation_targetAtFixation,jsons/v1_VE1000_randls_4_rotated.json,http://54.235.29.9/FacialAge/BNav_EC2/DepthDuration/v2_depth_duration_MTurk/v2_DepthDuration_HTML.html#139,139,1364,625,1364,768,8-30-2022,7-53-19,88,depth_duration_stimuli/000447_2014-06-08_16-15-46_260595134347_rgbf000130-resize_1/000447_2014-06-08_16-15-46_260595134347_rgbf000130-resize_1-target.png,1000,4.479,7,3650,1006,feet,jsons/v1_VE1000_randls_4_rotated.json,996435,1137151,26,Woman
88,757697,DepthScenes,duration_manipulation_targetAtFixation,jsons/v1_VE1000_randls_4_rotated.json,http://54.235.29.9/FacialAge/BNav_EC2/DepthDuration/v2_depth_duration_MTurk/v2_DepthDuration_HTML.html#139,139,1364,625,1364,768,8-30-2022,7-53-19,89,depth_duration_stimuli/002209_2014-06-28_18-36-10_260595134347_rgbf000051-resize_1/002209_2014-06-28_18-36-10_260595134347_rgbf000051-resize_1-target.png,1000,2.057,3,4178,986,feet,jsons/v1_VE1000_randls_4_rotated.json,996435,1137151,26,Woman
89,757697,DepthScenes,duration_manipulation_targetAtFixation,jsons/v1_VE1000_randls_4_rotated.json,http://54.235.29.9/FacialAge/BNav_EC2/DepthDuration/v2_depth_duration_MTurk/v2_DepthDuration_HTML.html#139,139,1364,625,1364,768,8-30-2022,7-53-19,90,depth_duration_stimuli/002763_2014-06-22_19-13-10_094959634447_rgbf000075-resize_4/002763_2014-06-22_19-13-10_094959634447_rgbf000075-resize_4-target.png,1000,1.68375,2,3940,996,feet,jsons/v1_VE1000_randls_4_rotated.json,996435,1137151,26,Woman
90,757697,DepthScenes,duration_manipulation_targetAtFixation,jsons/v1_VE1000_randls_4_rotated.json,http://54.235.29.9/FacialAge/BNav_EC2/DepthDuration/v2_depth_duration_MTurk/v2_DepthDuration_HTML.html#139,139,1364,625,1364,768,8-30-2022,7-53-19,91,depth_duration_stimuli/002637_2014-06-24_14-51-13_094959634447_rgbf000066-resize_4/002637_2014-06-24_14-51-13_094959634447_rgbf000066-resize_4-target.png,1000,1.9955,3,5495,1011,feet,jsons/v1_VE1000_randls_4_rotated.json,996435,1137151,26,Woman
91,757697,DepthScenes,duration_manipulation_targetAtFixation,jsons/v1_VE1000_randls_4_rotated.json,http://54.235.29.9/FacialAge/BNav_EC2/DepthDuration/v2_depth_duration_MTurk/v2_DepthDuration_HTML.html#139,139,1364,625,1364,768,8-30-2022,7-53-19,92,depth_duration_stimuli/003534_2014-05-22_15-06-10_094959634447_rgbf000102-resize_4/003534_2014-05-22_15-06-10_094959634447_rgbf000102-resize_4-target.png,1000,1.426,2,3885,1001,feet,jsons/v1_VE1000_randls_4_rotated.json,996435,1137151,26,Woman
92,757697,DepthScenes,duration_manipulation_targetAtFixation,jsons/v1_VE1000_randls_4_rotated.json,http://54.235.29.9/FacialAge/BNav_EC2/DepthDuration/v2_depth_duration_MTurk/v2_DepthDuration_HTML.html#139,139,1364,625,1364,768,8-30-2022,7-53-19,93,depth_duration_stimuli/001828_2014-06-26_21-40-03_260595134347_rgbf000024-resize_0/001828_2014-06-26_21-40-03_260595134347_rgbf000024-resize_0-target.png,1000,4.8260000000000005,6,4348,997,feet,jsons/v1_VE1000_randls_4_rotated.json,996435,1137151,26,Woman
93,757697,DepthScenes,duration_manipulation_targetAtFixation,jsons/v1_VE1000_randls_4_rotated.json,http://54.235.29.9/FacialAge/BNav_EC2/DepthDuration/v2_depth_duration_MTurk/v2_DepthDuration_HTML.html#139,139,1364,625,1364,768,8-30-2022,7-53-19,94,depth_duration_stimuli/000009_2014-05-26_14-32-05_260595134347_rgbf000034-resize_3/000009_2014-05-26_14-32-05_260595134347_rgbf000034-resize_3-target.png,1000,3.8715,8,3760,997,feet,jsons/v1_VE1000_randls_4_rotated.json,996435,1137151,26,Woman
94,757697,DepthScenes,duration_manipulation_targetAtFixation,jsons/v1_VE1000_randls_4_rotated.json,http://54.235.29.9/FacialAge/BNav_EC2/DepthDuration/v2_depth_duration_MTurk/v2_DepthDuration_HTML.html#139,139,1364,625,1364,768,8-30-2022,7-53-19,95,depth_duration_stimuli/000635_2014-06-08_16-38-42_260595134347_rgbf000106-resize_1/000635_2014-06-08_16-38-42_260595134347_rgbf000106-resize_1-target.png,1000,2.074,3,4224,1001,feet,jsons/v1_VE1000_randls_4_rotated.json,996435,1137151,26,Woman
95,757697,DepthScenes,duration_manipulation_targetAtFixation,jsons/v1_VE1000_randls_4_rotated.json,http://54.235.29.9/FacialAge/BNav_EC2/DepthDuration/v2_depth_duration_MTurk/v2_DepthDuration_HTML.html#139,139,1364,625,1364,768,8-30-2022,7-53-19,96,depth_duration_stimuli/002279_2014-06-28_18-55-32_260595134347_rgbf000040-resize_5/002279_2014-06-28_18-55-32_260595134347_rgbf000040-resize_5-target.png,1000,1.5043333333333,2,4077,989,feet,jsons/v1_VE1000_randls_4_rotated.json,996435,1137151,26,Woman
96,757697,DepthScenes,duration_manipulation_targetAtFixation,jsons/v1_VE1000_randls_4_rotated.json,http://54.235.29.9/FacialAge/BNav_EC2/DepthDuration/v2_depth_duration_MTurk/v2_DepthDuration_HTML.html#139,139,1364,625,1364,768,8-30-2022,7-53-19,97,depth_duration_stimuli/000943_2014-06-09_19-31-07_260595134347_rgbf000128-resize_1/000943_2014-06-09_19-31-07_260595134347_rgbf000128-resize_1-target.png,1000,1.9765,3,3518,999,feet,jsons/v1_VE1000_randls_4_rotated.json,996435,1137151,26,Woman
97,757697,DepthScenes,duration_manipulation_targetAtFixation,jsons/v1_VE1000_randls_4_rotated.json,http://54.235.29.9/FacialAge/BNav_EC2/DepthDuration/v2_depth_duration_MTurk/v2_DepthDuration_HTML.html#139,139,1364,625,1364,768,8-30-2022,7-53-19,98,depth_duration_stimuli/003070_2014-06-15_14-58-27_094959634447_rgbf000150-resize_3/003070_2014-06-15_14-58-27_094959634447_rgbf000150-resize_3-target.png,1000,2.9415,4,3499,989,feet,jsons/v1_VE1000_randls_4_rotated.json,996435,1137151,26,Woman
98,757697,DepthScenes,duration_manipulation_targetAtFixation,jsons/v1_VE1000_randls_4_rotated.json,http://54.235.29.9/FacialAge/BNav_EC2/DepthDuration/v2_depth_duration_MTurk/v2_DepthDuration_HTML.html#139,139,1364,625,1364,768,8-30-2022,7-53-19,99,depth_duration_stimuli/001222_2014-06-17_16-24-06_260595134347_rgbf000073-resize_0/001222_2014-06-17_16-24-06_260595134347_rgbf000073-resize-original.jpg,1000,1.4385,0,4046,1000,feet,jsons/v1_VE1000_randls_4_rotated.json,996435,1137151,26,Woman
99,757697,DepthScenes,duration_manipulation_targetAtFixation,jsons/v1_VE1000_randls_4_rotated.json,http://54.235.29.9/FacialAge/BNav_EC2/DepthDuration/v2_depth_duration_MTurk/v2_DepthDuration_HTML.html#139,139,1364,625,1364,768,8-30-2022,7-53-19,100,depth_duration_stimuli/002444_2014-06-28_20-32-08_260595134347_rgbf000027-resize_0/002444_2014-06-28_20-32-08_260595134347_rgbf000027-resize_0-target.png,1000,4.388999999999999,5,3600,999,feet,jsons/v1_VE1000_randls_4_rotated.json,996435,1137151,26,Woman
100,757697,DepthScenes,duration_manipulation_targetAtFixation,jsons/v1_VE1000_randls_4_rotated.json,http://54.235.29.9/FacialAge/BNav_EC2/DepthDuration/v2_depth_duration_MTurk/v2_DepthDuration_HTML.html#139,139,1364,625,1364,768,8-30-2022,7-53-19,101,depth_duration_stimuli/000436_2014-06-09_22-25-11_260595134347_rgbf000137-resize_1/000436_2014-06-09_22-25-11_260595134347_rgbf000137-resize_1-target.png,1000,4.0705,7,3978,999,feet,jsons/v1_VE1000_randls_4_rotated.json,996435,1137151,26,Woman
101,757697,DepthScenes,duration_manipulation_targetAtFixation,jsons/v1_VE1000_randls_4_rotated.json,http://54.235.29.9/FacialAge/BNav_EC2/DepthDuration/v2_depth_duration_MTurk/v2_DepthDuration_HTML.html#139,139,1364,625,1364,768,8-30-2022,7-53-19,102,depth_duration_stimuli/003423_2014-05-21_10-23-26_094959634447_rgbf002665-resize_2/003423_2014-05-21_10-23-26_094959634447_rgbf002665-resize_2-target.png,1000,3.2575,6,3699,1012,feet,jsons/v1_VE1000_randls_4_rotated.json,996435,1137151,26,Woman
102,757697,DepthScenes,duration_manipulation_targetAtFixation,jsons/v1_VE1000_randls_4_rotated.json,http://54.235.29.9/FacialAge/BNav_EC2/DepthDuration/v2_depth_duration_MTurk/v2_DepthDuration_HTML.html#139,139,1364,625,1364,768,8-30-2022,7-53-19,103,depth_duration_stimuli/002905_2014-06-03_18-04-43_094959634447_rgbf000151-resize_2/002905_2014-06-03_18-04-43_094959634447_rgbf000151-resize_2-target.png,1000,2.0295,4,3724,1000,feet,jsons/v1_VE1000_randls_4_rotated.json,996435,1137151,26,Woman
103,757697,DepthScenes,duration_manipulation_targetAtFixation,jsons/v1_VE1000_randls_4_rotated.json,http://54.235.29.9/FacialAge/BNav_EC2/DepthDuration/v2_depth_duration_MTurk/v2_DepthDuration_HTML.html#139,139,1364,625,1364,768,8-30-2022,7-53-19,104,depth_duration_stimuli/002995_2014-06-15_12-31-26_094959634447_rgbf000150-resize_1/002995_2014-06-15_12-31-26_094959634447_rgbf000150-resize_1-target.png,1000,3.8360000000000003,6,3774,999,feet,jsons/v1_VE1000_randls_4_rotated.json,996435,1137151,26,Woman
104,757697,DepthScenes,duration_manipulation_targetAtFixation,jsons/v1_VE1000_randls_4_rotated.json,http://54.235.29.9/FacialAge/BNav_EC2/DepthDuration/v2_depth_duration_MTurk/v2_DepthDuration_HTML.html#139,139,1364,625,1364,768,8-30-2022,7-53-19,105,depth_duration_stimuli/002748_2014-06-22_19-07-22_094959634447_rgbf000078-resize_1/002748_2014-06-22_19-07-22_094959634447_rgbf000078-resize_1-target.png,1000,4.6705,6,3657,999,feet,jsons/v1_VE1000_randls_4_rotated.json,996435,1137151,26,Woman
105,757697,DepthScenes,duration_manipulation_targetAtFixation,jsons/v1_VE1000_randls_4_rotated.json,http://54.235.29.9/FacialAge/BNav_EC2/DepthDuration/v2_depth_duration_MTurk/v2_DepthDuration_HTML.html#139,139,1364,625,1364,768,8-30-2022,7-53-19,106,depth_duration_stimuli/002953_2014-06-08_17-32-18_094959634447_rgbf000059-resize_5/002953_2014-06-08_17-32-18_094959634447_rgbf000059-resize_5-target.png,1000,1.551,2,3998,987,feet,jsons/v1_VE1000_randls_4_rotated.json,996435,1137151,26,Woman
106,757697,DepthScenes,duration_manipulation_targetAtFixation,jsons/v1_VE1000_randls_4_rotated.json,http://54.235.29.9/FacialAge/BNav_EC2/DepthDuration/v2_depth_duration_MTurk/v2_DepthDuration_HTML.html#139,139,1364,625,1364,768,8-30-2022,7-53-19,107,depth_duration_stimuli/000878_2014-06-08_22-52-45_260595134347_rgbf000045-resize_2/000878_2014-06-08_22-52-45_260595134347_rgbf000045-resize_2-target.png,1000,2.092,4,3793,1013,feet,jsons/v1_VE1000_randls_4_rotated.json,996435,1137151,26,Woman
107,757697,DepthScenes,duration_manipulation_targetAtFixation,jsons/v1_VE1000_randls_4_rotated.json,http://54.235.29.9/FacialAge/BNav_EC2/DepthDuration/v2_depth_duration_MTurk/v2_DepthDuration_HTML.html#139,139,1364,625,1364,768,8-30-2022,7-53-19,108,depth_duration_stimuli/002344_2014-06-28_20-06-29_260595134347_rgbf000030-resize_1/002344_2014-06-28_20-06-29_260595134347_rgbf000030-resize_1-target.png,1000,1.5795,3,3567,999,feet,jsons/v1_VE1000_randls_4_rotated.json,996435,1137151,26,Woman
108,757697,DepthScenes,duration_manipulation_targetAtFixation,jsons/v1_VE1000_randls_4_rotated.json,http://54.235.29.9/FacialAge/BNav_EC2/DepthDuration/v2_depth_duration_MTurk/v2_DepthDuration_HTML.html#139,139,1364,625,1364,768,8-30-2022,7-53-19,109,depth_duration_stimuli/002725_2014-06-22_11-47-51_094959634447_rgbf000070-resize_1/002725_2014-06-22_11-47-51_094959634447_rgbf000070-resize_1-target.png,1000,2.195,2,3988,994,feet,jsons/v1_VE1000_randls_4_rotated.json,996435,1137151,26,Woman
109,757697,DepthScenes,duration_manipulation_targetAtFixation,jsons/v1_VE1000_randls_4_rotated.json,http://54.235.29.9/FacialAge/BNav_EC2/DepthDuration/v2_depth_duration_MTurk/v2_DepthDuration_HTML.html#139,139,1364,625,1364,768,8-30-2022,7-53-19,110,depth_duration_stimuli/001650_2014-06-20_12-09-00_260595134347_rgbf000087-resize_3/001650_2014-06-20_12-09-00_260595134347_rgbf000087-resize_3-target.png,1000,1.9505,1,4068,998,feet,jsons/v1_VE1000_randls_4_rotated.json,996435,1137151,26,Woman
110,757697,DepthScenes,duration_manipulation_targetAtFixation,jsons/v1_VE1000_randls_4_rotated.json,http://54.235.29.9/FacialAge/BNav_EC2/DepthDuration/v2_depth_duration_MTurk/v2_DepthDuration_HTML.html#139,139,1364,625,1364,768,8-30-2022,7-53-19,111,depth_duration_stimuli/000682_2014-06-08_23-14-58_260595134347_rgbf000041-resize_5/000682_2014-06-08_23-14-58_260595134347_rgbf000041-resize_5-target.png,1000,2.7239999999999998,4,4583,1000,feet,jsons/v1_VE1000_randls_4_rotated.json,996435,1137151,26,Woman
111,757697,DepthScenes,duration_manipulation_targetAtFixation,jsons/v1_VE1000_randls_4_rotated.json,http://54.235.29.9/FacialAge/BNav_EC2/DepthDuration/v2_depth_duration_MTurk/v2_DepthDuration_HTML.html#139,139,1364,625,1364,768,8-30-2022,7-53-19,112,depth_duration_stimuli/001571_2014-06-20_17-21-32_260595134347_rgbf000089-resize_1/001571_2014-06-20_17-21-32_260595134347_rgbf000089-resize_1-target.png,1000,1.86,4,5441,999,feet,jsons/v1_VE1000_randls_4_rotated.json,996435,1137151,26,Woman
112,757697,DepthScenes,duration_manipulation_targetAtFixation,jsons/v1_VE1000_randls_4_rotated.json,http://54.235.29.9/FacialAge/BNav_EC2/DepthDuration/v2_depth_duration_MTurk/v2_DepthDuration_HTML.html#139,139,1364,625,1364,768,8-30-2022,7-53-19,113,depth_duration_stimuli/002272_2014-06-28_18-53-56_260595134347_rgbf000067-resize_2/002272_2014-06-28_18-53-56_260595134347_rgbf000067-resize_2-target.png,1000,1.138,1,3530,999,feet,jsons/v1_VE1000_randls_4_rotated.json,996435,1137151,26,Woman
113,757697,DepthScenes,duration_manipulation_targetAtFixation,jsons/v1_VE1000_randls_4_rotated.json,http://54.235.29.9/FacialAge/BNav_EC2/DepthDuration/v2_depth_duration_MTurk/v2_DepthDuration_HTML.html#139,139,1364,625,1364,768,8-30-2022,7-53-19,114,depth_duration_stimuli/002657_2014-06-13_15-29-54_094959634447_rgbf000150-resize_1/002657_2014-06-13_15-29-54_094959634447_rgbf000150-resize_1-target.png,1000,4.919,5,4351,1000,feet,jsons/v1_VE1000_randls_4_rotated.json,996435,1137151,26,Woman
114,757697,DepthScenes,duration_manipulation_targetAtFixation,jsons/v1_VE1000_randls_4_rotated.json,http://54.235.29.9/FacialAge/BNav_EC2/DepthDuration/v2_depth_duration_MTurk/v2_DepthDuration_HTML.html#139,139,1364,625,1364,768,8-30-2022,7-53-19,115,depth_duration_stimuli/002375_2014-06-28_20-13-44_260595134347_rgbf000032-resize_1/002375_2014-06-28_20-13-44_260595134347_rgbf000032-resize_1-target.png,1000,4.0175,3,4241,999,feet,jsons/v1_VE1000_randls_4_rotated.json,996435,1137151,26,Woman
115,757697,DepthScenes,duration_manipulation_targetAtFixation,jsons/v1_VE1000_randls_4_rotated.json,http://54.235.29.9/FacialAge/BNav_EC2/DepthDuration/v2_depth_duration_MTurk/v2_DepthDuration_HTML.html#139,139,1364,625,1364,768,8-30-2022,7-53-19,116,depth_duration_stimuli/003079_2014-06-15_15-18-20_094959634447_rgbf000152-resize_8/003079_2014-06-15_15-18-20_094959634447_rgbf000152-resize_8-target.png,1000,2.8775,4,5089,1012,feet,jsons/v1_VE1000_randls_4_rotated.json,996435,1137151,26,Woman
116,757697,DepthScenes,duration_manipulation_targetAtFixation,jsons/v1_VE1000_randls_4_rotated.json,http://54.235.29.9/FacialAge/BNav_EC2/DepthDuration/v2_depth_duration_MTurk/v2_DepthDuration_HTML.html#139,139,1364,625,1364,768,8-30-2022,7-53-19,117,depth_duration_stimuli/000506_2014-06-08_23-21-00_260595134347_rgbf000070-resize_7/000506_2014-06-08_23-21-00_260595134347_rgbf000070-resize_7-target.png,1000,4.0585,5,3722,999,feet,jsons/v1_VE1000_randls_4_rotated.json,996435,1137151,26,Woman
117,757697,DepthScenes,duration_manipulation_targetAtFixation,jsons/v1_VE1000_randls_4_rotated.json,http://54.235.29.9/FacialAge/BNav_EC2/DepthDuration/v2_depth_duration_MTurk/v2_DepthDuration_HTML.html#139,139,1364,625,1364,768,8-30-2022,7-53-19,118,depth_duration_stimuli/001094_2014-06-15_17-36-00_260595134347_rgbf000205-resize_0/001094_2014-06-15_17-36-00_260595134347_rgbf000205-resize_0-target.png,1000,4.2175,4,3867,998,feet,jsons/v1_VE1000_randls_4_rotated.json,996435,1137151,26,Woman
118,757697,DepthScenes,duration_manipulation_targetAtFixation,jsons/v1_VE1000_randls_4_rotated.json,http://54.235.29.9/FacialAge/BNav_EC2/DepthDuration/v2_depth_duration_MTurk/v2_DepthDuration_HTML.html#139,139,1364,625,1364,768,8-30-2022,7-53-19,119,depth_duration_stimuli/000692_2014-06-08_13-09-42_260595134347_rgbf000199-resize_2/000692_2014-06-08_13-09-42_260595134347_rgbf000199-resize_2-target.png,1000,3.661,5,3407,1001,feet,jsons/v1_VE1000_randls_4_rotated.json,996435,1137151,26,Woman
119,757697,DepthScenes,duration_manipulation_targetAtFixation,jsons/v1_VE1000_randls_4_rotated.json,http://54.235.29.9/FacialAge/BNav_EC2/DepthDuration/v2_depth_duration_MTurk/v2_DepthDuration_HTML.html#139,139,1364,625,1364,768,8-30-2022,7-53-19,120,depth_duration_stimuli/000787_2014-06-08_22-33-53_260595134347_rgbf000175-resize_1/000787_2014-06-08_22-33-53_260595134347_rgbf000175-resize-original.jpg,1000,4.784,0,6776,989,feet,jsons/v1_VE1000_randls_4_rotated.json,996435,1137151,26,Woman
120,757697,DepthScenes,duration_manipulation_targetAtFixation,jsons/v1_VE1000_randls_4_rotated.json,http://54.235.29.9/FacialAge/BNav_EC2/DepthDuration/v2_depth_duration_MTurk/v2_DepthDuration_HTML.html#139,139,1364,625,1364,768,8-30-2022,7-53-19,121,depth_duration_stimuli/001584_2014-06-20_11-07-43_260595134347_rgbf000002-resize_1/001584_2014-06-20_11-07-43_260595134347_rgbf000002-resize_1-target.png,1000,3.53,3,4959,998,feet,jsons/v1_VE1000_randls_4_rotated.json,996435,1137151,26,Woman
121,757697,DepthScenes,duration_manipulation_targetAtFixation,jsons/v1_VE1000_randls_4_rotated.json,http://54.235.29.9/FacialAge/BNav_EC2/DepthDuration/v2_depth_duration_MTurk/v2_DepthDuration_HTML.html#139,139,1364,625,1364,768,8-30-2022,7-53-19,122,depth_duration_stimuli/003621_2014-05-23_18-06-08_094959634447_rgbf000101-resize_1/003621_2014-05-23_18-06-08_094959634447_rgbf000101-resize_1-target.png,1000,3.9835,5,4020,991,feet,jsons/v1_VE1000_randls_4_rotated.json,996435,1137151,26,Woman
122,757697,DepthScenes,duration_manipulation_targetAtFixation,jsons/v1_VE1000_randls_4_rotated.json,http://54.235.29.9/FacialAge/BNav_EC2/DepthDuration/v2_depth_duration_MTurk/v2_DepthDuration_HTML.html#139,139,1364,625,1364,768,8-30-2022,7-53-19,123,depth_duration_stimuli/002340_2014-06-28_20-05-46_260595134347_rgbf000113-resize_0/002340_2014-06-28_20-05-46_260595134347_rgbf000113-resize_0-target.png,1000,2.4735,5,3564,998,feet,jsons/v1_VE1000_randls_4_rotated.json,996435,1137151,26,Woman
123,757697,DepthScenes,duration_manipulation_targetAtFixation,jsons/v1_VE1000_randls_4_rotated.json,http://54.235.29.9/FacialAge/BNav_EC2/DepthDuration/v2_depth_duration_MTurk/v2_DepthDuration_HTML.html#139,139,1364,625,1364,768,8-30-2022,7-53-19,124,depth_duration_stimuli/001016_2014-06-09_16-16-10_260595134347_rgbf000112-resize_5/001016_2014-06-09_16-16-10_260595134347_rgbf000112-resize_5-target.png,1000,1.6565,2,4287,1000,feet,jsons/v1_VE1000_randls_4_rotated.json,996435,1137151,26,Woman
124,757697,DepthScenes,duration_manipulation_targetAtFixation,jsons/v1_VE1000_randls_4_rotated.json,http://54.235.29.9/FacialAge/BNav_EC2/DepthDuration/v2_depth_duration_MTurk/v2_DepthDuration_HTML.html#139,139,1364,625,1364,768,8-30-2022,7-53-19,125,depth_duration_stimuli/000854_2014-06-09_19-43-13_260595134347_rgbf000066-resize_0/000854_2014-06-09_19-43-13_260595134347_rgbf000066-resize_0-target.png,1000,3.068,3,3869,1001,feet,jsons/v1_VE1000_randls_4_rotated.json,996435,1137151,26,Woman
125,757697,DepthScenes,duration_manipulation_targetAtFixation,jsons/v1_VE1000_randls_4_rotated.json,http://54.235.29.9/FacialAge/BNav_EC2/DepthDuration/v2_depth_duration_MTurk/v2_DepthDuration_HTML.html#139,139,1364,625,1364,768,8-30-2022,7-53-19,126,depth_duration_stimuli/000758_2014-06-08_22-05-08_260595134347_rgbf000085-resize_0/000758_2014-06-08_22-05-08_260595134347_rgbf000085-resize_0-target.png,1000,3.3810000000000002,2,3514,998,feet,jsons/v1_VE1000_randls_4_rotated.json,996435,1137151,26,Woman
126,757697,DepthScenes,duration_manipulation_targetAtFixation,jsons/v1_VE1000_randls_4_rotated.json,http://54.235.29.9/FacialAge/BNav_EC2/DepthDuration/v2_depth_duration_MTurk/v2_DepthDuration_HTML.html#139,139,1364,625,1364,768,8-30-2022,7-53-19,127,depth_duration_stimuli/001235_2014-06-17_16-37-36_260595134347_rgbf000084-resize_4/001235_2014-06-17_16-37-36_260595134347_rgbf000084-resize_4-target.png,1000,3.6605,3,3876,1015,feet,jsons/v1_VE1000_randls_4_rotated.json,996435,1137151,26,Woman
127,757697,DepthScenes,duration_manipulation_targetAtFixation,jsons/v1_VE1000_randls_4_rotated.json,http://54.235.29.9/FacialAge/BNav_EC2/DepthDuration/v2_depth_duration_MTurk/v2_DepthDuration_HTML.html#139,139,1364,625,1364,768,8-30-2022,7-53-19,128,depth_duration_stimuli/000788_2014-06-08_22-34-36_260595134347_rgbf000131-resize_1/000788_2014-06-08_22-34-36_260595134347_rgbf000131-resize_1-target.png,1000,3.359,3,3375,994,feet,jsons/v1_VE1000_randls_4_rotated.json,996435,1137151,26,Woman
128,757697,DepthScenes,duration_manipulation_targetAtFixation,jsons/v1_VE1000_randls_4_rotated.json,http://54.235.29.9/FacialAge/BNav_EC2/DepthDuration/v2_depth_duration_MTurk/v2_DepthDuration_HTML.html#139,139,1364,625,1364,768,8-30-2022,7-53-19,129,depth_duration_stimuli/002758_2014-06-22_19-11-20_094959634447_rgbf000128-resize_1/002758_2014-06-22_19-11-20_094959634447_rgbf000128-resize_1-target.png,1000,2.555,3,3375,985,feet,jsons/v1_VE1000_randls_4_rotated.json,996435,1137151,26,Woman
129,757697,DepthScenes,duration_manipulation_targetAtFixation,jsons/v1_VE1000_randls_4_rotated.json,http://54.235.29.9/FacialAge/BNav_EC2/DepthDuration/v2_depth_duration_MTurk/v2_DepthDuration_HTML.html#139,139,1364,625,1364,768,8-30-2022,7-53-19,130,depth_duration_stimuli/002630_2014-06-24_14-47-50_094959634447_rgbf000055-resize_1/002630_2014-06-24_14-47-50_094959634447_rgbf000055-resize_1-target.png,1000,3.0095,5,3727,1000,feet,jsons/v1_VE1000_randls_4_rotated.json,996435,1137151,26,Woman
130,757697,DepthScenes,duration_manipulation_targetAtFixation,jsons/v1_VE1000_randls_4_rotated.json,http://54.235.29.9/FacialAge/BNav_EC2/DepthDuration/v2_depth_duration_MTurk/v2_DepthDuration_HTML.html#139,139,1364,625,1364,768,8-30-2022,7-53-19,131,depth_duration_stimuli/003338_2014-05-20_11-01-23_094959634447_rgbf000051-resize_6/003338_2014-05-20_11-01-23_094959634447_rgbf000051-resize_6-target.png,1000,1.693,2,3705,997,feet,jsons/v1_VE1000_randls_4_rotated.json,996435,1137151,26,Woman
131,757697,DepthScenes,duration_manipulation_targetAtFixation,jsons/v1_VE1000_randls_4_rotated.json,http://54.235.29.9/FacialAge/BNav_EC2/DepthDuration/v2_depth_duration_MTurk/v2_DepthDuration_HTML.html#139,139,1364,625,1364,768,8-30-2022,7-53-19,132,depth_duration_stimuli/002509_2014-06-24_13-19-22_094959634447_rgbf000077-resize_0/002509_2014-06-24_13-19-22_094959634447_rgbf000077-resize_0-target.png,1000,1.3065,4,3639,993,feet,jsons/v1_VE1000_randls_4_rotated.json,996435,1137151,26,Woman
132,757697,DepthScenes,duration_manipulation_targetAtFixation,jsons/v1_VE1000_randls_4_rotated.json,http://54.235.29.9/FacialAge/BNav_EC2/DepthDuration/v2_depth_duration_MTurk/v2_DepthDuration_HTML.html#139,139,1364,625,1364,768,8-30-2022,7-53-19,133,depth_duration_stimuli/000709_2014-06-08_13-51-55_260595134347_rgbf000068-resize_3/000709_2014-06-08_13-51-55_260595134347_rgbf000068-resize_3-target.png,1000,1.8030000000000002,2,4635,1011,feet,jsons/v1_VE1000_randls_4_rotated.json,996435,1137151,26,Woman
133,757697,DepthScenes,duration_manipulation_targetAtFixation,jsons/v1_VE1000_randls_4_rotated.json,http://54.235.29.9/FacialAge/BNav_EC2/DepthDuration/v2_depth_duration_MTurk/v2_DepthDuration_HTML.html#139,139,1364,625,1364,768,8-30-2022,7-53-19,134,depth_duration_stimuli/002057_2014-06-24_21-00-13_260595134347_rgbf000120-resize_1/002057_2014-06-24_21-00-13_260595134347_rgbf000120-resize_1-target.png,1000,2.967,3,3446,997,feet,jsons/v1_VE1000_randls_4_rotated.json,996435,1137151,26,Woman
134,757697,DepthScenes,duration_manipulation_targetAtFixation,jsons/v1_VE1000_randls_4_rotated.json,http://54.235.29.9/FacialAge/BNav_EC2/DepthDuration/v2_depth_duration_MTurk/v2_DepthDuration_HTML.html#139,139,1364,625,1364,768,8-30-2022,7-53-19,135,depth_duration_stimuli/000375_2014-06-08_11-17-29_260595134347_rgbf000133-resize_2/000375_2014-06-08_11-17-29_260595134347_rgbf000133-resize-original.jpg,1000,4.718,5,3739,1000,feet,jsons/v1_VE1000_randls_4_rotated.json,996435,1137151,26,Woman
135,757697,DepthScenes,duration_manipulation_targetAtFixation,jsons/v1_VE1000_randls_4_rotated.json,http://54.235.29.9/FacialAge/BNav_EC2/DepthDuration/v2_depth_duration_MTurk/v2_DepthDuration_HTML.html#139,139,1364,625,1364,768,8-30-2022,7-53-19,136,depth_duration_stimuli/000665_2014-06-09_20-42-35_260595134347_rgbf000110-resize_1/000665_2014-06-09_20-42-35_260595134347_rgbf000110-resize_1-target.png,1000,3.057,4,3683,1008,feet,jsons/v1_VE1000_randls_4_rotated.json,996435,1137151,26,Woman
136,757697,DepthScenes,duration_manipulation_targetAtFixation,jsons/v1_VE1000_randls_4_rotated.json,http://54.235.29.9/FacialAge/BNav_EC2/DepthDuration/v2_depth_duration_MTurk/v2_DepthDuration_HTML.html#139,139,1364,625,1364,768,8-30-2022,7-53-19,137,depth_duration_stimuli/001150_2014-06-17_15-27-34_260595134347_rgbf000108-resize_2/001150_2014-06-17_15-27-34_260595134347_rgbf000108-resize_2-target.png,1000,4.0325,5,3397,987,feet,jsons/v1_VE1000_randls_4_rotated.json,996435,1137151,26,Woman
137,757697,DepthScenes,duration_manipulation_targetAtFixation,jsons/v1_VE1000_randls_4_rotated.json,http://54.235.29.9/FacialAge/BNav_EC2/DepthDuration/v2_depth_duration_MTurk/v2_DepthDuration_HTML.html#139,139,1364,625,1364,768,8-30-2022,7-53-19,138,depth_duration_stimuli/003083_2014-06-15_15-21-03_094959634447_rgbf000063-resize_1/003083_2014-06-15_15-21-03_094959634447_rgbf000063-resize_1-target.png,1000,4.1405,6,3910,992,feet,jsons/v1_VE1000_randls_4_rotated.json,996435,1137151,26,Woman
138,757697,DepthScenes,duration_manipulation_targetAtFixation,jsons/v1_VE1000_randls_4_rotated.json,http://54.235.29.9/FacialAge/BNav_EC2/DepthDuration/v2_depth_duration_MTurk/v2_DepthDuration_HTML.html#139,139,1364,625,1364,768,8-30-2022,7-53-19,139,depth_duration_stimuli/000486_2014-06-09_20-47-20_260595134347_rgbf000143-resize_2/000486_2014-06-09_20-47-20_260595134347_rgbf000143-resize_2-target.png,1000,4.8325,3,3759,1000,feet,jsons/v1_VE1000_randls_4_rotated.json,996435,1137151,26,Woman
139,757697,DepthScenes,duration_manipulation_targetAtFixation,jsons/v1_VE1000_randls_4_rotated.json,http://54.235.29.9/FacialAge/BNav_EC2/DepthDuration/v2_depth_duration_MTurk/v2_DepthDuration_HTML.html#139,139,1364,625,1364,768,8-30-2022,7-53-19,140,depth_duration_stimuli/000556_2014-06-09_22-42-56_260595134347_rgbf000214-resize_1/000556_2014-06-09_22-42-56_260595134347_rgbf000214-resize_1-target.png,1000,4.8415,3,4743,995,feet,jsons/v1_VE1000_randls_4_rotated.json,996435,1137151,26,Woman
140,757697,DepthScenes,duration_manipulation_targetAtFixation,jsons/v1_VE1000_randls_4_rotated.json,http://54.235.29.9/FacialAge/BNav_EC2/DepthDuration/v2_depth_duration_MTurk/v2_DepthDuration_HTML.html#139,139,1364,625,1364,768,8-30-2022,7-53-19,141,depth_duration_stimuli/001158_2014-06-17_15-32-16_260595134347_rgbf000138-resize_2/001158_2014-06-17_15-32-16_260595134347_rgbf000138-resize_2-target.png,1000,4.5315,4,3473,1000,feet,jsons/v1_VE1000_randls_4_rotated.json,996435,1137151,26,Woman
141,757697,DepthScenes,duration_manipulation_targetAtFixation,jsons/v1_VE1000_randls_4_rotated.json,http://54.235.29.9/FacialAge/BNav_EC2/DepthDuration/v2_depth_duration_MTurk/v2_DepthDuration_HTML.html#139,139,1364,625,1364,768,8-30-2022,7-53-19,142,depth_duration_stimuli/001516_2014-06-20_16-25-09_260595134347_rgbf000076-resize_2/001516_2014-06-20_16-25-09_260595134347_rgbf000076-resize_2-target.png,1000,1.7445,5,4580,1000,feet,jsons/v1_VE1000_randls_4_rotated.json,996435,1137151,26,Woman
142,757697,DepthScenes,duration_manipulation_targetAtFixation,jsons/v1_VE1000_randls_4_rotated.json,http://54.235.29.9/FacialAge/BNav_EC2/DepthDuration/v2_depth_duration_MTurk/v2_DepthDuration_HTML.html#139,139,1364,625,1364,768,8-30-2022,7-53-19,143,depth_duration_stimuli/002118_2014-06-25_20-32-08_260595134347_rgbf000078-resize_1/002118_2014-06-25_20-32-08_260595134347_rgbf000078-resize_1-target.png,1000,2.6460000000000004,1,3635,1000,feet,jsons/v1_VE1000_randls_4_rotated.json,996435,1137151,26,Woman
143,757697,DepthScenes,duration_manipulation_targetAtFixation,jsons/v1_VE1000_randls_4_rotated.json,http://54.235.29.9/FacialAge/BNav_EC2/DepthDuration/v2_depth_duration_MTurk/v2_DepthDuration_HTML.html#139,139,1364,625,1364,768,8-30-2022,7-53-19,144,depth_duration_stimuli/002136_2014-06-25_21-18-03_260595134347_rgbf000109-resize_3/002136_2014-06-25_21-18-03_260595134347_rgbf000109-resize_3-target.png,1000,1.9569999999999999,2,4270,998,feet,jsons/v1_VE1000_randls_4_rotated.json,996435,1137151,26,Woman
144,757697,DepthScenes,duration_manipulation_targetAtFixation,jsons/v1_VE1000_randls_4_rotated.json,http://54.235.29.9/FacialAge/BNav_EC2/DepthDuration/v2_depth_duration_MTurk/v2_DepthDuration_HTML.html#139,139,1364,625,1364,768,8-30-2022,7-53-19,145,depth_duration_stimuli/002964_2014-06-08_17-46-11_094959634447_rgbf000091-resize_4/002964_2014-06-08_17-46-11_094959634447_rgbf000091-resize_4-target.png,1000,1.6909999999999998,3,3800,1011,feet,jsons/v1_VE1000_randls_4_rotated.json,996435,1137151,26,Woman
145,757697,DepthScenes,duration_manipulation_targetAtFixation,jsons/v1_VE1000_randls_4_rotated.json,http://54.235.29.9/FacialAge/BNav_EC2/DepthDuration/v2_depth_duration_MTurk/v2_DepthDuration_HTML.html#139,139,1364,625,1364,768,8-30-2022,7-53-19,146,depth_duration_stimuli/001392_2014-06-19_16-07-59_260595134347_rgbf000046-resize_1/001392_2014-06-19_16-07-59_260595134347_rgbf000046-resize_1-target.png,1000,4.135,4,4144,994,feet,jsons/v1_VE1000_randls_4_rotated.json,996435,1137151,26,Woman
146,757697,DepthScenes,duration_manipulation_targetAtFixation,jsons/v1_VE1000_randls_4_rotated.json,http://54.235.29.9/FacialAge/BNav_EC2/DepthDuration/v2_depth_duration_MTurk/v2_DepthDuration_HTML.html#139,139,1364,625,1364,768,8-30-2022,7-53-19,147,depth_duration_stimuli/001570_2014-06-20_17-21-09_260595134347_rgbf000135-resize_4/001570_2014-06-20_17-21-09_260595134347_rgbf000135-resize_4-target.png,1000,4.467,6,4175,989,feet,jsons/v1_VE1000_randls_4_rotated.json,996435,1137151,26,Woman
147,757697,DepthScenes,duration_manipulation_targetAtFixation,jsons/v1_VE1000_randls_4_rotated.json,http://54.235.29.9/FacialAge/BNav_EC2/DepthDuration/v2_depth_duration_MTurk/v2_DepthDuration_HTML.html#139,139,1364,625,1364,768,8-30-2022,7-53-19,148,depth_duration_stimuli/001132_2014-06-17_14-48-54_260595134347_rgbf000100-resize_2/001132_2014-06-17_14-48-54_260595134347_rgbf000100-resize_2-target.png,1000,3.753,6,4079,1000,feet,jsons/v1_VE1000_randls_4_rotated.json,996435,1137151,26,Woman
148,757697,DepthScenes,duration_manipulation_targetAtFixation,jsons/v1_VE1000_randls_4_rotated.json,http://54.235.29.9/FacialAge/BNav_EC2/DepthDuration/v2_depth_duration_MTurk/v2_DepthDuration_HTML.html#139,139,1364,625,1364,768,8-30-2022,7-53-19,149,depth_duration_stimuli/001133_2014-06-17_14-49-16_260595134347_rgbf000100-resize_0/001133_2014-06-17_14-49-16_260595134347_rgbf000100-resize_0-target.png,1000,4.2115,5,3863,987,feet,jsons/v1_VE1000_randls_4_rotated.json,996435,1137151,26,Woman
149,757697,DepthScenes,duration_manipulation_targetAtFixation,jsons/v1_VE1000_randls_4_rotated.json,http://54.235.29.9/FacialAge/BNav_EC2/DepthDuration/v2_depth_duration_MTurk/v2_DepthDuration_HTML.html#139,139,1364,625,1364,768,8-30-2022,7-53-19,150,depth_duration_stimuli/003129_2014-05-12_10-48-10_094959634447_rgbf000100-resize_0/003129_2014-05-12_10-48-10_094959634447_rgbf000100-resize_0-target.png,1000,4.9305,4,3623,999,feet,jsons/v1_VE1000_randls_4_rotated.json,996435,1137151,26,Woman
150,757697,DepthScenes,duration_manipulation_targetAtFixation,jsons/v1_VE1000_randls_4_rotated.json,http://54.235.29.9/FacialAge/BNav_EC2/DepthDuration/v2_depth_duration_MTurk/v2_DepthDuration_HTML.html#139,139,1364,625,1364,768,8-30-2022,7-53-19,151,depth_duration_stimuli/000414_2014-06-04_19-49-13_260595134347_rgbf000044-resize_0/000414_2014-06-04_19-49-13_260595134347_rgbf000044-resize_0-target.png,1000,4.329,6,3989,1001,feet,jsons/v1_VE1000_randls_4_rotated.json,996435,1137151,26,Woman
151,757697,DepthScenes,duration_manipulation_targetAtFixation,jsons/v1_VE1000_randls_4_rotated.json,http://54.235.29.9/FacialAge/BNav_EC2/DepthDuration/v2_depth_duration_MTurk/v2_DepthDuration_HTML.html#139,139,1364,625,1364,768,8-30-2022,7-53-19,152,depth_duration_stimuli/000569_2014-06-09_22-51-47_260595134347_rgbf000141-resize_3/000569_2014-06-09_22-51-47_260595134347_rgbf000141-resize-original.jpg,1000,4.512,0,3769,1010,feet,jsons/v1_VE1000_randls_4_rotated.json,996435,1137151,26,Woman
152,757697,DepthScenes,duration_manipulation_targetAtFixation,jsons/v1_VE1000_randls_4_rotated.json,http://54.235.29.9/FacialAge/BNav_EC2/DepthDuration/v2_depth_duration_MTurk/v2_DepthDuration_HTML.html#139,139,1364,625,1364,768,8-30-2022,7-53-19,153,depth_duration_stimuli/001136_2014-06-17_15-19-41_260595134347_rgbf000076-resize_3/001136_2014-06-17_15-19-41_260595134347_rgbf000076-resize_3-target.png,1000,1.8655,4,4709,1000,feet,jsons/v1_VE1000_randls_4_rotated.json,996435,1137151,26,Woman
153,757697,DepthScenes,duration_manipulation_targetAtFixation,jsons/v1_VE1000_randls_4_rotated.json,http://54.235.29.9/FacialAge/BNav_EC2/DepthDuration/v2_depth_duration_MTurk/v2_DepthDuration_HTML.html#139,139,1364,625,1364,768,8-30-2022,7-53-19,154,depth_duration_stimuli/001164_2014-06-17_15-35-46_260595134347_rgbf000085-resize_3/001164_2014-06-17_15-35-46_260595134347_rgbf000085-resize_3-target.png,1000,2.354,6,3595,999,feet,jsons/v1_VE1000_randls_4_rotated.json,996435,1137151,26,Woman
154,757697,DepthScenes,duration_manipulation_targetAtFixation,jsons/v1_VE1000_randls_4_rotated.json,http://54.235.29.9/FacialAge/BNav_EC2/DepthDuration/v2_depth_duration_MTurk/v2_DepthDuration_HTML.html#139,139,1364,625,1364,768,8-30-2022,7-53-19,155,depth_duration_stimuli/000734_2014-06-08_17-39-11_260595134347_rgbf000128-resize_2/000734_2014-06-08_17-39-11_260595134347_rgbf000128-resize_2-target.png,1000,4.098,3,4219,986,feet,jsons/v1_VE1000_randls_4_rotated.json,996435,1137151,26,Woman
155,757697,DepthScenes,duration_manipulation_targetAtFixation,jsons/v1_VE1000_randls_4_rotated.json,http://54.235.29.9/FacialAge/BNav_EC2/DepthDuration/v2_depth_duration_MTurk/v2_DepthDuration_HTML.html#139,139,1364,625,1364,768,8-30-2022,7-53-19,156,depth_duration_stimuli/000739_2014-06-08_18-45-58_260595134347_rgbf000068-resize_1/000739_2014-06-08_18-45-58_260595134347_rgbf000068-resize_1-target.png,1000,3.534,4,4168,1014,feet,jsons/v1_VE1000_randls_4_rotated.json,996435,1137151,26,Woman
156,757697,DepthScenes,duration_manipulation_targetAtFixation,jsons/v1_VE1000_randls_4_rotated.json,http://54.235.29.9/FacialAge/BNav_EC2/DepthDuration/v2_depth_duration_MTurk/v2_DepthDuration_HTML.html#139,139,1364,625,1364,768,8-30-2022,7-53-19,157,depth_duration_stimuli/003228_2014-05-14_13-42-35_094959634447_rgbf000101-resize_1/003228_2014-05-14_13-42-35_094959634447_rgbf000101-resize_1-target.png,1000,1.9680000000000002,5,4413,1000,feet,jsons/v1_VE1000_randls_4_rotated.json,996435,1137151,26,Woman
157,757697,DepthScenes,duration_manipulation_targetAtFixation,jsons/v1_VE1000_randls_4_rotated.json,http://54.235.29.9/FacialAge/BNav_EC2/DepthDuration/v2_depth_duration_MTurk/v2_DepthDuration_HTML.html#139,139,1364,625,1364,768,8-30-2022,7-53-19,158,depth_duration_stimuli/002600_2014-06-24_14-27-04_094959634447_rgbf000074-resize_2/002600_2014-06-24_14-27-04_094959634447_rgbf000074-resize_2-target.png,1000,2.7575,3,3859,1005,feet,jsons/v1_VE1000_randls_4_rotated.json,996435,1137151,26,Woman
158,757697,DepthScenes,duration_manipulation_targetAtFixation,jsons/v1_VE1000_randls_4_rotated.json,http://54.235.29.9/FacialAge/BNav_EC2/DepthDuration/v2_depth_duration_MTurk/v2_DepthDuration_HTML.html#139,139,1364,625,1364,768,8-30-2022,7-53-19,159,depth_duration_stimuli/000137_2014-05-20_17-04-49_260595134347_rgbf000120-resize_1/000137_2014-05-20_17-04-49_260595134347_rgbf000120-resize_1-target.png,1000,3.786,4,4418,1004,feet,jsons/v1_VE1000_randls_4_rotated.json,996435,1137151,26,Woman
159,757697,DepthScenes,duration_manipulation_targetAtFixation,jsons/v1_VE1000_randls_4_rotated.json,http://54.235.29.9/FacialAge/BNav_EC2/DepthDuration/v2_depth_duration_MTurk/v2_DepthDuration_HTML.html#139,139,1364,625,1364,768,8-30-2022,7-53-19,160,depth_duration_stimuli/000736_2014-06-08_18-24-15_260595134347_rgbf000206-resize_3/000736_2014-06-08_18-24-15_260595134347_rgbf000206-resize_3-target.png,1000,3.515,1,3852,995,feet,jsons/v1_VE1000_randls_4_rotated.json,996435,1137151,26,Woman
160,757697,DepthScenes,duration_manipulation_targetAtFixation,jsons/v1_VE1000_randls_4_rotated.json,http://54.235.29.9/FacialAge/BNav_EC2/DepthDuration/v2_depth_duration_MTurk/v2_DepthDuration_HTML.html#139,139,1364,625,1364,768,8-30-2022,7-53-19,161,depth_duration_stimuli/002875_2014-06-01_15-19-00_094959634447_rgbf000151-resize_1/002875_2014-06-01_15-19-00_094959634447_rgbf000151-resize_1-target.png,1000,1.9675,2,4462,1000,feet,jsons/v1_VE1000_randls_4_rotated.json,996435,1137151,26,Woman
161,757697,DepthScenes,duration_manipulation_targetAtFixation,jsons/v1_VE1000_randls_4_rotated.json,http://54.235.29.9/FacialAge/BNav_EC2/DepthDuration/v2_depth_duration_MTurk/v2_DepthDuration_HTML.html#139,139,1364,625,1364,768,8-30-2022,7-53-19,162,depth_duration_stimuli/001011_2014-06-08_23-18-54_260595134347_rgbf000044-resize_4/001011_2014-06-08_23-18-54_260595134347_rgbf000044-resize_4-target.png,1000,2.4730000000000003,3,3854,996,feet,jsons/v1_VE1000_randls_4_rotated.json,996435,1137151,26,Woman
162,757697,DepthScenes,duration_manipulation_targetAtFixation,jsons/v1_VE1000_randls_4_rotated.json,http://54.235.29.9/FacialAge/BNav_EC2/DepthDuration/v2_depth_duration_MTurk/v2_DepthDuration_HTML.html#139,139,1364,625,1364,768,8-30-2022,7-53-19,163,depth_duration_stimuli/000866_2014-06-09_20-45-42_260595134347_rgbf000139-resize_1/000866_2014-06-09_20-45-42_260595134347_rgbf000139-resize_1-target.png,1000,3.2155,4,4081,1000,feet,jsons/v1_VE1000_randls_4_rotated.json,996435,1137151,26,Woman
163,757697,DepthScenes,duration_manipulation_targetAtFixation,jsons/v1_VE1000_randls_4_rotated.json,http://54.235.29.9/FacialAge/BNav_EC2/DepthDuration/v2_depth_duration_MTurk/v2_DepthDuration_HTML.html#139,139,1364,625,1364,768,8-30-2022,7-53-19,164,depth_duration_stimuli/002989_2014-06-15_12-25-03_094959634447_rgbf000150-resize_3/002989_2014-06-15_12-25-03_094959634447_rgbf000150-resize_3-target.png,1000,4.1975,8,4124,993,feet,jsons/v1_VE1000_randls_4_rotated.json,996435,1137151,26,Woman
