,subjID,experimentName,versionName,sequenceName,url,selected_row,windowWidth,windowHeight,screenWidth,screenHeight,startDate,startTime,trial,stimulus,duration,actual_depth,depth_estimate,trial_RT,log_sceneDuration,unitSelection,seq_filepath,experimentTime,totalTime,age,gender
0,762610,DepthScenes,duration_manipulation_targetAtFixation,jsons/VE125_randls_58.json,http://54.235.29.9/FacialAge/BNav_EC2/DepthDuration/v2_depth_duration_MTurk/v2_DepthDuration_HTML.html#15,15,1366,768,1366,768,8-21-2022,9-36-4,1,depth_duration_stimuli/001029_2014-06-08_13-17-57_260595134347_rgbf000065-resize_1/001029_2014-06-08_13-17-57_260595134347_rgbf000065-resize_1-target.png,125,3.0835,7,6258,123,feet,jsons/VE125_randls_58.json,700828,1058059,40,Man
1,762610,DepthScenes,duration_manipulation_targetAtFixation,jsons/VE125_randls_58.json,http://54.235.29.9/FacialAge/BNav_EC2/DepthDuration/v2_depth_duration_MTurk/v2_DepthDuration_HTML.html#15,15,1366,768,1366,768,8-21-2022,9-36-4,2,depth_duration_stimuli/000677_2014-06-08_23-10-32_260595134347_rgbf000158-resize_6/000677_2014-06-08_23-10-32_260595134347_rgbf000158-resize_6-target.png,125,3.556,6,7151,122,feet,jsons/VE125_randls_58.json,700828,1058059,40,Man
2,762610,DepthScenes,duration_manipulation_targetAtFixation,jsons/VE125_randls_58.json,http://54.235.29.9/FacialAge/BNav_EC2/DepthDuration/v2_depth_duration_MTurk/v2_DepthDuration_HTML.html#15,15,1366,768,1366,768,8-21-2022,9-36-4,3,depth_duration_stimuli/000682_2014-06-08_23-14-58_260595134347_rgbf000041-resize_5/000682_2014-06-08_23-14-58_260595134347_rgbf000041-resize_5-target.png,125,2.7239999999999998,11,9342,119,feet,jsons/VE125_randls_58.json,700828,1058059,40,Man
3,762610,DepthScenes,duration_manipulation_targetAtFixation,jsons/VE125_randls_58.json,http://54.235.29.9/FacialAge/BNav_EC2/DepthDuration/v2_depth_duration_MTurk/v2_DepthDuration_HTML.html#15,15,1366,768,1366,768,8-21-2022,9-36-4,4,depth_duration_stimuli/001650_2014-06-20_12-09-00_260595134347_rgbf000087-resize_3/001650_2014-06-20_12-09-00_260595134347_rgbf000087-resize_3-target.png,125,1.9505,7,5174,119,feet,jsons/VE125_randls_58.json,700828,1058059,40,Man
4,762610,DepthScenes,duration_manipulation_targetAtFixation,jsons/VE125_randls_58.json,http://54.235.29.9/FacialAge/BNav_EC2/DepthDuration/v2_depth_duration_MTurk/v2_DepthDuration_HTML.html#15,15,1366,768,1366,768,8-21-2022,9-36-4,5,depth_duration_stimuli/002213_2014-06-28_18-37-58_260595134347_rgbf000055-resize_1/002213_2014-06-28_18-37-58_260595134347_rgbf000055-resize_1-target.png,125,3.62,7,8146,122,feet,jsons/VE125_randls_58.json,700828,1058059,40,Man
5,762610,DepthScenes,duration_manipulation_targetAtFixation,jsons/VE125_randls_58.json,http://54.235.29.9/FacialAge/BNav_EC2/DepthDuration/v2_depth_duration_MTurk/v2_DepthDuration_HTML.html#15,15,1366,768,1366,768,8-21-2022,9-36-4,6,depth_duration_stimuli/000691_2014-06-08_13-08-50_260595134347_rgbf000132-resize_3/000691_2014-06-08_13-08-50_260595134347_rgbf000132-resize_3-target.png,125,4.1530000000000005,12,7987,121,feet,jsons/VE125_randls_58.json,700828,1058059,40,Man
6,762610,DepthScenes,duration_manipulation_targetAtFixation,jsons/VE125_randls_58.json,http://54.235.29.9/FacialAge/BNav_EC2/DepthDuration/v2_depth_duration_MTurk/v2_DepthDuration_HTML.html#15,15,1366,768,1366,768,8-21-2022,9-36-4,7,depth_duration_stimuli/000739_2014-06-08_18-45-58_260595134347_rgbf000068-resize_1/000739_2014-06-08_18-45-58_260595134347_rgbf000068-resize_1-target.png,125,3.534,9,10711,121,feet,jsons/VE125_randls_58.json,700828,1058059,40,Man
7,762610,DepthScenes,duration_manipulation_targetAtFixation,jsons/VE125_randls_58.json,http://54.235.29.9/FacialAge/BNav_EC2/DepthDuration/v2_depth_duration_MTurk/v2_DepthDuration_HTML.html#15,15,1366,768,1366,768,8-21-2022,9-36-4,8,depth_duration_stimuli/000734_2014-06-08_17-39-11_260595134347_rgbf000128-resize_2/000734_2014-06-08_17-39-11_260595134347_rgbf000128-resize_2-target.png,125,4.098,5,5866,122,feet,jsons/VE125_randls_58.json,700828,1058059,40,Man
8,762610,DepthScenes,duration_manipulation_targetAtFixation,jsons/VE125_randls_58.json,http://54.235.29.9/FacialAge/BNav_EC2/DepthDuration/v2_depth_duration_MTurk/v2_DepthDuration_HTML.html#15,15,1366,768,1366,768,8-21-2022,9-36-4,9,depth_duration_stimuli/000773_2014-06-08_22-24-54_260595134347_rgbf000093-resize_1/000773_2014-06-08_22-24-54_260595134347_rgbf000093-resize_1-target.png,125,4.973,11,5071,124,feet,jsons/VE125_randls_58.json,700828,1058059,40,Man
9,762610,DepthScenes,duration_manipulation_targetAtFixation,jsons/VE125_randls_58.json,http://54.235.29.9/FacialAge/BNav_EC2/DepthDuration/v2_depth_duration_MTurk/v2_DepthDuration_HTML.html#15,15,1366,768,1366,768,8-21-2022,9-36-4,10,depth_duration_stimuli/002414_2014-06-28_20-24-58_260595134347_rgbf000067-resize_4/002414_2014-06-28_20-24-58_260595134347_rgbf000067-resize_4-target.png,125,4.363,13,5415,121,feet,jsons/VE125_randls_58.json,700828,1058059,40,Man
10,762610,DepthScenes,duration_manipulation_targetAtFixation,jsons/VE125_randls_58.json,http://54.235.29.9/FacialAge/BNav_EC2/DepthDuration/v2_depth_duration_MTurk/v2_DepthDuration_HTML.html#15,15,1366,768,1366,768,8-21-2022,9-36-4,11,depth_duration_stimuli/002988_2014-06-15_12-24-20_094959634447_rgbf000150-resize_1/002988_2014-06-15_12-24-20_094959634447_rgbf000150-resize_1-target.png,125,4.7669999999999995,12,3981,121,feet,jsons/VE125_randls_58.json,700828,1058059,40,Man
11,762610,DepthScenes,duration_manipulation_targetAtFixation,jsons/VE125_randls_58.json,http://54.235.29.9/FacialAge/BNav_EC2/DepthDuration/v2_depth_duration_MTurk/v2_DepthDuration_HTML.html#15,15,1366,768,1366,768,8-21-2022,9-36-4,12,depth_duration_stimuli/001052_2014-06-08_18-24-54_260595134347_rgbf000130-resize_1/001052_2014-06-08_18-24-54_260595134347_rgbf000130-resize_1-target.png,125,4.1045,12,8553,119,feet,jsons/VE125_randls_58.json,700828,1058059,40,Man
12,762610,DepthScenes,duration_manipulation_targetAtFixation,jsons/VE125_randls_58.json,http://54.235.29.9/FacialAge/BNav_EC2/DepthDuration/v2_depth_duration_MTurk/v2_DepthDuration_HTML.html#15,15,1366,768,1366,768,8-21-2022,9-36-4,13,depth_duration_stimuli/000569_2014-06-09_22-51-47_260595134347_rgbf000141-resize_3/000569_2014-06-09_22-51-47_260595134347_rgbf000141-resize-original.jpg,125,4.512,7,3982,123,feet,jsons/VE125_randls_58.json,700828,1058059,40,Man
13,762610,DepthScenes,duration_manipulation_targetAtFixation,jsons/VE125_randls_58.json,http://54.235.29.9/FacialAge/BNav_EC2/DepthDuration/v2_depth_duration_MTurk/v2_DepthDuration_HTML.html#15,15,1366,768,1366,768,8-21-2022,9-36-4,14,depth_duration_stimuli/001806_2014-06-26_20-50-20_260595134347_rgbf000091-resize_1/001806_2014-06-26_20-50-20_260595134347_rgbf000091-resize_1-target.png,125,2.7305,5,5285,124,feet,jsons/VE125_randls_58.json,700828,1058059,40,Man
14,762610,DepthScenes,duration_manipulation_targetAtFixation,jsons/VE125_randls_58.json,http://54.235.29.9/FacialAge/BNav_EC2/DepthDuration/v2_depth_duration_MTurk/v2_DepthDuration_HTML.html#15,15,1366,768,1366,768,8-21-2022,9-36-4,15,depth_duration_stimuli/001617_2014-06-20_11-35-32_260595134347_rgbf000066-resize_1/001617_2014-06-20_11-35-32_260595134347_rgbf000066-resize_1-target.png,125,3.7910000000000004,15,7147,121,feet,jsons/VE125_randls_58.json,700828,1058059,40,Man
15,762610,DepthScenes,duration_manipulation_targetAtFixation,jsons/VE125_randls_58.json,http://54.235.29.9/FacialAge/BNav_EC2/DepthDuration/v2_depth_duration_MTurk/v2_DepthDuration_HTML.html#15,15,1366,768,1366,768,8-21-2022,9-36-4,16,depth_duration_stimuli/001244_2014-06-17_16-47-45_260595134347_rgbf000030-resize_4/001244_2014-06-17_16-47-45_260595134347_rgbf000030-resize_4-target.png,125,2.0425,12,4179,123,feet,jsons/VE125_randls_58.json,700828,1058059,40,Man
16,762610,DepthScenes,duration_manipulation_targetAtFixation,jsons/VE125_randls_58.json,http://54.235.29.9/FacialAge/BNav_EC2/DepthDuration/v2_depth_duration_MTurk/v2_DepthDuration_HTML.html#15,15,1366,768,1366,768,8-21-2022,9-36-4,17,depth_duration_stimuli/003495_2014-05-21_16-01-51_094959634447_rgbf000100-resize_3/003495_2014-05-21_16-01-51_094959634447_rgbf000100-resize_3-target.png,125,1.6255,9,4931,123,feet,jsons/VE125_randls_58.json,700828,1058059,40,Man
17,762610,DepthScenes,duration_manipulation_targetAtFixation,jsons/VE125_randls_58.json,http://54.235.29.9/FacialAge/BNav_EC2/DepthDuration/v2_depth_duration_MTurk/v2_DepthDuration_HTML.html#15,15,1366,768,1366,768,8-21-2022,9-36-4,18,depth_duration_stimuli/002725_2014-06-22_11-47-51_094959634447_rgbf000070-resize_1/002725_2014-06-22_11-47-51_094959634447_rgbf000070-resize_1-target.png,125,2.195,10,5439,123,feet,jsons/VE125_randls_58.json,700828,1058059,40,Man
18,762610,DepthScenes,duration_manipulation_targetAtFixation,jsons/VE125_randls_58.json,http://54.235.29.9/FacialAge/BNav_EC2/DepthDuration/v2_depth_duration_MTurk/v2_DepthDuration_HTML.html#15,15,1366,768,1366,768,8-21-2022,9-36-4,19,depth_duration_stimuli/002344_2014-06-28_20-06-29_260595134347_rgbf000030-resize_1/002344_2014-06-28_20-06-29_260595134347_rgbf000030-resize_1-target.png,125,1.5795,7,3988,118,feet,jsons/VE125_randls_58.json,700828,1058059,40,Man
19,762610,DepthScenes,duration_manipulation_targetAtFixation,jsons/VE125_randls_58.json,http://54.235.29.9/FacialAge/BNav_EC2/DepthDuration/v2_depth_duration_MTurk/v2_DepthDuration_HTML.html#15,15,1366,768,1366,768,8-21-2022,9-36-4,20,depth_duration_stimuli/001092_2014-06-15_17-34-58_260595134347_rgbf000171-resize_3/001092_2014-06-15_17-34-58_260595134347_rgbf000171-resize_3-target.png,125,2.6935,9,4535,124,feet,jsons/VE125_randls_58.json,700828,1058059,40,Man
20,762610,DepthScenes,duration_manipulation_targetAtFixation,jsons/VE125_randls_58.json,http://54.235.29.9/FacialAge/BNav_EC2/DepthDuration/v2_depth_duration_MTurk/v2_DepthDuration_HTML.html#15,15,1366,768,1366,768,8-21-2022,9-36-4,21,depth_duration_stimuli/002545_2014-06-24_13-38-53_094959634447_rgbf000080-resize_4/002545_2014-06-24_13-38-53_094959634447_rgbf000080-resize_4-target.png,125,1.9205,7,3541,121,feet,jsons/VE125_randls_58.json,700828,1058059,40,Man
21,762610,DepthScenes,duration_manipulation_targetAtFixation,jsons/VE125_randls_58.json,http://54.235.29.9/FacialAge/BNav_EC2/DepthDuration/v2_depth_duration_MTurk/v2_DepthDuration_HTML.html#15,15,1366,768,1366,768,8-21-2022,9-36-4,22,depth_duration_stimuli/000493_2014-06-09_21-01-18_260595134347_rgbf000196-resize_3/000493_2014-06-09_21-01-18_260595134347_rgbf000196-resize_3-target.png,125,3.44,11,3528,116,feet,jsons/VE125_randls_58.json,700828,1058059,40,Man
22,762610,DepthScenes,duration_manipulation_targetAtFixation,jsons/VE125_randls_58.json,http://54.235.29.9/FacialAge/BNav_EC2/DepthDuration/v2_depth_duration_MTurk/v2_DepthDuration_HTML.html#15,15,1366,768,1366,768,8-21-2022,9-36-4,23,depth_duration_stimuli/000191_2014-05-12_17-07-38_260595134347_rgbf000199-resize_0/000191_2014-05-12_17-07-38_260595134347_rgbf000199-resize_0-target.png,125,3.7995,12,5256,124,feet,jsons/VE125_randls_58.json,700828,1058059,40,Man
23,762610,DepthScenes,duration_manipulation_targetAtFixation,jsons/VE125_randls_58.json,http://54.235.29.9/FacialAge/BNav_EC2/DepthDuration/v2_depth_duration_MTurk/v2_DepthDuration_HTML.html#15,15,1366,768,1366,768,8-21-2022,9-36-4,24,depth_duration_stimuli/000788_2014-06-08_22-34-36_260595134347_rgbf000131-resize_1/000788_2014-06-08_22-34-36_260595134347_rgbf000131-resize_1-target.png,125,3.359,8,3230,123,feet,jsons/VE125_randls_58.json,700828,1058059,40,Man
24,762610,DepthScenes,duration_manipulation_targetAtFixation,jsons/VE125_randls_58.json,http://54.235.29.9/FacialAge/BNav_EC2/DepthDuration/v2_depth_duration_MTurk/v2_DepthDuration_HTML.html#15,15,1366,768,1366,768,8-21-2022,9-36-4,25,depth_duration_stimuli/001235_2014-06-17_16-37-36_260595134347_rgbf000084-resize_4/001235_2014-06-17_16-37-36_260595134347_rgbf000084-resize_4-target.png,125,3.6605,11,3542,121,feet,jsons/VE125_randls_58.json,700828,1058059,40,Man
25,762610,DepthScenes,duration_manipulation_targetAtFixation,jsons/VE125_randls_58.json,http://54.235.29.9/FacialAge/BNav_EC2/DepthDuration/v2_depth_duration_MTurk/v2_DepthDuration_HTML.html#15,15,1366,768,1366,768,8-21-2022,9-36-4,26,depth_duration_stimuli/002118_2014-06-25_20-32-08_260595134347_rgbf000078-resize_1/002118_2014-06-25_20-32-08_260595134347_rgbf000078-resize_1-target.png,125,2.6460000000000004,8,3488,123,feet,jsons/VE125_randls_58.json,700828,1058059,40,Man
26,762610,DepthScenes,duration_manipulation_targetAtFixation,jsons/VE125_randls_58.json,http://54.235.29.9/FacialAge/BNav_EC2/DepthDuration/v2_depth_duration_MTurk/v2_DepthDuration_HTML.html#15,15,1366,768,1366,768,8-21-2022,9-36-4,27,depth_duration_stimuli/001516_2014-06-20_16-25-09_260595134347_rgbf000076-resize_2/001516_2014-06-20_16-25-09_260595134347_rgbf000076-resize_2-target.png,125,1.7445,8,3900,123,feet,jsons/VE125_randls_58.json,700828,1058059,40,Man
27,762610,DepthScenes,duration_manipulation_targetAtFixation,jsons/VE125_randls_58.json,http://54.235.29.9/FacialAge/BNav_EC2/DepthDuration/v2_depth_duration_MTurk/v2_DepthDuration_HTML.html#15,15,1366,768,1366,768,8-21-2022,9-36-4,28,depth_duration_stimuli/000522_2014-06-08_13-35-06_260595134347_rgbf000244-resize_1/000522_2014-06-08_13-35-06_260595134347_rgbf000244-resize_1-target.png,125,2.3715,4,3762,124,feet,jsons/VE125_randls_58.json,700828,1058059,40,Man
28,762610,DepthScenes,duration_manipulation_targetAtFixation,jsons/VE125_randls_58.json,http://54.235.29.9/FacialAge/BNav_EC2/DepthDuration/v2_depth_duration_MTurk/v2_DepthDuration_HTML.html#15,15,1366,768,1366,768,8-21-2022,9-36-4,29,depth_duration_stimuli/002949_2014-06-26_15-57-42_094959634447_rgbf000079-resize_1/002949_2014-06-26_15-57-42_094959634447_rgbf000079-resize_1-target.png,125,1.8915,6,3651,120,feet,jsons/VE125_randls_58.json,700828,1058059,40,Man
29,762610,DepthScenes,duration_manipulation_targetAtFixation,jsons/VE125_randls_58.json,http://54.235.29.9/FacialAge/BNav_EC2/DepthDuration/v2_depth_duration_MTurk/v2_DepthDuration_HTML.html#15,15,1366,768,1366,768,8-21-2022,9-36-4,30,depth_duration_stimuli/000375_2014-06-08_11-17-29_260595134347_rgbf000133-resize_2/000375_2014-06-08_11-17-29_260595134347_rgbf000133-resize-original.jpg,125,4.718,0,4325,123,feet,jsons/VE125_randls_58.json,700828,1058059,40,Man
30,762610,DepthScenes,duration_manipulation_targetAtFixation,jsons/VE125_randls_58.json,http://54.235.29.9/FacialAge/BNav_EC2/DepthDuration/v2_depth_duration_MTurk/v2_DepthDuration_HTML.html#15,15,1366,768,1366,768,8-21-2022,9-36-4,31,depth_duration_stimuli/002375_2014-06-28_20-13-44_260595134347_rgbf000032-resize_1/002375_2014-06-28_20-13-44_260595134347_rgbf000032-resize_1-target.png,125,4.0175,7,3524,123,feet,jsons/VE125_randls_58.json,700828,1058059,40,Man
31,762610,DepthScenes,duration_manipulation_targetAtFixation,jsons/VE125_randls_58.json,http://54.235.29.9/FacialAge/BNav_EC2/DepthDuration/v2_depth_duration_MTurk/v2_DepthDuration_HTML.html#15,15,1366,768,1366,768,8-21-2022,9-36-4,32,depth_duration_stimuli/002657_2014-06-13_15-29-54_094959634447_rgbf000150-resize_1/002657_2014-06-13_15-29-54_094959634447_rgbf000150-resize_1-target.png,125,4.919,8,3335,123,feet,jsons/VE125_randls_58.json,700828,1058059,40,Man
32,762610,DepthScenes,duration_manipulation_targetAtFixation,jsons/VE125_randls_58.json,http://54.235.29.9/FacialAge/BNav_EC2/DepthDuration/v2_depth_duration_MTurk/v2_DepthDuration_HTML.html#15,15,1366,768,1366,768,8-21-2022,9-36-4,33,depth_duration_stimuli/002445_2014-06-28_20-32-16_260595134347_rgbf000029-resize_4/002445_2014-06-28_20-32-16_260595134347_rgbf000029-resize_4-target.png,125,2.5315,6,3406,119,feet,jsons/VE125_randls_58.json,700828,1058059,40,Man
33,762610,DepthScenes,duration_manipulation_targetAtFixation,jsons/VE125_randls_58.json,http://54.235.29.9/FacialAge/BNav_EC2/DepthDuration/v2_depth_duration_MTurk/v2_DepthDuration_HTML.html#15,15,1366,768,1366,768,8-21-2022,9-36-4,34,depth_duration_stimuli/000780_2014-06-08_22-28-29_260595134347_rgbf000126-resize_1/000780_2014-06-08_22-28-29_260595134347_rgbf000126-resize_1-target.png,125,3.3825,12,3335,118,feet,jsons/VE125_randls_58.json,700828,1058059,40,Man
34,762610,DepthScenes,duration_manipulation_targetAtFixation,jsons/VE125_randls_58.json,http://54.235.29.9/FacialAge/BNav_EC2/DepthDuration/v2_depth_duration_MTurk/v2_DepthDuration_HTML.html#15,15,1366,768,1366,768,8-21-2022,9-36-4,35,depth_duration_stimuli/002509_2014-06-24_13-19-22_094959634447_rgbf000077-resize_0/002509_2014-06-24_13-19-22_094959634447_rgbf000077-resize_0-target.png,125,1.3065,5,3325,123,feet,jsons/VE125_randls_58.json,700828,1058059,40,Man
35,762610,DepthScenes,duration_manipulation_targetAtFixation,jsons/VE125_randls_58.json,http://54.235.29.9/FacialAge/BNav_EC2/DepthDuration/v2_depth_duration_MTurk/v2_DepthDuration_HTML.html#15,15,1366,768,1366,768,8-21-2022,9-36-4,36,depth_duration_stimuli/003338_2014-05-20_11-01-23_094959634447_rgbf000051-resize_6/003338_2014-05-20_11-01-23_094959634447_rgbf000051-resize_6-target.png,125,1.693,4,2478,119,feet,jsons/VE125_randls_58.json,700828,1058059,40,Man
36,762610,DepthScenes,duration_manipulation_targetAtFixation,jsons/VE125_randls_58.json,http://54.235.29.9/FacialAge/BNav_EC2/DepthDuration/v2_depth_duration_MTurk/v2_DepthDuration_HTML.html#15,15,1366,768,1366,768,8-21-2022,9-36-4,37,depth_duration_stimuli/003070_2014-06-15_14-58-27_094959634447_rgbf000150-resize_3/003070_2014-06-15_14-58-27_094959634447_rgbf000150-resize_3-target.png,125,2.9415,8,2996,118,feet,jsons/VE125_randls_58.json,700828,1058059,40,Man
37,762610,DepthScenes,duration_manipulation_targetAtFixation,jsons/VE125_randls_58.json,http://54.235.29.9/FacialAge/BNav_EC2/DepthDuration/v2_depth_duration_MTurk/v2_DepthDuration_HTML.html#15,15,1366,768,1366,768,8-21-2022,9-36-4,38,depth_duration_stimuli/000943_2014-06-09_19-31-07_260595134347_rgbf000128-resize_1/000943_2014-06-09_19-31-07_260595134347_rgbf000128-resize_1-target.png,125,1.9765,6,2691,124,feet,jsons/VE125_randls_58.json,700828,1058059,40,Man
38,762610,DepthScenes,duration_manipulation_targetAtFixation,jsons/VE125_randls_58.json,http://54.235.29.9/FacialAge/BNav_EC2/DepthDuration/v2_depth_duration_MTurk/v2_DepthDuration_HTML.html#15,15,1366,768,1366,768,8-21-2022,9-36-4,39,depth_duration_stimuli/001449_2014-06-19_17-01-27_260595134347_rgbf000116-resize_2/001449_2014-06-19_17-01-27_260595134347_rgbf000116-resize_2-target.png,125,3.452,6,2403,121,feet,jsons/VE125_randls_58.json,700828,1058059,40,Man
39,762610,DepthScenes,duration_manipulation_targetAtFixation,jsons/VE125_randls_58.json,http://54.235.29.9/FacialAge/BNav_EC2/DepthDuration/v2_depth_duration_MTurk/v2_DepthDuration_HTML.html#15,15,1366,768,1366,768,8-21-2022,9-36-4,40,depth_duration_stimuli/001450_2014-06-19_17-02-03_260595134347_rgbf000203-resize_4/001450_2014-06-19_17-02-03_260595134347_rgbf000203-resize_4-target.png,125,4.0106666666667,9,3953,120,feet,jsons/VE125_randls_58.json,700828,1058059,40,Man
40,762610,DepthScenes,duration_manipulation_targetAtFixation,jsons/VE125_randls_58.json,http://54.235.29.9/FacialAge/BNav_EC2/DepthDuration/v2_depth_duration_MTurk/v2_DepthDuration_HTML.html#15,15,1366,768,1366,768,8-21-2022,9-36-4,41,depth_duration_stimuli/000692_2014-06-08_13-09-42_260595134347_rgbf000199-resize_2/000692_2014-06-08_13-09-42_260595134347_rgbf000199-resize_2-target.png,125,3.661,14,3823,118,feet,jsons/VE125_randls_58.json,700828,1058059,40,Man
41,762610,DepthScenes,duration_manipulation_targetAtFixation,jsons/VE125_randls_58.json,http://54.235.29.9/FacialAge/BNav_EC2/DepthDuration/v2_depth_duration_MTurk/v2_DepthDuration_HTML.html#15,15,1366,768,1366,768,8-21-2022,9-36-4,42,depth_duration_stimuli/001094_2014-06-15_17-36-00_260595134347_rgbf000205-resize_0/001094_2014-06-15_17-36-00_260595134347_rgbf000205-resize_0-target.png,125,4.2175,12,4061,124,feet,jsons/VE125_randls_58.json,700828,1058059,40,Man
42,762610,DepthScenes,duration_manipulation_targetAtFixation,jsons/VE125_randls_58.json,http://54.235.29.9/FacialAge/BNav_EC2/DepthDuration/v2_depth_duration_MTurk/v2_DepthDuration_HTML.html#15,15,1366,768,1366,768,8-21-2022,9-36-4,43,depth_duration_stimuli/000436_2014-06-09_22-25-11_260595134347_rgbf000137-resize_1/000436_2014-06-09_22-25-11_260595134347_rgbf000137-resize_1-target.png,125,4.0705,12,3464,123,feet,jsons/VE125_randls_58.json,700828,1058059,40,Man
43,762610,DepthScenes,duration_manipulation_targetAtFixation,jsons/VE125_randls_58.json,http://54.235.29.9/FacialAge/BNav_EC2/DepthDuration/v2_depth_duration_MTurk/v2_DepthDuration_HTML.html#15,15,1366,768,1366,768,8-21-2022,9-36-4,44,depth_duration_stimuli/002444_2014-06-28_20-32-08_260595134347_rgbf000027-resize_0/002444_2014-06-28_20-32-08_260595134347_rgbf000027-resize_0-target.png,125,4.388999999999999,8,3667,124,feet,jsons/VE125_randls_58.json,700828,1058059,40,Man
44,762610,DepthScenes,duration_manipulation_targetAtFixation,jsons/VE125_randls_58.json,http://54.235.29.9/FacialAge/BNav_EC2/DepthDuration/v2_depth_duration_MTurk/v2_DepthDuration_HTML.html#15,15,1366,768,1366,768,8-21-2022,9-36-4,45,depth_duration_stimuli/000787_2014-06-08_22-33-53_260595134347_rgbf000175-resize_1/000787_2014-06-08_22-33-53_260595134347_rgbf000175-resize-original.jpg,125,4.784,0,3361,122,feet,jsons/VE125_randls_58.json,700828,1058059,40,Man
45,762610,DepthScenes,duration_manipulation_targetAtFixation,jsons/VE125_randls_58.json,http://54.235.29.9/FacialAge/BNav_EC2/DepthDuration/v2_depth_duration_MTurk/v2_DepthDuration_HTML.html#15,15,1366,768,1366,768,8-21-2022,9-36-4,46,depth_duration_stimuli/002600_2014-06-24_14-27-04_094959634447_rgbf000074-resize_2/002600_2014-06-24_14-27-04_094959634447_rgbf000074-resize_2-target.png,125,2.7575,11,3613,120,feet,jsons/VE125_randls_58.json,700828,1058059,40,Man
46,762610,DepthScenes,duration_manipulation_targetAtFixation,jsons/VE125_randls_58.json,http://54.235.29.9/FacialAge/BNav_EC2/DepthDuration/v2_depth_duration_MTurk/v2_DepthDuration_HTML.html#15,15,1366,768,1366,768,8-21-2022,9-36-4,47,depth_duration_stimuli/003228_2014-05-14_13-42-35_094959634447_rgbf000101-resize_1/003228_2014-05-14_13-42-35_094959634447_rgbf000101-resize_1-target.png,125,1.9680000000000002,9,3271,121,feet,jsons/VE125_randls_58.json,700828,1058059,40,Man
47,762610,DepthScenes,duration_manipulation_targetAtFixation,jsons/VE125_randls_58.json,http://54.235.29.9/FacialAge/BNav_EC2/DepthDuration/v2_depth_duration_MTurk/v2_DepthDuration_HTML.html#15,15,1366,768,1366,768,8-21-2022,9-36-4,48,depth_duration_stimuli/001150_2014-06-17_15-27-34_260595134347_rgbf000108-resize_2/001150_2014-06-17_15-27-34_260595134347_rgbf000108-resize_2-target.png,125,4.0325,12,3357,123,feet,jsons/VE125_randls_58.json,700828,1058059,40,Man
48,762610,DepthScenes,duration_manipulation_targetAtFixation,jsons/VE125_randls_58.json,http://54.235.29.9/FacialAge/BNav_EC2/DepthDuration/v2_depth_duration_MTurk/v2_DepthDuration_HTML.html#15,15,1366,768,1366,768,8-21-2022,9-36-4,49,depth_duration_stimuli/000665_2014-06-09_20-42-35_260595134347_rgbf000110-resize_1/000665_2014-06-09_20-42-35_260595134347_rgbf000110-resize_1-target.png,125,3.057,9,3682,123,feet,jsons/VE125_randls_58.json,700828,1058059,40,Man
49,762610,DepthScenes,duration_manipulation_targetAtFixation,jsons/VE125_randls_58.json,http://54.235.29.9/FacialAge/BNav_EC2/DepthDuration/v2_depth_duration_MTurk/v2_DepthDuration_HTML.html#15,15,1366,768,1366,768,8-21-2022,9-36-4,50,depth_duration_stimuli/000810_2014-06-08_17-20-01_260595134347_rgbf000105-resize_0/000810_2014-06-08_17-20-01_260595134347_rgbf000105-resize_0-target.png,125,1.4865,8,3191,125,feet,jsons/VE125_randls_58.json,700828,1058059,40,Man
50,762610,DepthScenes,duration_manipulation_targetAtFixation,jsons/VE125_randls_58.json,http://54.235.29.9/FacialAge/BNav_EC2/DepthDuration/v2_depth_duration_MTurk/v2_DepthDuration_HTML.html#15,15,1366,768,1366,768,8-21-2022,9-36-4,51,depth_duration_stimuli/001214_2014-06-17_16-13-55_260595134347_rgbf000111-resize_0/001214_2014-06-17_16-13-55_260595134347_rgbf000111-resize_0-target.png,125,2.6505,6,2865,123,feet,jsons/VE125_randls_58.json,700828,1058059,40,Man
51,762610,DepthScenes,duration_manipulation_targetAtFixation,jsons/VE125_randls_58.json,http://54.235.29.9/FacialAge/BNav_EC2/DepthDuration/v2_depth_duration_MTurk/v2_DepthDuration_HTML.html#15,15,1366,768,1366,768,8-21-2022,9-36-4,52,depth_duration_stimuli/001175_2014-06-17_15-45-55_260595134347_rgbf000129-resize_4/001175_2014-06-17_15-45-55_260595134347_rgbf000129-resize_4-target.png,125,4.255,11,4706,121,feet,jsons/VE125_randls_58.json,700828,1058059,40,Man
52,762610,DepthScenes,duration_manipulation_targetAtFixation,jsons/VE125_randls_58.json,http://54.235.29.9/FacialAge/BNav_EC2/DepthDuration/v2_depth_duration_MTurk/v2_DepthDuration_HTML.html#15,15,1366,768,1366,768,8-21-2022,9-36-4,53,depth_duration_stimuli/003490_2014-05-21_15-50-11_094959634447_rgbf000101-resize_3/003490_2014-05-21_15-50-11_094959634447_rgbf000101-resize_3-target.png,125,3.6445,0,3819,77,feet,jsons/VE125_randls_58.json,700828,1058059,40,Man
53,762610,DepthScenes,duration_manipulation_targetAtFixation,jsons/VE125_randls_58.json,http://54.235.29.9/FacialAge/BNav_EC2/DepthDuration/v2_depth_duration_MTurk/v2_DepthDuration_HTML.html#15,15,1366,768,1366,768,8-21-2022,9-36-4,54,depth_duration_stimuli/000929_2014-06-09_16-33-19_260595134347_rgbf000139-resize_0/000929_2014-06-09_16-33-19_260595134347_rgbf000139-resize_0-target.png,125,2.8680000000000003,7,3214,116,feet,jsons/VE125_randls_58.json,700828,1058059,40,Man
54,762610,DepthScenes,duration_manipulation_targetAtFixation,jsons/VE125_randls_58.json,http://54.235.29.9/FacialAge/BNav_EC2/DepthDuration/v2_depth_duration_MTurk/v2_DepthDuration_HTML.html#15,15,1366,768,1366,768,8-21-2022,9-36-4,55,depth_duration_stimuli/000457_2014-06-08_16-52-43_260595134347_rgbf000199-resize_1/000457_2014-06-08_16-52-43_260595134347_rgbf000199-resize_1-target.png,125,3.6489999999999996,8,3449,119,feet,jsons/VE125_randls_58.json,700828,1058059,40,Man
55,762610,DepthScenes,duration_manipulation_targetAtFixation,jsons/VE125_randls_58.json,http://54.235.29.9/FacialAge/BNav_EC2/DepthDuration/v2_depth_duration_MTurk/v2_DepthDuration_HTML.html#15,15,1366,768,1366,768,8-21-2022,9-36-4,56,depth_duration_stimuli/003492_2014-05-21_15-50-55_094959634447_rgbf000828-resize_1/003492_2014-05-21_15-50-55_094959634447_rgbf000828-resize_1-target.png,125,4.06875,10,3989,123,feet,jsons/VE125_randls_58.json,700828,1058059,40,Man
56,762610,DepthScenes,duration_manipulation_targetAtFixation,jsons/VE125_randls_58.json,http://54.235.29.9/FacialAge/BNav_EC2/DepthDuration/v2_depth_duration_MTurk/v2_DepthDuration_HTML.html#15,15,1366,768,1366,768,8-21-2022,9-36-4,57,depth_duration_stimuli/002568_2014-06-24_13-59-21_094959634447_rgbf000062-resize_4/002568_2014-06-24_13-59-21_094959634447_rgbf000062-resize_4-target.png,125,3.015,12,4040,117,feet,jsons/VE125_randls_58.json,700828,1058059,40,Man
57,762610,DepthScenes,duration_manipulation_targetAtFixation,jsons/VE125_randls_58.json,http://54.235.29.9/FacialAge/BNav_EC2/DepthDuration/v2_depth_duration_MTurk/v2_DepthDuration_HTML.html#15,15,1366,768,1366,768,8-21-2022,9-36-4,58,depth_duration_stimuli/000469_2014-06-09_19-42-10_260595134347_rgbf000081-resize_1/000469_2014-06-09_19-42-10_260595134347_rgbf000081-resize_1-target.png,125,1.652,6,3192,123,feet,jsons/VE125_randls_58.json,700828,1058059,40,Man
58,762610,DepthScenes,duration_manipulation_targetAtFixation,jsons/VE125_randls_58.json,http://54.235.29.9/FacialAge/BNav_EC2/DepthDuration/v2_depth_duration_MTurk/v2_DepthDuration_HTML.html#15,15,1366,768,1366,768,8-21-2022,9-36-4,59,depth_duration_stimuli/000483_2014-06-09_20-41-45_260595134347_rgbf000116-resize_4/000483_2014-06-09_20-41-45_260595134347_rgbf000116-resize_4-target.png,125,1.337,6,2736,123,feet,jsons/VE125_randls_58.json,700828,1058059,40,Man
59,762610,DepthScenes,duration_manipulation_targetAtFixation,jsons/VE125_randls_58.json,http://54.235.29.9/FacialAge/BNav_EC2/DepthDuration/v2_depth_duration_MTurk/v2_DepthDuration_HTML.html#15,15,1366,768,1366,768,8-21-2022,9-36-4,60,depth_duration_stimuli/001555_2014-06-20_17-12-10_260595134347_rgbf000065-resize_4/001555_2014-06-20_17-12-10_260595134347_rgbf000065-resize_4-target.png,125,1.633,4,3488,122,feet,jsons/VE125_randls_58.json,700828,1058059,40,Man
60,762610,DepthScenes,duration_manipulation_targetAtFixation,jsons/VE125_randls_58.json,http://54.235.29.9/FacialAge/BNav_EC2/DepthDuration/v2_depth_duration_MTurk/v2_DepthDuration_HTML.html#15,15,1366,768,1366,768,8-21-2022,9-36-4,61,depth_duration_stimuli/000103_2014-05-14_22-01-17_260595134347_rgbf000152-resize_5/000103_2014-05-14_22-01-17_260595134347_rgbf000152-resize_5-target.png,125,1.993,7,3008,121,feet,jsons/VE125_randls_58.json,700828,1058059,40,Man
61,762610,DepthScenes,duration_manipulation_targetAtFixation,jsons/VE125_randls_58.json,http://54.235.29.9/FacialAge/BNav_EC2/DepthDuration/v2_depth_duration_MTurk/v2_DepthDuration_HTML.html#15,15,1366,768,1366,768,8-21-2022,9-36-4,62,depth_duration_stimuli/000642_2014-06-08_16-59-25_260595134347_rgbf000098-resize_2/000642_2014-06-08_16-59-25_260595134347_rgbf000098-resize_2-target.png,125,2.8815,6,2995,121,feet,jsons/VE125_randls_58.json,700828,1058059,40,Man
62,762610,DepthScenes,duration_manipulation_targetAtFixation,jsons/VE125_randls_58.json,http://54.235.29.9/FacialAge/BNav_EC2/DepthDuration/v2_depth_duration_MTurk/v2_DepthDuration_HTML.html#15,15,1366,768,1366,768,8-21-2022,9-36-4,63,depth_duration_stimuli/002425_2014-06-28_20-27-29_260595134347_rgbf000031-resize_8/002425_2014-06-28_20-27-29_260595134347_rgbf000031-resize_8-target.png,125,3.8960000000000004,8,2685,123,feet,jsons/VE125_randls_58.json,700828,1058059,40,Man
63,762610,DepthScenes,duration_manipulation_targetAtFixation,jsons/VE125_randls_58.json,http://54.235.29.9/FacialAge/BNav_EC2/DepthDuration/v2_depth_duration_MTurk/v2_DepthDuration_HTML.html#15,15,1366,768,1366,768,8-21-2022,9-36-4,64,depth_duration_stimuli/000368_2014-06-09_15-53-01_260595134347_rgbf000155-resize_2/000368_2014-06-09_15-53-01_260595134347_rgbf000155-resize_2-target.png,125,2.4859999999999998,8,3254,119,feet,jsons/VE125_randls_58.json,700828,1058059,40,Man
64,762610,DepthScenes,duration_manipulation_targetAtFixation,jsons/VE125_randls_58.json,http://54.235.29.9/FacialAge/BNav_EC2/DepthDuration/v2_depth_duration_MTurk/v2_DepthDuration_HTML.html#15,15,1366,768,1366,768,8-21-2022,9-36-4,65,depth_duration_stimuli/002678_2014-06-13_16-15-32_094959634447_rgbf000151-resize_6/002678_2014-06-13_16-15-32_094959634447_rgbf000151-resize_6-target.png,125,2.1830000000000003,13,4553,123,feet,jsons/VE125_randls_58.json,700828,1058059,40,Man
65,762610,DepthScenes,duration_manipulation_targetAtFixation,jsons/VE125_randls_58.json,http://54.235.29.9/FacialAge/BNav_EC2/DepthDuration/v2_depth_duration_MTurk/v2_DepthDuration_HTML.html#15,15,1366,768,1366,768,8-21-2022,9-36-4,66,depth_duration_stimuli/001222_2014-06-17_16-24-06_260595134347_rgbf000073-resize_0/001222_2014-06-17_16-24-06_260595134347_rgbf000073-resize-original.jpg,125,1.4385,0,3939,117,feet,jsons/VE125_randls_58.json,700828,1058059,40,Man
66,762610,DepthScenes,duration_manipulation_targetAtFixation,jsons/VE125_randls_58.json,http://54.235.29.9/FacialAge/BNav_EC2/DepthDuration/v2_depth_duration_MTurk/v2_DepthDuration_HTML.html#15,15,1366,768,1366,768,8-21-2022,9-36-4,67,depth_duration_stimuli/001417_2014-06-19_16-25-36_260595134347_rgbf000115-resize_5/001417_2014-06-19_16-25-36_260595134347_rgbf000115-resize_5-target.png,125,4.6255,10,5694,122,feet,jsons/VE125_randls_58.json,700828,1058059,40,Man
67,762610,DepthScenes,duration_manipulation_targetAtFixation,jsons/VE125_randls_58.json,http://54.235.29.9/FacialAge/BNav_EC2/DepthDuration/v2_depth_duration_MTurk/v2_DepthDuration_HTML.html#15,15,1366,768,1366,768,8-21-2022,9-36-4,68,depth_duration_stimuli/003081_2014-06-15_15-19-16_094959634447_rgbf000150-resize_1/003081_2014-06-15_15-19-16_094959634447_rgbf000150-resize_1-target.png,125,3.9125,12,3556,123,feet,jsons/VE125_randls_58.json,700828,1058059,40,Man
68,762610,DepthScenes,duration_manipulation_targetAtFixation,jsons/VE125_randls_58.json,http://54.235.29.9/FacialAge/BNav_EC2/DepthDuration/v2_depth_duration_MTurk/v2_DepthDuration_HTML.html#15,15,1366,768,1366,768,8-21-2022,9-36-4,69,depth_duration_stimuli/002784_2014-06-22_19-26-30_094959634447_rgbf000083-resize_3/002784_2014-06-22_19-26-30_094959634447_rgbf000083-resize_3-target.png,125,1.8046666666667,7,3953,122,feet,jsons/VE125_randls_58.json,700828,1058059,40,Man
69,762610,DepthScenes,duration_manipulation_targetAtFixation,jsons/VE125_randls_58.json,http://54.235.29.9/FacialAge/BNav_EC2/DepthDuration/v2_depth_duration_MTurk/v2_DepthDuration_HTML.html#15,15,1366,768,1366,768,8-21-2022,9-36-4,70,depth_duration_stimuli/001100_2014-06-15_17-46-26_260595134347_rgbf000225-resize_2/001100_2014-06-15_17-46-26_260595134347_rgbf000225-resize_2-target.png,125,2.24,6,2524,123,feet,jsons/VE125_randls_58.json,700828,1058059,40,Man
70,762610,DepthScenes,duration_manipulation_targetAtFixation,jsons/VE125_randls_58.json,http://54.235.29.9/FacialAge/BNav_EC2/DepthDuration/v2_depth_duration_MTurk/v2_DepthDuration_HTML.html#15,15,1366,768,1366,768,8-21-2022,9-36-4,71,depth_duration_stimuli/000447_2014-06-08_16-15-46_260595134347_rgbf000130-resize_1/000447_2014-06-08_16-15-46_260595134347_rgbf000130-resize_1-target.png,125,4.479,14,6455,122,feet,jsons/VE125_randls_58.json,700828,1058059,40,Man
71,762610,DepthScenes,duration_manipulation_targetAtFixation,jsons/VE125_randls_58.json,http://54.235.29.9/FacialAge/BNav_EC2/DepthDuration/v2_depth_duration_MTurk/v2_DepthDuration_HTML.html#15,15,1366,768,1366,768,8-21-2022,9-36-4,72,depth_duration_stimuli/001447_2014-06-19_17-00-32_260595134347_rgbf000082-resize_5/001447_2014-06-19_17-00-32_260595134347_rgbf000082-resize_5-target.png,125,4.13775,3,3785,122,feet,jsons/VE125_randls_58.json,700828,1058059,40,Man
72,762610,DepthScenes,duration_manipulation_targetAtFixation,jsons/VE125_randls_58.json,http://54.235.29.9/FacialAge/BNav_EC2/DepthDuration/v2_depth_duration_MTurk/v2_DepthDuration_HTML.html#15,15,1366,768,1366,768,8-21-2022,9-36-4,73,depth_duration_stimuli/002043_2014-06-24_20-29-38_260595134347_rgbf000039-resize_4/002043_2014-06-24_20-29-38_260595134347_rgbf000039-resize_4-target.png,125,2.8435,8,3408,118,feet,jsons/VE125_randls_58.json,700828,1058059,40,Man
73,762610,DepthScenes,duration_manipulation_targetAtFixation,jsons/VE125_randls_58.json,http://54.235.29.9/FacialAge/BNav_EC2/DepthDuration/v2_depth_duration_MTurk/v2_DepthDuration_HTML.html#15,15,1366,768,1366,768,8-21-2022,9-36-4,74,depth_duration_stimuli/003048_2014-06-15_13-49-43_094959634447_rgbf000150-resize_1/003048_2014-06-15_13-49-43_094959634447_rgbf000150-resize_1-target.png,125,4.0035,11,3797,125,feet,jsons/VE125_randls_58.json,700828,1058059,40,Man
74,762610,DepthScenes,duration_manipulation_targetAtFixation,jsons/VE125_randls_58.json,http://54.235.29.9/FacialAge/BNav_EC2/DepthDuration/v2_depth_duration_MTurk/v2_DepthDuration_HTML.html#15,15,1366,768,1366,768,8-21-2022,9-36-4,75,depth_duration_stimuli/000486_2014-06-09_20-47-20_260595134347_rgbf000143-resize_2/000486_2014-06-09_20-47-20_260595134347_rgbf000143-resize_2-target.png,125,4.8325,4,4346,117,feet,jsons/VE125_randls_58.json,700828,1058059,40,Man
75,762610,DepthScenes,duration_manipulation_targetAtFixation,jsons/VE125_randls_58.json,http://54.235.29.9/FacialAge/BNav_EC2/DepthDuration/v2_depth_duration_MTurk/v2_DepthDuration_HTML.html#15,15,1366,768,1366,768,8-21-2022,9-36-4,76,depth_duration_stimuli/003083_2014-06-15_15-21-03_094959634447_rgbf000063-resize_1/003083_2014-06-15_15-21-03_094959634447_rgbf000063-resize_1-target.png,125,4.1405,10,5280,124,feet,jsons/VE125_randls_58.json,700828,1058059,40,Man
76,762610,DepthScenes,duration_manipulation_targetAtFixation,jsons/VE125_randls_58.json,http://54.235.29.9/FacialAge/BNav_EC2/DepthDuration/v2_depth_duration_MTurk/v2_DepthDuration_HTML.html#15,15,1366,768,1366,768,8-21-2022,9-36-4,77,depth_duration_stimuli/001056_2014-06-08_18-46-44_260595134347_rgbf000068-resize_0/001056_2014-06-08_18-46-44_260595134347_rgbf000068-resize_0-target.png,125,2.6625,9,3929,124,feet,jsons/VE125_randls_58.json,700828,1058059,40,Man
77,762610,DepthScenes,duration_manipulation_targetAtFixation,jsons/VE125_randls_58.json,http://54.235.29.9/FacialAge/BNav_EC2/DepthDuration/v2_depth_duration_MTurk/v2_DepthDuration_HTML.html#15,15,1366,768,1366,768,8-21-2022,9-36-4,78,depth_duration_stimuli/002199_2014-06-28_18-33-56_260595134347_rgbf000074-resize_0/002199_2014-06-28_18-33-56_260595134347_rgbf000074-resize_0-target.png,125,1.996,6,2928,121,feet,jsons/VE125_randls_58.json,700828,1058059,40,Man
78,762610,DepthScenes,duration_manipulation_targetAtFixation,jsons/VE125_randls_58.json,http://54.235.29.9/FacialAge/BNav_EC2/DepthDuration/v2_depth_duration_MTurk/v2_DepthDuration_HTML.html#15,15,1366,768,1366,768,8-21-2022,9-36-4,79,depth_duration_stimuli/001133_2014-06-17_14-49-16_260595134347_rgbf000100-resize_0/001133_2014-06-17_14-49-16_260595134347_rgbf000100-resize_0-target.png,125,4.2115,11,3031,118,feet,jsons/VE125_randls_58.json,700828,1058059,40,Man
79,762610,DepthScenes,duration_manipulation_targetAtFixation,jsons/VE125_randls_58.json,http://54.235.29.9/FacialAge/BNav_EC2/DepthDuration/v2_depth_duration_MTurk/v2_DepthDuration_HTML.html#15,15,1366,768,1366,768,8-21-2022,9-36-4,80,depth_duration_stimuli/001132_2014-06-17_14-48-54_260595134347_rgbf000100-resize_2/001132_2014-06-17_14-48-54_260595134347_rgbf000100-resize_2-target.png,125,3.753,10,3860,124,feet,jsons/VE125_randls_58.json,700828,1058059,40,Man
80,762610,DepthScenes,duration_manipulation_targetAtFixation,jsons/VE125_randls_58.json,http://54.235.29.9/FacialAge/BNav_EC2/DepthDuration/v2_depth_duration_MTurk/v2_DepthDuration_HTML.html#15,15,1366,768,1366,768,8-21-2022,9-36-4,81,depth_duration_stimuli/001016_2014-06-09_16-16-10_260595134347_rgbf000112-resize_5/001016_2014-06-09_16-16-10_260595134347_rgbf000112-resize_5-target.png,125,1.6565,6,3544,124,feet,jsons/VE125_randls_58.json,700828,1058059,40,Man
81,762610,DepthScenes,duration_manipulation_targetAtFixation,jsons/VE125_randls_58.json,http://54.235.29.9/FacialAge/BNav_EC2/DepthDuration/v2_depth_duration_MTurk/v2_DepthDuration_HTML.html#15,15,1366,768,1366,768,8-21-2022,9-36-4,82,depth_duration_stimuli/002340_2014-06-28_20-05-46_260595134347_rgbf000113-resize_0/002340_2014-06-28_20-05-46_260595134347_rgbf000113-resize_0-target.png,125,2.4735,7,2781,127,feet,jsons/VE125_randls_58.json,700828,1058059,40,Man
82,762610,DepthScenes,duration_manipulation_targetAtFixation,jsons/VE125_randls_58.json,http://54.235.29.9/FacialAge/BNav_EC2/DepthDuration/v2_depth_duration_MTurk/v2_DepthDuration_HTML.html#15,15,1366,768,1366,768,8-21-2022,9-36-4,83,depth_duration_stimuli/003621_2014-05-23_18-06-08_094959634447_rgbf000101-resize_1/003621_2014-05-23_18-06-08_094959634447_rgbf000101-resize_1-target.png,125,3.9835,6,2910,113,feet,jsons/VE125_randls_58.json,700828,1058059,40,Man
83,762610,DepthScenes,duration_manipulation_targetAtFixation,jsons/VE125_randls_58.json,http://54.235.29.9/FacialAge/BNav_EC2/DepthDuration/v2_depth_duration_MTurk/v2_DepthDuration_HTML.html#15,15,1366,768,1366,768,8-21-2022,9-36-4,84,depth_duration_stimuli/001584_2014-06-20_11-07-43_260595134347_rgbf000002-resize_1/001584_2014-06-20_11-07-43_260595134347_rgbf000002-resize_1-target.png,125,3.53,8,3126,123,feet,jsons/VE125_randls_58.json,700828,1058059,40,Man
84,762610,DepthScenes,duration_manipulation_targetAtFixation,jsons/VE125_randls_58.json,http://54.235.29.9/FacialAge/BNav_EC2/DepthDuration/v2_depth_duration_MTurk/v2_DepthDuration_HTML.html#15,15,1366,768,1366,768,8-21-2022,9-36-4,85,depth_duration_stimuli/000906_2014-06-08_13-35-43_260595134347_rgbf000155-resize_1/000906_2014-06-08_13-35-43_260595134347_rgbf000155-resize_1-target.png,125,2.8489999999999998,8,3044,125,feet,jsons/VE125_randls_58.json,700828,1058059,40,Man
85,762610,DepthScenes,duration_manipulation_targetAtFixation,jsons/VE125_randls_58.json,http://54.235.29.9/FacialAge/BNav_EC2/DepthDuration/v2_depth_duration_MTurk/v2_DepthDuration_HTML.html#15,15,1366,768,1366,768,8-21-2022,9-36-4,86,depth_duration_stimuli/002805_2014-06-22_19-54-03_094959634447_rgbf000079-resize_1/002805_2014-06-22_19-54-03_094959634447_rgbf000079-resize_1-target.png,125,3.1439999999999997,9,3865,126,feet,jsons/VE125_randls_58.json,700828,1058059,40,Man
86,762610,DepthScenes,duration_manipulation_targetAtFixation,jsons/VE125_randls_58.json,http://54.235.29.9/FacialAge/BNav_EC2/DepthDuration/v2_depth_duration_MTurk/v2_DepthDuration_HTML.html#15,15,1366,768,1366,768,8-21-2022,9-36-4,87,depth_duration_stimuli/002570_2014-06-24_13-59-54_094959634447_rgbf000059-resize_0/002570_2014-06-24_13-59-54_094959634447_rgbf000059-resize_0-target.png,125,4.037,5,4068,123,feet,jsons/VE125_randls_58.json,700828,1058059,40,Man
87,762610,DepthScenes,duration_manipulation_targetAtFixation,jsons/VE125_randls_58.json,http://54.235.29.9/FacialAge/BNav_EC2/DepthDuration/v2_depth_duration_MTurk/v2_DepthDuration_HTML.html#15,15,1366,768,1366,768,8-21-2022,9-36-4,88,depth_duration_stimuli/002467_2014-06-28_20-38-07_260595134347_rgbf000026-resize_2/002467_2014-06-28_20-38-07_260595134347_rgbf000026-resize_2-target.png,125,4.742,7,3125,126,feet,jsons/VE125_randls_58.json,700828,1058059,40,Man
88,762610,DepthScenes,duration_manipulation_targetAtFixation,jsons/VE125_randls_58.json,http://54.235.29.9/FacialAge/BNav_EC2/DepthDuration/v2_depth_duration_MTurk/v2_DepthDuration_HTML.html#15,15,1366,768,1366,768,8-21-2022,9-36-4,89,depth_duration_stimuli/002748_2014-06-22_19-07-22_094959634447_rgbf000078-resize_1/002748_2014-06-22_19-07-22_094959634447_rgbf000078-resize_1-target.png,125,4.6705,8,2997,123,feet,jsons/VE125_randls_58.json,700828,1058059,40,Man
89,762610,DepthScenes,duration_manipulation_targetAtFixation,jsons/VE125_randls_58.json,http://54.235.29.9/FacialAge/BNav_EC2/DepthDuration/v2_depth_duration_MTurk/v2_DepthDuration_HTML.html#15,15,1366,768,1366,768,8-21-2022,9-36-4,90,depth_duration_stimuli/002995_2014-06-15_12-31-26_094959634447_rgbf000150-resize_1/002995_2014-06-15_12-31-26_094959634447_rgbf000150-resize_1-target.png,125,3.8360000000000003,7,3346,117,feet,jsons/VE125_randls_58.json,700828,1058059,40,Man
90,762610,DepthScenes,duration_manipulation_targetAtFixation,jsons/VE125_randls_58.json,http://54.235.29.9/FacialAge/BNav_EC2/DepthDuration/v2_depth_duration_MTurk/v2_DepthDuration_HTML.html#15,15,1366,768,1366,768,8-21-2022,9-36-4,91,depth_duration_stimuli/002272_2014-06-28_18-53-56_260595134347_rgbf000067-resize_2/002272_2014-06-28_18-53-56_260595134347_rgbf000067-resize_2-target.png,125,1.138,2,3809,124,feet,jsons/VE125_randls_58.json,700828,1058059,40,Man
91,762610,DepthScenes,duration_manipulation_targetAtFixation,jsons/VE125_randls_58.json,http://54.235.29.9/FacialAge/BNav_EC2/DepthDuration/v2_depth_duration_MTurk/v2_DepthDuration_HTML.html#15,15,1366,768,1366,768,8-21-2022,9-36-4,92,depth_duration_stimuli/001571_2014-06-20_17-21-32_260595134347_rgbf000089-resize_1/001571_2014-06-20_17-21-32_260595134347_rgbf000089-resize_1-target.png,125,1.86,5,2787,116,feet,jsons/VE125_randls_58.json,700828,1058059,40,Man
92,762610,DepthScenes,duration_manipulation_targetAtFixation,jsons/VE125_randls_58.json,http://54.235.29.9/FacialAge/BNav_EC2/DepthDuration/v2_depth_duration_MTurk/v2_DepthDuration_HTML.html#15,15,1366,768,1366,768,8-21-2022,9-36-4,93,depth_duration_stimuli/001199_2014-06-17_16-03-48_260595134347_rgbf000077-resize_0/001199_2014-06-17_16-03-48_260595134347_rgbf000077-resize_0-target.png,125,3.4375,7,2756,121,feet,jsons/VE125_randls_58.json,700828,1058059,40,Man
93,762610,DepthScenes,duration_manipulation_targetAtFixation,jsons/VE125_randls_58.json,http://54.235.29.9/FacialAge/BNav_EC2/DepthDuration/v2_depth_duration_MTurk/v2_DepthDuration_HTML.html#15,15,1366,768,1366,768,8-21-2022,9-36-4,94,depth_duration_stimuli/000502_2014-06-08_23-02-32_260595134347_rgbf000063-resize_4/000502_2014-06-08_23-02-32_260595134347_rgbf000063-resize_4-target.png,125,2.431,4,2621,123,feet,jsons/VE125_randls_58.json,700828,1058059,40,Man
94,762610,DepthScenes,duration_manipulation_targetAtFixation,jsons/VE125_randls_58.json,http://54.235.29.9/FacialAge/BNav_EC2/DepthDuration/v2_depth_duration_MTurk/v2_DepthDuration_HTML.html#15,15,1366,768,1366,768,8-21-2022,9-36-4,95,depth_duration_stimuli/000758_2014-06-08_22-05-08_260595134347_rgbf000085-resize_0/000758_2014-06-08_22-05-08_260595134347_rgbf000085-resize_0-target.png,125,3.3810000000000002,9,6180,122,feet,jsons/VE125_randls_58.json,700828,1058059,40,Man
95,762610,DepthScenes,duration_manipulation_targetAtFixation,jsons/VE125_randls_58.json,http://54.235.29.9/FacialAge/BNav_EC2/DepthDuration/v2_depth_duration_MTurk/v2_DepthDuration_HTML.html#15,15,1366,768,1366,768,8-21-2022,9-36-4,96,depth_duration_stimuli/000854_2014-06-09_19-43-13_260595134347_rgbf000066-resize_0/000854_2014-06-09_19-43-13_260595134347_rgbf000066-resize_0-target.png,125,3.068,5,2823,123,feet,jsons/VE125_randls_58.json,700828,1058059,40,Man
96,762610,DepthScenes,duration_manipulation_targetAtFixation,jsons/VE125_randls_58.json,http://54.235.29.9/FacialAge/BNav_EC2/DepthDuration/v2_depth_duration_MTurk/v2_DepthDuration_HTML.html#15,15,1366,768,1366,768,8-21-2022,9-36-4,97,depth_duration_stimuli/002905_2014-06-03_18-04-43_094959634447_rgbf000151-resize_2/002905_2014-06-03_18-04-43_094959634447_rgbf000151-resize_2-target.png,125,2.0295,5,2892,119,feet,jsons/VE125_randls_58.json,700828,1058059,40,Man
97,762610,DepthScenes,duration_manipulation_targetAtFixation,jsons/VE125_randls_58.json,http://54.235.29.9/FacialAge/BNav_EC2/DepthDuration/v2_depth_duration_MTurk/v2_DepthDuration_HTML.html#15,15,1366,768,1366,768,8-21-2022,9-36-4,98,depth_duration_stimuli/003423_2014-05-21_10-23-26_094959634447_rgbf002665-resize_2/003423_2014-05-21_10-23-26_094959634447_rgbf002665-resize_2-target.png,125,3.2575,4,2520,121,feet,jsons/VE125_randls_58.json,700828,1058059,40,Man
98,762610,DepthScenes,duration_manipulation_targetAtFixation,jsons/VE125_randls_58.json,http://54.235.29.9/FacialAge/BNav_EC2/DepthDuration/v2_depth_duration_MTurk/v2_DepthDuration_HTML.html#15,15,1366,768,1366,768,8-21-2022,9-36-4,99,depth_duration_stimuli/001540_2014-06-20_17-01-05_260595134347_rgbf000086-resize_2/001540_2014-06-20_17-01-05_260595134347_rgbf000086-resize-original.jpg,125,1.459,0,3352,121,feet,jsons/VE125_randls_58.json,700828,1058059,40,Man
99,762610,DepthScenes,duration_manipulation_targetAtFixation,jsons/VE125_randls_58.json,http://54.235.29.9/FacialAge/BNav_EC2/DepthDuration/v2_depth_duration_MTurk/v2_DepthDuration_HTML.html#15,15,1366,768,1366,768,8-21-2022,9-36-4,100,depth_duration_stimuli/000506_2014-06-08_23-21-00_260595134347_rgbf000070-resize_7/000506_2014-06-08_23-21-00_260595134347_rgbf000070-resize_7-target.png,125,4.0585,6,3395,121,feet,jsons/VE125_randls_58.json,700828,1058059,40,Man
100,762610,DepthScenes,duration_manipulation_targetAtFixation,jsons/VE125_randls_58.json,http://54.235.29.9/FacialAge/BNav_EC2/DepthDuration/v2_depth_duration_MTurk/v2_DepthDuration_HTML.html#15,15,1366,768,1366,768,8-21-2022,9-36-4,101,depth_duration_stimuli/003079_2014-06-15_15-18-20_094959634447_rgbf000152-resize_8/003079_2014-06-15_15-18-20_094959634447_rgbf000152-resize_8-target.png,125,2.8775,7,2661,124,feet,jsons/VE125_randls_58.json,700828,1058059,40,Man
101,762610,DepthScenes,duration_manipulation_targetAtFixation,jsons/VE125_randls_58.json,http://54.235.29.9/FacialAge/BNav_EC2/DepthDuration/v2_depth_duration_MTurk/v2_DepthDuration_HTML.html#15,15,1366,768,1366,768,8-21-2022,9-36-4,102,depth_duration_stimuli/000009_2014-05-26_14-32-05_260595134347_rgbf000034-resize_3/000009_2014-05-26_14-32-05_260595134347_rgbf000034-resize_3-target.png,125,3.8715,12,3132,124,feet,jsons/VE125_randls_58.json,700828,1058059,40,Man
102,762610,DepthScenes,duration_manipulation_targetAtFixation,jsons/VE125_randls_58.json,http://54.235.29.9/FacialAge/BNav_EC2/DepthDuration/v2_depth_duration_MTurk/v2_DepthDuration_HTML.html#15,15,1366,768,1366,768,8-21-2022,9-36-4,103,depth_duration_stimuli/001828_2014-06-26_21-40-03_260595134347_rgbf000024-resize_0/001828_2014-06-26_21-40-03_260595134347_rgbf000024-resize_0-target.png,125,4.8260000000000005,10,3886,122,feet,jsons/VE125_randls_58.json,700828,1058059,40,Man
103,762610,DepthScenes,duration_manipulation_targetAtFixation,jsons/VE125_randls_58.json,http://54.235.29.9/FacialAge/BNav_EC2/DepthDuration/v2_depth_duration_MTurk/v2_DepthDuration_HTML.html#15,15,1366,768,1366,768,8-21-2022,9-36-4,104,depth_duration_stimuli/002630_2014-06-24_14-47-50_094959634447_rgbf000055-resize_1/002630_2014-06-24_14-47-50_094959634447_rgbf000055-resize_1-target.png,125,3.0095,8,3433,119,feet,jsons/VE125_randls_58.json,700828,1058059,40,Man
104,762610,DepthScenes,duration_manipulation_targetAtFixation,jsons/VE125_randls_58.json,http://54.235.29.9/FacialAge/BNav_EC2/DepthDuration/v2_depth_duration_MTurk/v2_DepthDuration_HTML.html#15,15,1366,768,1366,768,8-21-2022,9-36-4,105,depth_duration_stimuli/002758_2014-06-22_19-11-20_094959634447_rgbf000128-resize_1/002758_2014-06-22_19-11-20_094959634447_rgbf000128-resize_1-target.png,125,2.555,6,2611,123,feet,jsons/VE125_randls_58.json,700828,1058059,40,Man
105,762610,DepthScenes,duration_manipulation_targetAtFixation,jsons/VE125_randls_58.json,http://54.235.29.9/FacialAge/BNav_EC2/DepthDuration/v2_depth_duration_MTurk/v2_DepthDuration_HTML.html#15,15,1366,768,1366,768,8-21-2022,9-36-4,106,depth_duration_stimuli/001055_2014-06-08_18-45-35_260595134347_rgbf000111-resize_4/001055_2014-06-08_18-45-35_260595134347_rgbf000111-resize_4-target.png,125,2.4290000000000003,11,2743,121,feet,jsons/VE125_randls_58.json,700828,1058059,40,Man
106,762610,DepthScenes,duration_manipulation_targetAtFixation,jsons/VE125_randls_58.json,http://54.235.29.9/FacialAge/BNav_EC2/DepthDuration/v2_depth_duration_MTurk/v2_DepthDuration_HTML.html#15,15,1366,768,1366,768,8-21-2022,9-36-4,107,depth_duration_stimuli/000549_2014-06-08_22-10-24_260595134347_rgbf000247-resize_3/000549_2014-06-08_22-10-24_260595134347_rgbf000247-resize_3-target.png,125,1.841,5,3150,121,feet,jsons/VE125_randls_58.json,700828,1058059,40,Man
107,762610,DepthScenes,duration_manipulation_targetAtFixation,jsons/VE125_randls_58.json,http://54.235.29.9/FacialAge/BNav_EC2/DepthDuration/v2_depth_duration_MTurk/v2_DepthDuration_HTML.html#15,15,1366,768,1366,768,8-21-2022,9-36-4,108,depth_duration_stimuli/002763_2014-06-22_19-13-10_094959634447_rgbf000075-resize_4/002763_2014-06-22_19-13-10_094959634447_rgbf000075-resize_4-target.png,125,1.68375,8,3134,124,feet,jsons/VE125_randls_58.json,700828,1058059,40,Man
108,762610,DepthScenes,duration_manipulation_targetAtFixation,jsons/VE125_randls_58.json,http://54.235.29.9/FacialAge/BNav_EC2/DepthDuration/v2_depth_duration_MTurk/v2_DepthDuration_HTML.html#15,15,1366,768,1366,768,8-21-2022,9-36-4,109,depth_duration_stimuli/002209_2014-06-28_18-36-10_260595134347_rgbf000051-resize_1/002209_2014-06-28_18-36-10_260595134347_rgbf000051-resize_1-target.png,125,2.057,4,2775,123,feet,jsons/VE125_randls_58.json,700828,1058059,40,Man
109,762610,DepthScenes,duration_manipulation_targetAtFixation,jsons/VE125_randls_58.json,http://54.235.29.9/FacialAge/BNav_EC2/DepthDuration/v2_depth_duration_MTurk/v2_DepthDuration_HTML.html#15,15,1366,768,1366,768,8-21-2022,9-36-4,110,depth_duration_stimuli/001059_2014-06-08_21-53-27_260595134347_rgbf000061-resize_4/001059_2014-06-08_21-53-27_260595134347_rgbf000061-resize_4-target.png,125,2.4185,5,3108,119,feet,jsons/VE125_randls_58.json,700828,1058059,40,Man
110,762610,DepthScenes,duration_manipulation_targetAtFixation,jsons/VE125_randls_58.json,http://54.235.29.9/FacialAge/BNav_EC2/DepthDuration/v2_depth_duration_MTurk/v2_DepthDuration_HTML.html#15,15,1366,768,1366,768,8-21-2022,9-36-4,111,depth_duration_stimuli/001032_2014-06-08_13-23-17_260595134347_rgbf000021-resize_3/001032_2014-06-08_13-23-17_260595134347_rgbf000021-resize_3-target.png,125,3.2725,4,2466,122,feet,jsons/VE125_randls_58.json,700828,1058059,40,Man
111,762610,DepthScenes,duration_manipulation_targetAtFixation,jsons/VE125_randls_58.json,http://54.235.29.9/FacialAge/BNav_EC2/DepthDuration/v2_depth_duration_MTurk/v2_DepthDuration_HTML.html#15,15,1366,768,1366,768,8-21-2022,9-36-4,112,depth_duration_stimuli/001158_2014-06-17_15-32-16_260595134347_rgbf000138-resize_2/001158_2014-06-17_15-32-16_260595134347_rgbf000138-resize_2-target.png,125,4.5315,7,4064,122,feet,jsons/VE125_randls_58.json,700828,1058059,40,Man
112,762610,DepthScenes,duration_manipulation_targetAtFixation,jsons/VE125_randls_58.json,http://54.235.29.9/FacialAge/BNav_EC2/DepthDuration/v2_depth_duration_MTurk/v2_DepthDuration_HTML.html#15,15,1366,768,1366,768,8-21-2022,9-36-4,113,depth_duration_stimuli/000556_2014-06-09_22-42-56_260595134347_rgbf000214-resize_1/000556_2014-06-09_22-42-56_260595134347_rgbf000214-resize_1-target.png,125,4.8415,7,2710,119,feet,jsons/VE125_randls_58.json,700828,1058059,40,Man
113,762610,DepthScenes,duration_manipulation_targetAtFixation,jsons/VE125_randls_58.json,http://54.235.29.9/FacialAge/BNav_EC2/DepthDuration/v2_depth_duration_MTurk/v2_DepthDuration_HTML.html#15,15,1366,768,1366,768,8-21-2022,9-36-4,114,depth_duration_stimuli/002663_2014-06-13_15-50-26_094959634447_rgbf000075-resize_1/002663_2014-06-13_15-50-26_094959634447_rgbf000075-resize_1-target.png,125,4.7495,0,2715,123,feet,jsons/VE125_randls_58.json,700828,1058059,40,Man
114,762610,DepthScenes,duration_manipulation_targetAtFixation,jsons/VE125_randls_58.json,http://54.235.29.9/FacialAge/BNav_EC2/DepthDuration/v2_depth_duration_MTurk/v2_DepthDuration_HTML.html#15,15,1366,768,1366,768,8-21-2022,9-36-4,115,depth_duration_stimuli/000409_2014-06-04_19-23-33_260595134347_rgbf000067-resize_0/000409_2014-06-04_19-23-33_260595134347_rgbf000067-resize_0-target.png,125,3.7335,9,2867,120,feet,jsons/VE125_randls_58.json,700828,1058059,40,Man
115,762610,DepthScenes,duration_manipulation_targetAtFixation,jsons/VE125_randls_58.json,http://54.235.29.9/FacialAge/BNav_EC2/DepthDuration/v2_depth_duration_MTurk/v2_DepthDuration_HTML.html#15,15,1366,768,1366,768,8-21-2022,9-36-4,116,depth_duration_stimuli/001170_2014-06-17_15-43-44_260595134347_rgbf000096-resize_6/001170_2014-06-17_15-43-44_260595134347_rgbf000096-resize-original.jpg,125,1.1909999999999998,0,2832,124,feet,jsons/VE125_randls_58.json,700828,1058059,40,Man
116,762610,DepthScenes,duration_manipulation_targetAtFixation,jsons/VE125_randls_58.json,http://54.235.29.9/FacialAge/BNav_EC2/DepthDuration/v2_depth_duration_MTurk/v2_DepthDuration_HTML.html#15,15,1366,768,1366,768,8-21-2022,9-36-4,117,depth_duration_stimuli/003292_2014-05-14_21-53-49_094959634447_rgbf000100-resize_2/003292_2014-05-14_21-53-49_094959634447_rgbf000100-resize_2-target.png,125,3.4815,6,3316,118,feet,jsons/VE125_randls_58.json,700828,1058059,40,Man
117,762610,DepthScenes,duration_manipulation_targetAtFixation,jsons/VE125_randls_58.json,http://54.235.29.9/FacialAge/BNav_EC2/DepthDuration/v2_depth_duration_MTurk/v2_DepthDuration_HTML.html#15,15,1366,768,1366,768,8-21-2022,9-36-4,118,depth_duration_stimuli/002639_2014-06-24_14-51-37_094959634447_rgbf000074-resize_4/002639_2014-06-24_14-51-37_094959634447_rgbf000074-resize_4-target.png,125,4.0375,7,3249,124,feet,jsons/VE125_randls_58.json,700828,1058059,40,Man
118,762610,DepthScenes,duration_manipulation_targetAtFixation,jsons/VE125_randls_58.json,http://54.235.29.9/FacialAge/BNav_EC2/DepthDuration/v2_depth_duration_MTurk/v2_DepthDuration_HTML.html#15,15,1366,768,1366,768,8-21-2022,9-36-4,119,depth_duration_stimuli/001164_2014-06-17_15-35-46_260595134347_rgbf000085-resize_3/001164_2014-06-17_15-35-46_260595134347_rgbf000085-resize_3-target.png,125,2.354,5,3735,123,feet,jsons/VE125_randls_58.json,700828,1058059,40,Man
119,762610,DepthScenes,duration_manipulation_targetAtFixation,jsons/VE125_randls_58.json,http://54.235.29.9/FacialAge/BNav_EC2/DepthDuration/v2_depth_duration_MTurk/v2_DepthDuration_HTML.html#15,15,1366,768,1366,768,8-21-2022,9-36-4,120,depth_duration_stimuli/001136_2014-06-17_15-19-41_260595134347_rgbf000076-resize_3/001136_2014-06-17_15-19-41_260595134347_rgbf000076-resize_3-target.png,125,1.8655,5,2879,122,feet,jsons/VE125_randls_58.json,700828,1058059,40,Man
120,762610,DepthScenes,duration_manipulation_targetAtFixation,jsons/VE125_randls_58.json,http://54.235.29.9/FacialAge/BNav_EC2/DepthDuration/v2_depth_duration_MTurk/v2_DepthDuration_HTML.html#15,15,1366,768,1366,768,8-21-2022,9-36-4,121,depth_duration_stimuli/000736_2014-06-08_18-24-15_260595134347_rgbf000206-resize_3/000736_2014-06-08_18-24-15_260595134347_rgbf000206-resize_3-target.png,125,3.515,6,3305,121,feet,jsons/VE125_randls_58.json,700828,1058059,40,Man
121,762610,DepthScenes,duration_manipulation_targetAtFixation,jsons/VE125_randls_58.json,http://54.235.29.9/FacialAge/BNav_EC2/DepthDuration/v2_depth_duration_MTurk/v2_DepthDuration_HTML.html#15,15,1366,768,1366,768,8-21-2022,9-36-4,122,depth_duration_stimuli/000137_2014-05-20_17-04-49_260595134347_rgbf000120-resize_1/000137_2014-05-20_17-04-49_260595134347_rgbf000120-resize_1-target.png,125,3.786,10,5252,121,feet,jsons/VE125_randls_58.json,700828,1058059,40,Man
122,762610,DepthScenes,duration_manipulation_targetAtFixation,jsons/VE125_randls_58.json,http://54.235.29.9/FacialAge/BNav_EC2/DepthDuration/v2_depth_duration_MTurk/v2_DepthDuration_HTML.html#15,15,1366,768,1366,768,8-21-2022,9-36-4,123,depth_duration_stimuli/001110_2014-06-15_17-25-28_260595134347_rgbf000150-resize_1/001110_2014-06-15_17-25-28_260595134347_rgbf000150-resize_1-target.png,125,1.7115,7,3211,125,feet,jsons/VE125_randls_58.json,700828,1058059,40,Man
123,762610,DepthScenes,duration_manipulation_targetAtFixation,jsons/VE125_randls_58.json,http://54.235.29.9/FacialAge/BNav_EC2/DepthDuration/v2_depth_duration_MTurk/v2_DepthDuration_HTML.html#15,15,1366,768,1366,768,8-21-2022,9-36-4,124,depth_duration_stimuli/000927_2014-06-09_16-32-30_260595134347_rgbf000123-resize_3/000927_2014-06-09_16-32-30_260595134347_rgbf000123-resize_3-target.png,125,2.6785,8,2915,120,feet,jsons/VE125_randls_58.json,700828,1058059,40,Man
124,762610,DepthScenes,duration_manipulation_targetAtFixation,jsons/VE125_randls_58.json,http://54.235.29.9/FacialAge/BNav_EC2/DepthDuration/v2_depth_duration_MTurk/v2_DepthDuration_HTML.html#15,15,1366,768,1366,768,8-21-2022,9-36-4,125,depth_duration_stimuli/001810_2014-06-26_20-51-35_260595134347_rgbf000040-resize_3/001810_2014-06-26_20-51-35_260595134347_rgbf000040-resize_3-target.png,125,2.2525,6,3587,123,feet,jsons/VE125_randls_58.json,700828,1058059,40,Man
125,762610,DepthScenes,duration_manipulation_targetAtFixation,jsons/VE125_randls_58.json,http://54.235.29.9/FacialAge/BNav_EC2/DepthDuration/v2_depth_duration_MTurk/v2_DepthDuration_HTML.html#15,15,1366,768,1366,768,8-21-2022,9-36-4,126,depth_duration_stimuli/003010_2014-06-15_12-54-35_094959634447_rgbf000112-resize_0/003010_2014-06-15_12-54-35_094959634447_rgbf000112-resize_0-target.png,125,3.1185,12,3523,122,feet,jsons/VE125_randls_58.json,700828,1058059,40,Man
126,762610,DepthScenes,duration_manipulation_targetAtFixation,jsons/VE125_randls_58.json,http://54.235.29.9/FacialAge/BNav_EC2/DepthDuration/v2_depth_duration_MTurk/v2_DepthDuration_HTML.html#15,15,1366,768,1366,768,8-21-2022,9-36-4,127,depth_duration_stimuli/002549_2014-06-24_13-41-39_094959634447_rgbf000022-resize_3/002549_2014-06-24_13-41-39_094959634447_rgbf000022-resize_3-target.png,125,1.476,7,3250,119,feet,jsons/VE125_randls_58.json,700828,1058059,40,Man
127,762610,DepthScenes,duration_manipulation_targetAtFixation,jsons/VE125_randls_58.json,http://54.235.29.9/FacialAge/BNav_EC2/DepthDuration/v2_depth_duration_MTurk/v2_DepthDuration_HTML.html#15,15,1366,768,1366,768,8-21-2022,9-36-4,128,depth_duration_stimuli/002750_2014-06-22_19-08-03_094959634447_rgbf000094-resize_4/002750_2014-06-22_19-08-03_094959634447_rgbf000094-resize_4-target.png,125,2.354,8,3729,124,feet,jsons/VE125_randls_58.json,700828,1058059,40,Man
128,762610,DepthScenes,duration_manipulation_targetAtFixation,jsons/VE125_randls_58.json,http://54.235.29.9/FacialAge/BNav_EC2/DepthDuration/v2_depth_duration_MTurk/v2_DepthDuration_HTML.html#15,15,1366,768,1366,768,8-21-2022,9-36-4,129,depth_duration_stimuli/000878_2014-06-08_22-52-45_260595134347_rgbf000045-resize_2/000878_2014-06-08_22-52-45_260595134347_rgbf000045-resize_2-target.png,125,2.092,8,2947,124,feet,jsons/VE125_randls_58.json,700828,1058059,40,Man
129,762610,DepthScenes,duration_manipulation_targetAtFixation,jsons/VE125_randls_58.json,http://54.235.29.9/FacialAge/BNav_EC2/DepthDuration/v2_depth_duration_MTurk/v2_DepthDuration_HTML.html#15,15,1366,768,1366,768,8-21-2022,9-36-4,130,depth_duration_stimuli/002953_2014-06-08_17-32-18_094959634447_rgbf000059-resize_5/002953_2014-06-08_17-32-18_094959634447_rgbf000059-resize_5-target.png,125,1.551,5,3575,123,feet,jsons/VE125_randls_58.json,700828,1058059,40,Man
130,762610,DepthScenes,duration_manipulation_targetAtFixation,jsons/VE125_randls_58.json,http://54.235.29.9/FacialAge/BNav_EC2/DepthDuration/v2_depth_duration_MTurk/v2_DepthDuration_HTML.html#15,15,1366,768,1366,768,8-21-2022,9-36-4,131,depth_duration_stimuli/003534_2014-05-22_15-06-10_094959634447_rgbf000102-resize_4/003534_2014-05-22_15-06-10_094959634447_rgbf000102-resize_4-target.png,125,1.426,5,2697,121,feet,jsons/VE125_randls_58.json,700828,1058059,40,Man
131,762610,DepthScenes,duration_manipulation_targetAtFixation,jsons/VE125_randls_58.json,http://54.235.29.9/FacialAge/BNav_EC2/DepthDuration/v2_depth_duration_MTurk/v2_DepthDuration_HTML.html#15,15,1366,768,1366,768,8-21-2022,9-36-4,132,depth_duration_stimuli/002637_2014-06-24_14-51-13_094959634447_rgbf000066-resize_4/002637_2014-06-24_14-51-13_094959634447_rgbf000066-resize_4-target.png,125,1.9955,6,2550,121,feet,jsons/VE125_randls_58.json,700828,1058059,40,Man
132,762610,DepthScenes,duration_manipulation_targetAtFixation,jsons/VE125_randls_58.json,http://54.235.29.9/FacialAge/BNav_EC2/DepthDuration/v2_depth_duration_MTurk/v2_DepthDuration_HTML.html#15,15,1366,768,1366,768,8-21-2022,9-36-4,133,depth_duration_stimuli/000414_2014-06-04_19-49-13_260595134347_rgbf000044-resize_0/000414_2014-06-04_19-49-13_260595134347_rgbf000044-resize_0-target.png,125,4.329,10,6452,123,feet,jsons/VE125_randls_58.json,700828,1058059,40,Man
133,762610,DepthScenes,duration_manipulation_targetAtFixation,jsons/VE125_randls_58.json,http://54.235.29.9/FacialAge/BNav_EC2/DepthDuration/v2_depth_duration_MTurk/v2_DepthDuration_HTML.html#15,15,1366,768,1366,768,8-21-2022,9-36-4,134,depth_duration_stimuli/003129_2014-05-12_10-48-10_094959634447_rgbf000100-resize_0/003129_2014-05-12_10-48-10_094959634447_rgbf000100-resize_0-target.png,125,4.9305,8,4085,117,feet,jsons/VE125_randls_58.json,700828,1058059,40,Man
134,762610,DepthScenes,duration_manipulation_targetAtFixation,jsons/VE125_randls_58.json,http://54.235.29.9/FacialAge/BNav_EC2/DepthDuration/v2_depth_duration_MTurk/v2_DepthDuration_HTML.html#15,15,1366,768,1366,768,8-21-2022,9-36-4,135,depth_duration_stimuli/002072_2014-06-24_21-48-06_260595134347_rgbf000115-resize_0/002072_2014-06-24_21-48-06_260595134347_rgbf000115-resize-original.jpg,125,4.702,0,2827,124,feet,jsons/VE125_randls_58.json,700828,1058059,40,Man
135,762610,DepthScenes,duration_manipulation_targetAtFixation,jsons/VE125_randls_58.json,http://54.235.29.9/FacialAge/BNav_EC2/DepthDuration/v2_depth_duration_MTurk/v2_DepthDuration_HTML.html#15,15,1366,768,1366,768,8-21-2022,9-36-4,136,depth_duration_stimuli/002039_2014-06-24_20-22-38_260595134347_rgbf000084-resize_1/002039_2014-06-24_20-22-38_260595134347_rgbf000084-resize_1-target.png,125,4.408,10,6011,121,feet,jsons/VE125_randls_58.json,700828,1058059,40,Man
136,762610,DepthScenes,duration_manipulation_targetAtFixation,jsons/VE125_randls_58.json,http://54.235.29.9/FacialAge/BNav_EC2/DepthDuration/v2_depth_duration_MTurk/v2_DepthDuration_HTML.html#15,15,1366,768,1366,768,8-21-2022,9-36-4,137,depth_duration_stimuli/002103_2014-06-25_20-00-40_260595134347_rgbf000049-resize_0/002103_2014-06-25_20-00-40_260595134347_rgbf000049-resize_0-target.png,125,4.105,7,3843,124,feet,jsons/VE125_randls_58.json,700828,1058059,40,Man
137,762610,DepthScenes,duration_manipulation_targetAtFixation,jsons/VE125_randls_58.json,http://54.235.29.9/FacialAge/BNav_EC2/DepthDuration/v2_depth_duration_MTurk/v2_DepthDuration_HTML.html#15,15,1366,768,1366,768,8-21-2022,9-36-4,138,depth_duration_stimuli/001167_2014-06-17_15-38-07_260595134347_rgbf000108-resize_0/001167_2014-06-17_15-38-07_260595134347_rgbf000108-resize_0-target.png,125,1.8505,6,2963,122,feet,jsons/VE125_randls_58.json,700828,1058059,40,Man
138,762610,DepthScenes,duration_manipulation_targetAtFixation,jsons/VE125_randls_58.json,http://54.235.29.9/FacialAge/BNav_EC2/DepthDuration/v2_depth_duration_MTurk/v2_DepthDuration_HTML.html#15,15,1366,768,1366,768,8-21-2022,9-36-4,139,depth_duration_stimuli/003587_2014-05-23_16-48-02_094959634447_rgbf002384-resize_2/003587_2014-05-23_16-48-02_094959634447_rgbf002384-resize_2-target.png,125,1.357,3,2911,121,feet,jsons/VE125_randls_58.json,700828,1058059,40,Man
139,762610,DepthScenes,duration_manipulation_targetAtFixation,jsons/VE125_randls_58.json,http://54.235.29.9/FacialAge/BNav_EC2/DepthDuration/v2_depth_duration_MTurk/v2_DepthDuration_HTML.html#15,15,1366,768,1366,768,8-21-2022,9-36-4,140,depth_duration_stimuli/000470_2014-06-09_19-42-40_260595134347_rgbf000094-resize_1/000470_2014-06-09_19-42-40_260595134347_rgbf000094-resize_1-target.png,125,1.831,6,2974,124,feet,jsons/VE125_randls_58.json,700828,1058059,40,Man
140,762610,DepthScenes,duration_manipulation_targetAtFixation,jsons/VE125_randls_58.json,http://54.235.29.9/FacialAge/BNav_EC2/DepthDuration/v2_depth_duration_MTurk/v2_DepthDuration_HTML.html#15,15,1366,768,1366,768,8-21-2022,9-36-4,141,depth_duration_stimuli/000109_2014-05-14_23-41-52_260595134347_rgbf000035-resize_9/000109_2014-05-14_23-41-52_260595134347_rgbf000035-resize_9-target.png,125,1.3545,5,2119,125,feet,jsons/VE125_randls_58.json,700828,1058059,40,Man
141,762610,DepthScenes,duration_manipulation_targetAtFixation,jsons/VE125_randls_58.json,http://54.235.29.9/FacialAge/BNav_EC2/DepthDuration/v2_depth_duration_MTurk/v2_DepthDuration_HTML.html#15,15,1366,768,1366,768,8-21-2022,9-36-4,142,depth_duration_stimuli/002989_2014-06-15_12-25-03_094959634447_rgbf000150-resize_3/002989_2014-06-15_12-25-03_094959634447_rgbf000150-resize_3-target.png,125,4.1975,0,3265,107,feet,jsons/VE125_randls_58.json,700828,1058059,40,Man
142,762610,DepthScenes,duration_manipulation_targetAtFixation,jsons/VE125_randls_58.json,http://54.235.29.9/FacialAge/BNav_EC2/DepthDuration/v2_depth_duration_MTurk/v2_DepthDuration_HTML.html#15,15,1366,768,1366,768,8-21-2022,9-36-4,143,depth_duration_stimuli/000866_2014-06-09_20-45-42_260595134347_rgbf000139-resize_1/000866_2014-06-09_20-45-42_260595134347_rgbf000139-resize_1-target.png,125,3.2155,8,3662,123,feet,jsons/VE125_randls_58.json,700828,1058059,40,Man
143,762610,DepthScenes,duration_manipulation_targetAtFixation,jsons/VE125_randls_58.json,http://54.235.29.9/FacialAge/BNav_EC2/DepthDuration/v2_depth_duration_MTurk/v2_DepthDuration_HTML.html#15,15,1366,768,1366,768,8-21-2022,9-36-4,144,depth_duration_stimuli/001011_2014-06-08_23-18-54_260595134347_rgbf000044-resize_4/001011_2014-06-08_23-18-54_260595134347_rgbf000044-resize_4-target.png,125,2.4730000000000003,9,3084,123,feet,jsons/VE125_randls_58.json,700828,1058059,40,Man
144,762610,DepthScenes,duration_manipulation_targetAtFixation,jsons/VE125_randls_58.json,http://54.235.29.9/FacialAge/BNav_EC2/DepthDuration/v2_depth_duration_MTurk/v2_DepthDuration_HTML.html#15,15,1366,768,1366,768,8-21-2022,9-36-4,145,depth_duration_stimuli/002875_2014-06-01_15-19-00_094959634447_rgbf000151-resize_1/002875_2014-06-01_15-19-00_094959634447_rgbf000151-resize_1-target.png,125,1.9675,7,2785,123,feet,jsons/VE125_randls_58.json,700828,1058059,40,Man
145,762610,DepthScenes,duration_manipulation_targetAtFixation,jsons/VE125_randls_58.json,http://54.235.29.9/FacialAge/BNav_EC2/DepthDuration/v2_depth_duration_MTurk/v2_DepthDuration_HTML.html#15,15,1366,768,1366,768,8-21-2022,9-36-4,146,depth_duration_stimuli/001498_2014-06-19_17-45-14_260595134347_rgbf000129-resize_4/001498_2014-06-19_17-45-14_260595134347_rgbf000129-resize-original.jpg,125,1.4075,0,2910,123,feet,jsons/VE125_randls_58.json,700828,1058059,40,Man
146,762610,DepthScenes,duration_manipulation_targetAtFixation,jsons/VE125_randls_58.json,http://54.235.29.9/FacialAge/BNav_EC2/DepthDuration/v2_depth_duration_MTurk/v2_DepthDuration_HTML.html#15,15,1366,768,1366,768,8-21-2022,9-36-4,147,depth_duration_stimuli/002057_2014-06-24_21-00-13_260595134347_rgbf000120-resize_1/002057_2014-06-24_21-00-13_260595134347_rgbf000120-resize_1-target.png,125,2.967,9,3760,124,feet,jsons/VE125_randls_58.json,700828,1058059,40,Man
147,762610,DepthScenes,duration_manipulation_targetAtFixation,jsons/VE125_randls_58.json,http://54.235.29.9/FacialAge/BNav_EC2/DepthDuration/v2_depth_duration_MTurk/v2_DepthDuration_HTML.html#15,15,1366,768,1366,768,8-21-2022,9-36-4,148,depth_duration_stimuli/000709_2014-06-08_13-51-55_260595134347_rgbf000068-resize_3/000709_2014-06-08_13-51-55_260595134347_rgbf000068-resize_3-target.png,125,1.8030000000000002,7,2536,120,feet,jsons/VE125_randls_58.json,700828,1058059,40,Man
148,762610,DepthScenes,duration_manipulation_targetAtFixation,jsons/VE125_randls_58.json,http://54.235.29.9/FacialAge/BNav_EC2/DepthDuration/v2_depth_duration_MTurk/v2_DepthDuration_HTML.html#15,15,1366,768,1366,768,8-21-2022,9-36-4,149,depth_duration_stimuli/002279_2014-06-28_18-55-32_260595134347_rgbf000040-resize_5/002279_2014-06-28_18-55-32_260595134347_rgbf000040-resize_5-target.png,125,1.5043333333333,6,2624,119,feet,jsons/VE125_randls_58.json,700828,1058059,40,Man
149,762610,DepthScenes,duration_manipulation_targetAtFixation,jsons/VE125_randls_58.json,http://54.235.29.9/FacialAge/BNav_EC2/DepthDuration/v2_depth_duration_MTurk/v2_DepthDuration_HTML.html#15,15,1366,768,1366,768,8-21-2022,9-36-4,150,depth_duration_stimuli/000635_2014-06-08_16-38-42_260595134347_rgbf000106-resize_1/000635_2014-06-08_16-38-42_260595134347_rgbf000106-resize_1-target.png,125,2.074,8,2794,120,feet,jsons/VE125_randls_58.json,700828,1058059,40,Man
150,762610,DepthScenes,duration_manipulation_targetAtFixation,jsons/VE125_randls_58.json,http://54.235.29.9/FacialAge/BNav_EC2/DepthDuration/v2_depth_duration_MTurk/v2_DepthDuration_HTML.html#15,15,1366,768,1366,768,8-21-2022,9-36-4,151,depth_duration_stimuli/002964_2014-06-08_17-46-11_094959634447_rgbf000091-resize_4/002964_2014-06-08_17-46-11_094959634447_rgbf000091-resize_4-target.png,125,1.6909999999999998,2,3148,121,feet,jsons/VE125_randls_58.json,700828,1058059,40,Man
151,762610,DepthScenes,duration_manipulation_targetAtFixation,jsons/VE125_randls_58.json,http://54.235.29.9/FacialAge/BNav_EC2/DepthDuration/v2_depth_duration_MTurk/v2_DepthDuration_HTML.html#15,15,1366,768,1366,768,8-21-2022,9-36-4,152,depth_duration_stimuli/002136_2014-06-25_21-18-03_260595134347_rgbf000109-resize_3/002136_2014-06-25_21-18-03_260595134347_rgbf000109-resize_3-target.png,125,1.9569999999999999,4,3015,119,feet,jsons/VE125_randls_58.json,700828,1058059,40,Man
152,762610,DepthScenes,duration_manipulation_targetAtFixation,jsons/VE125_randls_58.json,http://54.235.29.9/FacialAge/BNav_EC2/DepthDuration/v2_depth_duration_MTurk/v2_DepthDuration_HTML.html#15,15,1366,768,1366,768,8-21-2022,9-36-4,153,depth_duration_stimuli/000917_2014-06-09_22-45-29_260595134347_rgbf000149-resize_3/000917_2014-06-09_22-45-29_260595134347_rgbf000149-resize_3-target.png,125,4.1865,7,3032,124,feet,jsons/VE125_randls_58.json,700828,1058059,40,Man
153,762610,DepthScenes,duration_manipulation_targetAtFixation,jsons/VE125_randls_58.json,http://54.235.29.9/FacialAge/BNav_EC2/DepthDuration/v2_depth_duration_MTurk/v2_DepthDuration_HTML.html#15,15,1366,768,1366,768,8-21-2022,9-36-4,154,depth_duration_stimuli/002323_2014-06-28_20-01-54_260595134347_rgbf000051-resize_4/002323_2014-06-28_20-01-54_260595134347_rgbf000051-resize_4-target.png,125,3.7310000000000003,9,4656,124,feet,jsons/VE125_randls_58.json,700828,1058059,40,Man
154,762610,DepthScenes,duration_manipulation_targetAtFixation,jsons/VE125_randls_58.json,http://54.235.29.9/FacialAge/BNav_EC2/DepthDuration/v2_depth_duration_MTurk/v2_DepthDuration_HTML.html#15,15,1366,768,1366,768,8-21-2022,9-36-4,155,depth_duration_stimuli/002788_2014-06-22_19-36-03_094959634447_rgbf000088-resize_2/002788_2014-06-22_19-36-03_094959634447_rgbf000088-resize_2-target.png,125,1.6465,8,2863,121,feet,jsons/VE125_randls_58.json,700828,1058059,40,Man
155,762610,DepthScenes,duration_manipulation_targetAtFixation,jsons/VE125_randls_58.json,http://54.235.29.9/FacialAge/BNav_EC2/DepthDuration/v2_depth_duration_MTurk/v2_DepthDuration_HTML.html#15,15,1366,768,1366,768,8-21-2022,9-36-4,156,depth_duration_stimuli/000749_2014-06-08_21-55-06_260595134347_rgbf000070-resize_2/000749_2014-06-08_21-55-06_260595134347_rgbf000070-resize_2-target.png,125,2.331,6,2516,120,feet,jsons/VE125_randls_58.json,700828,1058059,40,Man
156,762610,DepthScenes,duration_manipulation_targetAtFixation,jsons/VE125_randls_58.json,http://54.235.29.9/FacialAge/BNav_EC2/DepthDuration/v2_depth_duration_MTurk/v2_DepthDuration_HTML.html#15,15,1366,768,1366,768,8-21-2022,9-36-4,157,depth_duration_stimuli/002153_2014-06-25_21-27-18_260595134347_rgbf000038-resize_5/002153_2014-06-25_21-27-18_260595134347_rgbf000038-resize_5-target.png,125,2.505,7,2246,120,feet,jsons/VE125_randls_58.json,700828,1058059,40,Man
157,762610,DepthScenes,duration_manipulation_targetAtFixation,jsons/VE125_randls_58.json,http://54.235.29.9/FacialAge/BNav_EC2/DepthDuration/v2_depth_duration_MTurk/v2_DepthDuration_HTML.html#15,15,1366,768,1366,768,8-21-2022,9-36-4,158,depth_duration_stimuli/002660_2014-06-13_15-44-18_094959634447_rgbf001878-resize_2/002660_2014-06-13_15-44-18_094959634447_rgbf001878-resize_2-target.png,125,3.576,11,3045,122,feet,jsons/VE125_randls_58.json,700828,1058059,40,Man
158,762610,DepthScenes,duration_manipulation_targetAtFixation,jsons/VE125_randls_58.json,http://54.235.29.9/FacialAge/BNav_EC2/DepthDuration/v2_depth_duration_MTurk/v2_DepthDuration_HTML.html#15,15,1366,768,1366,768,8-21-2022,9-36-4,159,depth_duration_stimuli/001808_2014-06-26_20-50-58_260595134347_rgbf000029-resize_1/001808_2014-06-26_20-50-58_260595134347_rgbf000029-resize_1-target.png,125,4.249,14,3206,123,feet,jsons/VE125_randls_58.json,700828,1058059,40,Man
159,762610,DepthScenes,duration_manipulation_targetAtFixation,jsons/VE125_randls_58.json,http://54.235.29.9/FacialAge/BNav_EC2/DepthDuration/v2_depth_duration_MTurk/v2_DepthDuration_HTML.html#15,15,1366,768,1366,768,8-21-2022,9-36-4,160,depth_duration_stimuli/001815_2014-06-26_20-52-55_260595134347_rgbf000020-resize_0/001815_2014-06-26_20-52-55_260595134347_rgbf000020-resize_0-target.png,125,3.3865,9,4732,119,feet,jsons/VE125_randls_58.json,700828,1058059,40,Man
160,762610,DepthScenes,duration_manipulation_targetAtFixation,jsons/VE125_randls_58.json,http://54.235.29.9/FacialAge/BNav_EC2/DepthDuration/v2_depth_duration_MTurk/v2_DepthDuration_HTML.html#15,15,1366,768,1366,768,8-21-2022,9-36-4,161,depth_duration_stimuli/001570_2014-06-20_17-21-09_260595134347_rgbf000135-resize_4/001570_2014-06-20_17-21-09_260595134347_rgbf000135-resize_4-target.png,125,4.467,13,4160,123,feet,jsons/VE125_randls_58.json,700828,1058059,40,Man
161,762610,DepthScenes,duration_manipulation_targetAtFixation,jsons/VE125_randls_58.json,http://54.235.29.9/FacialAge/BNav_EC2/DepthDuration/v2_depth_duration_MTurk/v2_DepthDuration_HTML.html#15,15,1366,768,1366,768,8-21-2022,9-36-4,162,depth_duration_stimuli/001392_2014-06-19_16-07-59_260595134347_rgbf000046-resize_1/001392_2014-06-19_16-07-59_260595134347_rgbf000046-resize_1-target.png,125,4.135,12,4051,123,feet,jsons/VE125_randls_58.json,700828,1058059,40,Man
162,762610,DepthScenes,duration_manipulation_targetAtFixation,jsons/VE125_randls_58.json,http://54.235.29.9/FacialAge/BNav_EC2/DepthDuration/v2_depth_duration_MTurk/v2_DepthDuration_HTML.html#15,15,1366,768,1366,768,8-21-2022,9-36-4,163,depth_duration_stimuli/001066_2014-06-08_22-03-20_260595134347_rgbf000066-resize_4/001066_2014-06-08_22-03-20_260595134347_rgbf000066-resize_4-target.png,125,4.2330000000000005,10,3941,123,feet,jsons/VE125_randls_58.json,700828,1058059,40,Man
163,762610,DepthScenes,duration_manipulation_targetAtFixation,jsons/VE125_randls_58.json,http://54.235.29.9/FacialAge/BNav_EC2/DepthDuration/v2_depth_duration_MTurk/v2_DepthDuration_HTML.html#15,15,1366,768,1366,768,8-21-2022,9-36-4,164,depth_duration_stimuli/000742_2014-06-08_18-48-09_260595134347_rgbf000164-resize_4/000742_2014-06-08_18-48-09_260595134347_rgbf000164-resize_4-target.png,125,4.632,7,3289,124,feet,jsons/VE125_randls_58.json,700828,1058059,40,Man
