,subjID,experimentName,versionName,sequenceName,url,selected_row,windowWidth,windowHeight,screenWidth,screenHeight,startDate,startTime,trial,stimulus,duration,actual_depth,depth_estimate,trial_RT,log_sceneDuration,unitSelection,seq_filepath,experimentTime,totalTime,age,gender
0,767902,DepthScenes,duration_manipulation_targetAtFixation,jsons/v1_VE250_randls_28_rotated.json,http://54.235.29.9/FacialAge/BNav_EC2/DepthDuration/v2_depth_duration_MTurk/v2_DepthDuration_HTML.html#72,72,1524,728,1536,864,8-20-2022,11-28-6,1,depth_duration_stimuli/002136_2014-06-25_21-18-03_260595134347_rgbf000109-resize_3/002136_2014-06-25_21-18-03_260595134347_rgbf000109-resize_3-target.png,250,1.9569999999999999,20,4352,241,feet,jsons/v1_VE250_randls_28_rotated.json,1123395,1415709,48,Woman
1,767902,DepthScenes,duration_manipulation_targetAtFixation,jsons/v1_VE250_randls_28_rotated.json,http://54.235.29.9/FacialAge/BNav_EC2/DepthDuration/v2_depth_duration_MTurk/v2_DepthDuration_HTML.html#72,72,1524,728,1536,864,8-20-2022,11-28-6,2,depth_duration_stimuli/002964_2014-06-08_17-46-11_094959634447_rgbf000091-resize_4/002964_2014-06-08_17-46-11_094959634447_rgbf000091-resize_4-target.png,250,1.6909999999999998,17,5478,237,feet,jsons/v1_VE250_randls_28_rotated.json,1123395,1415709,48,Woman
2,767902,DepthScenes,duration_manipulation_targetAtFixation,jsons/v1_VE250_randls_28_rotated.json,http://54.235.29.9/FacialAge/BNav_EC2/DepthDuration/v2_depth_duration_MTurk/v2_DepthDuration_HTML.html#72,72,1524,728,1536,864,8-20-2022,11-28-6,3,depth_duration_stimuli/000866_2014-06-09_20-45-42_260595134347_rgbf000139-resize_1/000866_2014-06-09_20-45-42_260595134347_rgbf000139-resize_1-target.png,250,3.2155,55,4393,256,feet,jsons/v1_VE250_randls_28_rotated.json,1123395,1415709,48,Woman
3,767902,DepthScenes,duration_manipulation_targetAtFixation,jsons/v1_VE250_randls_28_rotated.json,http://54.235.29.9/FacialAge/BNav_EC2/DepthDuration/v2_depth_duration_MTurk/v2_DepthDuration_HTML.html#72,72,1524,728,1536,864,8-20-2022,11-28-6,4,depth_duration_stimuli/002989_2014-06-15_12-25-03_094959634447_rgbf000150-resize_3/002989_2014-06-15_12-25-03_094959634447_rgbf000150-resize_3-target.png,250,4.1975,75,4280,238,feet,jsons/v1_VE250_randls_28_rotated.json,1123395,1415709,48,Woman
4,767902,DepthScenes,duration_manipulation_targetAtFixation,jsons/v1_VE250_randls_28_rotated.json,http://54.235.29.9/FacialAge/BNav_EC2/DepthDuration/v2_depth_duration_MTurk/v2_DepthDuration_HTML.html#72,72,1524,728,1536,864,8-20-2022,11-28-6,5,depth_duration_stimuli/000409_2014-06-04_19-23-33_260595134347_rgbf000067-resize_0/000409_2014-06-04_19-23-33_260595134347_rgbf000067-resize_0-target.png,250,3.7335,70,6561,246,feet,jsons/v1_VE250_randls_28_rotated.json,1123395,1415709,48,Woman
5,767902,DepthScenes,duration_manipulation_targetAtFixation,jsons/v1_VE250_randls_28_rotated.json,http://54.235.29.9/FacialAge/BNav_EC2/DepthDuration/v2_depth_duration_MTurk/v2_DepthDuration_HTML.html#72,72,1524,728,1536,864,8-20-2022,11-28-6,6,depth_duration_stimuli/002663_2014-06-13_15-50-26_094959634447_rgbf000075-resize_1/002663_2014-06-13_15-50-26_094959634447_rgbf000075-resize_1-target.png,250,4.7495,72,6866,255,feet,jsons/v1_VE250_randls_28_rotated.json,1123395,1415709,48,Woman
6,767902,DepthScenes,duration_manipulation_targetAtFixation,jsons/v1_VE250_randls_28_rotated.json,http://54.235.29.9/FacialAge/BNav_EC2/DepthDuration/v2_depth_duration_MTurk/v2_DepthDuration_HTML.html#72,72,1524,728,1536,864,8-20-2022,11-28-6,7,depth_duration_stimuli/003495_2014-05-21_16-01-51_094959634447_rgbf000100-resize_3/003495_2014-05-21_16-01-51_094959634447_rgbf000100-resize_3-target.png,250,1.6255,30,5066,249,feet,jsons/v1_VE250_randls_28_rotated.json,1123395,1415709,48,Woman
7,767902,DepthScenes,duration_manipulation_targetAtFixation,jsons/v1_VE250_randls_28_rotated.json,http://54.235.29.9/FacialAge/BNav_EC2/DepthDuration/v2_depth_duration_MTurk/v2_DepthDuration_HTML.html#72,72,1524,728,1536,864,8-20-2022,11-28-6,8,depth_duration_stimuli/001244_2014-06-17_16-47-45_260595134347_rgbf000030-resize_4/001244_2014-06-17_16-47-45_260595134347_rgbf000030-resize_4-target.png,250,2.0425,42,4911,240,feet,jsons/v1_VE250_randls_28_rotated.json,1123395,1415709,48,Woman
8,767902,DepthScenes,duration_manipulation_targetAtFixation,jsons/v1_VE250_randls_28_rotated.json,http://54.235.29.9/FacialAge/BNav_EC2/DepthDuration/v2_depth_duration_MTurk/v2_DepthDuration_HTML.html#72,72,1524,728,1536,864,8-20-2022,11-28-6,9,depth_duration_stimuli/000854_2014-06-09_19-43-13_260595134347_rgbf000066-resize_0/000854_2014-06-09_19-43-13_260595134347_rgbf000066-resize_0-target.png,250,3.068,35,4701,241,feet,jsons/v1_VE250_randls_28_rotated.json,1123395,1415709,48,Woman
9,767902,DepthScenes,duration_manipulation_targetAtFixation,jsons/v1_VE250_randls_28_rotated.json,http://54.235.29.9/FacialAge/BNav_EC2/DepthDuration/v2_depth_duration_MTurk/v2_DepthDuration_HTML.html#72,72,1524,728,1536,864,8-20-2022,11-28-6,10,depth_duration_stimuli/000758_2014-06-08_22-05-08_260595134347_rgbf000085-resize_0/000758_2014-06-08_22-05-08_260595134347_rgbf000085-resize_0-target.png,250,3.3810000000000002,70,5660,230,feet,jsons/v1_VE250_randls_28_rotated.json,1123395,1415709,48,Woman
10,767902,DepthScenes,duration_manipulation_targetAtFixation,jsons/v1_VE250_randls_28_rotated.json,http://54.235.29.9/FacialAge/BNav_EC2/DepthDuration/v2_depth_duration_MTurk/v2_DepthDuration_HTML.html#72,72,1524,728,1536,864,8-20-2022,11-28-6,11,depth_duration_stimuli/001450_2014-06-19_17-02-03_260595134347_rgbf000203-resize_4/001450_2014-06-19_17-02-03_260595134347_rgbf000203-resize_4-target.png,250,4.0106666666667,85,4088,255,feet,jsons/v1_VE250_randls_28_rotated.json,1123395,1415709,48,Woman
11,767902,DepthScenes,duration_manipulation_targetAtFixation,jsons/v1_VE250_randls_28_rotated.json,http://54.235.29.9/FacialAge/BNav_EC2/DepthDuration/v2_depth_duration_MTurk/v2_DepthDuration_HTML.html#72,72,1524,728,1536,864,8-20-2022,11-28-6,12,depth_duration_stimuli/001449_2014-06-19_17-01-27_260595134347_rgbf000116-resize_2/001449_2014-06-19_17-01-27_260595134347_rgbf000116-resize_2-target.png,250,3.452,80,5612,242,feet,jsons/v1_VE250_randls_28_rotated.json,1123395,1415709,48,Woman
12,767902,DepthScenes,duration_manipulation_targetAtFixation,jsons/v1_VE250_randls_28_rotated.json,http://54.235.29.9/FacialAge/BNav_EC2/DepthDuration/v2_depth_duration_MTurk/v2_DepthDuration_HTML.html#72,72,1524,728,1536,864,8-20-2022,11-28-6,13,depth_duration_stimuli/001617_2014-06-20_11-35-32_260595134347_rgbf000066-resize_1/001617_2014-06-20_11-35-32_260595134347_rgbf000066-resize_1-target.png,250,3.7910000000000004,85,5527,236,feet,jsons/v1_VE250_randls_28_rotated.json,1123395,1415709,48,Woman
13,767902,DepthScenes,duration_manipulation_targetAtFixation,jsons/v1_VE250_randls_28_rotated.json,http://54.235.29.9/FacialAge/BNav_EC2/DepthDuration/v2_depth_duration_MTurk/v2_DepthDuration_HTML.html#72,72,1524,728,1536,864,8-20-2022,11-28-6,14,depth_duration_stimuli/001806_2014-06-26_20-50-20_260595134347_rgbf000091-resize_1/001806_2014-06-26_20-50-20_260595134347_rgbf000091-resize_1-target.png,250,2.7305,38,6087,249,feet,jsons/v1_VE250_randls_28_rotated.json,1123395,1415709,48,Woman
14,767902,DepthScenes,duration_manipulation_targetAtFixation,jsons/v1_VE250_randls_28_rotated.json,http://54.235.29.9/FacialAge/BNav_EC2/DepthDuration/v2_depth_duration_MTurk/v2_DepthDuration_HTML.html#72,72,1524,728,1536,864,8-20-2022,11-28-6,15,depth_duration_stimuli/002750_2014-06-22_19-08-03_094959634447_rgbf000094-resize_4/002750_2014-06-22_19-08-03_094959634447_rgbf000094-resize_4-target.png,250,2.354,50,4858,239,feet,jsons/v1_VE250_randls_28_rotated.json,1123395,1415709,48,Woman
15,767902,DepthScenes,duration_manipulation_targetAtFixation,jsons/v1_VE250_randls_28_rotated.json,http://54.235.29.9/FacialAge/BNav_EC2/DepthDuration/v2_depth_duration_MTurk/v2_DepthDuration_HTML.html#72,72,1524,728,1536,864,8-20-2022,11-28-6,16,depth_duration_stimuli/002549_2014-06-24_13-41-39_094959634447_rgbf000022-resize_3/002549_2014-06-24_13-41-39_094959634447_rgbf000022-resize_3-target.png,250,1.476,51,8106,254,feet,jsons/v1_VE250_randls_28_rotated.json,1123395,1415709,48,Woman
16,767902,DepthScenes,duration_manipulation_targetAtFixation,jsons/v1_VE250_randls_28_rotated.json,http://54.235.29.9/FacialAge/BNav_EC2/DepthDuration/v2_depth_duration_MTurk/v2_DepthDuration_HTML.html#72,72,1524,728,1536,864,8-20-2022,11-28-6,17,depth_duration_stimuli/003423_2014-05-21_10-23-26_094959634447_rgbf002665-resize_2/003423_2014-05-21_10-23-26_094959634447_rgbf002665-resize_2-target.png,250,3.2575,80,3879,243,feet,jsons/v1_VE250_randls_28_rotated.json,1123395,1415709,48,Woman
17,767902,DepthScenes,duration_manipulation_targetAtFixation,jsons/v1_VE250_randls_28_rotated.json,http://54.235.29.9/FacialAge/BNav_EC2/DepthDuration/v2_depth_duration_MTurk/v2_DepthDuration_HTML.html#72,72,1524,728,1536,864,8-20-2022,11-28-6,18,depth_duration_stimuli/002905_2014-06-03_18-04-43_094959634447_rgbf000151-resize_2/002905_2014-06-03_18-04-43_094959634447_rgbf000151-resize_2-target.png,250,2.0295,44,4653,243,feet,jsons/v1_VE250_randls_28_rotated.json,1123395,1415709,48,Woman
18,767902,DepthScenes,duration_manipulation_targetAtFixation,jsons/v1_VE250_randls_28_rotated.json,http://54.235.29.9/FacialAge/BNav_EC2/DepthDuration/v2_depth_duration_MTurk/v2_DepthDuration_HTML.html#72,72,1524,728,1536,864,8-20-2022,11-28-6,19,depth_duration_stimuli/001498_2014-06-19_17-45-14_260595134347_rgbf000129-resize_4/001498_2014-06-19_17-45-14_260595134347_rgbf000129-resize-original.jpg,250,1.4075,0,4100,256,feet,jsons/v1_VE250_randls_28_rotated.json,1123395,1415709,48,Woman
19,767902,DepthScenes,duration_manipulation_targetAtFixation,jsons/v1_VE250_randls_28_rotated.json,http://54.235.29.9/FacialAge/BNav_EC2/DepthDuration/v2_depth_duration_MTurk/v2_DepthDuration_HTML.html#72,72,1524,728,1536,864,8-20-2022,11-28-6,20,depth_duration_stimuli/000137_2014-05-20_17-04-49_260595134347_rgbf000120-resize_1/000137_2014-05-20_17-04-49_260595134347_rgbf000120-resize_1-target.png,250,3.786,75,4755,244,feet,jsons/v1_VE250_randls_28_rotated.json,1123395,1415709,48,Woman
20,767902,DepthScenes,duration_manipulation_targetAtFixation,jsons/v1_VE250_randls_28_rotated.json,http://54.235.29.9/FacialAge/BNav_EC2/DepthDuration/v2_depth_duration_MTurk/v2_DepthDuration_HTML.html#72,72,1524,728,1536,864,8-20-2022,11-28-6,21,depth_duration_stimuli/000736_2014-06-08_18-24-15_260595134347_rgbf000206-resize_3/000736_2014-06-08_18-24-15_260595134347_rgbf000206-resize_3-target.png,250,3.515,60,4249,239,feet,jsons/v1_VE250_randls_28_rotated.json,1123395,1415709,48,Woman
21,767902,DepthScenes,duration_manipulation_targetAtFixation,jsons/v1_VE250_randls_28_rotated.json,http://54.235.29.9/FacialAge/BNav_EC2/DepthDuration/v2_depth_duration_MTurk/v2_DepthDuration_HTML.html#72,72,1524,728,1536,864,8-20-2022,11-28-6,22,depth_duration_stimuli/000709_2014-06-08_13-51-55_260595134347_rgbf000068-resize_3/000709_2014-06-08_13-51-55_260595134347_rgbf000068-resize_3-target.png,250,1.8030000000000002,80,7096,258,feet,jsons/v1_VE250_randls_28_rotated.json,1123395,1415709,48,Woman
22,767902,DepthScenes,duration_manipulation_targetAtFixation,jsons/v1_VE250_randls_28_rotated.json,http://54.235.29.9/FacialAge/BNav_EC2/DepthDuration/v2_depth_duration_MTurk/v2_DepthDuration_HTML.html#72,72,1524,728,1536,864,8-20-2022,11-28-6,23,depth_duration_stimuli/002057_2014-06-24_21-00-13_260595134347_rgbf000120-resize_1/002057_2014-06-24_21-00-13_260595134347_rgbf000120-resize_1-target.png,250,2.967,55,6059,260,feet,jsons/v1_VE250_randls_28_rotated.json,1123395,1415709,48,Woman
23,767902,DepthScenes,duration_manipulation_targetAtFixation,jsons/v1_VE250_randls_28_rotated.json,http://54.235.29.9/FacialAge/BNav_EC2/DepthDuration/v2_depth_duration_MTurk/v2_DepthDuration_HTML.html#72,72,1524,728,1536,864,8-20-2022,11-28-6,24,depth_duration_stimuli/002209_2014-06-28_18-36-10_260595134347_rgbf000051-resize_1/002209_2014-06-28_18-36-10_260595134347_rgbf000051-resize_1-target.png,250,2.057,35,3871,242,feet,jsons/v1_VE250_randls_28_rotated.json,1123395,1415709,48,Woman
24,767902,DepthScenes,duration_manipulation_targetAtFixation,jsons/v1_VE250_randls_28_rotated.json,http://54.235.29.9/FacialAge/BNav_EC2/DepthDuration/v2_depth_duration_MTurk/v2_DepthDuration_HTML.html#72,72,1524,728,1536,864,8-20-2022,11-28-6,25,depth_duration_stimuli/002763_2014-06-22_19-13-10_094959634447_rgbf000075-resize_4/002763_2014-06-22_19-13-10_094959634447_rgbf000075-resize_4-target.png,250,1.68375,40,4927,251,feet,jsons/v1_VE250_randls_28_rotated.json,1123395,1415709,48,Woman
25,767902,DepthScenes,duration_manipulation_targetAtFixation,jsons/v1_VE250_randls_28_rotated.json,http://54.235.29.9/FacialAge/BNav_EC2/DepthDuration/v2_depth_duration_MTurk/v2_DepthDuration_HTML.html#72,72,1524,728,1536,864,8-20-2022,11-28-6,26,depth_duration_stimuli/000191_2014-05-12_17-07-38_260595134347_rgbf000199-resize_0/000191_2014-05-12_17-07-38_260595134347_rgbf000199-resize_0-target.png,250,3.7995,89,6219,251,feet,jsons/v1_VE250_randls_28_rotated.json,1123395,1415709,48,Woman
26,767902,DepthScenes,duration_manipulation_targetAtFixation,jsons/v1_VE250_randls_28_rotated.json,http://54.235.29.9/FacialAge/BNav_EC2/DepthDuration/v2_depth_duration_MTurk/v2_DepthDuration_HTML.html#72,72,1524,728,1536,864,8-20-2022,11-28-6,27,depth_duration_stimuli/000493_2014-06-09_21-01-18_260595134347_rgbf000196-resize_3/000493_2014-06-09_21-01-18_260595134347_rgbf000196-resize_3-target.png,250,3.44,73,8676,253,feet,jsons/v1_VE250_randls_28_rotated.json,1123395,1415709,48,Woman
27,767902,DepthScenes,duration_manipulation_targetAtFixation,jsons/v1_VE250_randls_28_rotated.json,http://54.235.29.9/FacialAge/BNav_EC2/DepthDuration/v2_depth_duration_MTurk/v2_DepthDuration_HTML.html#72,72,1524,728,1536,864,8-20-2022,11-28-6,28,depth_duration_stimuli/001650_2014-06-20_12-09-00_260595134347_rgbf000087-resize_3/001650_2014-06-20_12-09-00_260595134347_rgbf000087-resize_3-target.png,250,1.9505,25,4985,240,feet,jsons/v1_VE250_randls_28_rotated.json,1123395,1415709,48,Woman
28,767902,DepthScenes,duration_manipulation_targetAtFixation,jsons/v1_VE250_randls_28_rotated.json,http://54.235.29.9/FacialAge/BNav_EC2/DepthDuration/v2_depth_duration_MTurk/v2_DepthDuration_HTML.html#72,72,1524,728,1536,864,8-20-2022,11-28-6,29,depth_duration_stimuli/000682_2014-06-08_23-14-58_260595134347_rgbf000041-resize_5/000682_2014-06-08_23-14-58_260595134347_rgbf000041-resize_5-target.png,250,2.7239999999999998,40,4258,227,feet,jsons/v1_VE250_randls_28_rotated.json,1123395,1415709,48,Woman
29,767902,DepthScenes,duration_manipulation_targetAtFixation,jsons/v1_VE250_randls_28_rotated.json,http://54.235.29.9/FacialAge/BNav_EC2/DepthDuration/v2_depth_duration_MTurk/v2_DepthDuration_HTML.html#72,72,1524,728,1536,864,8-20-2022,11-28-6,30,depth_duration_stimuli/002072_2014-06-24_21-48-06_260595134347_rgbf000115-resize_0/002072_2014-06-24_21-48-06_260595134347_rgbf000115-resize-original.jpg,250,4.702,0,3501,249,feet,jsons/v1_VE250_randls_28_rotated.json,1123395,1415709,48,Woman
30,767902,DepthScenes,duration_manipulation_targetAtFixation,jsons/v1_VE250_randls_28_rotated.json,http://54.235.29.9/FacialAge/BNav_EC2/DepthDuration/v2_depth_duration_MTurk/v2_DepthDuration_HTML.html#72,72,1524,728,1536,864,8-20-2022,11-28-6,31,depth_duration_stimuli/000943_2014-06-09_19-31-07_260595134347_rgbf000128-resize_1/000943_2014-06-09_19-31-07_260595134347_rgbf000128-resize_1-target.png,250,1.9765,45,5149,254,feet,jsons/v1_VE250_randls_28_rotated.json,1123395,1415709,48,Woman
31,767902,DepthScenes,duration_manipulation_targetAtFixation,jsons/v1_VE250_randls_28_rotated.json,http://54.235.29.9/FacialAge/BNav_EC2/DepthDuration/v2_depth_duration_MTurk/v2_DepthDuration_HTML.html#72,72,1524,728,1536,864,8-20-2022,11-28-6,32,depth_duration_stimuli/003070_2014-06-15_14-58-27_094959634447_rgbf000150-resize_3/003070_2014-06-15_14-58-27_094959634447_rgbf000150-resize_3-target.png,250,2.9415,43,20902,253,feet,jsons/v1_VE250_randls_28_rotated.json,1123395,1415709,48,Woman
32,767902,DepthScenes,duration_manipulation_targetAtFixation,jsons/v1_VE250_randls_28_rotated.json,http://54.235.29.9/FacialAge/BNav_EC2/DepthDuration/v2_depth_duration_MTurk/v2_DepthDuration_HTML.html#72,72,1524,728,1536,864,8-20-2022,11-28-6,33,depth_duration_stimuli/000635_2014-06-08_16-38-42_260595134347_rgbf000106-resize_1/000635_2014-06-08_16-38-42_260595134347_rgbf000106-resize_1-target.png,250,2.074,60,7743,263,feet,jsons/v1_VE250_randls_28_rotated.json,1123395,1415709,48,Woman
33,767902,DepthScenes,duration_manipulation_targetAtFixation,jsons/v1_VE250_randls_28_rotated.json,http://54.235.29.9/FacialAge/BNav_EC2/DepthDuration/v2_depth_duration_MTurk/v2_DepthDuration_HTML.html#72,72,1524,728,1536,864,8-20-2022,11-28-6,34,depth_duration_stimuli/002279_2014-06-28_18-55-32_260595134347_rgbf000040-resize_5/002279_2014-06-28_18-55-32_260595134347_rgbf000040-resize_5-target.png,250,1.5043333333333,34,4327,250,feet,jsons/v1_VE250_randls_28_rotated.json,1123395,1415709,48,Woman
34,767902,DepthScenes,duration_manipulation_targetAtFixation,jsons/v1_VE250_randls_28_rotated.json,http://54.235.29.9/FacialAge/BNav_EC2/DepthDuration/v2_depth_duration_MTurk/v2_DepthDuration_HTML.html#72,72,1524,728,1536,864,8-20-2022,11-28-6,35,depth_duration_stimuli/002340_2014-06-28_20-05-46_260595134347_rgbf000113-resize_0/002340_2014-06-28_20-05-46_260595134347_rgbf000113-resize_0-target.png,250,2.4735,80,6750,254,feet,jsons/v1_VE250_randls_28_rotated.json,1123395,1415709,48,Woman
35,767902,DepthScenes,duration_manipulation_targetAtFixation,jsons/v1_VE250_randls_28_rotated.json,http://54.235.29.9/FacialAge/BNav_EC2/DepthDuration/v2_depth_duration_MTurk/v2_DepthDuration_HTML.html#72,72,1524,728,1536,864,8-20-2022,11-28-6,36,depth_duration_stimuli/001016_2014-06-09_16-16-10_260595134347_rgbf000112-resize_5/001016_2014-06-09_16-16-10_260595134347_rgbf000112-resize_5-target.png,250,1.6565,40,5918,250,feet,jsons/v1_VE250_randls_28_rotated.json,1123395,1415709,48,Woman
36,767902,DepthScenes,duration_manipulation_targetAtFixation,jsons/v1_VE250_randls_28_rotated.json,http://54.235.29.9/FacialAge/BNav_EC2/DepthDuration/v2_depth_duration_MTurk/v2_DepthDuration_HTML.html#72,72,1524,728,1536,864,8-20-2022,11-28-6,37,depth_duration_stimuli/003587_2014-05-23_16-48-02_094959634447_rgbf002384-resize_2/003587_2014-05-23_16-48-02_094959634447_rgbf002384-resize_2-target.png,250,1.357,17,4643,244,feet,jsons/v1_VE250_randls_28_rotated.json,1123395,1415709,48,Woman
37,767902,DepthScenes,duration_manipulation_targetAtFixation,jsons/v1_VE250_randls_28_rotated.json,http://54.235.29.9/FacialAge/BNav_EC2/DepthDuration/v2_depth_duration_MTurk/v2_DepthDuration_HTML.html#72,72,1524,728,1536,864,8-20-2022,11-28-6,38,depth_duration_stimuli/001167_2014-06-17_15-38-07_260595134347_rgbf000108-resize_0/001167_2014-06-17_15-38-07_260595134347_rgbf000108-resize_0-target.png,250,1.8505,25,13222,253,feet,jsons/v1_VE250_randls_28_rotated.json,1123395,1415709,48,Woman
38,767902,DepthScenes,duration_manipulation_targetAtFixation,jsons/v1_VE250_randls_28_rotated.json,http://54.235.29.9/FacialAge/BNav_EC2/DepthDuration/v2_depth_duration_MTurk/v2_DepthDuration_HTML.html#72,72,1524,728,1536,864,8-20-2022,11-28-6,39,depth_duration_stimuli/002657_2014-06-13_15-29-54_094959634447_rgbf000150-resize_1/002657_2014-06-13_15-29-54_094959634447_rgbf000150-resize_1-target.png,250,4.919,50,5056,249,feet,jsons/v1_VE250_randls_28_rotated.json,1123395,1415709,48,Woman
39,767902,DepthScenes,duration_manipulation_targetAtFixation,jsons/v1_VE250_randls_28_rotated.json,http://54.235.29.9/FacialAge/BNav_EC2/DepthDuration/v2_depth_duration_MTurk/v2_DepthDuration_HTML.html#72,72,1524,728,1536,864,8-20-2022,11-28-6,40,depth_duration_stimuli/002375_2014-06-28_20-13-44_260595134347_rgbf000032-resize_1/002375_2014-06-28_20-13-44_260595134347_rgbf000032-resize_1-target.png,250,4.0175,43,11677,254,feet,jsons/v1_VE250_randls_28_rotated.json,1123395,1415709,48,Woman
40,767902,DepthScenes,duration_manipulation_targetAtFixation,jsons/v1_VE250_randls_28_rotated.json,http://54.235.29.9/FacialAge/BNav_EC2/DepthDuration/v2_depth_duration_MTurk/v2_DepthDuration_HTML.html#72,72,1524,728,1536,864,8-20-2022,11-28-6,41,depth_duration_stimuli/000665_2014-06-09_20-42-35_260595134347_rgbf000110-resize_1/000665_2014-06-09_20-42-35_260595134347_rgbf000110-resize_1-target.png,250,3.057,19,9196,262,feet,jsons/v1_VE250_randls_28_rotated.json,1123395,1415709,48,Woman
41,767902,DepthScenes,duration_manipulation_targetAtFixation,jsons/v1_VE250_randls_28_rotated.json,http://54.235.29.9/FacialAge/BNav_EC2/DepthDuration/v2_depth_duration_MTurk/v2_DepthDuration_HTML.html#72,72,1524,728,1536,864,8-20-2022,11-28-6,42,depth_duration_stimuli/001150_2014-06-17_15-27-34_260595134347_rgbf000108-resize_2/001150_2014-06-17_15-27-34_260595134347_rgbf000108-resize_2-target.png,250,4.0325,0,5564,249,feet,jsons/v1_VE250_randls_28_rotated.json,1123395,1415709,48,Woman
42,767902,DepthScenes,duration_manipulation_targetAtFixation,jsons/v1_VE250_randls_28_rotated.json,http://54.235.29.9/FacialAge/BNav_EC2/DepthDuration/v2_depth_duration_MTurk/v2_DepthDuration_HTML.html#72,72,1524,728,1536,864,8-20-2022,11-28-6,43,depth_duration_stimuli/002199_2014-06-28_18-33-56_260595134347_rgbf000074-resize_0/002199_2014-06-28_18-33-56_260595134347_rgbf000074-resize_0-target.png,250,1.996,20,6958,264,feet,jsons/v1_VE250_randls_28_rotated.json,1123395,1415709,48,Woman
43,767902,DepthScenes,duration_manipulation_targetAtFixation,jsons/v1_VE250_randls_28_rotated.json,http://54.235.29.9/FacialAge/BNav_EC2/DepthDuration/v2_depth_duration_MTurk/v2_DepthDuration_HTML.html#72,72,1524,728,1536,864,8-20-2022,11-28-6,44,depth_duration_stimuli/001056_2014-06-08_18-46-44_260595134347_rgbf000068-resize_0/001056_2014-06-08_18-46-44_260595134347_rgbf000068-resize_0-target.png,250,2.6625,35,4074,250,feet,jsons/v1_VE250_randls_28_rotated.json,1123395,1415709,48,Woman
44,767902,DepthScenes,duration_manipulation_targetAtFixation,jsons/v1_VE250_randls_28_rotated.json,http://54.235.29.9/FacialAge/BNav_EC2/DepthDuration/v2_depth_duration_MTurk/v2_DepthDuration_HTML.html#72,72,1524,728,1536,864,8-20-2022,11-28-6,45,depth_duration_stimuli/002660_2014-06-13_15-44-18_094959634447_rgbf001878-resize_2/002660_2014-06-13_15-44-18_094959634447_rgbf001878-resize_2-target.png,250,3.576,50,8033,249,feet,jsons/v1_VE250_randls_28_rotated.json,1123395,1415709,48,Woman
45,767902,DepthScenes,duration_manipulation_targetAtFixation,jsons/v1_VE250_randls_28_rotated.json,http://54.235.29.9/FacialAge/BNav_EC2/DepthDuration/v2_depth_duration_MTurk/v2_DepthDuration_HTML.html#72,72,1524,728,1536,864,8-20-2022,11-28-6,46,depth_duration_stimuli/002153_2014-06-25_21-27-18_260595134347_rgbf000038-resize_5/002153_2014-06-25_21-27-18_260595134347_rgbf000038-resize_5-target.png,250,2.505,40,6063,251,feet,jsons/v1_VE250_randls_28_rotated.json,1123395,1415709,48,Woman
46,767902,DepthScenes,duration_manipulation_targetAtFixation,jsons/v1_VE250_randls_28_rotated.json,http://54.235.29.9/FacialAge/BNav_EC2/DepthDuration/v2_depth_duration_MTurk/v2_DepthDuration_HTML.html#72,72,1524,728,1536,864,8-20-2022,11-28-6,47,depth_duration_stimuli/002323_2014-06-28_20-01-54_260595134347_rgbf000051-resize_4/002323_2014-06-28_20-01-54_260595134347_rgbf000051-resize_4-target.png,250,3.7310000000000003,70,6938,265,feet,jsons/v1_VE250_randls_28_rotated.json,1123395,1415709,48,Woman
47,767902,DepthScenes,duration_manipulation_targetAtFixation,jsons/v1_VE250_randls_28_rotated.json,http://54.235.29.9/FacialAge/BNav_EC2/DepthDuration/v2_depth_duration_MTurk/v2_DepthDuration_HTML.html#72,72,1524,728,1536,864,8-20-2022,11-28-6,48,depth_duration_stimuli/000917_2014-06-09_22-45-29_260595134347_rgbf000149-resize_3/000917_2014-06-09_22-45-29_260595134347_rgbf000149-resize_3-target.png,250,4.1865,65,6576,248,feet,jsons/v1_VE250_randls_28_rotated.json,1123395,1415709,48,Woman
48,767902,DepthScenes,duration_manipulation_targetAtFixation,jsons/v1_VE250_randls_28_rotated.json,http://54.235.29.9/FacialAge/BNav_EC2/DepthDuration/v2_depth_duration_MTurk/v2_DepthDuration_HTML.html#72,72,1524,728,1536,864,8-20-2022,11-28-6,49,depth_duration_stimuli/001170_2014-06-17_15-43-44_260595134347_rgbf000096-resize_6/001170_2014-06-17_15-43-44_260595134347_rgbf000096-resize-original.jpg,250,1.1909999999999998,0,6595,218,feet,jsons/v1_VE250_randls_28_rotated.json,1123395,1415709,48,Woman
49,767902,DepthScenes,duration_manipulation_targetAtFixation,jsons/v1_VE250_randls_28_rotated.json,http://54.235.29.9/FacialAge/BNav_EC2/DepthDuration/v2_depth_duration_MTurk/v2_DepthDuration_HTML.html#72,72,1524,728,1536,864,8-20-2022,11-28-6,50,depth_duration_stimuli/003081_2014-06-15_15-19-16_094959634447_rgbf000150-resize_1/003081_2014-06-15_15-19-16_094959634447_rgbf000150-resize_1-target.png,250,3.9125,60,5464,250,feet,jsons/v1_VE250_randls_28_rotated.json,1123395,1415709,48,Woman
50,767902,DepthScenes,duration_manipulation_targetAtFixation,jsons/v1_VE250_randls_28_rotated.json,http://54.235.29.9/FacialAge/BNav_EC2/DepthDuration/v2_depth_duration_MTurk/v2_DepthDuration_HTML.html#72,72,1524,728,1536,864,8-20-2022,11-28-6,51,depth_duration_stimuli/001417_2014-06-19_16-25-36_260595134347_rgbf000115-resize_5/001417_2014-06-19_16-25-36_260595134347_rgbf000115-resize_5-target.png,250,4.6255,70,4096,247,feet,jsons/v1_VE250_randls_28_rotated.json,1123395,1415709,48,Woman
51,767902,DepthScenes,duration_manipulation_targetAtFixation,jsons/v1_VE250_randls_28_rotated.json,http://54.235.29.9/FacialAge/BNav_EC2/DepthDuration/v2_depth_duration_MTurk/v2_DepthDuration_HTML.html#72,72,1524,728,1536,864,8-20-2022,11-28-6,52,depth_duration_stimuli/000927_2014-06-09_16-32-30_260595134347_rgbf000123-resize_3/000927_2014-06-09_16-32-30_260595134347_rgbf000123-resize_3-target.png,250,2.6785,88,3858,236,feet,jsons/v1_VE250_randls_28_rotated.json,1123395,1415709,48,Woman
52,767902,DepthScenes,duration_manipulation_targetAtFixation,jsons/v1_VE250_randls_28_rotated.json,http://54.235.29.9/FacialAge/BNav_EC2/DepthDuration/v2_depth_duration_MTurk/v2_DepthDuration_HTML.html#72,72,1524,728,1536,864,8-20-2022,11-28-6,53,depth_duration_stimuli/001110_2014-06-15_17-25-28_260595134347_rgbf000150-resize_1/001110_2014-06-15_17-25-28_260595134347_rgbf000150-resize_1-target.png,250,1.7115,75,5604,248,feet,jsons/v1_VE250_randls_28_rotated.json,1123395,1415709,48,Woman
53,767902,DepthScenes,duration_manipulation_targetAtFixation,jsons/v1_VE250_randls_28_rotated.json,http://54.235.29.9/FacialAge/BNav_EC2/DepthDuration/v2_depth_duration_MTurk/v2_DepthDuration_HTML.html#72,72,1524,728,1536,864,8-20-2022,11-28-6,54,depth_duration_stimuli/001136_2014-06-17_15-19-41_260595134347_rgbf000076-resize_3/001136_2014-06-17_15-19-41_260595134347_rgbf000076-resize_3-target.png,250,1.8655,55,4893,241,feet,jsons/v1_VE250_randls_28_rotated.json,1123395,1415709,48,Woman
54,767902,DepthScenes,duration_manipulation_targetAtFixation,jsons/v1_VE250_randls_28_rotated.json,http://54.235.29.9/FacialAge/BNav_EC2/DepthDuration/v2_depth_duration_MTurk/v2_DepthDuration_HTML.html#72,72,1524,728,1536,864,8-20-2022,11-28-6,55,depth_duration_stimuli/001164_2014-06-17_15-35-46_260595134347_rgbf000085-resize_3/001164_2014-06-17_15-35-46_260595134347_rgbf000085-resize_3-target.png,250,2.354,70,7922,249,feet,jsons/v1_VE250_randls_28_rotated.json,1123395,1415709,48,Woman
55,767902,DepthScenes,duration_manipulation_targetAtFixation,jsons/v1_VE250_randls_28_rotated.json,http://54.235.29.9/FacialAge/BNav_EC2/DepthDuration/v2_depth_duration_MTurk/v2_DepthDuration_HTML.html#72,72,1524,728,1536,864,8-20-2022,11-28-6,56,depth_duration_stimuli/001132_2014-06-17_14-48-54_260595134347_rgbf000100-resize_2/001132_2014-06-17_14-48-54_260595134347_rgbf000100-resize_2-target.png,250,3.753,80,5328,247,feet,jsons/v1_VE250_randls_28_rotated.json,1123395,1415709,48,Woman
56,767902,DepthScenes,duration_manipulation_targetAtFixation,jsons/v1_VE250_randls_28_rotated.json,http://54.235.29.9/FacialAge/BNav_EC2/DepthDuration/v2_depth_duration_MTurk/v2_DepthDuration_HTML.html#72,72,1524,728,1536,864,8-20-2022,11-28-6,57,depth_duration_stimuli/001133_2014-06-17_14-49-16_260595134347_rgbf000100-resize_0/001133_2014-06-17_14-49-16_260595134347_rgbf000100-resize_0-target.png,250,4.2115,45,5325,250,feet,jsons/v1_VE250_randls_28_rotated.json,1123395,1415709,48,Woman
57,767902,DepthScenes,duration_manipulation_targetAtFixation,jsons/v1_VE250_randls_28_rotated.json,http://54.235.29.9/FacialAge/BNav_EC2/DepthDuration/v2_depth_duration_MTurk/v2_DepthDuration_HTML.html#72,72,1524,728,1536,864,8-20-2022,11-28-6,58,depth_duration_stimuli/002425_2014-06-28_20-27-29_260595134347_rgbf000031-resize_8/002425_2014-06-28_20-27-29_260595134347_rgbf000031-resize_8-target.png,250,3.8960000000000004,0,8798,250,feet,jsons/v1_VE250_randls_28_rotated.json,1123395,1415709,48,Woman
58,767902,DepthScenes,duration_manipulation_targetAtFixation,jsons/v1_VE250_randls_28_rotated.json,http://54.235.29.9/FacialAge/BNav_EC2/DepthDuration/v2_depth_duration_MTurk/v2_DepthDuration_HTML.html#72,72,1524,728,1536,864,8-20-2022,11-28-6,59,depth_duration_stimuli/000642_2014-06-08_16-59-25_260595134347_rgbf000098-resize_2/000642_2014-06-08_16-59-25_260595134347_rgbf000098-resize_2-target.png,250,2.8815,35,4587,249,feet,jsons/v1_VE250_randls_28_rotated.json,1123395,1415709,48,Woman
59,767902,DepthScenes,duration_manipulation_targetAtFixation,jsons/v1_VE250_randls_28_rotated.json,http://54.235.29.9/FacialAge/BNav_EC2/DepthDuration/v2_depth_duration_MTurk/v2_DepthDuration_HTML.html#72,72,1524,728,1536,864,8-20-2022,11-28-6,60,depth_duration_stimuli/000780_2014-06-08_22-28-29_260595134347_rgbf000126-resize_1/000780_2014-06-08_22-28-29_260595134347_rgbf000126-resize_1-target.png,250,3.3825,70,3421,245,feet,jsons/v1_VE250_randls_28_rotated.json,1123395,1415709,48,Woman
60,767902,DepthScenes,duration_manipulation_targetAtFixation,jsons/v1_VE250_randls_28_rotated.json,http://54.235.29.9/FacialAge/BNav_EC2/DepthDuration/v2_depth_duration_MTurk/v2_DepthDuration_HTML.html#72,72,1524,728,1536,864,8-20-2022,11-28-6,61,depth_duration_stimuli/002445_2014-06-28_20-32-16_260595134347_rgbf000029-resize_4/002445_2014-06-28_20-32-16_260595134347_rgbf000029-resize_4-target.png,250,2.5315,35,3764,237,feet,jsons/v1_VE250_randls_28_rotated.json,1123395,1415709,48,Woman
61,767902,DepthScenes,duration_manipulation_targetAtFixation,jsons/v1_VE250_randls_28_rotated.json,http://54.235.29.9/FacialAge/BNav_EC2/DepthDuration/v2_depth_duration_MTurk/v2_DepthDuration_HTML.html#72,72,1524,728,1536,864,8-20-2022,11-28-6,62,depth_duration_stimuli/002758_2014-06-22_19-11-20_094959634447_rgbf000128-resize_1/002758_2014-06-22_19-11-20_094959634447_rgbf000128-resize_1-target.png,250,2.555,25,5370,256,feet,jsons/v1_VE250_randls_28_rotated.json,1123395,1415709,48,Woman
62,767902,DepthScenes,duration_manipulation_targetAtFixation,jsons/v1_VE250_randls_28_rotated.json,http://54.235.29.9/FacialAge/BNav_EC2/DepthDuration/v2_depth_duration_MTurk/v2_DepthDuration_HTML.html#72,72,1524,728,1536,864,8-20-2022,11-28-6,63,depth_duration_stimuli/002630_2014-06-24_14-47-50_094959634447_rgbf000055-resize_1/002630_2014-06-24_14-47-50_094959634447_rgbf000055-resize_1-target.png,250,3.0095,41,12651,245,feet,jsons/v1_VE250_randls_28_rotated.json,1123395,1415709,48,Woman
63,767902,DepthScenes,duration_manipulation_targetAtFixation,jsons/v1_VE250_randls_28_rotated.json,http://54.235.29.9/FacialAge/BNav_EC2/DepthDuration/v2_depth_duration_MTurk/v2_DepthDuration_HTML.html#72,72,1524,728,1536,864,8-20-2022,11-28-6,64,depth_duration_stimuli/002953_2014-06-08_17-32-18_094959634447_rgbf000059-resize_5/002953_2014-06-08_17-32-18_094959634447_rgbf000059-resize_5-target.png,250,1.551,15,4536,248,feet,jsons/v1_VE250_randls_28_rotated.json,1123395,1415709,48,Woman
64,767902,DepthScenes,duration_manipulation_targetAtFixation,jsons/v1_VE250_randls_28_rotated.json,http://54.235.29.9/FacialAge/BNav_EC2/DepthDuration/v2_depth_duration_MTurk/v2_DepthDuration_HTML.html#72,72,1524,728,1536,864,8-20-2022,11-28-6,65,depth_duration_stimuli/000878_2014-06-08_22-52-45_260595134347_rgbf000045-resize_2/000878_2014-06-08_22-52-45_260595134347_rgbf000045-resize_2-target.png,250,2.092,0,3617,251,feet,jsons/v1_VE250_randls_28_rotated.json,1123395,1415709,48,Woman
65,767902,DepthScenes,duration_manipulation_targetAtFixation,jsons/v1_VE250_randls_28_rotated.json,http://54.235.29.9/FacialAge/BNav_EC2/DepthDuration/v2_depth_duration_MTurk/v2_DepthDuration_HTML.html#72,72,1524,728,1536,864,8-20-2022,11-28-6,66,depth_duration_stimuli/001540_2014-06-20_17-01-05_260595134347_rgbf000086-resize_2/001540_2014-06-20_17-01-05_260595134347_rgbf000086-resize-original.jpg,250,1.459,0,43311,251,feet,jsons/v1_VE250_randls_28_rotated.json,1123395,1415709,48,Woman
66,767902,DepthScenes,duration_manipulation_targetAtFixation,jsons/v1_VE250_randls_28_rotated.json,http://54.235.29.9/FacialAge/BNav_EC2/DepthDuration/v2_depth_duration_MTurk/v2_DepthDuration_HTML.html#72,72,1524,728,1536,864,8-20-2022,11-28-6,67,depth_duration_stimuli/002344_2014-06-28_20-06-29_260595134347_rgbf000030-resize_1/002344_2014-06-28_20-06-29_260595134347_rgbf000030-resize_1-target.png,250,1.5795,10,4486,259,feet,jsons/v1_VE250_randls_28_rotated.json,1123395,1415709,48,Woman
67,767902,DepthScenes,duration_manipulation_targetAtFixation,jsons/v1_VE250_randls_28_rotated.json,http://54.235.29.9/FacialAge/BNav_EC2/DepthDuration/v2_depth_duration_MTurk/v2_DepthDuration_HTML.html#72,72,1524,728,1536,864,8-20-2022,11-28-6,68,depth_duration_stimuli/002725_2014-06-22_11-47-51_094959634447_rgbf000070-resize_1/002725_2014-06-22_11-47-51_094959634447_rgbf000070-resize_1-target.png,250,2.195,30,4606,250,feet,jsons/v1_VE250_randls_28_rotated.json,1123395,1415709,48,Woman
68,767902,DepthScenes,duration_manipulation_targetAtFixation,jsons/v1_VE250_randls_28_rotated.json,http://54.235.29.9/FacialAge/BNav_EC2/DepthDuration/v2_depth_duration_MTurk/v2_DepthDuration_HTML.html#72,72,1524,728,1536,864,8-20-2022,11-28-6,69,depth_duration_stimuli/000549_2014-06-08_22-10-24_260595134347_rgbf000247-resize_3/000549_2014-06-08_22-10-24_260595134347_rgbf000247-resize_3-target.png,250,1.841,25,5332,251,feet,jsons/v1_VE250_randls_28_rotated.json,1123395,1415709,48,Woman
69,767902,DepthScenes,duration_manipulation_targetAtFixation,jsons/v1_VE250_randls_28_rotated.json,http://54.235.29.9/FacialAge/BNav_EC2/DepthDuration/v2_depth_duration_MTurk/v2_DepthDuration_HTML.html#72,72,1524,728,1536,864,8-20-2022,11-28-6,70,depth_duration_stimuli/001055_2014-06-08_18-45-35_260595134347_rgbf000111-resize_4/001055_2014-06-08_18-45-35_260595134347_rgbf000111-resize_4-target.png,250,2.4290000000000003,67,4929,252,feet,jsons/v1_VE250_randls_28_rotated.json,1123395,1415709,48,Woman
70,767902,DepthScenes,duration_manipulation_targetAtFixation,jsons/v1_VE250_randls_28_rotated.json,http://54.235.29.9/FacialAge/BNav_EC2/DepthDuration/v2_depth_duration_MTurk/v2_DepthDuration_HTML.html#72,72,1524,728,1536,864,8-20-2022,11-28-6,71,depth_duration_stimuli/001516_2014-06-20_16-25-09_260595134347_rgbf000076-resize_2/001516_2014-06-20_16-25-09_260595134347_rgbf000076-resize_2-target.png,250,1.7445,49,8288,261,feet,jsons/v1_VE250_randls_28_rotated.json,1123395,1415709,48,Woman
71,767902,DepthScenes,duration_manipulation_targetAtFixation,jsons/v1_VE250_randls_28_rotated.json,http://54.235.29.9/FacialAge/BNav_EC2/DepthDuration/v2_depth_duration_MTurk/v2_DepthDuration_HTML.html#72,72,1524,728,1536,864,8-20-2022,11-28-6,72,depth_duration_stimuli/002118_2014-06-25_20-32-08_260595134347_rgbf000078-resize_1/002118_2014-06-25_20-32-08_260595134347_rgbf000078-resize_1-target.png,250,2.6460000000000004,24,7849,239,feet,jsons/v1_VE250_randls_28_rotated.json,1123395,1415709,48,Woman
72,767902,DepthScenes,duration_manipulation_targetAtFixation,jsons/v1_VE250_randls_28_rotated.json,http://54.235.29.9/FacialAge/BNav_EC2/DepthDuration/v2_depth_duration_MTurk/v2_DepthDuration_HTML.html#72,72,1524,728,1536,864,8-20-2022,11-28-6,73,depth_duration_stimuli/001828_2014-06-26_21-40-03_260595134347_rgbf000024-resize_0/001828_2014-06-26_21-40-03_260595134347_rgbf000024-resize_0-target.png,250,4.8260000000000005,60,5295,247,feet,jsons/v1_VE250_randls_28_rotated.json,1123395,1415709,48,Woman
73,767902,DepthScenes,duration_manipulation_targetAtFixation,jsons/v1_VE250_randls_28_rotated.json,http://54.235.29.9/FacialAge/BNav_EC2/DepthDuration/v2_depth_duration_MTurk/v2_DepthDuration_HTML.html#72,72,1524,728,1536,864,8-20-2022,11-28-6,74,depth_duration_stimuli/000009_2014-05-26_14-32-05_260595134347_rgbf000034-resize_3/000009_2014-05-26_14-32-05_260595134347_rgbf000034-resize_3-target.png,250,3.8715,77,4387,252,feet,jsons/v1_VE250_randls_28_rotated.json,1123395,1415709,48,Woman
74,767902,DepthScenes,duration_manipulation_targetAtFixation,jsons/v1_VE250_randls_28_rotated.json,http://54.235.29.9/FacialAge/BNav_EC2/DepthDuration/v2_depth_duration_MTurk/v2_DepthDuration_HTML.html#72,72,1524,728,1536,864,8-20-2022,11-28-6,75,depth_duration_stimuli/000109_2014-05-14_23-41-52_260595134347_rgbf000035-resize_9/000109_2014-05-14_23-41-52_260595134347_rgbf000035-resize_9-target.png,250,1.3545,15,4157,242,feet,jsons/v1_VE250_randls_28_rotated.json,1123395,1415709,48,Woman
75,767902,DepthScenes,duration_manipulation_targetAtFixation,jsons/v1_VE250_randls_28_rotated.json,http://54.235.29.9/FacialAge/BNav_EC2/DepthDuration/v2_depth_duration_MTurk/v2_DepthDuration_HTML.html#72,72,1524,728,1536,864,8-20-2022,11-28-6,76,depth_duration_stimuli/000470_2014-06-09_19-42-40_260595134347_rgbf000094-resize_1/000470_2014-06-09_19-42-40_260595134347_rgbf000094-resize_1-target.png,250,1.831,3,3841,263,feet,jsons/v1_VE250_randls_28_rotated.json,1123395,1415709,48,Woman
76,767902,DepthScenes,duration_manipulation_targetAtFixation,jsons/v1_VE250_randls_28_rotated.json,http://54.235.29.9/FacialAge/BNav_EC2/DepthDuration/v2_depth_duration_MTurk/v2_DepthDuration_HTML.html#72,72,1524,728,1536,864,8-20-2022,11-28-6,77,depth_duration_stimuli/001815_2014-06-26_20-52-55_260595134347_rgbf000020-resize_0/001815_2014-06-26_20-52-55_260595134347_rgbf000020-resize_0-target.png,250,3.3865,55,3821,239,feet,jsons/v1_VE250_randls_28_rotated.json,1123395,1415709,48,Woman
77,767902,DepthScenes,duration_manipulation_targetAtFixation,jsons/v1_VE250_randls_28_rotated.json,http://54.235.29.9/FacialAge/BNav_EC2/DepthDuration/v2_depth_duration_MTurk/v2_DepthDuration_HTML.html#72,72,1524,728,1536,864,8-20-2022,11-28-6,78,depth_duration_stimuli/001808_2014-06-26_20-50-58_260595134347_rgbf000029-resize_1/001808_2014-06-26_20-50-58_260595134347_rgbf000029-resize_1-target.png,250,4.249,80,5347,250,feet,jsons/v1_VE250_randls_28_rotated.json,1123395,1415709,48,Woman
78,767902,DepthScenes,duration_manipulation_targetAtFixation,jsons/v1_VE250_randls_28_rotated.json,http://54.235.29.9/FacialAge/BNav_EC2/DepthDuration/v2_depth_duration_MTurk/v2_DepthDuration_HTML.html#72,72,1524,728,1536,864,8-20-2022,11-28-6,79,depth_duration_stimuli/000502_2014-06-08_23-02-32_260595134347_rgbf000063-resize_4/000502_2014-06-08_23-02-32_260595134347_rgbf000063-resize_4-target.png,250,2.431,22,4518,256,feet,jsons/v1_VE250_randls_28_rotated.json,1123395,1415709,48,Woman
79,767902,DepthScenes,duration_manipulation_targetAtFixation,jsons/v1_VE250_randls_28_rotated.json,http://54.235.29.9/FacialAge/BNav_EC2/DepthDuration/v2_depth_duration_MTurk/v2_DepthDuration_HTML.html#72,72,1524,728,1536,864,8-20-2022,11-28-6,80,depth_duration_stimuli/001199_2014-06-17_16-03-48_260595134347_rgbf000077-resize_0/001199_2014-06-17_16-03-48_260595134347_rgbf000077-resize_0-target.png,250,3.4375,45,4533,239,feet,jsons/v1_VE250_randls_28_rotated.json,1123395,1415709,48,Woman
80,767902,DepthScenes,duration_manipulation_targetAtFixation,jsons/v1_VE250_randls_28_rotated.json,http://54.235.29.9/FacialAge/BNav_EC2/DepthDuration/v2_depth_duration_MTurk/v2_DepthDuration_HTML.html#72,72,1524,728,1536,864,8-20-2022,11-28-6,81,depth_duration_stimuli/003048_2014-06-15_13-49-43_094959634447_rgbf000150-resize_1/003048_2014-06-15_13-49-43_094959634447_rgbf000150-resize_1-target.png,250,4.0035,56,5763,257,feet,jsons/v1_VE250_randls_28_rotated.json,1123395,1415709,48,Woman
81,767902,DepthScenes,duration_manipulation_targetAtFixation,jsons/v1_VE250_randls_28_rotated.json,http://54.235.29.9/FacialAge/BNav_EC2/DepthDuration/v2_depth_duration_MTurk/v2_DepthDuration_HTML.html#72,72,1524,728,1536,864,8-20-2022,11-28-6,82,depth_duration_stimuli/002043_2014-06-24_20-29-38_260595134347_rgbf000039-resize_4/002043_2014-06-24_20-29-38_260595134347_rgbf000039-resize_4-target.png,250,2.8435,34,4640,241,feet,jsons/v1_VE250_randls_28_rotated.json,1123395,1415709,48,Woman
82,767902,DepthScenes,duration_manipulation_targetAtFixation,jsons/v1_VE250_randls_28_rotated.json,http://54.235.29.9/FacialAge/BNav_EC2/DepthDuration/v2_depth_duration_MTurk/v2_DepthDuration_HTML.html#72,72,1524,728,1536,864,8-20-2022,11-28-6,83,depth_duration_stimuli/000691_2014-06-08_13-08-50_260595134347_rgbf000132-resize_3/000691_2014-06-08_13-08-50_260595134347_rgbf000132-resize_3-target.png,250,4.1530000000000005,69,7776,263,feet,jsons/v1_VE250_randls_28_rotated.json,1123395,1415709,48,Woman
83,767902,DepthScenes,duration_manipulation_targetAtFixation,jsons/v1_VE250_randls_28_rotated.json,http://54.235.29.9/FacialAge/BNav_EC2/DepthDuration/v2_depth_duration_MTurk/v2_DepthDuration_HTML.html#72,72,1524,728,1536,864,8-20-2022,11-28-6,84,depth_duration_stimuli/002213_2014-06-28_18-37-58_260595134347_rgbf000055-resize_1/002213_2014-06-28_18-37-58_260595134347_rgbf000055-resize_1-target.png,250,3.62,70,5523,261,feet,jsons/v1_VE250_randls_28_rotated.json,1123395,1415709,48,Woman
84,767902,DepthScenes,duration_manipulation_targetAtFixation,jsons/v1_VE250_randls_28_rotated.json,http://54.235.29.9/FacialAge/BNav_EC2/DepthDuration/v2_depth_duration_MTurk/v2_DepthDuration_HTML.html#72,72,1524,728,1536,864,8-20-2022,11-28-6,85,depth_duration_stimuli/001235_2014-06-17_16-37-36_260595134347_rgbf000084-resize_4/001235_2014-06-17_16-37-36_260595134347_rgbf000084-resize_4-target.png,250,3.6605,45,5268,239,feet,jsons/v1_VE250_randls_28_rotated.json,1123395,1415709,48,Woman
85,767902,DepthScenes,duration_manipulation_targetAtFixation,jsons/v1_VE250_randls_28_rotated.json,http://54.235.29.9/FacialAge/BNav_EC2/DepthDuration/v2_depth_duration_MTurk/v2_DepthDuration_HTML.html#72,72,1524,728,1536,864,8-20-2022,11-28-6,86,depth_duration_stimuli/000788_2014-06-08_22-34-36_260595134347_rgbf000131-resize_1/000788_2014-06-08_22-34-36_260595134347_rgbf000131-resize_1-target.png,250,3.359,45,4309,246,feet,jsons/v1_VE250_randls_28_rotated.json,1123395,1415709,48,Woman
86,767902,DepthScenes,duration_manipulation_targetAtFixation,jsons/v1_VE250_randls_28_rotated.json,http://54.235.29.9/FacialAge/BNav_EC2/DepthDuration/v2_depth_duration_MTurk/v2_DepthDuration_HTML.html#72,72,1524,728,1536,864,8-20-2022,11-28-6,87,depth_duration_stimuli/002875_2014-06-01_15-19-00_094959634447_rgbf000151-resize_1/002875_2014-06-01_15-19-00_094959634447_rgbf000151-resize_1-target.png,250,1.9675,23,3725,247,feet,jsons/v1_VE250_randls_28_rotated.json,1123395,1415709,48,Woman
87,767902,DepthScenes,duration_manipulation_targetAtFixation,jsons/v1_VE250_randls_28_rotated.json,http://54.235.29.9/FacialAge/BNav_EC2/DepthDuration/v2_depth_duration_MTurk/v2_DepthDuration_HTML.html#72,72,1524,728,1536,864,8-20-2022,11-28-6,88,depth_duration_stimuli/001011_2014-06-08_23-18-54_260595134347_rgbf000044-resize_4/001011_2014-06-08_23-18-54_260595134347_rgbf000044-resize_4-target.png,250,2.4730000000000003,38,4501,247,feet,jsons/v1_VE250_randls_28_rotated.json,1123395,1415709,48,Woman
88,767902,DepthScenes,duration_manipulation_targetAtFixation,jsons/v1_VE250_randls_28_rotated.json,http://54.235.29.9/FacialAge/BNav_EC2/DepthDuration/v2_depth_duration_MTurk/v2_DepthDuration_HTML.html#72,72,1524,728,1536,864,8-20-2022,11-28-6,89,depth_duration_stimuli/002637_2014-06-24_14-51-13_094959634447_rgbf000066-resize_4/002637_2014-06-24_14-51-13_094959634447_rgbf000066-resize_4-target.png,250,1.9955,19,7341,239,feet,jsons/v1_VE250_randls_28_rotated.json,1123395,1415709,48,Woman
89,767902,DepthScenes,duration_manipulation_targetAtFixation,jsons/v1_VE250_randls_28_rotated.json,http://54.235.29.9/FacialAge/BNav_EC2/DepthDuration/v2_depth_duration_MTurk/v2_DepthDuration_HTML.html#72,72,1524,728,1536,864,8-20-2022,11-28-6,90,depth_duration_stimuli/003534_2014-05-22_15-06-10_094959634447_rgbf000102-resize_4/003534_2014-05-22_15-06-10_094959634447_rgbf000102-resize_4-target.png,250,1.426,13,5128,246,feet,jsons/v1_VE250_randls_28_rotated.json,1123395,1415709,48,Woman
90,767902,DepthScenes,duration_manipulation_targetAtFixation,jsons/v1_VE250_randls_28_rotated.json,http://54.235.29.9/FacialAge/BNav_EC2/DepthDuration/v2_depth_duration_MTurk/v2_DepthDuration_HTML.html#72,72,1524,728,1536,864,8-20-2022,11-28-6,91,depth_duration_stimuli/002805_2014-06-22_19-54-03_094959634447_rgbf000079-resize_1/002805_2014-06-22_19-54-03_094959634447_rgbf000079-resize_1-target.png,250,3.1439999999999997,33,4178,232,feet,jsons/v1_VE250_randls_28_rotated.json,1123395,1415709,48,Woman
91,767902,DepthScenes,duration_manipulation_targetAtFixation,jsons/v1_VE250_randls_28_rotated.json,http://54.235.29.9/FacialAge/BNav_EC2/DepthDuration/v2_depth_duration_MTurk/v2_DepthDuration_HTML.html#72,72,1524,728,1536,864,8-20-2022,11-28-6,92,depth_duration_stimuli/000906_2014-06-08_13-35-43_260595134347_rgbf000155-resize_1/000906_2014-06-08_13-35-43_260595134347_rgbf000155-resize_1-target.png,250,2.8489999999999998,54,6247,243,feet,jsons/v1_VE250_randls_28_rotated.json,1123395,1415709,48,Woman
92,767902,DepthScenes,duration_manipulation_targetAtFixation,jsons/v1_VE250_randls_28_rotated.json,http://54.235.29.9/FacialAge/BNav_EC2/DepthDuration/v2_depth_duration_MTurk/v2_DepthDuration_HTML.html#72,72,1524,728,1536,864,8-20-2022,11-28-6,93,depth_duration_stimuli/000103_2014-05-14_22-01-17_260595134347_rgbf000152-resize_5/000103_2014-05-14_22-01-17_260595134347_rgbf000152-resize_5-target.png,250,1.993,60,5294,257,feet,jsons/v1_VE250_randls_28_rotated.json,1123395,1415709,48,Woman
93,767902,DepthScenes,duration_manipulation_targetAtFixation,jsons/v1_VE250_randls_28_rotated.json,http://54.235.29.9/FacialAge/BNav_EC2/DepthDuration/v2_depth_duration_MTurk/v2_DepthDuration_HTML.html#72,72,1524,728,1536,864,8-20-2022,11-28-6,94,depth_duration_stimuli/001555_2014-06-20_17-12-10_260595134347_rgbf000065-resize_4/001555_2014-06-20_17-12-10_260595134347_rgbf000065-resize_4-target.png,250,1.633,11,4321,250,feet,jsons/v1_VE250_randls_28_rotated.json,1123395,1415709,48,Woman
94,767902,DepthScenes,duration_manipulation_targetAtFixation,jsons/v1_VE250_randls_28_rotated.json,http://54.235.29.9/FacialAge/BNav_EC2/DepthDuration/v2_depth_duration_MTurk/v2_DepthDuration_HTML.html#72,72,1524,728,1536,864,8-20-2022,11-28-6,95,depth_duration_stimuli/002678_2014-06-13_16-15-32_094959634447_rgbf000151-resize_6/002678_2014-06-13_16-15-32_094959634447_rgbf000151-resize_6-target.png,250,2.1830000000000003,40,4138,262,feet,jsons/v1_VE250_randls_28_rotated.json,1123395,1415709,48,Woman
95,767902,DepthScenes,duration_manipulation_targetAtFixation,jsons/v1_VE250_randls_28_rotated.json,http://54.235.29.9/FacialAge/BNav_EC2/DepthDuration/v2_depth_duration_MTurk/v2_DepthDuration_HTML.html#72,72,1524,728,1536,864,8-20-2022,11-28-6,96,depth_duration_stimuli/000368_2014-06-09_15-53-01_260595134347_rgbf000155-resize_2/000368_2014-06-09_15-53-01_260595134347_rgbf000155-resize_2-target.png,250,2.4859999999999998,37,3985,261,feet,jsons/v1_VE250_randls_28_rotated.json,1123395,1415709,48,Woman
96,767902,DepthScenes,duration_manipulation_targetAtFixation,jsons/v1_VE250_randls_28_rotated.json,http://54.235.29.9/FacialAge/BNav_EC2/DepthDuration/v2_depth_duration_MTurk/v2_DepthDuration_HTML.html#72,72,1524,728,1536,864,8-20-2022,11-28-6,97,depth_duration_stimuli/002568_2014-06-24_13-59-21_094959634447_rgbf000062-resize_4/002568_2014-06-24_13-59-21_094959634447_rgbf000062-resize_4-target.png,250,3.015,50,4396,261,feet,jsons/v1_VE250_randls_28_rotated.json,1123395,1415709,48,Woman
97,767902,DepthScenes,duration_manipulation_targetAtFixation,jsons/v1_VE250_randls_28_rotated.json,http://54.235.29.9/FacialAge/BNav_EC2/DepthDuration/v2_depth_duration_MTurk/v2_DepthDuration_HTML.html#72,72,1524,728,1536,864,8-20-2022,11-28-6,98,depth_duration_stimuli/003492_2014-05-21_15-50-55_094959634447_rgbf000828-resize_1/003492_2014-05-21_15-50-55_094959634447_rgbf000828-resize_1-target.png,250,4.06875,48,5528,255,feet,jsons/v1_VE250_randls_28_rotated.json,1123395,1415709,48,Woman
98,767902,DepthScenes,duration_manipulation_targetAtFixation,jsons/v1_VE250_randls_28_rotated.json,http://54.235.29.9/FacialAge/BNav_EC2/DepthDuration/v2_depth_duration_MTurk/v2_DepthDuration_HTML.html#72,72,1524,728,1536,864,8-20-2022,11-28-6,99,depth_duration_stimuli/001222_2014-06-17_16-24-06_260595134347_rgbf000073-resize_0/001222_2014-06-17_16-24-06_260595134347_rgbf000073-resize-original.jpg,250,1.4385,0,3325,260,feet,jsons/v1_VE250_randls_28_rotated.json,1123395,1415709,48,Woman
99,767902,DepthScenes,duration_manipulation_targetAtFixation,jsons/v1_VE250_randls_28_rotated.json,http://54.235.29.9/FacialAge/BNav_EC2/DepthDuration/v2_depth_duration_MTurk/v2_DepthDuration_HTML.html#72,72,1524,728,1536,864,8-20-2022,11-28-6,100,depth_duration_stimuli/000457_2014-06-08_16-52-43_260595134347_rgbf000199-resize_1/000457_2014-06-08_16-52-43_260595134347_rgbf000199-resize_1-target.png,250,3.6489999999999996,71,4034,239,feet,jsons/v1_VE250_randls_28_rotated.json,1123395,1415709,48,Woman
100,767902,DepthScenes,duration_manipulation_targetAtFixation,jsons/v1_VE250_randls_28_rotated.json,http://54.235.29.9/FacialAge/BNav_EC2/DepthDuration/v2_depth_duration_MTurk/v2_DepthDuration_HTML.html#72,72,1524,728,1536,864,8-20-2022,11-28-6,101,depth_duration_stimuli/000929_2014-06-09_16-33-19_260595134347_rgbf000139-resize_0/000929_2014-06-09_16-33-19_260595134347_rgbf000139-resize_0-target.png,250,2.8680000000000003,50,4399,240,feet,jsons/v1_VE250_randls_28_rotated.json,1123395,1415709,48,Woman
101,767902,DepthScenes,duration_manipulation_targetAtFixation,jsons/v1_VE250_randls_28_rotated.json,http://54.235.29.9/FacialAge/BNav_EC2/DepthDuration/v2_depth_duration_MTurk/v2_DepthDuration_HTML.html#72,72,1524,728,1536,864,8-20-2022,11-28-6,102,depth_duration_stimuli/001100_2014-06-15_17-46-26_260595134347_rgbf000225-resize_2/001100_2014-06-15_17-46-26_260595134347_rgbf000225-resize_2-target.png,250,2.24,29,4783,254,feet,jsons/v1_VE250_randls_28_rotated.json,1123395,1415709,48,Woman
102,767902,DepthScenes,duration_manipulation_targetAtFixation,jsons/v1_VE250_randls_28_rotated.json,http://54.235.29.9/FacialAge/BNav_EC2/DepthDuration/v2_depth_duration_MTurk/v2_DepthDuration_HTML.html#72,72,1524,728,1536,864,8-20-2022,11-28-6,103,depth_duration_stimuli/002784_2014-06-22_19-26-30_094959634447_rgbf000083-resize_3/002784_2014-06-22_19-26-30_094959634447_rgbf000083-resize_3-target.png,250,1.8046666666667,17,6272,282,feet,jsons/v1_VE250_randls_28_rotated.json,1123395,1415709,48,Woman
103,767902,DepthScenes,duration_manipulation_targetAtFixation,jsons/v1_VE250_randls_28_rotated.json,http://54.235.29.9/FacialAge/BNav_EC2/DepthDuration/v2_depth_duration_MTurk/v2_DepthDuration_HTML.html#72,72,1524,728,1536,864,8-20-2022,11-28-6,104,depth_duration_stimuli/000677_2014-06-08_23-10-32_260595134347_rgbf000158-resize_6/000677_2014-06-08_23-10-32_260595134347_rgbf000158-resize_6-target.png,250,3.556,25,4731,243,feet,jsons/v1_VE250_randls_28_rotated.json,1123395,1415709,48,Woman
104,767902,DepthScenes,duration_manipulation_targetAtFixation,jsons/v1_VE250_randls_28_rotated.json,http://54.235.29.9/FacialAge/BNav_EC2/DepthDuration/v2_depth_duration_MTurk/v2_DepthDuration_HTML.html#72,72,1524,728,1536,864,8-20-2022,11-28-6,105,depth_duration_stimuli/001029_2014-06-08_13-17-57_260595134347_rgbf000065-resize_1/001029_2014-06-08_13-17-57_260595134347_rgbf000065-resize_1-target.png,250,3.0835,37,5956,261,feet,jsons/v1_VE250_randls_28_rotated.json,1123395,1415709,48,Woman
105,767902,DepthScenes,duration_manipulation_targetAtFixation,jsons/v1_VE250_randls_28_rotated.json,http://54.235.29.9/FacialAge/BNav_EC2/DepthDuration/v2_depth_duration_MTurk/v2_DepthDuration_HTML.html#72,72,1524,728,1536,864,8-20-2022,11-28-6,106,depth_duration_stimuli/003129_2014-05-12_10-48-10_094959634447_rgbf000100-resize_0/003129_2014-05-12_10-48-10_094959634447_rgbf000100-resize_0-target.png,250,4.9305,50,3884,236,feet,jsons/v1_VE250_randls_28_rotated.json,1123395,1415709,48,Woman
106,767902,DepthScenes,duration_manipulation_targetAtFixation,jsons/v1_VE250_randls_28_rotated.json,http://54.235.29.9/FacialAge/BNav_EC2/DepthDuration/v2_depth_duration_MTurk/v2_DepthDuration_HTML.html#72,72,1524,728,1536,864,8-20-2022,11-28-6,107,depth_duration_stimuli/000414_2014-06-04_19-49-13_260595134347_rgbf000044-resize_0/000414_2014-06-04_19-49-13_260595134347_rgbf000044-resize_0-target.png,250,4.329,65,5645,258,feet,jsons/v1_VE250_randls_28_rotated.json,1123395,1415709,48,Woman
107,767902,DepthScenes,duration_manipulation_targetAtFixation,jsons/v1_VE250_randls_28_rotated.json,http://54.235.29.9/FacialAge/BNav_EC2/DepthDuration/v2_depth_duration_MTurk/v2_DepthDuration_HTML.html#72,72,1524,728,1536,864,8-20-2022,11-28-6,108,depth_duration_stimuli/003083_2014-06-15_15-21-03_094959634447_rgbf000063-resize_1/003083_2014-06-15_15-21-03_094959634447_rgbf000063-resize_1-target.png,250,4.1405,80,3990,248,feet,jsons/v1_VE250_randls_28_rotated.json,1123395,1415709,48,Woman
108,767902,DepthScenes,duration_manipulation_targetAtFixation,jsons/v1_VE250_randls_28_rotated.json,http://54.235.29.9/FacialAge/BNav_EC2/DepthDuration/v2_depth_duration_MTurk/v2_DepthDuration_HTML.html#72,72,1524,728,1536,864,8-20-2022,11-28-6,109,depth_duration_stimuli/000486_2014-06-09_20-47-20_260595134347_rgbf000143-resize_2/000486_2014-06-09_20-47-20_260595134347_rgbf000143-resize_2-target.png,250,4.8325,72,4213,263,feet,jsons/v1_VE250_randls_28_rotated.json,1123395,1415709,48,Woman
109,767902,DepthScenes,duration_manipulation_targetAtFixation,jsons/v1_VE250_randls_28_rotated.json,http://54.235.29.9/FacialAge/BNav_EC2/DepthDuration/v2_depth_duration_MTurk/v2_DepthDuration_HTML.html#72,72,1524,728,1536,864,8-20-2022,11-28-6,110,depth_duration_stimuli/002639_2014-06-24_14-51-37_094959634447_rgbf000074-resize_4/002639_2014-06-24_14-51-37_094959634447_rgbf000074-resize_4-target.png,250,4.0375,48,15594,248,feet,jsons/v1_VE250_randls_28_rotated.json,1123395,1415709,48,Woman
110,767902,DepthScenes,duration_manipulation_targetAtFixation,jsons/v1_VE250_randls_28_rotated.json,http://54.235.29.9/FacialAge/BNav_EC2/DepthDuration/v2_depth_duration_MTurk/v2_DepthDuration_HTML.html#72,72,1524,728,1536,864,8-20-2022,11-28-6,111,depth_duration_stimuli/003292_2014-05-14_21-53-49_094959634447_rgbf000100-resize_2/003292_2014-05-14_21-53-49_094959634447_rgbf000100-resize_2-target.png,250,3.4815,37,4017,240,feet,jsons/v1_VE250_randls_28_rotated.json,1123395,1415709,48,Woman
111,767902,DepthScenes,duration_manipulation_targetAtFixation,jsons/v1_VE250_randls_28_rotated.json,http://54.235.29.9/FacialAge/BNav_EC2/DepthDuration/v2_depth_duration_MTurk/v2_DepthDuration_HTML.html#72,72,1524,728,1536,864,8-20-2022,11-28-6,112,depth_duration_stimuli/003228_2014-05-14_13-42-35_094959634447_rgbf000101-resize_1/003228_2014-05-14_13-42-35_094959634447_rgbf000101-resize_1-target.png,250,1.9680000000000002,28,10842,249,feet,jsons/v1_VE250_randls_28_rotated.json,1123395,1415709,48,Woman
112,767902,DepthScenes,duration_manipulation_targetAtFixation,jsons/v1_VE250_randls_28_rotated.json,http://54.235.29.9/FacialAge/BNav_EC2/DepthDuration/v2_depth_duration_MTurk/v2_DepthDuration_HTML.html#72,72,1524,728,1536,864,8-20-2022,11-28-6,113,depth_duration_stimuli/002600_2014-06-24_14-27-04_094959634447_rgbf000074-resize_2/002600_2014-06-24_14-27-04_094959634447_rgbf000074-resize_2-target.png,250,2.7575,32,4395,246,feet,jsons/v1_VE250_randls_28_rotated.json,1123395,1415709,48,Woman
113,767902,DepthScenes,duration_manipulation_targetAtFixation,jsons/v1_VE250_randls_28_rotated.json,http://54.235.29.9/FacialAge/BNav_EC2/DepthDuration/v2_depth_duration_MTurk/v2_DepthDuration_HTML.html#72,72,1524,728,1536,864,8-20-2022,11-28-6,114,depth_duration_stimuli/002103_2014-06-25_20-00-40_260595134347_rgbf000049-resize_0/002103_2014-06-25_20-00-40_260595134347_rgbf000049-resize_0-target.png,250,4.105,0,5848,247,feet,jsons/v1_VE250_randls_28_rotated.json,1123395,1415709,48,Woman
114,767902,DepthScenes,duration_manipulation_targetAtFixation,jsons/v1_VE250_randls_28_rotated.json,http://54.235.29.9/FacialAge/BNav_EC2/DepthDuration/v2_depth_duration_MTurk/v2_DepthDuration_HTML.html#72,72,1524,728,1536,864,8-20-2022,11-28-6,115,depth_duration_stimuli/002039_2014-06-24_20-22-38_260595134347_rgbf000084-resize_1/002039_2014-06-24_20-22-38_260595134347_rgbf000084-resize_1-target.png,250,4.408,47,4758,250,feet,jsons/v1_VE250_randls_28_rotated.json,1123395,1415709,48,Woman
115,767902,DepthScenes,duration_manipulation_targetAtFixation,jsons/v1_VE250_randls_28_rotated.json,http://54.235.29.9/FacialAge/BNav_EC2/DepthDuration/v2_depth_duration_MTurk/v2_DepthDuration_HTML.html#72,72,1524,728,1536,864,8-20-2022,11-28-6,116,depth_duration_stimuli/002995_2014-06-15_12-31-26_094959634447_rgbf000150-resize_1/002995_2014-06-15_12-31-26_094959634447_rgbf000150-resize_1-target.png,250,3.8360000000000003,56,6371,250,feet,jsons/v1_VE250_randls_28_rotated.json,1123395,1415709,48,Woman
116,767902,DepthScenes,duration_manipulation_targetAtFixation,jsons/v1_VE250_randls_28_rotated.json,http://54.235.29.9/FacialAge/BNav_EC2/DepthDuration/v2_depth_duration_MTurk/v2_DepthDuration_HTML.html#72,72,1524,728,1536,864,8-20-2022,11-28-6,117,depth_duration_stimuli/002748_2014-06-22_19-07-22_094959634447_rgbf000078-resize_1/002748_2014-06-22_19-07-22_094959634447_rgbf000078-resize_1-target.png,250,4.6705,72,6235,250,feet,jsons/v1_VE250_randls_28_rotated.json,1123395,1415709,48,Woman
117,767902,DepthScenes,duration_manipulation_targetAtFixation,jsons/v1_VE250_randls_28_rotated.json,http://54.235.29.9/FacialAge/BNav_EC2/DepthDuration/v2_depth_duration_MTurk/v2_DepthDuration_HTML.html#72,72,1524,728,1536,864,8-20-2022,11-28-6,118,depth_duration_stimuli/001052_2014-06-08_18-24-54_260595134347_rgbf000130-resize_1/001052_2014-06-08_18-24-54_260595134347_rgbf000130-resize_1-target.png,250,4.1045,70,5067,249,feet,jsons/v1_VE250_randls_28_rotated.json,1123395,1415709,48,Woman
118,767902,DepthScenes,duration_manipulation_targetAtFixation,jsons/v1_VE250_randls_28_rotated.json,http://54.235.29.9/FacialAge/BNav_EC2/DepthDuration/v2_depth_duration_MTurk/v2_DepthDuration_HTML.html#72,72,1524,728,1536,864,8-20-2022,11-28-6,119,depth_duration_stimuli/002988_2014-06-15_12-24-20_094959634447_rgbf000150-resize_1/002988_2014-06-15_12-24-20_094959634447_rgbf000150-resize_1-target.png,250,4.7669999999999995,78,4943,249,feet,jsons/v1_VE250_randls_28_rotated.json,1123395,1415709,48,Woman
119,767902,DepthScenes,duration_manipulation_targetAtFixation,jsons/v1_VE250_randls_28_rotated.json,http://54.235.29.9/FacialAge/BNav_EC2/DepthDuration/v2_depth_duration_MTurk/v2_DepthDuration_HTML.html#72,72,1524,728,1536,864,8-20-2022,11-28-6,120,depth_duration_stimuli/000787_2014-06-08_22-33-53_260595134347_rgbf000175-resize_1/000787_2014-06-08_22-33-53_260595134347_rgbf000175-resize-original.jpg,250,4.784,0,4127,252,feet,jsons/v1_VE250_randls_28_rotated.json,1123395,1415709,48,Woman
120,767902,DepthScenes,duration_manipulation_targetAtFixation,jsons/v1_VE250_randls_28_rotated.json,http://54.235.29.9/FacialAge/BNav_EC2/DepthDuration/v2_depth_duration_MTurk/v2_DepthDuration_HTML.html#72,72,1524,728,1536,864,8-20-2022,11-28-6,121,depth_duration_stimuli/001571_2014-06-20_17-21-32_260595134347_rgbf000089-resize_1/001571_2014-06-20_17-21-32_260595134347_rgbf000089-resize_1-target.png,250,1.86,21,4618,246,feet,jsons/v1_VE250_randls_28_rotated.json,1123395,1415709,48,Woman
121,767902,DepthScenes,duration_manipulation_targetAtFixation,jsons/v1_VE250_randls_28_rotated.json,http://54.235.29.9/FacialAge/BNav_EC2/DepthDuration/v2_depth_duration_MTurk/v2_DepthDuration_HTML.html#72,72,1524,728,1536,864,8-20-2022,11-28-6,122,depth_duration_stimuli/002272_2014-06-28_18-53-56_260595134347_rgbf000067-resize_2/002272_2014-06-28_18-53-56_260595134347_rgbf000067-resize_2-target.png,250,1.138,21,3980,245,feet,jsons/v1_VE250_randls_28_rotated.json,1123395,1415709,48,Woman
122,767902,DepthScenes,duration_manipulation_targetAtFixation,jsons/v1_VE250_randls_28_rotated.json,http://54.235.29.9/FacialAge/BNav_EC2/DepthDuration/v2_depth_duration_MTurk/v2_DepthDuration_HTML.html#72,72,1524,728,1536,864,8-20-2022,11-28-6,123,depth_duration_stimuli/002545_2014-06-24_13-38-53_094959634447_rgbf000080-resize_4/002545_2014-06-24_13-38-53_094959634447_rgbf000080-resize_4-target.png,250,1.9205,38,6271,235,feet,jsons/v1_VE250_randls_28_rotated.json,1123395,1415709,48,Woman
123,767902,DepthScenes,duration_manipulation_targetAtFixation,jsons/v1_VE250_randls_28_rotated.json,http://54.235.29.9/FacialAge/BNav_EC2/DepthDuration/v2_depth_duration_MTurk/v2_DepthDuration_HTML.html#72,72,1524,728,1536,864,8-20-2022,11-28-6,124,depth_duration_stimuli/001092_2014-06-15_17-34-58_260595134347_rgbf000171-resize_3/001092_2014-06-15_17-34-58_260595134347_rgbf000171-resize_3-target.png,250,2.6935,45,7985,243,feet,jsons/v1_VE250_randls_28_rotated.json,1123395,1415709,48,Woman
124,767902,DepthScenes,duration_manipulation_targetAtFixation,jsons/v1_VE250_randls_28_rotated.json,http://54.235.29.9/FacialAge/BNav_EC2/DepthDuration/v2_depth_duration_MTurk/v2_DepthDuration_HTML.html#72,72,1524,728,1536,864,8-20-2022,11-28-6,125,depth_duration_stimuli/003079_2014-06-15_15-18-20_094959634447_rgbf000152-resize_8/003079_2014-06-15_15-18-20_094959634447_rgbf000152-resize_8-target.png,250,2.8775,70,4563,256,feet,jsons/v1_VE250_randls_28_rotated.json,1123395,1415709,48,Woman
125,767902,DepthScenes,duration_manipulation_targetAtFixation,jsons/v1_VE250_randls_28_rotated.json,http://54.235.29.9/FacialAge/BNav_EC2/DepthDuration/v2_depth_duration_MTurk/v2_DepthDuration_HTML.html#72,72,1524,728,1536,864,8-20-2022,11-28-6,126,depth_duration_stimuli/000506_2014-06-08_23-21-00_260595134347_rgbf000070-resize_7/000506_2014-06-08_23-21-00_260595134347_rgbf000070-resize_7-target.png,250,4.0585,55,13538,249,feet,jsons/v1_VE250_randls_28_rotated.json,1123395,1415709,48,Woman
126,767902,DepthScenes,duration_manipulation_targetAtFixation,jsons/v1_VE250_randls_28_rotated.json,http://54.235.29.9/FacialAge/BNav_EC2/DepthDuration/v2_depth_duration_MTurk/v2_DepthDuration_HTML.html#72,72,1524,728,1536,864,8-20-2022,11-28-6,127,depth_duration_stimuli/000556_2014-06-09_22-42-56_260595134347_rgbf000214-resize_1/000556_2014-06-09_22-42-56_260595134347_rgbf000214-resize_1-target.png,250,4.8415,46,5603,247,feet,jsons/v1_VE250_randls_28_rotated.json,1123395,1415709,48,Woman
127,767902,DepthScenes,duration_manipulation_targetAtFixation,jsons/v1_VE250_randls_28_rotated.json,http://54.235.29.9/FacialAge/BNav_EC2/DepthDuration/v2_depth_duration_MTurk/v2_DepthDuration_HTML.html#72,72,1524,728,1536,864,8-20-2022,11-28-6,128,depth_duration_stimuli/001158_2014-06-17_15-32-16_260595134347_rgbf000138-resize_2/001158_2014-06-17_15-32-16_260595134347_rgbf000138-resize_2-target.png,250,4.5315,57,10168,264,feet,jsons/v1_VE250_randls_28_rotated.json,1123395,1415709,48,Woman
128,767902,DepthScenes,duration_manipulation_targetAtFixation,jsons/v1_VE250_randls_28_rotated.json,http://54.235.29.9/FacialAge/BNav_EC2/DepthDuration/v2_depth_duration_MTurk/v2_DepthDuration_HTML.html#72,72,1524,728,1536,864,8-20-2022,11-28-6,129,depth_duration_stimuli/001214_2014-06-17_16-13-55_260595134347_rgbf000111-resize_0/001214_2014-06-17_16-13-55_260595134347_rgbf000111-resize_0-target.png,250,2.6505,25,4232,245,feet,jsons/v1_VE250_randls_28_rotated.json,1123395,1415709,48,Woman
129,767902,DepthScenes,duration_manipulation_targetAtFixation,jsons/v1_VE250_randls_28_rotated.json,http://54.235.29.9/FacialAge/BNav_EC2/DepthDuration/v2_depth_duration_MTurk/v2_DepthDuration_HTML.html#72,72,1524,728,1536,864,8-20-2022,11-28-6,130,depth_duration_stimuli/000810_2014-06-08_17-20-01_260595134347_rgbf000105-resize_0/000810_2014-06-08_17-20-01_260595134347_rgbf000105-resize_0-target.png,250,1.4865,31,4857,257,feet,jsons/v1_VE250_randls_28_rotated.json,1123395,1415709,48,Woman
130,767902,DepthScenes,duration_manipulation_targetAtFixation,jsons/v1_VE250_randls_28_rotated.json,http://54.235.29.9/FacialAge/BNav_EC2/DepthDuration/v2_depth_duration_MTurk/v2_DepthDuration_HTML.html#72,72,1524,728,1536,864,8-20-2022,11-28-6,131,depth_duration_stimuli/003490_2014-05-21_15-50-11_094959634447_rgbf000101-resize_3/003490_2014-05-21_15-50-11_094959634447_rgbf000101-resize_3-target.png,250,3.6445,38,5531,250,feet,jsons/v1_VE250_randls_28_rotated.json,1123395,1415709,48,Woman
131,767902,DepthScenes,duration_manipulation_targetAtFixation,jsons/v1_VE250_randls_28_rotated.json,http://54.235.29.9/FacialAge/BNav_EC2/DepthDuration/v2_depth_duration_MTurk/v2_DepthDuration_HTML.html#72,72,1524,728,1536,864,8-20-2022,11-28-6,132,depth_duration_stimuli/001175_2014-06-17_15-45-55_260595134347_rgbf000129-resize_4/001175_2014-06-17_15-45-55_260595134347_rgbf000129-resize_4-target.png,250,4.255,42,5398,247,feet,jsons/v1_VE250_randls_28_rotated.json,1123395,1415709,48,Woman
132,767902,DepthScenes,duration_manipulation_targetAtFixation,jsons/v1_VE250_randls_28_rotated.json,http://54.235.29.9/FacialAge/BNav_EC2/DepthDuration/v2_depth_duration_MTurk/v2_DepthDuration_HTML.html#72,72,1524,728,1536,864,8-20-2022,11-28-6,133,depth_duration_stimuli/002444_2014-06-28_20-32-08_260595134347_rgbf000027-resize_0/002444_2014-06-28_20-32-08_260595134347_rgbf000027-resize_0-target.png,250,4.388999999999999,51,5807,265,feet,jsons/v1_VE250_randls_28_rotated.json,1123395,1415709,48,Woman
133,767902,DepthScenes,duration_manipulation_targetAtFixation,jsons/v1_VE250_randls_28_rotated.json,http://54.235.29.9/FacialAge/BNav_EC2/DepthDuration/v2_depth_duration_MTurk/v2_DepthDuration_HTML.html#72,72,1524,728,1536,864,8-20-2022,11-28-6,134,depth_duration_stimuli/000436_2014-06-09_22-25-11_260595134347_rgbf000137-resize_1/000436_2014-06-09_22-25-11_260595134347_rgbf000137-resize_1-target.png,250,4.0705,60,10273,242,feet,jsons/v1_VE250_randls_28_rotated.json,1123395,1415709,48,Woman
134,767902,DepthScenes,duration_manipulation_targetAtFixation,jsons/v1_VE250_randls_28_rotated.json,http://54.235.29.9/FacialAge/BNav_EC2/DepthDuration/v2_depth_duration_MTurk/v2_DepthDuration_HTML.html#72,72,1524,728,1536,864,8-20-2022,11-28-6,135,depth_duration_stimuli/000375_2014-06-08_11-17-29_260595134347_rgbf000133-resize_2/000375_2014-06-08_11-17-29_260595134347_rgbf000133-resize-original.jpg,250,4.718,0,3885,249,feet,jsons/v1_VE250_randls_28_rotated.json,1123395,1415709,48,Woman
135,767902,DepthScenes,duration_manipulation_targetAtFixation,jsons/v1_VE250_randls_28_rotated.json,http://54.235.29.9/FacialAge/BNav_EC2/DepthDuration/v2_depth_duration_MTurk/v2_DepthDuration_HTML.html#72,72,1524,728,1536,864,8-20-2022,11-28-6,136,depth_duration_stimuli/001032_2014-06-08_13-23-17_260595134347_rgbf000021-resize_3/001032_2014-06-08_13-23-17_260595134347_rgbf000021-resize_3-target.png,250,3.2725,37,5077,249,feet,jsons/v1_VE250_randls_28_rotated.json,1123395,1415709,48,Woman
136,767902,DepthScenes,duration_manipulation_targetAtFixation,jsons/v1_VE250_randls_28_rotated.json,http://54.235.29.9/FacialAge/BNav_EC2/DepthDuration/v2_depth_duration_MTurk/v2_DepthDuration_HTML.html#72,72,1524,728,1536,864,8-20-2022,11-28-6,137,depth_duration_stimuli/001059_2014-06-08_21-53-27_260595134347_rgbf000061-resize_4/001059_2014-06-08_21-53-27_260595134347_rgbf000061-resize_4-target.png,250,2.4185,45,3923,245,feet,jsons/v1_VE250_randls_28_rotated.json,1123395,1415709,48,Woman
137,767902,DepthScenes,duration_manipulation_targetAtFixation,jsons/v1_VE250_randls_28_rotated.json,http://54.235.29.9/FacialAge/BNav_EC2/DepthDuration/v2_depth_duration_MTurk/v2_DepthDuration_HTML.html#72,72,1524,728,1536,864,8-20-2022,11-28-6,138,depth_duration_stimuli/003010_2014-06-15_12-54-35_094959634447_rgbf000112-resize_0/003010_2014-06-15_12-54-35_094959634447_rgbf000112-resize_0-target.png,250,3.1185,77,6908,249,feet,jsons/v1_VE250_randls_28_rotated.json,1123395,1415709,48,Woman
138,767902,DepthScenes,duration_manipulation_targetAtFixation,jsons/v1_VE250_randls_28_rotated.json,http://54.235.29.9/FacialAge/BNav_EC2/DepthDuration/v2_depth_duration_MTurk/v2_DepthDuration_HTML.html#72,72,1524,728,1536,864,8-20-2022,11-28-6,139,depth_duration_stimuli/001810_2014-06-26_20-51-35_260595134347_rgbf000040-resize_3/001810_2014-06-26_20-51-35_260595134347_rgbf000040-resize_3-target.png,250,2.2525,32,4574,250,feet,jsons/v1_VE250_randls_28_rotated.json,1123395,1415709,48,Woman
139,767902,DepthScenes,duration_manipulation_targetAtFixation,jsons/v1_VE250_randls_28_rotated.json,http://54.235.29.9/FacialAge/BNav_EC2/DepthDuration/v2_depth_duration_MTurk/v2_DepthDuration_HTML.html#72,72,1524,728,1536,864,8-20-2022,11-28-6,140,depth_duration_stimuli/000483_2014-06-09_20-41-45_260595134347_rgbf000116-resize_4/000483_2014-06-09_20-41-45_260595134347_rgbf000116-resize_4-target.png,250,1.337,0,3560,249,feet,jsons/v1_VE250_randls_28_rotated.json,1123395,1415709,48,Woman
140,767902,DepthScenes,duration_manipulation_targetAtFixation,jsons/v1_VE250_randls_28_rotated.json,http://54.235.29.9/FacialAge/BNav_EC2/DepthDuration/v2_depth_duration_MTurk/v2_DepthDuration_HTML.html#72,72,1524,728,1536,864,8-20-2022,11-28-6,141,depth_duration_stimuli/000469_2014-06-09_19-42-10_260595134347_rgbf000081-resize_1/000469_2014-06-09_19-42-10_260595134347_rgbf000081-resize_1-target.png,250,1.652,45,9316,246,feet,jsons/v1_VE250_randls_28_rotated.json,1123395,1415709,48,Woman
141,767902,DepthScenes,duration_manipulation_targetAtFixation,jsons/v1_VE250_randls_28_rotated.json,http://54.235.29.9/FacialAge/BNav_EC2/DepthDuration/v2_depth_duration_MTurk/v2_DepthDuration_HTML.html#72,72,1524,728,1536,864,8-20-2022,11-28-6,142,depth_duration_stimuli/000742_2014-06-08_18-48-09_260595134347_rgbf000164-resize_4/000742_2014-06-08_18-48-09_260595134347_rgbf000164-resize_4-target.png,250,4.632,68,9103,247,feet,jsons/v1_VE250_randls_28_rotated.json,1123395,1415709,48,Woman
142,767902,DepthScenes,duration_manipulation_targetAtFixation,jsons/v1_VE250_randls_28_rotated.json,http://54.235.29.9/FacialAge/BNav_EC2/DepthDuration/v2_depth_duration_MTurk/v2_DepthDuration_HTML.html#72,72,1524,728,1536,864,8-20-2022,11-28-6,143,depth_duration_stimuli/001066_2014-06-08_22-03-20_260595134347_rgbf000066-resize_4/001066_2014-06-08_22-03-20_260595134347_rgbf000066-resize_4-target.png,250,4.2330000000000005,77,5212,251,feet,jsons/v1_VE250_randls_28_rotated.json,1123395,1415709,48,Woman
143,767902,DepthScenes,duration_manipulation_targetAtFixation,jsons/v1_VE250_randls_28_rotated.json,http://54.235.29.9/FacialAge/BNav_EC2/DepthDuration/v2_depth_duration_MTurk/v2_DepthDuration_HTML.html#72,72,1524,728,1536,864,8-20-2022,11-28-6,144,depth_duration_stimuli/001447_2014-06-19_17-00-32_260595134347_rgbf000082-resize_5/001447_2014-06-19_17-00-32_260595134347_rgbf000082-resize_5-target.png,250,4.13775,44,6269,249,feet,jsons/v1_VE250_randls_28_rotated.json,1123395,1415709,48,Woman
144,767902,DepthScenes,duration_manipulation_targetAtFixation,jsons/v1_VE250_randls_28_rotated.json,http://54.235.29.9/FacialAge/BNav_EC2/DepthDuration/v2_depth_duration_MTurk/v2_DepthDuration_HTML.html#72,72,1524,728,1536,864,8-20-2022,11-28-6,145,depth_duration_stimuli/000447_2014-06-08_16-15-46_260595134347_rgbf000130-resize_1/000447_2014-06-08_16-15-46_260595134347_rgbf000130-resize_1-target.png,250,4.479,60,10136,265,feet,jsons/v1_VE250_randls_28_rotated.json,1123395,1415709,48,Woman
145,767902,DepthScenes,duration_manipulation_targetAtFixation,jsons/v1_VE250_randls_28_rotated.json,http://54.235.29.9/FacialAge/BNav_EC2/DepthDuration/v2_depth_duration_MTurk/v2_DepthDuration_HTML.html#72,72,1524,728,1536,864,8-20-2022,11-28-6,146,depth_duration_stimuli/000734_2014-06-08_17-39-11_260595134347_rgbf000128-resize_2/000734_2014-06-08_17-39-11_260595134347_rgbf000128-resize_2-target.png,250,4.098,66,8997,259,feet,jsons/v1_VE250_randls_28_rotated.json,1123395,1415709,48,Woman
146,767902,DepthScenes,duration_manipulation_targetAtFixation,jsons/v1_VE250_randls_28_rotated.json,http://54.235.29.9/FacialAge/BNav_EC2/DepthDuration/v2_depth_duration_MTurk/v2_DepthDuration_HTML.html#72,72,1524,728,1536,864,8-20-2022,11-28-6,147,depth_duration_stimuli/000739_2014-06-08_18-45-58_260595134347_rgbf000068-resize_1/000739_2014-06-08_18-45-58_260595134347_rgbf000068-resize_1-target.png,250,3.534,70,8205,251,feet,jsons/v1_VE250_randls_28_rotated.json,1123395,1415709,48,Woman
147,767902,DepthScenes,duration_manipulation_targetAtFixation,jsons/v1_VE250_randls_28_rotated.json,http://54.235.29.9/FacialAge/BNav_EC2/DepthDuration/v2_depth_duration_MTurk/v2_DepthDuration_HTML.html#72,72,1524,728,1536,864,8-20-2022,11-28-6,148,depth_duration_stimuli/000749_2014-06-08_21-55-06_260595134347_rgbf000070-resize_2/000749_2014-06-08_21-55-06_260595134347_rgbf000070-resize_2-target.png,250,2.331,35,4496,246,feet,jsons/v1_VE250_randls_28_rotated.json,1123395,1415709,48,Woman
148,767902,DepthScenes,duration_manipulation_targetAtFixation,jsons/v1_VE250_randls_28_rotated.json,http://54.235.29.9/FacialAge/BNav_EC2/DepthDuration/v2_depth_duration_MTurk/v2_DepthDuration_HTML.html#72,72,1524,728,1536,864,8-20-2022,11-28-6,149,depth_duration_stimuli/002788_2014-06-22_19-36-03_094959634447_rgbf000088-resize_2/002788_2014-06-22_19-36-03_094959634447_rgbf000088-resize_2-target.png,250,1.6465,51,6305,250,feet,jsons/v1_VE250_randls_28_rotated.json,1123395,1415709,48,Woman
149,767902,DepthScenes,duration_manipulation_targetAtFixation,jsons/v1_VE250_randls_28_rotated.json,http://54.235.29.9/FacialAge/BNav_EC2/DepthDuration/v2_depth_duration_MTurk/v2_DepthDuration_HTML.html#72,72,1524,728,1536,864,8-20-2022,11-28-6,150,depth_duration_stimuli/001584_2014-06-20_11-07-43_260595134347_rgbf000002-resize_1/001584_2014-06-20_11-07-43_260595134347_rgbf000002-resize_1-target.png,250,3.53,58,19863,249,feet,jsons/v1_VE250_randls_28_rotated.json,1123395,1415709,48,Woman
150,767902,DepthScenes,duration_manipulation_targetAtFixation,jsons/v1_VE250_randls_28_rotated.json,http://54.235.29.9/FacialAge/BNav_EC2/DepthDuration/v2_depth_duration_MTurk/v2_DepthDuration_HTML.html#72,72,1524,728,1536,864,8-20-2022,11-28-6,151,depth_duration_stimuli/003621_2014-05-23_18-06-08_094959634447_rgbf000101-resize_1/003621_2014-05-23_18-06-08_094959634447_rgbf000101-resize_1-target.png,250,3.9835,75,6336,249,feet,jsons/v1_VE250_randls_28_rotated.json,1123395,1415709,48,Woman
151,767902,DepthScenes,duration_manipulation_targetAtFixation,jsons/v1_VE250_randls_28_rotated.json,http://54.235.29.9/FacialAge/BNav_EC2/DepthDuration/v2_depth_duration_MTurk/v2_DepthDuration_HTML.html#72,72,1524,728,1536,864,8-20-2022,11-28-6,152,depth_duration_stimuli/000569_2014-06-09_22-51-47_260595134347_rgbf000141-resize_3/000569_2014-06-09_22-51-47_260595134347_rgbf000141-resize-original.jpg,250,4.512,0,4208,253,feet,jsons/v1_VE250_randls_28_rotated.json,1123395,1415709,48,Woman
152,767902,DepthScenes,duration_manipulation_targetAtFixation,jsons/v1_VE250_randls_28_rotated.json,http://54.235.29.9/FacialAge/BNav_EC2/DepthDuration/v2_depth_duration_MTurk/v2_DepthDuration_HTML.html#72,72,1524,728,1536,864,8-20-2022,11-28-6,153,depth_duration_stimuli/001094_2014-06-15_17-36-00_260595134347_rgbf000205-resize_0/001094_2014-06-15_17-36-00_260595134347_rgbf000205-resize_0-target.png,250,4.2175,52,5244,252,feet,jsons/v1_VE250_randls_28_rotated.json,1123395,1415709,48,Woman
153,767902,DepthScenes,duration_manipulation_targetAtFixation,jsons/v1_VE250_randls_28_rotated.json,http://54.235.29.9/FacialAge/BNav_EC2/DepthDuration/v2_depth_duration_MTurk/v2_DepthDuration_HTML.html#72,72,1524,728,1536,864,8-20-2022,11-28-6,154,depth_duration_stimuli/000692_2014-06-08_13-09-42_260595134347_rgbf000199-resize_2/000692_2014-06-08_13-09-42_260595134347_rgbf000199-resize_2-target.png,250,3.661,55,3528,249,feet,jsons/v1_VE250_randls_28_rotated.json,1123395,1415709,48,Woman
154,767902,DepthScenes,duration_manipulation_targetAtFixation,jsons/v1_VE250_randls_28_rotated.json,http://54.235.29.9/FacialAge/BNav_EC2/DepthDuration/v2_depth_duration_MTurk/v2_DepthDuration_HTML.html#72,72,1524,728,1536,864,8-20-2022,11-28-6,155,depth_duration_stimuli/002949_2014-06-26_15-57-42_094959634447_rgbf000079-resize_1/002949_2014-06-26_15-57-42_094959634447_rgbf000079-resize_1-target.png,250,1.8915,33,4126,247,feet,jsons/v1_VE250_randls_28_rotated.json,1123395,1415709,48,Woman
155,767902,DepthScenes,duration_manipulation_targetAtFixation,jsons/v1_VE250_randls_28_rotated.json,http://54.235.29.9/FacialAge/BNav_EC2/DepthDuration/v2_depth_duration_MTurk/v2_DepthDuration_HTML.html#72,72,1524,728,1536,864,8-20-2022,11-28-6,156,depth_duration_stimuli/000522_2014-06-08_13-35-06_260595134347_rgbf000244-resize_1/000522_2014-06-08_13-35-06_260595134347_rgbf000244-resize_1-target.png,250,2.3715,0,43356,253,feet,jsons/v1_VE250_randls_28_rotated.json,1123395,1415709,48,Woman
156,767902,DepthScenes,duration_manipulation_targetAtFixation,jsons/v1_VE250_randls_28_rotated.json,http://54.235.29.9/FacialAge/BNav_EC2/DepthDuration/v2_depth_duration_MTurk/v2_DepthDuration_HTML.html#72,72,1524,728,1536,864,8-20-2022,11-28-6,157,depth_duration_stimuli/003338_2014-05-20_11-01-23_094959634447_rgbf000051-resize_6/003338_2014-05-20_11-01-23_094959634447_rgbf000051-resize_6-target.png,250,1.693,35,5208,251,feet,jsons/v1_VE250_randls_28_rotated.json,1123395,1415709,48,Woman
157,767902,DepthScenes,duration_manipulation_targetAtFixation,jsons/v1_VE250_randls_28_rotated.json,http://54.235.29.9/FacialAge/BNav_EC2/DepthDuration/v2_depth_duration_MTurk/v2_DepthDuration_HTML.html#72,72,1524,728,1536,864,8-20-2022,11-28-6,158,depth_duration_stimuli/002509_2014-06-24_13-19-22_094959634447_rgbf000077-resize_0/002509_2014-06-24_13-19-22_094959634447_rgbf000077-resize_0-target.png,250,1.3065,28,4534,251,feet,jsons/v1_VE250_randls_28_rotated.json,1123395,1415709,48,Woman
158,767902,DepthScenes,duration_manipulation_targetAtFixation,jsons/v1_VE250_randls_28_rotated.json,http://54.235.29.9/FacialAge/BNav_EC2/DepthDuration/v2_depth_duration_MTurk/v2_DepthDuration_HTML.html#72,72,1524,728,1536,864,8-20-2022,11-28-6,159,depth_duration_stimuli/002414_2014-06-28_20-24-58_260595134347_rgbf000067-resize_4/002414_2014-06-28_20-24-58_260595134347_rgbf000067-resize_4-target.png,250,4.363,34,6987,255,feet,jsons/v1_VE250_randls_28_rotated.json,1123395,1415709,48,Woman
159,767902,DepthScenes,duration_manipulation_targetAtFixation,jsons/v1_VE250_randls_28_rotated.json,http://54.235.29.9/FacialAge/BNav_EC2/DepthDuration/v2_depth_duration_MTurk/v2_DepthDuration_HTML.html#72,72,1524,728,1536,864,8-20-2022,11-28-6,160,depth_duration_stimuli/000773_2014-06-08_22-24-54_260595134347_rgbf000093-resize_1/000773_2014-06-08_22-24-54_260595134347_rgbf000093-resize_1-target.png,250,4.973,0,4029,240,feet,jsons/v1_VE250_randls_28_rotated.json,1123395,1415709,48,Woman
160,767902,DepthScenes,duration_manipulation_targetAtFixation,jsons/v1_VE250_randls_28_rotated.json,http://54.235.29.9/FacialAge/BNav_EC2/DepthDuration/v2_depth_duration_MTurk/v2_DepthDuration_HTML.html#72,72,1524,728,1536,864,8-20-2022,11-28-6,161,depth_duration_stimuli/002467_2014-06-28_20-38-07_260595134347_rgbf000026-resize_2/002467_2014-06-28_20-38-07_260595134347_rgbf000026-resize_2-target.png,250,4.742,57,5467,262,feet,jsons/v1_VE250_randls_28_rotated.json,1123395,1415709,48,Woman
161,767902,DepthScenes,duration_manipulation_targetAtFixation,jsons/v1_VE250_randls_28_rotated.json,http://54.235.29.9/FacialAge/BNav_EC2/DepthDuration/v2_depth_duration_MTurk/v2_DepthDuration_HTML.html#72,72,1524,728,1536,864,8-20-2022,11-28-6,162,depth_duration_stimuli/002570_2014-06-24_13-59-54_094959634447_rgbf000059-resize_0/002570_2014-06-24_13-59-54_094959634447_rgbf000059-resize_0-target.png,250,4.037,46,6557,242,feet,jsons/v1_VE250_randls_28_rotated.json,1123395,1415709,48,Woman
162,767902,DepthScenes,duration_manipulation_targetAtFixation,jsons/v1_VE250_randls_28_rotated.json,http://54.235.29.9/FacialAge/BNav_EC2/DepthDuration/v2_depth_duration_MTurk/v2_DepthDuration_HTML.html#72,72,1524,728,1536,864,8-20-2022,11-28-6,163,depth_duration_stimuli/001392_2014-06-19_16-07-59_260595134347_rgbf000046-resize_1/001392_2014-06-19_16-07-59_260595134347_rgbf000046-resize_1-target.png,250,4.135,70,4459,249,feet,jsons/v1_VE250_randls_28_rotated.json,1123395,1415709,48,Woman
163,767902,DepthScenes,duration_manipulation_targetAtFixation,jsons/v1_VE250_randls_28_rotated.json,http://54.235.29.9/FacialAge/BNav_EC2/DepthDuration/v2_depth_duration_MTurk/v2_DepthDuration_HTML.html#72,72,1524,728,1536,864,8-20-2022,11-28-6,164,depth_duration_stimuli/001570_2014-06-20_17-21-09_260595134347_rgbf000135-resize_4/001570_2014-06-20_17-21-09_260595134347_rgbf000135-resize_4-target.png,250,4.467,72,4586,247,feet,jsons/v1_VE250_randls_28_rotated.json,1123395,1415709,48,Woman
