,subjID,experimentName,versionName,sequenceName,url,selected_row,windowWidth,windowHeight,screenWidth,screenHeight,startDate,startTime,trial,stimulus,duration,actual_depth,depth_estimate,trial_RT,log_sceneDuration,unitSelection,seq_filepath,experimentTime,totalTime,age,gender
0,769127,DepthScenes,duration_manipulation_targetAtFixation,jsons/v1_VE1000_randls_11.json,http://54.235.29.9/FacialAge/BNav_EC2/DepthDuration/v2_depth_duration_MTurk/v2_DepthDuration_HTML.html#45,45,1024,768,1024,768,8-22-2022,8-4-40,1,depth_duration_stimuli/000414_2014-06-04_19-49-13_260595134347_rgbf000044-resize_0/000414_2014-06-04_19-49-13_260595134347_rgbf000044-resize_0-target.png,1000,4.329,1,4252,998,meters,jsons/v1_VE1000_randls_11.json,745548,919269,49,Woman
1,769127,DepthScenes,duration_manipulation_targetAtFixation,jsons/v1_VE1000_randls_11.json,http://54.235.29.9/FacialAge/BNav_EC2/DepthDuration/v2_depth_duration_MTurk/v2_DepthDuration_HTML.html#45,45,1024,768,1024,768,8-22-2022,8-4-40,2,depth_duration_stimuli/003129_2014-05-12_10-48-10_094959634447_rgbf000100-resize_0/003129_2014-05-12_10-48-10_094959634447_rgbf000100-resize_0-target.png,1000,4.9305,1,3500,992,meters,jsons/v1_VE1000_randls_11.json,745548,919269,49,Woman
2,769127,DepthScenes,duration_manipulation_targetAtFixation,jsons/v1_VE1000_randls_11.json,http://54.235.29.9/FacialAge/BNav_EC2/DepthDuration/v2_depth_duration_MTurk/v2_DepthDuration_HTML.html#45,45,1024,768,1024,768,8-22-2022,8-4-40,3,depth_duration_stimuli/002153_2014-06-25_21-27-18_260595134347_rgbf000038-resize_5/002153_2014-06-25_21-27-18_260595134347_rgbf000038-resize_5-target.png,1000,2.505,1,3592,984,meters,jsons/v1_VE1000_randls_11.json,745548,919269,49,Woman
3,769127,DepthScenes,duration_manipulation_targetAtFixation,jsons/v1_VE1000_randls_11.json,http://54.235.29.9/FacialAge/BNav_EC2/DepthDuration/v2_depth_duration_MTurk/v2_DepthDuration_HTML.html#45,45,1024,768,1024,768,8-22-2022,8-4-40,4,depth_duration_stimuli/002660_2014-06-13_15-44-18_094959634447_rgbf001878-resize_2/002660_2014-06-13_15-44-18_094959634447_rgbf001878-resize_2-target.png,1000,3.576,1,3370,992,meters,jsons/v1_VE1000_randls_11.json,745548,919269,49,Woman
4,769127,DepthScenes,duration_manipulation_targetAtFixation,jsons/v1_VE1000_randls_11.json,http://54.235.29.9/FacialAge/BNav_EC2/DepthDuration/v2_depth_duration_MTurk/v2_DepthDuration_HTML.html#45,45,1024,768,1024,768,8-22-2022,8-4-40,5,depth_duration_stimuli/002788_2014-06-22_19-36-03_094959634447_rgbf000088-resize_2/002788_2014-06-22_19-36-03_094959634447_rgbf000088-resize_2-target.png,1000,1.6465,1,3441,993,meters,jsons/v1_VE1000_randls_11.json,745548,919269,49,Woman
5,769127,DepthScenes,duration_manipulation_targetAtFixation,jsons/v1_VE1000_randls_11.json,http://54.235.29.9/FacialAge/BNav_EC2/DepthDuration/v2_depth_duration_MTurk/v2_DepthDuration_HTML.html#45,45,1024,768,1024,768,8-22-2022,8-4-40,6,depth_duration_stimuli/000749_2014-06-08_21-55-06_260595134347_rgbf000070-resize_2/000749_2014-06-08_21-55-06_260595134347_rgbf000070-resize_2-target.png,1000,2.331,1,3616,987,meters,jsons/v1_VE1000_randls_11.json,745548,919269,49,Woman
6,769127,DepthScenes,duration_manipulation_targetAtFixation,jsons/v1_VE1000_randls_11.json,http://54.235.29.9/FacialAge/BNav_EC2/DepthDuration/v2_depth_duration_MTurk/v2_DepthDuration_HTML.html#45,45,1024,768,1024,768,8-22-2022,8-4-40,7,depth_duration_stimuli/000810_2014-06-08_17-20-01_260595134347_rgbf000105-resize_0/000810_2014-06-08_17-20-01_260595134347_rgbf000105-resize_0-target.png,1000,1.4865,2,3356,1013,meters,jsons/v1_VE1000_randls_11.json,745548,919269,49,Woman
7,769127,DepthScenes,duration_manipulation_targetAtFixation,jsons/v1_VE1000_randls_11.json,http://54.235.29.9/FacialAge/BNav_EC2/DepthDuration/v2_depth_duration_MTurk/v2_DepthDuration_HTML.html#45,45,1024,768,1024,768,8-22-2022,8-4-40,8,depth_duration_stimuli/001214_2014-06-17_16-13-55_260595134347_rgbf000111-resize_0/001214_2014-06-17_16-13-55_260595134347_rgbf000111-resize_0-target.png,1000,2.6505,3,3068,988,meters,jsons/v1_VE1000_randls_11.json,745548,919269,49,Woman
8,769127,DepthScenes,duration_manipulation_targetAtFixation,jsons/v1_VE1000_randls_11.json,http://54.235.29.9/FacialAge/BNav_EC2/DepthDuration/v2_depth_duration_MTurk/v2_DepthDuration_HTML.html#45,45,1024,768,1024,768,8-22-2022,8-4-40,9,depth_duration_stimuli/000736_2014-06-08_18-24-15_260595134347_rgbf000206-resize_3/000736_2014-06-08_18-24-15_260595134347_rgbf000206-resize_3-target.png,1000,3.515,1,4297,1013,meters,jsons/v1_VE1000_randls_11.json,745548,919269,49,Woman
9,769127,DepthScenes,duration_manipulation_targetAtFixation,jsons/v1_VE1000_randls_11.json,http://54.235.29.9/FacialAge/BNav_EC2/DepthDuration/v2_depth_duration_MTurk/v2_DepthDuration_HTML.html#45,45,1024,768,1024,768,8-22-2022,8-4-40,10,depth_duration_stimuli/000137_2014-05-20_17-04-49_260595134347_rgbf000120-resize_1/000137_2014-05-20_17-04-49_260595134347_rgbf000120-resize_1-target.png,1000,3.786,1,3546,991,meters,jsons/v1_VE1000_randls_11.json,745548,919269,49,Woman
10,769127,DepthScenes,duration_manipulation_targetAtFixation,jsons/v1_VE1000_randls_11.json,http://54.235.29.9/FacialAge/BNav_EC2/DepthDuration/v2_depth_duration_MTurk/v2_DepthDuration_HTML.html#45,45,1024,768,1024,768,8-22-2022,8-4-40,11,depth_duration_stimuli/001110_2014-06-15_17-25-28_260595134347_rgbf000150-resize_1/001110_2014-06-15_17-25-28_260595134347_rgbf000150-resize_1-target.png,1000,1.7115,1,3664,1005,meters,jsons/v1_VE1000_randls_11.json,745548,919269,49,Woman
11,769127,DepthScenes,duration_manipulation_targetAtFixation,jsons/v1_VE1000_randls_11.json,http://54.235.29.9/FacialAge/BNav_EC2/DepthDuration/v2_depth_duration_MTurk/v2_DepthDuration_HTML.html#45,45,1024,768,1024,768,8-22-2022,8-4-40,12,depth_duration_stimuli/000927_2014-06-09_16-32-30_260595134347_rgbf000123-resize_3/000927_2014-06-09_16-32-30_260595134347_rgbf000123-resize_3-target.png,1000,2.6785,2,3068,985,meters,jsons/v1_VE1000_randls_11.json,745548,919269,49,Woman
12,769127,DepthScenes,duration_manipulation_targetAtFixation,jsons/v1_VE1000_randls_11.json,http://54.235.29.9/FacialAge/BNav_EC2/DepthDuration/v2_depth_duration_MTurk/v2_DepthDuration_HTML.html#45,45,1024,768,1024,768,8-22-2022,8-4-40,13,depth_duration_stimuli/000569_2014-06-09_22-51-47_260595134347_rgbf000141-resize_3/000569_2014-06-09_22-51-47_260595134347_rgbf000141-resize-original.jpg,1000,4.512,0,4438,1007,meters,jsons/v1_VE1000_randls_11.json,745548,919269,49,Woman
13,769127,DepthScenes,duration_manipulation_targetAtFixation,jsons/v1_VE1000_randls_11.json,http://54.235.29.9/FacialAge/BNav_EC2/DepthDuration/v2_depth_duration_MTurk/v2_DepthDuration_HTML.html#45,45,1024,768,1024,768,8-22-2022,8-4-40,14,depth_duration_stimuli/002509_2014-06-24_13-19-22_094959634447_rgbf000077-resize_0/002509_2014-06-24_13-19-22_094959634447_rgbf000077-resize_0-target.png,1000,1.3065,1,3604,998,meters,jsons/v1_VE1000_randls_11.json,745548,919269,49,Woman
14,769127,DepthScenes,duration_manipulation_targetAtFixation,jsons/v1_VE1000_randls_11.json,http://54.235.29.9/FacialAge/BNav_EC2/DepthDuration/v2_depth_duration_MTurk/v2_DepthDuration_HTML.html#45,45,1024,768,1024,768,8-22-2022,8-4-40,15,depth_duration_stimuli/003338_2014-05-20_11-01-23_094959634447_rgbf000051-resize_6/003338_2014-05-20_11-01-23_094959634447_rgbf000051-resize_6-target.png,1000,1.693,1,3259,987,meters,jsons/v1_VE1000_randls_11.json,745548,919269,49,Woman
15,769127,DepthScenes,duration_manipulation_targetAtFixation,jsons/v1_VE1000_randls_11.json,http://54.235.29.9/FacialAge/BNav_EC2/DepthDuration/v2_depth_duration_MTurk/v2_DepthDuration_HTML.html#45,45,1024,768,1024,768,8-22-2022,8-4-40,16,depth_duration_stimuli/002905_2014-06-03_18-04-43_094959634447_rgbf000151-resize_2/002905_2014-06-03_18-04-43_094959634447_rgbf000151-resize_2-target.png,1000,2.0295,1,3361,1009,meters,jsons/v1_VE1000_randls_11.json,745548,919269,49,Woman
16,769127,DepthScenes,duration_manipulation_targetAtFixation,jsons/v1_VE1000_randls_11.json,http://54.235.29.9/FacialAge/BNav_EC2/DepthDuration/v2_depth_duration_MTurk/v2_DepthDuration_HTML.html#45,45,1024,768,1024,768,8-22-2022,8-4-40,17,depth_duration_stimuli/003423_2014-05-21_10-23-26_094959634447_rgbf002665-resize_2/003423_2014-05-21_10-23-26_094959634447_rgbf002665-resize_2-target.png,1000,3.2575,1,3420,998,meters,jsons/v1_VE1000_randls_11.json,745548,919269,49,Woman
17,769127,DepthScenes,duration_manipulation_targetAtFixation,jsons/v1_VE1000_randls_11.json,http://54.235.29.9/FacialAge/BNav_EC2/DepthDuration/v2_depth_duration_MTurk/v2_DepthDuration_HTML.html#45,45,1024,768,1024,768,8-22-2022,8-4-40,18,depth_duration_stimuli/000878_2014-06-08_22-52-45_260595134347_rgbf000045-resize_2/000878_2014-06-08_22-52-45_260595134347_rgbf000045-resize_2-target.png,1000,2.092,1,3352,987,meters,jsons/v1_VE1000_randls_11.json,745548,919269,49,Woman
18,769127,DepthScenes,duration_manipulation_targetAtFixation,jsons/v1_VE1000_randls_11.json,http://54.235.29.9/FacialAge/BNav_EC2/DepthDuration/v2_depth_duration_MTurk/v2_DepthDuration_HTML.html#45,45,1024,768,1024,768,8-22-2022,8-4-40,19,depth_duration_stimuli/002953_2014-06-08_17-32-18_094959634447_rgbf000059-resize_5/002953_2014-06-08_17-32-18_094959634447_rgbf000059-resize_5-target.png,1000,1.551,3,3219,1011,meters,jsons/v1_VE1000_randls_11.json,745548,919269,49,Woman
19,769127,DepthScenes,duration_manipulation_targetAtFixation,jsons/v1_VE1000_randls_11.json,http://54.235.29.9/FacialAge/BNav_EC2/DepthDuration/v2_depth_duration_MTurk/v2_DepthDuration_HTML.html#45,45,1024,768,1024,768,8-22-2022,8-4-40,20,depth_duration_stimuli/002272_2014-06-28_18-53-56_260595134347_rgbf000067-resize_2/002272_2014-06-28_18-53-56_260595134347_rgbf000067-resize_2-target.png,1000,1.138,1,3220,994,meters,jsons/v1_VE1000_randls_11.json,745548,919269,49,Woman
20,769127,DepthScenes,duration_manipulation_targetAtFixation,jsons/v1_VE1000_randls_11.json,http://54.235.29.9/FacialAge/BNav_EC2/DepthDuration/v2_depth_duration_MTurk/v2_DepthDuration_HTML.html#45,45,1024,768,1024,768,8-22-2022,8-4-40,21,depth_duration_stimuli/001571_2014-06-20_17-21-32_260595134347_rgbf000089-resize_1/001571_2014-06-20_17-21-32_260595134347_rgbf000089-resize_1-target.png,1000,1.86,2,3150,989,meters,jsons/v1_VE1000_randls_11.json,745548,919269,49,Woman
21,769127,DepthScenes,duration_manipulation_targetAtFixation,jsons/v1_VE1000_randls_11.json,http://54.235.29.9/FacialAge/BNav_EC2/DepthDuration/v2_depth_duration_MTurk/v2_DepthDuration_HTML.html#45,45,1024,768,1024,768,8-22-2022,8-4-40,22,depth_duration_stimuli/001055_2014-06-08_18-45-35_260595134347_rgbf000111-resize_4/001055_2014-06-08_18-45-35_260595134347_rgbf000111-resize_4-target.png,1000,2.4290000000000003,2,4043,994,meters,jsons/v1_VE1000_randls_11.json,745548,919269,49,Woman
22,769127,DepthScenes,duration_manipulation_targetAtFixation,jsons/v1_VE1000_randls_11.json,http://54.235.29.9/FacialAge/BNav_EC2/DepthDuration/v2_depth_duration_MTurk/v2_DepthDuration_HTML.html#45,45,1024,768,1024,768,8-22-2022,8-4-40,23,depth_duration_stimuli/000549_2014-06-08_22-10-24_260595134347_rgbf000247-resize_3/000549_2014-06-08_22-10-24_260595134347_rgbf000247-resize_3-target.png,1000,1.841,2,3268,996,meters,jsons/v1_VE1000_randls_11.json,745548,919269,49,Woman
23,769127,DepthScenes,duration_manipulation_targetAtFixation,jsons/v1_VE1000_randls_11.json,http://54.235.29.9/FacialAge/BNav_EC2/DepthDuration/v2_depth_duration_MTurk/v2_DepthDuration_HTML.html#45,45,1024,768,1024,768,8-22-2022,8-4-40,24,depth_duration_stimuli/002725_2014-06-22_11-47-51_094959634447_rgbf000070-resize_1/002725_2014-06-22_11-47-51_094959634447_rgbf000070-resize_1-target.png,1000,2.195,1,3016,1000,meters,jsons/v1_VE1000_randls_11.json,745548,919269,49,Woman
24,769127,DepthScenes,duration_manipulation_targetAtFixation,jsons/v1_VE1000_randls_11.json,http://54.235.29.9/FacialAge/BNav_EC2/DepthDuration/v2_depth_duration_MTurk/v2_DepthDuration_HTML.html#45,45,1024,768,1024,768,8-22-2022,8-4-40,25,depth_duration_stimuli/002344_2014-06-28_20-06-29_260595134347_rgbf000030-resize_1/002344_2014-06-28_20-06-29_260595134347_rgbf000030-resize_1-target.png,1000,1.5795,1,3137,992,meters,jsons/v1_VE1000_randls_11.json,745548,919269,49,Woman
25,769127,DepthScenes,duration_manipulation_targetAtFixation,jsons/v1_VE1000_randls_11.json,http://54.235.29.9/FacialAge/BNav_EC2/DepthDuration/v2_depth_duration_MTurk/v2_DepthDuration_HTML.html#45,45,1024,768,1024,768,8-22-2022,8-4-40,26,depth_duration_stimuli/003292_2014-05-14_21-53-49_094959634447_rgbf000100-resize_2/003292_2014-05-14_21-53-49_094959634447_rgbf000100-resize_2-target.png,1000,3.4815,1,3406,985,meters,jsons/v1_VE1000_randls_11.json,745548,919269,49,Woman
26,769127,DepthScenes,duration_manipulation_targetAtFixation,jsons/v1_VE1000_randls_11.json,http://54.235.29.9/FacialAge/BNav_EC2/DepthDuration/v2_depth_duration_MTurk/v2_DepthDuration_HTML.html#45,45,1024,768,1024,768,8-22-2022,8-4-40,27,depth_duration_stimuli/002639_2014-06-24_14-51-37_094959634447_rgbf000074-resize_4/002639_2014-06-24_14-51-37_094959634447_rgbf000074-resize_4-target.png,1000,4.0375,1,3160,1002,meters,jsons/v1_VE1000_randls_11.json,745548,919269,49,Woman
27,769127,DepthScenes,duration_manipulation_targetAtFixation,jsons/v1_VE1000_randls_11.json,http://54.235.29.9/FacialAge/BNav_EC2/DepthDuration/v2_depth_duration_MTurk/v2_DepthDuration_HTML.html#45,45,1024,768,1024,768,8-22-2022,8-4-40,28,depth_duration_stimuli/000739_2014-06-08_18-45-58_260595134347_rgbf000068-resize_1/000739_2014-06-08_18-45-58_260595134347_rgbf000068-resize_1-target.png,1000,3.534,2,5482,993,meters,jsons/v1_VE1000_randls_11.json,745548,919269,49,Woman
28,769127,DepthScenes,duration_manipulation_targetAtFixation,jsons/v1_VE1000_randls_11.json,http://54.235.29.9/FacialAge/BNav_EC2/DepthDuration/v2_depth_duration_MTurk/v2_DepthDuration_HTML.html#45,45,1024,768,1024,768,8-22-2022,8-4-40,29,depth_duration_stimuli/000734_2014-06-08_17-39-11_260595134347_rgbf000128-resize_2/000734_2014-06-08_17-39-11_260595134347_rgbf000128-resize_2-target.png,1000,4.098,2,3469,1001,meters,jsons/v1_VE1000_randls_11.json,745548,919269,49,Woman
29,769127,DepthScenes,duration_manipulation_targetAtFixation,jsons/v1_VE1000_randls_11.json,http://54.235.29.9/FacialAge/BNav_EC2/DepthDuration/v2_depth_duration_MTurk/v2_DepthDuration_HTML.html#45,45,1024,768,1024,768,8-22-2022,8-4-40,30,depth_duration_stimuli/000375_2014-06-08_11-17-29_260595134347_rgbf000133-resize_2/000375_2014-06-08_11-17-29_260595134347_rgbf000133-resize-original.jpg,1000,4.718,0,3961,1028,meters,jsons/v1_VE1000_randls_11.json,745548,919269,49,Woman
30,769127,DepthScenes,duration_manipulation_targetAtFixation,jsons/v1_VE1000_randls_11.json,http://54.235.29.9/FacialAge/BNav_EC2/DepthDuration/v2_depth_duration_MTurk/v2_DepthDuration_HTML.html#45,45,1024,768,1024,768,8-22-2022,8-4-40,31,depth_duration_stimuli/002630_2014-06-24_14-47-50_094959634447_rgbf000055-resize_1/002630_2014-06-24_14-47-50_094959634447_rgbf000055-resize_1-target.png,1000,3.0095,1,4188,1002,meters,jsons/v1_VE1000_randls_11.json,745548,919269,49,Woman
31,769127,DepthScenes,duration_manipulation_targetAtFixation,jsons/v1_VE1000_randls_11.json,http://54.235.29.9/FacialAge/BNav_EC2/DepthDuration/v2_depth_duration_MTurk/v2_DepthDuration_HTML.html#45,45,1024,768,1024,768,8-22-2022,8-4-40,32,depth_duration_stimuli/002758_2014-06-22_19-11-20_094959634447_rgbf000128-resize_1/002758_2014-06-22_19-11-20_094959634447_rgbf000128-resize_1-target.png,1000,2.555,1,5274,995,meters,jsons/v1_VE1000_randls_11.json,745548,919269,49,Woman
32,769127,DepthScenes,duration_manipulation_targetAtFixation,jsons/v1_VE1000_randls_11.json,http://54.235.29.9/FacialAge/BNav_EC2/DepthDuration/v2_depth_duration_MTurk/v2_DepthDuration_HTML.html#45,45,1024,768,1024,768,8-22-2022,8-4-40,33,depth_duration_stimuli/000447_2014-06-08_16-15-46_260595134347_rgbf000130-resize_1/000447_2014-06-08_16-15-46_260595134347_rgbf000130-resize_1-target.png,1000,4.479,1,4008,995,meters,jsons/v1_VE1000_randls_11.json,745548,919269,49,Woman
33,769127,DepthScenes,duration_manipulation_targetAtFixation,jsons/v1_VE1000_randls_11.json,http://54.235.29.9/FacialAge/BNav_EC2/DepthDuration/v2_depth_duration_MTurk/v2_DepthDuration_HTML.html#45,45,1024,768,1024,768,8-22-2022,8-4-40,34,depth_duration_stimuli/001447_2014-06-19_17-00-32_260595134347_rgbf000082-resize_5/001447_2014-06-19_17-00-32_260595134347_rgbf000082-resize_5-target.png,1000,4.13775,1,3262,997,meters,jsons/v1_VE1000_randls_11.json,745548,919269,49,Woman
34,769127,DepthScenes,duration_manipulation_targetAtFixation,jsons/v1_VE1000_randls_11.json,http://54.235.29.9/FacialAge/BNav_EC2/DepthDuration/v2_depth_duration_MTurk/v2_DepthDuration_HTML.html#45,45,1024,768,1024,768,8-22-2022,8-4-40,35,depth_duration_stimuli/000906_2014-06-08_13-35-43_260595134347_rgbf000155-resize_1/000906_2014-06-08_13-35-43_260595134347_rgbf000155-resize_1-target.png,1000,2.8489999999999998,1,3316,995,meters,jsons/v1_VE1000_randls_11.json,745548,919269,49,Woman
35,769127,DepthScenes,duration_manipulation_targetAtFixation,jsons/v1_VE1000_randls_11.json,http://54.235.29.9/FacialAge/BNav_EC2/DepthDuration/v2_depth_duration_MTurk/v2_DepthDuration_HTML.html#45,45,1024,768,1024,768,8-22-2022,8-4-40,36,depth_duration_stimuli/002805_2014-06-22_19-54-03_094959634447_rgbf000079-resize_1/002805_2014-06-22_19-54-03_094959634447_rgbf000079-resize_1-target.png,1000,3.1439999999999997,2,7773,1011,meters,jsons/v1_VE1000_randls_11.json,745548,919269,49,Woman
36,769127,DepthScenes,duration_manipulation_targetAtFixation,jsons/v1_VE1000_randls_11.json,http://54.235.29.9/FacialAge/BNav_EC2/DepthDuration/v2_depth_duration_MTurk/v2_DepthDuration_HTML.html#45,45,1024,768,1024,768,8-22-2022,8-4-40,37,depth_duration_stimuli/002445_2014-06-28_20-32-16_260595134347_rgbf000029-resize_4/002445_2014-06-28_20-32-16_260595134347_rgbf000029-resize_4-target.png,1000,2.5315,1,3600,1000,meters,jsons/v1_VE1000_randls_11.json,745548,919269,49,Woman
37,769127,DepthScenes,duration_manipulation_targetAtFixation,jsons/v1_VE1000_randls_11.json,http://54.235.29.9/FacialAge/BNav_EC2/DepthDuration/v2_depth_duration_MTurk/v2_DepthDuration_HTML.html#45,45,1024,768,1024,768,8-22-2022,8-4-40,38,depth_duration_stimuli/000780_2014-06-08_22-28-29_260595134347_rgbf000126-resize_1/000780_2014-06-08_22-28-29_260595134347_rgbf000126-resize_1-target.png,1000,3.3825,1,4041,981,meters,jsons/v1_VE1000_randls_11.json,745548,919269,49,Woman
38,769127,DepthScenes,duration_manipulation_targetAtFixation,jsons/v1_VE1000_randls_11.json,http://54.235.29.9/FacialAge/BNav_EC2/DepthDuration/v2_depth_duration_MTurk/v2_DepthDuration_HTML.html#45,45,1024,768,1024,768,8-22-2022,8-4-40,39,depth_duration_stimuli/002279_2014-06-28_18-55-32_260595134347_rgbf000040-resize_5/002279_2014-06-28_18-55-32_260595134347_rgbf000040-resize_5-target.png,1000,1.5043333333333,2,4037,1006,meters,jsons/v1_VE1000_randls_11.json,745548,919269,49,Woman
39,769127,DepthScenes,duration_manipulation_targetAtFixation,jsons/v1_VE1000_randls_11.json,http://54.235.29.9/FacialAge/BNav_EC2/DepthDuration/v2_depth_duration_MTurk/v2_DepthDuration_HTML.html#45,45,1024,768,1024,768,8-22-2022,8-4-40,40,depth_duration_stimuli/000635_2014-06-08_16-38-42_260595134347_rgbf000106-resize_1/000635_2014-06-08_16-38-42_260595134347_rgbf000106-resize_1-target.png,1000,2.074,1,3021,987,meters,jsons/v1_VE1000_randls_11.json,745548,919269,49,Woman
40,769127,DepthScenes,duration_manipulation_targetAtFixation,jsons/v1_VE1000_randls_11.json,http://54.235.29.9/FacialAge/BNav_EC2/DepthDuration/v2_depth_duration_MTurk/v2_DepthDuration_HTML.html#45,45,1024,768,1024,768,8-22-2022,8-4-40,41,depth_duration_stimuli/001175_2014-06-17_15-45-55_260595134347_rgbf000129-resize_4/001175_2014-06-17_15-45-55_260595134347_rgbf000129-resize_4-target.png,1000,4.255,3,4114,988,meters,jsons/v1_VE1000_randls_11.json,745548,919269,49,Woman
41,769127,DepthScenes,duration_manipulation_targetAtFixation,jsons/v1_VE1000_randls_11.json,http://54.235.29.9/FacialAge/BNav_EC2/DepthDuration/v2_depth_duration_MTurk/v2_DepthDuration_HTML.html#45,45,1024,768,1024,768,8-22-2022,8-4-40,42,depth_duration_stimuli/003490_2014-05-21_15-50-11_094959634447_rgbf000101-resize_3/003490_2014-05-21_15-50-11_094959634447_rgbf000101-resize_3-target.png,1000,3.6445,2,4580,991,meters,jsons/v1_VE1000_randls_11.json,745548,919269,49,Woman
42,769127,DepthScenes,duration_manipulation_targetAtFixation,jsons/v1_VE1000_randls_11.json,http://54.235.29.9/FacialAge/BNav_EC2/DepthDuration/v2_depth_duration_MTurk/v2_DepthDuration_HTML.html#45,45,1024,768,1024,768,8-22-2022,8-4-40,43,depth_duration_stimuli/002964_2014-06-08_17-46-11_094959634447_rgbf000091-resize_4/002964_2014-06-08_17-46-11_094959634447_rgbf000091-resize_4-target.png,1000,1.6909999999999998,2,4014,984,meters,jsons/v1_VE1000_randls_11.json,745548,919269,49,Woman
43,769127,DepthScenes,duration_manipulation_targetAtFixation,jsons/v1_VE1000_randls_11.json,http://54.235.29.9/FacialAge/BNav_EC2/DepthDuration/v2_depth_duration_MTurk/v2_DepthDuration_HTML.html#45,45,1024,768,1024,768,8-22-2022,8-4-40,44,depth_duration_stimuli/002136_2014-06-25_21-18-03_260595134347_rgbf000109-resize_3/002136_2014-06-25_21-18-03_260595134347_rgbf000109-resize_3-target.png,1000,1.9569999999999999,1,3492,997,meters,jsons/v1_VE1000_randls_11.json,745548,919269,49,Woman
44,769127,DepthScenes,duration_manipulation_targetAtFixation,jsons/v1_VE1000_randls_11.json,http://54.235.29.9/FacialAge/BNav_EC2/DepthDuration/v2_depth_duration_MTurk/v2_DepthDuration_HTML.html#45,45,1024,768,1024,768,8-22-2022,8-4-40,45,depth_duration_stimuli/000787_2014-06-08_22-33-53_260595134347_rgbf000175-resize_1/000787_2014-06-08_22-33-53_260595134347_rgbf000175-resize-original.jpg,1000,4.784,0,3980,998,meters,jsons/v1_VE1000_randls_11.json,745548,919269,49,Woman
45,769127,DepthScenes,duration_manipulation_targetAtFixation,jsons/v1_VE1000_randls_11.json,http://54.235.29.9/FacialAge/BNav_EC2/DepthDuration/v2_depth_duration_MTurk/v2_DepthDuration_HTML.html#45,45,1024,768,1024,768,8-22-2022,8-4-40,46,depth_duration_stimuli/000682_2014-06-08_23-14-58_260595134347_rgbf000041-resize_5/000682_2014-06-08_23-14-58_260595134347_rgbf000041-resize_5-target.png,1000,2.7239999999999998,1,3501,992,meters,jsons/v1_VE1000_randls_11.json,745548,919269,49,Woman
46,769127,DepthScenes,duration_manipulation_targetAtFixation,jsons/v1_VE1000_randls_11.json,http://54.235.29.9/FacialAge/BNav_EC2/DepthDuration/v2_depth_duration_MTurk/v2_DepthDuration_HTML.html#45,45,1024,768,1024,768,8-22-2022,8-4-40,47,depth_duration_stimuli/001650_2014-06-20_12-09-00_260595134347_rgbf000087-resize_3/001650_2014-06-20_12-09-00_260595134347_rgbf000087-resize_3-target.png,1000,1.9505,1,3690,989,meters,jsons/v1_VE1000_randls_11.json,745548,919269,49,Woman
47,769127,DepthScenes,duration_manipulation_targetAtFixation,jsons/v1_VE1000_randls_11.json,http://54.235.29.9/FacialAge/BNav_EC2/DepthDuration/v2_depth_duration_MTurk/v2_DepthDuration_HTML.html#45,45,1024,768,1024,768,8-22-2022,8-4-40,48,depth_duration_stimuli/001059_2014-06-08_21-53-27_260595134347_rgbf000061-resize_4/001059_2014-06-08_21-53-27_260595134347_rgbf000061-resize_4-target.png,1000,2.4185,2,3323,997,meters,jsons/v1_VE1000_randls_11.json,745548,919269,49,Woman
48,769127,DepthScenes,duration_manipulation_targetAtFixation,jsons/v1_VE1000_randls_11.json,http://54.235.29.9/FacialAge/BNav_EC2/DepthDuration/v2_depth_duration_MTurk/v2_DepthDuration_HTML.html#45,45,1024,768,1024,768,8-22-2022,8-4-40,49,depth_duration_stimuli/001032_2014-06-08_13-23-17_260595134347_rgbf000021-resize_3/001032_2014-06-08_13-23-17_260595134347_rgbf000021-resize_3-target.png,1000,3.2725,1,3351,1001,meters,jsons/v1_VE1000_randls_11.json,745548,919269,49,Woman
49,769127,DepthScenes,duration_manipulation_targetAtFixation,jsons/v1_VE1000_randls_11.json,http://54.235.29.9/FacialAge/BNav_EC2/DepthDuration/v2_depth_duration_MTurk/v2_DepthDuration_HTML.html#45,45,1024,768,1024,768,8-22-2022,8-4-40,50,depth_duration_stimuli/000929_2014-06-09_16-33-19_260595134347_rgbf000139-resize_0/000929_2014-06-09_16-33-19_260595134347_rgbf000139-resize_0-target.png,1000,2.8680000000000003,2,4017,1004,meters,jsons/v1_VE1000_randls_11.json,745548,919269,49,Woman
50,769127,DepthScenes,duration_manipulation_targetAtFixation,jsons/v1_VE1000_randls_11.json,http://54.235.29.9/FacialAge/BNav_EC2/DepthDuration/v2_depth_duration_MTurk/v2_DepthDuration_HTML.html#45,45,1024,768,1024,768,8-22-2022,8-4-40,51,depth_duration_stimuli/000457_2014-06-08_16-52-43_260595134347_rgbf000199-resize_1/000457_2014-06-08_16-52-43_260595134347_rgbf000199-resize_1-target.png,1000,3.6489999999999996,1,3681,1004,meters,jsons/v1_VE1000_randls_11.json,745548,919269,49,Woman
51,769127,DepthScenes,duration_manipulation_targetAtFixation,jsons/v1_VE1000_randls_11.json,http://54.235.29.9/FacialAge/BNav_EC2/DepthDuration/v2_depth_duration_MTurk/v2_DepthDuration_HTML.html#45,45,1024,768,1024,768,8-22-2022,8-4-40,52,depth_duration_stimuli/000692_2014-06-08_13-09-42_260595134347_rgbf000199-resize_2/000692_2014-06-08_13-09-42_260595134347_rgbf000199-resize_2-target.png,1000,3.661,1,3633,991,meters,jsons/v1_VE1000_randls_11.json,745548,919269,49,Woman
52,769127,DepthScenes,duration_manipulation_targetAtFixation,jsons/v1_VE1000_randls_11.json,http://54.235.29.9/FacialAge/BNav_EC2/DepthDuration/v2_depth_duration_MTurk/v2_DepthDuration_HTML.html#45,45,1024,768,1024,768,8-22-2022,8-4-40,53,depth_duration_stimuli/001094_2014-06-15_17-36-00_260595134347_rgbf000205-resize_0/001094_2014-06-15_17-36-00_260595134347_rgbf000205-resize_0-target.png,1000,4.2175,1,3541,1000,meters,jsons/v1_VE1000_randls_11.json,745548,919269,49,Woman
53,769127,DepthScenes,duration_manipulation_targetAtFixation,jsons/v1_VE1000_randls_11.json,http://54.235.29.9/FacialAge/BNav_EC2/DepthDuration/v2_depth_duration_MTurk/v2_DepthDuration_HTML.html#45,45,1024,768,1024,768,8-22-2022,8-4-40,54,depth_duration_stimuli/000493_2014-06-09_21-01-18_260595134347_rgbf000196-resize_3/000493_2014-06-09_21-01-18_260595134347_rgbf000196-resize_3-target.png,1000,3.44,1,6166,985,meters,jsons/v1_VE1000_randls_11.json,745548,919269,49,Woman
54,769127,DepthScenes,duration_manipulation_targetAtFixation,jsons/v1_VE1000_randls_11.json,http://54.235.29.9/FacialAge/BNav_EC2/DepthDuration/v2_depth_duration_MTurk/v2_DepthDuration_HTML.html#45,45,1024,768,1024,768,8-22-2022,8-4-40,55,depth_duration_stimuli/000191_2014-05-12_17-07-38_260595134347_rgbf000199-resize_0/000191_2014-05-12_17-07-38_260595134347_rgbf000199-resize_0-target.png,1000,3.7995,1,2835,1083,meters,jsons/v1_VE1000_randls_11.json,745548,919269,49,Woman
55,769127,DepthScenes,duration_manipulation_targetAtFixation,jsons/v1_VE1000_randls_11.json,http://54.235.29.9/FacialAge/BNav_EC2/DepthDuration/v2_depth_duration_MTurk/v2_DepthDuration_HTML.html#45,45,1024,768,1024,768,8-22-2022,8-4-40,56,depth_duration_stimuli/001449_2014-06-19_17-01-27_260595134347_rgbf000116-resize_2/001449_2014-06-19_17-01-27_260595134347_rgbf000116-resize_2-target.png,1000,3.452,2,3260,994,meters,jsons/v1_VE1000_randls_11.json,745548,919269,49,Woman
56,769127,DepthScenes,duration_manipulation_targetAtFixation,jsons/v1_VE1000_randls_11.json,http://54.235.29.9/FacialAge/BNav_EC2/DepthDuration/v2_depth_duration_MTurk/v2_DepthDuration_HTML.html#45,45,1024,768,1024,768,8-22-2022,8-4-40,57,depth_duration_stimuli/001450_2014-06-19_17-02-03_260595134347_rgbf000203-resize_4/001450_2014-06-19_17-02-03_260595134347_rgbf000203-resize_4-target.png,1000,4.0106666666667,1,3146,985,meters,jsons/v1_VE1000_randls_11.json,745548,919269,49,Woman
57,769127,DepthScenes,duration_manipulation_targetAtFixation,jsons/v1_VE1000_randls_11.json,http://54.235.29.9/FacialAge/BNav_EC2/DepthDuration/v2_depth_duration_MTurk/v2_DepthDuration_HTML.html#45,45,1024,768,1024,768,8-22-2022,8-4-40,58,depth_duration_stimuli/001199_2014-06-17_16-03-48_260595134347_rgbf000077-resize_0/001199_2014-06-17_16-03-48_260595134347_rgbf000077-resize_0-target.png,1000,3.4375,3,3606,988,meters,jsons/v1_VE1000_randls_11.json,745548,919269,49,Woman
58,769127,DepthScenes,duration_manipulation_targetAtFixation,jsons/v1_VE1000_randls_11.json,http://54.235.29.9/FacialAge/BNav_EC2/DepthDuration/v2_depth_duration_MTurk/v2_DepthDuration_HTML.html#45,45,1024,768,1024,768,8-22-2022,8-4-40,59,depth_duration_stimuli/000502_2014-06-08_23-02-32_260595134347_rgbf000063-resize_4/000502_2014-06-08_23-02-32_260595134347_rgbf000063-resize_4-target.png,1000,2.431,2,6392,986,meters,jsons/v1_VE1000_randls_11.json,745548,919269,49,Woman
59,769127,DepthScenes,duration_manipulation_targetAtFixation,jsons/v1_VE1000_randls_11.json,http://54.235.29.9/FacialAge/BNav_EC2/DepthDuration/v2_depth_duration_MTurk/v2_DepthDuration_HTML.html#45,45,1024,768,1024,768,8-22-2022,8-4-40,60,depth_duration_stimuli/001016_2014-06-09_16-16-10_260595134347_rgbf000112-resize_5/001016_2014-06-09_16-16-10_260595134347_rgbf000112-resize_5-target.png,1000,1.6565,2,4857,985,meters,jsons/v1_VE1000_randls_11.json,745548,919269,49,Woman
60,769127,DepthScenes,duration_manipulation_targetAtFixation,jsons/v1_VE1000_randls_11.json,http://54.235.29.9/FacialAge/BNav_EC2/DepthDuration/v2_depth_duration_MTurk/v2_DepthDuration_HTML.html#45,45,1024,768,1024,768,8-22-2022,8-4-40,61,depth_duration_stimuli/002340_2014-06-28_20-05-46_260595134347_rgbf000113-resize_0/002340_2014-06-28_20-05-46_260595134347_rgbf000113-resize_0-target.png,1000,2.4735,1,3073,987,meters,jsons/v1_VE1000_randls_11.json,745548,919269,49,Woman
61,769127,DepthScenes,duration_manipulation_targetAtFixation,jsons/v1_VE1000_randls_11.json,http://54.235.29.9/FacialAge/BNav_EC2/DepthDuration/v2_depth_duration_MTurk/v2_DepthDuration_HTML.html#45,45,1024,768,1024,768,8-22-2022,8-4-40,62,depth_duration_stimuli/000469_2014-06-09_19-42-10_260595134347_rgbf000081-resize_1/000469_2014-06-09_19-42-10_260595134347_rgbf000081-resize_1-target.png,1000,1.652,1,3323,991,meters,jsons/v1_VE1000_randls_11.json,745548,919269,49,Woman
62,769127,DepthScenes,duration_manipulation_targetAtFixation,jsons/v1_VE1000_randls_11.json,http://54.235.29.9/FacialAge/BNav_EC2/DepthDuration/v2_depth_duration_MTurk/v2_DepthDuration_HTML.html#45,45,1024,768,1024,768,8-22-2022,8-4-40,63,depth_duration_stimuli/000483_2014-06-09_20-41-45_260595134347_rgbf000116-resize_4/000483_2014-06-09_20-41-45_260595134347_rgbf000116-resize_4-target.png,1000,1.337,1,2964,1008,meters,jsons/v1_VE1000_randls_11.json,745548,919269,49,Woman
63,769127,DepthScenes,duration_manipulation_targetAtFixation,jsons/v1_VE1000_randls_11.json,http://54.235.29.9/FacialAge/BNav_EC2/DepthDuration/v2_depth_duration_MTurk/v2_DepthDuration_HTML.html#45,45,1024,768,1024,768,8-22-2022,8-4-40,64,depth_duration_stimuli/002570_2014-06-24_13-59-54_094959634447_rgbf000059-resize_0/002570_2014-06-24_13-59-54_094959634447_rgbf000059-resize_0-target.png,1000,4.037,3,4015,1002,meters,jsons/v1_VE1000_randls_11.json,745548,919269,49,Woman
64,769127,DepthScenes,duration_manipulation_targetAtFixation,jsons/v1_VE1000_randls_11.json,http://54.235.29.9/FacialAge/BNav_EC2/DepthDuration/v2_depth_duration_MTurk/v2_DepthDuration_HTML.html#45,45,1024,768,1024,768,8-22-2022,8-4-40,65,depth_duration_stimuli/002467_2014-06-28_20-38-07_260595134347_rgbf000026-resize_2/002467_2014-06-28_20-38-07_260595134347_rgbf000026-resize_2-target.png,1000,4.742,3,3979,993,meters,jsons/v1_VE1000_randls_11.json,745548,919269,49,Woman
65,769127,DepthScenes,duration_manipulation_targetAtFixation,jsons/v1_VE1000_randls_11.json,http://54.235.29.9/FacialAge/BNav_EC2/DepthDuration/v2_depth_duration_MTurk/v2_DepthDuration_HTML.html#45,45,1024,768,1024,768,8-22-2022,8-4-40,66,depth_duration_stimuli/001222_2014-06-17_16-24-06_260595134347_rgbf000073-resize_0/001222_2014-06-17_16-24-06_260595134347_rgbf000073-resize-original.jpg,1000,1.4385,0,5046,995,meters,jsons/v1_VE1000_randls_11.json,745548,919269,49,Woman
66,769127,DepthScenes,duration_manipulation_targetAtFixation,jsons/v1_VE1000_randls_11.json,http://54.235.29.9/FacialAge/BNav_EC2/DepthDuration/v2_depth_duration_MTurk/v2_DepthDuration_HTML.html#45,45,1024,768,1024,768,8-22-2022,8-4-40,67,depth_duration_stimuli/001066_2014-06-08_22-03-20_260595134347_rgbf000066-resize_4/001066_2014-06-08_22-03-20_260595134347_rgbf000066-resize_4-target.png,1000,4.2330000000000005,1,3472,998,meters,jsons/v1_VE1000_randls_11.json,745548,919269,49,Woman
67,769127,DepthScenes,duration_manipulation_targetAtFixation,jsons/v1_VE1000_randls_11.json,http://54.235.29.9/FacialAge/BNav_EC2/DepthDuration/v2_depth_duration_MTurk/v2_DepthDuration_HTML.html#45,45,1024,768,1024,768,8-22-2022,8-4-40,68,depth_duration_stimuli/000742_2014-06-08_18-48-09_260595134347_rgbf000164-resize_4/000742_2014-06-08_18-48-09_260595134347_rgbf000164-resize_4-target.png,1000,4.632,2,3512,997,meters,jsons/v1_VE1000_randls_11.json,745548,919269,49,Woman
68,769127,DepthScenes,duration_manipulation_targetAtFixation,jsons/v1_VE1000_randls_11.json,http://54.235.29.9/FacialAge/BNav_EC2/DepthDuration/v2_depth_duration_MTurk/v2_DepthDuration_HTML.html#45,45,1024,768,1024,768,8-22-2022,8-4-40,69,depth_duration_stimuli/000436_2014-06-09_22-25-11_260595134347_rgbf000137-resize_1/000436_2014-06-09_22-25-11_260595134347_rgbf000137-resize_1-target.png,1000,4.0705,1,5450,1007,meters,jsons/v1_VE1000_randls_11.json,745548,919269,49,Woman
69,769127,DepthScenes,duration_manipulation_targetAtFixation,jsons/v1_VE1000_randls_11.json,http://54.235.29.9/FacialAge/BNav_EC2/DepthDuration/v2_depth_duration_MTurk/v2_DepthDuration_HTML.html#45,45,1024,768,1024,768,8-22-2022,8-4-40,70,depth_duration_stimuli/002444_2014-06-28_20-32-08_260595134347_rgbf000027-resize_0/002444_2014-06-28_20-32-08_260595134347_rgbf000027-resize_0-target.png,1000,4.388999999999999,3,3880,986,meters,jsons/v1_VE1000_randls_11.json,745548,919269,49,Woman
70,769127,DepthScenes,duration_manipulation_targetAtFixation,jsons/v1_VE1000_randls_11.json,http://54.235.29.9/FacialAge/BNav_EC2/DepthDuration/v2_depth_duration_MTurk/v2_DepthDuration_HTML.html#45,45,1024,768,1024,768,8-22-2022,8-4-40,71,depth_duration_stimuli/001056_2014-06-08_18-46-44_260595134347_rgbf000068-resize_0/001056_2014-06-08_18-46-44_260595134347_rgbf000068-resize_0-target.png,1000,2.6625,1,3968,986,meters,jsons/v1_VE1000_randls_11.json,745548,919269,49,Woman
71,769127,DepthScenes,duration_manipulation_targetAtFixation,jsons/v1_VE1000_randls_11.json,http://54.235.29.9/FacialAge/BNav_EC2/DepthDuration/v2_depth_duration_MTurk/v2_DepthDuration_HTML.html#45,45,1024,768,1024,768,8-22-2022,8-4-40,72,depth_duration_stimuli/002199_2014-06-28_18-33-56_260595134347_rgbf000074-resize_0/002199_2014-06-28_18-33-56_260595134347_rgbf000074-resize_0-target.png,1000,1.996,2,3593,986,meters,jsons/v1_VE1000_randls_11.json,745548,919269,49,Woman
72,769127,DepthScenes,duration_manipulation_targetAtFixation,jsons/v1_VE1000_randls_11.json,http://54.235.29.9/FacialAge/BNav_EC2/DepthDuration/v2_depth_duration_MTurk/v2_DepthDuration_HTML.html#45,45,1024,768,1024,768,8-22-2022,8-4-40,73,depth_duration_stimuli/001164_2014-06-17_15-35-46_260595134347_rgbf000085-resize_3/001164_2014-06-17_15-35-46_260595134347_rgbf000085-resize_3-target.png,1000,2.354,2,3238,1022,meters,jsons/v1_VE1000_randls_11.json,745548,919269,49,Woman
73,769127,DepthScenes,duration_manipulation_targetAtFixation,jsons/v1_VE1000_randls_11.json,http://54.235.29.9/FacialAge/BNav_EC2/DepthDuration/v2_depth_duration_MTurk/v2_DepthDuration_HTML.html#45,45,1024,768,1024,768,8-22-2022,8-4-40,74,depth_duration_stimuli/001136_2014-06-17_15-19-41_260595134347_rgbf000076-resize_3/001136_2014-06-17_15-19-41_260595134347_rgbf000076-resize_3-target.png,1000,1.8655,2,4555,985,meters,jsons/v1_VE1000_randls_11.json,745548,919269,49,Woman
74,769127,DepthScenes,duration_manipulation_targetAtFixation,jsons/v1_VE1000_randls_11.json,http://54.235.29.9/FacialAge/BNav_EC2/DepthDuration/v2_depth_duration_MTurk/v2_DepthDuration_HTML.html#45,45,1024,768,1024,768,8-22-2022,8-4-40,75,depth_duration_stimuli/003492_2014-05-21_15-50-55_094959634447_rgbf000828-resize_1/003492_2014-05-21_15-50-55_094959634447_rgbf000828-resize_1-target.png,1000,4.06875,2,3407,995,meters,jsons/v1_VE1000_randls_11.json,745548,919269,49,Woman
75,769127,DepthScenes,duration_manipulation_targetAtFixation,jsons/v1_VE1000_randls_11.json,http://54.235.29.9/FacialAge/BNav_EC2/DepthDuration/v2_depth_duration_MTurk/v2_DepthDuration_HTML.html#45,45,1024,768,1024,768,8-22-2022,8-4-40,76,depth_duration_stimuli/002568_2014-06-24_13-59-21_094959634447_rgbf000062-resize_4/002568_2014-06-24_13-59-21_094959634447_rgbf000062-resize_4-target.png,1000,3.015,1,3699,1006,meters,jsons/v1_VE1000_randls_11.json,745548,919269,49,Woman
76,769127,DepthScenes,duration_manipulation_targetAtFixation,jsons/v1_VE1000_randls_11.json,http://54.235.29.9/FacialAge/BNav_EC2/DepthDuration/v2_depth_duration_MTurk/v2_DepthDuration_HTML.html#45,45,1024,768,1024,768,8-22-2022,8-4-40,77,depth_duration_stimuli/002748_2014-06-22_19-07-22_094959634447_rgbf000078-resize_1/002748_2014-06-22_19-07-22_094959634447_rgbf000078-resize_1-target.png,1000,4.6705,2,2926,984,meters,jsons/v1_VE1000_randls_11.json,745548,919269,49,Woman
77,769127,DepthScenes,duration_manipulation_targetAtFixation,jsons/v1_VE1000_randls_11.json,http://54.235.29.9/FacialAge/BNav_EC2/DepthDuration/v2_depth_duration_MTurk/v2_DepthDuration_HTML.html#45,45,1024,768,1024,768,8-22-2022,8-4-40,78,depth_duration_stimuli/002995_2014-06-15_12-31-26_094959634447_rgbf000150-resize_1/002995_2014-06-15_12-31-26_094959634447_rgbf000150-resize_1-target.png,1000,3.8360000000000003,2,2948,995,meters,jsons/v1_VE1000_randls_11.json,745548,919269,49,Woman
78,769127,DepthScenes,duration_manipulation_targetAtFixation,jsons/v1_VE1000_randls_11.json,http://54.235.29.9/FacialAge/BNav_EC2/DepthDuration/v2_depth_duration_MTurk/v2_DepthDuration_HTML.html#45,45,1024,768,1024,768,8-22-2022,8-4-40,79,depth_duration_stimuli/002988_2014-06-15_12-24-20_094959634447_rgbf000150-resize_1/002988_2014-06-15_12-24-20_094959634447_rgbf000150-resize_1-target.png,1000,4.7669999999999995,3,3192,1009,meters,jsons/v1_VE1000_randls_11.json,745548,919269,49,Woman
79,769127,DepthScenes,duration_manipulation_targetAtFixation,jsons/v1_VE1000_randls_11.json,http://54.235.29.9/FacialAge/BNav_EC2/DepthDuration/v2_depth_duration_MTurk/v2_DepthDuration_HTML.html#45,45,1024,768,1024,768,8-22-2022,8-4-40,80,depth_duration_stimuli/001052_2014-06-08_18-24-54_260595134347_rgbf000130-resize_1/001052_2014-06-08_18-24-54_260595134347_rgbf000130-resize_1-target.png,1000,4.1045,2,2916,1003,meters,jsons/v1_VE1000_randls_11.json,745548,919269,49,Woman
80,769127,DepthScenes,duration_manipulation_targetAtFixation,jsons/v1_VE1000_randls_11.json,http://54.235.29.9/FacialAge/BNav_EC2/DepthDuration/v2_depth_duration_MTurk/v2_DepthDuration_HTML.html#45,45,1024,768,1024,768,8-22-2022,8-4-40,81,depth_duration_stimuli/001808_2014-06-26_20-50-58_260595134347_rgbf000029-resize_1/001808_2014-06-26_20-50-58_260595134347_rgbf000029-resize_1-target.png,1000,4.249,2,3535,988,meters,jsons/v1_VE1000_randls_11.json,745548,919269,49,Woman
81,769127,DepthScenes,duration_manipulation_targetAtFixation,jsons/v1_VE1000_randls_11.json,http://54.235.29.9/FacialAge/BNav_EC2/DepthDuration/v2_depth_duration_MTurk/v2_DepthDuration_HTML.html#45,45,1024,768,1024,768,8-22-2022,8-4-40,82,depth_duration_stimuli/001815_2014-06-26_20-52-55_260595134347_rgbf000020-resize_0/001815_2014-06-26_20-52-55_260595134347_rgbf000020-resize_0-target.png,1000,3.3865,1,3477,997,meters,jsons/v1_VE1000_randls_11.json,745548,919269,49,Woman
82,769127,DepthScenes,duration_manipulation_targetAtFixation,jsons/v1_VE1000_randls_11.json,http://54.235.29.9/FacialAge/BNav_EC2/DepthDuration/v2_depth_duration_MTurk/v2_DepthDuration_HTML.html#45,45,1024,768,1024,768,8-22-2022,8-4-40,83,depth_duration_stimuli/001806_2014-06-26_20-50-20_260595134347_rgbf000091-resize_1/001806_2014-06-26_20-50-20_260595134347_rgbf000091-resize_1-target.png,1000,2.7305,2,3316,987,meters,jsons/v1_VE1000_randls_11.json,745548,919269,49,Woman
83,769127,DepthScenes,duration_manipulation_targetAtFixation,jsons/v1_VE1000_randls_11.json,http://54.235.29.9/FacialAge/BNav_EC2/DepthDuration/v2_depth_duration_MTurk/v2_DepthDuration_HTML.html#45,45,1024,768,1024,768,8-22-2022,8-4-40,84,depth_duration_stimuli/001617_2014-06-20_11-35-32_260595134347_rgbf000066-resize_1/001617_2014-06-20_11-35-32_260595134347_rgbf000066-resize_1-target.png,1000,3.7910000000000004,1,3168,989,meters,jsons/v1_VE1000_randls_11.json,745548,919269,49,Woman
84,769127,DepthScenes,duration_manipulation_targetAtFixation,jsons/v1_VE1000_randls_11.json,http://54.235.29.9/FacialAge/BNav_EC2/DepthDuration/v2_depth_duration_MTurk/v2_DepthDuration_HTML.html#45,45,1024,768,1024,768,8-22-2022,8-4-40,85,depth_duration_stimuli/000758_2014-06-08_22-05-08_260595134347_rgbf000085-resize_0/000758_2014-06-08_22-05-08_260595134347_rgbf000085-resize_0-target.png,1000,3.3810000000000002,2,3271,989,meters,jsons/v1_VE1000_randls_11.json,745548,919269,49,Woman
85,769127,DepthScenes,duration_manipulation_targetAtFixation,jsons/v1_VE1000_randls_11.json,http://54.235.29.9/FacialAge/BNav_EC2/DepthDuration/v2_depth_duration_MTurk/v2_DepthDuration_HTML.html#45,45,1024,768,1024,768,8-22-2022,8-4-40,86,depth_duration_stimuli/000854_2014-06-09_19-43-13_260595134347_rgbf000066-resize_0/000854_2014-06-09_19-43-13_260595134347_rgbf000066-resize_0-target.png,1000,3.068,2,3291,980,meters,jsons/v1_VE1000_randls_11.json,745548,919269,49,Woman
86,769127,DepthScenes,duration_manipulation_targetAtFixation,jsons/v1_VE1000_randls_11.json,http://54.235.29.9/FacialAge/BNav_EC2/DepthDuration/v2_depth_duration_MTurk/v2_DepthDuration_HTML.html#45,45,1024,768,1024,768,8-22-2022,8-4-40,87,depth_duration_stimuli/002600_2014-06-24_14-27-04_094959634447_rgbf000074-resize_2/002600_2014-06-24_14-27-04_094959634447_rgbf000074-resize_2-target.png,1000,2.7575,1,2938,1018,meters,jsons/v1_VE1000_randls_11.json,745548,919269,49,Woman
87,769127,DepthScenes,duration_manipulation_targetAtFixation,jsons/v1_VE1000_randls_11.json,http://54.235.29.9/FacialAge/BNav_EC2/DepthDuration/v2_depth_duration_MTurk/v2_DepthDuration_HTML.html#45,45,1024,768,1024,768,8-22-2022,8-4-40,88,depth_duration_stimuli/003228_2014-05-14_13-42-35_094959634447_rgbf000101-resize_1/003228_2014-05-14_13-42-35_094959634447_rgbf000101-resize_1-target.png,1000,1.9680000000000002,1,2945,997,meters,jsons/v1_VE1000_randls_11.json,745548,919269,49,Woman
88,769127,DepthScenes,duration_manipulation_targetAtFixation,jsons/v1_VE1000_randls_11.json,http://54.235.29.9/FacialAge/BNav_EC2/DepthDuration/v2_depth_duration_MTurk/v2_DepthDuration_HTML.html#45,45,1024,768,1024,768,8-22-2022,8-4-40,89,depth_duration_stimuli/001244_2014-06-17_16-47-45_260595134347_rgbf000030-resize_4/001244_2014-06-17_16-47-45_260595134347_rgbf000030-resize_4-target.png,1000,2.0425,2,3722,1010,meters,jsons/v1_VE1000_randls_11.json,745548,919269,49,Woman
89,769127,DepthScenes,duration_manipulation_targetAtFixation,jsons/v1_VE1000_randls_11.json,http://54.235.29.9/FacialAge/BNav_EC2/DepthDuration/v2_depth_duration_MTurk/v2_DepthDuration_HTML.html#45,45,1024,768,1024,768,8-22-2022,8-4-40,90,depth_duration_stimuli/003495_2014-05-21_16-01-51_094959634447_rgbf000100-resize_3/003495_2014-05-21_16-01-51_094959634447_rgbf000100-resize_3-target.png,1000,1.6255,1,4533,988,meters,jsons/v1_VE1000_randls_11.json,745548,919269,49,Woman
90,769127,DepthScenes,duration_manipulation_targetAtFixation,jsons/v1_VE1000_randls_11.json,http://54.235.29.9/FacialAge/BNav_EC2/DepthDuration/v2_depth_duration_MTurk/v2_DepthDuration_HTML.html#45,45,1024,768,1024,768,8-22-2022,8-4-40,91,depth_duration_stimuli/000506_2014-06-08_23-21-00_260595134347_rgbf000070-resize_7/000506_2014-06-08_23-21-00_260595134347_rgbf000070-resize_7-target.png,1000,4.0585,1,37469,1008,meters,jsons/v1_VE1000_randls_11.json,745548,919269,49,Woman
91,769127,DepthScenes,duration_manipulation_targetAtFixation,jsons/v1_VE1000_randls_11.json,http://54.235.29.9/FacialAge/BNav_EC2/DepthDuration/v2_depth_duration_MTurk/v2_DepthDuration_HTML.html#45,45,1024,768,1024,768,8-22-2022,8-4-40,92,depth_duration_stimuli/003079_2014-06-15_15-18-20_094959634447_rgbf000152-resize_8/003079_2014-06-15_15-18-20_094959634447_rgbf000152-resize_8-target.png,1000,2.8775,1,4326,999,meters,jsons/v1_VE1000_randls_11.json,745548,919269,49,Woman
92,769127,DepthScenes,duration_manipulation_targetAtFixation,jsons/v1_VE1000_randls_11.json,http://54.235.29.9/FacialAge/BNav_EC2/DepthDuration/v2_depth_duration_MTurk/v2_DepthDuration_HTML.html#45,45,1024,768,1024,768,8-22-2022,8-4-40,93,depth_duration_stimuli/002989_2014-06-15_12-25-03_094959634447_rgbf000150-resize_3/002989_2014-06-15_12-25-03_094959634447_rgbf000150-resize_3-target.png,1000,4.1975,1,11652,989,meters,jsons/v1_VE1000_randls_11.json,745548,919269,49,Woman
93,769127,DepthScenes,duration_manipulation_targetAtFixation,jsons/v1_VE1000_randls_11.json,http://54.235.29.9/FacialAge/BNav_EC2/DepthDuration/v2_depth_duration_MTurk/v2_DepthDuration_HTML.html#45,45,1024,768,1024,768,8-22-2022,8-4-40,94,depth_duration_stimuli/000866_2014-06-09_20-45-42_260595134347_rgbf000139-resize_1/000866_2014-06-09_20-45-42_260595134347_rgbf000139-resize_1-target.png,1000,3.2155,1,7975,995,meters,jsons/v1_VE1000_randls_11.json,745548,919269,49,Woman
94,769127,DepthScenes,duration_manipulation_targetAtFixation,jsons/v1_VE1000_randls_11.json,http://54.235.29.9/FacialAge/BNav_EC2/DepthDuration/v2_depth_duration_MTurk/v2_DepthDuration_HTML.html#45,45,1024,768,1024,768,8-22-2022,8-4-40,95,depth_duration_stimuli/001029_2014-06-08_13-17-57_260595134347_rgbf000065-resize_1/001029_2014-06-08_13-17-57_260595134347_rgbf000065-resize_1-target.png,1000,3.0835,1,4458,999,meters,jsons/v1_VE1000_randls_11.json,745548,919269,49,Woman
95,769127,DepthScenes,duration_manipulation_targetAtFixation,jsons/v1_VE1000_randls_11.json,http://54.235.29.9/FacialAge/BNav_EC2/DepthDuration/v2_depth_duration_MTurk/v2_DepthDuration_HTML.html#45,45,1024,768,1024,768,8-22-2022,8-4-40,96,depth_duration_stimuli/000677_2014-06-08_23-10-32_260595134347_rgbf000158-resize_6/000677_2014-06-08_23-10-32_260595134347_rgbf000158-resize_6-target.png,1000,3.556,1,3014,993,meters,jsons/v1_VE1000_randls_11.json,745548,919269,49,Woman
96,769127,DepthScenes,duration_manipulation_targetAtFixation,jsons/v1_VE1000_randls_11.json,http://54.235.29.9/FacialAge/BNav_EC2/DepthDuration/v2_depth_duration_MTurk/v2_DepthDuration_HTML.html#45,45,1024,768,1024,768,8-22-2022,8-4-40,97,depth_duration_stimuli/002549_2014-06-24_13-41-39_094959634447_rgbf000022-resize_3/002549_2014-06-24_13-41-39_094959634447_rgbf000022-resize_3-target.png,1000,1.476,1,2879,1001,meters,jsons/v1_VE1000_randls_11.json,745548,919269,49,Woman
97,769127,DepthScenes,duration_manipulation_targetAtFixation,jsons/v1_VE1000_randls_11.json,http://54.235.29.9/FacialAge/BNav_EC2/DepthDuration/v2_depth_duration_MTurk/v2_DepthDuration_HTML.html#45,45,1024,768,1024,768,8-22-2022,8-4-40,98,depth_duration_stimuli/002750_2014-06-22_19-08-03_094959634447_rgbf000094-resize_4/002750_2014-06-22_19-08-03_094959634447_rgbf000094-resize_4-target.png,1000,2.354,1,3117,987,meters,jsons/v1_VE1000_randls_11.json,745548,919269,49,Woman
98,769127,DepthScenes,duration_manipulation_targetAtFixation,jsons/v1_VE1000_randls_11.json,http://54.235.29.9/FacialAge/BNav_EC2/DepthDuration/v2_depth_duration_MTurk/v2_DepthDuration_HTML.html#45,45,1024,768,1024,768,8-22-2022,8-4-40,99,depth_duration_stimuli/001540_2014-06-20_17-01-05_260595134347_rgbf000086-resize_2/001540_2014-06-20_17-01-05_260595134347_rgbf000086-resize-original.jpg,1000,1.459,1,3893,986,meters,jsons/v1_VE1000_randls_11.json,745548,919269,49,Woman
99,769127,DepthScenes,duration_manipulation_targetAtFixation,jsons/v1_VE1000_randls_11.json,http://54.235.29.9/FacialAge/BNav_EC2/DepthDuration/v2_depth_duration_MTurk/v2_DepthDuration_HTML.html#45,45,1024,768,1024,768,8-22-2022,8-4-40,100,depth_duration_stimuli/001417_2014-06-19_16-25-36_260595134347_rgbf000115-resize_5/001417_2014-06-19_16-25-36_260595134347_rgbf000115-resize_5-target.png,1000,4.6255,1,3243,995,meters,jsons/v1_VE1000_randls_11.json,745548,919269,49,Woman
100,769127,DepthScenes,duration_manipulation_targetAtFixation,jsons/v1_VE1000_randls_11.json,http://54.235.29.9/FacialAge/BNav_EC2/DepthDuration/v2_depth_duration_MTurk/v2_DepthDuration_HTML.html#45,45,1024,768,1024,768,8-22-2022,8-4-40,101,depth_duration_stimuli/003081_2014-06-15_15-19-16_094959634447_rgbf000150-resize_1/003081_2014-06-15_15-19-16_094959634447_rgbf000150-resize_1-target.png,1000,3.9125,1,15436,1000,meters,jsons/v1_VE1000_randls_11.json,745548,919269,49,Woman
101,769127,DepthScenes,duration_manipulation_targetAtFixation,jsons/v1_VE1000_randls_11.json,http://54.235.29.9/FacialAge/BNav_EC2/DepthDuration/v2_depth_duration_MTurk/v2_DepthDuration_HTML.html#45,45,1024,768,1024,768,8-22-2022,8-4-40,102,depth_duration_stimuli/000522_2014-06-08_13-35-06_260595134347_rgbf000244-resize_1/000522_2014-06-08_13-35-06_260595134347_rgbf000244-resize_1-target.png,1000,2.3715,1,3007,1007,meters,jsons/v1_VE1000_randls_11.json,745548,919269,49,Woman
102,769127,DepthScenes,duration_manipulation_targetAtFixation,jsons/v1_VE1000_randls_11.json,http://54.235.29.9/FacialAge/BNav_EC2/DepthDuration/v2_depth_duration_MTurk/v2_DepthDuration_HTML.html#45,45,1024,768,1024,768,8-22-2022,8-4-40,103,depth_duration_stimuli/002949_2014-06-26_15-57-42_094959634447_rgbf000079-resize_1/002949_2014-06-26_15-57-42_094959634447_rgbf000079-resize_1-target.png,1000,1.8915,1,6177,998,meters,jsons/v1_VE1000_randls_11.json,745548,919269,49,Woman
103,769127,DepthScenes,duration_manipulation_targetAtFixation,jsons/v1_VE1000_randls_11.json,http://54.235.29.9/FacialAge/BNav_EC2/DepthDuration/v2_depth_duration_MTurk/v2_DepthDuration_HTML.html#45,45,1024,768,1024,768,8-22-2022,8-4-40,104,depth_duration_stimuli/002375_2014-06-28_20-13-44_260595134347_rgbf000032-resize_1/002375_2014-06-28_20-13-44_260595134347_rgbf000032-resize_1-target.png,1000,4.0175,1,3313,988,meters,jsons/v1_VE1000_randls_11.json,745548,919269,49,Woman
104,769127,DepthScenes,duration_manipulation_targetAtFixation,jsons/v1_VE1000_randls_11.json,http://54.235.29.9/FacialAge/BNav_EC2/DepthDuration/v2_depth_duration_MTurk/v2_DepthDuration_HTML.html#45,45,1024,768,1024,768,8-22-2022,8-4-40,105,depth_duration_stimuli/002657_2014-06-13_15-29-54_094959634447_rgbf000150-resize_1/002657_2014-06-13_15-29-54_094959634447_rgbf000150-resize_1-target.png,1000,4.919,1,3937,1003,meters,jsons/v1_VE1000_randls_11.json,745548,919269,49,Woman
105,769127,DepthScenes,duration_manipulation_targetAtFixation,jsons/v1_VE1000_randls_11.json,http://54.235.29.9/FacialAge/BNav_EC2/DepthDuration/v2_depth_duration_MTurk/v2_DepthDuration_HTML.html#45,45,1024,768,1024,768,8-22-2022,8-4-40,106,depth_duration_stimuli/002213_2014-06-28_18-37-58_260595134347_rgbf000055-resize_1/002213_2014-06-28_18-37-58_260595134347_rgbf000055-resize_1-target.png,1000,3.62,2,2849,1000,meters,jsons/v1_VE1000_randls_11.json,745548,919269,49,Woman
106,769127,DepthScenes,duration_manipulation_targetAtFixation,jsons/v1_VE1000_randls_11.json,http://54.235.29.9/FacialAge/BNav_EC2/DepthDuration/v2_depth_duration_MTurk/v2_DepthDuration_HTML.html#45,45,1024,768,1024,768,8-22-2022,8-4-40,107,depth_duration_stimuli/000691_2014-06-08_13-08-50_260595134347_rgbf000132-resize_3/000691_2014-06-08_13-08-50_260595134347_rgbf000132-resize_3-target.png,1000,4.1530000000000005,1,3356,997,meters,jsons/v1_VE1000_randls_11.json,745548,919269,49,Woman
107,769127,DepthScenes,duration_manipulation_targetAtFixation,jsons/v1_VE1000_randls_11.json,http://54.235.29.9/FacialAge/BNav_EC2/DepthDuration/v2_depth_duration_MTurk/v2_DepthDuration_HTML.html#45,45,1024,768,1024,768,8-22-2022,8-4-40,108,depth_duration_stimuli/001570_2014-06-20_17-21-09_260595134347_rgbf000135-resize_4/001570_2014-06-20_17-21-09_260595134347_rgbf000135-resize_4-target.png,1000,4.467,1,3246,990,meters,jsons/v1_VE1000_randls_11.json,745548,919269,49,Woman
108,769127,DepthScenes,duration_manipulation_targetAtFixation,jsons/v1_VE1000_randls_11.json,http://54.235.29.9/FacialAge/BNav_EC2/DepthDuration/v2_depth_duration_MTurk/v2_DepthDuration_HTML.html#45,45,1024,768,1024,768,8-22-2022,8-4-40,109,depth_duration_stimuli/001392_2014-06-19_16-07-59_260595134347_rgbf000046-resize_1/001392_2014-06-19_16-07-59_260595134347_rgbf000046-resize_1-target.png,1000,4.135,2,4599,1004,meters,jsons/v1_VE1000_randls_11.json,745548,919269,49,Woman
109,769127,DepthScenes,duration_manipulation_targetAtFixation,jsons/v1_VE1000_randls_11.json,http://54.235.29.9/FacialAge/BNav_EC2/DepthDuration/v2_depth_duration_MTurk/v2_DepthDuration_HTML.html#45,45,1024,768,1024,768,8-22-2022,8-4-40,110,depth_duration_stimuli/001150_2014-06-17_15-27-34_260595134347_rgbf000108-resize_2/001150_2014-06-17_15-27-34_260595134347_rgbf000108-resize_2-target.png,1000,4.0325,3,3124,1011,meters,jsons/v1_VE1000_randls_11.json,745548,919269,49,Woman
110,769127,DepthScenes,duration_manipulation_targetAtFixation,jsons/v1_VE1000_randls_11.json,http://54.235.29.9/FacialAge/BNav_EC2/DepthDuration/v2_depth_duration_MTurk/v2_DepthDuration_HTML.html#45,45,1024,768,1024,768,8-22-2022,8-4-40,111,depth_duration_stimuli/000665_2014-06-09_20-42-35_260595134347_rgbf000110-resize_1/000665_2014-06-09_20-42-35_260595134347_rgbf000110-resize_1-target.png,1000,3.057,3,2749,1013,meters,jsons/v1_VE1000_randls_11.json,745548,919269,49,Woman
111,769127,DepthScenes,duration_manipulation_targetAtFixation,jsons/v1_VE1000_randls_11.json,http://54.235.29.9/FacialAge/BNav_EC2/DepthDuration/v2_depth_duration_MTurk/v2_DepthDuration_HTML.html#45,45,1024,768,1024,768,8-22-2022,8-4-40,112,depth_duration_stimuli/001133_2014-06-17_14-49-16_260595134347_rgbf000100-resize_0/001133_2014-06-17_14-49-16_260595134347_rgbf000100-resize_0-target.png,1000,4.2115,2,3074,1008,meters,jsons/v1_VE1000_randls_11.json,745548,919269,49,Woman
112,769127,DepthScenes,duration_manipulation_targetAtFixation,jsons/v1_VE1000_randls_11.json,http://54.235.29.9/FacialAge/BNav_EC2/DepthDuration/v2_depth_duration_MTurk/v2_DepthDuration_HTML.html#45,45,1024,768,1024,768,8-22-2022,8-4-40,113,depth_duration_stimuli/001132_2014-06-17_14-48-54_260595134347_rgbf000100-resize_2/001132_2014-06-17_14-48-54_260595134347_rgbf000100-resize_2-target.png,1000,3.753,1,3079,1003,meters,jsons/v1_VE1000_randls_11.json,745548,919269,49,Woman
113,769127,DepthScenes,duration_manipulation_targetAtFixation,jsons/v1_VE1000_randls_11.json,http://54.235.29.9/FacialAge/BNav_EC2/DepthDuration/v2_depth_duration_MTurk/v2_DepthDuration_HTML.html#45,45,1024,768,1024,768,8-22-2022,8-4-40,114,depth_duration_stimuli/001011_2014-06-08_23-18-54_260595134347_rgbf000044-resize_4/001011_2014-06-08_23-18-54_260595134347_rgbf000044-resize_4-target.png,1000,2.4730000000000003,2,2924,1000,meters,jsons/v1_VE1000_randls_11.json,745548,919269,49,Woman
114,769127,DepthScenes,duration_manipulation_targetAtFixation,jsons/v1_VE1000_randls_11.json,http://54.235.29.9/FacialAge/BNav_EC2/DepthDuration/v2_depth_duration_MTurk/v2_DepthDuration_HTML.html#45,45,1024,768,1024,768,8-22-2022,8-4-40,115,depth_duration_stimuli/002875_2014-06-01_15-19-00_094959634447_rgbf000151-resize_1/002875_2014-06-01_15-19-00_094959634447_rgbf000151-resize_1-target.png,1000,1.9675,2,2994,995,meters,jsons/v1_VE1000_randls_11.json,745548,919269,49,Woman
115,769127,DepthScenes,duration_manipulation_targetAtFixation,jsons/v1_VE1000_randls_11.json,http://54.235.29.9/FacialAge/BNav_EC2/DepthDuration/v2_depth_duration_MTurk/v2_DepthDuration_HTML.html#45,45,1024,768,1024,768,8-22-2022,8-4-40,116,depth_duration_stimuli/001170_2014-06-17_15-43-44_260595134347_rgbf000096-resize_6/001170_2014-06-17_15-43-44_260595134347_rgbf000096-resize-original.jpg,1000,1.1909999999999998,0,6709,994,meters,jsons/v1_VE1000_randls_11.json,745548,919269,49,Woman
116,769127,DepthScenes,duration_manipulation_targetAtFixation,jsons/v1_VE1000_randls_11.json,http://54.235.29.9/FacialAge/BNav_EC2/DepthDuration/v2_depth_duration_MTurk/v2_DepthDuration_HTML.html#45,45,1024,768,1024,768,8-22-2022,8-4-40,117,depth_duration_stimuli/002784_2014-06-22_19-26-30_094959634447_rgbf000083-resize_3/002784_2014-06-22_19-26-30_094959634447_rgbf000083-resize_3-target.png,1000,1.8046666666667,2,3530,986,meters,jsons/v1_VE1000_randls_11.json,745548,919269,49,Woman
117,769127,DepthScenes,duration_manipulation_targetAtFixation,jsons/v1_VE1000_randls_11.json,http://54.235.29.9/FacialAge/BNav_EC2/DepthDuration/v2_depth_duration_MTurk/v2_DepthDuration_HTML.html#45,45,1024,768,1024,768,8-22-2022,8-4-40,118,depth_duration_stimuli/001100_2014-06-15_17-46-26_260595134347_rgbf000225-resize_2/001100_2014-06-15_17-46-26_260595134347_rgbf000225-resize_2-target.png,1000,2.24,1,3812,1002,meters,jsons/v1_VE1000_randls_11.json,745548,919269,49,Woman
118,769127,DepthScenes,duration_manipulation_targetAtFixation,jsons/v1_VE1000_randls_11.json,http://54.235.29.9/FacialAge/BNav_EC2/DepthDuration/v2_depth_duration_MTurk/v2_DepthDuration_HTML.html#45,45,1024,768,1024,768,8-22-2022,8-4-40,119,depth_duration_stimuli/000470_2014-06-09_19-42-40_260595134347_rgbf000094-resize_1/000470_2014-06-09_19-42-40_260595134347_rgbf000094-resize_1-target.png,1000,1.831,1,3270,997,meters,jsons/v1_VE1000_randls_11.json,745548,919269,49,Woman
119,769127,DepthScenes,duration_manipulation_targetAtFixation,jsons/v1_VE1000_randls_11.json,http://54.235.29.9/FacialAge/BNav_EC2/DepthDuration/v2_depth_duration_MTurk/v2_DepthDuration_HTML.html#45,45,1024,768,1024,768,8-22-2022,8-4-40,120,depth_duration_stimuli/000109_2014-05-14_23-41-52_260595134347_rgbf000035-resize_9/000109_2014-05-14_23-41-52_260595134347_rgbf000035-resize_9-target.png,1000,1.3545,1,3324,1000,meters,jsons/v1_VE1000_randls_11.json,745548,919269,49,Woman
120,769127,DepthScenes,duration_manipulation_targetAtFixation,jsons/v1_VE1000_randls_11.json,http://54.235.29.9/FacialAge/BNav_EC2/DepthDuration/v2_depth_duration_MTurk/v2_DepthDuration_HTML.html#45,45,1024,768,1024,768,8-22-2022,8-4-40,121,depth_duration_stimuli/002663_2014-06-13_15-50-26_094959634447_rgbf000075-resize_1/002663_2014-06-13_15-50-26_094959634447_rgbf000075-resize_1-target.png,1000,4.7495,1,3354,1006,meters,jsons/v1_VE1000_randls_11.json,745548,919269,49,Woman
121,769127,DepthScenes,duration_manipulation_targetAtFixation,jsons/v1_VE1000_randls_11.json,http://54.235.29.9/FacialAge/BNav_EC2/DepthDuration/v2_depth_duration_MTurk/v2_DepthDuration_HTML.html#45,45,1024,768,1024,768,8-22-2022,8-4-40,122,depth_duration_stimuli/000409_2014-06-04_19-23-33_260595134347_rgbf000067-resize_0/000409_2014-06-04_19-23-33_260595134347_rgbf000067-resize_0-target.png,1000,3.7335,2,2740,1001,meters,jsons/v1_VE1000_randls_11.json,745548,919269,49,Woman
122,769127,DepthScenes,duration_manipulation_targetAtFixation,jsons/v1_VE1000_randls_11.json,http://54.235.29.9/FacialAge/BNav_EC2/DepthDuration/v2_depth_duration_MTurk/v2_DepthDuration_HTML.html#45,45,1024,768,1024,768,8-22-2022,8-4-40,123,depth_duration_stimuli/001158_2014-06-17_15-32-16_260595134347_rgbf000138-resize_2/001158_2014-06-17_15-32-16_260595134347_rgbf000138-resize_2-target.png,1000,4.5315,1,2648,1000,meters,jsons/v1_VE1000_randls_11.json,745548,919269,49,Woman
123,769127,DepthScenes,duration_manipulation_targetAtFixation,jsons/v1_VE1000_randls_11.json,http://54.235.29.9/FacialAge/BNav_EC2/DepthDuration/v2_depth_duration_MTurk/v2_DepthDuration_HTML.html#45,45,1024,768,1024,768,8-22-2022,8-4-40,124,depth_duration_stimuli/000556_2014-06-09_22-42-56_260595134347_rgbf000214-resize_1/000556_2014-06-09_22-42-56_260595134347_rgbf000214-resize_1-target.png,1000,4.8415,1,2793,990,meters,jsons/v1_VE1000_randls_11.json,745548,919269,49,Woman
124,769127,DepthScenes,duration_manipulation_targetAtFixation,jsons/v1_VE1000_randls_11.json,http://54.235.29.9/FacialAge/BNav_EC2/DepthDuration/v2_depth_duration_MTurk/v2_DepthDuration_HTML.html#45,45,1024,768,1024,768,8-22-2022,8-4-40,125,depth_duration_stimuli/002763_2014-06-22_19-13-10_094959634447_rgbf000075-resize_4/002763_2014-06-22_19-13-10_094959634447_rgbf000075-resize_4-target.png,1000,1.68375,1,4658,1008,meters,jsons/v1_VE1000_randls_11.json,745548,919269,49,Woman
125,769127,DepthScenes,duration_manipulation_targetAtFixation,jsons/v1_VE1000_randls_11.json,http://54.235.29.9/FacialAge/BNav_EC2/DepthDuration/v2_depth_duration_MTurk/v2_DepthDuration_HTML.html#45,45,1024,768,1024,768,8-22-2022,8-4-40,126,depth_duration_stimuli/002209_2014-06-28_18-36-10_260595134347_rgbf000051-resize_1/002209_2014-06-28_18-36-10_260595134347_rgbf000051-resize_1-target.png,1000,2.057,1,3040,991,meters,jsons/v1_VE1000_randls_11.json,745548,919269,49,Woman
126,769127,DepthScenes,duration_manipulation_targetAtFixation,jsons/v1_VE1000_randls_11.json,http://54.235.29.9/FacialAge/BNav_EC2/DepthDuration/v2_depth_duration_MTurk/v2_DepthDuration_HTML.html#45,45,1024,768,1024,768,8-22-2022,8-4-40,127,depth_duration_stimuli/000773_2014-06-08_22-24-54_260595134347_rgbf000093-resize_1/000773_2014-06-08_22-24-54_260595134347_rgbf000093-resize_1-target.png,1000,4.973,1,2860,992,meters,jsons/v1_VE1000_randls_11.json,745548,919269,49,Woman
127,769127,DepthScenes,duration_manipulation_targetAtFixation,jsons/v1_VE1000_randls_11.json,http://54.235.29.9/FacialAge/BNav_EC2/DepthDuration/v2_depth_duration_MTurk/v2_DepthDuration_HTML.html#45,45,1024,768,1024,768,8-22-2022,8-4-40,128,depth_duration_stimuli/002414_2014-06-28_20-24-58_260595134347_rgbf000067-resize_4/002414_2014-06-28_20-24-58_260595134347_rgbf000067-resize_4-target.png,1000,4.363,2,2766,1000,meters,jsons/v1_VE1000_randls_11.json,745548,919269,49,Woman
128,769127,DepthScenes,duration_manipulation_targetAtFixation,jsons/v1_VE1000_randls_11.json,http://54.235.29.9/FacialAge/BNav_EC2/DepthDuration/v2_depth_duration_MTurk/v2_DepthDuration_HTML.html#45,45,1024,768,1024,768,8-22-2022,8-4-40,129,depth_duration_stimuli/000642_2014-06-08_16-59-25_260595134347_rgbf000098-resize_2/000642_2014-06-08_16-59-25_260595134347_rgbf000098-resize_2-target.png,1000,2.8815,2,2702,990,meters,jsons/v1_VE1000_randls_11.json,745548,919269,49,Woman
129,769127,DepthScenes,duration_manipulation_targetAtFixation,jsons/v1_VE1000_randls_11.json,http://54.235.29.9/FacialAge/BNav_EC2/DepthDuration/v2_depth_duration_MTurk/v2_DepthDuration_HTML.html#45,45,1024,768,1024,768,8-22-2022,8-4-40,130,depth_duration_stimuli/002425_2014-06-28_20-27-29_260595134347_rgbf000031-resize_8/002425_2014-06-28_20-27-29_260595134347_rgbf000031-resize_8-target.png,1000,3.8960000000000004,2,3036,985,meters,jsons/v1_VE1000_randls_11.json,745548,919269,49,Woman
130,769127,DepthScenes,duration_manipulation_targetAtFixation,jsons/v1_VE1000_randls_11.json,http://54.235.29.9/FacialAge/BNav_EC2/DepthDuration/v2_depth_duration_MTurk/v2_DepthDuration_HTML.html#45,45,1024,768,1024,768,8-22-2022,8-4-40,131,depth_duration_stimuli/003070_2014-06-15_14-58-27_094959634447_rgbf000150-resize_3/003070_2014-06-15_14-58-27_094959634447_rgbf000150-resize_3-target.png,1000,2.9415,1,2905,1027,meters,jsons/v1_VE1000_randls_11.json,745548,919269,49,Woman
131,769127,DepthScenes,duration_manipulation_targetAtFixation,jsons/v1_VE1000_randls_11.json,http://54.235.29.9/FacialAge/BNav_EC2/DepthDuration/v2_depth_duration_MTurk/v2_DepthDuration_HTML.html#45,45,1024,768,1024,768,8-22-2022,8-4-40,132,depth_duration_stimuli/000943_2014-06-09_19-31-07_260595134347_rgbf000128-resize_1/000943_2014-06-09_19-31-07_260595134347_rgbf000128-resize_1-target.png,1000,1.9765,1,3266,1009,meters,jsons/v1_VE1000_randls_11.json,745548,919269,49,Woman
132,769127,DepthScenes,duration_manipulation_targetAtFixation,jsons/v1_VE1000_randls_11.json,http://54.235.29.9/FacialAge/BNav_EC2/DepthDuration/v2_depth_duration_MTurk/v2_DepthDuration_HTML.html#45,45,1024,768,1024,768,8-22-2022,8-4-40,133,depth_duration_stimuli/002039_2014-06-24_20-22-38_260595134347_rgbf000084-resize_1/002039_2014-06-24_20-22-38_260595134347_rgbf000084-resize_1-target.png,1000,4.408,1,3128,996,meters,jsons/v1_VE1000_randls_11.json,745548,919269,49,Woman
133,769127,DepthScenes,duration_manipulation_targetAtFixation,jsons/v1_VE1000_randls_11.json,http://54.235.29.9/FacialAge/BNav_EC2/DepthDuration/v2_depth_duration_MTurk/v2_DepthDuration_HTML.html#45,45,1024,768,1024,768,8-22-2022,8-4-40,134,depth_duration_stimuli/002103_2014-06-25_20-00-40_260595134347_rgbf000049-resize_0/002103_2014-06-25_20-00-40_260595134347_rgbf000049-resize_0-target.png,1000,4.105,1,2800,1005,meters,jsons/v1_VE1000_randls_11.json,745548,919269,49,Woman
134,769127,DepthScenes,duration_manipulation_targetAtFixation,jsons/v1_VE1000_randls_11.json,http://54.235.29.9/FacialAge/BNav_EC2/DepthDuration/v2_depth_duration_MTurk/v2_DepthDuration_HTML.html#45,45,1024,768,1024,768,8-22-2022,8-4-40,135,depth_duration_stimuli/002072_2014-06-24_21-48-06_260595134347_rgbf000115-resize_0/002072_2014-06-24_21-48-06_260595134347_rgbf000115-resize-original.jpg,1000,4.702,0,4269,999,meters,jsons/v1_VE1000_randls_11.json,745548,919269,49,Woman
135,769127,DepthScenes,duration_manipulation_targetAtFixation,jsons/v1_VE1000_randls_11.json,http://54.235.29.9/FacialAge/BNav_EC2/DepthDuration/v2_depth_duration_MTurk/v2_DepthDuration_HTML.html#45,45,1024,768,1024,768,8-22-2022,8-4-40,136,depth_duration_stimuli/003621_2014-05-23_18-06-08_094959634447_rgbf000101-resize_1/003621_2014-05-23_18-06-08_094959634447_rgbf000101-resize_1-target.png,1000,3.9835,1,4376,990,meters,jsons/v1_VE1000_randls_11.json,745548,919269,49,Woman
136,769127,DepthScenes,duration_manipulation_targetAtFixation,jsons/v1_VE1000_randls_11.json,http://54.235.29.9/FacialAge/BNav_EC2/DepthDuration/v2_depth_duration_MTurk/v2_DepthDuration_HTML.html#45,45,1024,768,1024,768,8-22-2022,8-4-40,137,depth_duration_stimuli/001584_2014-06-20_11-07-43_260595134347_rgbf000002-resize_1/001584_2014-06-20_11-07-43_260595134347_rgbf000002-resize_1-target.png,1000,3.53,2,3203,1011,meters,jsons/v1_VE1000_randls_11.json,745548,919269,49,Woman
137,769127,DepthScenes,duration_manipulation_targetAtFixation,jsons/v1_VE1000_randls_11.json,http://54.235.29.9/FacialAge/BNav_EC2/DepthDuration/v2_depth_duration_MTurk/v2_DepthDuration_HTML.html#45,45,1024,768,1024,768,8-22-2022,8-4-40,138,depth_duration_stimuli/003534_2014-05-22_15-06-10_094959634447_rgbf000102-resize_4/003534_2014-05-22_15-06-10_094959634447_rgbf000102-resize_4-target.png,1000,1.426,2,3179,1043,meters,jsons/v1_VE1000_randls_11.json,745548,919269,49,Woman
138,769127,DepthScenes,duration_manipulation_targetAtFixation,jsons/v1_VE1000_randls_11.json,http://54.235.29.9/FacialAge/BNav_EC2/DepthDuration/v2_depth_duration_MTurk/v2_DepthDuration_HTML.html#45,45,1024,768,1024,768,8-22-2022,8-4-40,139,depth_duration_stimuli/002637_2014-06-24_14-51-13_094959634447_rgbf000066-resize_4/002637_2014-06-24_14-51-13_094959634447_rgbf000066-resize_4-target.png,1000,1.9955,1,4652,986,meters,jsons/v1_VE1000_randls_11.json,745548,919269,49,Woman
139,769127,DepthScenes,duration_manipulation_targetAtFixation,jsons/v1_VE1000_randls_11.json,http://54.235.29.9/FacialAge/BNav_EC2/DepthDuration/v2_depth_duration_MTurk/v2_DepthDuration_HTML.html#45,45,1024,768,1024,768,8-22-2022,8-4-40,140,depth_duration_stimuli/000486_2014-06-09_20-47-20_260595134347_rgbf000143-resize_2/000486_2014-06-09_20-47-20_260595134347_rgbf000143-resize_2-target.png,1000,4.8325,1,3811,992,meters,jsons/v1_VE1000_randls_11.json,745548,919269,49,Woman
140,769127,DepthScenes,duration_manipulation_targetAtFixation,jsons/v1_VE1000_randls_11.json,http://54.235.29.9/FacialAge/BNav_EC2/DepthDuration/v2_depth_duration_MTurk/v2_DepthDuration_HTML.html#45,45,1024,768,1024,768,8-22-2022,8-4-40,141,depth_duration_stimuli/003083_2014-06-15_15-21-03_094959634447_rgbf000063-resize_1/003083_2014-06-15_15-21-03_094959634447_rgbf000063-resize_1-target.png,1000,4.1405,1,3528,993,meters,jsons/v1_VE1000_randls_11.json,745548,919269,49,Woman
141,769127,DepthScenes,duration_manipulation_targetAtFixation,jsons/v1_VE1000_randls_11.json,http://54.235.29.9/FacialAge/BNav_EC2/DepthDuration/v2_depth_duration_MTurk/v2_DepthDuration_HTML.html#45,45,1024,768,1024,768,8-22-2022,8-4-40,142,depth_duration_stimuli/000788_2014-06-08_22-34-36_260595134347_rgbf000131-resize_1/000788_2014-06-08_22-34-36_260595134347_rgbf000131-resize_1-target.png,1000,3.359,1,3165,1001,meters,jsons/v1_VE1000_randls_11.json,745548,919269,49,Woman
142,769127,DepthScenes,duration_manipulation_targetAtFixation,jsons/v1_VE1000_randls_11.json,http://54.235.29.9/FacialAge/BNav_EC2/DepthDuration/v2_depth_duration_MTurk/v2_DepthDuration_HTML.html#45,45,1024,768,1024,768,8-22-2022,8-4-40,143,depth_duration_stimuli/001235_2014-06-17_16-37-36_260595134347_rgbf000084-resize_4/001235_2014-06-17_16-37-36_260595134347_rgbf000084-resize_4-target.png,1000,3.6605,1,3143,999,meters,jsons/v1_VE1000_randls_11.json,745548,919269,49,Woman
143,769127,DepthScenes,duration_manipulation_targetAtFixation,jsons/v1_VE1000_randls_11.json,http://54.235.29.9/FacialAge/BNav_EC2/DepthDuration/v2_depth_duration_MTurk/v2_DepthDuration_HTML.html#45,45,1024,768,1024,768,8-22-2022,8-4-40,144,depth_duration_stimuli/000368_2014-06-09_15-53-01_260595134347_rgbf000155-resize_2/000368_2014-06-09_15-53-01_260595134347_rgbf000155-resize_2-target.png,1000,2.4859999999999998,1,2777,999,meters,jsons/v1_VE1000_randls_11.json,745548,919269,49,Woman
144,769127,DepthScenes,duration_manipulation_targetAtFixation,jsons/v1_VE1000_randls_11.json,http://54.235.29.9/FacialAge/BNav_EC2/DepthDuration/v2_depth_duration_MTurk/v2_DepthDuration_HTML.html#45,45,1024,768,1024,768,8-22-2022,8-4-40,145,depth_duration_stimuli/002678_2014-06-13_16-15-32_094959634447_rgbf000151-resize_6/002678_2014-06-13_16-15-32_094959634447_rgbf000151-resize_6-target.png,1000,2.1830000000000003,2,2880,992,meters,jsons/v1_VE1000_randls_11.json,745548,919269,49,Woman
145,769127,DepthScenes,duration_manipulation_targetAtFixation,jsons/v1_VE1000_randls_11.json,http://54.235.29.9/FacialAge/BNav_EC2/DepthDuration/v2_depth_duration_MTurk/v2_DepthDuration_HTML.html#45,45,1024,768,1024,768,8-22-2022,8-4-40,146,depth_duration_stimuli/001498_2014-06-19_17-45-14_260595134347_rgbf000129-resize_4/001498_2014-06-19_17-45-14_260595134347_rgbf000129-resize-original.jpg,1000,1.4075,0,4155,988,meters,jsons/v1_VE1000_randls_11.json,745548,919269,49,Woman
146,769127,DepthScenes,duration_manipulation_targetAtFixation,jsons/v1_VE1000_randls_11.json,http://54.235.29.9/FacialAge/BNav_EC2/DepthDuration/v2_depth_duration_MTurk/v2_DepthDuration_HTML.html#45,45,1024,768,1024,768,8-22-2022,8-4-40,147,depth_duration_stimuli/001167_2014-06-17_15-38-07_260595134347_rgbf000108-resize_0/001167_2014-06-17_15-38-07_260595134347_rgbf000108-resize_0-target.png,1000,1.8505,1,3888,994,meters,jsons/v1_VE1000_randls_11.json,745548,919269,49,Woman
147,769127,DepthScenes,duration_manipulation_targetAtFixation,jsons/v1_VE1000_randls_11.json,http://54.235.29.9/FacialAge/BNav_EC2/DepthDuration/v2_depth_duration_MTurk/v2_DepthDuration_HTML.html#45,45,1024,768,1024,768,8-22-2022,8-4-40,148,depth_duration_stimuli/003587_2014-05-23_16-48-02_094959634447_rgbf002384-resize_2/003587_2014-05-23_16-48-02_094959634447_rgbf002384-resize_2-target.png,1000,1.357,1,2713,996,meters,jsons/v1_VE1000_randls_11.json,745548,919269,49,Woman
148,769127,DepthScenes,duration_manipulation_targetAtFixation,jsons/v1_VE1000_randls_11.json,http://54.235.29.9/FacialAge/BNav_EC2/DepthDuration/v2_depth_duration_MTurk/v2_DepthDuration_HTML.html#45,45,1024,768,1024,768,8-22-2022,8-4-40,149,depth_duration_stimuli/002118_2014-06-25_20-32-08_260595134347_rgbf000078-resize_1/002118_2014-06-25_20-32-08_260595134347_rgbf000078-resize_1-target.png,1000,2.6460000000000004,2,3435,996,meters,jsons/v1_VE1000_randls_11.json,745548,919269,49,Woman
149,769127,DepthScenes,duration_manipulation_targetAtFixation,jsons/v1_VE1000_randls_11.json,http://54.235.29.9/FacialAge/BNav_EC2/DepthDuration/v2_depth_duration_MTurk/v2_DepthDuration_HTML.html#45,45,1024,768,1024,768,8-22-2022,8-4-40,150,depth_duration_stimuli/001516_2014-06-20_16-25-09_260595134347_rgbf000076-resize_2/001516_2014-06-20_16-25-09_260595134347_rgbf000076-resize_2-target.png,1000,1.7445,1,2702,1006,meters,jsons/v1_VE1000_randls_11.json,745548,919269,49,Woman
150,769127,DepthScenes,duration_manipulation_targetAtFixation,jsons/v1_VE1000_randls_11.json,http://54.235.29.9/FacialAge/BNav_EC2/DepthDuration/v2_depth_duration_MTurk/v2_DepthDuration_HTML.html#45,45,1024,768,1024,768,8-22-2022,8-4-40,151,depth_duration_stimuli/002057_2014-06-24_21-00-13_260595134347_rgbf000120-resize_1/002057_2014-06-24_21-00-13_260595134347_rgbf000120-resize_1-target.png,1000,2.967,1,2979,993,meters,jsons/v1_VE1000_randls_11.json,745548,919269,49,Woman
151,769127,DepthScenes,duration_manipulation_targetAtFixation,jsons/v1_VE1000_randls_11.json,http://54.235.29.9/FacialAge/BNav_EC2/DepthDuration/v2_depth_duration_MTurk/v2_DepthDuration_HTML.html#45,45,1024,768,1024,768,8-22-2022,8-4-40,152,depth_duration_stimuli/000709_2014-06-08_13-51-55_260595134347_rgbf000068-resize_3/000709_2014-06-08_13-51-55_260595134347_rgbf000068-resize_3-target.png,1000,1.8030000000000002,1,2720,1014,meters,jsons/v1_VE1000_randls_11.json,745548,919269,49,Woman
152,769127,DepthScenes,duration_manipulation_targetAtFixation,jsons/v1_VE1000_randls_11.json,http://54.235.29.9/FacialAge/BNav_EC2/DepthDuration/v2_depth_duration_MTurk/v2_DepthDuration_HTML.html#45,45,1024,768,1024,768,8-22-2022,8-4-40,153,depth_duration_stimuli/000009_2014-05-26_14-32-05_260595134347_rgbf000034-resize_3/000009_2014-05-26_14-32-05_260595134347_rgbf000034-resize_3-target.png,1000,3.8715,2,3145,990,meters,jsons/v1_VE1000_randls_11.json,745548,919269,49,Woman
153,769127,DepthScenes,duration_manipulation_targetAtFixation,jsons/v1_VE1000_randls_11.json,http://54.235.29.9/FacialAge/BNav_EC2/DepthDuration/v2_depth_duration_MTurk/v2_DepthDuration_HTML.html#45,45,1024,768,1024,768,8-22-2022,8-4-40,154,depth_duration_stimuli/001828_2014-06-26_21-40-03_260595134347_rgbf000024-resize_0/001828_2014-06-26_21-40-03_260595134347_rgbf000024-resize_0-target.png,1000,4.8260000000000005,1,2655,981,meters,jsons/v1_VE1000_randls_11.json,745548,919269,49,Woman
154,769127,DepthScenes,duration_manipulation_targetAtFixation,jsons/v1_VE1000_randls_11.json,http://54.235.29.9/FacialAge/BNav_EC2/DepthDuration/v2_depth_duration_MTurk/v2_DepthDuration_HTML.html#45,45,1024,768,1024,768,8-22-2022,8-4-40,155,depth_duration_stimuli/000917_2014-06-09_22-45-29_260595134347_rgbf000149-resize_3/000917_2014-06-09_22-45-29_260595134347_rgbf000149-resize_3-target.png,1000,4.1865,2,3061,1011,meters,jsons/v1_VE1000_randls_11.json,745548,919269,49,Woman
155,769127,DepthScenes,duration_manipulation_targetAtFixation,jsons/v1_VE1000_randls_11.json,http://54.235.29.9/FacialAge/BNav_EC2/DepthDuration/v2_depth_duration_MTurk/v2_DepthDuration_HTML.html#45,45,1024,768,1024,768,8-22-2022,8-4-40,156,depth_duration_stimuli/002323_2014-06-28_20-01-54_260595134347_rgbf000051-resize_4/002323_2014-06-28_20-01-54_260595134347_rgbf000051-resize_4-target.png,1000,3.7310000000000003,2,3714,986,meters,jsons/v1_VE1000_randls_11.json,745548,919269,49,Woman
156,769127,DepthScenes,duration_manipulation_targetAtFixation,jsons/v1_VE1000_randls_11.json,http://54.235.29.9/FacialAge/BNav_EC2/DepthDuration/v2_depth_duration_MTurk/v2_DepthDuration_HTML.html#45,45,1024,768,1024,768,8-22-2022,8-4-40,157,depth_duration_stimuli/001092_2014-06-15_17-34-58_260595134347_rgbf000171-resize_3/001092_2014-06-15_17-34-58_260595134347_rgbf000171-resize_3-target.png,1000,2.6935,2,9970,998,meters,jsons/v1_VE1000_randls_11.json,745548,919269,49,Woman
157,769127,DepthScenes,duration_manipulation_targetAtFixation,jsons/v1_VE1000_randls_11.json,http://54.235.29.9/FacialAge/BNav_EC2/DepthDuration/v2_depth_duration_MTurk/v2_DepthDuration_HTML.html#45,45,1024,768,1024,768,8-22-2022,8-4-40,158,depth_duration_stimuli/002545_2014-06-24_13-38-53_094959634447_rgbf000080-resize_4/002545_2014-06-24_13-38-53_094959634447_rgbf000080-resize_4-target.png,1000,1.9205,2,3177,1011,meters,jsons/v1_VE1000_randls_11.json,745548,919269,49,Woman
158,769127,DepthScenes,duration_manipulation_targetAtFixation,jsons/v1_VE1000_randls_11.json,http://54.235.29.9/FacialAge/BNav_EC2/DepthDuration/v2_depth_duration_MTurk/v2_DepthDuration_HTML.html#45,45,1024,768,1024,768,8-22-2022,8-4-40,159,depth_duration_stimuli/002043_2014-06-24_20-29-38_260595134347_rgbf000039-resize_4/002043_2014-06-24_20-29-38_260595134347_rgbf000039-resize_4-target.png,1000,2.8435,1,3336,998,meters,jsons/v1_VE1000_randls_11.json,745548,919269,49,Woman
159,769127,DepthScenes,duration_manipulation_targetAtFixation,jsons/v1_VE1000_randls_11.json,http://54.235.29.9/FacialAge/BNav_EC2/DepthDuration/v2_depth_duration_MTurk/v2_DepthDuration_HTML.html#45,45,1024,768,1024,768,8-22-2022,8-4-40,160,depth_duration_stimuli/003048_2014-06-15_13-49-43_094959634447_rgbf000150-resize_1/003048_2014-06-15_13-49-43_094959634447_rgbf000150-resize_1-target.png,1000,4.0035,1,3780,993,meters,jsons/v1_VE1000_randls_11.json,745548,919269,49,Woman
160,769127,DepthScenes,duration_manipulation_targetAtFixation,jsons/v1_VE1000_randls_11.json,http://54.235.29.9/FacialAge/BNav_EC2/DepthDuration/v2_depth_duration_MTurk/v2_DepthDuration_HTML.html#45,45,1024,768,1024,768,8-22-2022,8-4-40,161,depth_duration_stimuli/001555_2014-06-20_17-12-10_260595134347_rgbf000065-resize_4/001555_2014-06-20_17-12-10_260595134347_rgbf000065-resize_4-target.png,1000,1.633,1,4161,1012,meters,jsons/v1_VE1000_randls_11.json,745548,919269,49,Woman
161,769127,DepthScenes,duration_manipulation_targetAtFixation,jsons/v1_VE1000_randls_11.json,http://54.235.29.9/FacialAge/BNav_EC2/DepthDuration/v2_depth_duration_MTurk/v2_DepthDuration_HTML.html#45,45,1024,768,1024,768,8-22-2022,8-4-40,162,depth_duration_stimuli/000103_2014-05-14_22-01-17_260595134347_rgbf000152-resize_5/000103_2014-05-14_22-01-17_260595134347_rgbf000152-resize_5-target.png,1000,1.993,1,3969,994,meters,jsons/v1_VE1000_randls_11.json,745548,919269,49,Woman
162,769127,DepthScenes,duration_manipulation_targetAtFixation,jsons/v1_VE1000_randls_11.json,http://54.235.29.9/FacialAge/BNav_EC2/DepthDuration/v2_depth_duration_MTurk/v2_DepthDuration_HTML.html#45,45,1024,768,1024,768,8-22-2022,8-4-40,163,depth_duration_stimuli/001810_2014-06-26_20-51-35_260595134347_rgbf000040-resize_3/001810_2014-06-26_20-51-35_260595134347_rgbf000040-resize_3-target.png,1000,2.2525,2,3797,984,meters,jsons/v1_VE1000_randls_11.json,745548,919269,49,Woman
163,769127,DepthScenes,duration_manipulation_targetAtFixation,jsons/v1_VE1000_randls_11.json,http://54.235.29.9/FacialAge/BNav_EC2/DepthDuration/v2_depth_duration_MTurk/v2_DepthDuration_HTML.html#45,45,1024,768,1024,768,8-22-2022,8-4-40,164,depth_duration_stimuli/003010_2014-06-15_12-54-35_094959634447_rgbf000112-resize_0/003010_2014-06-15_12-54-35_094959634447_rgbf000112-resize_0-target.png,1000,3.1185,2,10713,1001,meters,jsons/v1_VE1000_randls_11.json,745548,919269,49,Woman
