,subjID,experimentName,versionName,sequenceName,url,selected_row,windowWidth,windowHeight,screenWidth,screenHeight,startDate,startTime,trial,stimulus,duration,actual_depth,depth_estimate,trial_RT,log_sceneDuration,unitSelection,seq_filepath,experimentTime,totalTime,age,gender
0,771771,DepthScenes,duration_manipulation_targetAtFixation,jsons/v1_VE1000_randls_47_rotated.json,http://54.235.29.9/FacialAge/BNav_EC2/DepthDuration/v2_depth_duration_MTurk/v2_DepthDuration_HTML.html#66,66,1366,768,1366,768,8-22-2022,13-5-37,1,depth_duration_stimuli/001828_2014-06-26_21-40-03_260595134347_rgbf000024-resize_0/001828_2014-06-26_21-40-03_260595134347_rgbf000024-resize_0-target.png,1000,4.8260000000000005,2,10641,0,feet,jsons/v1_VE1000_randls_47_rotated.json,1344783,1760523,42,Woman
1,771771,DepthScenes,duration_manipulation_targetAtFixation,jsons/v1_VE1000_randls_47_rotated.json,http://54.235.29.9/FacialAge/BNav_EC2/DepthDuration/v2_depth_duration_MTurk/v2_DepthDuration_HTML.html#66,66,1366,768,1366,768,8-22-2022,13-5-37,2,depth_duration_stimuli/000009_2014-05-26_14-32-05_260595134347_rgbf000034-resize_3/000009_2014-05-26_14-32-05_260595134347_rgbf000034-resize_3-target.png,1000,3.8715,2,6257,1002,feet,jsons/v1_VE1000_randls_47_rotated.json,1344783,1760523,42,Woman
2,771771,DepthScenes,duration_manipulation_targetAtFixation,jsons/v1_VE1000_randls_47_rotated.json,http://54.235.29.9/FacialAge/BNav_EC2/DepthDuration/v2_depth_duration_MTurk/v2_DepthDuration_HTML.html#66,66,1366,768,1366,768,8-22-2022,13-5-37,3,depth_duration_stimuli/000665_2014-06-09_20-42-35_260595134347_rgbf000110-resize_1/000665_2014-06-09_20-42-35_260595134347_rgbf000110-resize_1-target.png,1000,3.057,5,32174,1039,feet,jsons/v1_VE1000_randls_47_rotated.json,1344783,1760523,42,Woman
3,771771,DepthScenes,duration_manipulation_targetAtFixation,jsons/v1_VE1000_randls_47_rotated.json,http://54.235.29.9/FacialAge/BNav_EC2/DepthDuration/v2_depth_duration_MTurk/v2_DepthDuration_HTML.html#66,66,1366,768,1366,768,8-22-2022,13-5-37,4,depth_duration_stimuli/001150_2014-06-17_15-27-34_260595134347_rgbf000108-resize_2/001150_2014-06-17_15-27-34_260595134347_rgbf000108-resize_2-target.png,1000,4.0325,2,7131,1630,feet,jsons/v1_VE1000_randls_47_rotated.json,1344783,1760523,42,Woman
4,771771,DepthScenes,duration_manipulation_targetAtFixation,jsons/v1_VE1000_randls_47_rotated.json,http://54.235.29.9/FacialAge/BNav_EC2/DepthDuration/v2_depth_duration_MTurk/v2_DepthDuration_HTML.html#66,66,1366,768,1366,768,8-22-2022,13-5-37,5,depth_duration_stimuli/002467_2014-06-28_20-38-07_260595134347_rgbf000026-resize_2/002467_2014-06-28_20-38-07_260595134347_rgbf000026-resize_2-target.png,1000,4.742,5,11820,1058,feet,jsons/v1_VE1000_randls_47_rotated.json,1344783,1760523,42,Woman
5,771771,DepthScenes,duration_manipulation_targetAtFixation,jsons/v1_VE1000_randls_47_rotated.json,http://54.235.29.9/FacialAge/BNav_EC2/DepthDuration/v2_depth_duration_MTurk/v2_DepthDuration_HTML.html#66,66,1366,768,1366,768,8-22-2022,13-5-37,6,depth_duration_stimuli/002570_2014-06-24_13-59-54_094959634447_rgbf000059-resize_0/002570_2014-06-24_13-59-54_094959634447_rgbf000059-resize_0-target.png,1000,4.037,5,13257,918,feet,jsons/v1_VE1000_randls_47_rotated.json,1344783,1760523,42,Woman
6,771771,DepthScenes,duration_manipulation_targetAtFixation,jsons/v1_VE1000_randls_47_rotated.json,http://54.235.29.9/FacialAge/BNav_EC2/DepthDuration/v2_depth_duration_MTurk/v2_DepthDuration_HTML.html#66,66,1366,768,1366,768,8-22-2022,13-5-37,7,depth_duration_stimuli/002199_2014-06-28_18-33-56_260595134347_rgbf000074-resize_0/002199_2014-06-28_18-33-56_260595134347_rgbf000074-resize_0-target.png,1000,1.996,6,10406,1003,feet,jsons/v1_VE1000_randls_47_rotated.json,1344783,1760523,42,Woman
7,771771,DepthScenes,duration_manipulation_targetAtFixation,jsons/v1_VE1000_randls_47_rotated.json,http://54.235.29.9/FacialAge/BNav_EC2/DepthDuration/v2_depth_duration_MTurk/v2_DepthDuration_HTML.html#66,66,1366,768,1366,768,8-22-2022,13-5-37,8,depth_duration_stimuli/001056_2014-06-08_18-46-44_260595134347_rgbf000068-resize_0/001056_2014-06-08_18-46-44_260595134347_rgbf000068-resize_0-target.png,1000,2.6625,2,6823,1005,feet,jsons/v1_VE1000_randls_47_rotated.json,1344783,1760523,42,Woman
8,771771,DepthScenes,duration_manipulation_targetAtFixation,jsons/v1_VE1000_randls_47_rotated.json,http://54.235.29.9/FacialAge/BNav_EC2/DepthDuration/v2_depth_duration_MTurk/v2_DepthDuration_HTML.html#66,66,1366,768,1366,768,8-22-2022,13-5-37,9,depth_duration_stimuli/000109_2014-05-14_23-41-52_260595134347_rgbf000035-resize_9/000109_2014-05-14_23-41-52_260595134347_rgbf000035-resize_9-target.png,1000,1.3545,2,18213,1133,feet,jsons/v1_VE1000_randls_47_rotated.json,1344783,1760523,42,Woman
9,771771,DepthScenes,duration_manipulation_targetAtFixation,jsons/v1_VE1000_randls_47_rotated.json,http://54.235.29.9/FacialAge/BNav_EC2/DepthDuration/v2_depth_duration_MTurk/v2_DepthDuration_HTML.html#66,66,1366,768,1366,768,8-22-2022,13-5-37,10,depth_duration_stimuli/000470_2014-06-09_19-42-40_260595134347_rgbf000094-resize_1/000470_2014-06-09_19-42-40_260595134347_rgbf000094-resize_1-target.png,1000,1.831,8,6335,706,feet,jsons/v1_VE1000_randls_47_rotated.json,1344783,1760523,42,Woman
10,771771,DepthScenes,duration_manipulation_targetAtFixation,jsons/v1_VE1000_randls_47_rotated.json,http://54.235.29.9/FacialAge/BNav_EC2/DepthDuration/v2_depth_duration_MTurk/v2_DepthDuration_HTML.html#66,66,1366,768,1366,768,8-22-2022,13-5-37,11,depth_duration_stimuli/000549_2014-06-08_22-10-24_260595134347_rgbf000247-resize_3/000549_2014-06-08_22-10-24_260595134347_rgbf000247-resize_3-target.png,1000,1.841,5,12199,1002,feet,jsons/v1_VE1000_randls_47_rotated.json,1344783,1760523,42,Woman
11,771771,DepthScenes,duration_manipulation_targetAtFixation,jsons/v1_VE1000_randls_47_rotated.json,http://54.235.29.9/FacialAge/BNav_EC2/DepthDuration/v2_depth_duration_MTurk/v2_DepthDuration_HTML.html#66,66,1366,768,1366,768,8-22-2022,13-5-37,12,depth_duration_stimuli/001055_2014-06-08_18-45-35_260595134347_rgbf000111-resize_4/001055_2014-06-08_18-45-35_260595134347_rgbf000111-resize_4-target.png,1000,2.4290000000000003,4,5803,999,feet,jsons/v1_VE1000_randls_47_rotated.json,1344783,1760523,42,Woman
12,771771,DepthScenes,duration_manipulation_targetAtFixation,jsons/v1_VE1000_randls_47_rotated.json,http://54.235.29.9/FacialAge/BNav_EC2/DepthDuration/v2_depth_duration_MTurk/v2_DepthDuration_HTML.html#66,66,1366,768,1366,768,8-22-2022,13-5-37,13,depth_duration_stimuli/003490_2014-05-21_15-50-11_094959634447_rgbf000101-resize_3/003490_2014-05-21_15-50-11_094959634447_rgbf000101-resize_3-target.png,1000,3.6445,2,6101,1001,feet,jsons/v1_VE1000_randls_47_rotated.json,1344783,1760523,42,Woman
13,771771,DepthScenes,duration_manipulation_targetAtFixation,jsons/v1_VE1000_randls_47_rotated.json,http://54.235.29.9/FacialAge/BNav_EC2/DepthDuration/v2_depth_duration_MTurk/v2_DepthDuration_HTML.html#66,66,1366,768,1366,768,8-22-2022,13-5-37,14,depth_duration_stimuli/001175_2014-06-17_15-45-55_260595134347_rgbf000129-resize_4/001175_2014-06-17_15-45-55_260595134347_rgbf000129-resize_4-target.png,1000,4.255,2,5547,1148,feet,jsons/v1_VE1000_randls_47_rotated.json,1344783,1760523,42,Woman
14,771771,DepthScenes,duration_manipulation_targetAtFixation,jsons/v1_VE1000_randls_47_rotated.json,http://54.235.29.9/FacialAge/BNav_EC2/DepthDuration/v2_depth_duration_MTurk/v2_DepthDuration_HTML.html#66,66,1366,768,1366,768,8-22-2022,13-5-37,15,depth_duration_stimuli/003010_2014-06-15_12-54-35_094959634447_rgbf000112-resize_0/003010_2014-06-15_12-54-35_094959634447_rgbf000112-resize_0-target.png,1000,3.1185,5,19650,922,feet,jsons/v1_VE1000_randls_47_rotated.json,1344783,1760523,42,Woman
15,771771,DepthScenes,duration_manipulation_targetAtFixation,jsons/v1_VE1000_randls_47_rotated.json,http://54.235.29.9/FacialAge/BNav_EC2/DepthDuration/v2_depth_duration_MTurk/v2_DepthDuration_HTML.html#66,66,1366,768,1366,768,8-22-2022,13-5-37,16,depth_duration_stimuli/001810_2014-06-26_20-51-35_260595134347_rgbf000040-resize_3/001810_2014-06-26_20-51-35_260595134347_rgbf000040-resize_3-target.png,1000,2.2525,7,5766,1006,feet,jsons/v1_VE1000_randls_47_rotated.json,1344783,1760523,42,Woman
16,771771,DepthScenes,duration_manipulation_targetAtFixation,jsons/v1_VE1000_randls_47_rotated.json,http://54.235.29.9/FacialAge/BNav_EC2/DepthDuration/v2_depth_duration_MTurk/v2_DepthDuration_HTML.html#66,66,1366,768,1366,768,8-22-2022,13-5-37,17,depth_duration_stimuli/002209_2014-06-28_18-36-10_260595134347_rgbf000051-resize_1/002209_2014-06-28_18-36-10_260595134347_rgbf000051-resize_1-target.png,1000,2.057,8,7699,1001,feet,jsons/v1_VE1000_randls_47_rotated.json,1344783,1760523,42,Woman
17,771771,DepthScenes,duration_manipulation_targetAtFixation,jsons/v1_VE1000_randls_47_rotated.json,http://54.235.29.9/FacialAge/BNav_EC2/DepthDuration/v2_depth_duration_MTurk/v2_DepthDuration_HTML.html#66,66,1366,768,1366,768,8-22-2022,13-5-37,18,depth_duration_stimuli/002763_2014-06-22_19-13-10_094959634447_rgbf000075-resize_4/002763_2014-06-22_19-13-10_094959634447_rgbf000075-resize_4-target.png,1000,1.68375,7,9866,992,feet,jsons/v1_VE1000_randls_47_rotated.json,1344783,1760523,42,Woman
18,771771,DepthScenes,duration_manipulation_targetAtFixation,jsons/v1_VE1000_randls_47_rotated.json,http://54.235.29.9/FacialAge/BNav_EC2/DepthDuration/v2_depth_duration_MTurk/v2_DepthDuration_HTML.html#66,66,1366,768,1366,768,8-22-2022,13-5-37,19,depth_duration_stimuli/001498_2014-06-19_17-45-14_260595134347_rgbf000129-resize_4/001498_2014-06-19_17-45-14_260595134347_rgbf000129-resize-original.jpg,1000,1.4075,7,15987,1012,feet,jsons/v1_VE1000_randls_47_rotated.json,1344783,1760523,42,Woman
19,771771,DepthScenes,duration_manipulation_targetAtFixation,jsons/v1_VE1000_randls_47_rotated.json,http://54.235.29.9/FacialAge/BNav_EC2/DepthDuration/v2_depth_duration_MTurk/v2_DepthDuration_HTML.html#66,66,1366,768,1366,768,8-22-2022,13-5-37,20,depth_duration_stimuli/002657_2014-06-13_15-29-54_094959634447_rgbf000150-resize_1/002657_2014-06-13_15-29-54_094959634447_rgbf000150-resize_1-target.png,1000,4.919,5,6437,996,feet,jsons/v1_VE1000_randls_47_rotated.json,1344783,1760523,42,Woman
20,771771,DepthScenes,duration_manipulation_targetAtFixation,jsons/v1_VE1000_randls_47_rotated.json,http://54.235.29.9/FacialAge/BNav_EC2/DepthDuration/v2_depth_duration_MTurk/v2_DepthDuration_HTML.html#66,66,1366,768,1366,768,8-22-2022,13-5-37,21,depth_duration_stimuli/002375_2014-06-28_20-13-44_260595134347_rgbf000032-resize_1/002375_2014-06-28_20-13-44_260595134347_rgbf000032-resize_1-target.png,1000,4.0175,8,6800,936,feet,jsons/v1_VE1000_randls_47_rotated.json,1344783,1760523,42,Woman
21,771771,DepthScenes,duration_manipulation_targetAtFixation,jsons/v1_VE1000_randls_47_rotated.json,http://54.235.29.9/FacialAge/BNav_EC2/DepthDuration/v2_depth_duration_MTurk/v2_DepthDuration_HTML.html#66,66,1366,768,1366,768,8-22-2022,13-5-37,22,depth_duration_stimuli/001100_2014-06-15_17-46-26_260595134347_rgbf000225-resize_2/001100_2014-06-15_17-46-26_260595134347_rgbf000225-resize_2-target.png,1000,2.24,2,20588,1006,feet,jsons/v1_VE1000_randls_47_rotated.json,1344783,1760523,42,Woman
22,771771,DepthScenes,duration_manipulation_targetAtFixation,jsons/v1_VE1000_randls_47_rotated.json,http://54.235.29.9/FacialAge/BNav_EC2/DepthDuration/v2_depth_duration_MTurk/v2_DepthDuration_HTML.html#66,66,1366,768,1366,768,8-22-2022,13-5-37,23,depth_duration_stimuli/002784_2014-06-22_19-26-30_094959634447_rgbf000083-resize_3/002784_2014-06-22_19-26-30_094959634447_rgbf000083-resize_3-target.png,1000,1.8046666666667,7,5487,1082,feet,jsons/v1_VE1000_randls_47_rotated.json,1344783,1760523,42,Woman
23,771771,DepthScenes,duration_manipulation_targetAtFixation,jsons/v1_VE1000_randls_47_rotated.json,http://54.235.29.9/FacialAge/BNav_EC2/DepthDuration/v2_depth_duration_MTurk/v2_DepthDuration_HTML.html#66,66,1366,768,1366,768,8-22-2022,13-5-37,24,depth_duration_stimuli/001214_2014-06-17_16-13-55_260595134347_rgbf000111-resize_0/001214_2014-06-17_16-13-55_260595134347_rgbf000111-resize_0-target.png,1000,2.6505,7,7189,840,feet,jsons/v1_VE1000_randls_47_rotated.json,1344783,1760523,42,Woman
24,771771,DepthScenes,duration_manipulation_targetAtFixation,jsons/v1_VE1000_randls_47_rotated.json,http://54.235.29.9/FacialAge/BNav_EC2/DepthDuration/v2_depth_duration_MTurk/v2_DepthDuration_HTML.html#66,66,1366,768,1366,768,8-22-2022,13-5-37,25,depth_duration_stimuli/000810_2014-06-08_17-20-01_260595134347_rgbf000105-resize_0/000810_2014-06-08_17-20-01_260595134347_rgbf000105-resize_0-target.png,1000,1.4865,2,5568,1000,feet,jsons/v1_VE1000_randls_47_rotated.json,1344783,1760523,42,Woman
25,771771,DepthScenes,duration_manipulation_targetAtFixation,jsons/v1_VE1000_randls_47_rotated.json,http://54.235.29.9/FacialAge/BNav_EC2/DepthDuration/v2_depth_duration_MTurk/v2_DepthDuration_HTML.html#66,66,1366,768,1366,768,8-22-2022,13-5-37,26,depth_duration_stimuli/003495_2014-05-21_16-01-51_094959634447_rgbf000100-resize_3/003495_2014-05-21_16-01-51_094959634447_rgbf000100-resize_3-target.png,1000,1.6255,3,5971,985,feet,jsons/v1_VE1000_randls_47_rotated.json,1344783,1760523,42,Woman
26,771771,DepthScenes,duration_manipulation_targetAtFixation,jsons/v1_VE1000_randls_47_rotated.json,http://54.235.29.9/FacialAge/BNav_EC2/DepthDuration/v2_depth_duration_MTurk/v2_DepthDuration_HTML.html#66,66,1366,768,1366,768,8-22-2022,13-5-37,27,depth_duration_stimuli/001244_2014-06-17_16-47-45_260595134347_rgbf000030-resize_4/001244_2014-06-17_16-47-45_260595134347_rgbf000030-resize_4-target.png,1000,2.0425,2,11041,1019,feet,jsons/v1_VE1000_randls_47_rotated.json,1344783,1760523,42,Woman
27,771771,DepthScenes,duration_manipulation_targetAtFixation,jsons/v1_VE1000_randls_47_rotated.json,http://54.235.29.9/FacialAge/BNav_EC2/DepthDuration/v2_depth_duration_MTurk/v2_DepthDuration_HTML.html#66,66,1366,768,1366,768,8-22-2022,13-5-37,28,depth_duration_stimuli/000483_2014-06-09_20-41-45_260595134347_rgbf000116-resize_4/000483_2014-06-09_20-41-45_260595134347_rgbf000116-resize_4-target.png,1000,1.337,2,5522,947,feet,jsons/v1_VE1000_randls_47_rotated.json,1344783,1760523,42,Woman
28,771771,DepthScenes,duration_manipulation_targetAtFixation,jsons/v1_VE1000_randls_47_rotated.json,http://54.235.29.9/FacialAge/BNav_EC2/DepthDuration/v2_depth_duration_MTurk/v2_DepthDuration_HTML.html#66,66,1366,768,1366,768,8-22-2022,13-5-37,29,depth_duration_stimuli/000469_2014-06-09_19-42-10_260595134347_rgbf000081-resize_1/000469_2014-06-09_19-42-10_260595134347_rgbf000081-resize_1-target.png,1000,1.652,2,6349,991,feet,jsons/v1_VE1000_randls_47_rotated.json,1344783,1760523,42,Woman
29,771771,DepthScenes,duration_manipulation_targetAtFixation,jsons/v1_VE1000_randls_47_rotated.json,http://54.235.29.9/FacialAge/BNav_EC2/DepthDuration/v2_depth_duration_MTurk/v2_DepthDuration_HTML.html#66,66,1366,768,1366,768,8-22-2022,13-5-37,30,depth_duration_stimuli/002072_2014-06-24_21-48-06_260595134347_rgbf000115-resize_0/002072_2014-06-24_21-48-06_260595134347_rgbf000115-resize-original.jpg,1000,4.702,4,7470,1028,feet,jsons/v1_VE1000_randls_47_rotated.json,1344783,1760523,42,Woman
30,771771,DepthScenes,duration_manipulation_targetAtFixation,jsons/v1_VE1000_randls_47_rotated.json,http://54.235.29.9/FacialAge/BNav_EC2/DepthDuration/v2_depth_duration_MTurk/v2_DepthDuration_HTML.html#66,66,1366,768,1366,768,8-22-2022,13-5-37,31,depth_duration_stimuli/003048_2014-06-15_13-49-43_094959634447_rgbf000150-resize_1/003048_2014-06-15_13-49-43_094959634447_rgbf000150-resize_1-target.png,1000,4.0035,4,13705,916,feet,jsons/v1_VE1000_randls_47_rotated.json,1344783,1760523,42,Woman
31,771771,DepthScenes,duration_manipulation_targetAtFixation,jsons/v1_VE1000_randls_47_rotated.json,http://54.235.29.9/FacialAge/BNav_EC2/DepthDuration/v2_depth_duration_MTurk/v2_DepthDuration_HTML.html#66,66,1366,768,1366,768,8-22-2022,13-5-37,32,depth_duration_stimuli/002043_2014-06-24_20-29-38_260595134347_rgbf000039-resize_4/002043_2014-06-24_20-29-38_260595134347_rgbf000039-resize_4-target.png,1000,2.8435,2,5891,995,feet,jsons/v1_VE1000_randls_47_rotated.json,1344783,1760523,42,Woman
32,771771,DepthScenes,duration_manipulation_targetAtFixation,jsons/v1_VE1000_randls_47_rotated.json,http://54.235.29.9/FacialAge/BNav_EC2/DepthDuration/v2_depth_duration_MTurk/v2_DepthDuration_HTML.html#66,66,1366,768,1366,768,8-22-2022,13-5-37,33,depth_duration_stimuli/000866_2014-06-09_20-45-42_260595134347_rgbf000139-resize_1/000866_2014-06-09_20-45-42_260595134347_rgbf000139-resize_1-target.png,1000,3.2155,3,8965,2241,feet,jsons/v1_VE1000_randls_47_rotated.json,1344783,1760523,42,Woman
33,771771,DepthScenes,duration_manipulation_targetAtFixation,jsons/v1_VE1000_randls_47_rotated.json,http://54.235.29.9/FacialAge/BNav_EC2/DepthDuration/v2_depth_duration_MTurk/v2_DepthDuration_HTML.html#66,66,1366,768,1366,768,8-22-2022,13-5-37,34,depth_duration_stimuli/002989_2014-06-15_12-25-03_094959634447_rgbf000150-resize_3/002989_2014-06-15_12-25-03_094959634447_rgbf000150-resize_3-target.png,1000,4.1975,5,7342,669,feet,jsons/v1_VE1000_randls_47_rotated.json,1344783,1760523,42,Woman
34,771771,DepthScenes,duration_manipulation_targetAtFixation,jsons/v1_VE1000_randls_47_rotated.json,http://54.235.29.9/FacialAge/BNav_EC2/DepthDuration/v2_depth_duration_MTurk/v2_DepthDuration_HTML.html#66,66,1366,768,1366,768,8-22-2022,13-5-37,35,depth_duration_stimuli/002805_2014-06-22_19-54-03_094959634447_rgbf000079-resize_1/002805_2014-06-22_19-54-03_094959634447_rgbf000079-resize_1-target.png,1000,3.1439999999999997,2,5739,1783,feet,jsons/v1_VE1000_randls_47_rotated.json,1344783,1760523,42,Woman
35,771771,DepthScenes,duration_manipulation_targetAtFixation,jsons/v1_VE1000_randls_47_rotated.json,http://54.235.29.9/FacialAge/BNav_EC2/DepthDuration/v2_depth_duration_MTurk/v2_DepthDuration_HTML.html#66,66,1366,768,1366,768,8-22-2022,13-5-37,36,depth_duration_stimuli/000906_2014-06-08_13-35-43_260595134347_rgbf000155-resize_1/000906_2014-06-08_13-35-43_260595134347_rgbf000155-resize_1-target.png,1000,2.8489999999999998,2,5456,535,feet,jsons/v1_VE1000_randls_47_rotated.json,1344783,1760523,42,Woman
36,771771,DepthScenes,duration_manipulation_targetAtFixation,jsons/v1_VE1000_randls_47_rotated.json,http://54.235.29.9/FacialAge/BNav_EC2/DepthDuration/v2_depth_duration_MTurk/v2_DepthDuration_HTML.html#66,66,1366,768,1366,768,8-22-2022,13-5-37,37,depth_duration_stimuli/002568_2014-06-24_13-59-21_094959634447_rgbf000062-resize_4/002568_2014-06-24_13-59-21_094959634447_rgbf000062-resize_4-target.png,1000,3.015,6,5474,996,feet,jsons/v1_VE1000_randls_47_rotated.json,1344783,1760523,42,Woman
37,771771,DepthScenes,duration_manipulation_targetAtFixation,jsons/v1_VE1000_randls_47_rotated.json,http://54.235.29.9/FacialAge/BNav_EC2/DepthDuration/v2_depth_duration_MTurk/v2_DepthDuration_HTML.html#66,66,1366,768,1366,768,8-22-2022,13-5-37,38,depth_duration_stimuli/003492_2014-05-21_15-50-55_094959634447_rgbf000828-resize_1/003492_2014-05-21_15-50-55_094959634447_rgbf000828-resize_1-target.png,1000,4.06875,5,6292,1003,feet,jsons/v1_VE1000_randls_47_rotated.json,1344783,1760523,42,Woman
38,771771,DepthScenes,duration_manipulation_targetAtFixation,jsons/v1_VE1000_randls_47_rotated.json,http://54.235.29.9/FacialAge/BNav_EC2/DepthDuration/v2_depth_duration_MTurk/v2_DepthDuration_HTML.html#66,66,1366,768,1366,768,8-22-2022,13-5-37,39,depth_duration_stimuli/003081_2014-06-15_15-19-16_094959634447_rgbf000150-resize_1/003081_2014-06-15_15-19-16_094959634447_rgbf000150-resize_1-target.png,1000,3.9125,4,6586,1050,feet,jsons/v1_VE1000_randls_47_rotated.json,1344783,1760523,42,Woman
39,771771,DepthScenes,duration_manipulation_targetAtFixation,jsons/v1_VE1000_randls_47_rotated.json,http://54.235.29.9/FacialAge/BNav_EC2/DepthDuration/v2_depth_duration_MTurk/v2_DepthDuration_HTML.html#66,66,1366,768,1366,768,8-22-2022,13-5-37,40,depth_duration_stimuli/001417_2014-06-19_16-25-36_260595134347_rgbf000115-resize_5/001417_2014-06-19_16-25-36_260595134347_rgbf000115-resize_5-target.png,1000,4.6255,2,5485,1008,feet,jsons/v1_VE1000_randls_47_rotated.json,1344783,1760523,42,Woman
40,771771,DepthScenes,duration_manipulation_targetAtFixation,jsons/v1_VE1000_randls_47_rotated.json,http://54.235.29.9/FacialAge/BNav_EC2/DepthDuration/v2_depth_duration_MTurk/v2_DepthDuration_HTML.html#66,66,1366,768,1366,768,8-22-2022,13-5-37,41,depth_duration_stimuli/001447_2014-06-19_17-00-32_260595134347_rgbf000082-resize_5/001447_2014-06-19_17-00-32_260595134347_rgbf000082-resize_5-target.png,1000,4.13775,2,20620,1008,feet,jsons/v1_VE1000_randls_47_rotated.json,1344783,1760523,42,Woman
41,771771,DepthScenes,duration_manipulation_targetAtFixation,jsons/v1_VE1000_randls_47_rotated.json,http://54.235.29.9/FacialAge/BNav_EC2/DepthDuration/v2_depth_duration_MTurk/v2_DepthDuration_HTML.html#66,66,1366,768,1366,768,8-22-2022,13-5-37,42,depth_duration_stimuli/000447_2014-06-08_16-15-46_260595134347_rgbf000130-resize_1/000447_2014-06-08_16-15-46_260595134347_rgbf000130-resize_1-target.png,1000,4.479,4,12494,900,feet,jsons/v1_VE1000_randls_47_rotated.json,1344783,1760523,42,Woman
42,771771,DepthScenes,duration_manipulation_targetAtFixation,jsons/v1_VE1000_randls_47_rotated.json,http://54.235.29.9/FacialAge/BNav_EC2/DepthDuration/v2_depth_duration_MTurk/v2_DepthDuration_HTML.html#66,66,1366,768,1366,768,8-22-2022,13-5-37,43,depth_duration_stimuli/000191_2014-05-12_17-07-38_260595134347_rgbf000199-resize_0/000191_2014-05-12_17-07-38_260595134347_rgbf000199-resize_0-target.png,1000,3.7995,3,10811,1050,feet,jsons/v1_VE1000_randls_47_rotated.json,1344783,1760523,42,Woman
43,771771,DepthScenes,duration_manipulation_targetAtFixation,jsons/v1_VE1000_randls_47_rotated.json,http://54.235.29.9/FacialAge/BNav_EC2/DepthDuration/v2_depth_duration_MTurk/v2_DepthDuration_HTML.html#66,66,1366,768,1366,768,8-22-2022,13-5-37,44,depth_duration_stimuli/000493_2014-06-09_21-01-18_260595134347_rgbf000196-resize_3/000493_2014-06-09_21-01-18_260595134347_rgbf000196-resize_3-target.png,1000,3.44,2,6350,512,feet,jsons/v1_VE1000_randls_47_rotated.json,1344783,1760523,42,Woman
44,771771,DepthScenes,duration_manipulation_targetAtFixation,jsons/v1_VE1000_randls_47_rotated.json,http://54.235.29.9/FacialAge/BNav_EC2/DepthDuration/v2_depth_duration_MTurk/v2_DepthDuration_HTML.html#66,66,1366,768,1366,768,8-22-2022,13-5-37,45,depth_duration_stimuli/002875_2014-06-01_15-19-00_094959634447_rgbf000151-resize_1/002875_2014-06-01_15-19-00_094959634447_rgbf000151-resize_1-target.png,1000,1.9675,1,10839,955,feet,jsons/v1_VE1000_randls_47_rotated.json,1344783,1760523,42,Woman
45,771771,DepthScenes,duration_manipulation_targetAtFixation,jsons/v1_VE1000_randls_47_rotated.json,http://54.235.29.9/FacialAge/BNav_EC2/DepthDuration/v2_depth_duration_MTurk/v2_DepthDuration_HTML.html#66,66,1366,768,1366,768,8-22-2022,13-5-37,46,depth_duration_stimuli/001011_2014-06-08_23-18-54_260595134347_rgbf000044-resize_4/001011_2014-06-08_23-18-54_260595134347_rgbf000044-resize_4-target.png,1000,2.4730000000000003,4,4675,932,feet,jsons/v1_VE1000_randls_47_rotated.json,1344783,1760523,42,Woman
46,771771,DepthScenes,duration_manipulation_targetAtFixation,jsons/v1_VE1000_randls_47_rotated.json,http://54.235.29.9/FacialAge/BNav_EC2/DepthDuration/v2_depth_duration_MTurk/v2_DepthDuration_HTML.html#66,66,1366,768,1366,768,8-22-2022,13-5-37,47,depth_duration_stimuli/000457_2014-06-08_16-52-43_260595134347_rgbf000199-resize_1/000457_2014-06-08_16-52-43_260595134347_rgbf000199-resize_1-target.png,1000,3.6489999999999996,4,4851,981,feet,jsons/v1_VE1000_randls_47_rotated.json,1344783,1760523,42,Woman
47,771771,DepthScenes,duration_manipulation_targetAtFixation,jsons/v1_VE1000_randls_47_rotated.json,http://54.235.29.9/FacialAge/BNav_EC2/DepthDuration/v2_depth_duration_MTurk/v2_DepthDuration_HTML.html#66,66,1366,768,1366,768,8-22-2022,13-5-37,48,depth_duration_stimuli/000929_2014-06-09_16-33-19_260595134347_rgbf000139-resize_0/000929_2014-06-09_16-33-19_260595134347_rgbf000139-resize_0-target.png,1000,2.8680000000000003,4,6793,1002,feet,jsons/v1_VE1000_randls_47_rotated.json,1344783,1760523,42,Woman
48,771771,DepthScenes,duration_manipulation_targetAtFixation,jsons/v1_VE1000_randls_47_rotated.json,http://54.235.29.9/FacialAge/BNav_EC2/DepthDuration/v2_depth_duration_MTurk/v2_DepthDuration_HTML.html#66,66,1366,768,1366,768,8-22-2022,13-5-37,49,depth_duration_stimuli/001170_2014-06-17_15-43-44_260595134347_rgbf000096-resize_6/001170_2014-06-17_15-43-44_260595134347_rgbf000096-resize-original.jpg,1000,1.1909999999999998,5,4936,1014,feet,jsons/v1_VE1000_randls_47_rotated.json,1344783,1760523,42,Woman
49,771771,DepthScenes,duration_manipulation_targetAtFixation,jsons/v1_VE1000_randls_47_rotated.json,http://54.235.29.9/FacialAge/BNav_EC2/DepthDuration/v2_depth_duration_MTurk/v2_DepthDuration_HTML.html#66,66,1366,768,1366,768,8-22-2022,13-5-37,50,depth_duration_stimuli/002344_2014-06-28_20-06-29_260595134347_rgbf000030-resize_1/002344_2014-06-28_20-06-29_260595134347_rgbf000030-resize_1-target.png,1000,1.5795,6,4880,970,feet,jsons/v1_VE1000_randls_47_rotated.json,1344783,1760523,42,Woman
50,771771,DepthScenes,duration_manipulation_targetAtFixation,jsons/v1_VE1000_randls_47_rotated.json,http://54.235.29.9/FacialAge/BNav_EC2/DepthDuration/v2_depth_duration_MTurk/v2_DepthDuration_HTML.html#66,66,1366,768,1366,768,8-22-2022,13-5-37,51,depth_duration_stimuli/002725_2014-06-22_11-47-51_094959634447_rgbf000070-resize_1/002725_2014-06-22_11-47-51_094959634447_rgbf000070-resize_1-target.png,1000,2.195,4,7541,1006,feet,jsons/v1_VE1000_randls_47_rotated.json,1344783,1760523,42,Woman
51,771771,DepthScenes,duration_manipulation_targetAtFixation,jsons/v1_VE1000_randls_47_rotated.json,http://54.235.29.9/FacialAge/BNav_EC2/DepthDuration/v2_depth_duration_MTurk/v2_DepthDuration_HTML.html#66,66,1366,768,1366,768,8-22-2022,13-5-37,52,depth_duration_stimuli/003228_2014-05-14_13-42-35_094959634447_rgbf000101-resize_1/003228_2014-05-14_13-42-35_094959634447_rgbf000101-resize_1-target.png,1000,1.9680000000000002,7,5767,566,feet,jsons/v1_VE1000_randls_47_rotated.json,1344783,1760523,42,Woman
52,771771,DepthScenes,duration_manipulation_targetAtFixation,jsons/v1_VE1000_randls_47_rotated.json,http://54.235.29.9/FacialAge/BNav_EC2/DepthDuration/v2_depth_duration_MTurk/v2_DepthDuration_HTML.html#66,66,1366,768,1366,768,8-22-2022,13-5-37,53,depth_duration_stimuli/002600_2014-06-24_14-27-04_094959634447_rgbf000074-resize_2/002600_2014-06-24_14-27-04_094959634447_rgbf000074-resize_2-target.png,1000,2.7575,2,7459,1011,feet,jsons/v1_VE1000_randls_47_rotated.json,1344783,1760523,42,Woman
53,771771,DepthScenes,duration_manipulation_targetAtFixation,jsons/v1_VE1000_randls_47_rotated.json,http://54.235.29.9/FacialAge/BNav_EC2/DepthDuration/v2_depth_duration_MTurk/v2_DepthDuration_HTML.html#66,66,1366,768,1366,768,8-22-2022,13-5-37,54,depth_duration_stimuli/003129_2014-05-12_10-48-10_094959634447_rgbf000100-resize_0/003129_2014-05-12_10-48-10_094959634447_rgbf000100-resize_0-target.png,1000,4.9305,3,4877,1033,feet,jsons/v1_VE1000_randls_47_rotated.json,1344783,1760523,42,Woman
54,771771,DepthScenes,duration_manipulation_targetAtFixation,jsons/v1_VE1000_randls_47_rotated.json,http://54.235.29.9/FacialAge/BNav_EC2/DepthDuration/v2_depth_duration_MTurk/v2_DepthDuration_HTML.html#66,66,1366,768,1366,768,8-22-2022,13-5-37,55,depth_duration_stimuli/000414_2014-06-04_19-49-13_260595134347_rgbf000044-resize_0/000414_2014-06-04_19-49-13_260595134347_rgbf000044-resize_0-target.png,1000,4.329,4,6491,1004,feet,jsons/v1_VE1000_randls_47_rotated.json,1344783,1760523,42,Woman
55,771771,DepthScenes,duration_manipulation_targetAtFixation,jsons/v1_VE1000_randls_47_rotated.json,http://54.235.29.9/FacialAge/BNav_EC2/DepthDuration/v2_depth_duration_MTurk/v2_DepthDuration_HTML.html#66,66,1366,768,1366,768,8-22-2022,13-5-37,56,depth_duration_stimuli/001450_2014-06-19_17-02-03_260595134347_rgbf000203-resize_4/001450_2014-06-19_17-02-03_260595134347_rgbf000203-resize_4-target.png,1000,4.0106666666667,2,4967,987,feet,jsons/v1_VE1000_randls_47_rotated.json,1344783,1760523,42,Woman
56,771771,DepthScenes,duration_manipulation_targetAtFixation,jsons/v1_VE1000_randls_47_rotated.json,http://54.235.29.9/FacialAge/BNav_EC2/DepthDuration/v2_depth_duration_MTurk/v2_DepthDuration_HTML.html#66,66,1366,768,1366,768,8-22-2022,13-5-37,57,depth_duration_stimuli/001449_2014-06-19_17-01-27_260595134347_rgbf000116-resize_2/001449_2014-06-19_17-01-27_260595134347_rgbf000116-resize_2-target.png,1000,3.452,1,6882,947,feet,jsons/v1_VE1000_randls_47_rotated.json,1344783,1760523,42,Woman
57,771771,DepthScenes,duration_manipulation_targetAtFixation,jsons/v1_VE1000_randls_47_rotated.json,http://54.235.29.9/FacialAge/BNav_EC2/DepthDuration/v2_depth_duration_MTurk/v2_DepthDuration_HTML.html#66,66,1366,768,1366,768,8-22-2022,13-5-37,58,depth_duration_stimuli/000677_2014-06-08_23-10-32_260595134347_rgbf000158-resize_6/000677_2014-06-08_23-10-32_260595134347_rgbf000158-resize_6-target.png,1000,3.556,2,5068,1806,feet,jsons/v1_VE1000_randls_47_rotated.json,1344783,1760523,42,Woman
58,771771,DepthScenes,duration_manipulation_targetAtFixation,jsons/v1_VE1000_randls_47_rotated.json,http://54.235.29.9/FacialAge/BNav_EC2/DepthDuration/v2_depth_duration_MTurk/v2_DepthDuration_HTML.html#66,66,1366,768,1366,768,8-22-2022,13-5-37,59,depth_duration_stimuli/001029_2014-06-08_13-17-57_260595134347_rgbf000065-resize_1/001029_2014-06-08_13-17-57_260595134347_rgbf000065-resize_1-target.png,1000,3.0835,3,5134,978,feet,jsons/v1_VE1000_randls_47_rotated.json,1344783,1760523,42,Woman
59,771771,DepthScenes,duration_manipulation_targetAtFixation,jsons/v1_VE1000_randls_47_rotated.json,http://54.235.29.9/FacialAge/BNav_EC2/DepthDuration/v2_depth_duration_MTurk/v2_DepthDuration_HTML.html#66,66,1366,768,1366,768,8-22-2022,13-5-37,60,depth_duration_stimuli/000691_2014-06-08_13-08-50_260595134347_rgbf000132-resize_3/000691_2014-06-08_13-08-50_260595134347_rgbf000132-resize_3-target.png,1000,4.1530000000000005,5,5957,1014,feet,jsons/v1_VE1000_randls_47_rotated.json,1344783,1760523,42,Woman
60,771771,DepthScenes,duration_manipulation_targetAtFixation,jsons/v1_VE1000_randls_47_rotated.json,http://54.235.29.9/FacialAge/BNav_EC2/DepthDuration/v2_depth_duration_MTurk/v2_DepthDuration_HTML.html#66,66,1366,768,1366,768,8-22-2022,13-5-37,61,depth_duration_stimuli/002213_2014-06-28_18-37-58_260595134347_rgbf000055-resize_1/002213_2014-06-28_18-37-58_260595134347_rgbf000055-resize_1-target.png,1000,3.62,3,5145,986,feet,jsons/v1_VE1000_randls_47_rotated.json,1344783,1760523,42,Woman
61,771771,DepthScenes,duration_manipulation_targetAtFixation,jsons/v1_VE1000_randls_47_rotated.json,http://54.235.29.9/FacialAge/BNav_EC2/DepthDuration/v2_depth_duration_MTurk/v2_DepthDuration_HTML.html#66,66,1366,768,1366,768,8-22-2022,13-5-37,62,depth_duration_stimuli/003083_2014-06-15_15-21-03_094959634447_rgbf000063-resize_1/003083_2014-06-15_15-21-03_094959634447_rgbf000063-resize_1-target.png,1000,4.1405,3,6148,1015,feet,jsons/v1_VE1000_randls_47_rotated.json,1344783,1760523,42,Woman
62,771771,DepthScenes,duration_manipulation_targetAtFixation,jsons/v1_VE1000_randls_47_rotated.json,http://54.235.29.9/FacialAge/BNav_EC2/DepthDuration/v2_depth_duration_MTurk/v2_DepthDuration_HTML.html#66,66,1366,768,1366,768,8-22-2022,13-5-37,63,depth_duration_stimuli/000486_2014-06-09_20-47-20_260595134347_rgbf000143-resize_2/000486_2014-06-09_20-47-20_260595134347_rgbf000143-resize_2-target.png,1000,4.8325,2,4544,991,feet,jsons/v1_VE1000_randls_47_rotated.json,1344783,1760523,42,Woman
63,771771,DepthScenes,duration_manipulation_targetAtFixation,jsons/v1_VE1000_randls_47_rotated.json,http://54.235.29.9/FacialAge/BNav_EC2/DepthDuration/v2_depth_duration_MTurk/v2_DepthDuration_HTML.html#66,66,1366,768,1366,768,8-22-2022,13-5-37,64,depth_duration_stimuli/001617_2014-06-20_11-35-32_260595134347_rgbf000066-resize_1/001617_2014-06-20_11-35-32_260595134347_rgbf000066-resize_1-target.png,1000,3.7910000000000004,4,10952,983,feet,jsons/v1_VE1000_randls_47_rotated.json,1344783,1760523,42,Woman
64,771771,DepthScenes,duration_manipulation_targetAtFixation,jsons/v1_VE1000_randls_47_rotated.json,http://54.235.29.9/FacialAge/BNav_EC2/DepthDuration/v2_depth_duration_MTurk/v2_DepthDuration_HTML.html#66,66,1366,768,1366,768,8-22-2022,13-5-37,65,depth_duration_stimuli/001806_2014-06-26_20-50-20_260595134347_rgbf000091-resize_1/001806_2014-06-26_20-50-20_260595134347_rgbf000091-resize_1-target.png,1000,2.7305,2,4254,1009,feet,jsons/v1_VE1000_randls_47_rotated.json,1344783,1760523,42,Woman
65,771771,DepthScenes,duration_manipulation_targetAtFixation,jsons/v1_VE1000_randls_47_rotated.json,http://54.235.29.9/FacialAge/BNav_EC2/DepthDuration/v2_depth_duration_MTurk/v2_DepthDuration_HTML.html#66,66,1366,768,1366,768,8-22-2022,13-5-37,66,depth_duration_stimuli/001540_2014-06-20_17-01-05_260595134347_rgbf000086-resize_2/001540_2014-06-20_17-01-05_260595134347_rgbf000086-resize-original.jpg,1000,1.459,3,5243,985,feet,jsons/v1_VE1000_randls_47_rotated.json,1344783,1760523,42,Woman
66,771771,DepthScenes,duration_manipulation_targetAtFixation,jsons/v1_VE1000_randls_47_rotated.json,http://54.235.29.9/FacialAge/BNav_EC2/DepthDuration/v2_depth_duration_MTurk/v2_DepthDuration_HTML.html#66,66,1366,768,1366,768,8-22-2022,13-5-37,67,depth_duration_stimuli/001094_2014-06-15_17-36-00_260595134347_rgbf000205-resize_0/001094_2014-06-15_17-36-00_260595134347_rgbf000205-resize_0-target.png,1000,4.2175,1,6124,999,feet,jsons/v1_VE1000_randls_47_rotated.json,1344783,1760523,42,Woman
67,771771,DepthScenes,duration_manipulation_targetAtFixation,jsons/v1_VE1000_randls_47_rotated.json,http://54.235.29.9/FacialAge/BNav_EC2/DepthDuration/v2_depth_duration_MTurk/v2_DepthDuration_HTML.html#66,66,1366,768,1366,768,8-22-2022,13-5-37,68,depth_duration_stimuli/000692_2014-06-08_13-09-42_260595134347_rgbf000199-resize_2/000692_2014-06-08_13-09-42_260595134347_rgbf000199-resize_2-target.png,1000,3.661,6,5690,1000,feet,jsons/v1_VE1000_randls_47_rotated.json,1344783,1760523,42,Woman
68,771771,DepthScenes,duration_manipulation_targetAtFixation,jsons/v1_VE1000_randls_47_rotated.json,http://54.235.29.9/FacialAge/BNav_EC2/DepthDuration/v2_depth_duration_MTurk/v2_DepthDuration_HTML.html#66,66,1366,768,1366,768,8-22-2022,13-5-37,69,depth_duration_stimuli/000502_2014-06-08_23-02-32_260595134347_rgbf000063-resize_4/000502_2014-06-08_23-02-32_260595134347_rgbf000063-resize_4-target.png,1000,2.431,1,5646,1002,feet,jsons/v1_VE1000_randls_47_rotated.json,1344783,1760523,42,Woman
69,771771,DepthScenes,duration_manipulation_targetAtFixation,jsons/v1_VE1000_randls_47_rotated.json,http://54.235.29.9/FacialAge/BNav_EC2/DepthDuration/v2_depth_duration_MTurk/v2_DepthDuration_HTML.html#66,66,1366,768,1366,768,8-22-2022,13-5-37,70,depth_duration_stimuli/001199_2014-06-17_16-03-48_260595134347_rgbf000077-resize_0/001199_2014-06-17_16-03-48_260595134347_rgbf000077-resize_0-target.png,1000,3.4375,5,7163,1001,feet,jsons/v1_VE1000_randls_47_rotated.json,1344783,1760523,42,Woman
70,771771,DepthScenes,duration_manipulation_targetAtFixation,jsons/v1_VE1000_randls_47_rotated.json,http://54.235.29.9/FacialAge/BNav_EC2/DepthDuration/v2_depth_duration_MTurk/v2_DepthDuration_HTML.html#66,66,1366,768,1366,768,8-22-2022,13-5-37,71,depth_duration_stimuli/002340_2014-06-28_20-05-46_260595134347_rgbf000113-resize_0/002340_2014-06-28_20-05-46_260595134347_rgbf000113-resize_0-target.png,1000,2.4735,5,5707,1001,feet,jsons/v1_VE1000_randls_47_rotated.json,1344783,1760523,42,Woman
71,771771,DepthScenes,duration_manipulation_targetAtFixation,jsons/v1_VE1000_randls_47_rotated.json,http://54.235.29.9/FacialAge/BNav_EC2/DepthDuration/v2_depth_duration_MTurk/v2_DepthDuration_HTML.html#66,66,1366,768,1366,768,8-22-2022,13-5-37,72,depth_duration_stimuli/001016_2014-06-09_16-16-10_260595134347_rgbf000112-resize_5/001016_2014-06-09_16-16-10_260595134347_rgbf000112-resize_5-target.png,1000,1.6565,5,4784,832,feet,jsons/v1_VE1000_randls_47_rotated.json,1344783,1760523,42,Woman
72,771771,DepthScenes,duration_manipulation_targetAtFixation,jsons/v1_VE1000_randls_47_rotated.json,http://54.235.29.9/FacialAge/BNav_EC2/DepthDuration/v2_depth_duration_MTurk/v2_DepthDuration_HTML.html#66,66,1366,768,1366,768,8-22-2022,13-5-37,73,depth_duration_stimuli/002949_2014-06-26_15-57-42_094959634447_rgbf000079-resize_1/002949_2014-06-26_15-57-42_094959634447_rgbf000079-resize_1-target.png,1000,1.8915,4,4730,970,feet,jsons/v1_VE1000_randls_47_rotated.json,1344783,1760523,42,Woman
73,771771,DepthScenes,duration_manipulation_targetAtFixation,jsons/v1_VE1000_randls_47_rotated.json,http://54.235.29.9/FacialAge/BNav_EC2/DepthDuration/v2_depth_duration_MTurk/v2_DepthDuration_HTML.html#66,66,1366,768,1366,768,8-22-2022,13-5-37,74,depth_duration_stimuli/000522_2014-06-08_13-35-06_260595134347_rgbf000244-resize_1/000522_2014-06-08_13-35-06_260595134347_rgbf000244-resize_1-target.png,1000,2.3715,5,9940,983,feet,jsons/v1_VE1000_randls_47_rotated.json,1344783,1760523,42,Woman
74,771771,DepthScenes,duration_manipulation_targetAtFixation,jsons/v1_VE1000_randls_47_rotated.json,http://54.235.29.9/FacialAge/BNav_EC2/DepthDuration/v2_depth_duration_MTurk/v2_DepthDuration_HTML.html#66,66,1366,768,1366,768,8-22-2022,13-5-37,75,depth_duration_stimuli/001052_2014-06-08_18-24-54_260595134347_rgbf000130-resize_1/001052_2014-06-08_18-24-54_260595134347_rgbf000130-resize_1-target.png,1000,4.1045,2,6897,1448,feet,jsons/v1_VE1000_randls_47_rotated.json,1344783,1760523,42,Woman
75,771771,DepthScenes,duration_manipulation_targetAtFixation,jsons/v1_VE1000_randls_47_rotated.json,http://54.235.29.9/FacialAge/BNav_EC2/DepthDuration/v2_depth_duration_MTurk/v2_DepthDuration_HTML.html#66,66,1366,768,1366,768,8-22-2022,13-5-37,76,depth_duration_stimuli/002988_2014-06-15_12-24-20_094959634447_rgbf000150-resize_1/002988_2014-06-15_12-24-20_094959634447_rgbf000150-resize_1-target.png,1000,4.7669999999999995,5,7823,1004,feet,jsons/v1_VE1000_randls_47_rotated.json,1344783,1760523,42,Woman
76,771771,DepthScenes,duration_manipulation_targetAtFixation,jsons/v1_VE1000_randls_47_rotated.json,http://54.235.29.9/FacialAge/BNav_EC2/DepthDuration/v2_depth_duration_MTurk/v2_DepthDuration_HTML.html#66,66,1366,768,1366,768,8-22-2022,13-5-37,77,depth_duration_stimuli/002425_2014-06-28_20-27-29_260595134347_rgbf000031-resize_8/002425_2014-06-28_20-27-29_260595134347_rgbf000031-resize_8-target.png,1000,3.8960000000000004,4,5632,1622,feet,jsons/v1_VE1000_randls_47_rotated.json,1344783,1760523,42,Woman
77,771771,DepthScenes,duration_manipulation_targetAtFixation,jsons/v1_VE1000_randls_47_rotated.json,http://54.235.29.9/FacialAge/BNav_EC2/DepthDuration/v2_depth_duration_MTurk/v2_DepthDuration_HTML.html#66,66,1366,768,1366,768,8-22-2022,13-5-37,78,depth_duration_stimuli/000642_2014-06-08_16-59-25_260595134347_rgbf000098-resize_2/000642_2014-06-08_16-59-25_260595134347_rgbf000098-resize_2-target.png,1000,2.8815,5,8389,500,feet,jsons/v1_VE1000_randls_47_rotated.json,1344783,1760523,42,Woman
78,771771,DepthScenes,duration_manipulation_targetAtFixation,jsons/v1_VE1000_randls_47_rotated.json,http://54.235.29.9/FacialAge/BNav_EC2/DepthDuration/v2_depth_duration_MTurk/v2_DepthDuration_HTML.html#66,66,1366,768,1366,768,8-22-2022,13-5-37,79,depth_duration_stimuli/002545_2014-06-24_13-38-53_094959634447_rgbf000080-resize_4/002545_2014-06-24_13-38-53_094959634447_rgbf000080-resize_4-target.png,1000,1.9205,1,5415,1451,feet,jsons/v1_VE1000_randls_47_rotated.json,1344783,1760523,42,Woman
79,771771,DepthScenes,duration_manipulation_targetAtFixation,jsons/v1_VE1000_randls_47_rotated.json,http://54.235.29.9/FacialAge/BNav_EC2/DepthDuration/v2_depth_duration_MTurk/v2_DepthDuration_HTML.html#66,66,1366,768,1366,768,8-22-2022,13-5-37,80,depth_duration_stimuli/001092_2014-06-15_17-34-58_260595134347_rgbf000171-resize_3/001092_2014-06-15_17-34-58_260595134347_rgbf000171-resize_3-target.png,1000,2.6935,1,9770,982,feet,jsons/v1_VE1000_randls_47_rotated.json,1344783,1760523,42,Woman
80,771771,DepthScenes,duration_manipulation_targetAtFixation,jsons/v1_VE1000_randls_47_rotated.json,http://54.235.29.9/FacialAge/BNav_EC2/DepthDuration/v2_depth_duration_MTurk/v2_DepthDuration_HTML.html#66,66,1366,768,1366,768,8-22-2022,13-5-37,81,depth_duration_stimuli/001815_2014-06-26_20-52-55_260595134347_rgbf000020-resize_0/001815_2014-06-26_20-52-55_260595134347_rgbf000020-resize_0-target.png,1000,3.3865,4,9967,988,feet,jsons/v1_VE1000_randls_47_rotated.json,1344783,1760523,42,Woman
81,771771,DepthScenes,duration_manipulation_targetAtFixation,jsons/v1_VE1000_randls_47_rotated.json,http://54.235.29.9/FacialAge/BNav_EC2/DepthDuration/v2_depth_duration_MTurk/v2_DepthDuration_HTML.html#66,66,1366,768,1366,768,8-22-2022,13-5-37,82,depth_duration_stimuli/001808_2014-06-26_20-50-58_260595134347_rgbf000029-resize_1/001808_2014-06-26_20-50-58_260595134347_rgbf000029-resize_1-target.png,1000,4.249,2,6320,1003,feet,jsons/v1_VE1000_randls_47_rotated.json,1344783,1760523,42,Woman
82,771771,DepthScenes,duration_manipulation_targetAtFixation,jsons/v1_VE1000_randls_47_rotated.json,http://54.235.29.9/FacialAge/BNav_EC2/DepthDuration/v2_depth_duration_MTurk/v2_DepthDuration_HTML.html#66,66,1366,768,1366,768,8-22-2022,13-5-37,83,depth_duration_stimuli/001032_2014-06-08_13-23-17_260595134347_rgbf000021-resize_3/001032_2014-06-08_13-23-17_260595134347_rgbf000021-resize_3-target.png,1000,3.2725,4,10733,1014,feet,jsons/v1_VE1000_randls_47_rotated.json,1344783,1760523,42,Woman
83,771771,DepthScenes,duration_manipulation_targetAtFixation,jsons/v1_VE1000_randls_47_rotated.json,http://54.235.29.9/FacialAge/BNav_EC2/DepthDuration/v2_depth_duration_MTurk/v2_DepthDuration_HTML.html#66,66,1366,768,1366,768,8-22-2022,13-5-37,84,depth_duration_stimuli/001059_2014-06-08_21-53-27_260595134347_rgbf000061-resize_4/001059_2014-06-08_21-53-27_260595134347_rgbf000061-resize_4-target.png,1000,2.4185,5,4979,1017,feet,jsons/v1_VE1000_randls_47_rotated.json,1344783,1760523,42,Woman
84,771771,DepthScenes,duration_manipulation_targetAtFixation,jsons/v1_VE1000_randls_47_rotated.json,http://54.235.29.9/FacialAge/BNav_EC2/DepthDuration/v2_depth_duration_MTurk/v2_DepthDuration_HTML.html#66,66,1366,768,1366,768,8-22-2022,13-5-37,85,depth_duration_stimuli/002660_2014-06-13_15-44-18_094959634447_rgbf001878-resize_2/002660_2014-06-13_15-44-18_094959634447_rgbf001878-resize_2-target.png,1000,3.576,4,11011,997,feet,jsons/v1_VE1000_randls_47_rotated.json,1344783,1760523,42,Woman
85,771771,DepthScenes,duration_manipulation_targetAtFixation,jsons/v1_VE1000_randls_47_rotated.json,http://54.235.29.9/FacialAge/BNav_EC2/DepthDuration/v2_depth_duration_MTurk/v2_DepthDuration_HTML.html#66,66,1366,768,1366,768,8-22-2022,13-5-37,86,depth_duration_stimuli/002153_2014-06-25_21-27-18_260595134347_rgbf000038-resize_5/002153_2014-06-25_21-27-18_260595134347_rgbf000038-resize_5-target.png,1000,2.505,5,5218,1123,feet,jsons/v1_VE1000_randls_47_rotated.json,1344783,1760523,42,Woman
86,771771,DepthScenes,duration_manipulation_targetAtFixation,jsons/v1_VE1000_randls_47_rotated.json,http://54.235.29.9/FacialAge/BNav_EC2/DepthDuration/v2_depth_duration_MTurk/v2_DepthDuration_HTML.html#66,66,1366,768,1366,768,8-22-2022,13-5-37,87,depth_duration_stimuli/003079_2014-06-15_15-18-20_094959634447_rgbf000152-resize_8/003079_2014-06-15_15-18-20_094959634447_rgbf000152-resize_8-target.png,1000,2.8775,4,6919,976,feet,jsons/v1_VE1000_randls_47_rotated.json,1344783,1760523,42,Woman
87,771771,DepthScenes,duration_manipulation_targetAtFixation,jsons/v1_VE1000_randls_47_rotated.json,http://54.235.29.9/FacialAge/BNav_EC2/DepthDuration/v2_depth_duration_MTurk/v2_DepthDuration_HTML.html#66,66,1366,768,1366,768,8-22-2022,13-5-37,88,depth_duration_stimuli/000506_2014-06-08_23-21-00_260595134347_rgbf000070-resize_7/000506_2014-06-08_23-21-00_260595134347_rgbf000070-resize_7-target.png,1000,4.0585,4,6946,1003,feet,jsons/v1_VE1000_randls_47_rotated.json,1344783,1760523,42,Woman
88,771771,DepthScenes,duration_manipulation_targetAtFixation,jsons/v1_VE1000_randls_47_rotated.json,http://54.235.29.9/FacialAge/BNav_EC2/DepthDuration/v2_depth_duration_MTurk/v2_DepthDuration_HTML.html#66,66,1366,768,1366,768,8-22-2022,13-5-37,89,depth_duration_stimuli/003423_2014-05-21_10-23-26_094959634447_rgbf002665-resize_2/003423_2014-05-21_10-23-26_094959634447_rgbf002665-resize_2-target.png,1000,3.2575,1,4966,987,feet,jsons/v1_VE1000_randls_47_rotated.json,1344783,1760523,42,Woman
89,771771,DepthScenes,duration_manipulation_targetAtFixation,jsons/v1_VE1000_randls_47_rotated.json,http://54.235.29.9/FacialAge/BNav_EC2/DepthDuration/v2_depth_duration_MTurk/v2_DepthDuration_HTML.html#66,66,1366,768,1366,768,8-22-2022,13-5-37,90,depth_duration_stimuli/002905_2014-06-03_18-04-43_094959634447_rgbf000151-resize_2/002905_2014-06-03_18-04-43_094959634447_rgbf000151-resize_2-target.png,1000,2.0295,1,5004,1011,feet,jsons/v1_VE1000_randls_47_rotated.json,1344783,1760523,42,Woman
90,771771,DepthScenes,duration_manipulation_targetAtFixation,jsons/v1_VE1000_randls_47_rotated.json,http://54.235.29.9/FacialAge/BNav_EC2/DepthDuration/v2_depth_duration_MTurk/v2_DepthDuration_HTML.html#66,66,1366,768,1366,768,8-22-2022,13-5-37,91,depth_duration_stimuli/002639_2014-06-24_14-51-37_094959634447_rgbf000074-resize_4/002639_2014-06-24_14-51-37_094959634447_rgbf000074-resize_4-target.png,1000,4.0375,1,6649,981,feet,jsons/v1_VE1000_randls_47_rotated.json,1344783,1760523,42,Woman
91,771771,DepthScenes,duration_manipulation_targetAtFixation,jsons/v1_VE1000_randls_47_rotated.json,http://54.235.29.9/FacialAge/BNav_EC2/DepthDuration/v2_depth_duration_MTurk/v2_DepthDuration_HTML.html#66,66,1366,768,1366,768,8-22-2022,13-5-37,92,depth_duration_stimuli/003292_2014-05-14_21-53-49_094959634447_rgbf000100-resize_2/003292_2014-05-14_21-53-49_094959634447_rgbf000100-resize_2-target.png,1000,3.4815,2,6164,1022,feet,jsons/v1_VE1000_randls_47_rotated.json,1344783,1760523,42,Woman
92,771771,DepthScenes,duration_manipulation_targetAtFixation,jsons/v1_VE1000_randls_47_rotated.json,http://54.235.29.9/FacialAge/BNav_EC2/DepthDuration/v2_depth_duration_MTurk/v2_DepthDuration_HTML.html#66,66,1366,768,1366,768,8-22-2022,13-5-37,93,depth_duration_stimuli/001136_2014-06-17_15-19-41_260595134347_rgbf000076-resize_3/001136_2014-06-17_15-19-41_260595134347_rgbf000076-resize_3-target.png,1000,1.8655,2,5884,821,feet,jsons/v1_VE1000_randls_47_rotated.json,1344783,1760523,42,Woman
93,771771,DepthScenes,duration_manipulation_targetAtFixation,jsons/v1_VE1000_randls_47_rotated.json,http://54.235.29.9/FacialAge/BNav_EC2/DepthDuration/v2_depth_duration_MTurk/v2_DepthDuration_HTML.html#66,66,1366,768,1366,768,8-22-2022,13-5-37,94,depth_duration_stimuli/001164_2014-06-17_15-35-46_260595134347_rgbf000085-resize_3/001164_2014-06-17_15-35-46_260595134347_rgbf000085-resize_3-target.png,1000,2.354,4,7860,1326,feet,jsons/v1_VE1000_randls_47_rotated.json,1344783,1760523,42,Woman
94,771771,DepthScenes,duration_manipulation_targetAtFixation,jsons/v1_VE1000_randls_47_rotated.json,http://54.235.29.9/FacialAge/BNav_EC2/DepthDuration/v2_depth_duration_MTurk/v2_DepthDuration_HTML.html#66,66,1366,768,1366,768,8-22-2022,13-5-37,95,depth_duration_stimuli/000103_2014-05-14_22-01-17_260595134347_rgbf000152-resize_5/000103_2014-05-14_22-01-17_260595134347_rgbf000152-resize_5-target.png,1000,1.993,4,6680,966,feet,jsons/v1_VE1000_randls_47_rotated.json,1344783,1760523,42,Woman
95,771771,DepthScenes,duration_manipulation_targetAtFixation,jsons/v1_VE1000_randls_47_rotated.json,http://54.235.29.9/FacialAge/BNav_EC2/DepthDuration/v2_depth_duration_MTurk/v2_DepthDuration_HTML.html#66,66,1366,768,1366,768,8-22-2022,13-5-37,96,depth_duration_stimuli/001555_2014-06-20_17-12-10_260595134347_rgbf000065-resize_4/001555_2014-06-20_17-12-10_260595134347_rgbf000065-resize_4-target.png,1000,1.633,2,6780,952,feet,jsons/v1_VE1000_randls_47_rotated.json,1344783,1760523,42,Woman
96,771771,DepthScenes,duration_manipulation_targetAtFixation,jsons/v1_VE1000_randls_47_rotated.json,http://54.235.29.9/FacialAge/BNav_EC2/DepthDuration/v2_depth_duration_MTurk/v2_DepthDuration_HTML.html#66,66,1366,768,1366,768,8-22-2022,13-5-37,97,depth_duration_stimuli/000709_2014-06-08_13-51-55_260595134347_rgbf000068-resize_3/000709_2014-06-08_13-51-55_260595134347_rgbf000068-resize_3-target.png,1000,1.8030000000000002,2,10605,987,feet,jsons/v1_VE1000_randls_47_rotated.json,1344783,1760523,42,Woman
97,771771,DepthScenes,duration_manipulation_targetAtFixation,jsons/v1_VE1000_randls_47_rotated.json,http://54.235.29.9/FacialAge/BNav_EC2/DepthDuration/v2_depth_duration_MTurk/v2_DepthDuration_HTML.html#66,66,1366,768,1366,768,8-22-2022,13-5-37,98,depth_duration_stimuli/002057_2014-06-24_21-00-13_260595134347_rgbf000120-resize_1/002057_2014-06-24_21-00-13_260595134347_rgbf000120-resize_1-target.png,1000,2.967,2,6481,1000,feet,jsons/v1_VE1000_randls_47_rotated.json,1344783,1760523,42,Woman
98,771771,DepthScenes,duration_manipulation_targetAtFixation,jsons/v1_VE1000_randls_47_rotated.json,http://54.235.29.9/FacialAge/BNav_EC2/DepthDuration/v2_depth_duration_MTurk/v2_DepthDuration_HTML.html#66,66,1366,768,1366,768,8-22-2022,13-5-37,99,depth_duration_stimuli/001222_2014-06-17_16-24-06_260595134347_rgbf000073-resize_0/001222_2014-06-17_16-24-06_260595134347_rgbf000073-resize-original.jpg,1000,1.4385,3,7368,960,feet,jsons/v1_VE1000_randls_47_rotated.json,1344783,1760523,42,Woman
99,771771,DepthScenes,duration_manipulation_targetAtFixation,jsons/v1_VE1000_randls_47_rotated.json,http://54.235.29.9/FacialAge/BNav_EC2/DepthDuration/v2_depth_duration_MTurk/v2_DepthDuration_HTML.html#66,66,1366,768,1366,768,8-22-2022,13-5-37,100,depth_duration_stimuli/002637_2014-06-24_14-51-13_094959634447_rgbf000066-resize_4/002637_2014-06-24_14-51-13_094959634447_rgbf000066-resize_4-target.png,1000,1.9955,5,7201,1041,feet,jsons/v1_VE1000_randls_47_rotated.json,1344783,1760523,42,Woman
100,771771,DepthScenes,duration_manipulation_targetAtFixation,jsons/v1_VE1000_randls_47_rotated.json,http://54.235.29.9/FacialAge/BNav_EC2/DepthDuration/v2_depth_duration_MTurk/v2_DepthDuration_HTML.html#66,66,1366,768,1366,768,8-22-2022,13-5-37,101,depth_duration_stimuli/003534_2014-05-22_15-06-10_094959634447_rgbf000102-resize_4/003534_2014-05-22_15-06-10_094959634447_rgbf000102-resize_4-target.png,1000,1.426,5,26914,968,feet,jsons/v1_VE1000_randls_47_rotated.json,1344783,1760523,42,Woman
101,771771,DepthScenes,duration_manipulation_targetAtFixation,jsons/v1_VE1000_randls_47_rotated.json,http://54.235.29.9/FacialAge/BNav_EC2/DepthDuration/v2_depth_duration_MTurk/v2_DepthDuration_HTML.html#66,66,1366,768,1366,768,8-22-2022,13-5-37,102,depth_duration_stimuli/000409_2014-06-04_19-23-33_260595134347_rgbf000067-resize_0/000409_2014-06-04_19-23-33_260595134347_rgbf000067-resize_0-target.png,1000,3.7335,5,6542,986,feet,jsons/v1_VE1000_randls_47_rotated.json,1344783,1760523,42,Woman
102,771771,DepthScenes,duration_manipulation_targetAtFixation,jsons/v1_VE1000_randls_47_rotated.json,http://54.235.29.9/FacialAge/BNav_EC2/DepthDuration/v2_depth_duration_MTurk/v2_DepthDuration_HTML.html#66,66,1366,768,1366,768,8-22-2022,13-5-37,103,depth_duration_stimuli/002663_2014-06-13_15-50-26_094959634447_rgbf000075-resize_1/002663_2014-06-13_15-50-26_094959634447_rgbf000075-resize_1-target.png,1000,4.7495,5,6179,1063,feet,jsons/v1_VE1000_randls_47_rotated.json,1344783,1760523,42,Woman
103,771771,DepthScenes,duration_manipulation_targetAtFixation,jsons/v1_VE1000_randls_47_rotated.json,http://54.235.29.9/FacialAge/BNav_EC2/DepthDuration/v2_depth_duration_MTurk/v2_DepthDuration_HTML.html#66,66,1366,768,1366,768,8-22-2022,13-5-37,104,depth_duration_stimuli/002678_2014-06-13_16-15-32_094959634447_rgbf000151-resize_6/002678_2014-06-13_16-15-32_094959634447_rgbf000151-resize_6-target.png,1000,2.1830000000000003,5,7293,4,feet,jsons/v1_VE1000_randls_47_rotated.json,1344783,1760523,42,Woman
104,771771,DepthScenes,duration_manipulation_targetAtFixation,jsons/v1_VE1000_randls_47_rotated.json,http://54.235.29.9/FacialAge/BNav_EC2/DepthDuration/v2_depth_duration_MTurk/v2_DepthDuration_HTML.html#66,66,1366,768,1366,768,8-22-2022,13-5-37,105,depth_duration_stimuli/000368_2014-06-09_15-53-01_260595134347_rgbf000155-resize_2/000368_2014-06-09_15-53-01_260595134347_rgbf000155-resize_2-target.png,1000,2.4859999999999998,4,6393,1180,feet,jsons/v1_VE1000_randls_47_rotated.json,1344783,1760523,42,Woman
105,771771,DepthScenes,duration_manipulation_targetAtFixation,jsons/v1_VE1000_randls_47_rotated.json,http://54.235.29.9/FacialAge/BNav_EC2/DepthDuration/v2_depth_duration_MTurk/v2_DepthDuration_HTML.html#66,66,1366,768,1366,768,8-22-2022,13-5-37,106,depth_duration_stimuli/002414_2014-06-28_20-24-58_260595134347_rgbf000067-resize_4/002414_2014-06-28_20-24-58_260595134347_rgbf000067-resize_4-target.png,1000,4.363,5,7264,1008,feet,jsons/v1_VE1000_randls_47_rotated.json,1344783,1760523,42,Woman
106,771771,DepthScenes,duration_manipulation_targetAtFixation,jsons/v1_VE1000_randls_47_rotated.json,http://54.235.29.9/FacialAge/BNav_EC2/DepthDuration/v2_depth_duration_MTurk/v2_DepthDuration_HTML.html#66,66,1366,768,1366,768,8-22-2022,13-5-37,107,depth_duration_stimuli/000773_2014-06-08_22-24-54_260595134347_rgbf000093-resize_1/000773_2014-06-08_22-24-54_260595134347_rgbf000093-resize_1-target.png,1000,4.973,2,7067,875,feet,jsons/v1_VE1000_randls_47_rotated.json,1344783,1760523,42,Woman
107,771771,DepthScenes,duration_manipulation_targetAtFixation,jsons/v1_VE1000_randls_47_rotated.json,http://54.235.29.9/FacialAge/BNav_EC2/DepthDuration/v2_depth_duration_MTurk/v2_DepthDuration_HTML.html#66,66,1366,768,1366,768,8-22-2022,13-5-37,108,depth_duration_stimuli/000780_2014-06-08_22-28-29_260595134347_rgbf000126-resize_1/000780_2014-06-08_22-28-29_260595134347_rgbf000126-resize_1-target.png,1000,3.3825,5,6623,998,feet,jsons/v1_VE1000_randls_47_rotated.json,1344783,1760523,42,Woman
108,771771,DepthScenes,duration_manipulation_targetAtFixation,jsons/v1_VE1000_randls_47_rotated.json,http://54.235.29.9/FacialAge/BNav_EC2/DepthDuration/v2_depth_duration_MTurk/v2_DepthDuration_HTML.html#66,66,1366,768,1366,768,8-22-2022,13-5-37,109,depth_duration_stimuli/002445_2014-06-28_20-32-16_260595134347_rgbf000029-resize_4/002445_2014-06-28_20-32-16_260595134347_rgbf000029-resize_4-target.png,1000,2.5315,3,5312,928,feet,jsons/v1_VE1000_randls_47_rotated.json,1344783,1760523,42,Woman
109,771771,DepthScenes,duration_manipulation_targetAtFixation,jsons/v1_VE1000_randls_47_rotated.json,http://54.235.29.9/FacialAge/BNav_EC2/DepthDuration/v2_depth_duration_MTurk/v2_DepthDuration_HTML.html#66,66,1366,768,1366,768,8-22-2022,13-5-37,110,depth_duration_stimuli/000742_2014-06-08_18-48-09_260595134347_rgbf000164-resize_4/000742_2014-06-08_18-48-09_260595134347_rgbf000164-resize_4-target.png,1000,4.632,8,6065,930,feet,jsons/v1_VE1000_randls_47_rotated.json,1344783,1760523,42,Woman
110,771771,DepthScenes,duration_manipulation_targetAtFixation,jsons/v1_VE1000_randls_47_rotated.json,http://54.235.29.9/FacialAge/BNav_EC2/DepthDuration/v2_depth_duration_MTurk/v2_DepthDuration_HTML.html#66,66,1366,768,1366,768,8-22-2022,13-5-37,111,depth_duration_stimuli/001066_2014-06-08_22-03-20_260595134347_rgbf000066-resize_4/001066_2014-06-08_22-03-20_260595134347_rgbf000066-resize_4-target.png,1000,4.2330000000000005,8,9118,981,feet,jsons/v1_VE1000_randls_47_rotated.json,1344783,1760523,42,Woman
111,771771,DepthScenes,duration_manipulation_targetAtFixation,jsons/v1_VE1000_randls_47_rotated.json,http://54.235.29.9/FacialAge/BNav_EC2/DepthDuration/v2_depth_duration_MTurk/v2_DepthDuration_HTML.html#66,66,1366,768,1366,768,8-22-2022,13-5-37,112,depth_duration_stimuli/001392_2014-06-19_16-07-59_260595134347_rgbf000046-resize_1/001392_2014-06-19_16-07-59_260595134347_rgbf000046-resize_1-target.png,1000,4.135,2,13282,922,feet,jsons/v1_VE1000_randls_47_rotated.json,1344783,1760523,42,Woman
112,771771,DepthScenes,duration_manipulation_targetAtFixation,jsons/v1_VE1000_randls_47_rotated.json,http://54.235.29.9/FacialAge/BNav_EC2/DepthDuration/v2_depth_duration_MTurk/v2_DepthDuration_HTML.html#66,66,1366,768,1366,768,8-22-2022,13-5-37,113,depth_duration_stimuli/001570_2014-06-20_17-21-09_260595134347_rgbf000135-resize_4/001570_2014-06-20_17-21-09_260595134347_rgbf000135-resize_4-target.png,1000,4.467,6,8006,2548,feet,jsons/v1_VE1000_randls_47_rotated.json,1344783,1760523,42,Woman
113,771771,DepthScenes,duration_manipulation_targetAtFixation,jsons/v1_VE1000_randls_47_rotated.json,http://54.235.29.9/FacialAge/BNav_EC2/DepthDuration/v2_depth_duration_MTurk/v2_DepthDuration_HTML.html#66,66,1366,768,1366,768,8-22-2022,13-5-37,114,depth_duration_stimuli/000854_2014-06-09_19-43-13_260595134347_rgbf000066-resize_0/000854_2014-06-09_19-43-13_260595134347_rgbf000066-resize_0-target.png,1000,3.068,5,6132,1004,feet,jsons/v1_VE1000_randls_47_rotated.json,1344783,1760523,42,Woman
114,771771,DepthScenes,duration_manipulation_targetAtFixation,jsons/v1_VE1000_randls_47_rotated.json,http://54.235.29.9/FacialAge/BNav_EC2/DepthDuration/v2_depth_duration_MTurk/v2_DepthDuration_HTML.html#66,66,1366,768,1366,768,8-22-2022,13-5-37,115,depth_duration_stimuli/000758_2014-06-08_22-05-08_260595134347_rgbf000085-resize_0/000758_2014-06-08_22-05-08_260595134347_rgbf000085-resize_0-target.png,1000,3.3810000000000002,6,7276,1021,feet,jsons/v1_VE1000_randls_47_rotated.json,1344783,1760523,42,Woman
115,771771,DepthScenes,duration_manipulation_targetAtFixation,jsons/v1_VE1000_randls_47_rotated.json,http://54.235.29.9/FacialAge/BNav_EC2/DepthDuration/v2_depth_duration_MTurk/v2_DepthDuration_HTML.html#66,66,1366,768,1366,768,8-22-2022,13-5-37,116,depth_duration_stimuli/000635_2014-06-08_16-38-42_260595134347_rgbf000106-resize_1/000635_2014-06-08_16-38-42_260595134347_rgbf000106-resize_1-target.png,1000,2.074,3,6351,1243,feet,jsons/v1_VE1000_randls_47_rotated.json,1344783,1760523,42,Woman
116,771771,DepthScenes,duration_manipulation_targetAtFixation,jsons/v1_VE1000_randls_47_rotated.json,http://54.235.29.9/FacialAge/BNav_EC2/DepthDuration/v2_depth_duration_MTurk/v2_DepthDuration_HTML.html#66,66,1366,768,1366,768,8-22-2022,13-5-37,117,depth_duration_stimuli/002279_2014-06-28_18-55-32_260595134347_rgbf000040-resize_5/002279_2014-06-28_18-55-32_260595134347_rgbf000040-resize_5-target.png,1000,1.5043333333333,3,13187,1217,feet,jsons/v1_VE1000_randls_47_rotated.json,1344783,1760523,42,Woman
117,771771,DepthScenes,duration_manipulation_targetAtFixation,jsons/v1_VE1000_randls_47_rotated.json,http://54.235.29.9/FacialAge/BNav_EC2/DepthDuration/v2_depth_duration_MTurk/v2_DepthDuration_HTML.html#66,66,1366,768,1366,768,8-22-2022,13-5-37,118,depth_duration_stimuli/002136_2014-06-25_21-18-03_260595134347_rgbf000109-resize_3/002136_2014-06-25_21-18-03_260595134347_rgbf000109-resize_3-target.png,1000,1.9569999999999999,5,6188,1073,feet,jsons/v1_VE1000_randls_47_rotated.json,1344783,1760523,42,Woman
118,771771,DepthScenes,duration_manipulation_targetAtFixation,jsons/v1_VE1000_randls_47_rotated.json,http://54.235.29.9/FacialAge/BNav_EC2/DepthDuration/v2_depth_duration_MTurk/v2_DepthDuration_HTML.html#66,66,1366,768,1366,768,8-22-2022,13-5-37,119,depth_duration_stimuli/002964_2014-06-08_17-46-11_094959634447_rgbf000091-resize_4/002964_2014-06-08_17-46-11_094959634447_rgbf000091-resize_4-target.png,1000,1.6909999999999998,4,11009,1001,feet,jsons/v1_VE1000_randls_47_rotated.json,1344783,1760523,42,Woman
119,771771,DepthScenes,duration_manipulation_targetAtFixation,jsons/v1_VE1000_randls_47_rotated.json,http://54.235.29.9/FacialAge/BNav_EC2/DepthDuration/v2_depth_duration_MTurk/v2_DepthDuration_HTML.html#66,66,1366,768,1366,768,8-22-2022,13-5-37,120,depth_duration_stimuli/000787_2014-06-08_22-33-53_260595134347_rgbf000175-resize_1/000787_2014-06-08_22-33-53_260595134347_rgbf000175-resize-original.jpg,1000,4.784,4,5061,974,feet,jsons/v1_VE1000_randls_47_rotated.json,1344783,1760523,42,Woman
120,771771,DepthScenes,duration_manipulation_targetAtFixation,jsons/v1_VE1000_randls_47_rotated.json,http://54.235.29.9/FacialAge/BNav_EC2/DepthDuration/v2_depth_duration_MTurk/v2_DepthDuration_HTML.html#66,66,1366,768,1366,768,8-22-2022,13-5-37,121,depth_duration_stimuli/000734_2014-06-08_17-39-11_260595134347_rgbf000128-resize_2/000734_2014-06-08_17-39-11_260595134347_rgbf000128-resize_2-target.png,1000,4.098,7,6089,951,feet,jsons/v1_VE1000_randls_47_rotated.json,1344783,1760523,42,Woman
121,771771,DepthScenes,duration_manipulation_targetAtFixation,jsons/v1_VE1000_randls_47_rotated.json,http://54.235.29.9/FacialAge/BNav_EC2/DepthDuration/v2_depth_duration_MTurk/v2_DepthDuration_HTML.html#66,66,1366,768,1366,768,8-22-2022,13-5-37,122,depth_duration_stimuli/000739_2014-06-08_18-45-58_260595134347_rgbf000068-resize_1/000739_2014-06-08_18-45-58_260595134347_rgbf000068-resize_1-target.png,1000,3.534,4,6247,957,feet,jsons/v1_VE1000_randls_47_rotated.json,1344783,1760523,42,Woman
122,771771,DepthScenes,duration_manipulation_targetAtFixation,jsons/v1_VE1000_randls_47_rotated.json,http://54.235.29.9/FacialAge/BNav_EC2/DepthDuration/v2_depth_duration_MTurk/v2_DepthDuration_HTML.html#66,66,1366,768,1366,768,8-22-2022,13-5-37,123,depth_duration_stimuli/000927_2014-06-09_16-32-30_260595134347_rgbf000123-resize_3/000927_2014-06-09_16-32-30_260595134347_rgbf000123-resize_3-target.png,1000,2.6785,5,10424,1038,feet,jsons/v1_VE1000_randls_47_rotated.json,1344783,1760523,42,Woman
123,771771,DepthScenes,duration_manipulation_targetAtFixation,jsons/v1_VE1000_randls_47_rotated.json,http://54.235.29.9/FacialAge/BNav_EC2/DepthDuration/v2_depth_duration_MTurk/v2_DepthDuration_HTML.html#66,66,1366,625,1366,768,8-22-2022,13-5-37,124,depth_duration_stimuli/001110_2014-06-15_17-25-28_260595134347_rgbf000150-resize_1/001110_2014-06-15_17-25-28_260595134347_rgbf000150-resize_1-target.png,1000,1.7115,7,17187,1424,feet,jsons/v1_VE1000_randls_47_rotated.json,1344783,1760523,42,Woman
124,771771,DepthScenes,duration_manipulation_targetAtFixation,jsons/v1_VE1000_randls_47_rotated.json,http://54.235.29.9/FacialAge/BNav_EC2/DepthDuration/v2_depth_duration_MTurk/v2_DepthDuration_HTML.html#66,66,1366,625,1366,768,8-22-2022,13-5-37,125,depth_duration_stimuli/001235_2014-06-17_16-37-36_260595134347_rgbf000084-resize_4/001235_2014-06-17_16-37-36_260595134347_rgbf000084-resize_4-target.png,1000,3.6605,5,6843,995,feet,jsons/v1_VE1000_randls_47_rotated.json,1344783,1760523,42,Woman
125,771771,DepthScenes,duration_manipulation_targetAtFixation,jsons/v1_VE1000_randls_47_rotated.json,http://54.235.29.9/FacialAge/BNav_EC2/DepthDuration/v2_depth_duration_MTurk/v2_DepthDuration_HTML.html#66,66,1366,625,1366,768,8-22-2022,13-5-37,126,depth_duration_stimuli/000788_2014-06-08_22-34-36_260595134347_rgbf000131-resize_1/000788_2014-06-08_22-34-36_260595134347_rgbf000131-resize_1-target.png,1000,3.359,4,4848,1004,feet,jsons/v1_VE1000_randls_47_rotated.json,1344783,1760523,42,Woman
126,771771,DepthScenes,duration_manipulation_targetAtFixation,jsons/v1_VE1000_randls_47_rotated.json,http://54.235.29.9/FacialAge/BNav_EC2/DepthDuration/v2_depth_duration_MTurk/v2_DepthDuration_HTML.html#66,66,1366,625,1366,768,8-22-2022,13-5-37,127,depth_duration_stimuli/000749_2014-06-08_21-55-06_260595134347_rgbf000070-resize_2/000749_2014-06-08_21-55-06_260595134347_rgbf000070-resize_2-target.png,1000,2.331,7,5462,1061,feet,jsons/v1_VE1000_randls_47_rotated.json,1344783,1760523,42,Woman
127,771771,DepthScenes,duration_manipulation_targetAtFixation,jsons/v1_VE1000_randls_47_rotated.json,http://54.235.29.9/FacialAge/BNav_EC2/DepthDuration/v2_depth_duration_MTurk/v2_DepthDuration_HTML.html#66,66,1366,625,1366,768,8-22-2022,13-5-37,128,depth_duration_stimuli/002788_2014-06-22_19-36-03_094959634447_rgbf000088-resize_2/002788_2014-06-22_19-36-03_094959634447_rgbf000088-resize_2-target.png,1000,1.6465,5,5857,971,feet,jsons/v1_VE1000_randls_47_rotated.json,1344783,1760523,42,Woman
128,771771,DepthScenes,duration_manipulation_targetAtFixation,jsons/v1_VE1000_randls_47_rotated.json,http://54.235.29.9/FacialAge/BNav_EC2/DepthDuration/v2_depth_duration_MTurk/v2_DepthDuration_HTML.html#66,66,1366,625,1366,768,8-22-2022,13-5-37,129,depth_duration_stimuli/002323_2014-06-28_20-01-54_260595134347_rgbf000051-resize_4/002323_2014-06-28_20-01-54_260595134347_rgbf000051-resize_4-target.png,1000,3.7310000000000003,5,6192,977,feet,jsons/v1_VE1000_randls_47_rotated.json,1344783,1760523,42,Woman
129,771771,DepthScenes,duration_manipulation_targetAtFixation,jsons/v1_VE1000_randls_47_rotated.json,http://54.235.29.9/FacialAge/BNav_EC2/DepthDuration/v2_depth_duration_MTurk/v2_DepthDuration_HTML.html#66,66,1366,625,1366,768,8-22-2022,13-5-37,130,depth_duration_stimuli/000917_2014-06-09_22-45-29_260595134347_rgbf000149-resize_3/000917_2014-06-09_22-45-29_260595134347_rgbf000149-resize_3-target.png,1000,4.1865,3,5201,999,feet,jsons/v1_VE1000_randls_47_rotated.json,1344783,1760523,42,Woman
130,771771,DepthScenes,duration_manipulation_targetAtFixation,jsons/v1_VE1000_randls_47_rotated.json,http://54.235.29.9/FacialAge/BNav_EC2/DepthDuration/v2_depth_duration_MTurk/v2_DepthDuration_HTML.html#66,66,1366,625,1366,768,8-22-2022,13-5-37,131,depth_duration_stimuli/003587_2014-05-23_16-48-02_094959634447_rgbf002384-resize_2/003587_2014-05-23_16-48-02_094959634447_rgbf002384-resize_2-target.png,1000,1.357,2,8382,1514,feet,jsons/v1_VE1000_randls_47_rotated.json,1344783,1760523,42,Woman
131,771771,DepthScenes,duration_manipulation_targetAtFixation,jsons/v1_VE1000_randls_47_rotated.json,http://54.235.29.9/FacialAge/BNav_EC2/DepthDuration/v2_depth_duration_MTurk/v2_DepthDuration_HTML.html#66,66,1366,625,1366,768,8-22-2022,13-5-37,132,depth_duration_stimuli/001167_2014-06-17_15-38-07_260595134347_rgbf000108-resize_0/001167_2014-06-17_15-38-07_260595134347_rgbf000108-resize_0-target.png,1000,1.8505,5,13506,884,feet,jsons/v1_VE1000_randls_47_rotated.json,1344783,1760523,42,Woman
132,771771,DepthScenes,duration_manipulation_targetAtFixation,jsons/v1_VE1000_randls_47_rotated.json,http://54.235.29.9/FacialAge/BNav_EC2/DepthDuration/v2_depth_duration_MTurk/v2_DepthDuration_HTML.html#66,66,1366,625,1366,768,8-22-2022,13-5-37,133,depth_duration_stimuli/001132_2014-06-17_14-48-54_260595134347_rgbf000100-resize_2/001132_2014-06-17_14-48-54_260595134347_rgbf000100-resize_2-target.png,1000,3.753,2,11690,962,feet,jsons/v1_VE1000_randls_47_rotated.json,1344783,1760523,42,Woman
133,771771,DepthScenes,duration_manipulation_targetAtFixation,jsons/v1_VE1000_randls_47_rotated.json,http://54.235.29.9/FacialAge/BNav_EC2/DepthDuration/v2_depth_duration_MTurk/v2_DepthDuration_HTML.html#66,66,1366,625,1366,768,8-22-2022,13-5-37,134,depth_duration_stimuli/001133_2014-06-17_14-49-16_260595134347_rgbf000100-resize_0/001133_2014-06-17_14-49-16_260595134347_rgbf000100-resize_0-target.png,1000,4.2115,2,8655,912,feet,jsons/v1_VE1000_randls_47_rotated.json,1344783,1760523,42,Woman
134,771771,DepthScenes,duration_manipulation_targetAtFixation,jsons/v1_VE1000_randls_47_rotated.json,http://54.235.29.9/FacialAge/BNav_EC2/DepthDuration/v2_depth_duration_MTurk/v2_DepthDuration_HTML.html#66,66,1366,625,1366,768,8-22-2022,13-5-37,135,depth_duration_stimuli/000375_2014-06-08_11-17-29_260595134347_rgbf000133-resize_2/000375_2014-06-08_11-17-29_260595134347_rgbf000133-resize-original.jpg,1000,4.718,2,7053,1019,feet,jsons/v1_VE1000_randls_47_rotated.json,1344783,1760523,42,Woman
135,771771,DepthScenes,duration_manipulation_targetAtFixation,jsons/v1_VE1000_randls_47_rotated.json,http://54.235.29.9/FacialAge/BNav_EC2/DepthDuration/v2_depth_duration_MTurk/v2_DepthDuration_HTML.html#66,66,1366,625,1366,768,8-22-2022,13-5-37,136,depth_duration_stimuli/002953_2014-06-08_17-32-18_094959634447_rgbf000059-resize_5/002953_2014-06-08_17-32-18_094959634447_rgbf000059-resize_5-target.png,1000,1.551,3,6887,990,feet,jsons/v1_VE1000_randls_47_rotated.json,1344783,1760523,42,Woman
136,771771,DepthScenes,duration_manipulation_targetAtFixation,jsons/v1_VE1000_randls_47_rotated.json,http://54.235.29.9/FacialAge/BNav_EC2/DepthDuration/v2_depth_duration_MTurk/v2_DepthDuration_HTML.html#66,66,1366,625,1366,768,8-22-2022,13-5-37,137,depth_duration_stimuli/000878_2014-06-08_22-52-45_260595134347_rgbf000045-resize_2/000878_2014-06-08_22-52-45_260595134347_rgbf000045-resize_2-target.png,1000,2.092,4,5264,950,feet,jsons/v1_VE1000_randls_47_rotated.json,1344783,1760523,42,Woman
137,771771,DepthScenes,duration_manipulation_targetAtFixation,jsons/v1_VE1000_randls_47_rotated.json,http://54.235.29.9/FacialAge/BNav_EC2/DepthDuration/v2_depth_duration_MTurk/v2_DepthDuration_HTML.html#66,66,1366,625,1366,768,8-22-2022,13-5-37,138,depth_duration_stimuli/001584_2014-06-20_11-07-43_260595134347_rgbf000002-resize_1/001584_2014-06-20_11-07-43_260595134347_rgbf000002-resize_1-target.png,1000,3.53,5,5985,990,feet,jsons/v1_VE1000_randls_47_rotated.json,1344783,1760523,42,Woman
138,771771,DepthScenes,duration_manipulation_targetAtFixation,jsons/v1_VE1000_randls_47_rotated.json,http://54.235.29.9/FacialAge/BNav_EC2/DepthDuration/v2_depth_duration_MTurk/v2_DepthDuration_HTML.html#66,66,1366,625,1366,768,8-22-2022,13-5-37,139,depth_duration_stimuli/003621_2014-05-23_18-06-08_094959634447_rgbf000101-resize_1/003621_2014-05-23_18-06-08_094959634447_rgbf000101-resize_1-target.png,1000,3.9835,5,3980,1022,feet,jsons/v1_VE1000_randls_47_rotated.json,1344783,1760523,42,Woman
139,771771,DepthScenes,duration_manipulation_targetAtFixation,jsons/v1_VE1000_randls_47_rotated.json,http://54.235.29.9/FacialAge/BNav_EC2/DepthDuration/v2_depth_duration_MTurk/v2_DepthDuration_HTML.html#66,66,1366,625,1366,768,8-22-2022,13-5-37,140,depth_duration_stimuli/002995_2014-06-15_12-31-26_094959634447_rgbf000150-resize_1/002995_2014-06-15_12-31-26_094959634447_rgbf000150-resize_1-target.png,1000,3.8360000000000003,4,5655,830,feet,jsons/v1_VE1000_randls_47_rotated.json,1344783,1760523,42,Woman
140,771771,DepthScenes,duration_manipulation_targetAtFixation,jsons/v1_VE1000_randls_47_rotated.json,http://54.235.29.9/FacialAge/BNav_EC2/DepthDuration/v2_depth_duration_MTurk/v2_DepthDuration_HTML.html#66,66,1366,625,1366,768,8-22-2022,13-5-37,141,depth_duration_stimuli/002748_2014-06-22_19-07-22_094959634447_rgbf000078-resize_1/002748_2014-06-22_19-07-22_094959634447_rgbf000078-resize_1-target.png,1000,4.6705,6,4664,1006,feet,jsons/v1_VE1000_randls_47_rotated.json,1344783,1760523,42,Woman
141,771771,DepthScenes,duration_manipulation_targetAtFixation,jsons/v1_VE1000_randls_47_rotated.json,http://54.235.29.9/FacialAge/BNav_EC2/DepthDuration/v2_depth_duration_MTurk/v2_DepthDuration_HTML.html#66,66,1366,625,1366,768,8-22-2022,13-5-37,142,depth_duration_stimuli/000556_2014-06-09_22-42-56_260595134347_rgbf000214-resize_1/000556_2014-06-09_22-42-56_260595134347_rgbf000214-resize_1-target.png,1000,4.8415,4,9661,1056,feet,jsons/v1_VE1000_randls_47_rotated.json,1344783,1760523,42,Woman
142,771771,DepthScenes,duration_manipulation_targetAtFixation,jsons/v1_VE1000_randls_47_rotated.json,http://54.235.29.9/FacialAge/BNav_EC2/DepthDuration/v2_depth_duration_MTurk/v2_DepthDuration_HTML.html#66,66,1366,625,1366,768,8-22-2022,13-5-37,143,depth_duration_stimuli/001158_2014-06-17_15-32-16_260595134347_rgbf000138-resize_2/001158_2014-06-17_15-32-16_260595134347_rgbf000138-resize_2-target.png,1000,4.5315,4,4242,1013,feet,jsons/v1_VE1000_randls_47_rotated.json,1344783,1760523,42,Woman
143,771771,DepthScenes,duration_manipulation_targetAtFixation,jsons/v1_VE1000_randls_47_rotated.json,http://54.235.29.9/FacialAge/BNav_EC2/DepthDuration/v2_depth_duration_MTurk/v2_DepthDuration_HTML.html#66,66,1366,625,1366,768,8-22-2022,13-5-37,144,depth_duration_stimuli/001650_2014-06-20_12-09-00_260595134347_rgbf000087-resize_3/001650_2014-06-20_12-09-00_260595134347_rgbf000087-resize_3-target.png,1000,1.9505,4,8255,980,feet,jsons/v1_VE1000_randls_47_rotated.json,1344783,1760523,42,Woman
144,771771,DepthScenes,duration_manipulation_targetAtFixation,jsons/v1_VE1000_randls_47_rotated.json,http://54.235.29.9/FacialAge/BNav_EC2/DepthDuration/v2_depth_duration_MTurk/v2_DepthDuration_HTML.html#66,66,1366,625,1366,768,8-22-2022,13-5-37,145,depth_duration_stimuli/000682_2014-06-08_23-14-58_260595134347_rgbf000041-resize_5/000682_2014-06-08_23-14-58_260595134347_rgbf000041-resize_5-target.png,1000,2.7239999999999998,2,6287,1178,feet,jsons/v1_VE1000_randls_47_rotated.json,1344783,1760523,42,Woman
145,771771,DepthScenes,duration_manipulation_targetAtFixation,jsons/v1_VE1000_randls_47_rotated.json,http://54.235.29.9/FacialAge/BNav_EC2/DepthDuration/v2_depth_duration_MTurk/v2_DepthDuration_HTML.html#66,66,1366,625,1366,768,8-22-2022,13-5-37,146,depth_duration_stimuli/002750_2014-06-22_19-08-03_094959634447_rgbf000094-resize_4/002750_2014-06-22_19-08-03_094959634447_rgbf000094-resize_4-target.png,1000,2.354,2,7009,909,feet,jsons/v1_VE1000_randls_47_rotated.json,1344783,1760523,42,Woman
146,771771,DepthScenes,duration_manipulation_targetAtFixation,jsons/v1_VE1000_randls_47_rotated.json,http://54.235.29.9/FacialAge/BNav_EC2/DepthDuration/v2_depth_duration_MTurk/v2_DepthDuration_HTML.html#66,66,1366,625,1366,768,8-22-2022,13-5-37,147,depth_duration_stimuli/002549_2014-06-24_13-41-39_094959634447_rgbf000022-resize_3/002549_2014-06-24_13-41-39_094959634447_rgbf000022-resize_3-target.png,1000,1.476,4,4179,999,feet,jsons/v1_VE1000_randls_47_rotated.json,1344783,1760523,42,Woman
147,771771,DepthScenes,duration_manipulation_targetAtFixation,jsons/v1_VE1000_randls_47_rotated.json,http://54.235.29.9/FacialAge/BNav_EC2/DepthDuration/v2_depth_duration_MTurk/v2_DepthDuration_HTML.html#66,66,1366,625,1366,768,8-22-2022,13-5-37,148,depth_duration_stimuli/001516_2014-06-20_16-25-09_260595134347_rgbf000076-resize_2/001516_2014-06-20_16-25-09_260595134347_rgbf000076-resize_2-target.png,1000,1.7445,4,4817,611,feet,jsons/v1_VE1000_randls_47_rotated.json,1344783,1760523,42,Woman
148,771771,DepthScenes,duration_manipulation_targetAtFixation,jsons/v1_VE1000_randls_47_rotated.json,http://54.235.29.9/FacialAge/BNav_EC2/DepthDuration/v2_depth_duration_MTurk/v2_DepthDuration_HTML.html#66,66,1366,625,1366,768,8-22-2022,13-5-37,149,depth_duration_stimuli/002118_2014-06-25_20-32-08_260595134347_rgbf000078-resize_1/002118_2014-06-25_20-32-08_260595134347_rgbf000078-resize_1-target.png,1000,2.6460000000000004,4,3938,221,feet,jsons/v1_VE1000_randls_47_rotated.json,1344783,1760523,42,Woman
149,771771,DepthScenes,duration_manipulation_targetAtFixation,jsons/v1_VE1000_randls_47_rotated.json,http://54.235.29.9/FacialAge/BNav_EC2/DepthDuration/v2_depth_duration_MTurk/v2_DepthDuration_HTML.html#66,66,1366,625,1366,768,8-22-2022,13-5-37,150,depth_duration_stimuli/001571_2014-06-20_17-21-32_260595134347_rgbf000089-resize_1/001571_2014-06-20_17-21-32_260595134347_rgbf000089-resize_1-target.png,1000,1.86,2,6162,858,feet,jsons/v1_VE1000_randls_47_rotated.json,1344783,1760523,42,Woman
150,771771,DepthScenes,duration_manipulation_targetAtFixation,jsons/v1_VE1000_randls_47_rotated.json,http://54.235.29.9/FacialAge/BNav_EC2/DepthDuration/v2_depth_duration_MTurk/v2_DepthDuration_HTML.html#66,66,1366,625,1366,768,8-22-2022,13-5-37,151,depth_duration_stimuli/002272_2014-06-28_18-53-56_260595134347_rgbf000067-resize_2/002272_2014-06-28_18-53-56_260595134347_rgbf000067-resize_2-target.png,1000,1.138,7,6100,873,feet,jsons/v1_VE1000_randls_47_rotated.json,1344783,1760523,42,Woman
151,771771,DepthScenes,duration_manipulation_targetAtFixation,jsons/v1_VE1000_randls_47_rotated.json,http://54.235.29.9/FacialAge/BNav_EC2/DepthDuration/v2_depth_duration_MTurk/v2_DepthDuration_HTML.html#66,66,1366,625,1366,768,8-22-2022,13-5-37,152,depth_duration_stimuli/000569_2014-06-09_22-51-47_260595134347_rgbf000141-resize_3/000569_2014-06-09_22-51-47_260595134347_rgbf000141-resize-original.jpg,1000,4.512,5,9155,797,feet,jsons/v1_VE1000_randls_47_rotated.json,1344783,1760523,42,Woman
152,771771,DepthScenes,duration_manipulation_targetAtFixation,jsons/v1_VE1000_randls_47_rotated.json,http://54.235.29.9/FacialAge/BNav_EC2/DepthDuration/v2_depth_duration_MTurk/v2_DepthDuration_HTML.html#66,66,1366,625,1366,768,8-22-2022,13-5-37,153,depth_duration_stimuli/003338_2014-05-20_11-01-23_094959634447_rgbf000051-resize_6/003338_2014-05-20_11-01-23_094959634447_rgbf000051-resize_6-target.png,1000,1.693,6,3560,664,feet,jsons/v1_VE1000_randls_47_rotated.json,1344783,1760523,42,Woman
153,771771,DepthScenes,duration_manipulation_targetAtFixation,jsons/v1_VE1000_randls_47_rotated.json,http://54.235.29.9/FacialAge/BNav_EC2/DepthDuration/v2_depth_duration_MTurk/v2_DepthDuration_HTML.html#66,66,1366,625,1366,768,8-22-2022,13-5-37,154,depth_duration_stimuli/002509_2014-06-24_13-19-22_094959634447_rgbf000077-resize_0/002509_2014-06-24_13-19-22_094959634447_rgbf000077-resize_0-target.png,1000,1.3065,5,7703,800,feet,jsons/v1_VE1000_randls_47_rotated.json,1344783,1760523,42,Woman
154,771771,DepthScenes,duration_manipulation_targetAtFixation,jsons/v1_VE1000_randls_47_rotated.json,http://54.235.29.9/FacialAge/BNav_EC2/DepthDuration/v2_depth_duration_MTurk/v2_DepthDuration_HTML.html#66,66,1366,625,1366,768,8-22-2022,13-5-37,155,depth_duration_stimuli/002103_2014-06-25_20-00-40_260595134347_rgbf000049-resize_0/002103_2014-06-25_20-00-40_260595134347_rgbf000049-resize_0-target.png,1000,4.105,5,3569,1030,feet,jsons/v1_VE1000_randls_47_rotated.json,1344783,1760523,42,Woman
155,771771,DepthScenes,duration_manipulation_targetAtFixation,jsons/v1_VE1000_randls_47_rotated.json,http://54.235.29.9/FacialAge/BNav_EC2/DepthDuration/v2_depth_duration_MTurk/v2_DepthDuration_HTML.html#66,66,1366,625,1366,768,8-22-2022,13-5-37,156,depth_duration_stimuli/002039_2014-06-24_20-22-38_260595134347_rgbf000084-resize_1/002039_2014-06-24_20-22-38_260595134347_rgbf000084-resize_1-target.png,1000,4.408,5,5128,995,feet,jsons/v1_VE1000_randls_47_rotated.json,1344783,1760523,42,Woman
156,771771,DepthScenes,duration_manipulation_targetAtFixation,jsons/v1_VE1000_randls_47_rotated.json,http://54.235.29.9/FacialAge/BNav_EC2/DepthDuration/v2_depth_duration_MTurk/v2_DepthDuration_HTML.html#66,66,1366,625,1366,768,8-22-2022,13-5-37,157,depth_duration_stimuli/000137_2014-05-20_17-04-49_260595134347_rgbf000120-resize_1/000137_2014-05-20_17-04-49_260595134347_rgbf000120-resize_1-target.png,1000,3.786,5,5066,974,feet,jsons/v1_VE1000_randls_47_rotated.json,1344783,1760523,42,Woman
157,771771,DepthScenes,duration_manipulation_targetAtFixation,jsons/v1_VE1000_randls_47_rotated.json,http://54.235.29.9/FacialAge/BNav_EC2/DepthDuration/v2_depth_duration_MTurk/v2_DepthDuration_HTML.html#66,66,1366,625,1366,768,8-22-2022,13-5-37,158,depth_duration_stimuli/000736_2014-06-08_18-24-15_260595134347_rgbf000206-resize_3/000736_2014-06-08_18-24-15_260595134347_rgbf000206-resize_3-target.png,1000,3.515,7,4745,950,feet,jsons/v1_VE1000_randls_47_rotated.json,1344783,1760523,42,Woman
158,771771,DepthScenes,duration_manipulation_targetAtFixation,jsons/v1_VE1000_randls_47_rotated.json,http://54.235.29.9/FacialAge/BNav_EC2/DepthDuration/v2_depth_duration_MTurk/v2_DepthDuration_HTML.html#66,66,1366,625,1366,768,8-22-2022,13-5-37,159,depth_duration_stimuli/002444_2014-06-28_20-32-08_260595134347_rgbf000027-resize_0/002444_2014-06-28_20-32-08_260595134347_rgbf000027-resize_0-target.png,1000,4.388999999999999,5,3527,848,feet,jsons/v1_VE1000_randls_47_rotated.json,1344783,1760523,42,Woman
159,771771,DepthScenes,duration_manipulation_targetAtFixation,jsons/v1_VE1000_randls_47_rotated.json,http://54.235.29.9/FacialAge/BNav_EC2/DepthDuration/v2_depth_duration_MTurk/v2_DepthDuration_HTML.html#66,66,1366,625,1366,768,8-22-2022,13-5-37,160,depth_duration_stimuli/000436_2014-06-09_22-25-11_260595134347_rgbf000137-resize_1/000436_2014-06-09_22-25-11_260595134347_rgbf000137-resize_1-target.png,1000,4.0705,5,4445,944,feet,jsons/v1_VE1000_randls_47_rotated.json,1344783,1760523,42,Woman
160,771771,DepthScenes,duration_manipulation_targetAtFixation,jsons/v1_VE1000_randls_47_rotated.json,http://54.235.29.9/FacialAge/BNav_EC2/DepthDuration/v2_depth_duration_MTurk/v2_DepthDuration_HTML.html#66,66,1366,625,1366,768,8-22-2022,13-5-37,161,depth_duration_stimuli/002758_2014-06-22_19-11-20_094959634447_rgbf000128-resize_1/002758_2014-06-22_19-11-20_094959634447_rgbf000128-resize_1-target.png,1000,2.555,5,5527,998,feet,jsons/v1_VE1000_randls_47_rotated.json,1344783,1760523,42,Woman
161,771771,DepthScenes,duration_manipulation_targetAtFixation,jsons/v1_VE1000_randls_47_rotated.json,http://54.235.29.9/FacialAge/BNav_EC2/DepthDuration/v2_depth_duration_MTurk/v2_DepthDuration_HTML.html#66,66,1366,625,1366,768,8-22-2022,13-5-37,162,depth_duration_stimuli/002630_2014-06-24_14-47-50_094959634447_rgbf000055-resize_1/002630_2014-06-24_14-47-50_094959634447_rgbf000055-resize_1-target.png,1000,3.0095,6,4883,999,feet,jsons/v1_VE1000_randls_47_rotated.json,1344783,1760523,42,Woman
162,771771,DepthScenes,duration_manipulation_targetAtFixation,jsons/v1_VE1000_randls_47_rotated.json,http://54.235.29.9/FacialAge/BNav_EC2/DepthDuration/v2_depth_duration_MTurk/v2_DepthDuration_HTML.html#66,66,1366,625,1366,768,8-22-2022,13-5-37,163,depth_duration_stimuli/000943_2014-06-09_19-31-07_260595134347_rgbf000128-resize_1/000943_2014-06-09_19-31-07_260595134347_rgbf000128-resize_1-target.png,1000,1.9765,6,4023,922,feet,jsons/v1_VE1000_randls_47_rotated.json,1344783,1760523,42,Woman
163,771771,DepthScenes,duration_manipulation_targetAtFixation,jsons/v1_VE1000_randls_47_rotated.json,http://54.235.29.9/FacialAge/BNav_EC2/DepthDuration/v2_depth_duration_MTurk/v2_DepthDuration_HTML.html#66,66,1366,625,1366,768,8-22-2022,13-5-37,164,depth_duration_stimuli/003070_2014-06-15_14-58-27_094959634447_rgbf000150-resize_3/003070_2014-06-15_14-58-27_094959634447_rgbf000150-resize_3-target.png,1000,2.9415,3,4460,916,feet,jsons/v1_VE1000_randls_47_rotated.json,1344783,1760523,42,Woman
