,subjID,experimentName,versionName,sequenceName,url,selected_row,windowWidth,windowHeight,screenWidth,screenHeight,startDate,startTime,trial,stimulus,duration,actual_depth,depth_estimate,trial_RT,log_sceneDuration,unitSelection,seq_filepath,experimentTime,totalTime,age,gender
0,772859,DepthScenes,duration_manipulation_targetAtFixation,jsons/v1_VE250_randls_24.json,http://54.235.29.9/FacialAge/BNav_EC2/DepthDuration/v2_depth_duration_MTurk/v2_DepthDuration_HTML.html#71,71,1887,940,1920,1080,8-20-2022,10-56-22,1,depth_duration_stimuli/002153_2014-06-25_21-27-18_260595134347_rgbf000038-resize_5/002153_2014-06-25_21-27-18_260595134347_rgbf000038-resize_5-target.png,250,2.505,4,3261,257,feet,jsons/v1_VE250_randls_24.json,661837,764098,28,Man
1,772859,DepthScenes,duration_manipulation_targetAtFixation,jsons/v1_VE250_randls_24.json,http://54.235.29.9/FacialAge/BNav_EC2/DepthDuration/v2_depth_duration_MTurk/v2_DepthDuration_HTML.html#71,71,1887,940,1920,1080,8-20-2022,10-56-22,2,depth_duration_stimuli/002660_2014-06-13_15-44-18_094959634447_rgbf001878-resize_2/002660_2014-06-13_15-44-18_094959634447_rgbf001878-resize_2-target.png,250,3.576,0,2528,242,feet,jsons/v1_VE250_randls_24.json,661837,764098,28,Man
2,772859,DepthScenes,duration_manipulation_targetAtFixation,jsons/v1_VE250_randls_24.json,http://54.235.29.9/FacialAge/BNav_EC2/DepthDuration/v2_depth_duration_MTurk/v2_DepthDuration_HTML.html#71,71,1887,940,1920,1080,8-20-2022,10-56-22,3,depth_duration_stimuli/002763_2014-06-22_19-13-10_094959634447_rgbf000075-resize_4/002763_2014-06-22_19-13-10_094959634447_rgbf000075-resize_4-target.png,250,1.68375,5,5101,249,feet,jsons/v1_VE250_randls_24.json,661837,764098,28,Man
3,772859,DepthScenes,duration_manipulation_targetAtFixation,jsons/v1_VE250_randls_24.json,http://54.235.29.9/FacialAge/BNav_EC2/DepthDuration/v2_depth_duration_MTurk/v2_DepthDuration_HTML.html#71,71,1887,940,1920,1080,8-20-2022,10-56-22,4,depth_duration_stimuli/002209_2014-06-28_18-36-10_260595134347_rgbf000051-resize_1/002209_2014-06-28_18-36-10_260595134347_rgbf000051-resize_1-target.png,250,2.057,4,3721,249,feet,jsons/v1_VE250_randls_24.json,661837,764098,28,Man
4,772859,DepthScenes,duration_manipulation_targetAtFixation,jsons/v1_VE250_randls_24.json,http://54.235.29.9/FacialAge/BNav_EC2/DepthDuration/v2_depth_duration_MTurk/v2_DepthDuration_HTML.html#71,71,1887,940,1920,1080,8-20-2022,10-56-22,5,depth_duration_stimuli/002748_2014-06-22_19-07-22_094959634447_rgbf000078-resize_1/002748_2014-06-22_19-07-22_094959634447_rgbf000078-resize_1-target.png,250,4.6705,9,4473,246,feet,jsons/v1_VE250_randls_24.json,661837,764098,28,Man
5,772859,DepthScenes,duration_manipulation_targetAtFixation,jsons/v1_VE250_randls_24.json,http://54.235.29.9/FacialAge/BNav_EC2/DepthDuration/v2_depth_duration_MTurk/v2_DepthDuration_HTML.html#71,71,1887,940,1920,1080,8-20-2022,10-56-22,6,depth_duration_stimuli/002995_2014-06-15_12-31-26_094959634447_rgbf000150-resize_1/002995_2014-06-15_12-31-26_094959634447_rgbf000150-resize_1-target.png,250,3.8360000000000003,10,2667,238,feet,jsons/v1_VE250_randls_24.json,661837,764098,28,Man
6,772859,DepthScenes,duration_manipulation_targetAtFixation,jsons/v1_VE250_randls_24.json,http://54.235.29.9/FacialAge/BNav_EC2/DepthDuration/v2_depth_duration_MTurk/v2_DepthDuration_HTML.html#71,71,1887,940,1920,1080,8-20-2022,10-56-22,7,depth_duration_stimuli/002989_2014-06-15_12-25-03_094959634447_rgbf000150-resize_3/002989_2014-06-15_12-25-03_094959634447_rgbf000150-resize_3-target.png,250,4.1975,10,2230,250,feet,jsons/v1_VE250_randls_24.json,661837,764098,28,Man
7,772859,DepthScenes,duration_manipulation_targetAtFixation,jsons/v1_VE250_randls_24.json,http://54.235.29.9/FacialAge/BNav_EC2/DepthDuration/v2_depth_duration_MTurk/v2_DepthDuration_HTML.html#71,71,1887,940,1920,1080,8-20-2022,10-56-22,8,depth_duration_stimuli/000866_2014-06-09_20-45-42_260595134347_rgbf000139-resize_1/000866_2014-06-09_20-45-42_260595134347_rgbf000139-resize_1-target.png,250,3.2155,5,2939,237,feet,jsons/v1_VE250_randls_24.json,661837,764098,28,Man
8,772859,DepthScenes,duration_manipulation_targetAtFixation,jsons/v1_VE250_randls_24.json,http://54.235.29.9/FacialAge/BNav_EC2/DepthDuration/v2_depth_duration_MTurk/v2_DepthDuration_HTML.html#71,71,1887,940,1920,1080,8-20-2022,10-56-22,9,depth_duration_stimuli/000788_2014-06-08_22-34-36_260595134347_rgbf000131-resize_1/000788_2014-06-08_22-34-36_260595134347_rgbf000131-resize_1-target.png,250,3.359,5,3729,251,feet,jsons/v1_VE250_randls_24.json,661837,764098,28,Man
9,772859,DepthScenes,duration_manipulation_targetAtFixation,jsons/v1_VE250_randls_24.json,http://54.235.29.9/FacialAge/BNav_EC2/DepthDuration/v2_depth_duration_MTurk/v2_DepthDuration_HTML.html#71,71,1887,940,1920,1080,8-20-2022,10-56-22,10,depth_duration_stimuli/001235_2014-06-17_16-37-36_260595134347_rgbf000084-resize_4/001235_2014-06-17_16-37-36_260595134347_rgbf000084-resize_4-target.png,250,3.6605,5,2755,248,feet,jsons/v1_VE250_randls_24.json,661837,764098,28,Man
10,772859,DepthScenes,duration_manipulation_targetAtFixation,jsons/v1_VE250_randls_24.json,http://54.235.29.9/FacialAge/BNav_EC2/DepthDuration/v2_depth_duration_MTurk/v2_DepthDuration_HTML.html#71,71,1887,940,1920,1080,8-20-2022,10-56-22,11,depth_duration_stimuli/003070_2014-06-15_14-58-27_094959634447_rgbf000150-resize_3/003070_2014-06-15_14-58-27_094959634447_rgbf000150-resize_3-target.png,250,2.9415,5,2621,246,feet,jsons/v1_VE250_randls_24.json,661837,764098,28,Man
11,772859,DepthScenes,duration_manipulation_targetAtFixation,jsons/v1_VE250_randls_24.json,http://54.235.29.9/FacialAge/BNav_EC2/DepthDuration/v2_depth_duration_MTurk/v2_DepthDuration_HTML.html#71,71,1887,940,1920,1080,8-20-2022,10-56-22,12,depth_duration_stimuli/000943_2014-06-09_19-31-07_260595134347_rgbf000128-resize_1/000943_2014-06-09_19-31-07_260595134347_rgbf000128-resize_1-target.png,250,1.9765,4,2264,235,feet,jsons/v1_VE250_randls_24.json,661837,764098,28,Man
12,772859,DepthScenes,duration_manipulation_targetAtFixation,jsons/v1_VE250_randls_24.json,http://54.235.29.9/FacialAge/BNav_EC2/DepthDuration/v2_depth_duration_MTurk/v2_DepthDuration_HTML.html#71,71,1887,940,1920,1080,8-20-2022,10-56-22,13,depth_duration_stimuli/000569_2014-06-09_22-51-47_260595134347_rgbf000141-resize_3/000569_2014-06-09_22-51-47_260595134347_rgbf000141-resize-original.jpg,250,4.512,0,2276,247,feet,jsons/v1_VE250_randls_24.json,661837,764098,28,Man
13,772859,DepthScenes,duration_manipulation_targetAtFixation,jsons/v1_VE250_randls_24.json,http://54.235.29.9/FacialAge/BNav_EC2/DepthDuration/v2_depth_duration_MTurk/v2_DepthDuration_HTML.html#71,71,1887,940,1920,1080,8-20-2022,10-56-22,14,depth_duration_stimuli/000469_2014-06-09_19-42-10_260595134347_rgbf000081-resize_1/000469_2014-06-09_19-42-10_260595134347_rgbf000081-resize_1-target.png,250,1.652,3,3522,252,feet,jsons/v1_VE250_randls_24.json,661837,764098,28,Man
14,772859,DepthScenes,duration_manipulation_targetAtFixation,jsons/v1_VE250_randls_24.json,http://54.235.29.9/FacialAge/BNav_EC2/DepthDuration/v2_depth_duration_MTurk/v2_DepthDuration_HTML.html#71,71,1887,940,1920,1080,8-20-2022,10-56-22,15,depth_duration_stimuli/000483_2014-06-09_20-41-45_260595134347_rgbf000116-resize_4/000483_2014-06-09_20-41-45_260595134347_rgbf000116-resize_4-target.png,250,1.337,2,2127,261,feet,jsons/v1_VE250_randls_24.json,661837,764098,28,Man
15,772859,DepthScenes,duration_manipulation_targetAtFixation,jsons/v1_VE250_randls_24.json,http://54.235.29.9/FacialAge/BNav_EC2/DepthDuration/v2_depth_duration_MTurk/v2_DepthDuration_HTML.html#71,71,1887,940,1920,1080,8-20-2022,10-56-22,16,depth_duration_stimuli/000810_2014-06-08_17-20-01_260595134347_rgbf000105-resize_0/000810_2014-06-08_17-20-01_260595134347_rgbf000105-resize_0-target.png,250,1.4865,2,2087,246,feet,jsons/v1_VE250_randls_24.json,661837,764098,28,Man
16,772859,DepthScenes,duration_manipulation_targetAtFixation,jsons/v1_VE250_randls_24.json,http://54.235.29.9/FacialAge/BNav_EC2/DepthDuration/v2_depth_duration_MTurk/v2_DepthDuration_HTML.html#71,71,1887,940,1920,1080,8-20-2022,10-56-22,17,depth_duration_stimuli/001214_2014-06-17_16-13-55_260595134347_rgbf000111-resize_0/001214_2014-06-17_16-13-55_260595134347_rgbf000111-resize_0-target.png,250,2.6505,4,2614,246,feet,jsons/v1_VE250_randls_24.json,661837,764098,28,Man
17,772859,DepthScenes,duration_manipulation_targetAtFixation,jsons/v1_VE250_randls_24.json,http://54.235.29.9/FacialAge/BNav_EC2/DepthDuration/v2_depth_duration_MTurk/v2_DepthDuration_HTML.html#71,71,1887,940,1920,1080,8-20-2022,10-56-22,18,depth_duration_stimuli/000917_2014-06-09_22-45-29_260595134347_rgbf000149-resize_3/000917_2014-06-09_22-45-29_260595134347_rgbf000149-resize_3-target.png,250,4.1865,8,2579,264,feet,jsons/v1_VE250_randls_24.json,661837,764098,28,Man
18,772859,DepthScenes,duration_manipulation_targetAtFixation,jsons/v1_VE250_randls_24.json,http://54.235.29.9/FacialAge/BNav_EC2/DepthDuration/v2_depth_duration_MTurk/v2_DepthDuration_HTML.html#71,71,1887,940,1920,1080,8-20-2022,10-56-22,19,depth_duration_stimuli/002323_2014-06-28_20-01-54_260595134347_rgbf000051-resize_4/002323_2014-06-28_20-01-54_260595134347_rgbf000051-resize_4-target.png,250,3.7310000000000003,8,3015,245,feet,jsons/v1_VE250_randls_24.json,661837,764098,28,Man
19,772859,DepthScenes,duration_manipulation_targetAtFixation,jsons/v1_VE250_randls_24.json,http://54.235.29.9/FacialAge/BNav_EC2/DepthDuration/v2_depth_duration_MTurk/v2_DepthDuration_HTML.html#71,71,1887,940,1920,1080,8-20-2022,10-56-22,20,depth_duration_stimuli/001806_2014-06-26_20-50-20_260595134347_rgbf000091-resize_1/001806_2014-06-26_20-50-20_260595134347_rgbf000091-resize_1-target.png,250,2.7305,3,2434,249,feet,jsons/v1_VE250_randls_24.json,661837,764098,28,Man
20,772859,DepthScenes,duration_manipulation_targetAtFixation,jsons/v1_VE250_randls_24.json,http://54.235.29.9/FacialAge/BNav_EC2/DepthDuration/v2_depth_duration_MTurk/v2_DepthDuration_HTML.html#71,71,1887,940,1920,1080,8-20-2022,10-56-22,21,depth_duration_stimuli/001617_2014-06-20_11-35-32_260595134347_rgbf000066-resize_1/001617_2014-06-20_11-35-32_260595134347_rgbf000066-resize_1-target.png,250,3.7910000000000004,8,3237,246,feet,jsons/v1_VE250_randls_24.json,661837,764098,28,Man
21,772859,DepthScenes,duration_manipulation_targetAtFixation,jsons/v1_VE250_randls_24.json,http://54.235.29.9/FacialAge/BNav_EC2/DepthDuration/v2_depth_duration_MTurk/v2_DepthDuration_HTML.html#71,71,1887,940,1920,1080,8-20-2022,10-56-22,22,depth_duration_stimuli/002725_2014-06-22_11-47-51_094959634447_rgbf000070-resize_1/002725_2014-06-22_11-47-51_094959634447_rgbf000070-resize_1-target.png,250,2.195,6,2421,247,feet,jsons/v1_VE250_randls_24.json,661837,764098,28,Man
22,772859,DepthScenes,duration_manipulation_targetAtFixation,jsons/v1_VE250_randls_24.json,http://54.235.29.9/FacialAge/BNav_EC2/DepthDuration/v2_depth_duration_MTurk/v2_DepthDuration_HTML.html#71,71,1887,940,1920,1080,8-20-2022,10-56-22,23,depth_duration_stimuli/002344_2014-06-28_20-06-29_260595134347_rgbf000030-resize_1/002344_2014-06-28_20-06-29_260595134347_rgbf000030-resize_1-target.png,250,1.5795,1,1922,249,feet,jsons/v1_VE250_randls_24.json,661837,764098,28,Man
23,772859,DepthScenes,duration_manipulation_targetAtFixation,jsons/v1_VE250_randls_24.json,http://54.235.29.9/FacialAge/BNav_EC2/DepthDuration/v2_depth_duration_MTurk/v2_DepthDuration_HTML.html#71,71,1887,940,1920,1080,8-20-2022,10-56-22,24,depth_duration_stimuli/002570_2014-06-24_13-59-54_094959634447_rgbf000059-resize_0/002570_2014-06-24_13-59-54_094959634447_rgbf000059-resize_0-target.png,250,4.037,3,3222,248,feet,jsons/v1_VE250_randls_24.json,661837,764098,28,Man
24,772859,DepthScenes,duration_manipulation_targetAtFixation,jsons/v1_VE250_randls_24.json,http://54.235.29.9/FacialAge/BNav_EC2/DepthDuration/v2_depth_duration_MTurk/v2_DepthDuration_HTML.html#71,71,1887,940,1920,1080,8-20-2022,10-56-22,25,depth_duration_stimuli/002467_2014-06-28_20-38-07_260595134347_rgbf000026-resize_2/002467_2014-06-28_20-38-07_260595134347_rgbf000026-resize_2-target.png,250,4.742,8,2783,248,feet,jsons/v1_VE250_randls_24.json,661837,764098,28,Man
25,772859,DepthScenes,duration_manipulation_targetAtFixation,jsons/v1_VE250_randls_24.json,http://54.235.29.9/FacialAge/BNav_EC2/DepthDuration/v2_depth_duration_MTurk/v2_DepthDuration_HTML.html#71,71,1887,940,1920,1080,8-20-2022,10-56-22,26,depth_duration_stimuli/000878_2014-06-08_22-52-45_260595134347_rgbf000045-resize_2/000878_2014-06-08_22-52-45_260595134347_rgbf000045-resize_2-target.png,250,2.092,3,3035,246,feet,jsons/v1_VE250_randls_24.json,661837,764098,28,Man
26,772859,DepthScenes,duration_manipulation_targetAtFixation,jsons/v1_VE250_randls_24.json,http://54.235.29.9/FacialAge/BNav_EC2/DepthDuration/v2_depth_duration_MTurk/v2_DepthDuration_HTML.html#71,71,1887,940,1920,1080,8-20-2022,10-56-22,27,depth_duration_stimuli/002953_2014-06-08_17-32-18_094959634447_rgbf000059-resize_5/002953_2014-06-08_17-32-18_094959634447_rgbf000059-resize_5-target.png,250,1.551,2,2233,248,feet,jsons/v1_VE250_randls_24.json,661837,764098,28,Man
27,772859,DepthScenes,duration_manipulation_targetAtFixation,jsons/v1_VE250_randls_24.json,http://54.235.29.9/FacialAge/BNav_EC2/DepthDuration/v2_depth_duration_MTurk/v2_DepthDuration_HTML.html#71,71,1887,940,1920,1080,8-20-2022,10-56-22,28,depth_duration_stimuli/002964_2014-06-08_17-46-11_094959634447_rgbf000091-resize_4/002964_2014-06-08_17-46-11_094959634447_rgbf000091-resize_4-target.png,250,1.6909999999999998,2,5260,250,feet,jsons/v1_VE250_randls_24.json,661837,764098,28,Man
28,772859,DepthScenes,duration_manipulation_targetAtFixation,jsons/v1_VE250_randls_24.json,http://54.235.29.9/FacialAge/BNav_EC2/DepthDuration/v2_depth_duration_MTurk/v2_DepthDuration_HTML.html#71,71,1887,940,1920,1080,8-20-2022,10-56-22,29,depth_duration_stimuli/002136_2014-06-25_21-18-03_260595134347_rgbf000109-resize_3/002136_2014-06-25_21-18-03_260595134347_rgbf000109-resize_3-target.png,250,1.9569999999999999,2,1896,236,feet,jsons/v1_VE250_randls_24.json,661837,764098,28,Man
29,772859,DepthScenes,duration_manipulation_targetAtFixation,jsons/v1_VE250_randls_24.json,http://54.235.29.9/FacialAge/BNav_EC2/DepthDuration/v2_depth_duration_MTurk/v2_DepthDuration_HTML.html#71,71,1887,940,1920,1080,8-20-2022,10-56-22,30,depth_duration_stimuli/000375_2014-06-08_11-17-29_260595134347_rgbf000133-resize_2/000375_2014-06-08_11-17-29_260595134347_rgbf000133-resize-original.jpg,250,4.718,0,1912,252,feet,jsons/v1_VE250_randls_24.json,661837,764098,28,Man
30,772859,DepthScenes,duration_manipulation_targetAtFixation,jsons/v1_VE250_randls_24.json,http://54.235.29.9/FacialAge/BNav_EC2/DepthDuration/v2_depth_duration_MTurk/v2_DepthDuration_HTML.html#71,71,1887,940,1920,1080,8-20-2022,10-56-22,31,depth_duration_stimuli/002549_2014-06-24_13-41-39_094959634447_rgbf000022-resize_3/002549_2014-06-24_13-41-39_094959634447_rgbf000022-resize_3-target.png,250,1.476,3,2165,247,feet,jsons/v1_VE250_randls_24.json,661837,764098,28,Man
31,772859,DepthScenes,duration_manipulation_targetAtFixation,jsons/v1_VE250_randls_24.json,http://54.235.29.9/FacialAge/BNav_EC2/DepthDuration/v2_depth_duration_MTurk/v2_DepthDuration_HTML.html#71,71,1887,940,1920,1080,8-20-2022,10-56-22,32,depth_duration_stimuli/002750_2014-06-22_19-08-03_094959634447_rgbf000094-resize_4/002750_2014-06-22_19-08-03_094959634447_rgbf000094-resize_4-target.png,250,2.354,3,1976,250,feet,jsons/v1_VE250_randls_24.json,661837,764098,28,Man
32,772859,DepthScenes,duration_manipulation_targetAtFixation,jsons/v1_VE250_randls_24.json,http://54.235.29.9/FacialAge/BNav_EC2/DepthDuration/v2_depth_duration_MTurk/v2_DepthDuration_HTML.html#71,71,1887,940,1920,1080,8-20-2022,10-56-22,33,depth_duration_stimuli/002630_2014-06-24_14-47-50_094959634447_rgbf000055-resize_1/002630_2014-06-24_14-47-50_094959634447_rgbf000055-resize_1-target.png,250,3.0095,5,2421,248,feet,jsons/v1_VE250_randls_24.json,661837,764098,28,Man
33,772859,DepthScenes,duration_manipulation_targetAtFixation,jsons/v1_VE250_randls_24.json,http://54.235.29.9/FacialAge/BNav_EC2/DepthDuration/v2_depth_duration_MTurk/v2_DepthDuration_HTML.html#71,71,1887,940,1920,1080,8-20-2022,10-56-22,34,depth_duration_stimuli/002758_2014-06-22_19-11-20_094959634447_rgbf000128-resize_1/002758_2014-06-22_19-11-20_094959634447_rgbf000128-resize_1-target.png,250,2.555,3,2620,263,feet,jsons/v1_VE250_randls_24.json,661837,764098,28,Man
34,772859,DepthScenes,duration_manipulation_targetAtFixation,jsons/v1_VE250_randls_24.json,http://54.235.29.9/FacialAge/BNav_EC2/DepthDuration/v2_depth_duration_MTurk/v2_DepthDuration_HTML.html#71,71,1887,940,1920,1080,8-20-2022,10-56-22,35,depth_duration_stimuli/000692_2014-06-08_13-09-42_260595134347_rgbf000199-resize_2/000692_2014-06-08_13-09-42_260595134347_rgbf000199-resize_2-target.png,250,3.661,5,4204,251,feet,jsons/v1_VE250_randls_24.json,661837,764098,28,Man
35,772859,DepthScenes,duration_manipulation_targetAtFixation,jsons/v1_VE250_randls_24.json,http://54.235.29.9/FacialAge/BNav_EC2/DepthDuration/v2_depth_duration_MTurk/v2_DepthDuration_HTML.html#71,71,1887,940,1920,1080,8-20-2022,10-56-22,36,depth_duration_stimuli/001094_2014-06-15_17-36-00_260595134347_rgbf000205-resize_0/001094_2014-06-15_17-36-00_260595134347_rgbf000205-resize_0-target.png,250,4.2175,5,2023,250,feet,jsons/v1_VE250_randls_24.json,661837,764098,28,Man
36,772859,DepthScenes,duration_manipulation_targetAtFixation,jsons/v1_VE250_randls_24.json,http://54.235.29.9/FacialAge/BNav_EC2/DepthDuration/v2_depth_duration_MTurk/v2_DepthDuration_HTML.html#71,71,1887,940,1920,1080,8-20-2022,10-56-22,37,depth_duration_stimuli/002279_2014-06-28_18-55-32_260595134347_rgbf000040-resize_5/002279_2014-06-28_18-55-32_260595134347_rgbf000040-resize_5-target.png,250,1.5043333333333,4,4055,247,feet,jsons/v1_VE250_randls_24.json,661837,764098,28,Man
37,772859,DepthScenes,duration_manipulation_targetAtFixation,jsons/v1_VE250_randls_24.json,http://54.235.29.9/FacialAge/BNav_EC2/DepthDuration/v2_depth_duration_MTurk/v2_DepthDuration_HTML.html#71,71,1887,940,1920,1080,8-20-2022,10-56-22,38,depth_duration_stimuli/000635_2014-06-08_16-38-42_260595134347_rgbf000106-resize_1/000635_2014-06-08_16-38-42_260595134347_rgbf000106-resize_1-target.png,250,2.074,4,3715,249,feet,jsons/v1_VE250_randls_24.json,661837,764098,28,Man
38,772859,DepthScenes,duration_manipulation_targetAtFixation,jsons/v1_VE250_randls_24.json,http://54.235.29.9/FacialAge/BNav_EC2/DepthDuration/v2_depth_duration_MTurk/v2_DepthDuration_HTML.html#71,71,1887,940,1920,1080,8-20-2022,10-56-22,39,depth_duration_stimuli/001244_2014-06-17_16-47-45_260595134347_rgbf000030-resize_4/001244_2014-06-17_16-47-45_260595134347_rgbf000030-resize_4-target.png,250,2.0425,3,3348,243,feet,jsons/v1_VE250_randls_24.json,661837,764098,28,Man
39,772859,DepthScenes,duration_manipulation_targetAtFixation,jsons/v1_VE250_randls_24.json,http://54.235.29.9/FacialAge/BNav_EC2/DepthDuration/v2_depth_duration_MTurk/v2_DepthDuration_HTML.html#71,71,1887,940,1920,1080,8-20-2022,10-56-22,40,depth_duration_stimuli/003495_2014-05-21_16-01-51_094959634447_rgbf000100-resize_3/003495_2014-05-21_16-01-51_094959634447_rgbf000100-resize_3-target.png,250,1.6255,2,2641,245,feet,jsons/v1_VE250_randls_24.json,661837,764098,28,Man
40,772859,DepthScenes,duration_manipulation_targetAtFixation,jsons/v1_VE250_randls_24.json,http://54.235.29.9/FacialAge/BNav_EC2/DepthDuration/v2_depth_duration_MTurk/v2_DepthDuration_HTML.html#71,71,1887,940,1920,1080,8-20-2022,10-56-22,41,depth_duration_stimuli/001199_2014-06-17_16-03-48_260595134347_rgbf000077-resize_0/001199_2014-06-17_16-03-48_260595134347_rgbf000077-resize_0-target.png,250,3.4375,8,2523,264,feet,jsons/v1_VE250_randls_24.json,661837,764098,28,Man
41,772859,DepthScenes,duration_manipulation_targetAtFixation,jsons/v1_VE250_randls_24.json,http://54.235.29.9/FacialAge/BNav_EC2/DepthDuration/v2_depth_duration_MTurk/v2_DepthDuration_HTML.html#71,71,1887,940,1920,1080,8-20-2022,10-56-22,42,depth_duration_stimuli/000502_2014-06-08_23-02-32_260595134347_rgbf000063-resize_4/000502_2014-06-08_23-02-32_260595134347_rgbf000063-resize_4-target.png,250,2.431,4,2775,261,feet,jsons/v1_VE250_randls_24.json,661837,764098,28,Man
42,772859,DepthScenes,duration_manipulation_targetAtFixation,jsons/v1_VE250_randls_24.json,http://54.235.29.9/FacialAge/BNav_EC2/DepthDuration/v2_depth_duration_MTurk/v2_DepthDuration_HTML.html#71,71,1887,940,1920,1080,8-20-2022,10-56-22,43,depth_duration_stimuli/001133_2014-06-17_14-49-16_260595134347_rgbf000100-resize_0/001133_2014-06-17_14-49-16_260595134347_rgbf000100-resize_0-target.png,250,4.2115,6,4077,247,feet,jsons/v1_VE250_randls_24.json,661837,764098,28,Man
43,772859,DepthScenes,duration_manipulation_targetAtFixation,jsons/v1_VE250_randls_24.json,http://54.235.29.9/FacialAge/BNav_EC2/DepthDuration/v2_depth_duration_MTurk/v2_DepthDuration_HTML.html#71,71,1887,940,1920,1080,8-20-2022,10-56-22,44,depth_duration_stimuli/001132_2014-06-17_14-48-54_260595134347_rgbf000100-resize_2/001132_2014-06-17_14-48-54_260595134347_rgbf000100-resize_2-target.png,250,3.753,7,2607,244,feet,jsons/v1_VE250_randls_24.json,661837,764098,28,Man
44,772859,DepthScenes,duration_manipulation_targetAtFixation,jsons/v1_VE250_randls_24.json,http://54.235.29.9/FacialAge/BNav_EC2/DepthDuration/v2_depth_duration_MTurk/v2_DepthDuration_HTML.html#71,71,1887,940,1920,1080,8-20-2022,10-56-22,45,depth_duration_stimuli/000787_2014-06-08_22-33-53_260595134347_rgbf000175-resize_1/000787_2014-06-08_22-33-53_260595134347_rgbf000175-resize-original.jpg,250,4.784,5,7430,260,feet,jsons/v1_VE250_randls_24.json,661837,764098,28,Man
45,772859,DepthScenes,duration_manipulation_targetAtFixation,jsons/v1_VE250_randls_24.json,http://54.235.29.9/FacialAge/BNav_EC2/DepthDuration/v2_depth_duration_MTurk/v2_DepthDuration_HTML.html#71,71,1887,940,1920,1080,8-20-2022,10-56-22,46,depth_duration_stimuli/000906_2014-06-08_13-35-43_260595134347_rgbf000155-resize_1/000906_2014-06-08_13-35-43_260595134347_rgbf000155-resize_1-target.png,250,2.8489999999999998,7,2812,249,feet,jsons/v1_VE250_randls_24.json,661837,764098,28,Man
46,772859,DepthScenes,duration_manipulation_targetAtFixation,jsons/v1_VE250_randls_24.json,http://54.235.29.9/FacialAge/BNav_EC2/DepthDuration/v2_depth_duration_MTurk/v2_DepthDuration_HTML.html#71,71,1887,940,1920,1080,8-20-2022,10-56-22,47,depth_duration_stimuli/002805_2014-06-22_19-54-03_094959634447_rgbf000079-resize_1/002805_2014-06-22_19-54-03_094959634447_rgbf000079-resize_1-target.png,250,3.1439999999999997,5,2367,245,feet,jsons/v1_VE250_randls_24.json,661837,764098,28,Man
47,772859,DepthScenes,duration_manipulation_targetAtFixation,jsons/v1_VE250_randls_24.json,http://54.235.29.9/FacialAge/BNav_EC2/DepthDuration/v2_depth_duration_MTurk/v2_DepthDuration_HTML.html#71,71,1887,940,1920,1080,8-20-2022,10-56-22,48,depth_duration_stimuli/001055_2014-06-08_18-45-35_260595134347_rgbf000111-resize_4/001055_2014-06-08_18-45-35_260595134347_rgbf000111-resize_4-target.png,250,2.4290000000000003,8,2360,250,feet,jsons/v1_VE250_randls_24.json,661837,764098,28,Man
48,772859,DepthScenes,duration_manipulation_targetAtFixation,jsons/v1_VE250_randls_24.json,http://54.235.29.9/FacialAge/BNav_EC2/DepthDuration/v2_depth_duration_MTurk/v2_DepthDuration_HTML.html#71,71,1887,940,1920,1080,8-20-2022,10-56-22,49,depth_duration_stimuli/000549_2014-06-08_22-10-24_260595134347_rgbf000247-resize_3/000549_2014-06-08_22-10-24_260595134347_rgbf000247-resize_3-target.png,250,1.841,3,2270,247,feet,jsons/v1_VE250_randls_24.json,661837,764098,28,Man
49,772859,DepthScenes,duration_manipulation_targetAtFixation,jsons/v1_VE250_randls_24.json,http://54.235.29.9/FacialAge/BNav_EC2/DepthDuration/v2_depth_duration_MTurk/v2_DepthDuration_HTML.html#71,71,1887,940,1920,1080,8-20-2022,10-56-22,50,depth_duration_stimuli/000682_2014-06-08_23-14-58_260595134347_rgbf000041-resize_5/000682_2014-06-08_23-14-58_260595134347_rgbf000041-resize_5-target.png,250,2.7239999999999998,3,2417,249,feet,jsons/v1_VE250_randls_24.json,661837,764098,28,Man
50,772859,DepthScenes,duration_manipulation_targetAtFixation,jsons/v1_VE250_randls_24.json,http://54.235.29.9/FacialAge/BNav_EC2/DepthDuration/v2_depth_duration_MTurk/v2_DepthDuration_HTML.html#71,71,1887,940,1920,1080,8-20-2022,10-56-22,51,depth_duration_stimuli/001650_2014-06-20_12-09-00_260595134347_rgbf000087-resize_3/001650_2014-06-20_12-09-00_260595134347_rgbf000087-resize_3-target.png,250,1.9505,2,3569,252,feet,jsons/v1_VE250_randls_24.json,661837,764098,28,Man
51,772859,DepthScenes,duration_manipulation_targetAtFixation,jsons/v1_VE250_randls_24.json,http://54.235.29.9/FacialAge/BNav_EC2/DepthDuration/v2_depth_duration_MTurk/v2_DepthDuration_HTML.html#71,71,1887,940,1920,1080,8-20-2022,10-56-22,52,depth_duration_stimuli/002988_2014-06-15_12-24-20_094959634447_rgbf000150-resize_1/002988_2014-06-15_12-24-20_094959634447_rgbf000150-resize_1-target.png,250,4.7669999999999995,8,2451,243,feet,jsons/v1_VE250_randls_24.json,661837,764098,28,Man
52,772859,DepthScenes,duration_manipulation_targetAtFixation,jsons/v1_VE250_randls_24.json,http://54.235.29.9/FacialAge/BNav_EC2/DepthDuration/v2_depth_duration_MTurk/v2_DepthDuration_HTML.html#71,71,1887,940,1920,1080,8-20-2022,10-56-22,53,depth_duration_stimuli/001052_2014-06-08_18-24-54_260595134347_rgbf000130-resize_1/001052_2014-06-08_18-24-54_260595134347_rgbf000130-resize_1-target.png,250,4.1045,6,2092,249,feet,jsons/v1_VE250_randls_24.json,661837,764098,28,Man
53,772859,DepthScenes,duration_manipulation_targetAtFixation,jsons/v1_VE250_randls_24.json,http://54.235.29.9/FacialAge/BNav_EC2/DepthDuration/v2_depth_duration_MTurk/v2_DepthDuration_HTML.html#71,71,1887,940,1920,1080,8-20-2022,10-56-22,54,depth_duration_stimuli/002039_2014-06-24_20-22-38_260595134347_rgbf000084-resize_1/002039_2014-06-24_20-22-38_260595134347_rgbf000084-resize_1-target.png,250,4.408,7,18636,251,feet,jsons/v1_VE250_randls_24.json,661837,764098,28,Man
54,772859,DepthScenes,duration_manipulation_targetAtFixation,jsons/v1_VE250_randls_24.json,http://54.235.29.9/FacialAge/BNav_EC2/DepthDuration/v2_depth_duration_MTurk/v2_DepthDuration_HTML.html#71,71,1887,940,1920,1080,8-20-2022,10-56-22,55,depth_duration_stimuli/002103_2014-06-25_20-00-40_260595134347_rgbf000049-resize_0/002103_2014-06-25_20-00-40_260595134347_rgbf000049-resize_0-target.png,250,4.105,6,2355,239,feet,jsons/v1_VE250_randls_24.json,661837,764098,28,Man
55,772859,DepthScenes,duration_manipulation_targetAtFixation,jsons/v1_VE250_randls_24.json,http://54.235.29.9/FacialAge/BNav_EC2/DepthDuration/v2_depth_duration_MTurk/v2_DepthDuration_HTML.html#71,71,1887,940,1920,1080,8-20-2022,10-56-22,56,depth_duration_stimuli/001164_2014-06-17_15-35-46_260595134347_rgbf000085-resize_3/001164_2014-06-17_15-35-46_260595134347_rgbf000085-resize_3-target.png,250,2.354,4,1978,247,feet,jsons/v1_VE250_randls_24.json,661837,764098,28,Man
56,772859,DepthScenes,duration_manipulation_targetAtFixation,jsons/v1_VE250_randls_24.json,http://54.235.29.9/FacialAge/BNav_EC2/DepthDuration/v2_depth_duration_MTurk/v2_DepthDuration_HTML.html#71,71,1887,940,1920,1080,8-20-2022,10-56-22,57,depth_duration_stimuli/001136_2014-06-17_15-19-41_260595134347_rgbf000076-resize_3/001136_2014-06-17_15-19-41_260595134347_rgbf000076-resize_3-target.png,250,1.8655,3,1891,252,feet,jsons/v1_VE250_randls_24.json,661837,764098,28,Man
57,772859,DepthScenes,duration_manipulation_targetAtFixation,jsons/v1_VE250_randls_24.json,http://54.235.29.9/FacialAge/BNav_EC2/DepthDuration/v2_depth_duration_MTurk/v2_DepthDuration_HTML.html#71,71,1887,940,1920,1080,8-20-2022,10-56-22,58,depth_duration_stimuli/001449_2014-06-19_17-01-27_260595134347_rgbf000116-resize_2/001449_2014-06-19_17-01-27_260595134347_rgbf000116-resize_2-target.png,250,3.452,5,2430,246,feet,jsons/v1_VE250_randls_24.json,661837,764098,28,Man
58,772859,DepthScenes,duration_manipulation_targetAtFixation,jsons/v1_VE250_randls_24.json,http://54.235.29.9/FacialAge/BNav_EC2/DepthDuration/v2_depth_duration_MTurk/v2_DepthDuration_HTML.html#71,71,1887,940,1920,1080,8-20-2022,10-56-22,59,depth_duration_stimuli/001450_2014-06-19_17-02-03_260595134347_rgbf000203-resize_4/001450_2014-06-19_17-02-03_260595134347_rgbf000203-resize_4-target.png,250,4.0106666666667,8,5534,250,feet,jsons/v1_VE250_randls_24.json,661837,764098,28,Man
59,772859,DepthScenes,duration_manipulation_targetAtFixation,jsons/v1_VE250_randls_24.json,http://54.235.29.9/FacialAge/BNav_EC2/DepthDuration/v2_depth_duration_MTurk/v2_DepthDuration_HTML.html#71,71,1887,940,1920,1080,8-20-2022,10-56-22,60,depth_duration_stimuli/002272_2014-06-28_18-53-56_260595134347_rgbf000067-resize_2/002272_2014-06-28_18-53-56_260595134347_rgbf000067-resize_2-target.png,250,1.138,2,2275,250,feet,jsons/v1_VE250_randls_24.json,661837,764098,28,Man
60,772859,DepthScenes,duration_manipulation_targetAtFixation,jsons/v1_VE250_randls_24.json,http://54.235.29.9/FacialAge/BNav_EC2/DepthDuration/v2_depth_duration_MTurk/v2_DepthDuration_HTML.html#71,71,1887,940,1920,1080,8-20-2022,10-56-22,61,depth_duration_stimuli/001571_2014-06-20_17-21-32_260595134347_rgbf000089-resize_1/001571_2014-06-20_17-21-32_260595134347_rgbf000089-resize_1-target.png,250,1.86,2,1928,248,feet,jsons/v1_VE250_randls_24.json,661837,764098,28,Man
61,772859,DepthScenes,duration_manipulation_targetAtFixation,jsons/v1_VE250_randls_24.json,http://54.235.29.9/FacialAge/BNav_EC2/DepthDuration/v2_depth_duration_MTurk/v2_DepthDuration_HTML.html#71,71,1887,940,1920,1080,8-20-2022,10-56-22,62,depth_duration_stimuli/000773_2014-06-08_22-24-54_260595134347_rgbf000093-resize_1/000773_2014-06-08_22-24-54_260595134347_rgbf000093-resize_1-target.png,250,4.973,7,3153,251,feet,jsons/v1_VE250_randls_24.json,661837,764098,28,Man
62,772859,DepthScenes,duration_manipulation_targetAtFixation,jsons/v1_VE250_randls_24.json,http://54.235.29.9/FacialAge/BNav_EC2/DepthDuration/v2_depth_duration_MTurk/v2_DepthDuration_HTML.html#71,71,1887,940,1920,1080,8-20-2022,10-56-22,63,depth_duration_stimuli/002414_2014-06-28_20-24-58_260595134347_rgbf000067-resize_4/002414_2014-06-28_20-24-58_260595134347_rgbf000067-resize_4-target.png,250,4.363,9,6822,249,feet,jsons/v1_VE250_randls_24.json,661837,764098,28,Man
63,772859,DepthScenes,duration_manipulation_targetAtFixation,jsons/v1_VE250_randls_24.json,http://54.235.29.9/FacialAge/BNav_EC2/DepthDuration/v2_depth_duration_MTurk/v2_DepthDuration_HTML.html#71,71,1887,940,1920,1080,8-20-2022,10-56-22,64,depth_duration_stimuli/001056_2014-06-08_18-46-44_260595134347_rgbf000068-resize_0/001056_2014-06-08_18-46-44_260595134347_rgbf000068-resize_0-target.png,250,2.6625,6,3634,249,feet,jsons/v1_VE250_randls_24.json,661837,764098,28,Man
64,772859,DepthScenes,duration_manipulation_targetAtFixation,jsons/v1_VE250_randls_24.json,http://54.235.29.9/FacialAge/BNav_EC2/DepthDuration/v2_depth_duration_MTurk/v2_DepthDuration_HTML.html#71,71,1887,940,1920,1080,8-20-2022,10-56-22,65,depth_duration_stimuli/002199_2014-06-28_18-33-56_260595134347_rgbf000074-resize_0/002199_2014-06-28_18-33-56_260595134347_rgbf000074-resize_0-target.png,250,1.996,3,3186,248,feet,jsons/v1_VE250_randls_24.json,661837,764098,28,Man
65,772859,DepthScenes,duration_manipulation_targetAtFixation,jsons/v1_VE250_randls_24.json,http://54.235.29.9/FacialAge/BNav_EC2/DepthDuration/v2_depth_duration_MTurk/v2_DepthDuration_HTML.html#71,71,1887,940,1920,1080,8-20-2022,10-56-22,66,depth_duration_stimuli/001222_2014-06-17_16-24-06_260595134347_rgbf000073-resize_0/001222_2014-06-17_16-24-06_260595134347_rgbf000073-resize-original.jpg,250,1.4385,0,1751,247,feet,jsons/v1_VE250_randls_24.json,661837,764098,28,Man
66,772859,DepthScenes,duration_manipulation_targetAtFixation,jsons/v1_VE250_randls_24.json,http://54.235.29.9/FacialAge/BNav_EC2/DepthDuration/v2_depth_duration_MTurk/v2_DepthDuration_HTML.html#71,71,1887,940,1920,1080,8-20-2022,10-56-22,67,depth_duration_stimuli/001029_2014-06-08_13-17-57_260595134347_rgbf000065-resize_1/001029_2014-06-08_13-17-57_260595134347_rgbf000065-resize_1-target.png,250,3.0835,3,4127,244,feet,jsons/v1_VE250_randls_24.json,661837,764098,28,Man
67,772859,DepthScenes,duration_manipulation_targetAtFixation,jsons/v1_VE250_randls_24.json,http://54.235.29.9/FacialAge/BNav_EC2/DepthDuration/v2_depth_duration_MTurk/v2_DepthDuration_HTML.html#71,71,1887,940,1920,1080,8-20-2022,10-56-22,68,depth_duration_stimuli/000677_2014-06-08_23-10-32_260595134347_rgbf000158-resize_6/000677_2014-06-08_23-10-32_260595134347_rgbf000158-resize_6-target.png,250,3.556,2,2438,246,feet,jsons/v1_VE250_randls_24.json,661837,764098,28,Man
68,772859,DepthScenes,duration_manipulation_targetAtFixation,jsons/v1_VE250_randls_24.json,http://54.235.29.9/FacialAge/BNav_EC2/DepthDuration/v2_depth_duration_MTurk/v2_DepthDuration_HTML.html#71,71,1887,940,1920,1080,8-20-2022,10-56-22,69,depth_duration_stimuli/000506_2014-06-08_23-21-00_260595134347_rgbf000070-resize_7/000506_2014-06-08_23-21-00_260595134347_rgbf000070-resize_7-target.png,250,4.0585,6,3189,245,feet,jsons/v1_VE250_randls_24.json,661837,764098,28,Man
69,772859,DepthScenes,duration_manipulation_targetAtFixation,jsons/v1_VE250_randls_24.json,http://54.235.29.9/FacialAge/BNav_EC2/DepthDuration/v2_depth_duration_MTurk/v2_DepthDuration_HTML.html#71,71,1887,940,1920,1080,8-20-2022,10-56-22,70,depth_duration_stimuli/003079_2014-06-15_15-18-20_094959634447_rgbf000152-resize_8/003079_2014-06-15_15-18-20_094959634447_rgbf000152-resize_8-target.png,250,2.8775,5,2148,247,feet,jsons/v1_VE250_randls_24.json,661837,764098,28,Man
70,772859,DepthScenes,duration_manipulation_targetAtFixation,jsons/v1_VE250_randls_24.json,http://54.235.29.9/FacialAge/BNav_EC2/DepthDuration/v2_depth_duration_MTurk/v2_DepthDuration_HTML.html#71,71,1887,940,1920,1080,8-20-2022,10-56-22,71,depth_duration_stimuli/002600_2014-06-24_14-27-04_094959634447_rgbf000074-resize_2/002600_2014-06-24_14-27-04_094959634447_rgbf000074-resize_2-target.png,250,2.7575,4,1907,251,feet,jsons/v1_VE250_randls_24.json,661837,764098,28,Man
71,772859,DepthScenes,duration_manipulation_targetAtFixation,jsons/v1_VE250_randls_24.json,http://54.235.29.9/FacialAge/BNav_EC2/DepthDuration/v2_depth_duration_MTurk/v2_DepthDuration_HTML.html#71,71,1887,940,1920,1080,8-20-2022,10-56-22,72,depth_duration_stimuli/003228_2014-05-14_13-42-35_094959634447_rgbf000101-resize_1/003228_2014-05-14_13-42-35_094959634447_rgbf000101-resize_1-target.png,250,1.9680000000000002,2,3860,250,feet,jsons/v1_VE250_randls_24.json,661837,764098,28,Man
72,772859,DepthScenes,duration_manipulation_targetAtFixation,jsons/v1_VE250_randls_24.json,http://54.235.29.9/FacialAge/BNav_EC2/DepthDuration/v2_depth_duration_MTurk/v2_DepthDuration_HTML.html#71,71,1887,940,1920,1080,8-20-2022,10-56-22,73,depth_duration_stimuli/001417_2014-06-19_16-25-36_260595134347_rgbf000115-resize_5/001417_2014-06-19_16-25-36_260595134347_rgbf000115-resize_5-target.png,250,4.6255,7,2950,249,feet,jsons/v1_VE250_randls_24.json,661837,764098,28,Man
73,772859,DepthScenes,duration_manipulation_targetAtFixation,jsons/v1_VE250_randls_24.json,http://54.235.29.9/FacialAge/BNav_EC2/DepthDuration/v2_depth_duration_MTurk/v2_DepthDuration_HTML.html#71,71,1887,940,1920,1080,8-20-2022,10-56-22,74,depth_duration_stimuli/003081_2014-06-15_15-19-16_094959634447_rgbf000150-resize_1/003081_2014-06-15_15-19-16_094959634447_rgbf000150-resize_1-target.png,250,3.9125,7,3970,251,feet,jsons/v1_VE250_randls_24.json,661837,764098,28,Man
74,772859,DepthScenes,duration_manipulation_targetAtFixation,jsons/v1_VE250_randls_24.json,http://54.235.29.9/FacialAge/BNav_EC2/DepthDuration/v2_depth_duration_MTurk/v2_DepthDuration_HTML.html#71,71,1887,940,1920,1080,8-20-2022,10-56-22,75,depth_duration_stimuli/003621_2014-05-23_18-06-08_094959634447_rgbf000101-resize_1/003621_2014-05-23_18-06-08_094959634447_rgbf000101-resize_1-target.png,250,3.9835,6,2730,247,feet,jsons/v1_VE250_randls_24.json,661837,764098,28,Man
75,772859,DepthScenes,duration_manipulation_targetAtFixation,jsons/v1_VE250_randls_24.json,http://54.235.29.9/FacialAge/BNav_EC2/DepthDuration/v2_depth_duration_MTurk/v2_DepthDuration_HTML.html#71,71,1887,940,1920,1080,8-20-2022,10-56-22,76,depth_duration_stimuli/001584_2014-06-20_11-07-43_260595134347_rgbf000002-resize_1/001584_2014-06-20_11-07-43_260595134347_rgbf000002-resize_1-target.png,250,3.53,6,3013,247,feet,jsons/v1_VE250_randls_24.json,661837,764098,28,Man
76,772859,DepthScenes,duration_manipulation_targetAtFixation,jsons/v1_VE250_randls_24.json,http://54.235.29.9/FacialAge/BNav_EC2/DepthDuration/v2_depth_duration_MTurk/v2_DepthDuration_HTML.html#71,71,1887,940,1920,1080,8-20-2022,10-56-22,77,depth_duration_stimuli/003492_2014-05-21_15-50-55_094959634447_rgbf000828-resize_1/003492_2014-05-21_15-50-55_094959634447_rgbf000828-resize_1-target.png,250,4.06875,11,3832,250,feet,jsons/v1_VE250_randls_24.json,661837,764098,28,Man
77,772859,DepthScenes,duration_manipulation_targetAtFixation,jsons/v1_VE250_randls_24.json,http://54.235.29.9/FacialAge/BNav_EC2/DepthDuration/v2_depth_duration_MTurk/v2_DepthDuration_HTML.html#71,71,1887,940,1920,1080,8-20-2022,10-56-22,78,depth_duration_stimuli/002568_2014-06-24_13-59-21_094959634447_rgbf000062-resize_4/002568_2014-06-24_13-59-21_094959634447_rgbf000062-resize_4-target.png,250,3.015,5,2185,250,feet,jsons/v1_VE250_randls_24.json,661837,764098,28,Man
78,772859,DepthScenes,duration_manipulation_targetAtFixation,jsons/v1_VE250_randls_24.json,http://54.235.29.9/FacialAge/BNav_EC2/DepthDuration/v2_depth_duration_MTurk/v2_DepthDuration_HTML.html#71,71,1887,940,1920,1080,8-20-2022,10-56-22,79,depth_duration_stimuli/002043_2014-06-24_20-29-38_260595134347_rgbf000039-resize_4/002043_2014-06-24_20-29-38_260595134347_rgbf000039-resize_4-target.png,250,2.8435,8,2076,248,feet,jsons/v1_VE250_randls_24.json,661837,764098,28,Man
79,772859,DepthScenes,duration_manipulation_targetAtFixation,jsons/v1_VE250_randls_24.json,http://54.235.29.9/FacialAge/BNav_EC2/DepthDuration/v2_depth_duration_MTurk/v2_DepthDuration_HTML.html#71,71,1887,940,1920,1080,8-20-2022,10-56-22,80,depth_duration_stimuli/003048_2014-06-15_13-49-43_094959634447_rgbf000150-resize_1/003048_2014-06-15_13-49-43_094959634447_rgbf000150-resize_1-target.png,250,4.0035,0,1844,246,feet,jsons/v1_VE250_randls_24.json,661837,764098,28,Man
80,772859,DepthScenes,duration_manipulation_targetAtFixation,jsons/v1_VE250_randls_24.json,http://54.235.29.9/FacialAge/BNav_EC2/DepthDuration/v2_depth_duration_MTurk/v2_DepthDuration_HTML.html#71,71,1887,940,1920,1080,8-20-2022,10-56-22,81,depth_duration_stimuli/000368_2014-06-09_15-53-01_260595134347_rgbf000155-resize_2/000368_2014-06-09_15-53-01_260595134347_rgbf000155-resize_2-target.png,250,2.4859999999999998,4,1904,252,feet,jsons/v1_VE250_randls_24.json,661837,764098,28,Man
81,772859,DepthScenes,duration_manipulation_targetAtFixation,jsons/v1_VE250_randls_24.json,http://54.235.29.9/FacialAge/BNav_EC2/DepthDuration/v2_depth_duration_MTurk/v2_DepthDuration_HTML.html#71,71,1887,940,1920,1080,8-20-2022,10-56-22,82,depth_duration_stimuli/002678_2014-06-13_16-15-32_094959634447_rgbf000151-resize_6/002678_2014-06-13_16-15-32_094959634447_rgbf000151-resize_6-target.png,250,2.1830000000000003,6,2383,246,feet,jsons/v1_VE250_randls_24.json,661837,764098,28,Man
82,772859,DepthScenes,duration_manipulation_targetAtFixation,jsons/v1_VE250_randls_24.json,http://54.235.29.9/FacialAge/BNav_EC2/DepthDuration/v2_depth_duration_MTurk/v2_DepthDuration_HTML.html#71,71,1887,940,1920,1080,8-20-2022,10-56-22,83,depth_duration_stimuli/002905_2014-06-03_18-04-43_094959634447_rgbf000151-resize_2/002905_2014-06-03_18-04-43_094959634447_rgbf000151-resize_2-target.png,250,2.0295,3,2104,253,feet,jsons/v1_VE250_randls_24.json,661837,764098,28,Man
83,772859,DepthScenes,duration_manipulation_targetAtFixation,jsons/v1_VE250_randls_24.json,http://54.235.29.9/FacialAge/BNav_EC2/DepthDuration/v2_depth_duration_MTurk/v2_DepthDuration_HTML.html#71,71,1887,940,1920,1080,8-20-2022,10-56-22,84,depth_duration_stimuli/003423_2014-05-21_10-23-26_094959634447_rgbf002665-resize_2/003423_2014-05-21_10-23-26_094959634447_rgbf002665-resize_2-target.png,250,3.2575,8,2274,250,feet,jsons/v1_VE250_randls_24.json,661837,764098,28,Man
84,772859,DepthScenes,duration_manipulation_targetAtFixation,jsons/v1_VE250_randls_24.json,http://54.235.29.9/FacialAge/BNav_EC2/DepthDuration/v2_depth_duration_MTurk/v2_DepthDuration_HTML.html#71,71,1887,940,1920,1080,8-20-2022,10-56-22,85,depth_duration_stimuli/002118_2014-06-25_20-32-08_260595134347_rgbf000078-resize_1/002118_2014-06-25_20-32-08_260595134347_rgbf000078-resize_1-target.png,250,2.6460000000000004,6,2427,249,feet,jsons/v1_VE250_randls_24.json,661837,764098,28,Man
85,772859,DepthScenes,duration_manipulation_targetAtFixation,jsons/v1_VE250_randls_24.json,http://54.235.29.9/FacialAge/BNav_EC2/DepthDuration/v2_depth_duration_MTurk/v2_DepthDuration_HTML.html#71,71,1887,940,1920,1080,8-20-2022,10-56-22,86,depth_duration_stimuli/001516_2014-06-20_16-25-09_260595134347_rgbf000076-resize_2/001516_2014-06-20_16-25-09_260595134347_rgbf000076-resize_2-target.png,250,1.7445,2,2491,262,feet,jsons/v1_VE250_randls_24.json,661837,764098,28,Man
86,772859,DepthScenes,duration_manipulation_targetAtFixation,jsons/v1_VE250_randls_24.json,http://54.235.29.9/FacialAge/BNav_EC2/DepthDuration/v2_depth_duration_MTurk/v2_DepthDuration_HTML.html#71,71,1887,940,1920,1080,8-20-2022,10-56-22,87,depth_duration_stimuli/001570_2014-06-20_17-21-09_260595134347_rgbf000135-resize_4/001570_2014-06-20_17-21-09_260595134347_rgbf000135-resize_4-target.png,250,4.467,12,4872,250,feet,jsons/v1_VE250_randls_24.json,661837,764098,28,Man
87,772859,DepthScenes,duration_manipulation_targetAtFixation,jsons/v1_VE250_randls_24.json,http://54.235.29.9/FacialAge/BNav_EC2/DepthDuration/v2_depth_duration_MTurk/v2_DepthDuration_HTML.html#71,71,1887,940,1920,1080,8-20-2022,10-56-22,88,depth_duration_stimuli/001392_2014-06-19_16-07-59_260595134347_rgbf000046-resize_1/001392_2014-06-19_16-07-59_260595134347_rgbf000046-resize_1-target.png,250,4.135,6,2743,251,feet,jsons/v1_VE250_randls_24.json,661837,764098,28,Man
88,772859,DepthScenes,duration_manipulation_targetAtFixation,jsons/v1_VE250_randls_24.json,http://54.235.29.9/FacialAge/BNav_EC2/DepthDuration/v2_depth_duration_MTurk/v2_DepthDuration_HTML.html#71,71,1887,940,1920,1080,8-20-2022,10-56-22,89,depth_duration_stimuli/000522_2014-06-08_13-35-06_260595134347_rgbf000244-resize_1/000522_2014-06-08_13-35-06_260595134347_rgbf000244-resize_1-target.png,250,2.3715,2,1735,249,feet,jsons/v1_VE250_randls_24.json,661837,764098,28,Man
89,772859,DepthScenes,duration_manipulation_targetAtFixation,jsons/v1_VE250_randls_24.json,http://54.235.29.9/FacialAge/BNav_EC2/DepthDuration/v2_depth_duration_MTurk/v2_DepthDuration_HTML.html#71,71,1887,940,1920,1080,8-20-2022,10-56-22,90,depth_duration_stimuli/002949_2014-06-26_15-57-42_094959634447_rgbf000079-resize_1/002949_2014-06-26_15-57-42_094959634447_rgbf000079-resize_1-target.png,250,1.8915,2,2040,262,feet,jsons/v1_VE250_randls_24.json,661837,764098,28,Man
90,772859,DepthScenes,duration_manipulation_targetAtFixation,jsons/v1_VE250_randls_24.json,http://54.235.29.9/FacialAge/BNav_EC2/DepthDuration/v2_depth_duration_MTurk/v2_DepthDuration_HTML.html#71,71,1887,940,1920,1080,8-20-2022,10-56-22,91,depth_duration_stimuli/000739_2014-06-08_18-45-58_260595134347_rgbf000068-resize_1/000739_2014-06-08_18-45-58_260595134347_rgbf000068-resize_1-target.png,250,3.534,7,2555,247,feet,jsons/v1_VE250_randls_24.json,661837,764098,28,Man
91,772859,DepthScenes,duration_manipulation_targetAtFixation,jsons/v1_VE250_randls_24.json,http://54.235.29.9/FacialAge/BNav_EC2/DepthDuration/v2_depth_duration_MTurk/v2_DepthDuration_HTML.html#71,71,1887,940,1920,1080,8-20-2022,10-56-22,92,depth_duration_stimuli/000734_2014-06-08_17-39-11_260595134347_rgbf000128-resize_2/000734_2014-06-08_17-39-11_260595134347_rgbf000128-resize_2-target.png,250,4.098,6,2112,251,feet,jsons/v1_VE250_randls_24.json,661837,764098,28,Man
92,772859,DepthScenes,duration_manipulation_targetAtFixation,jsons/v1_VE250_randls_24.json,http://54.235.29.9/FacialAge/BNav_EC2/DepthDuration/v2_depth_duration_MTurk/v2_DepthDuration_HTML.html#71,71,1887,940,1920,1080,8-20-2022,10-56-22,93,depth_duration_stimuli/001810_2014-06-26_20-51-35_260595134347_rgbf000040-resize_3/001810_2014-06-26_20-51-35_260595134347_rgbf000040-resize_3-target.png,250,2.2525,5,2167,248,feet,jsons/v1_VE250_randls_24.json,661837,764098,28,Man
93,772859,DepthScenes,duration_manipulation_targetAtFixation,jsons/v1_VE250_randls_24.json,http://54.235.29.9/FacialAge/BNav_EC2/DepthDuration/v2_depth_duration_MTurk/v2_DepthDuration_HTML.html#71,71,1887,940,1920,1080,8-20-2022,10-56-22,94,depth_duration_stimuli/003010_2014-06-15_12-54-35_094959634447_rgbf000112-resize_0/003010_2014-06-15_12-54-35_094959634447_rgbf000112-resize_0-target.png,250,3.1185,5,2175,244,feet,jsons/v1_VE250_randls_24.json,661837,764098,28,Man
94,772859,DepthScenes,duration_manipulation_targetAtFixation,jsons/v1_VE250_randls_24.json,http://54.235.29.9/FacialAge/BNav_EC2/DepthDuration/v2_depth_duration_MTurk/v2_DepthDuration_HTML.html#71,71,1887,940,1920,1080,8-20-2022,10-56-22,95,depth_duration_stimuli/000447_2014-06-08_16-15-46_260595134347_rgbf000130-resize_1/000447_2014-06-08_16-15-46_260595134347_rgbf000130-resize_1-target.png,250,4.479,6,2354,249,feet,jsons/v1_VE250_randls_24.json,661837,764098,28,Man
95,772859,DepthScenes,duration_manipulation_targetAtFixation,jsons/v1_VE250_randls_24.json,http://54.235.29.9/FacialAge/BNav_EC2/DepthDuration/v2_depth_duration_MTurk/v2_DepthDuration_HTML.html#71,71,1887,940,1920,1080,8-20-2022,10-56-22,96,depth_duration_stimuli/001447_2014-06-19_17-00-32_260595134347_rgbf000082-resize_5/001447_2014-06-19_17-00-32_260595134347_rgbf000082-resize_5-target.png,250,4.13775,5,5612,248,feet,jsons/v1_VE250_randls_24.json,661837,764098,28,Man
96,772859,DepthScenes,duration_manipulation_targetAtFixation,jsons/v1_VE250_randls_24.json,http://54.235.29.9/FacialAge/BNav_EC2/DepthDuration/v2_depth_duration_MTurk/v2_DepthDuration_HTML.html#71,71,1887,940,1920,1080,8-20-2022,10-56-22,97,depth_duration_stimuli/000642_2014-06-08_16-59-25_260595134347_rgbf000098-resize_2/000642_2014-06-08_16-59-25_260595134347_rgbf000098-resize_2-target.png,250,2.8815,5,2461,247,feet,jsons/v1_VE250_randls_24.json,661837,764098,28,Man
97,772859,DepthScenes,duration_manipulation_targetAtFixation,jsons/v1_VE250_randls_24.json,http://54.235.29.9/FacialAge/BNav_EC2/DepthDuration/v2_depth_duration_MTurk/v2_DepthDuration_HTML.html#71,71,1887,940,1920,1080,8-20-2022,10-56-22,98,depth_duration_stimuli/002425_2014-06-28_20-27-29_260595134347_rgbf000031-resize_8/002425_2014-06-28_20-27-29_260595134347_rgbf000031-resize_8-target.png,250,3.8960000000000004,7,1955,248,feet,jsons/v1_VE250_randls_24.json,661837,764098,28,Man
98,772859,DepthScenes,duration_manipulation_targetAtFixation,jsons/v1_VE250_randls_24.json,http://54.235.29.9/FacialAge/BNav_EC2/DepthDuration/v2_depth_duration_MTurk/v2_DepthDuration_HTML.html#71,71,1887,940,1920,1080,8-20-2022,10-56-22,99,depth_duration_stimuli/001540_2014-06-20_17-01-05_260595134347_rgbf000086-resize_2/001540_2014-06-20_17-01-05_260595134347_rgbf000086-resize-original.jpg,250,1.459,0,1779,244,feet,jsons/v1_VE250_randls_24.json,661837,764098,28,Man
99,772859,DepthScenes,duration_manipulation_targetAtFixation,jsons/v1_VE250_randls_24.json,http://54.235.29.9/FacialAge/BNav_EC2/DepthDuration/v2_depth_duration_MTurk/v2_DepthDuration_HTML.html#71,71,1887,940,1920,1080,8-20-2022,10-56-22,100,depth_duration_stimuli/000486_2014-06-09_20-47-20_260595134347_rgbf000143-resize_2/000486_2014-06-09_20-47-20_260595134347_rgbf000143-resize_2-target.png,250,4.8325,9,2064,249,feet,jsons/v1_VE250_randls_24.json,661837,764098,28,Man
100,772859,DepthScenes,duration_manipulation_targetAtFixation,jsons/v1_VE250_randls_24.json,http://54.235.29.9/FacialAge/BNav_EC2/DepthDuration/v2_depth_duration_MTurk/v2_DepthDuration_HTML.html#71,71,1887,940,1920,1080,8-20-2022,10-56-22,101,depth_duration_stimuli/003083_2014-06-15_15-21-03_094959634447_rgbf000063-resize_1/003083_2014-06-15_15-21-03_094959634447_rgbf000063-resize_1-target.png,250,4.1405,8,1881,245,feet,jsons/v1_VE250_randls_24.json,661837,764098,28,Man
101,772859,DepthScenes,duration_manipulation_targetAtFixation,jsons/v1_VE250_randls_24.json,http://54.235.29.9/FacialAge/BNav_EC2/DepthDuration/v2_depth_duration_MTurk/v2_DepthDuration_HTML.html#71,71,1887,940,1920,1080,8-20-2022,10-56-22,102,depth_duration_stimuli/001066_2014-06-08_22-03-20_260595134347_rgbf000066-resize_4/001066_2014-06-08_22-03-20_260595134347_rgbf000066-resize_4-target.png,250,4.2330000000000005,14,5110,251,feet,jsons/v1_VE250_randls_24.json,661837,764098,28,Man
102,772859,DepthScenes,duration_manipulation_targetAtFixation,jsons/v1_VE250_randls_24.json,http://54.235.29.9/FacialAge/BNav_EC2/DepthDuration/v2_depth_duration_MTurk/v2_DepthDuration_HTML.html#71,71,1887,940,1920,1080,8-20-2022,10-56-22,103,depth_duration_stimuli/000742_2014-06-08_18-48-09_260595134347_rgbf000164-resize_4/000742_2014-06-08_18-48-09_260595134347_rgbf000164-resize_4-target.png,250,4.632,8,2615,249,feet,jsons/v1_VE250_randls_24.json,661837,764098,28,Man
103,772859,DepthScenes,duration_manipulation_targetAtFixation,jsons/v1_VE250_randls_24.json,http://54.235.29.9/FacialAge/BNav_EC2/DepthDuration/v2_depth_duration_MTurk/v2_DepthDuration_HTML.html#71,71,1887,940,1920,1080,8-20-2022,10-56-22,104,depth_duration_stimuli/003534_2014-05-22_15-06-10_094959634447_rgbf000102-resize_4/003534_2014-05-22_15-06-10_094959634447_rgbf000102-resize_4-target.png,250,1.426,3,2097,252,feet,jsons/v1_VE250_randls_24.json,661837,764098,28,Man
104,772859,DepthScenes,duration_manipulation_targetAtFixation,jsons/v1_VE250_randls_24.json,http://54.235.29.9/FacialAge/BNav_EC2/DepthDuration/v2_depth_duration_MTurk/v2_DepthDuration_HTML.html#71,71,1887,940,1920,1080,8-20-2022,10-56-22,105,depth_duration_stimuli/002637_2014-06-24_14-51-13_094959634447_rgbf000066-resize_4/002637_2014-06-24_14-51-13_094959634447_rgbf000066-resize_4-target.png,250,1.9955,5,2265,249,feet,jsons/v1_VE250_randls_24.json,661837,764098,28,Man
105,772859,DepthScenes,duration_manipulation_targetAtFixation,jsons/v1_VE250_randls_24.json,http://54.235.29.9/FacialAge/BNav_EC2/DepthDuration/v2_depth_duration_MTurk/v2_DepthDuration_HTML.html#71,71,1887,940,1920,1080,8-20-2022,10-56-22,106,depth_duration_stimuli/000493_2014-06-09_21-01-18_260595134347_rgbf000196-resize_3/000493_2014-06-09_21-01-18_260595134347_rgbf000196-resize_3-target.png,250,3.44,6,3433,247,feet,jsons/v1_VE250_randls_24.json,661837,764098,28,Man
106,772859,DepthScenes,duration_manipulation_targetAtFixation,jsons/v1_VE250_randls_24.json,http://54.235.29.9/FacialAge/BNav_EC2/DepthDuration/v2_depth_duration_MTurk/v2_DepthDuration_HTML.html#71,71,1887,940,1920,1080,8-20-2022,10-56-22,107,depth_duration_stimuli/000191_2014-05-12_17-07-38_260595134347_rgbf000199-resize_0/000191_2014-05-12_17-07-38_260595134347_rgbf000199-resize_0-target.png,250,3.7995,8,2064,263,feet,jsons/v1_VE250_randls_24.json,661837,764098,28,Man
107,772859,DepthScenes,duration_manipulation_targetAtFixation,jsons/v1_VE250_randls_24.json,http://54.235.29.9/FacialAge/BNav_EC2/DepthDuration/v2_depth_duration_MTurk/v2_DepthDuration_HTML.html#71,71,1887,940,1920,1080,8-20-2022,10-56-22,108,depth_duration_stimuli/001092_2014-06-15_17-34-58_260595134347_rgbf000171-resize_3/001092_2014-06-15_17-34-58_260595134347_rgbf000171-resize_3-target.png,250,2.6935,8,4064,238,feet,jsons/v1_VE250_randls_24.json,661837,764098,28,Man
108,772859,DepthScenes,duration_manipulation_targetAtFixation,jsons/v1_VE250_randls_24.json,http://54.235.29.9/FacialAge/BNav_EC2/DepthDuration/v2_depth_duration_MTurk/v2_DepthDuration_HTML.html#71,71,1887,940,1920,1080,8-20-2022,10-56-22,109,depth_duration_stimuli/002545_2014-06-24_13-38-53_094959634447_rgbf000080-resize_4/002545_2014-06-24_13-38-53_094959634447_rgbf000080-resize_4-target.png,250,1.9205,6,2063,262,feet,jsons/v1_VE250_randls_24.json,661837,764098,28,Man
109,772859,DepthScenes,duration_manipulation_targetAtFixation,jsons/v1_VE250_randls_24.json,http://54.235.29.9/FacialAge/BNav_EC2/DepthDuration/v2_depth_duration_MTurk/v2_DepthDuration_HTML.html#71,71,1887,940,1920,1080,8-20-2022,10-56-22,110,depth_duration_stimuli/000009_2014-05-26_14-32-05_260595134347_rgbf000034-resize_3/000009_2014-05-26_14-32-05_260595134347_rgbf000034-resize_3-target.png,250,3.8715,13,3309,244,feet,jsons/v1_VE250_randls_24.json,661837,764098,28,Man
110,772859,DepthScenes,duration_manipulation_targetAtFixation,jsons/v1_VE250_randls_24.json,http://54.235.29.9/FacialAge/BNav_EC2/DepthDuration/v2_depth_duration_MTurk/v2_DepthDuration_HTML.html#71,71,1887,940,1920,1080,8-20-2022,10-56-22,111,depth_duration_stimuli/001828_2014-06-26_21-40-03_260595134347_rgbf000024-resize_0/001828_2014-06-26_21-40-03_260595134347_rgbf000024-resize_0-target.png,250,4.8260000000000005,8,2390,261,feet,jsons/v1_VE250_randls_24.json,661837,764098,28,Man
111,772859,DepthScenes,duration_manipulation_targetAtFixation,jsons/v1_VE250_randls_24.json,http://54.235.29.9/FacialAge/BNav_EC2/DepthDuration/v2_depth_duration_MTurk/v2_DepthDuration_HTML.html#71,71,1887,940,1920,1080,8-20-2022,10-56-22,112,depth_duration_stimuli/002509_2014-06-24_13-19-22_094959634447_rgbf000077-resize_0/002509_2014-06-24_13-19-22_094959634447_rgbf000077-resize_0-target.png,250,1.3065,3,2312,247,feet,jsons/v1_VE250_randls_24.json,661837,764098,28,Man
112,772859,DepthScenes,duration_manipulation_targetAtFixation,jsons/v1_VE250_randls_24.json,http://54.235.29.9/FacialAge/BNav_EC2/DepthDuration/v2_depth_duration_MTurk/v2_DepthDuration_HTML.html#71,71,1887,940,1920,1080,8-20-2022,10-56-22,113,depth_duration_stimuli/003338_2014-05-20_11-01-23_094959634447_rgbf000051-resize_6/003338_2014-05-20_11-01-23_094959634447_rgbf000051-resize_6-target.png,250,1.693,2,1915,252,feet,jsons/v1_VE250_randls_24.json,661837,764098,28,Man
113,772859,DepthScenes,duration_manipulation_targetAtFixation,jsons/v1_VE250_randls_24.json,http://54.235.29.9/FacialAge/BNav_EC2/DepthDuration/v2_depth_duration_MTurk/v2_DepthDuration_HTML.html#71,71,1887,940,1920,1080,8-20-2022,10-56-22,114,depth_duration_stimuli/001808_2014-06-26_20-50-58_260595134347_rgbf000029-resize_1/001808_2014-06-26_20-50-58_260595134347_rgbf000029-resize_1-target.png,250,4.249,10,3231,248,feet,jsons/v1_VE250_randls_24.json,661837,764098,28,Man
114,772859,DepthScenes,duration_manipulation_targetAtFixation,jsons/v1_VE250_randls_24.json,http://54.235.29.9/FacialAge/BNav_EC2/DepthDuration/v2_depth_duration_MTurk/v2_DepthDuration_HTML.html#71,71,1887,940,1920,1080,8-20-2022,10-56-22,115,depth_duration_stimuli/001815_2014-06-26_20-52-55_260595134347_rgbf000020-resize_0/001815_2014-06-26_20-52-55_260595134347_rgbf000020-resize_0-target.png,250,3.3865,9,1844,246,feet,jsons/v1_VE250_randls_24.json,661837,764098,28,Man
115,772859,DepthScenes,duration_manipulation_targetAtFixation,jsons/v1_VE250_randls_24.json,http://54.235.29.9/FacialAge/BNav_EC2/DepthDuration/v2_depth_duration_MTurk/v2_DepthDuration_HTML.html#71,71,1887,940,1920,1080,8-20-2022,10-56-22,116,depth_duration_stimuli/001170_2014-06-17_15-43-44_260595134347_rgbf000096-resize_6/001170_2014-06-17_15-43-44_260595134347_rgbf000096-resize-original.jpg,250,1.1909999999999998,0,2098,248,feet,jsons/v1_VE250_randls_24.json,661837,764098,28,Man
116,772859,DepthScenes,duration_manipulation_targetAtFixation,jsons/v1_VE250_randls_24.json,http://54.235.29.9/FacialAge/BNav_EC2/DepthDuration/v2_depth_duration_MTurk/v2_DepthDuration_HTML.html#71,71,1887,940,1920,1080,8-20-2022,10-56-22,117,depth_duration_stimuli/001016_2014-06-09_16-16-10_260595134347_rgbf000112-resize_5/001016_2014-06-09_16-16-10_260595134347_rgbf000112-resize_5-target.png,250,1.6565,4,2184,263,feet,jsons/v1_VE250_randls_24.json,661837,764098,28,Man
117,772859,DepthScenes,duration_manipulation_targetAtFixation,jsons/v1_VE250_randls_24.json,http://54.235.29.9/FacialAge/BNav_EC2/DepthDuration/v2_depth_duration_MTurk/v2_DepthDuration_HTML.html#71,71,1887,940,1920,1080,8-20-2022,10-56-22,118,depth_duration_stimuli/002340_2014-06-28_20-05-46_260595134347_rgbf000113-resize_0/002340_2014-06-28_20-05-46_260595134347_rgbf000113-resize_0-target.png,250,2.4735,7,2514,247,feet,jsons/v1_VE250_randls_24.json,661837,764098,28,Man
118,772859,DepthScenes,duration_manipulation_targetAtFixation,jsons/v1_VE250_randls_24.json,http://54.235.29.9/FacialAge/BNav_EC2/DepthDuration/v2_depth_duration_MTurk/v2_DepthDuration_HTML.html#71,71,1887,940,1920,1080,8-20-2022,10-56-22,119,depth_duration_stimuli/002213_2014-06-28_18-37-58_260595134347_rgbf000055-resize_1/002213_2014-06-28_18-37-58_260595134347_rgbf000055-resize_1-target.png,250,3.62,8,2807,247,feet,jsons/v1_VE250_randls_24.json,661837,764098,28,Man
119,772859,DepthScenes,duration_manipulation_targetAtFixation,jsons/v1_VE250_randls_24.json,http://54.235.29.9/FacialAge/BNav_EC2/DepthDuration/v2_depth_duration_MTurk/v2_DepthDuration_HTML.html#71,71,1887,940,1920,1080,8-20-2022,10-56-22,120,depth_duration_stimuli/000691_2014-06-08_13-08-50_260595134347_rgbf000132-resize_3/000691_2014-06-08_13-08-50_260595134347_rgbf000132-resize_3-target.png,250,4.1530000000000005,10,2575,246,feet,jsons/v1_VE250_randls_24.json,661837,764098,28,Man
120,772859,DepthScenes,duration_manipulation_targetAtFixation,jsons/v1_VE250_randls_24.json,http://54.235.29.9/FacialAge/BNav_EC2/DepthDuration/v2_depth_duration_MTurk/v2_DepthDuration_HTML.html#71,71,1887,940,1920,1080,8-20-2022,10-56-22,121,depth_duration_stimuli/000470_2014-06-09_19-42-40_260595134347_rgbf000094-resize_1/000470_2014-06-09_19-42-40_260595134347_rgbf000094-resize_1-target.png,250,1.831,5,2012,244,feet,jsons/v1_VE250_randls_24.json,661837,764098,28,Man
121,772859,DepthScenes,duration_manipulation_targetAtFixation,jsons/v1_VE250_randls_24.json,http://54.235.29.9/FacialAge/BNav_EC2/DepthDuration/v2_depth_duration_MTurk/v2_DepthDuration_HTML.html#71,71,1887,940,1920,1080,8-20-2022,10-56-22,122,depth_duration_stimuli/000109_2014-05-14_23-41-52_260595134347_rgbf000035-resize_9/000109_2014-05-14_23-41-52_260595134347_rgbf000035-resize_9-target.png,250,1.3545,3,1791,238,feet,jsons/v1_VE250_randls_24.json,661837,764098,28,Man
122,772859,DepthScenes,duration_manipulation_targetAtFixation,jsons/v1_VE250_randls_24.json,http://54.235.29.9/FacialAge/BNav_EC2/DepthDuration/v2_depth_duration_MTurk/v2_DepthDuration_HTML.html#71,71,1887,940,1920,1080,8-20-2022,10-56-22,123,depth_duration_stimuli/002788_2014-06-22_19-36-03_094959634447_rgbf000088-resize_2/002788_2014-06-22_19-36-03_094959634447_rgbf000088-resize_2-target.png,250,1.6465,4,2357,247,feet,jsons/v1_VE250_randls_24.json,661837,764098,28,Man
123,772859,DepthScenes,duration_manipulation_targetAtFixation,jsons/v1_VE250_randls_24.json,http://54.235.29.9/FacialAge/BNav_EC2/DepthDuration/v2_depth_duration_MTurk/v2_DepthDuration_HTML.html#71,71,1887,940,1920,1080,8-20-2022,10-56-22,124,depth_duration_stimuli/000749_2014-06-08_21-55-06_260595134347_rgbf000070-resize_2/000749_2014-06-08_21-55-06_260595134347_rgbf000070-resize_2-target.png,250,2.331,6,1908,248,feet,jsons/v1_VE250_randls_24.json,661837,764098,28,Man
124,772859,DepthScenes,duration_manipulation_targetAtFixation,jsons/v1_VE250_randls_24.json,http://54.235.29.9/FacialAge/BNav_EC2/DepthDuration/v2_depth_duration_MTurk/v2_DepthDuration_HTML.html#71,71,1887,940,1920,1080,8-20-2022,10-56-22,125,depth_duration_stimuli/003292_2014-05-14_21-53-49_094959634447_rgbf000100-resize_2/003292_2014-05-14_21-53-49_094959634447_rgbf000100-resize_2-target.png,250,3.4815,6,1755,249,feet,jsons/v1_VE250_randls_24.json,661837,764098,28,Man
125,772859,DepthScenes,duration_manipulation_targetAtFixation,jsons/v1_VE250_randls_24.json,http://54.235.29.9/FacialAge/BNav_EC2/DepthDuration/v2_depth_duration_MTurk/v2_DepthDuration_HTML.html#71,71,1887,940,1920,1080,8-20-2022,10-56-22,126,depth_duration_stimuli/002639_2014-06-24_14-51-37_094959634447_rgbf000074-resize_4/002639_2014-06-24_14-51-37_094959634447_rgbf000074-resize_4-target.png,250,4.0375,8,2412,251,feet,jsons/v1_VE250_randls_24.json,661837,764098,28,Man
126,772859,DepthScenes,duration_manipulation_targetAtFixation,jsons/v1_VE250_randls_24.json,http://54.235.29.9/FacialAge/BNav_EC2/DepthDuration/v2_depth_duration_MTurk/v2_DepthDuration_HTML.html#71,71,1887,940,1920,1080,8-20-2022,10-56-22,127,depth_duration_stimuli/001150_2014-06-17_15-27-34_260595134347_rgbf000108-resize_2/001150_2014-06-17_15-27-34_260595134347_rgbf000108-resize_2-target.png,250,4.0325,8,2587,250,feet,jsons/v1_VE250_randls_24.json,661837,764098,28,Man
127,772859,DepthScenes,duration_manipulation_targetAtFixation,jsons/v1_VE250_randls_24.json,http://54.235.29.9/FacialAge/BNav_EC2/DepthDuration/v2_depth_duration_MTurk/v2_DepthDuration_HTML.html#71,71,1887,940,1920,1080,8-20-2022,10-56-22,128,depth_duration_stimuli/000665_2014-06-09_20-42-35_260595134347_rgbf000110-resize_1/000665_2014-06-09_20-42-35_260595134347_rgbf000110-resize_1-target.png,250,3.057,6,1820,251,feet,jsons/v1_VE250_randls_24.json,661837,764098,28,Man
128,772859,DepthScenes,duration_manipulation_targetAtFixation,jsons/v1_VE250_randls_24.json,http://54.235.29.9/FacialAge/BNav_EC2/DepthDuration/v2_depth_duration_MTurk/v2_DepthDuration_HTML.html#71,71,1887,940,1920,1080,8-20-2022,10-56-22,129,depth_duration_stimuli/000414_2014-06-04_19-49-13_260595134347_rgbf000044-resize_0/000414_2014-06-04_19-49-13_260595134347_rgbf000044-resize_0-target.png,250,4.329,6,1841,247,feet,jsons/v1_VE250_randls_24.json,661837,764098,28,Man
129,772859,DepthScenes,duration_manipulation_targetAtFixation,jsons/v1_VE250_randls_24.json,http://54.235.29.9/FacialAge/BNav_EC2/DepthDuration/v2_depth_duration_MTurk/v2_DepthDuration_HTML.html#71,71,1887,940,1920,1080,8-20-2022,10-56-22,130,depth_duration_stimuli/003129_2014-05-12_10-48-10_094959634447_rgbf000100-resize_0/003129_2014-05-12_10-48-10_094959634447_rgbf000100-resize_0-target.png,250,4.9305,6,2634,248,feet,jsons/v1_VE250_randls_24.json,661837,764098,28,Man
130,772859,DepthScenes,duration_manipulation_targetAtFixation,jsons/v1_VE250_randls_24.json,http://54.235.29.9/FacialAge/BNav_EC2/DepthDuration/v2_depth_duration_MTurk/v2_DepthDuration_HTML.html#71,71,1887,940,1920,1080,8-20-2022,10-56-22,131,depth_duration_stimuli/001011_2014-06-08_23-18-54_260595134347_rgbf000044-resize_4/001011_2014-06-08_23-18-54_260595134347_rgbf000044-resize_4-target.png,250,2.4730000000000003,7,3100,251,feet,jsons/v1_VE250_randls_24.json,661837,764098,28,Man
131,772859,DepthScenes,duration_manipulation_targetAtFixation,jsons/v1_VE250_randls_24.json,http://54.235.29.9/FacialAge/BNav_EC2/DepthDuration/v2_depth_duration_MTurk/v2_DepthDuration_HTML.html#71,71,1887,940,1920,1080,8-20-2022,10-56-22,132,depth_duration_stimuli/002875_2014-06-01_15-19-00_094959634447_rgbf000151-resize_1/002875_2014-06-01_15-19-00_094959634447_rgbf000151-resize_1-target.png,250,1.9675,5,2608,249,feet,jsons/v1_VE250_randls_24.json,661837,764098,28,Man
132,772859,DepthScenes,duration_manipulation_targetAtFixation,jsons/v1_VE250_randls_24.json,http://54.235.29.9/FacialAge/BNav_EC2/DepthDuration/v2_depth_duration_MTurk/v2_DepthDuration_HTML.html#71,71,1887,940,1920,1080,8-20-2022,10-56-22,133,depth_duration_stimuli/001555_2014-06-20_17-12-10_260595134347_rgbf000065-resize_4/001555_2014-06-20_17-12-10_260595134347_rgbf000065-resize_4-target.png,250,1.633,3,1944,248,feet,jsons/v1_VE250_randls_24.json,661837,764098,28,Man
133,772859,DepthScenes,duration_manipulation_targetAtFixation,jsons/v1_VE250_randls_24.json,http://54.235.29.9/FacialAge/BNav_EC2/DepthDuration/v2_depth_duration_MTurk/v2_DepthDuration_HTML.html#71,71,1887,940,1920,1080,8-20-2022,10-56-22,134,depth_duration_stimuli/000103_2014-05-14_22-01-17_260595134347_rgbf000152-resize_5/000103_2014-05-14_22-01-17_260595134347_rgbf000152-resize_5-target.png,250,1.993,3,3986,246,feet,jsons/v1_VE250_randls_24.json,661837,764098,28,Man
134,772859,DepthScenes,duration_manipulation_targetAtFixation,jsons/v1_VE250_randls_24.json,http://54.235.29.9/FacialAge/BNav_EC2/DepthDuration/v2_depth_duration_MTurk/v2_DepthDuration_HTML.html#71,71,1887,940,1920,1080,8-20-2022,10-56-22,135,depth_duration_stimuli/002072_2014-06-24_21-48-06_260595134347_rgbf000115-resize_0/002072_2014-06-24_21-48-06_260595134347_rgbf000115-resize-original.jpg,250,4.702,3,2059,247,feet,jsons/v1_VE250_randls_24.json,661837,764098,28,Man
135,772859,DepthScenes,duration_manipulation_targetAtFixation,jsons/v1_VE250_randls_24.json,http://54.235.29.9/FacialAge/BNav_EC2/DepthDuration/v2_depth_duration_MTurk/v2_DepthDuration_HTML.html#71,71,1887,940,1920,1080,8-20-2022,10-56-22,136,depth_duration_stimuli/001175_2014-06-17_15-45-55_260595134347_rgbf000129-resize_4/001175_2014-06-17_15-45-55_260595134347_rgbf000129-resize_4-target.png,250,4.255,8,27621,260,feet,jsons/v1_VE250_randls_24.json,661837,764098,28,Man
136,772859,DepthScenes,duration_manipulation_targetAtFixation,jsons/v1_VE250_randls_24.json,http://54.235.29.9/FacialAge/BNav_EC2/DepthDuration/v2_depth_duration_MTurk/v2_DepthDuration_HTML.html#71,71,1887,940,1920,1080,8-20-2022,10-56-22,137,depth_duration_stimuli/003490_2014-05-21_15-50-11_094959634447_rgbf000101-resize_3/003490_2014-05-21_15-50-11_094959634447_rgbf000101-resize_3-target.png,250,3.6445,7,1880,235,feet,jsons/v1_VE250_randls_24.json,661837,764098,28,Man
137,772859,DepthScenes,duration_manipulation_targetAtFixation,jsons/v1_VE250_randls_24.json,http://54.235.29.9/FacialAge/BNav_EC2/DepthDuration/v2_depth_duration_MTurk/v2_DepthDuration_HTML.html#71,71,1887,940,1920,1080,8-20-2022,10-56-22,138,depth_duration_stimuli/001059_2014-06-08_21-53-27_260595134347_rgbf000061-resize_4/001059_2014-06-08_21-53-27_260595134347_rgbf000061-resize_4-target.png,250,2.4185,5,2356,246,feet,jsons/v1_VE250_randls_24.json,661837,764098,28,Man
138,772859,DepthScenes,duration_manipulation_targetAtFixation,jsons/v1_VE250_randls_24.json,http://54.235.29.9/FacialAge/BNav_EC2/DepthDuration/v2_depth_duration_MTurk/v2_DepthDuration_HTML.html#71,71,1887,940,1920,1080,8-20-2022,10-56-22,139,depth_duration_stimuli/001032_2014-06-08_13-23-17_260595134347_rgbf000021-resize_3/001032_2014-06-08_13-23-17_260595134347_rgbf000021-resize_3-target.png,250,3.2725,6,1966,262,feet,jsons/v1_VE250_randls_24.json,661837,764098,28,Man
139,772859,DepthScenes,duration_manipulation_targetAtFixation,jsons/v1_VE250_randls_24.json,http://54.235.29.9/FacialAge/BNav_EC2/DepthDuration/v2_depth_duration_MTurk/v2_DepthDuration_HTML.html#71,71,1887,940,1920,1080,8-20-2022,10-56-22,140,depth_duration_stimuli/000758_2014-06-08_22-05-08_260595134347_rgbf000085-resize_0/000758_2014-06-08_22-05-08_260595134347_rgbf000085-resize_0-target.png,250,3.3810000000000002,7,1920,262,feet,jsons/v1_VE250_randls_24.json,661837,764098,28,Man
140,772859,DepthScenes,duration_manipulation_targetAtFixation,jsons/v1_VE250_randls_24.json,http://54.235.29.9/FacialAge/BNav_EC2/DepthDuration/v2_depth_duration_MTurk/v2_DepthDuration_HTML.html#71,71,1887,940,1920,1080,8-20-2022,10-56-22,141,depth_duration_stimuli/000854_2014-06-09_19-43-13_260595134347_rgbf000066-resize_0/000854_2014-06-09_19-43-13_260595134347_rgbf000066-resize_0-target.png,250,3.068,3,2249,251,feet,jsons/v1_VE250_randls_24.json,661837,764098,28,Man
141,772859,DepthScenes,duration_manipulation_targetAtFixation,jsons/v1_VE250_randls_24.json,http://54.235.29.9/FacialAge/BNav_EC2/DepthDuration/v2_depth_duration_MTurk/v2_DepthDuration_HTML.html#71,71,1887,940,1920,1080,8-20-2022,10-56-22,142,depth_duration_stimuli/000436_2014-06-09_22-25-11_260595134347_rgbf000137-resize_1/000436_2014-06-09_22-25-11_260595134347_rgbf000137-resize_1-target.png,250,4.0705,6,94864,249,feet,jsons/v1_VE250_randls_24.json,661837,764098,28,Man
142,772859,DepthScenes,duration_manipulation_targetAtFixation,jsons/v1_VE250_randls_24.json,http://54.235.29.9/FacialAge/BNav_EC2/DepthDuration/v2_depth_duration_MTurk/v2_DepthDuration_HTML.html#71,71,1887,940,1920,1080,8-20-2022,10-56-22,143,depth_duration_stimuli/002444_2014-06-28_20-32-08_260595134347_rgbf000027-resize_0/002444_2014-06-28_20-32-08_260595134347_rgbf000027-resize_0-target.png,250,4.388999999999999,5,2450,249,feet,jsons/v1_VE250_randls_24.json,661837,764098,28,Man
143,772859,DepthScenes,duration_manipulation_targetAtFixation,jsons/v1_VE250_randls_24.json,http://54.235.29.9/FacialAge/BNav_EC2/DepthDuration/v2_depth_duration_MTurk/v2_DepthDuration_HTML.html#71,71,1887,940,1920,1080,8-20-2022,10-56-22,144,depth_duration_stimuli/002057_2014-06-24_21-00-13_260595134347_rgbf000120-resize_1/002057_2014-06-24_21-00-13_260595134347_rgbf000120-resize_1-target.png,250,2.967,8,2351,248,feet,jsons/v1_VE250_randls_24.json,661837,764098,28,Man
144,772859,DepthScenes,duration_manipulation_targetAtFixation,jsons/v1_VE250_randls_24.json,http://54.235.29.9/FacialAge/BNav_EC2/DepthDuration/v2_depth_duration_MTurk/v2_DepthDuration_HTML.html#71,71,1887,940,1920,1080,8-20-2022,10-56-22,145,depth_duration_stimuli/000709_2014-06-08_13-51-55_260595134347_rgbf000068-resize_3/000709_2014-06-08_13-51-55_260595134347_rgbf000068-resize_3-target.png,250,1.8030000000000002,4,1814,236,feet,jsons/v1_VE250_randls_24.json,661837,764098,28,Man
145,772859,DepthScenes,duration_manipulation_targetAtFixation,jsons/v1_VE250_randls_24.json,http://54.235.29.9/FacialAge/BNav_EC2/DepthDuration/v2_depth_duration_MTurk/v2_DepthDuration_HTML.html#71,71,1887,940,1920,1080,8-20-2022,10-56-22,146,depth_duration_stimuli/001498_2014-06-19_17-45-14_260595134347_rgbf000129-resize_4/001498_2014-06-19_17-45-14_260595134347_rgbf000129-resize-original.jpg,250,1.4075,0,1730,248,feet,jsons/v1_VE250_randls_24.json,661837,764098,28,Man
146,772859,DepthScenes,duration_manipulation_targetAtFixation,jsons/v1_VE250_randls_24.json,http://54.235.29.9/FacialAge/BNav_EC2/DepthDuration/v2_depth_duration_MTurk/v2_DepthDuration_HTML.html#71,71,1887,940,1920,1080,8-20-2022,10-56-22,147,depth_duration_stimuli/001158_2014-06-17_15-32-16_260595134347_rgbf000138-resize_2/001158_2014-06-17_15-32-16_260595134347_rgbf000138-resize_2-target.png,250,4.5315,11,2449,248,feet,jsons/v1_VE250_randls_24.json,661837,764098,28,Man
147,772859,DepthScenes,duration_manipulation_targetAtFixation,jsons/v1_VE250_randls_24.json,http://54.235.29.9/FacialAge/BNav_EC2/DepthDuration/v2_depth_duration_MTurk/v2_DepthDuration_HTML.html#71,71,1887,940,1920,1080,8-20-2022,10-56-22,148,depth_duration_stimuli/000556_2014-06-09_22-42-56_260595134347_rgbf000214-resize_1/000556_2014-06-09_22-42-56_260595134347_rgbf000214-resize_1-target.png,250,4.8415,8,1992,249,feet,jsons/v1_VE250_randls_24.json,661837,764098,28,Man
148,772859,DepthScenes,duration_manipulation_targetAtFixation,jsons/v1_VE250_randls_24.json,http://54.235.29.9/FacialAge/BNav_EC2/DepthDuration/v2_depth_duration_MTurk/v2_DepthDuration_HTML.html#71,71,1887,940,1920,1080,8-20-2022,10-56-22,149,depth_duration_stimuli/002784_2014-06-22_19-26-30_094959634447_rgbf000083-resize_3/002784_2014-06-22_19-26-30_094959634447_rgbf000083-resize_3-target.png,250,1.8046666666667,4,1971,260,feet,jsons/v1_VE250_randls_24.json,661837,764098,28,Man
149,772859,DepthScenes,duration_manipulation_targetAtFixation,jsons/v1_VE250_randls_24.json,http://54.235.29.9/FacialAge/BNav_EC2/DepthDuration/v2_depth_duration_MTurk/v2_DepthDuration_HTML.html#71,71,1887,940,1920,1080,8-20-2022,10-56-22,150,depth_duration_stimuli/001100_2014-06-15_17-46-26_260595134347_rgbf000225-resize_2/001100_2014-06-15_17-46-26_260595134347_rgbf000225-resize_2-target.png,250,2.24,3,1783,246,feet,jsons/v1_VE250_randls_24.json,661837,764098,28,Man
150,772859,DepthScenes,duration_manipulation_targetAtFixation,jsons/v1_VE250_randls_24.json,http://54.235.29.9/FacialAge/BNav_EC2/DepthDuration/v2_depth_duration_MTurk/v2_DepthDuration_HTML.html#71,71,1887,940,1920,1080,8-20-2022,10-56-22,151,depth_duration_stimuli/002445_2014-06-28_20-32-16_260595134347_rgbf000029-resize_4/002445_2014-06-28_20-32-16_260595134347_rgbf000029-resize_4-target.png,250,2.5315,3,2249,250,feet,jsons/v1_VE250_randls_24.json,661837,764098,28,Man
151,772859,DepthScenes,duration_manipulation_targetAtFixation,jsons/v1_VE250_randls_24.json,http://54.235.29.9/FacialAge/BNav_EC2/DepthDuration/v2_depth_duration_MTurk/v2_DepthDuration_HTML.html#71,71,1887,940,1920,1080,8-20-2022,10-56-22,152,depth_duration_stimuli/000780_2014-06-08_22-28-29_260595134347_rgbf000126-resize_1/000780_2014-06-08_22-28-29_260595134347_rgbf000126-resize_1-target.png,250,3.3825,5,2106,248,feet,jsons/v1_VE250_randls_24.json,661837,764098,28,Man
152,772859,DepthScenes,duration_manipulation_targetAtFixation,jsons/v1_VE250_randls_24.json,http://54.235.29.9/FacialAge/BNav_EC2/DepthDuration/v2_depth_duration_MTurk/v2_DepthDuration_HTML.html#71,71,1887,940,1920,1080,8-20-2022,10-56-22,153,depth_duration_stimuli/002663_2014-06-13_15-50-26_094959634447_rgbf000075-resize_1/002663_2014-06-13_15-50-26_094959634447_rgbf000075-resize_1-target.png,250,4.7495,6,2974,250,feet,jsons/v1_VE250_randls_24.json,661837,764098,28,Man
153,772859,DepthScenes,duration_manipulation_targetAtFixation,jsons/v1_VE250_randls_24.json,http://54.235.29.9/FacialAge/BNav_EC2/DepthDuration/v2_depth_duration_MTurk/v2_DepthDuration_HTML.html#71,71,1887,940,1920,1080,8-20-2022,10-56-22,154,depth_duration_stimuli/000409_2014-06-04_19-23-33_260595134347_rgbf000067-resize_0/000409_2014-06-04_19-23-33_260595134347_rgbf000067-resize_0-target.png,250,3.7335,5,1827,247,feet,jsons/v1_VE250_randls_24.json,661837,764098,28,Man
154,772859,DepthScenes,duration_manipulation_targetAtFixation,jsons/v1_VE250_randls_24.json,http://54.235.29.9/FacialAge/BNav_EC2/DepthDuration/v2_depth_duration_MTurk/v2_DepthDuration_HTML.html#71,71,1887,940,1920,1080,8-20-2022,10-56-22,155,depth_duration_stimuli/002375_2014-06-28_20-13-44_260595134347_rgbf000032-resize_1/002375_2014-06-28_20-13-44_260595134347_rgbf000032-resize_1-target.png,250,4.0175,4,1814,247,feet,jsons/v1_VE250_randls_24.json,661837,764098,28,Man
155,772859,DepthScenes,duration_manipulation_targetAtFixation,jsons/v1_VE250_randls_24.json,http://54.235.29.9/FacialAge/BNav_EC2/DepthDuration/v2_depth_duration_MTurk/v2_DepthDuration_HTML.html#71,71,1887,940,1920,1080,8-20-2022,10-56-22,156,depth_duration_stimuli/002657_2014-06-13_15-29-54_094959634447_rgbf000150-resize_1/002657_2014-06-13_15-29-54_094959634447_rgbf000150-resize_1-target.png,250,4.919,6,4449,249,feet,jsons/v1_VE250_randls_24.json,661837,764098,28,Man
156,772859,DepthScenes,duration_manipulation_targetAtFixation,jsons/v1_VE250_randls_24.json,http://54.235.29.9/FacialAge/BNav_EC2/DepthDuration/v2_depth_duration_MTurk/v2_DepthDuration_HTML.html#71,71,1887,940,1920,1080,8-20-2022,10-56-22,157,depth_duration_stimuli/001110_2014-06-15_17-25-28_260595134347_rgbf000150-resize_1/001110_2014-06-15_17-25-28_260595134347_rgbf000150-resize_1-target.png,250,1.7115,3,2201,249,feet,jsons/v1_VE250_randls_24.json,661837,764098,28,Man
157,772859,DepthScenes,duration_manipulation_targetAtFixation,jsons/v1_VE250_randls_24.json,http://54.235.29.9/FacialAge/BNav_EC2/DepthDuration/v2_depth_duration_MTurk/v2_DepthDuration_HTML.html#71,71,1887,940,1920,1080,8-20-2022,10-56-22,158,depth_duration_stimuli/000927_2014-06-09_16-32-30_260595134347_rgbf000123-resize_3/000927_2014-06-09_16-32-30_260595134347_rgbf000123-resize_3-target.png,250,2.6785,5,3041,245,feet,jsons/v1_VE250_randls_24.json,661837,764098,28,Man
158,772859,DepthScenes,duration_manipulation_targetAtFixation,jsons/v1_VE250_randls_24.json,http://54.235.29.9/FacialAge/BNav_EC2/DepthDuration/v2_depth_duration_MTurk/v2_DepthDuration_HTML.html#71,71,1887,940,1920,1080,8-20-2022,10-56-22,159,depth_duration_stimuli/000736_2014-06-08_18-24-15_260595134347_rgbf000206-resize_3/000736_2014-06-08_18-24-15_260595134347_rgbf000206-resize_3-target.png,250,3.515,5,1890,249,feet,jsons/v1_VE250_randls_24.json,661837,764098,28,Man
159,772859,DepthScenes,duration_manipulation_targetAtFixation,jsons/v1_VE250_randls_24.json,http://54.235.29.9/FacialAge/BNav_EC2/DepthDuration/v2_depth_duration_MTurk/v2_DepthDuration_HTML.html#71,71,1887,940,1920,1080,8-20-2022,10-56-22,160,depth_duration_stimuli/000137_2014-05-20_17-04-49_260595134347_rgbf000120-resize_1/000137_2014-05-20_17-04-49_260595134347_rgbf000120-resize_1-target.png,250,3.786,8,2587,247,feet,jsons/v1_VE250_randls_24.json,661837,764098,28,Man
160,772859,DepthScenes,duration_manipulation_targetAtFixation,jsons/v1_VE250_randls_24.json,http://54.235.29.9/FacialAge/BNav_EC2/DepthDuration/v2_depth_duration_MTurk/v2_DepthDuration_HTML.html#71,71,1887,940,1920,1080,8-20-2022,10-56-22,161,depth_duration_stimuli/001167_2014-06-17_15-38-07_260595134347_rgbf000108-resize_0/001167_2014-06-17_15-38-07_260595134347_rgbf000108-resize_0-target.png,250,1.8505,4,6856,271,feet,jsons/v1_VE250_randls_24.json,661837,764098,28,Man
161,772859,DepthScenes,duration_manipulation_targetAtFixation,jsons/v1_VE250_randls_24.json,http://54.235.29.9/FacialAge/BNav_EC2/DepthDuration/v2_depth_duration_MTurk/v2_DepthDuration_HTML.html#71,71,1887,940,1920,1080,8-20-2022,10-56-22,162,depth_duration_stimuli/003587_2014-05-23_16-48-02_094959634447_rgbf002384-resize_2/003587_2014-05-23_16-48-02_094959634447_rgbf002384-resize_2-target.png,250,1.357,3,2353,245,feet,jsons/v1_VE250_randls_24.json,661837,764098,28,Man
162,772859,DepthScenes,duration_manipulation_targetAtFixation,jsons/v1_VE250_randls_24.json,http://54.235.29.9/FacialAge/BNav_EC2/DepthDuration/v2_depth_duration_MTurk/v2_DepthDuration_HTML.html#71,71,1887,940,1920,1080,8-20-2022,10-56-22,163,depth_duration_stimuli/000929_2014-06-09_16-33-19_260595134347_rgbf000139-resize_0/000929_2014-06-09_16-33-19_260595134347_rgbf000139-resize_0-target.png,250,2.8680000000000003,4,3439,247,feet,jsons/v1_VE250_randls_24.json,661837,764098,28,Man
163,772859,DepthScenes,duration_manipulation_targetAtFixation,jsons/v1_VE250_randls_24.json,http://54.235.29.9/FacialAge/BNav_EC2/DepthDuration/v2_depth_duration_MTurk/v2_DepthDuration_HTML.html#71,71,1887,940,1920,1080,8-20-2022,10-56-22,164,depth_duration_stimuli/000457_2014-06-08_16-52-43_260595134347_rgbf000199-resize_1/000457_2014-06-08_16-52-43_260595134347_rgbf000199-resize_1-target.png,250,3.6489999999999996,4,1758,249,feet,jsons/v1_VE250_randls_24.json,661837,764098,28,Man
