,subjID,experimentName,versionName,sequenceName,url,selected_row,windowWidth,windowHeight,screenWidth,screenHeight,startDate,startTime,trial,stimulus,duration,actual_depth,depth_estimate,trial_RT,log_sceneDuration,unitSelection,seq_filepath,experimentTime,totalTime,age,gender
0,772911,DepthScenes,duration_manipulation_targetAtFixation,jsons/v1_VE1000_randls_56.json,http://54.235.29.9/FacialAge/BNav_EC2/DepthDuration/v2_depth_duration_MTurk/v2_DepthDuration_HTML.html#27,27,1920,1080,1920,1080,9-3-2022,9-17-32,1,depth_duration_stimuli/001016_2014-06-09_16-16-10_260595134347_rgbf000112-resize_5/001016_2014-06-09_16-16-10_260595134347_rgbf000112-resize_5-target.png,1000,1.6565,5,4216,1001,feet,jsons/v1_VE1000_randls_56.json,695708,843592,35,Woman
1,772911,DepthScenes,duration_manipulation_targetAtFixation,jsons/v1_VE1000_randls_56.json,http://54.235.29.9/FacialAge/BNav_EC2/DepthDuration/v2_depth_duration_MTurk/v2_DepthDuration_HTML.html#27,27,1920,1080,1920,1080,9-3-2022,9-17-32,2,depth_duration_stimuli/002340_2014-06-28_20-05-46_260595134347_rgbf000113-resize_0/002340_2014-06-28_20-05-46_260595134347_rgbf000113-resize_0-target.png,1000,2.4735,9,3865,991,feet,jsons/v1_VE1000_randls_56.json,695708,843592,35,Woman
2,772911,DepthScenes,duration_manipulation_targetAtFixation,jsons/v1_VE1000_randls_56.json,http://54.235.29.9/FacialAge/BNav_EC2/DepthDuration/v2_depth_duration_MTurk/v2_DepthDuration_HTML.html#27,27,1920,1080,1920,1080,9-3-2022,9-17-32,3,depth_duration_stimuli/000414_2014-06-04_19-49-13_260595134347_rgbf000044-resize_0/000414_2014-06-04_19-49-13_260595134347_rgbf000044-resize_0-target.png,1000,4.329,14,4595,1011,feet,jsons/v1_VE1000_randls_56.json,695708,843592,35,Woman
3,772911,DepthScenes,duration_manipulation_targetAtFixation,jsons/v1_VE1000_randls_56.json,http://54.235.29.9/FacialAge/BNav_EC2/DepthDuration/v2_depth_duration_MTurk/v2_DepthDuration_HTML.html#27,27,1920,1080,1920,1080,9-3-2022,9-17-32,4,depth_duration_stimuli/003129_2014-05-12_10-48-10_094959634447_rgbf000100-resize_0/003129_2014-05-12_10-48-10_094959634447_rgbf000100-resize_0-target.png,1000,4.9305,8,4626,1013,feet,jsons/v1_VE1000_randls_56.json,695708,843592,35,Woman
4,772911,DepthScenes,duration_manipulation_targetAtFixation,jsons/v1_VE1000_randls_56.json,http://54.235.29.9/FacialAge/BNav_EC2/DepthDuration/v2_depth_duration_MTurk/v2_DepthDuration_HTML.html#27,27,1920,1080,1920,1080,9-3-2022,9-17-32,5,depth_duration_stimuli/001029_2014-06-08_13-17-57_260595134347_rgbf000065-resize_1/001029_2014-06-08_13-17-57_260595134347_rgbf000065-resize_1-target.png,1000,3.0835,6,3915,1000,feet,jsons/v1_VE1000_randls_56.json,695708,843592,35,Woman
5,772911,DepthScenes,duration_manipulation_targetAtFixation,jsons/v1_VE1000_randls_56.json,http://54.235.29.9/FacialAge/BNav_EC2/DepthDuration/v2_depth_duration_MTurk/v2_DepthDuration_HTML.html#27,27,1920,1080,1920,1080,9-3-2022,9-17-32,6,depth_duration_stimuli/000677_2014-06-08_23-10-32_260595134347_rgbf000158-resize_6/000677_2014-06-08_23-10-32_260595134347_rgbf000158-resize_6-target.png,1000,3.556,9,3730,1009,feet,jsons/v1_VE1000_randls_56.json,695708,843592,35,Woman
6,772911,DepthScenes,duration_manipulation_targetAtFixation,jsons/v1_VE1000_randls_56.json,http://54.235.29.9/FacialAge/BNav_EC2/DepthDuration/v2_depth_duration_MTurk/v2_DepthDuration_HTML.html#27,27,1920,1080,1920,1080,9-3-2022,9-17-32,7,depth_duration_stimuli/001555_2014-06-20_17-12-10_260595134347_rgbf000065-resize_4/001555_2014-06-20_17-12-10_260595134347_rgbf000065-resize_4-target.png,1000,1.633,3,3393,1000,feet,jsons/v1_VE1000_randls_56.json,695708,843592,35,Woman
7,772911,DepthScenes,duration_manipulation_targetAtFixation,jsons/v1_VE1000_randls_56.json,http://54.235.29.9/FacialAge/BNav_EC2/DepthDuration/v2_depth_duration_MTurk/v2_DepthDuration_HTML.html#27,27,1920,1080,1920,1080,9-3-2022,9-17-32,8,depth_duration_stimuli/000103_2014-05-14_22-01-17_260595134347_rgbf000152-resize_5/000103_2014-05-14_22-01-17_260595134347_rgbf000152-resize_5-target.png,1000,1.993,5,3326,994,feet,jsons/v1_VE1000_randls_56.json,695708,843592,35,Woman
8,772911,DepthScenes,duration_manipulation_targetAtFixation,jsons/v1_VE1000_randls_56.json,http://54.235.29.9/FacialAge/BNav_EC2/DepthDuration/v2_depth_duration_MTurk/v2_DepthDuration_HTML.html#27,27,1920,1080,1920,1080,9-3-2022,9-17-32,9,depth_duration_stimuli/002763_2014-06-22_19-13-10_094959634447_rgbf000075-resize_4/002763_2014-06-22_19-13-10_094959634447_rgbf000075-resize_4-target.png,1000,1.68375,4,3156,999,feet,jsons/v1_VE1000_randls_56.json,695708,843592,35,Woman
9,772911,DepthScenes,duration_manipulation_targetAtFixation,jsons/v1_VE1000_randls_56.json,http://54.235.29.9/FacialAge/BNav_EC2/DepthDuration/v2_depth_duration_MTurk/v2_DepthDuration_HTML.html#27,27,1920,1080,1920,1080,9-3-2022,9-17-32,10,depth_duration_stimuli/002209_2014-06-28_18-36-10_260595134347_rgbf000051-resize_1/002209_2014-06-28_18-36-10_260595134347_rgbf000051-resize_1-target.png,1000,2.057,3,3127,988,feet,jsons/v1_VE1000_randls_56.json,695708,843592,35,Woman
10,772911,DepthScenes,duration_manipulation_targetAtFixation,jsons/v1_VE1000_randls_56.json,http://54.235.29.9/FacialAge/BNav_EC2/DepthDuration/v2_depth_duration_MTurk/v2_DepthDuration_HTML.html#27,27,1920,1080,1920,1080,9-3-2022,9-17-32,11,depth_duration_stimuli/002964_2014-06-08_17-46-11_094959634447_rgbf000091-resize_4/002964_2014-06-08_17-46-11_094959634447_rgbf000091-resize_4-target.png,1000,1.6909999999999998,3,2467,1000,feet,jsons/v1_VE1000_randls_56.json,695708,843592,35,Woman
11,772911,DepthScenes,duration_manipulation_targetAtFixation,jsons/v1_VE1000_randls_56.json,http://54.235.29.9/FacialAge/BNav_EC2/DepthDuration/v2_depth_duration_MTurk/v2_DepthDuration_HTML.html#27,27,1920,1080,1920,1080,9-3-2022,9-17-32,12,depth_duration_stimuli/002136_2014-06-25_21-18-03_260595134347_rgbf000109-resize_3/002136_2014-06-25_21-18-03_260595134347_rgbf000109-resize_3-target.png,1000,1.9569999999999999,4,2742,1002,feet,jsons/v1_VE1000_randls_56.json,695708,843592,35,Woman
12,772911,DepthScenes,duration_manipulation_targetAtFixation,jsons/v1_VE1000_randls_56.json,http://54.235.29.9/FacialAge/BNav_EC2/DepthDuration/v2_depth_duration_MTurk/v2_DepthDuration_HTML.html#27,27,1920,1080,1920,1080,9-3-2022,9-17-32,13,depth_duration_stimuli/000569_2014-06-09_22-51-47_260595134347_rgbf000141-resize_3/000569_2014-06-09_22-51-47_260595134347_rgbf000141-resize-original.jpg,1000,4.512,0,3097,1001,feet,jsons/v1_VE1000_randls_56.json,695708,843592,35,Woman
13,772911,DepthScenes,duration_manipulation_targetAtFixation,jsons/v1_VE1000_randls_56.json,http://54.235.29.9/FacialAge/BNav_EC2/DepthDuration/v2_depth_duration_MTurk/v2_DepthDuration_HTML.html#27,27,1920,1080,1920,1080,9-3-2022,9-17-32,14,depth_duration_stimuli/001810_2014-06-26_20-51-35_260595134347_rgbf000040-resize_3/001810_2014-06-26_20-51-35_260595134347_rgbf000040-resize_3-target.png,1000,2.2525,3,3812,986,feet,jsons/v1_VE1000_randls_56.json,695708,843592,35,Woman
14,772911,DepthScenes,duration_manipulation_targetAtFixation,jsons/v1_VE1000_randls_56.json,http://54.235.29.9/FacialAge/BNav_EC2/DepthDuration/v2_depth_duration_MTurk/v2_DepthDuration_HTML.html#27,27,1920,1080,1920,1080,9-3-2022,9-17-32,15,depth_duration_stimuli/003010_2014-06-15_12-54-35_094959634447_rgbf000112-resize_0/003010_2014-06-15_12-54-35_094959634447_rgbf000112-resize_0-target.png,1000,3.1185,11,4642,1002,feet,jsons/v1_VE1000_randls_56.json,695708,843592,35,Woman
15,772911,DepthScenes,duration_manipulation_targetAtFixation,jsons/v1_VE1000_randls_56.json,http://54.235.29.9/FacialAge/BNav_EC2/DepthDuration/v2_depth_duration_MTurk/v2_DepthDuration_HTML.html#27,27,1920,1080,1920,1080,9-3-2022,9-17-32,16,depth_duration_stimuli/001158_2014-06-17_15-32-16_260595134347_rgbf000138-resize_2/001158_2014-06-17_15-32-16_260595134347_rgbf000138-resize_2-target.png,1000,4.5315,14,2982,988,feet,jsons/v1_VE1000_randls_56.json,695708,843592,35,Woman
16,772911,DepthScenes,duration_manipulation_targetAtFixation,jsons/v1_VE1000_randls_56.json,http://54.235.29.9/FacialAge/BNav_EC2/DepthDuration/v2_depth_duration_MTurk/v2_DepthDuration_HTML.html#27,27,1920,1080,1920,1080,9-3-2022,9-17-32,17,depth_duration_stimuli/000556_2014-06-09_22-42-56_260595134347_rgbf000214-resize_1/000556_2014-06-09_22-42-56_260595134347_rgbf000214-resize_1-target.png,1000,4.8415,10,4323,991,feet,jsons/v1_VE1000_randls_56.json,695708,843592,35,Woman
17,772911,DepthScenes,duration_manipulation_targetAtFixation,jsons/v1_VE1000_randls_56.json,http://54.235.29.9/FacialAge/BNav_EC2/DepthDuration/v2_depth_duration_MTurk/v2_DepthDuration_HTML.html#27,27,1920,1080,1920,1080,9-3-2022,9-17-32,18,depth_duration_stimuli/000692_2014-06-08_13-09-42_260595134347_rgbf000199-resize_2/000692_2014-06-08_13-09-42_260595134347_rgbf000199-resize_2-target.png,1000,3.661,16,4003,1013,feet,jsons/v1_VE1000_randls_56.json,695708,843592,35,Woman
18,772911,DepthScenes,duration_manipulation_targetAtFixation,jsons/v1_VE1000_randls_56.json,http://54.235.29.9/FacialAge/BNav_EC2/DepthDuration/v2_depth_duration_MTurk/v2_DepthDuration_HTML.html#27,27,1920,1080,1920,1080,9-3-2022,9-17-32,19,depth_duration_stimuli/001094_2014-06-15_17-36-00_260595134347_rgbf000205-resize_0/001094_2014-06-15_17-36-00_260595134347_rgbf000205-resize_0-target.png,1000,4.2175,13,5223,1010,feet,jsons/v1_VE1000_randls_56.json,695708,843592,35,Woman
19,772911,DepthScenes,duration_manipulation_targetAtFixation,jsons/v1_VE1000_randls_56.json,http://54.235.29.9/FacialAge/BNav_EC2/DepthDuration/v2_depth_duration_MTurk/v2_DepthDuration_HTML.html#27,27,1920,1080,1920,1080,9-3-2022,9-17-32,20,depth_duration_stimuli/000470_2014-06-09_19-42-40_260595134347_rgbf000094-resize_1/000470_2014-06-09_19-42-40_260595134347_rgbf000094-resize_1-target.png,1000,1.831,3,4927,987,feet,jsons/v1_VE1000_randls_56.json,695708,843592,35,Woman
20,772911,DepthScenes,duration_manipulation_targetAtFixation,jsons/v1_VE1000_randls_56.json,http://54.235.29.9/FacialAge/BNav_EC2/DepthDuration/v2_depth_duration_MTurk/v2_DepthDuration_HTML.html#27,27,1920,1080,1920,1080,9-3-2022,9-17-32,21,depth_duration_stimuli/000109_2014-05-14_23-41-52_260595134347_rgbf000035-resize_9/000109_2014-05-14_23-41-52_260595134347_rgbf000035-resize_9-target.png,1000,1.3545,2,3520,989,feet,jsons/v1_VE1000_randls_56.json,695708,843592,35,Woman
21,772911,DepthScenes,duration_manipulation_targetAtFixation,jsons/v1_VE1000_randls_56.json,http://54.235.29.9/FacialAge/BNav_EC2/DepthDuration/v2_depth_duration_MTurk/v2_DepthDuration_HTML.html#27,27,1920,1080,1920,1080,9-3-2022,9-17-32,22,depth_duration_stimuli/003292_2014-05-14_21-53-49_094959634447_rgbf000100-resize_2/003292_2014-05-14_21-53-49_094959634447_rgbf000100-resize_2-target.png,1000,3.4815,6,9549,994,feet,jsons/v1_VE1000_randls_56.json,695708,843592,35,Woman
22,772911,DepthScenes,duration_manipulation_targetAtFixation,jsons/v1_VE1000_randls_56.json,http://54.235.29.9/FacialAge/BNav_EC2/DepthDuration/v2_depth_duration_MTurk/v2_DepthDuration_HTML.html#27,27,1920,1080,1920,1080,9-3-2022,9-17-32,23,depth_duration_stimuli/002639_2014-06-24_14-51-37_094959634447_rgbf000074-resize_4/002639_2014-06-24_14-51-37_094959634447_rgbf000074-resize_4-target.png,1000,4.0375,7,7870,1001,feet,jsons/v1_VE1000_randls_56.json,695708,843592,35,Woman
23,772911,DepthScenes,duration_manipulation_targetAtFixation,jsons/v1_VE1000_randls_56.json,http://54.235.29.9/FacialAge/BNav_EC2/DepthDuration/v2_depth_duration_MTurk/v2_DepthDuration_HTML.html#27,27,1920,1080,1920,1080,9-3-2022,9-17-32,24,depth_duration_stimuli/002039_2014-06-24_20-22-38_260595134347_rgbf000084-resize_1/002039_2014-06-24_20-22-38_260595134347_rgbf000084-resize_1-target.png,1000,4.408,12,3148,995,feet,jsons/v1_VE1000_randls_56.json,695708,843592,35,Woman
24,772911,DepthScenes,duration_manipulation_targetAtFixation,jsons/v1_VE1000_randls_56.json,http://54.235.29.9/FacialAge/BNav_EC2/DepthDuration/v2_depth_duration_MTurk/v2_DepthDuration_HTML.html#27,27,1920,1080,1920,1080,9-3-2022,9-17-32,25,depth_duration_stimuli/002103_2014-06-25_20-00-40_260595134347_rgbf000049-resize_0/002103_2014-06-25_20-00-40_260595134347_rgbf000049-resize_0-target.png,1000,4.105,10,5221,998,feet,jsons/v1_VE1000_randls_56.json,695708,843592,35,Woman
25,772911,DepthScenes,duration_manipulation_targetAtFixation,jsons/v1_VE1000_randls_56.json,http://54.235.29.9/FacialAge/BNav_EC2/DepthDuration/v2_depth_duration_MTurk/v2_DepthDuration_HTML.html#27,27,1920,1080,1920,1080,9-3-2022,9-17-32,26,depth_duration_stimuli/002784_2014-06-22_19-26-30_094959634447_rgbf000083-resize_3/002784_2014-06-22_19-26-30_094959634447_rgbf000083-resize_3-target.png,1000,1.8046666666667,5,3720,998,feet,jsons/v1_VE1000_randls_56.json,695708,843592,35,Woman
26,772911,DepthScenes,duration_manipulation_targetAtFixation,jsons/v1_VE1000_randls_56.json,http://54.235.29.9/FacialAge/BNav_EC2/DepthDuration/v2_depth_duration_MTurk/v2_DepthDuration_HTML.html#27,27,1920,1080,1920,1080,9-3-2022,9-17-32,27,depth_duration_stimuli/001100_2014-06-15_17-46-26_260595134347_rgbf000225-resize_2/001100_2014-06-15_17-46-26_260595134347_rgbf000225-resize_2-target.png,1000,2.24,4,3553,991,feet,jsons/v1_VE1000_randls_56.json,695708,843592,35,Woman
27,772911,DepthScenes,duration_manipulation_targetAtFixation,jsons/v1_VE1000_randls_56.json,http://54.235.29.9/FacialAge/BNav_EC2/DepthDuration/v2_depth_duration_MTurk/v2_DepthDuration_HTML.html#27,27,1920,1080,1920,1080,9-3-2022,9-17-32,28,depth_duration_stimuli/000009_2014-05-26_14-32-05_260595134347_rgbf000034-resize_3/000009_2014-05-26_14-32-05_260595134347_rgbf000034-resize_3-target.png,1000,3.8715,10,4002,994,feet,jsons/v1_VE1000_randls_56.json,695708,843592,35,Woman
28,772911,DepthScenes,duration_manipulation_targetAtFixation,jsons/v1_VE1000_randls_56.json,http://54.235.29.9/FacialAge/BNav_EC2/DepthDuration/v2_depth_duration_MTurk/v2_DepthDuration_HTML.html#27,27,1920,1080,1920,1080,9-3-2022,9-17-32,29,depth_duration_stimuli/001828_2014-06-26_21-40-03_260595134347_rgbf000024-resize_0/001828_2014-06-26_21-40-03_260595134347_rgbf000024-resize_0-target.png,1000,4.8260000000000005,7,4759,1001,feet,jsons/v1_VE1000_randls_56.json,695708,843592,35,Woman
29,772911,DepthScenes,duration_manipulation_targetAtFixation,jsons/v1_VE1000_randls_56.json,http://54.235.29.9/FacialAge/BNav_EC2/DepthDuration/v2_depth_duration_MTurk/v2_DepthDuration_HTML.html#27,27,1920,1080,1920,1080,9-3-2022,9-17-32,30,depth_duration_stimuli/000375_2014-06-08_11-17-29_260595134347_rgbf000133-resize_2/000375_2014-06-08_11-17-29_260595134347_rgbf000133-resize-original.jpg,1000,4.718,0,3968,999,feet,jsons/v1_VE1000_randls_56.json,695708,843592,35,Woman
30,772911,DepthScenes,duration_manipulation_targetAtFixation,jsons/v1_VE1000_randls_56.json,http://54.235.29.9/FacialAge/BNav_EC2/DepthDuration/v2_depth_duration_MTurk/v2_DepthDuration_HTML.html#27,27,1920,1080,1920,1080,9-3-2022,9-17-32,31,depth_duration_stimuli/000917_2014-06-09_22-45-29_260595134347_rgbf000149-resize_3/000917_2014-06-09_22-45-29_260595134347_rgbf000149-resize_3-target.png,1000,4.1865,8,4797,994,feet,jsons/v1_VE1000_randls_56.json,695708,843592,35,Woman
31,772911,DepthScenes,duration_manipulation_targetAtFixation,jsons/v1_VE1000_randls_56.json,http://54.235.29.9/FacialAge/BNav_EC2/DepthDuration/v2_depth_duration_MTurk/v2_DepthDuration_HTML.html#27,27,1920,1080,1920,1080,9-3-2022,9-17-32,32,depth_duration_stimuli/002323_2014-06-28_20-01-54_260595134347_rgbf000051-resize_4/002323_2014-06-28_20-01-54_260595134347_rgbf000051-resize_4-target.png,1000,3.7310000000000003,9,3688,989,feet,jsons/v1_VE1000_randls_56.json,695708,843592,35,Woman
32,772911,DepthScenes,duration_manipulation_targetAtFixation,jsons/v1_VE1000_randls_56.json,http://54.235.29.9/FacialAge/BNav_EC2/DepthDuration/v2_depth_duration_MTurk/v2_DepthDuration_HTML.html#27,27,1920,1080,1920,1080,9-3-2022,9-17-32,33,depth_duration_stimuli/001055_2014-06-08_18-45-35_260595134347_rgbf000111-resize_4/001055_2014-06-08_18-45-35_260595134347_rgbf000111-resize_4-target.png,1000,2.4290000000000003,4,4528,996,feet,jsons/v1_VE1000_randls_56.json,695708,843592,35,Woman
33,772911,DepthScenes,duration_manipulation_targetAtFixation,jsons/v1_VE1000_randls_56.json,http://54.235.29.9/FacialAge/BNav_EC2/DepthDuration/v2_depth_duration_MTurk/v2_DepthDuration_HTML.html#27,27,1920,1080,1920,1080,9-3-2022,9-17-32,34,depth_duration_stimuli/000549_2014-06-08_22-10-24_260595134347_rgbf000247-resize_3/000549_2014-06-08_22-10-24_260595134347_rgbf000247-resize_3-target.png,1000,1.841,1,2713,1009,feet,jsons/v1_VE1000_randls_56.json,695708,843592,35,Woman
34,772911,DepthScenes,duration_manipulation_targetAtFixation,jsons/v1_VE1000_randls_56.json,http://54.235.29.9/FacialAge/BNav_EC2/DepthDuration/v2_depth_duration_MTurk/v2_DepthDuration_HTML.html#27,27,1920,1080,1920,1080,9-3-2022,9-17-32,35,depth_duration_stimuli/003492_2014-05-21_15-50-55_094959634447_rgbf000828-resize_1/003492_2014-05-21_15-50-55_094959634447_rgbf000828-resize_1-target.png,1000,4.06875,12,4802,999,feet,jsons/v1_VE1000_randls_56.json,695708,843592,35,Woman
35,772911,DepthScenes,duration_manipulation_targetAtFixation,jsons/v1_VE1000_randls_56.json,http://54.235.29.9/FacialAge/BNav_EC2/DepthDuration/v2_depth_duration_MTurk/v2_DepthDuration_HTML.html#27,27,1920,1080,1920,1080,9-3-2022,9-17-32,36,depth_duration_stimuli/002568_2014-06-24_13-59-21_094959634447_rgbf000062-resize_4/002568_2014-06-24_13-59-21_094959634447_rgbf000062-resize_4-target.png,1000,3.015,7,3508,998,feet,jsons/v1_VE1000_randls_56.json,695708,843592,35,Woman
36,772911,DepthScenes,duration_manipulation_targetAtFixation,jsons/v1_VE1000_randls_56.json,http://54.235.29.9/FacialAge/BNav_EC2/DepthDuration/v2_depth_duration_MTurk/v2_DepthDuration_HTML.html#27,27,1920,1080,1920,1080,9-3-2022,9-17-32,37,depth_duration_stimuli/002272_2014-06-28_18-53-56_260595134347_rgbf000067-resize_2/002272_2014-06-28_18-53-56_260595134347_rgbf000067-resize_2-target.png,1000,1.138,3,2543,1003,feet,jsons/v1_VE1000_randls_56.json,695708,843592,35,Woman
37,772911,DepthScenes,duration_manipulation_targetAtFixation,jsons/v1_VE1000_randls_56.json,http://54.235.29.9/FacialAge/BNav_EC2/DepthDuration/v2_depth_duration_MTurk/v2_DepthDuration_HTML.html#27,27,1920,1080,1920,1080,9-3-2022,9-17-32,38,depth_duration_stimuli/001571_2014-06-20_17-21-32_260595134347_rgbf000089-resize_1/001571_2014-06-20_17-21-32_260595134347_rgbf000089-resize_1-target.png,1000,1.86,3,4108,993,feet,jsons/v1_VE1000_randls_56.json,695708,843592,35,Woman
38,772911,DepthScenes,duration_manipulation_targetAtFixation,jsons/v1_VE1000_randls_56.json,http://54.235.29.9/FacialAge/BNav_EC2/DepthDuration/v2_depth_duration_MTurk/v2_DepthDuration_HTML.html#27,27,1920,1080,1920,1080,9-3-2022,9-17-32,39,depth_duration_stimuli/000493_2014-06-09_21-01-18_260595134347_rgbf000196-resize_3/000493_2014-06-09_21-01-18_260595134347_rgbf000196-resize_3-target.png,1000,3.44,6,2829,1004,feet,jsons/v1_VE1000_randls_56.json,695708,843592,35,Woman
39,772911,DepthScenes,duration_manipulation_targetAtFixation,jsons/v1_VE1000_randls_56.json,http://54.235.29.9/FacialAge/BNav_EC2/DepthDuration/v2_depth_duration_MTurk/v2_DepthDuration_HTML.html#27,27,1920,1080,1920,1080,9-3-2022,9-17-32,40,depth_duration_stimuli/000191_2014-05-12_17-07-38_260595134347_rgbf000199-resize_0/000191_2014-05-12_17-07-38_260595134347_rgbf000199-resize_0-target.png,1000,3.7995,10,3844,1010,feet,jsons/v1_VE1000_randls_56.json,695708,843592,35,Woman
40,772911,DepthScenes,duration_manipulation_targetAtFixation,jsons/v1_VE1000_randls_56.json,http://54.235.29.9/FacialAge/BNav_EC2/DepthDuration/v2_depth_duration_MTurk/v2_DepthDuration_HTML.html#27,27,1920,1080,1920,1080,9-3-2022,9-17-32,41,depth_duration_stimuli/002905_2014-06-03_18-04-43_094959634447_rgbf000151-resize_2/002905_2014-06-03_18-04-43_094959634447_rgbf000151-resize_2-target.png,1000,2.0295,4,4335,1003,feet,jsons/v1_VE1000_randls_56.json,695708,843592,35,Woman
41,772911,DepthScenes,duration_manipulation_targetAtFixation,jsons/v1_VE1000_randls_56.json,http://54.235.29.9/FacialAge/BNav_EC2/DepthDuration/v2_depth_duration_MTurk/v2_DepthDuration_HTML.html#27,27,1920,1080,1920,1080,9-3-2022,9-17-32,42,depth_duration_stimuli/003423_2014-05-21_10-23-26_094959634447_rgbf002665-resize_2/003423_2014-05-21_10-23-26_094959634447_rgbf002665-resize_2-target.png,1000,3.2575,8,3195,1003,feet,jsons/v1_VE1000_randls_56.json,695708,843592,35,Woman
42,772911,DepthScenes,duration_manipulation_targetAtFixation,jsons/v1_VE1000_randls_56.json,http://54.235.29.9/FacialAge/BNav_EC2/DepthDuration/v2_depth_duration_MTurk/v2_DepthDuration_HTML.html#27,27,1920,1080,1920,1080,9-3-2022,9-17-32,43,depth_duration_stimuli/000878_2014-06-08_22-52-45_260595134347_rgbf000045-resize_2/000878_2014-06-08_22-52-45_260595134347_rgbf000045-resize_2-target.png,1000,2.092,6,2553,1002,feet,jsons/v1_VE1000_randls_56.json,695708,843592,35,Woman
43,772911,DepthScenes,duration_manipulation_targetAtFixation,jsons/v1_VE1000_randls_56.json,http://54.235.29.9/FacialAge/BNav_EC2/DepthDuration/v2_depth_duration_MTurk/v2_DepthDuration_HTML.html#27,27,1920,1080,1920,1080,9-3-2022,9-17-32,44,depth_duration_stimuli/002953_2014-06-08_17-32-18_094959634447_rgbf000059-resize_5/002953_2014-06-08_17-32-18_094959634447_rgbf000059-resize_5-target.png,1000,1.551,3,3519,996,feet,jsons/v1_VE1000_randls_56.json,695708,843592,35,Woman
44,772911,DepthScenes,duration_manipulation_targetAtFixation,jsons/v1_VE1000_randls_56.json,http://54.235.29.9/FacialAge/BNav_EC2/DepthDuration/v2_depth_duration_MTurk/v2_DepthDuration_HTML.html#27,27,1920,1080,1920,1080,9-3-2022,9-17-32,45,depth_duration_stimuli/000787_2014-06-08_22-33-53_260595134347_rgbf000175-resize_1/000787_2014-06-08_22-33-53_260595134347_rgbf000175-resize-original.jpg,1000,4.784,0,3051,1011,feet,jsons/v1_VE1000_randls_56.json,695708,843592,35,Woman
45,772911,DepthScenes,duration_manipulation_targetAtFixation,jsons/v1_VE1000_randls_56.json,http://54.235.29.9/FacialAge/BNav_EC2/DepthDuration/v2_depth_duration_MTurk/v2_DepthDuration_HTML.html#27,27,1920,1080,1920,1080,9-3-2022,9-17-32,46,depth_duration_stimuli/002153_2014-06-25_21-27-18_260595134347_rgbf000038-resize_5/002153_2014-06-25_21-27-18_260595134347_rgbf000038-resize_5-target.png,1000,2.505,4,6089,1002,feet,jsons/v1_VE1000_randls_56.json,695708,843592,35,Woman
46,772911,DepthScenes,duration_manipulation_targetAtFixation,jsons/v1_VE1000_randls_56.json,http://54.235.29.9/FacialAge/BNav_EC2/DepthDuration/v2_depth_duration_MTurk/v2_DepthDuration_HTML.html#27,27,1920,1080,1920,1080,9-3-2022,9-17-32,47,depth_duration_stimuli/002660_2014-06-13_15-44-18_094959634447_rgbf001878-resize_2/002660_2014-06-13_15-44-18_094959634447_rgbf001878-resize_2-target.png,1000,3.576,7,2979,1002,feet,jsons/v1_VE1000_randls_56.json,695708,843592,35,Woman
47,772911,DepthScenes,duration_manipulation_targetAtFixation,jsons/v1_VE1000_randls_56.json,http://54.235.29.9/FacialAge/BNav_EC2/DepthDuration/v2_depth_duration_MTurk/v2_DepthDuration_HTML.html#27,27,1920,1080,1920,1080,9-3-2022,9-17-32,48,depth_duration_stimuli/000929_2014-06-09_16-33-19_260595134347_rgbf000139-resize_0/000929_2014-06-09_16-33-19_260595134347_rgbf000139-resize_0-target.png,1000,2.8680000000000003,5,2580,1000,feet,jsons/v1_VE1000_randls_56.json,695708,843592,35,Woman
48,772911,DepthScenes,duration_manipulation_targetAtFixation,jsons/v1_VE1000_randls_56.json,http://54.235.29.9/FacialAge/BNav_EC2/DepthDuration/v2_depth_duration_MTurk/v2_DepthDuration_HTML.html#27,27,1920,1080,1920,1080,9-3-2022,9-17-32,49,depth_duration_stimuli/000457_2014-06-08_16-52-43_260595134347_rgbf000199-resize_1/000457_2014-06-08_16-52-43_260595134347_rgbf000199-resize_1-target.png,1000,3.6489999999999996,8,2468,985,feet,jsons/v1_VE1000_randls_56.json,695708,843592,35,Woman
49,772911,DepthScenes,duration_manipulation_targetAtFixation,jsons/v1_VE1000_randls_56.json,http://54.235.29.9/FacialAge/BNav_EC2/DepthDuration/v2_depth_duration_MTurk/v2_DepthDuration_HTML.html#27,27,1920,1080,1920,1080,9-3-2022,9-17-32,50,depth_duration_stimuli/001167_2014-06-17_15-38-07_260595134347_rgbf000108-resize_0/001167_2014-06-17_15-38-07_260595134347_rgbf000108-resize_0-target.png,1000,1.8505,3,3403,1011,feet,jsons/v1_VE1000_randls_56.json,695708,843592,35,Woman
50,772911,DepthScenes,duration_manipulation_targetAtFixation,jsons/v1_VE1000_randls_56.json,http://54.235.29.9/FacialAge/BNav_EC2/DepthDuration/v2_depth_duration_MTurk/v2_DepthDuration_HTML.html#27,27,1920,1080,1920,1080,9-3-2022,9-17-32,51,depth_duration_stimuli/003587_2014-05-23_16-48-02_094959634447_rgbf002384-resize_2/003587_2014-05-23_16-48-02_094959634447_rgbf002384-resize_2-target.png,1000,1.357,2,2692,1000,feet,jsons/v1_VE1000_randls_56.json,695708,843592,35,Woman
51,772911,DepthScenes,duration_manipulation_targetAtFixation,jsons/v1_VE1000_randls_56.json,http://54.235.29.9/FacialAge/BNav_EC2/DepthDuration/v2_depth_duration_MTurk/v2_DepthDuration_HTML.html#27,27,1920,1080,1920,1080,9-3-2022,9-17-32,52,depth_duration_stimuli/001059_2014-06-08_21-53-27_260595134347_rgbf000061-resize_4/001059_2014-06-08_21-53-27_260595134347_rgbf000061-resize_4-target.png,1000,2.4185,5,2847,995,feet,jsons/v1_VE1000_randls_56.json,695708,843592,35,Woman
52,772911,DepthScenes,duration_manipulation_targetAtFixation,jsons/v1_VE1000_randls_56.json,http://54.235.29.9/FacialAge/BNav_EC2/DepthDuration/v2_depth_duration_MTurk/v2_DepthDuration_HTML.html#27,27,1920,1080,1920,1080,9-3-2022,9-17-32,53,depth_duration_stimuli/001032_2014-06-08_13-23-17_260595134347_rgbf000021-resize_3/001032_2014-06-08_13-23-17_260595134347_rgbf000021-resize_3-target.png,1000,3.2725,5,6538,1012,feet,jsons/v1_VE1000_randls_56.json,695708,843592,35,Woman
53,772911,DepthScenes,duration_manipulation_targetAtFixation,jsons/v1_VE1000_randls_56.json,http://54.235.29.9/FacialAge/BNav_EC2/DepthDuration/v2_depth_duration_MTurk/v2_DepthDuration_HTML.html#27,27,1920,1080,1920,1080,9-3-2022,9-17-32,54,depth_duration_stimuli/002445_2014-06-28_20-32-16_260595134347_rgbf000029-resize_4/002445_2014-06-28_20-32-16_260595134347_rgbf000029-resize_4-target.png,1000,2.5315,4,3470,1011,feet,jsons/v1_VE1000_randls_56.json,695708,843592,35,Woman
54,772911,DepthScenes,duration_manipulation_targetAtFixation,jsons/v1_VE1000_randls_56.json,http://54.235.29.9/FacialAge/BNav_EC2/DepthDuration/v2_depth_duration_MTurk/v2_DepthDuration_HTML.html#27,27,1920,1080,1920,1080,9-3-2022,9-17-32,55,depth_duration_stimuli/000780_2014-06-08_22-28-29_260595134347_rgbf000126-resize_1/000780_2014-06-08_22-28-29_260595134347_rgbf000126-resize_1-target.png,1000,3.3825,10,5354,1000,feet,jsons/v1_VE1000_randls_56.json,695708,843592,35,Woman
55,772911,DepthScenes,duration_manipulation_targetAtFixation,jsons/v1_VE1000_randls_56.json,http://54.235.29.9/FacialAge/BNav_EC2/DepthDuration/v2_depth_duration_MTurk/v2_DepthDuration_HTML.html#27,27,1920,1080,1920,1080,9-3-2022,9-17-32,56,depth_duration_stimuli/000758_2014-06-08_22-05-08_260595134347_rgbf000085-resize_0/000758_2014-06-08_22-05-08_260595134347_rgbf000085-resize_0-target.png,1000,3.3810000000000002,11,4490,1003,feet,jsons/v1_VE1000_randls_56.json,695708,843592,35,Woman
56,772911,DepthScenes,duration_manipulation_targetAtFixation,jsons/v1_VE1000_randls_56.json,http://54.235.29.9/FacialAge/BNav_EC2/DepthDuration/v2_depth_duration_MTurk/v2_DepthDuration_HTML.html#27,27,1920,1080,1920,1080,9-3-2022,9-17-32,57,depth_duration_stimuli/000854_2014-06-09_19-43-13_260595134347_rgbf000066-resize_0/000854_2014-06-09_19-43-13_260595134347_rgbf000066-resize_0-target.png,1000,3.068,4,3863,998,feet,jsons/v1_VE1000_randls_56.json,695708,843592,35,Woman
57,772911,DepthScenes,duration_manipulation_targetAtFixation,jsons/v1_VE1000_randls_56.json,http://54.235.29.9/FacialAge/BNav_EC2/DepthDuration/v2_depth_duration_MTurk/v2_DepthDuration_HTML.html#27,27,1920,1080,1920,1080,9-3-2022,9-17-32,58,depth_duration_stimuli/000447_2014-06-08_16-15-46_260595134347_rgbf000130-resize_1/000447_2014-06-08_16-15-46_260595134347_rgbf000130-resize_1-target.png,1000,4.479,9,3473,1001,feet,jsons/v1_VE1000_randls_56.json,695708,843592,35,Woman
58,772911,DepthScenes,duration_manipulation_targetAtFixation,jsons/v1_VE1000_randls_56.json,http://54.235.29.9/FacialAge/BNav_EC2/DepthDuration/v2_depth_duration_MTurk/v2_DepthDuration_HTML.html#27,27,1920,1080,1920,1080,9-3-2022,9-17-32,59,depth_duration_stimuli/001447_2014-06-19_17-00-32_260595134347_rgbf000082-resize_5/001447_2014-06-19_17-00-32_260595134347_rgbf000082-resize_5-target.png,1000,4.13775,6,5506,992,feet,jsons/v1_VE1000_randls_56.json,695708,843592,35,Woman
59,772911,DepthScenes,duration_manipulation_targetAtFixation,jsons/v1_VE1000_randls_56.json,http://54.235.29.9/FacialAge/BNav_EC2/DepthDuration/v2_depth_duration_MTurk/v2_DepthDuration_HTML.html#27,27,1920,1080,1920,1080,9-3-2022,9-17-32,60,depth_duration_stimuli/001110_2014-06-15_17-25-28_260595134347_rgbf000150-resize_1/001110_2014-06-15_17-25-28_260595134347_rgbf000150-resize_1-target.png,1000,1.7115,4,4430,998,feet,jsons/v1_VE1000_randls_56.json,695708,843592,35,Woman
60,772911,DepthScenes,duration_manipulation_targetAtFixation,jsons/v1_VE1000_randls_56.json,http://54.235.29.9/FacialAge/BNav_EC2/DepthDuration/v2_depth_duration_MTurk/v2_DepthDuration_HTML.html#27,27,1920,1080,1920,1080,9-3-2022,9-17-32,61,depth_duration_stimuli/000927_2014-06-09_16-32-30_260595134347_rgbf000123-resize_3/000927_2014-06-09_16-32-30_260595134347_rgbf000123-resize_3-target.png,1000,2.6785,7,4137,998,feet,jsons/v1_VE1000_randls_56.json,695708,843592,35,Woman
61,772911,DepthScenes,duration_manipulation_targetAtFixation,jsons/v1_VE1000_randls_56.json,http://54.235.29.9/FacialAge/BNav_EC2/DepthDuration/v2_depth_duration_MTurk/v2_DepthDuration_HTML.html#27,27,1920,1080,1920,1080,9-3-2022,9-17-32,62,depth_duration_stimuli/002375_2014-06-28_20-13-44_260595134347_rgbf000032-resize_1/002375_2014-06-28_20-13-44_260595134347_rgbf000032-resize_1-target.png,1000,4.0175,6,3768,998,feet,jsons/v1_VE1000_randls_56.json,695708,843592,35,Woman
62,772911,DepthScenes,duration_manipulation_targetAtFixation,jsons/v1_VE1000_randls_56.json,http://54.235.29.9/FacialAge/BNav_EC2/DepthDuration/v2_depth_duration_MTurk/v2_DepthDuration_HTML.html#27,27,1920,1080,1920,1080,9-3-2022,9-17-32,63,depth_duration_stimuli/002657_2014-06-13_15-29-54_094959634447_rgbf000150-resize_1/002657_2014-06-13_15-29-54_094959634447_rgbf000150-resize_1-target.png,1000,4.919,10,3185,997,feet,jsons/v1_VE1000_randls_56.json,695708,843592,35,Woman
63,772911,DepthScenes,duration_manipulation_targetAtFixation,jsons/v1_VE1000_randls_56.json,http://54.235.29.9/FacialAge/BNav_EC2/DepthDuration/v2_depth_duration_MTurk/v2_DepthDuration_HTML.html#27,27,1920,1080,1920,1080,9-3-2022,9-17-32,64,depth_duration_stimuli/002213_2014-06-28_18-37-58_260595134347_rgbf000055-resize_1/002213_2014-06-28_18-37-58_260595134347_rgbf000055-resize_1-target.png,1000,3.62,14,3746,999,feet,jsons/v1_VE1000_randls_56.json,695708,843592,35,Woman
64,772911,DepthScenes,duration_manipulation_targetAtFixation,jsons/v1_VE1000_randls_56.json,http://54.235.29.9/FacialAge/BNav_EC2/DepthDuration/v2_depth_duration_MTurk/v2_DepthDuration_HTML.html#27,27,1920,1080,1920,1080,9-3-2022,9-17-32,65,depth_duration_stimuli/000691_2014-06-08_13-08-50_260595134347_rgbf000132-resize_3/000691_2014-06-08_13-08-50_260595134347_rgbf000132-resize_3-target.png,1000,4.1530000000000005,9,4016,1012,feet,jsons/v1_VE1000_randls_56.json,695708,843592,35,Woman
65,772911,DepthScenes,duration_manipulation_targetAtFixation,jsons/v1_VE1000_randls_56.json,http://54.235.29.9/FacialAge/BNav_EC2/DepthDuration/v2_depth_duration_MTurk/v2_DepthDuration_HTML.html#27,27,1920,1080,1920,1080,9-3-2022,9-17-32,66,depth_duration_stimuli/001222_2014-06-17_16-24-06_260595134347_rgbf000073-resize_0/001222_2014-06-17_16-24-06_260595134347_rgbf000073-resize-original.jpg,1000,1.4385,0,2490,998,feet,jsons/v1_VE1000_randls_56.json,695708,843592,35,Woman
66,772911,DepthScenes,duration_manipulation_targetAtFixation,jsons/v1_VE1000_randls_56.json,http://54.235.29.9/FacialAge/BNav_EC2/DepthDuration/v2_depth_duration_MTurk/v2_DepthDuration_HTML.html#27,27,1920,1080,1920,1080,9-3-2022,9-17-32,67,depth_duration_stimuli/000469_2014-06-09_19-42-10_260595134347_rgbf000081-resize_1/000469_2014-06-09_19-42-10_260595134347_rgbf000081-resize_1-target.png,1000,1.652,3,3530,997,feet,jsons/v1_VE1000_randls_56.json,695708,843592,35,Woman
67,772911,DepthScenes,duration_manipulation_targetAtFixation,jsons/v1_VE1000_randls_56.json,http://54.235.29.9/FacialAge/BNav_EC2/DepthDuration/v2_depth_duration_MTurk/v2_DepthDuration_HTML.html#27,27,1920,1080,1920,1080,9-3-2022,9-17-32,68,depth_duration_stimuli/000483_2014-06-09_20-41-45_260595134347_rgbf000116-resize_4/000483_2014-06-09_20-41-45_260595134347_rgbf000116-resize_4-target.png,1000,1.337,2,2723,1008,feet,jsons/v1_VE1000_randls_56.json,695708,843592,35,Woman
68,772911,DepthScenes,duration_manipulation_targetAtFixation,jsons/v1_VE1000_randls_56.json,http://54.235.29.9/FacialAge/BNav_EC2/DepthDuration/v2_depth_duration_MTurk/v2_DepthDuration_HTML.html#27,27,1920,1080,1920,1080,9-3-2022,9-17-32,69,depth_duration_stimuli/000642_2014-06-08_16-59-25_260595134347_rgbf000098-resize_2/000642_2014-06-08_16-59-25_260595134347_rgbf000098-resize_2-target.png,1000,2.8815,6,4356,1003,feet,jsons/v1_VE1000_randls_56.json,695708,843592,35,Woman
69,772911,DepthScenes,duration_manipulation_targetAtFixation,jsons/v1_VE1000_randls_56.json,http://54.235.29.9/FacialAge/BNav_EC2/DepthDuration/v2_depth_duration_MTurk/v2_DepthDuration_HTML.html#27,27,1920,1080,1920,1080,9-3-2022,9-17-32,70,depth_duration_stimuli/002425_2014-06-28_20-27-29_260595134347_rgbf000031-resize_8/002425_2014-06-28_20-27-29_260595134347_rgbf000031-resize_8-target.png,1000,3.8960000000000004,10,3074,1010,feet,jsons/v1_VE1000_randls_56.json,695708,843592,35,Woman
70,772911,DepthScenes,duration_manipulation_targetAtFixation,jsons/v1_VE1000_randls_56.json,http://54.235.29.9/FacialAge/BNav_EC2/DepthDuration/v2_depth_duration_MTurk/v2_DepthDuration_HTML.html#27,27,1920,1080,1920,1080,9-3-2022,9-17-32,71,depth_duration_stimuli/002118_2014-06-25_20-32-08_260595134347_rgbf000078-resize_1/002118_2014-06-25_20-32-08_260595134347_rgbf000078-resize_1-target.png,1000,2.6460000000000004,5,2615,995,feet,jsons/v1_VE1000_randls_56.json,695708,843592,35,Woman
71,772911,DepthScenes,duration_manipulation_targetAtFixation,jsons/v1_VE1000_randls_56.json,http://54.235.29.9/FacialAge/BNav_EC2/DepthDuration/v2_depth_duration_MTurk/v2_DepthDuration_HTML.html#27,27,1920,1080,1920,1080,9-3-2022,9-17-32,72,depth_duration_stimuli/001516_2014-06-20_16-25-09_260595134347_rgbf000076-resize_2/001516_2014-06-20_16-25-09_260595134347_rgbf000076-resize_2-target.png,1000,1.7445,3,2552,1005,feet,jsons/v1_VE1000_randls_56.json,695708,843592,35,Woman
72,772911,DepthScenes,duration_manipulation_targetAtFixation,jsons/v1_VE1000_randls_56.json,http://54.235.29.9/FacialAge/BNav_EC2/DepthDuration/v2_depth_duration_MTurk/v2_DepthDuration_HTML.html#27,27,1920,1080,1920,1080,9-3-2022,9-17-32,73,depth_duration_stimuli/000486_2014-06-09_20-47-20_260595134347_rgbf000143-resize_2/000486_2014-06-09_20-47-20_260595134347_rgbf000143-resize_2-target.png,1000,4.8325,8,4277,1000,feet,jsons/v1_VE1000_randls_56.json,695708,843592,35,Woman
73,772911,DepthScenes,duration_manipulation_targetAtFixation,jsons/v1_VE1000_randls_56.json,http://54.235.29.9/FacialAge/BNav_EC2/DepthDuration/v2_depth_duration_MTurk/v2_DepthDuration_HTML.html#27,27,1920,1080,1920,1080,9-3-2022,9-17-32,74,depth_duration_stimuli/003083_2014-06-15_15-21-03_094959634447_rgbf000063-resize_1/003083_2014-06-15_15-21-03_094959634447_rgbf000063-resize_1-target.png,1000,4.1405,15,2871,1000,feet,jsons/v1_VE1000_randls_56.json,695708,843592,35,Woman
74,772911,DepthScenes,duration_manipulation_targetAtFixation,jsons/v1_VE1000_randls_56.json,http://54.235.29.9/FacialAge/BNav_EC2/DepthDuration/v2_depth_duration_MTurk/v2_DepthDuration_HTML.html#27,27,1920,1080,1920,1080,9-3-2022,9-17-32,75,depth_duration_stimuli/000788_2014-06-08_22-34-36_260595134347_rgbf000131-resize_1/000788_2014-06-08_22-34-36_260595134347_rgbf000131-resize_1-target.png,1000,3.359,8,2950,993,feet,jsons/v1_VE1000_randls_56.json,695708,843592,35,Woman
75,772911,DepthScenes,duration_manipulation_targetAtFixation,jsons/v1_VE1000_randls_56.json,http://54.235.29.9/FacialAge/BNav_EC2/DepthDuration/v2_depth_duration_MTurk/v2_DepthDuration_HTML.html#27,27,1920,1080,1920,1080,9-3-2022,9-17-32,76,depth_duration_stimuli/001235_2014-06-17_16-37-36_260595134347_rgbf000084-resize_4/001235_2014-06-17_16-37-36_260595134347_rgbf000084-resize_4-target.png,1000,3.6605,7,4387,993,feet,jsons/v1_VE1000_randls_56.json,695708,843592,35,Woman
76,772911,DepthScenes,duration_manipulation_targetAtFixation,jsons/v1_VE1000_randls_56.json,http://54.235.29.9/FacialAge/BNav_EC2/DepthDuration/v2_depth_duration_MTurk/v2_DepthDuration_HTML.html#27,27,1920,1080,1920,1080,9-3-2022,9-17-32,77,depth_duration_stimuli/001133_2014-06-17_14-49-16_260595134347_rgbf000100-resize_0/001133_2014-06-17_14-49-16_260595134347_rgbf000100-resize_0-target.png,1000,4.2115,10,6340,986,feet,jsons/v1_VE1000_randls_56.json,695708,843592,35,Woman
77,772911,DepthScenes,duration_manipulation_targetAtFixation,jsons/v1_VE1000_randls_56.json,http://54.235.29.9/FacialAge/BNav_EC2/DepthDuration/v2_depth_duration_MTurk/v2_DepthDuration_HTML.html#27,27,1920,1080,1920,1080,9-3-2022,9-17-32,78,depth_duration_stimuli/001132_2014-06-17_14-48-54_260595134347_rgbf000100-resize_2/001132_2014-06-17_14-48-54_260595134347_rgbf000100-resize_2-target.png,1000,3.753,8,3469,996,feet,jsons/v1_VE1000_randls_56.json,695708,843592,35,Woman
78,772911,DepthScenes,duration_manipulation_targetAtFixation,jsons/v1_VE1000_randls_56.json,http://54.235.29.9/FacialAge/BNav_EC2/DepthDuration/v2_depth_duration_MTurk/v2_DepthDuration_HTML.html#27,27,1920,1080,1920,1080,9-3-2022,9-17-32,79,depth_duration_stimuli/002057_2014-06-24_21-00-13_260595134347_rgbf000120-resize_1/002057_2014-06-24_21-00-13_260595134347_rgbf000120-resize_1-target.png,1000,2.967,10,3771,1004,feet,jsons/v1_VE1000_randls_56.json,695708,843592,35,Woman
79,772911,DepthScenes,duration_manipulation_targetAtFixation,jsons/v1_VE1000_randls_56.json,http://54.235.29.9/FacialAge/BNav_EC2/DepthDuration/v2_depth_duration_MTurk/v2_DepthDuration_HTML.html#27,27,1920,1080,1920,1080,9-3-2022,9-17-32,80,depth_duration_stimuli/000709_2014-06-08_13-51-55_260595134347_rgbf000068-resize_3/000709_2014-06-08_13-51-55_260595134347_rgbf000068-resize_3-target.png,1000,1.8030000000000002,4,3289,999,feet,jsons/v1_VE1000_randls_56.json,695708,843592,35,Woman
80,772911,DepthScenes,duration_manipulation_targetAtFixation,jsons/v1_VE1000_randls_56.json,http://54.235.29.9/FacialAge/BNav_EC2/DepthDuration/v2_depth_duration_MTurk/v2_DepthDuration_HTML.html#27,27,1920,1080,1920,1080,9-3-2022,9-17-32,81,depth_duration_stimuli/001199_2014-06-17_16-03-48_260595134347_rgbf000077-resize_0/001199_2014-06-17_16-03-48_260595134347_rgbf000077-resize_0-target.png,1000,3.4375,8,6533,998,feet,jsons/v1_VE1000_randls_56.json,695708,843592,35,Woman
81,772911,DepthScenes,duration_manipulation_targetAtFixation,jsons/v1_VE1000_randls_56.json,http://54.235.29.9/FacialAge/BNav_EC2/DepthDuration/v2_depth_duration_MTurk/v2_DepthDuration_HTML.html#27,27,1920,1080,1920,1080,9-3-2022,9-17-32,82,depth_duration_stimuli/000502_2014-06-08_23-02-32_260595134347_rgbf000063-resize_4/000502_2014-06-08_23-02-32_260595134347_rgbf000063-resize_4-target.png,1000,2.431,2,3851,985,feet,jsons/v1_VE1000_randls_56.json,695708,843592,35,Woman
82,772911,DepthScenes,duration_manipulation_targetAtFixation,jsons/v1_VE1000_randls_56.json,http://54.235.29.9/FacialAge/BNav_EC2/DepthDuration/v2_depth_duration_MTurk/v2_DepthDuration_HTML.html#27,27,1920,1080,1920,1080,9-3-2022,9-17-32,83,depth_duration_stimuli/002630_2014-06-24_14-47-50_094959634447_rgbf000055-resize_1/002630_2014-06-24_14-47-50_094959634447_rgbf000055-resize_1-target.png,1000,3.0095,11,3592,1002,feet,jsons/v1_VE1000_randls_56.json,695708,843592,35,Woman
83,772911,DepthScenes,duration_manipulation_targetAtFixation,jsons/v1_VE1000_randls_56.json,http://54.235.29.9/FacialAge/BNav_EC2/DepthDuration/v2_depth_duration_MTurk/v2_DepthDuration_HTML.html#27,27,1920,1080,1920,1080,9-3-2022,9-17-32,84,depth_duration_stimuli/002758_2014-06-22_19-11-20_094959634447_rgbf000128-resize_1/002758_2014-06-22_19-11-20_094959634447_rgbf000128-resize_1-target.png,1000,2.555,4,2742,995,feet,jsons/v1_VE1000_randls_56.json,695708,843592,35,Woman
84,772911,DepthScenes,duration_manipulation_targetAtFixation,jsons/v1_VE1000_randls_56.json,http://54.235.29.9/FacialAge/BNav_EC2/DepthDuration/v2_depth_duration_MTurk/v2_DepthDuration_HTML.html#27,27,1920,1080,1920,1080,9-3-2022,9-17-32,85,depth_duration_stimuli/001806_2014-06-26_20-50-20_260595134347_rgbf000091-resize_1/001806_2014-06-26_20-50-20_260595134347_rgbf000091-resize_1-target.png,1000,2.7305,4,3287,995,feet,jsons/v1_VE1000_randls_56.json,695708,843592,35,Woman
85,772911,DepthScenes,duration_manipulation_targetAtFixation,jsons/v1_VE1000_randls_56.json,http://54.235.29.9/FacialAge/BNav_EC2/DepthDuration/v2_depth_duration_MTurk/v2_DepthDuration_HTML.html#27,27,1920,1080,1920,1080,9-3-2022,9-17-32,86,depth_duration_stimuli/001617_2014-06-20_11-35-32_260595134347_rgbf000066-resize_1/001617_2014-06-20_11-35-32_260595134347_rgbf000066-resize_1-target.png,1000,3.7910000000000004,8,3487,998,feet,jsons/v1_VE1000_randls_56.json,695708,843592,35,Woman
86,772911,DepthScenes,duration_manipulation_targetAtFixation,jsons/v1_VE1000_randls_56.json,http://54.235.29.9/FacialAge/BNav_EC2/DepthDuration/v2_depth_duration_MTurk/v2_DepthDuration_HTML.html#27,27,1920,1080,1920,1080,9-3-2022,9-17-32,87,depth_duration_stimuli/001056_2014-06-08_18-46-44_260595134347_rgbf000068-resize_0/001056_2014-06-08_18-46-44_260595134347_rgbf000068-resize_0-target.png,1000,2.6625,7,3305,1001,feet,jsons/v1_VE1000_randls_56.json,695708,843592,35,Woman
87,772911,DepthScenes,duration_manipulation_targetAtFixation,jsons/v1_VE1000_randls_56.json,http://54.235.29.9/FacialAge/BNav_EC2/DepthDuration/v2_depth_duration_MTurk/v2_DepthDuration_HTML.html#27,27,1920,1080,1920,1080,9-3-2022,9-17-32,88,depth_duration_stimuli/002199_2014-06-28_18-33-56_260595134347_rgbf000074-resize_0/002199_2014-06-28_18-33-56_260595134347_rgbf000074-resize_0-target.png,1000,1.996,2,2608,1008,feet,jsons/v1_VE1000_randls_56.json,695708,843592,35,Woman
88,772911,DepthScenes,duration_manipulation_targetAtFixation,jsons/v1_VE1000_randls_56.json,http://54.235.29.9/FacialAge/BNav_EC2/DepthDuration/v2_depth_duration_MTurk/v2_DepthDuration_HTML.html#27,27,1920,1080,1920,1080,9-3-2022,9-17-32,89,depth_duration_stimuli/002549_2014-06-24_13-41-39_094959634447_rgbf000022-resize_3/002549_2014-06-24_13-41-39_094959634447_rgbf000022-resize_3-target.png,1000,1.476,2,2364,985,feet,jsons/v1_VE1000_randls_56.json,695708,843592,35,Woman
89,772911,DepthScenes,duration_manipulation_targetAtFixation,jsons/v1_VE1000_randls_56.json,http://54.235.29.9/FacialAge/BNav_EC2/DepthDuration/v2_depth_duration_MTurk/v2_DepthDuration_HTML.html#27,27,1920,1080,1920,1080,9-3-2022,9-17-32,90,depth_duration_stimuli/002750_2014-06-22_19-08-03_094959634447_rgbf000094-resize_4/002750_2014-06-22_19-08-03_094959634447_rgbf000094-resize_4-target.png,1000,2.354,6,3512,996,feet,jsons/v1_VE1000_randls_56.json,695708,843592,35,Woman
90,772911,DepthScenes,duration_manipulation_targetAtFixation,jsons/v1_VE1000_randls_56.json,http://54.235.29.9/FacialAge/BNav_EC2/DepthDuration/v2_depth_duration_MTurk/v2_DepthDuration_HTML.html#27,27,1920,1080,1920,1080,9-3-2022,9-17-32,91,depth_duration_stimuli/002748_2014-06-22_19-07-22_094959634447_rgbf000078-resize_1/002748_2014-06-22_19-07-22_094959634447_rgbf000078-resize_1-target.png,1000,4.6705,12,3490,999,feet,jsons/v1_VE1000_randls_56.json,695708,843592,35,Woman
91,772911,DepthScenes,duration_manipulation_targetAtFixation,jsons/v1_VE1000_randls_56.json,http://54.235.29.9/FacialAge/BNav_EC2/DepthDuration/v2_depth_duration_MTurk/v2_DepthDuration_HTML.html#27,27,1920,1080,1920,1080,9-3-2022,9-17-32,92,depth_duration_stimuli/002995_2014-06-15_12-31-26_094959634447_rgbf000150-resize_1/002995_2014-06-15_12-31-26_094959634447_rgbf000150-resize_1-target.png,1000,3.8360000000000003,10,2819,992,feet,jsons/v1_VE1000_randls_56.json,695708,843592,35,Woman
92,772911,DepthScenes,duration_manipulation_targetAtFixation,jsons/v1_VE1000_randls_56.json,http://54.235.29.9/FacialAge/BNav_EC2/DepthDuration/v2_depth_duration_MTurk/v2_DepthDuration_HTML.html#27,27,1920,1080,1920,1080,9-3-2022,9-17-32,93,depth_duration_stimuli/001011_2014-06-08_23-18-54_260595134347_rgbf000044-resize_4/001011_2014-06-08_23-18-54_260595134347_rgbf000044-resize_4-target.png,1000,2.4730000000000003,8,3828,994,feet,jsons/v1_VE1000_randls_56.json,695708,843592,35,Woman
93,772911,DepthScenes,duration_manipulation_targetAtFixation,jsons/v1_VE1000_randls_56.json,http://54.235.29.9/FacialAge/BNav_EC2/DepthDuration/v2_depth_duration_MTurk/v2_DepthDuration_HTML.html#27,27,1920,1080,1920,1080,9-3-2022,9-17-32,94,depth_duration_stimuli/002875_2014-06-01_15-19-00_094959634447_rgbf000151-resize_1/002875_2014-06-01_15-19-00_094959634447_rgbf000151-resize_1-target.png,1000,1.9675,3,4278,1003,feet,jsons/v1_VE1000_randls_56.json,695708,843592,35,Woman
94,772911,DepthScenes,duration_manipulation_targetAtFixation,jsons/v1_VE1000_randls_56.json,http://54.235.29.9/FacialAge/BNav_EC2/DepthDuration/v2_depth_duration_MTurk/v2_DepthDuration_HTML.html#27,27,1920,1080,1920,1080,9-3-2022,9-17-32,95,depth_duration_stimuli/003070_2014-06-15_14-58-27_094959634447_rgbf000150-resize_3/003070_2014-06-15_14-58-27_094959634447_rgbf000150-resize_3-target.png,1000,2.9415,6,4155,1000,feet,jsons/v1_VE1000_randls_56.json,695708,843592,35,Woman
95,772911,DepthScenes,duration_manipulation_targetAtFixation,jsons/v1_VE1000_randls_56.json,http://54.235.29.9/FacialAge/BNav_EC2/DepthDuration/v2_depth_duration_MTurk/v2_DepthDuration_HTML.html#27,27,1920,1080,1920,1080,9-3-2022,9-17-32,96,depth_duration_stimuli/000943_2014-06-09_19-31-07_260595134347_rgbf000128-resize_1/000943_2014-06-09_19-31-07_260595134347_rgbf000128-resize_1-target.png,1000,1.9765,3,3902,986,feet,jsons/v1_VE1000_randls_56.json,695708,843592,35,Woman
96,772911,DepthScenes,duration_manipulation_targetAtFixation,jsons/v1_VE1000_randls_56.json,http://54.235.29.9/FacialAge/BNav_EC2/DepthDuration/v2_depth_duration_MTurk/v2_DepthDuration_HTML.html#27,27,1920,1080,1920,1080,9-3-2022,9-17-32,97,depth_duration_stimuli/002989_2014-06-15_12-25-03_094959634447_rgbf000150-resize_3/002989_2014-06-15_12-25-03_094959634447_rgbf000150-resize_3-target.png,1000,4.1975,10,3102,1014,feet,jsons/v1_VE1000_randls_56.json,695708,843592,35,Woman
97,772911,DepthScenes,duration_manipulation_targetAtFixation,jsons/v1_VE1000_randls_56.json,http://54.235.29.9/FacialAge/BNav_EC2/DepthDuration/v2_depth_duration_MTurk/v2_DepthDuration_HTML.html#27,27,1920,1080,1920,1080,9-3-2022,9-17-32,98,depth_duration_stimuli/000866_2014-06-09_20-45-42_260595134347_rgbf000139-resize_1/000866_2014-06-09_20-45-42_260595134347_rgbf000139-resize_1-target.png,1000,3.2155,8,2579,1003,feet,jsons/v1_VE1000_randls_56.json,695708,843592,35,Woman
98,772911,DepthScenes,duration_manipulation_targetAtFixation,jsons/v1_VE1000_randls_56.json,http://54.235.29.9/FacialAge/BNav_EC2/DepthDuration/v2_depth_duration_MTurk/v2_DepthDuration_HTML.html#27,27,1920,1080,1920,1080,9-3-2022,9-17-32,99,depth_duration_stimuli/001540_2014-06-20_17-01-05_260595134347_rgbf000086-resize_2/001540_2014-06-20_17-01-05_260595134347_rgbf000086-resize-original.jpg,1000,1.459,0,2720,997,feet,jsons/v1_VE1000_randls_56.json,695708,843592,35,Woman
99,772911,DepthScenes,duration_manipulation_targetAtFixation,jsons/v1_VE1000_randls_56.json,http://54.235.29.9/FacialAge/BNav_EC2/DepthDuration/v2_depth_duration_MTurk/v2_DepthDuration_HTML.html#27,27,1920,1080,1920,1080,9-3-2022,9-17-32,100,depth_duration_stimuli/002279_2014-06-28_18-55-32_260595134347_rgbf000040-resize_5/002279_2014-06-28_18-55-32_260595134347_rgbf000040-resize_5-target.png,1000,1.5043333333333,2,2876,1001,feet,jsons/v1_VE1000_randls_56.json,695708,843592,35,Woman
100,772911,DepthScenes,duration_manipulation_targetAtFixation,jsons/v1_VE1000_randls_56.json,http://54.235.29.9/FacialAge/BNav_EC2/DepthDuration/v2_depth_duration_MTurk/v2_DepthDuration_HTML.html#27,27,1920,1080,1920,1080,9-3-2022,9-17-32,101,depth_duration_stimuli/000635_2014-06-08_16-38-42_260595134347_rgbf000106-resize_1/000635_2014-06-08_16-38-42_260595134347_rgbf000106-resize_1-target.png,1000,2.074,6,2423,995,feet,jsons/v1_VE1000_randls_56.json,695708,843592,35,Woman
101,772911,DepthScenes,duration_manipulation_targetAtFixation,jsons/v1_VE1000_randls_56.json,http://54.235.29.9/FacialAge/BNav_EC2/DepthDuration/v2_depth_duration_MTurk/v2_DepthDuration_HTML.html#27,27,1920,1080,1920,1080,9-3-2022,9-17-32,102,depth_duration_stimuli/001164_2014-06-17_15-35-46_260595134347_rgbf000085-resize_3/001164_2014-06-17_15-35-46_260595134347_rgbf000085-resize_3-target.png,1000,2.354,5,2767,1001,feet,jsons/v1_VE1000_randls_56.json,695708,843592,35,Woman
102,772911,DepthScenes,duration_manipulation_targetAtFixation,jsons/v1_VE1000_randls_56.json,http://54.235.29.9/FacialAge/BNav_EC2/DepthDuration/v2_depth_duration_MTurk/v2_DepthDuration_HTML.html#27,27,1920,1080,1920,1080,9-3-2022,9-17-32,103,depth_duration_stimuli/001136_2014-06-17_15-19-41_260595134347_rgbf000076-resize_3/001136_2014-06-17_15-19-41_260595134347_rgbf000076-resize_3-target.png,1000,1.8655,4,6773,1006,feet,jsons/v1_VE1000_randls_56.json,695708,843592,35,Woman
103,772911,DepthScenes,duration_manipulation_targetAtFixation,jsons/v1_VE1000_randls_56.json,http://54.235.29.9/FacialAge/BNav_EC2/DepthDuration/v2_depth_duration_MTurk/v2_DepthDuration_HTML.html#27,27,1920,1080,1920,1080,9-3-2022,9-17-32,104,depth_duration_stimuli/000682_2014-06-08_23-14-58_260595134347_rgbf000041-resize_5/000682_2014-06-08_23-14-58_260595134347_rgbf000041-resize_5-target.png,1000,2.7239999999999998,5,6604,1001,feet,jsons/v1_VE1000_randls_56.json,695708,843592,35,Woman
104,772911,DepthScenes,duration_manipulation_targetAtFixation,jsons/v1_VE1000_randls_56.json,http://54.235.29.9/FacialAge/BNav_EC2/DepthDuration/v2_depth_duration_MTurk/v2_DepthDuration_HTML.html#27,27,1920,1080,1920,1080,9-3-2022,9-17-32,105,depth_duration_stimuli/001650_2014-06-20_12-09-00_260595134347_rgbf000087-resize_3/001650_2014-06-20_12-09-00_260595134347_rgbf000087-resize_3-target.png,1000,1.9505,2,2618,1010,feet,jsons/v1_VE1000_randls_56.json,695708,843592,35,Woman
105,772911,DepthScenes,duration_manipulation_targetAtFixation,jsons/v1_VE1000_randls_56.json,http://54.235.29.9/FacialAge/BNav_EC2/DepthDuration/v2_depth_duration_MTurk/v2_DepthDuration_HTML.html#27,27,1920,1080,1920,1080,9-3-2022,9-17-32,106,depth_duration_stimuli/001150_2014-06-17_15-27-34_260595134347_rgbf000108-resize_2/001150_2014-06-17_15-27-34_260595134347_rgbf000108-resize_2-target.png,1000,4.0325,6,4386,994,feet,jsons/v1_VE1000_randls_56.json,695708,843592,35,Woman
106,772911,DepthScenes,duration_manipulation_targetAtFixation,jsons/v1_VE1000_randls_56.json,http://54.235.29.9/FacialAge/BNav_EC2/DepthDuration/v2_depth_duration_MTurk/v2_DepthDuration_HTML.html#27,27,1920,1080,1920,1080,9-3-2022,9-17-32,107,depth_duration_stimuli/000665_2014-06-09_20-42-35_260595134347_rgbf000110-resize_1/000665_2014-06-09_20-42-35_260595134347_rgbf000110-resize_1-target.png,1000,3.057,4,11630,1001,feet,jsons/v1_VE1000_randls_56.json,695708,843592,35,Woman
107,772911,DepthScenes,duration_manipulation_targetAtFixation,jsons/v1_VE1000_randls_56.json,http://54.235.29.9/FacialAge/BNav_EC2/DepthDuration/v2_depth_duration_MTurk/v2_DepthDuration_HTML.html#27,27,1920,1080,1920,1080,9-3-2022,9-17-32,108,depth_duration_stimuli/001175_2014-06-17_15-45-55_260595134347_rgbf000129-resize_4/001175_2014-06-17_15-45-55_260595134347_rgbf000129-resize_4-target.png,1000,4.255,9,3542,986,feet,jsons/v1_VE1000_randls_56.json,695708,843592,35,Woman
108,772911,DepthScenes,duration_manipulation_targetAtFixation,jsons/v1_VE1000_randls_56.json,http://54.235.29.9/FacialAge/BNav_EC2/DepthDuration/v2_depth_duration_MTurk/v2_DepthDuration_HTML.html#27,27,1920,1080,1920,1080,9-3-2022,9-17-32,109,depth_duration_stimuli/003490_2014-05-21_15-50-11_094959634447_rgbf000101-resize_3/003490_2014-05-21_15-50-11_094959634447_rgbf000101-resize_3-target.png,1000,3.6445,8,4426,997,feet,jsons/v1_VE1000_randls_56.json,695708,843592,35,Woman
109,772911,DepthScenes,duration_manipulation_targetAtFixation,jsons/v1_VE1000_randls_56.json,http://54.235.29.9/FacialAge/BNav_EC2/DepthDuration/v2_depth_duration_MTurk/v2_DepthDuration_HTML.html#27,27,1920,1080,1920,1080,9-3-2022,9-17-32,110,depth_duration_stimuli/001244_2014-06-17_16-47-45_260595134347_rgbf000030-resize_4/001244_2014-06-17_16-47-45_260595134347_rgbf000030-resize_4-target.png,1000,2.0425,3,2721,1010,feet,jsons/v1_VE1000_randls_56.json,695708,843592,35,Woman
110,772911,DepthScenes,duration_manipulation_targetAtFixation,jsons/v1_VE1000_randls_56.json,http://54.235.29.9/FacialAge/BNav_EC2/DepthDuration/v2_depth_duration_MTurk/v2_DepthDuration_HTML.html#27,27,1920,1080,1920,1080,9-3-2022,9-17-32,111,depth_duration_stimuli/003495_2014-05-21_16-01-51_094959634447_rgbf000100-resize_3/003495_2014-05-21_16-01-51_094959634447_rgbf000100-resize_3-target.png,1000,1.6255,3,2635,984,feet,jsons/v1_VE1000_randls_56.json,695708,843592,35,Woman
111,772911,DepthScenes,duration_manipulation_targetAtFixation,jsons/v1_VE1000_randls_56.json,http://54.235.29.9/FacialAge/BNav_EC2/DepthDuration/v2_depth_duration_MTurk/v2_DepthDuration_HTML.html#27,27,1920,1080,1920,1080,9-3-2022,9-17-32,112,depth_duration_stimuli/000773_2014-06-08_22-24-54_260595134347_rgbf000093-resize_1/000773_2014-06-08_22-24-54_260595134347_rgbf000093-resize_1-target.png,1000,4.973,8,4265,990,feet,jsons/v1_VE1000_randls_56.json,695708,843592,35,Woman
112,772911,DepthScenes,duration_manipulation_targetAtFixation,jsons/v1_VE1000_randls_56.json,http://54.235.29.9/FacialAge/BNav_EC2/DepthDuration/v2_depth_duration_MTurk/v2_DepthDuration_HTML.html#27,27,1920,1080,1920,1080,9-3-2022,9-17-32,113,depth_duration_stimuli/002414_2014-06-28_20-24-58_260595134347_rgbf000067-resize_4/002414_2014-06-28_20-24-58_260595134347_rgbf000067-resize_4-target.png,1000,4.363,10,2869,999,feet,jsons/v1_VE1000_randls_56.json,695708,843592,35,Woman
113,772911,DepthScenes,duration_manipulation_targetAtFixation,jsons/v1_VE1000_randls_56.json,http://54.235.29.9/FacialAge/BNav_EC2/DepthDuration/v2_depth_duration_MTurk/v2_DepthDuration_HTML.html#27,27,1920,1080,1920,1080,9-3-2022,9-17-32,114,depth_duration_stimuli/000736_2014-06-08_18-24-15_260595134347_rgbf000206-resize_3/000736_2014-06-08_18-24-15_260595134347_rgbf000206-resize_3-target.png,1000,3.515,5,4922,1013,feet,jsons/v1_VE1000_randls_56.json,695708,843592,35,Woman
114,772911,DepthScenes,duration_manipulation_targetAtFixation,jsons/v1_VE1000_randls_56.json,http://54.235.29.9/FacialAge/BNav_EC2/DepthDuration/v2_depth_duration_MTurk/v2_DepthDuration_HTML.html#27,27,1920,1080,1920,1080,9-3-2022,9-17-32,115,depth_duration_stimuli/000137_2014-05-20_17-04-49_260595134347_rgbf000120-resize_1/000137_2014-05-20_17-04-49_260595134347_rgbf000120-resize_1-target.png,1000,3.786,9,2562,1002,feet,jsons/v1_VE1000_randls_56.json,695708,843592,35,Woman
115,772911,DepthScenes,duration_manipulation_targetAtFixation,jsons/v1_VE1000_randls_56.json,http://54.235.29.9/FacialAge/BNav_EC2/DepthDuration/v2_depth_duration_MTurk/v2_DepthDuration_HTML.html#27,27,1920,1080,1920,1080,9-3-2022,9-17-32,116,depth_duration_stimuli/001170_2014-06-17_15-43-44_260595134347_rgbf000096-resize_6/001170_2014-06-17_15-43-44_260595134347_rgbf000096-resize-original.jpg,1000,1.1909999999999998,0,2542,995,feet,jsons/v1_VE1000_randls_56.json,695708,843592,35,Woman
116,772911,DepthScenes,duration_manipulation_targetAtFixation,jsons/v1_VE1000_randls_56.json,http://54.235.29.9/FacialAge/BNav_EC2/DepthDuration/v2_depth_duration_MTurk/v2_DepthDuration_HTML.html#27,27,1920,1080,1920,1080,9-3-2022,9-17-32,117,depth_duration_stimuli/001092_2014-06-15_17-34-58_260595134347_rgbf000171-resize_3/001092_2014-06-15_17-34-58_260595134347_rgbf000171-resize_3-target.png,1000,2.6935,4,5907,993,feet,jsons/v1_VE1000_randls_56.json,695708,843592,35,Woman
117,772911,DepthScenes,duration_manipulation_targetAtFixation,jsons/v1_VE1000_randls_56.json,http://54.235.29.9/FacialAge/BNav_EC2/DepthDuration/v2_depth_duration_MTurk/v2_DepthDuration_HTML.html#27,27,1920,1080,1920,1080,9-3-2022,9-17-32,118,depth_duration_stimuli/002545_2014-06-24_13-38-53_094959634447_rgbf000080-resize_4/002545_2014-06-24_13-38-53_094959634447_rgbf000080-resize_4-target.png,1000,1.9205,4,3973,995,feet,jsons/v1_VE1000_randls_56.json,695708,843592,35,Woman
118,772911,DepthScenes,duration_manipulation_targetAtFixation,jsons/v1_VE1000_randls_56.json,http://54.235.29.9/FacialAge/BNav_EC2/DepthDuration/v2_depth_duration_MTurk/v2_DepthDuration_HTML.html#27,27,1920,1080,1920,1080,9-3-2022,9-17-32,119,depth_duration_stimuli/002788_2014-06-22_19-36-03_094959634447_rgbf000088-resize_2/002788_2014-06-22_19-36-03_094959634447_rgbf000088-resize_2-target.png,1000,1.6465,7,2892,984,feet,jsons/v1_VE1000_randls_56.json,695708,843592,35,Woman
119,772911,DepthScenes,duration_manipulation_targetAtFixation,jsons/v1_VE1000_randls_56.json,http://54.235.29.9/FacialAge/BNav_EC2/DepthDuration/v2_depth_duration_MTurk/v2_DepthDuration_HTML.html#27,27,1920,1080,1920,1080,9-3-2022,9-17-32,120,depth_duration_stimuli/000749_2014-06-08_21-55-06_260595134347_rgbf000070-resize_2/000749_2014-06-08_21-55-06_260595134347_rgbf000070-resize_2-target.png,1000,2.331,5,2909,1003,feet,jsons/v1_VE1000_randls_56.json,695708,843592,35,Woman
120,772911,DepthScenes,duration_manipulation_targetAtFixation,jsons/v1_VE1000_randls_56.json,http://54.235.29.9/FacialAge/BNav_EC2/DepthDuration/v2_depth_duration_MTurk/v2_DepthDuration_HTML.html#27,27,1920,1080,1920,1080,9-3-2022,9-17-32,121,depth_duration_stimuli/002988_2014-06-15_12-24-20_094959634447_rgbf000150-resize_1/002988_2014-06-15_12-24-20_094959634447_rgbf000150-resize_1-target.png,1000,4.7669999999999995,10,4228,1001,feet,jsons/v1_VE1000_randls_56.json,695708,843592,35,Woman
121,772911,DepthScenes,duration_manipulation_targetAtFixation,jsons/v1_VE1000_randls_56.json,http://54.235.29.9/FacialAge/BNav_EC2/DepthDuration/v2_depth_duration_MTurk/v2_DepthDuration_HTML.html#27,27,1920,1080,1920,1080,9-3-2022,9-17-32,122,depth_duration_stimuli/001052_2014-06-08_18-24-54_260595134347_rgbf000130-resize_1/001052_2014-06-08_18-24-54_260595134347_rgbf000130-resize_1-target.png,1000,4.1045,10,2867,998,feet,jsons/v1_VE1000_randls_56.json,695708,843592,35,Woman
122,772911,DepthScenes,duration_manipulation_targetAtFixation,jsons/v1_VE1000_randls_56.json,http://54.235.29.9/FacialAge/BNav_EC2/DepthDuration/v2_depth_duration_MTurk/v2_DepthDuration_HTML.html#27,27,1920,1080,1920,1080,9-3-2022,9-17-32,123,depth_duration_stimuli/000739_2014-06-08_18-45-58_260595134347_rgbf000068-resize_1/000739_2014-06-08_18-45-58_260595134347_rgbf000068-resize_1-target.png,1000,3.534,8,2376,1000,feet,jsons/v1_VE1000_randls_56.json,695708,843592,35,Woman
123,772911,DepthScenes,duration_manipulation_targetAtFixation,jsons/v1_VE1000_randls_56.json,http://54.235.29.9/FacialAge/BNav_EC2/DepthDuration/v2_depth_duration_MTurk/v2_DepthDuration_HTML.html#27,27,1920,1080,1920,1080,9-3-2022,9-17-32,124,depth_duration_stimuli/000734_2014-06-08_17-39-11_260595134347_rgbf000128-resize_2/000734_2014-06-08_17-39-11_260595134347_rgbf000128-resize_2-target.png,1000,4.098,6,3756,1009,feet,jsons/v1_VE1000_randls_56.json,695708,843592,35,Woman
124,772911,DepthScenes,duration_manipulation_targetAtFixation,jsons/v1_VE1000_randls_56.json,http://54.235.29.9/FacialAge/BNav_EC2/DepthDuration/v2_depth_duration_MTurk/v2_DepthDuration_HTML.html#27,27,1920,1080,1920,1080,9-3-2022,9-17-32,125,depth_duration_stimuli/002600_2014-06-24_14-27-04_094959634447_rgbf000074-resize_2/002600_2014-06-24_14-27-04_094959634447_rgbf000074-resize_2-target.png,1000,2.7575,8,3000,1002,feet,jsons/v1_VE1000_randls_56.json,695708,843592,35,Woman
125,772911,DepthScenes,duration_manipulation_targetAtFixation,jsons/v1_VE1000_randls_56.json,http://54.235.29.9/FacialAge/BNav_EC2/DepthDuration/v2_depth_duration_MTurk/v2_DepthDuration_HTML.html#27,27,1920,1080,1920,1080,9-3-2022,9-17-32,126,depth_duration_stimuli/003228_2014-05-14_13-42-35_094959634447_rgbf000101-resize_1/003228_2014-05-14_13-42-35_094959634447_rgbf000101-resize_1-target.png,1000,1.9680000000000002,4,2451,991,feet,jsons/v1_VE1000_randls_56.json,695708,843592,35,Woman
126,772911,DepthScenes,duration_manipulation_targetAtFixation,jsons/v1_VE1000_randls_56.json,http://54.235.29.9/FacialAge/BNav_EC2/DepthDuration/v2_depth_duration_MTurk/v2_DepthDuration_HTML.html#27,27,1920,1080,1920,1080,9-3-2022,9-17-32,127,depth_duration_stimuli/002663_2014-06-13_15-50-26_094959634447_rgbf000075-resize_1/002663_2014-06-13_15-50-26_094959634447_rgbf000075-resize_1-target.png,1000,4.7495,12,2755,996,feet,jsons/v1_VE1000_randls_56.json,695708,843592,35,Woman
127,772911,DepthScenes,duration_manipulation_targetAtFixation,jsons/v1_VE1000_randls_56.json,http://54.235.29.9/FacialAge/BNav_EC2/DepthDuration/v2_depth_duration_MTurk/v2_DepthDuration_HTML.html#27,27,1920,1080,1920,1080,9-3-2022,9-17-32,128,depth_duration_stimuli/000409_2014-06-04_19-23-33_260595134347_rgbf000067-resize_0/000409_2014-06-04_19-23-33_260595134347_rgbf000067-resize_0-target.png,1000,3.7335,8,4280,997,feet,jsons/v1_VE1000_randls_56.json,695708,843592,35,Woman
128,772911,DepthScenes,duration_manipulation_targetAtFixation,jsons/v1_VE1000_randls_56.json,http://54.235.29.9/FacialAge/BNav_EC2/DepthDuration/v2_depth_duration_MTurk/v2_DepthDuration_HTML.html#27,27,1920,1080,1920,1080,9-3-2022,9-17-32,129,depth_duration_stimuli/001449_2014-06-19_17-01-27_260595134347_rgbf000116-resize_2/001449_2014-06-19_17-01-27_260595134347_rgbf000116-resize_2-target.png,1000,3.452,6,3028,999,feet,jsons/v1_VE1000_randls_56.json,695708,843592,35,Woman
129,772911,DepthScenes,duration_manipulation_targetAtFixation,jsons/v1_VE1000_randls_56.json,http://54.235.29.9/FacialAge/BNav_EC2/DepthDuration/v2_depth_duration_MTurk/v2_DepthDuration_HTML.html#27,27,1920,1080,1920,1080,9-3-2022,9-17-32,130,depth_duration_stimuli/001450_2014-06-19_17-02-03_260595134347_rgbf000203-resize_4/001450_2014-06-19_17-02-03_260595134347_rgbf000203-resize_4-target.png,1000,4.0106666666667,10,2386,998,feet,jsons/v1_VE1000_randls_56.json,695708,843592,35,Woman
130,772911,DepthScenes,duration_manipulation_targetAtFixation,jsons/v1_VE1000_randls_56.json,http://54.235.29.9/FacialAge/BNav_EC2/DepthDuration/v2_depth_duration_MTurk/v2_DepthDuration_HTML.html#27,27,1920,1080,1920,1080,9-3-2022,9-17-32,131,depth_duration_stimuli/002570_2014-06-24_13-59-54_094959634447_rgbf000059-resize_0/002570_2014-06-24_13-59-54_094959634447_rgbf000059-resize_0-target.png,1000,4.037,8,4910,1002,feet,jsons/v1_VE1000_randls_56.json,695708,843592,35,Woman
131,772911,DepthScenes,duration_manipulation_targetAtFixation,jsons/v1_VE1000_randls_56.json,http://54.235.29.9/FacialAge/BNav_EC2/DepthDuration/v2_depth_duration_MTurk/v2_DepthDuration_HTML.html#27,27,1920,1080,1920,1080,9-3-2022,9-17-32,132,depth_duration_stimuli/002467_2014-06-28_20-38-07_260595134347_rgbf000026-resize_2/002467_2014-06-28_20-38-07_260595134347_rgbf000026-resize_2-target.png,1000,4.742,10,3602,1006,feet,jsons/v1_VE1000_randls_56.json,695708,843592,35,Woman
132,772911,DepthScenes,duration_manipulation_targetAtFixation,jsons/v1_VE1000_randls_56.json,http://54.235.29.9/FacialAge/BNav_EC2/DepthDuration/v2_depth_duration_MTurk/v2_DepthDuration_HTML.html#27,27,1920,1080,1920,1080,9-3-2022,9-17-32,133,depth_duration_stimuli/000506_2014-06-08_23-21-00_260595134347_rgbf000070-resize_7/000506_2014-06-08_23-21-00_260595134347_rgbf000070-resize_7-target.png,1000,4.0585,7,3417,992,feet,jsons/v1_VE1000_randls_56.json,695708,843592,35,Woman
133,772911,DepthScenes,duration_manipulation_targetAtFixation,jsons/v1_VE1000_randls_56.json,http://54.235.29.9/FacialAge/BNav_EC2/DepthDuration/v2_depth_duration_MTurk/v2_DepthDuration_HTML.html#27,27,1920,1080,1920,1080,9-3-2022,9-17-32,134,depth_duration_stimuli/003079_2014-06-15_15-18-20_094959634447_rgbf000152-resize_8/003079_2014-06-15_15-18-20_094959634447_rgbf000152-resize_8-target.png,1000,2.8775,6,3777,1007,feet,jsons/v1_VE1000_randls_56.json,695708,843592,35,Woman
134,772911,DepthScenes,duration_manipulation_targetAtFixation,jsons/v1_VE1000_randls_56.json,http://54.235.29.9/FacialAge/BNav_EC2/DepthDuration/v2_depth_duration_MTurk/v2_DepthDuration_HTML.html#27,27,1920,1080,1920,1080,9-3-2022,9-17-32,135,depth_duration_stimuli/002072_2014-06-24_21-48-06_260595134347_rgbf000115-resize_0/002072_2014-06-24_21-48-06_260595134347_rgbf000115-resize-original.jpg,1000,4.702,0,2438,994,feet,jsons/v1_VE1000_randls_56.json,695708,843592,35,Woman
135,772911,DepthScenes,duration_manipulation_targetAtFixation,jsons/v1_VE1000_randls_56.json,http://54.235.29.9/FacialAge/BNav_EC2/DepthDuration/v2_depth_duration_MTurk/v2_DepthDuration_HTML.html#27,27,1920,1080,1920,1080,9-3-2022,9-17-32,136,depth_duration_stimuli/000522_2014-06-08_13-35-06_260595134347_rgbf000244-resize_1/000522_2014-06-08_13-35-06_260595134347_rgbf000244-resize_1-target.png,1000,2.3715,3,4131,1000,feet,jsons/v1_VE1000_randls_56.json,695708,843592,35,Woman
136,772911,DepthScenes,duration_manipulation_targetAtFixation,jsons/v1_VE1000_randls_56.json,http://54.235.29.9/FacialAge/BNav_EC2/DepthDuration/v2_depth_duration_MTurk/v2_DepthDuration_HTML.html#27,27,1920,1080,1920,1080,9-3-2022,9-17-32,137,depth_duration_stimuli/002949_2014-06-26_15-57-42_094959634447_rgbf000079-resize_1/002949_2014-06-26_15-57-42_094959634447_rgbf000079-resize_1-target.png,1000,1.8915,2,2431,996,feet,jsons/v1_VE1000_randls_56.json,695708,843592,35,Woman
137,772911,DepthScenes,duration_manipulation_targetAtFixation,jsons/v1_VE1000_randls_56.json,http://54.235.29.9/FacialAge/BNav_EC2/DepthDuration/v2_depth_duration_MTurk/v2_DepthDuration_HTML.html#27,27,1920,1080,1920,1080,9-3-2022,9-17-32,138,depth_duration_stimuli/000436_2014-06-09_22-25-11_260595134347_rgbf000137-resize_1/000436_2014-06-09_22-25-11_260595134347_rgbf000137-resize_1-target.png,1000,4.0705,8,5643,1000,feet,jsons/v1_VE1000_randls_56.json,695708,843592,35,Woman
138,772911,DepthScenes,duration_manipulation_targetAtFixation,jsons/v1_VE1000_randls_56.json,http://54.235.29.9/FacialAge/BNav_EC2/DepthDuration/v2_depth_duration_MTurk/v2_DepthDuration_HTML.html#27,27,1920,1080,1920,1080,9-3-2022,9-17-32,139,depth_duration_stimuli/002444_2014-06-28_20-32-08_260595134347_rgbf000027-resize_0/002444_2014-06-28_20-32-08_260595134347_rgbf000027-resize_0-target.png,1000,4.388999999999999,8,4481,999,feet,jsons/v1_VE1000_randls_56.json,695708,843592,35,Woman
139,772911,DepthScenes,duration_manipulation_targetAtFixation,jsons/v1_VE1000_randls_56.json,http://54.235.29.9/FacialAge/BNav_EC2/DepthDuration/v2_depth_duration_MTurk/v2_DepthDuration_HTML.html#27,27,1920,1080,1920,1080,9-3-2022,9-17-32,140,depth_duration_stimuli/001570_2014-06-20_17-21-09_260595134347_rgbf000135-resize_4/001570_2014-06-20_17-21-09_260595134347_rgbf000135-resize_4-target.png,1000,4.467,10,3067,1000,feet,jsons/v1_VE1000_randls_56.json,695708,843592,35,Woman
140,772911,DepthScenes,duration_manipulation_targetAtFixation,jsons/v1_VE1000_randls_56.json,http://54.235.29.9/FacialAge/BNav_EC2/DepthDuration/v2_depth_duration_MTurk/v2_DepthDuration_HTML.html#27,27,1920,1080,1920,1080,9-3-2022,9-17-32,141,depth_duration_stimuli/001392_2014-06-19_16-07-59_260595134347_rgbf000046-resize_1/001392_2014-06-19_16-07-59_260595134347_rgbf000046-resize_1-target.png,1000,4.135,10,3030,997,feet,jsons/v1_VE1000_randls_56.json,695708,843592,35,Woman
141,772911,DepthScenes,duration_manipulation_targetAtFixation,jsons/v1_VE1000_randls_56.json,http://54.235.29.9/FacialAge/BNav_EC2/DepthDuration/v2_depth_duration_MTurk/v2_DepthDuration_HTML.html#27,27,1920,1080,1920,1080,9-3-2022,9-17-32,142,depth_duration_stimuli/002043_2014-06-24_20-29-38_260595134347_rgbf000039-resize_4/002043_2014-06-24_20-29-38_260595134347_rgbf000039-resize_4-target.png,1000,2.8435,8,2658,1014,feet,jsons/v1_VE1000_randls_56.json,695708,843592,35,Woman
142,772911,DepthScenes,duration_manipulation_targetAtFixation,jsons/v1_VE1000_randls_56.json,http://54.235.29.9/FacialAge/BNav_EC2/DepthDuration/v2_depth_duration_MTurk/v2_DepthDuration_HTML.html#27,27,1920,1080,1920,1080,9-3-2022,9-17-32,143,depth_duration_stimuli/003048_2014-06-15_13-49-43_094959634447_rgbf000150-resize_1/003048_2014-06-15_13-49-43_094959634447_rgbf000150-resize_1-target.png,1000,4.0035,7,3798,988,feet,jsons/v1_VE1000_randls_56.json,695708,843592,35,Woman
143,772911,DepthScenes,duration_manipulation_targetAtFixation,jsons/v1_VE1000_randls_56.json,http://54.235.29.9/FacialAge/BNav_EC2/DepthDuration/v2_depth_duration_MTurk/v2_DepthDuration_HTML.html#27,27,1920,1080,1920,1080,9-3-2022,9-17-32,144,depth_duration_stimuli/003621_2014-05-23_18-06-08_094959634447_rgbf000101-resize_1/003621_2014-05-23_18-06-08_094959634447_rgbf000101-resize_1-target.png,1000,3.9835,12,4850,1002,feet,jsons/v1_VE1000_randls_56.json,695708,843592,35,Woman
144,772911,DepthScenes,duration_manipulation_targetAtFixation,jsons/v1_VE1000_randls_56.json,http://54.235.29.9/FacialAge/BNav_EC2/DepthDuration/v2_depth_duration_MTurk/v2_DepthDuration_HTML.html#27,27,1920,1080,1920,1080,9-3-2022,9-17-32,145,depth_duration_stimuli/001584_2014-06-20_11-07-43_260595134347_rgbf000002-resize_1/001584_2014-06-20_11-07-43_260595134347_rgbf000002-resize_1-target.png,1000,3.53,10,2718,995,feet,jsons/v1_VE1000_randls_56.json,695708,843592,35,Woman
145,772911,DepthScenes,duration_manipulation_targetAtFixation,jsons/v1_VE1000_randls_56.json,http://54.235.29.9/FacialAge/BNav_EC2/DepthDuration/v2_depth_duration_MTurk/v2_DepthDuration_HTML.html#27,27,1920,1080,1920,1080,9-3-2022,9-17-32,146,depth_duration_stimuli/001498_2014-06-19_17-45-14_260595134347_rgbf000129-resize_4/001498_2014-06-19_17-45-14_260595134347_rgbf000129-resize-original.jpg,1000,1.4075,0,2474,998,feet,jsons/v1_VE1000_randls_56.json,695708,843592,35,Woman
146,772911,DepthScenes,duration_manipulation_targetAtFixation,jsons/v1_VE1000_randls_56.json,http://54.235.29.9/FacialAge/BNav_EC2/DepthDuration/v2_depth_duration_MTurk/v2_DepthDuration_HTML.html#27,27,1920,1080,1920,1080,9-3-2022,9-17-32,147,depth_duration_stimuli/001066_2014-06-08_22-03-20_260595134347_rgbf000066-resize_4/001066_2014-06-08_22-03-20_260595134347_rgbf000066-resize_4-target.png,1000,4.2330000000000005,10,4050,999,feet,jsons/v1_VE1000_randls_56.json,695708,843592,35,Woman
147,772911,DepthScenes,duration_manipulation_targetAtFixation,jsons/v1_VE1000_randls_56.json,http://54.235.29.9/FacialAge/BNav_EC2/DepthDuration/v2_depth_duration_MTurk/v2_DepthDuration_HTML.html#27,27,1920,1080,1920,1080,9-3-2022,9-17-32,148,depth_duration_stimuli/000742_2014-06-08_18-48-09_260595134347_rgbf000164-resize_4/000742_2014-06-08_18-48-09_260595134347_rgbf000164-resize_4-target.png,1000,4.632,8,5190,999,feet,jsons/v1_VE1000_randls_56.json,695708,843592,35,Woman
148,772911,DepthScenes,duration_manipulation_targetAtFixation,jsons/v1_VE1000_randls_56.json,http://54.235.29.9/FacialAge/BNav_EC2/DepthDuration/v2_depth_duration_MTurk/v2_DepthDuration_HTML.html#27,27,1920,1080,1920,1080,9-3-2022,9-17-32,149,depth_duration_stimuli/002725_2014-06-22_11-47-51_094959634447_rgbf000070-resize_1/002725_2014-06-22_11-47-51_094959634447_rgbf000070-resize_1-target.png,1000,2.195,3,2529,1000,feet,jsons/v1_VE1000_randls_56.json,695708,843592,35,Woman
149,772911,DepthScenes,duration_manipulation_targetAtFixation,jsons/v1_VE1000_randls_56.json,http://54.235.29.9/FacialAge/BNav_EC2/DepthDuration/v2_depth_duration_MTurk/v2_DepthDuration_HTML.html#27,27,1920,1080,1920,1080,9-3-2022,9-17-32,150,depth_duration_stimuli/002344_2014-06-28_20-06-29_260595134347_rgbf000030-resize_1/002344_2014-06-28_20-06-29_260595134347_rgbf000030-resize_1-target.png,1000,1.5795,2,3339,1000,feet,jsons/v1_VE1000_randls_56.json,695708,843592,35,Woman
150,772911,DepthScenes,duration_manipulation_targetAtFixation,jsons/v1_VE1000_randls_56.json,http://54.235.29.9/FacialAge/BNav_EC2/DepthDuration/v2_depth_duration_MTurk/v2_DepthDuration_HTML.html#27,27,1920,1080,1920,1080,9-3-2022,9-17-32,151,depth_duration_stimuli/002509_2014-06-24_13-19-22_094959634447_rgbf000077-resize_0/002509_2014-06-24_13-19-22_094959634447_rgbf000077-resize_0-target.png,1000,1.3065,2,3325,986,feet,jsons/v1_VE1000_randls_56.json,695708,843592,35,Woman
151,772911,DepthScenes,duration_manipulation_targetAtFixation,jsons/v1_VE1000_randls_56.json,http://54.235.29.9/FacialAge/BNav_EC2/DepthDuration/v2_depth_duration_MTurk/v2_DepthDuration_HTML.html#27,27,1920,1080,1920,1080,9-3-2022,9-17-32,152,depth_duration_stimuli/003338_2014-05-20_11-01-23_094959634447_rgbf000051-resize_6/003338_2014-05-20_11-01-23_094959634447_rgbf000051-resize_6-target.png,1000,1.693,3,3600,996,feet,jsons/v1_VE1000_randls_56.json,695708,843592,35,Woman
152,772911,DepthScenes,duration_manipulation_targetAtFixation,jsons/v1_VE1000_randls_56.json,http://54.235.29.9/FacialAge/BNav_EC2/DepthDuration/v2_depth_duration_MTurk/v2_DepthDuration_HTML.html#27,27,1920,1080,1920,1080,9-3-2022,9-17-32,153,depth_duration_stimuli/001808_2014-06-26_20-50-58_260595134347_rgbf000029-resize_1/001808_2014-06-26_20-50-58_260595134347_rgbf000029-resize_1-target.png,1000,4.249,10,3096,998,feet,jsons/v1_VE1000_randls_56.json,695708,843592,35,Woman
153,772911,DepthScenes,duration_manipulation_targetAtFixation,jsons/v1_VE1000_randls_56.json,http://54.235.29.9/FacialAge/BNav_EC2/DepthDuration/v2_depth_duration_MTurk/v2_DepthDuration_HTML.html#27,27,1920,1080,1920,1080,9-3-2022,9-17-32,154,depth_duration_stimuli/001815_2014-06-26_20-52-55_260595134347_rgbf000020-resize_0/001815_2014-06-26_20-52-55_260595134347_rgbf000020-resize_0-target.png,1000,3.3865,8,3216,997,feet,jsons/v1_VE1000_randls_56.json,695708,843592,35,Woman
154,772911,DepthScenes,duration_manipulation_targetAtFixation,jsons/v1_VE1000_randls_56.json,http://54.235.29.9/FacialAge/BNav_EC2/DepthDuration/v2_depth_duration_MTurk/v2_DepthDuration_HTML.html#27,27,1920,1080,1920,1080,9-3-2022,9-17-32,155,depth_duration_stimuli/000368_2014-06-09_15-53-01_260595134347_rgbf000155-resize_2/000368_2014-06-09_15-53-01_260595134347_rgbf000155-resize_2-target.png,1000,2.4859999999999998,4,4151,1004,feet,jsons/v1_VE1000_randls_56.json,695708,843592,35,Woman
155,772911,DepthScenes,duration_manipulation_targetAtFixation,jsons/v1_VE1000_randls_56.json,http://54.235.29.9/FacialAge/BNav_EC2/DepthDuration/v2_depth_duration_MTurk/v2_DepthDuration_HTML.html#27,27,1920,1080,1920,1080,9-3-2022,9-17-32,156,depth_duration_stimuli/002678_2014-06-13_16-15-32_094959634447_rgbf000151-resize_6/002678_2014-06-13_16-15-32_094959634447_rgbf000151-resize_6-target.png,1000,2.1830000000000003,6,3205,987,feet,jsons/v1_VE1000_randls_56.json,695708,843592,35,Woman
156,772911,DepthScenes,duration_manipulation_targetAtFixation,jsons/v1_VE1000_randls_56.json,http://54.235.29.9/FacialAge/BNav_EC2/DepthDuration/v2_depth_duration_MTurk/v2_DepthDuration_HTML.html#27,27,1920,1080,1920,1080,9-3-2022,9-17-32,157,depth_duration_stimuli/001417_2014-06-19_16-25-36_260595134347_rgbf000115-resize_5/001417_2014-06-19_16-25-36_260595134347_rgbf000115-resize_5-target.png,1000,4.6255,8,3278,993,feet,jsons/v1_VE1000_randls_56.json,695708,843592,35,Woman
157,772911,DepthScenes,duration_manipulation_targetAtFixation,jsons/v1_VE1000_randls_56.json,http://54.235.29.9/FacialAge/BNav_EC2/DepthDuration/v2_depth_duration_MTurk/v2_DepthDuration_HTML.html#27,27,1920,1080,1920,1080,9-3-2022,9-17-32,158,depth_duration_stimuli/003081_2014-06-15_15-19-16_094959634447_rgbf000150-resize_1/003081_2014-06-15_15-19-16_094959634447_rgbf000150-resize_1-target.png,1000,3.9125,8,2393,1001,feet,jsons/v1_VE1000_randls_56.json,695708,843592,35,Woman
158,772911,DepthScenes,duration_manipulation_targetAtFixation,jsons/v1_VE1000_randls_56.json,http://54.235.29.9/FacialAge/BNav_EC2/DepthDuration/v2_depth_duration_MTurk/v2_DepthDuration_HTML.html#27,27,1920,1080,1920,1080,9-3-2022,9-17-32,159,depth_duration_stimuli/000810_2014-06-08_17-20-01_260595134347_rgbf000105-resize_0/000810_2014-06-08_17-20-01_260595134347_rgbf000105-resize_0-target.png,1000,1.4865,3,4345,1003,feet,jsons/v1_VE1000_randls_56.json,695708,843592,35,Woman
159,772911,DepthScenes,duration_manipulation_targetAtFixation,jsons/v1_VE1000_randls_56.json,http://54.235.29.9/FacialAge/BNav_EC2/DepthDuration/v2_depth_duration_MTurk/v2_DepthDuration_HTML.html#27,27,1920,1080,1920,1080,9-3-2022,9-17-32,160,depth_duration_stimuli/001214_2014-06-17_16-13-55_260595134347_rgbf000111-resize_0/001214_2014-06-17_16-13-55_260595134347_rgbf000111-resize_0-target.png,1000,2.6505,4,2587,1006,feet,jsons/v1_VE1000_randls_56.json,695708,843592,35,Woman
160,772911,DepthScenes,duration_manipulation_targetAtFixation,jsons/v1_VE1000_randls_56.json,http://54.235.29.9/FacialAge/BNav_EC2/DepthDuration/v2_depth_duration_MTurk/v2_DepthDuration_HTML.html#27,27,1920,1080,1920,1080,9-3-2022,9-17-32,161,depth_duration_stimuli/003534_2014-05-22_15-06-10_094959634447_rgbf000102-resize_4/003534_2014-05-22_15-06-10_094959634447_rgbf000102-resize_4-target.png,1000,1.426,2,2302,986,feet,jsons/v1_VE1000_randls_56.json,695708,843592,35,Woman
161,772911,DepthScenes,duration_manipulation_targetAtFixation,jsons/v1_VE1000_randls_56.json,http://54.235.29.9/FacialAge/BNav_EC2/DepthDuration/v2_depth_duration_MTurk/v2_DepthDuration_HTML.html#27,27,1920,1080,1920,1080,9-3-2022,9-17-32,162,depth_duration_stimuli/002637_2014-06-24_14-51-13_094959634447_rgbf000066-resize_4/002637_2014-06-24_14-51-13_094959634447_rgbf000066-resize_4-target.png,1000,1.9955,5,2363,1000,feet,jsons/v1_VE1000_randls_56.json,695708,843592,35,Woman
162,772911,DepthScenes,duration_manipulation_targetAtFixation,jsons/v1_VE1000_randls_56.json,http://54.235.29.9/FacialAge/BNav_EC2/DepthDuration/v2_depth_duration_MTurk/v2_DepthDuration_HTML.html#27,27,1920,1080,1920,1080,9-3-2022,9-17-32,163,depth_duration_stimuli/000906_2014-06-08_13-35-43_260595134347_rgbf000155-resize_1/000906_2014-06-08_13-35-43_260595134347_rgbf000155-resize_1-target.png,1000,2.8489999999999998,10,2778,1001,feet,jsons/v1_VE1000_randls_56.json,695708,843592,35,Woman
163,772911,DepthScenes,duration_manipulation_targetAtFixation,jsons/v1_VE1000_randls_56.json,http://54.235.29.9/FacialAge/BNav_EC2/DepthDuration/v2_depth_duration_MTurk/v2_DepthDuration_HTML.html#27,27,1920,1080,1920,1080,9-3-2022,9-17-32,164,depth_duration_stimuli/002805_2014-06-22_19-54-03_094959634447_rgbf000079-resize_1/002805_2014-06-22_19-54-03_094959634447_rgbf000079-resize_1-target.png,1000,3.1439999999999997,7,4616,998,feet,jsons/v1_VE1000_randls_56.json,695708,843592,35,Woman
