,subjID,experimentName,versionName,sequenceName,url,selected_row,windowWidth,windowHeight,screenWidth,screenHeight,startDate,startTime,trial,stimulus,duration,actual_depth,depth_estimate,trial_RT,log_sceneDuration,unitSelection,seq_filepath,experimentTime,totalTime,age,gender
0,774263,DepthScenes,duration_manipulation_targetAtFixation,jsons/v1_VE250_randls_43.json,http://54.235.29.9/FacialAge/BNav_EC2/DepthDuration/v2_depth_duration_MTurk/v2_DepthDuration_HTML.html#47,47,1366,625,1366,768,9-20-2022,13-30-54,1,depth_duration_stimuli/001092_2014-06-15_17-34-58_260595134347_rgbf000171-resize_3/001092_2014-06-15_17-34-58_260595134347_rgbf000171-resize_3-target.png,250,2.6935,3,3954,77,meters,jsons/v1_VE250_randls_43.json,712833,800134,29,Man
1,774263,DepthScenes,duration_manipulation_targetAtFixation,jsons/v1_VE250_randls_43.json,http://54.235.29.9/FacialAge/BNav_EC2/DepthDuration/v2_depth_duration_MTurk/v2_DepthDuration_HTML.html#47,47,1366,625,1366,768,9-20-2022,13-30-54,2,depth_duration_stimuli/002545_2014-06-24_13-38-53_094959634447_rgbf000080-resize_4/002545_2014-06-24_13-38-53_094959634447_rgbf000080-resize_4-target.png,250,1.9205,4,2384,254,meters,jsons/v1_VE250_randls_43.json,712833,800134,29,Man
2,774263,DepthScenes,duration_manipulation_targetAtFixation,jsons/v1_VE250_randls_43.json,http://54.235.29.9/FacialAge/BNav_EC2/DepthDuration/v2_depth_duration_MTurk/v2_DepthDuration_HTML.html#47,47,1366,625,1366,768,9-20-2022,13-30-54,3,depth_duration_stimuli/000368_2014-06-09_15-53-01_260595134347_rgbf000155-resize_2/000368_2014-06-09_15-53-01_260595134347_rgbf000155-resize_2-target.png,250,2.4859999999999998,5,2658,246,meters,jsons/v1_VE250_randls_43.json,712833,800134,29,Man
3,774263,DepthScenes,duration_manipulation_targetAtFixation,jsons/v1_VE250_randls_43.json,http://54.235.29.9/FacialAge/BNav_EC2/DepthDuration/v2_depth_duration_MTurk/v2_DepthDuration_HTML.html#47,47,1366,625,1366,768,9-20-2022,13-30-54,4,depth_duration_stimuli/002678_2014-06-13_16-15-32_094959634447_rgbf000151-resize_6/002678_2014-06-13_16-15-32_094959634447_rgbf000151-resize_6-target.png,250,2.1830000000000003,3,2591,238,meters,jsons/v1_VE250_randls_43.json,712833,800134,29,Man
4,774263,DepthScenes,duration_manipulation_targetAtFixation,jsons/v1_VE250_randls_43.json,http://54.235.29.9/FacialAge/BNav_EC2/DepthDuration/v2_depth_duration_MTurk/v2_DepthDuration_HTML.html#47,47,1366,625,1366,768,9-20-2022,13-30-54,5,depth_duration_stimuli/001055_2014-06-08_18-45-35_260595134347_rgbf000111-resize_4/001055_2014-06-08_18-45-35_260595134347_rgbf000111-resize_4-target.png,250,2.4290000000000003,5,3163,251,meters,jsons/v1_VE250_randls_43.json,712833,800134,29,Man
5,774263,DepthScenes,duration_manipulation_targetAtFixation,jsons/v1_VE250_randls_43.json,http://54.235.29.9/FacialAge/BNav_EC2/DepthDuration/v2_depth_duration_MTurk/v2_DepthDuration_HTML.html#47,47,1366,625,1366,768,9-20-2022,13-30-54,6,depth_duration_stimuli/000549_2014-06-08_22-10-24_260595134347_rgbf000247-resize_3/000549_2014-06-08_22-10-24_260595134347_rgbf000247-resize_3-target.png,250,1.841,4,4205,179,meters,jsons/v1_VE250_randls_43.json,712833,800134,29,Man
6,774263,DepthScenes,duration_manipulation_targetAtFixation,jsons/v1_VE250_randls_43.json,http://54.235.29.9/FacialAge/BNav_EC2/DepthDuration/v2_depth_duration_MTurk/v2_DepthDuration_HTML.html#47,47,1366,625,1366,768,9-20-2022,13-30-54,7,depth_duration_stimuli/000773_2014-06-08_22-24-54_260595134347_rgbf000093-resize_1/000773_2014-06-08_22-24-54_260595134347_rgbf000093-resize_1-target.png,250,4.973,4,3317,238,meters,jsons/v1_VE250_randls_43.json,712833,800134,29,Man
7,774263,DepthScenes,duration_manipulation_targetAtFixation,jsons/v1_VE250_randls_43.json,http://54.235.29.9/FacialAge/BNav_EC2/DepthDuration/v2_depth_duration_MTurk/v2_DepthDuration_HTML.html#47,47,1366,625,1366,768,9-20-2022,13-30-54,8,depth_duration_stimuli/002414_2014-06-28_20-24-58_260595134347_rgbf000067-resize_4/002414_2014-06-28_20-24-58_260595134347_rgbf000067-resize_4-target.png,250,4.363,3,3240,252,meters,jsons/v1_VE250_randls_43.json,712833,800134,29,Man
8,774263,DepthScenes,duration_manipulation_targetAtFixation,jsons/v1_VE250_randls_43.json,http://54.235.29.9/FacialAge/BNav_EC2/DepthDuration/v2_depth_duration_MTurk/v2_DepthDuration_HTML.html#47,47,1366,625,1366,768,9-20-2022,13-30-54,9,depth_duration_stimuli/003292_2014-05-14_21-53-49_094959634447_rgbf000100-resize_2/003292_2014-05-14_21-53-49_094959634447_rgbf000100-resize_2-target.png,250,3.4815,4,3946,251,meters,jsons/v1_VE250_randls_43.json,712833,800134,29,Man
9,774263,DepthScenes,duration_manipulation_targetAtFixation,jsons/v1_VE250_randls_43.json,http://54.235.29.9/FacialAge/BNav_EC2/DepthDuration/v2_depth_duration_MTurk/v2_DepthDuration_HTML.html#47,47,1366,625,1366,768,9-20-2022,13-30-54,10,depth_duration_stimuli/002639_2014-06-24_14-51-37_094959634447_rgbf000074-resize_4/002639_2014-06-24_14-51-37_094959634447_rgbf000074-resize_4-target.png,250,4.0375,4,3288,248,meters,jsons/v1_VE250_randls_43.json,712833,800134,29,Man
10,774263,DepthScenes,duration_manipulation_targetAtFixation,jsons/v1_VE250_randls_43.json,http://54.235.29.9/FacialAge/BNav_EC2/DepthDuration/v2_depth_duration_MTurk/v2_DepthDuration_HTML.html#47,47,1366,625,1366,768,9-20-2022,13-30-54,11,depth_duration_stimuli/001167_2014-06-17_15-38-07_260595134347_rgbf000108-resize_0/001167_2014-06-17_15-38-07_260595134347_rgbf000108-resize_0-target.png,250,1.8505,3,2827,249,meters,jsons/v1_VE250_randls_43.json,712833,800134,29,Man
11,774263,DepthScenes,duration_manipulation_targetAtFixation,jsons/v1_VE250_randls_43.json,http://54.235.29.9/FacialAge/BNav_EC2/DepthDuration/v2_depth_duration_MTurk/v2_DepthDuration_HTML.html#47,47,1366,625,1366,768,9-20-2022,13-30-54,12,depth_duration_stimuli/003587_2014-05-23_16-48-02_094959634447_rgbf002384-resize_2/003587_2014-05-23_16-48-02_094959634447_rgbf002384-resize_2-target.png,250,1.357,3,2492,252,meters,jsons/v1_VE250_randls_43.json,712833,800134,29,Man
12,774263,DepthScenes,duration_manipulation_targetAtFixation,jsons/v1_VE250_randls_43.json,http://54.235.29.9/FacialAge/BNav_EC2/DepthDuration/v2_depth_duration_MTurk/v2_DepthDuration_HTML.html#47,47,1366,625,1366,768,9-20-2022,13-30-54,13,depth_duration_stimuli/000569_2014-06-09_22-51-47_260595134347_rgbf000141-resize_3/000569_2014-06-09_22-51-47_260595134347_rgbf000141-resize-original.jpg,250,4.512,3,2555,253,meters,jsons/v1_VE250_randls_43.json,712833,800134,29,Man
13,774263,DepthScenes,duration_manipulation_targetAtFixation,jsons/v1_VE250_randls_43.json,http://54.235.29.9/FacialAge/BNav_EC2/DepthDuration/v2_depth_duration_MTurk/v2_DepthDuration_HTML.html#47,47,1366,625,1366,768,9-20-2022,13-30-54,14,depth_duration_stimuli/002748_2014-06-22_19-07-22_094959634447_rgbf000078-resize_1/002748_2014-06-22_19-07-22_094959634447_rgbf000078-resize_1-target.png,250,4.6705,4,7017,251,meters,jsons/v1_VE250_randls_43.json,712833,800134,29,Man
14,774263,DepthScenes,duration_manipulation_targetAtFixation,jsons/v1_VE250_randls_43.json,http://54.235.29.9/FacialAge/BNav_EC2/DepthDuration/v2_depth_duration_MTurk/v2_DepthDuration_HTML.html#47,47,1366,625,1366,768,9-20-2022,13-30-54,15,depth_duration_stimuli/002995_2014-06-15_12-31-26_094959634447_rgbf000150-resize_1/002995_2014-06-15_12-31-26_094959634447_rgbf000150-resize_1-target.png,250,3.8360000000000003,3,2596,248,meters,jsons/v1_VE250_randls_43.json,712833,800134,29,Man
15,774263,DepthScenes,duration_manipulation_targetAtFixation,jsons/v1_VE250_randls_43.json,http://54.235.29.9/FacialAge/BNav_EC2/DepthDuration/v2_depth_duration_MTurk/v2_DepthDuration_HTML.html#47,47,1366,625,1366,768,9-20-2022,13-30-54,16,depth_duration_stimuli/000470_2014-06-09_19-42-40_260595134347_rgbf000094-resize_1/000470_2014-06-09_19-42-40_260595134347_rgbf000094-resize_1-target.png,250,1.831,2,5098,249,meters,jsons/v1_VE250_randls_43.json,712833,800134,29,Man
16,774263,DepthScenes,duration_manipulation_targetAtFixation,jsons/v1_VE250_randls_43.json,http://54.235.29.9/FacialAge/BNav_EC2/DepthDuration/v2_depth_duration_MTurk/v2_DepthDuration_HTML.html#47,47,1366,625,1366,768,9-20-2022,13-30-54,17,depth_duration_stimuli/000109_2014-05-14_23-41-52_260595134347_rgbf000035-resize_9/000109_2014-05-14_23-41-52_260595134347_rgbf000035-resize_9-target.png,250,1.3545,5,3443,243,meters,jsons/v1_VE250_randls_43.json,712833,800134,29,Man
17,774263,DepthScenes,duration_manipulation_targetAtFixation,jsons/v1_VE250_randls_43.json,http://54.235.29.9/FacialAge/BNav_EC2/DepthDuration/v2_depth_duration_MTurk/v2_DepthDuration_HTML.html#47,47,1366,625,1366,768,9-20-2022,13-30-54,18,depth_duration_stimuli/001810_2014-06-26_20-51-35_260595134347_rgbf000040-resize_3/001810_2014-06-26_20-51-35_260595134347_rgbf000040-resize_3-target.png,250,2.2525,4,2613,250,meters,jsons/v1_VE250_randls_43.json,712833,800134,29,Man
18,774263,DepthScenes,duration_manipulation_targetAtFixation,jsons/v1_VE250_randls_43.json,http://54.235.29.9/FacialAge/BNav_EC2/DepthDuration/v2_depth_duration_MTurk/v2_DepthDuration_HTML.html#47,47,1366,625,1366,768,9-20-2022,13-30-54,19,depth_duration_stimuli/003010_2014-06-15_12-54-35_094959634447_rgbf000112-resize_0/003010_2014-06-15_12-54-35_094959634447_rgbf000112-resize_0-target.png,250,3.1185,5,3613,249,meters,jsons/v1_VE250_randls_43.json,712833,800134,29,Man
19,774263,DepthScenes,duration_manipulation_targetAtFixation,jsons/v1_VE250_randls_43.json,http://54.235.29.9/FacialAge/BNav_EC2/DepthDuration/v2_depth_duration_MTurk/v2_DepthDuration_HTML.html#47,47,1366,625,1366,768,9-20-2022,13-30-54,20,depth_duration_stimuli/001808_2014-06-26_20-50-58_260595134347_rgbf000029-resize_1/001808_2014-06-26_20-50-58_260595134347_rgbf000029-resize_1-target.png,250,4.249,4,2931,249,meters,jsons/v1_VE250_randls_43.json,712833,800134,29,Man
20,774263,DepthScenes,duration_manipulation_targetAtFixation,jsons/v1_VE250_randls_43.json,http://54.235.29.9/FacialAge/BNav_EC2/DepthDuration/v2_depth_duration_MTurk/v2_DepthDuration_HTML.html#47,47,1366,625,1366,768,9-20-2022,13-30-54,21,depth_duration_stimuli/001815_2014-06-26_20-52-55_260595134347_rgbf000020-resize_0/001815_2014-06-26_20-52-55_260595134347_rgbf000020-resize_0-target.png,250,3.3865,6,2399,242,meters,jsons/v1_VE250_randls_43.json,712833,800134,29,Man
21,774263,DepthScenes,duration_manipulation_targetAtFixation,jsons/v1_VE250_randls_43.json,http://54.235.29.9/FacialAge/BNav_EC2/DepthDuration/v2_depth_duration_MTurk/v2_DepthDuration_HTML.html#47,47,1366,625,1366,768,9-20-2022,13-30-54,22,depth_duration_stimuli/000739_2014-06-08_18-45-58_260595134347_rgbf000068-resize_1/000739_2014-06-08_18-45-58_260595134347_rgbf000068-resize_1-target.png,250,3.534,4,3653,85,meters,jsons/v1_VE250_randls_43.json,712833,800134,29,Man
22,774263,DepthScenes,duration_manipulation_targetAtFixation,jsons/v1_VE250_randls_43.json,http://54.235.29.9/FacialAge/BNav_EC2/DepthDuration/v2_depth_duration_MTurk/v2_DepthDuration_HTML.html#47,47,1366,625,1366,768,9-20-2022,13-30-54,23,depth_duration_stimuli/000734_2014-06-08_17-39-11_260595134347_rgbf000128-resize_2/000734_2014-06-08_17-39-11_260595134347_rgbf000128-resize_2-target.png,250,4.098,3,3935,248,meters,jsons/v1_VE250_randls_43.json,712833,800134,29,Man
23,774263,DepthScenes,duration_manipulation_targetAtFixation,jsons/v1_VE250_randls_43.json,http://54.235.29.9/FacialAge/BNav_EC2/DepthDuration/v2_depth_duration_MTurk/v2_DepthDuration_HTML.html#47,47,1366,625,1366,768,9-20-2022,13-30-54,24,depth_duration_stimuli/003621_2014-05-23_18-06-08_094959634447_rgbf000101-resize_1/003621_2014-05-23_18-06-08_094959634447_rgbf000101-resize_1-target.png,250,3.9835,5,2772,250,meters,jsons/v1_VE250_randls_43.json,712833,800134,29,Man
24,774263,DepthScenes,duration_manipulation_targetAtFixation,jsons/v1_VE250_randls_43.json,http://54.235.29.9/FacialAge/BNav_EC2/DepthDuration/v2_depth_duration_MTurk/v2_DepthDuration_HTML.html#47,47,1366,625,1366,768,9-20-2022,13-30-54,25,depth_duration_stimuli/001584_2014-06-20_11-07-43_260595134347_rgbf000002-resize_1/001584_2014-06-20_11-07-43_260595134347_rgbf000002-resize_1-target.png,250,3.53,3,2732,216,meters,jsons/v1_VE250_randls_43.json,712833,800134,29,Man
25,774263,DepthScenes,duration_manipulation_targetAtFixation,jsons/v1_VE250_randls_43.json,http://54.235.29.9/FacialAge/BNav_EC2/DepthDuration/v2_depth_duration_MTurk/v2_DepthDuration_HTML.html#47,47,1366,625,1366,768,9-20-2022,13-30-54,26,depth_duration_stimuli/003070_2014-06-15_14-58-27_094959634447_rgbf000150-resize_3/003070_2014-06-15_14-58-27_094959634447_rgbf000150-resize_3-target.png,250,2.9415,4,2776,274,meters,jsons/v1_VE250_randls_43.json,712833,800134,29,Man
26,774263,DepthScenes,duration_manipulation_targetAtFixation,jsons/v1_VE250_randls_43.json,http://54.235.29.9/FacialAge/BNav_EC2/DepthDuration/v2_depth_duration_MTurk/v2_DepthDuration_HTML.html#47,47,1366,625,1366,768,9-20-2022,13-30-54,27,depth_duration_stimuli/000943_2014-06-09_19-31-07_260595134347_rgbf000128-resize_1/000943_2014-06-09_19-31-07_260595134347_rgbf000128-resize_1-target.png,250,1.9765,3,3107,241,meters,jsons/v1_VE250_randls_43.json,712833,800134,29,Man
27,774263,DepthScenes,duration_manipulation_targetAtFixation,jsons/v1_VE250_randls_43.json,http://54.235.29.9/FacialAge/BNav_EC2/DepthDuration/v2_depth_duration_MTurk/v2_DepthDuration_HTML.html#47,47,1366,625,1366,768,9-20-2022,13-30-54,28,depth_duration_stimuli/001029_2014-06-08_13-17-57_260595134347_rgbf000065-resize_1/001029_2014-06-08_13-17-57_260595134347_rgbf000065-resize_1-target.png,250,3.0835,6,3050,250,meters,jsons/v1_VE250_randls_43.json,712833,800134,29,Man
28,774263,DepthScenes,duration_manipulation_targetAtFixation,jsons/v1_VE250_randls_43.json,http://54.235.29.9/FacialAge/BNav_EC2/DepthDuration/v2_depth_duration_MTurk/v2_DepthDuration_HTML.html#47,47,1366,625,1366,768,9-20-2022,13-30-54,29,depth_duration_stimuli/000677_2014-06-08_23-10-32_260595134347_rgbf000158-resize_6/000677_2014-06-08_23-10-32_260595134347_rgbf000158-resize_6-target.png,250,3.556,3,3549,274,meters,jsons/v1_VE250_randls_43.json,712833,800134,29,Man
29,774263,DepthScenes,duration_manipulation_targetAtFixation,jsons/v1_VE250_randls_43.json,http://54.235.29.9/FacialAge/BNav_EC2/DepthDuration/v2_depth_duration_MTurk/v2_DepthDuration_HTML.html#47,47,1366,625,1366,768,9-20-2022,13-30-54,30,depth_duration_stimuli/000375_2014-06-08_11-17-29_260595134347_rgbf000133-resize_2/000375_2014-06-08_11-17-29_260595134347_rgbf000133-resize-original.jpg,250,4.718,4,2911,235,meters,jsons/v1_VE250_randls_43.json,712833,800134,29,Man
30,774263,DepthScenes,duration_manipulation_targetAtFixation,jsons/v1_VE250_randls_43.json,http://54.235.29.9/FacialAge/BNav_EC2/DepthDuration/v2_depth_duration_MTurk/v2_DepthDuration_HTML.html#47,47,1366,625,1366,768,9-20-2022,13-30-54,31,depth_duration_stimuli/000878_2014-06-08_22-52-45_260595134347_rgbf000045-resize_2/000878_2014-06-08_22-52-45_260595134347_rgbf000045-resize_2-target.png,250,2.092,4,4613,243,meters,jsons/v1_VE250_randls_43.json,712833,800134,29,Man
31,774263,DepthScenes,duration_manipulation_targetAtFixation,jsons/v1_VE250_randls_43.json,http://54.235.29.9/FacialAge/BNav_EC2/DepthDuration/v2_depth_duration_MTurk/v2_DepthDuration_HTML.html#47,47,1366,625,1366,768,9-20-2022,13-30-54,32,depth_duration_stimuli/002953_2014-06-08_17-32-18_094959634447_rgbf000059-resize_5/002953_2014-06-08_17-32-18_094959634447_rgbf000059-resize_5-target.png,250,1.551,4,2750,246,meters,jsons/v1_VE250_randls_43.json,712833,800134,29,Man
32,774263,DepthScenes,duration_manipulation_targetAtFixation,jsons/v1_VE250_randls_43.json,http://54.235.29.9/FacialAge/BNav_EC2/DepthDuration/v2_depth_duration_MTurk/v2_DepthDuration_HTML.html#47,47,1366,625,1366,768,9-20-2022,13-30-54,33,depth_duration_stimuli/002663_2014-06-13_15-50-26_094959634447_rgbf000075-resize_1/002663_2014-06-13_15-50-26_094959634447_rgbf000075-resize_1-target.png,250,4.7495,3,2367,238,meters,jsons/v1_VE250_randls_43.json,712833,800134,29,Man
33,774263,DepthScenes,duration_manipulation_targetAtFixation,jsons/v1_VE250_randls_43.json,http://54.235.29.9/FacialAge/BNav_EC2/DepthDuration/v2_depth_duration_MTurk/v2_DepthDuration_HTML.html#47,47,1366,625,1366,768,9-20-2022,13-30-54,34,depth_duration_stimuli/000409_2014-06-04_19-23-33_260595134347_rgbf000067-resize_0/000409_2014-06-04_19-23-33_260595134347_rgbf000067-resize_0-target.png,250,3.7335,6,2544,244,meters,jsons/v1_VE250_randls_43.json,712833,800134,29,Man
34,774263,DepthScenes,duration_manipulation_targetAtFixation,jsons/v1_VE250_randls_43.json,http://54.235.29.9/FacialAge/BNav_EC2/DepthDuration/v2_depth_duration_MTurk/v2_DepthDuration_HTML.html#47,47,1366,625,1366,768,9-20-2022,13-30-54,35,depth_duration_stimuli/000929_2014-06-09_16-33-19_260595134347_rgbf000139-resize_0/000929_2014-06-09_16-33-19_260595134347_rgbf000139-resize_0-target.png,250,2.8680000000000003,4,2410,269,meters,jsons/v1_VE250_randls_43.json,712833,800134,29,Man
35,774263,DepthScenes,duration_manipulation_targetAtFixation,jsons/v1_VE250_randls_43.json,http://54.235.29.9/FacialAge/BNav_EC2/DepthDuration/v2_depth_duration_MTurk/v2_DepthDuration_HTML.html#47,47,1366,625,1366,768,9-20-2022,13-30-54,36,depth_duration_stimuli/000457_2014-06-08_16-52-43_260595134347_rgbf000199-resize_1/000457_2014-06-08_16-52-43_260595134347_rgbf000199-resize_1-target.png,250,3.6489999999999996,4,7592,248,meters,jsons/v1_VE250_randls_43.json,712833,800134,29,Man
36,774263,DepthScenes,duration_manipulation_targetAtFixation,jsons/v1_VE250_randls_43.json,http://54.235.29.9/FacialAge/BNav_EC2/DepthDuration/v2_depth_duration_MTurk/v2_DepthDuration_HTML.html#47,47,1366,625,1366,768,9-20-2022,13-30-54,37,depth_duration_stimuli/002549_2014-06-24_13-41-39_094959634447_rgbf000022-resize_3/002549_2014-06-24_13-41-39_094959634447_rgbf000022-resize_3-target.png,250,1.476,4,2660,247,meters,jsons/v1_VE250_randls_43.json,712833,800134,29,Man
37,774263,DepthScenes,duration_manipulation_targetAtFixation,jsons/v1_VE250_randls_43.json,http://54.235.29.9/FacialAge/BNav_EC2/DepthDuration/v2_depth_duration_MTurk/v2_DepthDuration_HTML.html#47,47,1366,625,1366,768,9-20-2022,13-30-54,38,depth_duration_stimuli/002750_2014-06-22_19-08-03_094959634447_rgbf000094-resize_4/002750_2014-06-22_19-08-03_094959634447_rgbf000094-resize_4-target.png,250,2.354,6,2535,359,meters,jsons/v1_VE250_randls_43.json,712833,800134,29,Man
38,774263,DepthScenes,duration_manipulation_targetAtFixation,jsons/v1_VE250_randls_43.json,http://54.235.29.9/FacialAge/BNav_EC2/DepthDuration/v2_depth_duration_MTurk/v2_DepthDuration_HTML.html#47,47,1366,625,1366,768,9-20-2022,13-30-54,39,depth_duration_stimuli/000906_2014-06-08_13-35-43_260595134347_rgbf000155-resize_1/000906_2014-06-08_13-35-43_260595134347_rgbf000155-resize_1-target.png,250,2.8489999999999998,4,2370,243,meters,jsons/v1_VE250_randls_43.json,712833,800134,29,Man
39,774263,DepthScenes,duration_manipulation_targetAtFixation,jsons/v1_VE250_randls_43.json,http://54.235.29.9/FacialAge/BNav_EC2/DepthDuration/v2_depth_duration_MTurk/v2_DepthDuration_HTML.html#47,47,1366,625,1366,768,9-20-2022,13-30-54,40,depth_duration_stimuli/002805_2014-06-22_19-54-03_094959634447_rgbf000079-resize_1/002805_2014-06-22_19-54-03_094959634447_rgbf000079-resize_1-target.png,250,3.1439999999999997,4,2596,269,meters,jsons/v1_VE250_randls_43.json,712833,800134,29,Man
40,774263,DepthScenes,duration_manipulation_targetAtFixation,jsons/v1_VE250_randls_43.json,http://54.235.29.9/FacialAge/BNav_EC2/DepthDuration/v2_depth_duration_MTurk/v2_DepthDuration_HTML.html#47,47,1366,625,1366,768,9-20-2022,13-30-54,41,depth_duration_stimuli/000642_2014-06-08_16-59-25_260595134347_rgbf000098-resize_2/000642_2014-06-08_16-59-25_260595134347_rgbf000098-resize_2-target.png,250,2.8815,4,5096,251,meters,jsons/v1_VE250_randls_43.json,712833,800134,29,Man
41,774263,DepthScenes,duration_manipulation_targetAtFixation,jsons/v1_VE250_randls_43.json,http://54.235.29.9/FacialAge/BNav_EC2/DepthDuration/v2_depth_duration_MTurk/v2_DepthDuration_HTML.html#47,47,1366,625,1366,768,9-20-2022,13-30-54,42,depth_duration_stimuli/002425_2014-06-28_20-27-29_260595134347_rgbf000031-resize_8/002425_2014-06-28_20-27-29_260595134347_rgbf000031-resize_8-target.png,250,3.8960000000000004,3,2374,241,meters,jsons/v1_VE250_randls_43.json,712833,800134,29,Man
42,774263,DepthScenes,duration_manipulation_targetAtFixation,jsons/v1_VE250_randls_43.json,http://54.235.29.9/FacialAge/BNav_EC2/DepthDuration/v2_depth_duration_MTurk/v2_DepthDuration_HTML.html#47,47,1366,625,1366,768,9-20-2022,13-30-54,43,depth_duration_stimuli/002445_2014-06-28_20-32-16_260595134347_rgbf000029-resize_4/002445_2014-06-28_20-32-16_260595134347_rgbf000029-resize_4-target.png,250,2.5315,3,2650,249,meters,jsons/v1_VE250_randls_43.json,712833,800134,29,Man
43,774263,DepthScenes,duration_manipulation_targetAtFixation,jsons/v1_VE250_randls_43.json,http://54.235.29.9/FacialAge/BNav_EC2/DepthDuration/v2_depth_duration_MTurk/v2_DepthDuration_HTML.html#47,47,1366,625,1366,768,9-20-2022,13-30-54,44,depth_duration_stimuli/000780_2014-06-08_22-28-29_260595134347_rgbf000126-resize_1/000780_2014-06-08_22-28-29_260595134347_rgbf000126-resize_1-target.png,250,3.3825,4,2535,215,meters,jsons/v1_VE250_randls_43.json,712833,800134,29,Man
44,774263,DepthScenes,duration_manipulation_targetAtFixation,jsons/v1_VE250_randls_43.json,http://54.235.29.9/FacialAge/BNav_EC2/DepthDuration/v2_depth_duration_MTurk/v2_DepthDuration_HTML.html#47,47,1366,625,1366,768,9-20-2022,13-30-54,45,depth_duration_stimuli/000787_2014-06-08_22-33-53_260595134347_rgbf000175-resize_1/000787_2014-06-08_22-33-53_260595134347_rgbf000175-resize-original.jpg,250,4.784,3,3063,246,meters,jsons/v1_VE250_randls_43.json,712833,800134,29,Man
45,774263,DepthScenes,duration_manipulation_targetAtFixation,jsons/v1_VE250_randls_43.json,http://54.235.29.9/FacialAge/BNav_EC2/DepthDuration/v2_depth_duration_MTurk/v2_DepthDuration_HTML.html#47,47,1366,625,1366,768,9-20-2022,13-30-54,46,depth_duration_stimuli/002057_2014-06-24_21-00-13_260595134347_rgbf000120-resize_1/002057_2014-06-24_21-00-13_260595134347_rgbf000120-resize_1-target.png,250,2.967,6,2517,242,meters,jsons/v1_VE250_randls_43.json,712833,800134,29,Man
46,774263,DepthScenes,duration_manipulation_targetAtFixation,jsons/v1_VE250_randls_43.json,http://54.235.29.9/FacialAge/BNav_EC2/DepthDuration/v2_depth_duration_MTurk/v2_DepthDuration_HTML.html#47,47,1366,625,1366,768,9-20-2022,13-30-54,47,depth_duration_stimuli/000709_2014-06-08_13-51-55_260595134347_rgbf000068-resize_3/000709_2014-06-08_13-51-55_260595134347_rgbf000068-resize_3-target.png,250,1.8030000000000002,3,2413,248,meters,jsons/v1_VE250_randls_43.json,712833,800134,29,Man
47,774263,DepthScenes,duration_manipulation_targetAtFixation,jsons/v1_VE250_randls_43.json,http://54.235.29.9/FacialAge/BNav_EC2/DepthDuration/v2_depth_duration_MTurk/v2_DepthDuration_HTML.html#47,47,1366,625,1366,768,9-20-2022,13-30-54,48,depth_duration_stimuli/000447_2014-06-08_16-15-46_260595134347_rgbf000130-resize_1/000447_2014-06-08_16-15-46_260595134347_rgbf000130-resize_1-target.png,250,4.479,4,2183,54,meters,jsons/v1_VE250_randls_43.json,712833,800134,29,Man
48,774263,DepthScenes,duration_manipulation_targetAtFixation,jsons/v1_VE250_randls_43.json,http://54.235.29.9/FacialAge/BNav_EC2/DepthDuration/v2_depth_duration_MTurk/v2_DepthDuration_HTML.html#47,47,1366,625,1366,768,9-20-2022,13-30-54,49,depth_duration_stimuli/001447_2014-06-19_17-00-32_260595134347_rgbf000082-resize_5/001447_2014-06-19_17-00-32_260595134347_rgbf000082-resize_5-target.png,250,4.13775,3,2288,237,meters,jsons/v1_VE250_randls_43.json,712833,800134,29,Man
49,774263,DepthScenes,duration_manipulation_targetAtFixation,jsons/v1_VE250_randls_43.json,http://54.235.29.9/FacialAge/BNav_EC2/DepthDuration/v2_depth_duration_MTurk/v2_DepthDuration_HTML.html#47,47,1366,625,1366,768,9-20-2022,13-30-54,50,depth_duration_stimuli/002988_2014-06-15_12-24-20_094959634447_rgbf000150-resize_1/002988_2014-06-15_12-24-20_094959634447_rgbf000150-resize_1-target.png,250,4.7669999999999995,4,2760,247,meters,jsons/v1_VE250_randls_43.json,712833,800134,29,Man
50,774263,DepthScenes,duration_manipulation_targetAtFixation,jsons/v1_VE250_randls_43.json,http://54.235.29.9/FacialAge/BNav_EC2/DepthDuration/v2_depth_duration_MTurk/v2_DepthDuration_HTML.html#47,47,1366,625,1366,768,9-20-2022,13-30-54,51,depth_duration_stimuli/001052_2014-06-08_18-24-54_260595134347_rgbf000130-resize_1/001052_2014-06-08_18-24-54_260595134347_rgbf000130-resize_1-target.png,250,4.1045,4,2292,244,meters,jsons/v1_VE250_randls_43.json,712833,800134,29,Man
51,774263,DepthScenes,duration_manipulation_targetAtFixation,jsons/v1_VE250_randls_43.json,http://54.235.29.9/FacialAge/BNav_EC2/DepthDuration/v2_depth_duration_MTurk/v2_DepthDuration_HTML.html#47,47,1366,625,1366,768,9-20-2022,13-30-54,52,depth_duration_stimuli/002153_2014-06-25_21-27-18_260595134347_rgbf000038-resize_5/002153_2014-06-25_21-27-18_260595134347_rgbf000038-resize_5-target.png,250,2.505,4,2850,248,meters,jsons/v1_VE250_randls_43.json,712833,800134,29,Man
52,774263,DepthScenes,duration_manipulation_targetAtFixation,jsons/v1_VE250_randls_43.json,http://54.235.29.9/FacialAge/BNav_EC2/DepthDuration/v2_depth_duration_MTurk/v2_DepthDuration_HTML.html#47,47,1366,625,1366,768,9-20-2022,13-30-54,53,depth_duration_stimuli/002660_2014-06-13_15-44-18_094959634447_rgbf001878-resize_2/002660_2014-06-13_15-44-18_094959634447_rgbf001878-resize_2-target.png,250,3.576,6,2351,178,meters,jsons/v1_VE250_randls_43.json,712833,800134,29,Man
53,774263,DepthScenes,duration_manipulation_targetAtFixation,jsons/v1_VE250_randls_43.json,http://54.235.29.9/FacialAge/BNav_EC2/DepthDuration/v2_depth_duration_MTurk/v2_DepthDuration_HTML.html#47,47,1366,625,1366,768,9-20-2022,13-30-54,54,depth_duration_stimuli/001150_2014-06-17_15-27-34_260595134347_rgbf000108-resize_2/001150_2014-06-17_15-27-34_260595134347_rgbf000108-resize_2-target.png,250,4.0325,3,2277,248,meters,jsons/v1_VE250_randls_43.json,712833,800134,29,Man
54,774263,DepthScenes,duration_manipulation_targetAtFixation,jsons/v1_VE250_randls_43.json,http://54.235.29.9/FacialAge/BNav_EC2/DepthDuration/v2_depth_duration_MTurk/v2_DepthDuration_HTML.html#47,47,1366,625,1366,768,9-20-2022,13-30-54,55,depth_duration_stimuli/000665_2014-06-09_20-42-35_260595134347_rgbf000110-resize_1/000665_2014-06-09_20-42-35_260595134347_rgbf000110-resize_1-target.png,250,3.057,2,2717,258,meters,jsons/v1_VE250_randls_43.json,712833,800134,29,Man
55,774263,DepthScenes,duration_manipulation_targetAtFixation,jsons/v1_VE250_randls_43.json,http://54.235.29.9/FacialAge/BNav_EC2/DepthDuration/v2_depth_duration_MTurk/v2_DepthDuration_HTML.html#47,47,1366,625,1366,768,9-20-2022,13-30-54,56,depth_duration_stimuli/001056_2014-06-08_18-46-44_260595134347_rgbf000068-resize_0/001056_2014-06-08_18-46-44_260595134347_rgbf000068-resize_0-target.png,250,2.6625,3,2741,251,meters,jsons/v1_VE250_randls_43.json,712833,800134,29,Man
56,774263,DepthScenes,duration_manipulation_targetAtFixation,jsons/v1_VE250_randls_43.json,http://54.235.29.9/FacialAge/BNav_EC2/DepthDuration/v2_depth_duration_MTurk/v2_DepthDuration_HTML.html#47,47,1366,625,1366,768,9-20-2022,13-30-54,57,depth_duration_stimuli/002199_2014-06-28_18-33-56_260595134347_rgbf000074-resize_0/002199_2014-06-28_18-33-56_260595134347_rgbf000074-resize_0-target.png,250,1.996,8,2391,275,meters,jsons/v1_VE250_randls_43.json,712833,800134,29,Man
57,774263,DepthScenes,duration_manipulation_targetAtFixation,jsons/v1_VE250_randls_43.json,http://54.235.29.9/FacialAge/BNav_EC2/DepthDuration/v2_depth_duration_MTurk/v2_DepthDuration_HTML.html#47,47,1366,625,1366,768,9-20-2022,13-30-54,58,depth_duration_stimuli/002784_2014-06-22_19-26-30_094959634447_rgbf000083-resize_3/002784_2014-06-22_19-26-30_094959634447_rgbf000083-resize_3-target.png,250,1.8046666666667,4,2401,250,meters,jsons/v1_VE250_randls_43.json,712833,800134,29,Man
58,774263,DepthScenes,duration_manipulation_targetAtFixation,jsons/v1_VE250_randls_43.json,http://54.235.29.9/FacialAge/BNav_EC2/DepthDuration/v2_depth_duration_MTurk/v2_DepthDuration_HTML.html#47,47,1366,625,1366,768,9-20-2022,13-30-54,59,depth_duration_stimuli/001100_2014-06-15_17-46-26_260595134347_rgbf000225-resize_2/001100_2014-06-15_17-46-26_260595134347_rgbf000225-resize_2-target.png,250,2.24,3,2356,262,meters,jsons/v1_VE250_randls_43.json,712833,800134,29,Man
59,774263,DepthScenes,duration_manipulation_targetAtFixation,jsons/v1_VE250_randls_43.json,http://54.235.29.9/FacialAge/BNav_EC2/DepthDuration/v2_depth_duration_MTurk/v2_DepthDuration_HTML.html#47,47,1366,625,1366,768,9-20-2022,13-30-54,60,depth_duration_stimuli/002213_2014-06-28_18-37-58_260595134347_rgbf000055-resize_1/002213_2014-06-28_18-37-58_260595134347_rgbf000055-resize_1-target.png,250,3.62,2,2317,248,meters,jsons/v1_VE250_randls_43.json,712833,800134,29,Man
60,774263,DepthScenes,duration_manipulation_targetAtFixation,jsons/v1_VE250_randls_43.json,http://54.235.29.9/FacialAge/BNav_EC2/DepthDuration/v2_depth_duration_MTurk/v2_DepthDuration_HTML.html#47,47,1366,625,1366,768,9-20-2022,13-30-54,61,depth_duration_stimuli/000691_2014-06-08_13-08-50_260595134347_rgbf000132-resize_3/000691_2014-06-08_13-08-50_260595134347_rgbf000132-resize_3-target.png,250,4.1530000000000005,4,3173,265,meters,jsons/v1_VE250_randls_43.json,712833,800134,29,Man
61,774263,DepthScenes,duration_manipulation_targetAtFixation,jsons/v1_VE250_randls_43.json,http://54.235.29.9/FacialAge/BNav_EC2/DepthDuration/v2_depth_duration_MTurk/v2_DepthDuration_HTML.html#47,47,1366,625,1366,768,9-20-2022,13-30-54,62,depth_duration_stimuli/000414_2014-06-04_19-49-13_260595134347_rgbf000044-resize_0/000414_2014-06-04_19-49-13_260595134347_rgbf000044-resize_0-target.png,250,4.329,6,2636,249,meters,jsons/v1_VE250_randls_43.json,712833,800134,29,Man
62,774263,DepthScenes,duration_manipulation_targetAtFixation,jsons/v1_VE250_randls_43.json,http://54.235.29.9/FacialAge/BNav_EC2/DepthDuration/v2_depth_duration_MTurk/v2_DepthDuration_HTML.html#47,47,1366,625,1366,768,9-20-2022,13-30-54,63,depth_duration_stimuli/003129_2014-05-12_10-48-10_094959634447_rgbf000100-resize_0/003129_2014-05-12_10-48-10_094959634447_rgbf000100-resize_0-target.png,250,4.9305,4,2459,247,meters,jsons/v1_VE250_randls_43.json,712833,800134,29,Man
63,774263,DepthScenes,duration_manipulation_targetAtFixation,jsons/v1_VE250_randls_43.json,http://54.235.29.9/FacialAge/BNav_EC2/DepthDuration/v2_depth_duration_MTurk/v2_DepthDuration_HTML.html#47,47,1366,625,1366,768,9-20-2022,13-30-54,64,depth_duration_stimuli/002905_2014-06-03_18-04-43_094959634447_rgbf000151-resize_2/002905_2014-06-03_18-04-43_094959634447_rgbf000151-resize_2-target.png,250,2.0295,4,2611,249,meters,jsons/v1_VE250_randls_43.json,712833,800134,29,Man
64,774263,DepthScenes,duration_manipulation_targetAtFixation,jsons/v1_VE250_randls_43.json,http://54.235.29.9/FacialAge/BNav_EC2/DepthDuration/v2_depth_duration_MTurk/v2_DepthDuration_HTML.html#47,47,1366,625,1366,768,9-20-2022,13-30-54,65,depth_duration_stimuli/003423_2014-05-21_10-23-26_094959634447_rgbf002665-resize_2/003423_2014-05-21_10-23-26_094959634447_rgbf002665-resize_2-target.png,250,3.2575,3,2395,279,meters,jsons/v1_VE250_randls_43.json,712833,800134,29,Man
65,774263,DepthScenes,duration_manipulation_targetAtFixation,jsons/v1_VE250_randls_43.json,http://54.235.29.9/FacialAge/BNav_EC2/DepthDuration/v2_depth_duration_MTurk/v2_DepthDuration_HTML.html#47,47,1366,625,1366,768,9-20-2022,13-30-54,66,depth_duration_stimuli/001222_2014-06-17_16-24-06_260595134347_rgbf000073-resize_0/001222_2014-06-17_16-24-06_260595134347_rgbf000073-resize-original.jpg,250,1.4385,5,2910,186,meters,jsons/v1_VE250_randls_43.json,712833,800134,29,Man
66,774263,DepthScenes,duration_manipulation_targetAtFixation,jsons/v1_VE250_randls_43.json,http://54.235.29.9/FacialAge/BNav_EC2/DepthDuration/v2_depth_duration_MTurk/v2_DepthDuration_HTML.html#47,47,1366,625,1366,768,9-20-2022,13-30-54,67,depth_duration_stimuli/002272_2014-06-28_18-53-56_260595134347_rgbf000067-resize_2/002272_2014-06-28_18-53-56_260595134347_rgbf000067-resize_2-target.png,250,1.138,3,2464,316,meters,jsons/v1_VE250_randls_43.json,712833,800134,29,Man
67,774263,DepthScenes,duration_manipulation_targetAtFixation,jsons/v1_VE250_randls_43.json,http://54.235.29.9/FacialAge/BNav_EC2/DepthDuration/v2_depth_duration_MTurk/v2_DepthDuration_HTML.html#47,47,1366,625,1366,768,9-20-2022,13-30-54,68,depth_duration_stimuli/001571_2014-06-20_17-21-32_260595134347_rgbf000089-resize_1/001571_2014-06-20_17-21-32_260595134347_rgbf000089-resize_1-target.png,250,1.86,4,2689,252,meters,jsons/v1_VE250_randls_43.json,712833,800134,29,Man
68,774263,DepthScenes,duration_manipulation_targetAtFixation,jsons/v1_VE250_randls_43.json,http://54.235.29.9/FacialAge/BNav_EC2/DepthDuration/v2_depth_duration_MTurk/v2_DepthDuration_HTML.html#47,47,1366,625,1366,768,9-20-2022,13-30-54,69,depth_duration_stimuli/002118_2014-06-25_20-32-08_260595134347_rgbf000078-resize_1/002118_2014-06-25_20-32-08_260595134347_rgbf000078-resize_1-target.png,250,2.6460000000000004,4,5030,248,meters,jsons/v1_VE250_randls_43.json,712833,800134,29,Man
69,774263,DepthScenes,duration_manipulation_targetAtFixation,jsons/v1_VE250_randls_43.json,http://54.235.29.9/FacialAge/BNav_EC2/DepthDuration/v2_depth_duration_MTurk/v2_DepthDuration_HTML.html#47,47,1366,625,1366,768,9-20-2022,13-30-54,70,depth_duration_stimuli/001516_2014-06-20_16-25-09_260595134347_rgbf000076-resize_2/001516_2014-06-20_16-25-09_260595134347_rgbf000076-resize_2-target.png,250,1.7445,6,2301,251,meters,jsons/v1_VE250_randls_43.json,712833,800134,29,Man
70,774263,DepthScenes,duration_manipulation_targetAtFixation,jsons/v1_VE250_randls_43.json,http://54.235.29.9/FacialAge/BNav_EC2/DepthDuration/v2_depth_duration_MTurk/v2_DepthDuration_HTML.html#47,47,1366,625,1366,768,9-20-2022,13-30-54,71,depth_duration_stimuli/002763_2014-06-22_19-13-10_094959634447_rgbf000075-resize_4/002763_2014-06-22_19-13-10_094959634447_rgbf000075-resize_4-target.png,250,1.68375,4,5730,236,meters,jsons/v1_VE250_randls_43.json,712833,800134,29,Man
71,774263,DepthScenes,duration_manipulation_targetAtFixation,jsons/v1_VE250_randls_43.json,http://54.235.29.9/FacialAge/BNav_EC2/DepthDuration/v2_depth_duration_MTurk/v2_DepthDuration_HTML.html#47,47,1366,625,1366,768,9-20-2022,13-30-54,72,depth_duration_stimuli/002209_2014-06-28_18-36-10_260595134347_rgbf000051-resize_1/002209_2014-06-28_18-36-10_260595134347_rgbf000051-resize_1-target.png,250,2.057,4,3879,265,meters,jsons/v1_VE250_randls_43.json,712833,800134,29,Man
72,774263,DepthScenes,duration_manipulation_targetAtFixation,jsons/v1_VE250_randls_43.json,http://54.235.29.9/FacialAge/BNav_EC2/DepthDuration/v2_depth_duration_MTurk/v2_DepthDuration_HTML.html#47,47,1366,625,1366,768,9-20-2022,13-30-54,73,depth_duration_stimuli/001570_2014-06-20_17-21-09_260595134347_rgbf000135-resize_4/001570_2014-06-20_17-21-09_260595134347_rgbf000135-resize_4-target.png,250,4.467,4,2398,262,meters,jsons/v1_VE250_randls_43.json,712833,800134,29,Man
73,774263,DepthScenes,duration_manipulation_targetAtFixation,jsons/v1_VE250_randls_43.json,http://54.235.29.9/FacialAge/BNav_EC2/DepthDuration/v2_depth_duration_MTurk/v2_DepthDuration_HTML.html#47,47,1366,625,1366,768,9-20-2022,13-30-54,74,depth_duration_stimuli/001392_2014-06-19_16-07-59_260595134347_rgbf000046-resize_1/001392_2014-06-19_16-07-59_260595134347_rgbf000046-resize_1-target.png,250,4.135,4,2451,246,meters,jsons/v1_VE250_randls_43.json,712833,800134,29,Man
74,774263,DepthScenes,duration_manipulation_targetAtFixation,jsons/v1_VE250_randls_43.json,http://54.235.29.9/FacialAge/BNav_EC2/DepthDuration/v2_depth_duration_MTurk/v2_DepthDuration_HTML.html#47,47,1366,625,1366,768,9-20-2022,13-30-54,75,depth_duration_stimuli/002509_2014-06-24_13-19-22_094959634447_rgbf000077-resize_0/002509_2014-06-24_13-19-22_094959634447_rgbf000077-resize_0-target.png,250,1.3065,3,2374,240,meters,jsons/v1_VE250_randls_43.json,712833,800134,29,Man
75,774263,DepthScenes,duration_manipulation_targetAtFixation,jsons/v1_VE250_randls_43.json,http://54.235.29.9/FacialAge/BNav_EC2/DepthDuration/v2_depth_duration_MTurk/v2_DepthDuration_HTML.html#47,47,1366,625,1366,768,9-20-2022,13-30-54,76,depth_duration_stimuli/003338_2014-05-20_11-01-23_094959634447_rgbf000051-resize_6/003338_2014-05-20_11-01-23_094959634447_rgbf000051-resize_6-target.png,250,1.693,4,2326,146,meters,jsons/v1_VE250_randls_43.json,712833,800134,29,Man
76,774263,DepthScenes,duration_manipulation_targetAtFixation,jsons/v1_VE250_randls_43.json,http://54.235.29.9/FacialAge/BNav_EC2/DepthDuration/v2_depth_duration_MTurk/v2_DepthDuration_HTML.html#47,47,1366,625,1366,768,9-20-2022,13-30-54,77,depth_duration_stimuli/000682_2014-06-08_23-14-58_260595134347_rgbf000041-resize_5/000682_2014-06-08_23-14-58_260595134347_rgbf000041-resize_5-target.png,250,2.7239999999999998,3,2412,248,meters,jsons/v1_VE250_randls_43.json,712833,800134,29,Man
77,774263,DepthScenes,duration_manipulation_targetAtFixation,jsons/v1_VE250_randls_43.json,http://54.235.29.9/FacialAge/BNav_EC2/DepthDuration/v2_depth_duration_MTurk/v2_DepthDuration_HTML.html#47,47,1366,625,1366,768,9-20-2022,13-30-54,78,depth_duration_stimuli/001650_2014-06-20_12-09-00_260595134347_rgbf000087-resize_3/001650_2014-06-20_12-09-00_260595134347_rgbf000087-resize_3-target.png,250,1.9505,3,2592,247,meters,jsons/v1_VE250_randls_43.json,712833,800134,29,Man
78,774263,DepthScenes,duration_manipulation_targetAtFixation,jsons/v1_VE250_randls_43.json,http://54.235.29.9/FacialAge/BNav_EC2/DepthDuration/v2_depth_duration_MTurk/v2_DepthDuration_HTML.html#47,47,1366,625,1366,768,9-20-2022,13-30-54,79,depth_duration_stimuli/001066_2014-06-08_22-03-20_260595134347_rgbf000066-resize_4/001066_2014-06-08_22-03-20_260595134347_rgbf000066-resize_4-target.png,250,4.2330000000000005,4,2346,256,meters,jsons/v1_VE250_randls_43.json,712833,800134,29,Man
79,774263,DepthScenes,duration_manipulation_targetAtFixation,jsons/v1_VE250_randls_43.json,http://54.235.29.9/FacialAge/BNav_EC2/DepthDuration/v2_depth_duration_MTurk/v2_DepthDuration_HTML.html#47,47,1366,625,1366,768,9-20-2022,13-30-54,80,depth_duration_stimuli/000742_2014-06-08_18-48-09_260595134347_rgbf000164-resize_4/000742_2014-06-08_18-48-09_260595134347_rgbf000164-resize_4-target.png,250,4.632,3,3402,318,meters,jsons/v1_VE250_randls_43.json,712833,800134,29,Man
80,774263,DepthScenes,duration_manipulation_targetAtFixation,jsons/v1_VE250_randls_43.json,http://54.235.29.9/FacialAge/BNav_EC2/DepthDuration/v2_depth_duration_MTurk/v2_DepthDuration_HTML.html#47,47,1366,625,1366,768,9-20-2022,13-30-54,81,depth_duration_stimuli/002989_2014-06-15_12-25-03_094959634447_rgbf000150-resize_3/002989_2014-06-15_12-25-03_094959634447_rgbf000150-resize_3-target.png,250,4.1975,3,3917,332,meters,jsons/v1_VE250_randls_43.json,712833,800134,29,Man
81,774263,DepthScenes,duration_manipulation_targetAtFixation,jsons/v1_VE250_randls_43.json,http://54.235.29.9/FacialAge/BNav_EC2/DepthDuration/v2_depth_duration_MTurk/v2_DepthDuration_HTML.html#47,47,1366,625,1366,768,9-20-2022,13-30-54,82,depth_duration_stimuli/000866_2014-06-09_20-45-42_260595134347_rgbf000139-resize_1/000866_2014-06-09_20-45-42_260595134347_rgbf000139-resize_1-target.png,250,3.2155,2,2417,247,meters,jsons/v1_VE250_randls_43.json,712833,800134,29,Man
82,774263,DepthScenes,duration_manipulation_targetAtFixation,jsons/v1_VE250_randls_43.json,http://54.235.29.9/FacialAge/BNav_EC2/DepthDuration/v2_depth_duration_MTurk/v2_DepthDuration_HTML.html#47,47,1366,625,1366,768,9-20-2022,13-30-54,83,depth_duration_stimuli/001417_2014-06-19_16-25-36_260595134347_rgbf000115-resize_5/001417_2014-06-19_16-25-36_260595134347_rgbf000115-resize_5-target.png,250,4.6255,7,3171,248,meters,jsons/v1_VE250_randls_43.json,712833,800134,29,Man
83,774263,DepthScenes,duration_manipulation_targetAtFixation,jsons/v1_VE250_randls_43.json,http://54.235.29.9/FacialAge/BNav_EC2/DepthDuration/v2_depth_duration_MTurk/v2_DepthDuration_HTML.html#47,47,1366,625,1366,768,9-20-2022,13-30-54,84,depth_duration_stimuli/003081_2014-06-15_15-19-16_094959634447_rgbf000150-resize_1/003081_2014-06-15_15-19-16_094959634447_rgbf000150-resize_1-target.png,250,3.9125,4,4582,247,meters,jsons/v1_VE250_randls_43.json,712833,800134,29,Man
84,774263,DepthScenes,duration_manipulation_targetAtFixation,jsons/v1_VE250_randls_43.json,http://54.235.29.9/FacialAge/BNav_EC2/DepthDuration/v2_depth_duration_MTurk/v2_DepthDuration_HTML.html#47,47,1366,625,1366,768,9-20-2022,13-30-54,85,depth_duration_stimuli/001175_2014-06-17_15-45-55_260595134347_rgbf000129-resize_4/001175_2014-06-17_15-45-55_260595134347_rgbf000129-resize_4-target.png,250,4.255,5,2853,238,meters,jsons/v1_VE250_randls_43.json,712833,800134,29,Man
85,774263,DepthScenes,duration_manipulation_targetAtFixation,jsons/v1_VE250_randls_43.json,http://54.235.29.9/FacialAge/BNav_EC2/DepthDuration/v2_depth_duration_MTurk/v2_DepthDuration_HTML.html#47,47,1366,625,1366,768,9-20-2022,13-30-54,86,depth_duration_stimuli/003490_2014-05-21_15-50-11_094959634447_rgbf000101-resize_3/003490_2014-05-21_15-50-11_094959634447_rgbf000101-resize_3-target.png,250,3.6445,4,111743,246,meters,jsons/v1_VE250_randls_43.json,712833,800134,29,Man
86,774263,DepthScenes,duration_manipulation_targetAtFixation,jsons/v1_VE250_randls_43.json,http://54.235.29.9/FacialAge/BNav_EC2/DepthDuration/v2_depth_duration_MTurk/v2_DepthDuration_HTML.html#47,47,1366,625,1366,768,9-20-2022,13-30-54,87,depth_duration_stimuli/000788_2014-06-08_22-34-36_260595134347_rgbf000131-resize_1/000788_2014-06-08_22-34-36_260595134347_rgbf000131-resize_1-target.png,250,3.359,3,4120,249,meters,jsons/v1_VE250_randls_43.json,712833,800134,29,Man
87,774263,DepthScenes,duration_manipulation_targetAtFixation,jsons/v1_VE250_randls_43.json,http://54.235.29.9/FacialAge/BNav_EC2/DepthDuration/v2_depth_duration_MTurk/v2_DepthDuration_HTML.html#47,47,1366,625,1366,768,9-20-2022,13-30-54,88,depth_duration_stimuli/001235_2014-06-17_16-37-36_260595134347_rgbf000084-resize_4/001235_2014-06-17_16-37-36_260595134347_rgbf000084-resize_4-target.png,250,3.6605,3,2344,215,meters,jsons/v1_VE250_randls_43.json,712833,800134,29,Man
88,774263,DepthScenes,duration_manipulation_targetAtFixation,jsons/v1_VE250_randls_43.json,http://54.235.29.9/FacialAge/BNav_EC2/DepthDuration/v2_depth_duration_MTurk/v2_DepthDuration_HTML.html#47,47,1366,625,1366,768,9-20-2022,13-30-54,89,depth_duration_stimuli/000810_2014-06-08_17-20-01_260595134347_rgbf000105-resize_0/000810_2014-06-08_17-20-01_260595134347_rgbf000105-resize_0-target.png,250,1.4865,3,2543,232,meters,jsons/v1_VE250_randls_43.json,712833,800134,29,Man
89,774263,DepthScenes,duration_manipulation_targetAtFixation,jsons/v1_VE250_randls_43.json,http://54.235.29.9/FacialAge/BNav_EC2/DepthDuration/v2_depth_duration_MTurk/v2_DepthDuration_HTML.html#47,47,1366,625,1366,768,9-20-2022,13-30-54,90,depth_duration_stimuli/001214_2014-06-17_16-13-55_260595134347_rgbf000111-resize_0/001214_2014-06-17_16-13-55_260595134347_rgbf000111-resize_0-target.png,250,2.6505,3,2781,242,meters,jsons/v1_VE250_randls_43.json,712833,800134,29,Man
90,774263,DepthScenes,duration_manipulation_targetAtFixation,jsons/v1_VE250_randls_43.json,http://54.235.29.9/FacialAge/BNav_EC2/DepthDuration/v2_depth_duration_MTurk/v2_DepthDuration_HTML.html#47,47,1366,625,1366,768,9-20-2022,13-30-54,91,depth_duration_stimuli/002279_2014-06-28_18-55-32_260595134347_rgbf000040-resize_5/002279_2014-06-28_18-55-32_260595134347_rgbf000040-resize_5-target.png,250,1.5043333333333,2,2508,253,meters,jsons/v1_VE250_randls_43.json,712833,800134,29,Man
91,774263,DepthScenes,duration_manipulation_targetAtFixation,jsons/v1_VE250_randls_43.json,http://54.235.29.9/FacialAge/BNav_EC2/DepthDuration/v2_depth_duration_MTurk/v2_DepthDuration_HTML.html#47,47,1366,625,1366,768,9-20-2022,13-30-54,92,depth_duration_stimuli/000635_2014-06-08_16-38-42_260595134347_rgbf000106-resize_1/000635_2014-06-08_16-38-42_260595134347_rgbf000106-resize_1-target.png,250,2.074,3,3038,96,meters,jsons/v1_VE250_randls_43.json,712833,800134,29,Man
92,774263,DepthScenes,duration_manipulation_targetAtFixation,jsons/v1_VE250_randls_43.json,http://54.235.29.9/FacialAge/BNav_EC2/DepthDuration/v2_depth_duration_MTurk/v2_DepthDuration_HTML.html#47,47,1366,625,1366,768,9-20-2022,13-30-54,93,depth_duration_stimuli/001110_2014-06-15_17-25-28_260595134347_rgbf000150-resize_1/001110_2014-06-15_17-25-28_260595134347_rgbf000150-resize_1-target.png,250,1.7115,2,2471,238,meters,jsons/v1_VE250_randls_43.json,712833,800134,29,Man
93,774263,DepthScenes,duration_manipulation_targetAtFixation,jsons/v1_VE250_randls_43.json,http://54.235.29.9/FacialAge/BNav_EC2/DepthDuration/v2_depth_duration_MTurk/v2_DepthDuration_HTML.html#47,47,1366,625,1366,768,9-20-2022,13-30-54,94,depth_duration_stimuli/000927_2014-06-09_16-32-30_260595134347_rgbf000123-resize_3/000927_2014-06-09_16-32-30_260595134347_rgbf000123-resize_3-target.png,250,2.6785,5,2650,242,meters,jsons/v1_VE250_randls_43.json,712833,800134,29,Man
94,774263,DepthScenes,duration_manipulation_targetAtFixation,jsons/v1_VE250_randls_43.json,http://54.235.29.9/FacialAge/BNav_EC2/DepthDuration/v2_depth_duration_MTurk/v2_DepthDuration_HTML.html#47,47,1366,625,1366,768,9-20-2022,13-30-54,95,depth_duration_stimuli/002600_2014-06-24_14-27-04_094959634447_rgbf000074-resize_2/002600_2014-06-24_14-27-04_094959634447_rgbf000074-resize_2-target.png,250,2.7575,2,2560,232,meters,jsons/v1_VE250_randls_43.json,712833,800134,29,Man
95,774263,DepthScenes,duration_manipulation_targetAtFixation,jsons/v1_VE250_randls_43.json,http://54.235.29.9/FacialAge/BNav_EC2/DepthDuration/v2_depth_duration_MTurk/v2_DepthDuration_HTML.html#47,47,1366,625,1366,768,9-20-2022,13-30-54,96,depth_duration_stimuli/003228_2014-05-14_13-42-35_094959634447_rgbf000101-resize_1/003228_2014-05-14_13-42-35_094959634447_rgbf000101-resize_1-target.png,250,1.9680000000000002,3,2315,244,meters,jsons/v1_VE250_randls_43.json,712833,800134,29,Man
96,774263,DepthScenes,duration_manipulation_targetAtFixation,jsons/v1_VE250_randls_43.json,http://54.235.29.9/FacialAge/BNav_EC2/DepthDuration/v2_depth_duration_MTurk/v2_DepthDuration_HTML.html#47,47,1366,625,1366,768,9-20-2022,13-30-54,97,depth_duration_stimuli/000917_2014-06-09_22-45-29_260595134347_rgbf000149-resize_3/000917_2014-06-09_22-45-29_260595134347_rgbf000149-resize_3-target.png,250,4.1865,2,3854,239,meters,jsons/v1_VE250_randls_43.json,712833,800134,29,Man
97,774263,DepthScenes,duration_manipulation_targetAtFixation,jsons/v1_VE250_randls_43.json,http://54.235.29.9/FacialAge/BNav_EC2/DepthDuration/v2_depth_duration_MTurk/v2_DepthDuration_HTML.html#47,47,1366,625,1366,768,9-20-2022,13-30-54,98,depth_duration_stimuli/002323_2014-06-28_20-01-54_260595134347_rgbf000051-resize_4/002323_2014-06-28_20-01-54_260595134347_rgbf000051-resize_4-target.png,250,3.7310000000000003,3,2799,238,meters,jsons/v1_VE250_randls_43.json,712833,800134,29,Man
98,774263,DepthScenes,duration_manipulation_targetAtFixation,jsons/v1_VE250_randls_43.json,http://54.235.29.9/FacialAge/BNav_EC2/DepthDuration/v2_depth_duration_MTurk/v2_DepthDuration_HTML.html#47,47,1366,625,1366,768,9-20-2022,13-30-54,99,depth_duration_stimuli/001540_2014-06-20_17-01-05_260595134347_rgbf000086-resize_2/001540_2014-06-20_17-01-05_260595134347_rgbf000086-resize-original.jpg,250,1.459,3,3689,282,meters,jsons/v1_VE250_randls_43.json,712833,800134,29,Man
99,774263,DepthScenes,duration_manipulation_targetAtFixation,jsons/v1_VE250_randls_43.json,http://54.235.29.9/FacialAge/BNav_EC2/DepthDuration/v2_depth_duration_MTurk/v2_DepthDuration_HTML.html#47,47,1366,625,1366,768,9-20-2022,13-30-54,100,depth_duration_stimuli/001158_2014-06-17_15-32-16_260595134347_rgbf000138-resize_2/001158_2014-06-17_15-32-16_260595134347_rgbf000138-resize_2-target.png,250,4.5315,4,7788,252,meters,jsons/v1_VE250_randls_43.json,712833,800134,29,Man
100,774263,DepthScenes,duration_manipulation_targetAtFixation,jsons/v1_VE250_randls_43.json,http://54.235.29.9/FacialAge/BNav_EC2/DepthDuration/v2_depth_duration_MTurk/v2_DepthDuration_HTML.html#47,47,1366,625,1366,768,9-20-2022,13-30-54,101,depth_duration_stimuli/000556_2014-06-09_22-42-56_260595134347_rgbf000214-resize_1/000556_2014-06-09_22-42-56_260595134347_rgbf000214-resize_1-target.png,250,4.8415,4,3597,261,meters,jsons/v1_VE250_randls_43.json,712833,800134,29,Man
101,774263,DepthScenes,duration_manipulation_targetAtFixation,jsons/v1_VE250_randls_43.json,http://54.235.29.9/FacialAge/BNav_EC2/DepthDuration/v2_depth_duration_MTurk/v2_DepthDuration_HTML.html#47,47,1366,625,1366,768,9-20-2022,13-30-54,102,depth_duration_stimuli/000436_2014-06-09_22-25-11_260595134347_rgbf000137-resize_1/000436_2014-06-09_22-25-11_260595134347_rgbf000137-resize_1-target.png,250,4.0705,5,2790,265,meters,jsons/v1_VE250_randls_43.json,712833,800134,29,Man
102,774263,DepthScenes,duration_manipulation_targetAtFixation,jsons/v1_VE250_randls_43.json,http://54.235.29.9/FacialAge/BNav_EC2/DepthDuration/v2_depth_duration_MTurk/v2_DepthDuration_HTML.html#47,47,1366,625,1366,768,9-20-2022,13-30-54,103,depth_duration_stimuli/002444_2014-06-28_20-32-08_260595134347_rgbf000027-resize_0/002444_2014-06-28_20-32-08_260595134347_rgbf000027-resize_0-target.png,250,4.388999999999999,3,2713,250,meters,jsons/v1_VE250_randls_43.json,712833,800134,29,Man
103,774263,DepthScenes,duration_manipulation_targetAtFixation,jsons/v1_VE250_randls_43.json,http://54.235.29.9/FacialAge/BNav_EC2/DepthDuration/v2_depth_duration_MTurk/v2_DepthDuration_HTML.html#47,47,1366,625,1366,768,9-20-2022,13-30-54,104,depth_duration_stimuli/001011_2014-06-08_23-18-54_260595134347_rgbf000044-resize_4/001011_2014-06-08_23-18-54_260595134347_rgbf000044-resize_4-target.png,250,2.4730000000000003,2,2626,254,meters,jsons/v1_VE250_randls_43.json,712833,800134,29,Man
104,774263,DepthScenes,duration_manipulation_targetAtFixation,jsons/v1_VE250_randls_43.json,http://54.235.29.9/FacialAge/BNav_EC2/DepthDuration/v2_depth_duration_MTurk/v2_DepthDuration_HTML.html#47,47,1366,625,1366,768,9-20-2022,13-30-54,105,depth_duration_stimuli/002875_2014-06-01_15-19-00_094959634447_rgbf000151-resize_1/002875_2014-06-01_15-19-00_094959634447_rgbf000151-resize_1-target.png,250,1.9675,4,2561,405,meters,jsons/v1_VE250_randls_43.json,712833,800134,29,Man
105,774263,DepthScenes,duration_manipulation_targetAtFixation,jsons/v1_VE250_randls_43.json,http://54.235.29.9/FacialAge/BNav_EC2/DepthDuration/v2_depth_duration_MTurk/v2_DepthDuration_HTML.html#47,47,1366,625,1366,768,9-20-2022,13-30-54,106,depth_duration_stimuli/003492_2014-05-21_15-50-55_094959634447_rgbf000828-resize_1/003492_2014-05-21_15-50-55_094959634447_rgbf000828-resize_1-target.png,250,4.06875,3,3526,168,meters,jsons/v1_VE250_randls_43.json,712833,800134,29,Man
106,774263,DepthScenes,duration_manipulation_targetAtFixation,jsons/v1_VE250_randls_43.json,http://54.235.29.9/FacialAge/BNav_EC2/DepthDuration/v2_depth_duration_MTurk/v2_DepthDuration_HTML.html#47,47,1366,625,1366,768,9-20-2022,13-30-54,107,depth_duration_stimuli/002568_2014-06-24_13-59-21_094959634447_rgbf000062-resize_4/002568_2014-06-24_13-59-21_094959634447_rgbf000062-resize_4-target.png,250,3.015,2,2763,251,meters,jsons/v1_VE250_randls_43.json,712833,800134,29,Man
107,774263,DepthScenes,duration_manipulation_targetAtFixation,jsons/v1_VE250_randls_43.json,http://54.235.29.9/FacialAge/BNav_EC2/DepthDuration/v2_depth_duration_MTurk/v2_DepthDuration_HTML.html#47,47,1366,625,1366,768,9-20-2022,13-30-54,108,depth_duration_stimuli/001164_2014-06-17_15-35-46_260595134347_rgbf000085-resize_3/001164_2014-06-17_15-35-46_260595134347_rgbf000085-resize_3-target.png,250,2.354,4,2812,246,meters,jsons/v1_VE250_randls_43.json,712833,800134,29,Man
108,774263,DepthScenes,duration_manipulation_targetAtFixation,jsons/v1_VE250_randls_43.json,http://54.235.29.9/FacialAge/BNav_EC2/DepthDuration/v2_depth_duration_MTurk/v2_DepthDuration_HTML.html#47,47,1366,625,1366,768,9-20-2022,13-30-54,109,depth_duration_stimuli/001136_2014-06-17_15-19-41_260595134347_rgbf000076-resize_3/001136_2014-06-17_15-19-41_260595134347_rgbf000076-resize_3-target.png,250,1.8655,3,3203,366,meters,jsons/v1_VE250_randls_43.json,712833,800134,29,Man
109,774263,DepthScenes,duration_manipulation_targetAtFixation,jsons/v1_VE250_randls_43.json,http://54.235.29.9/FacialAge/BNav_EC2/DepthDuration/v2_depth_duration_MTurk/v2_DepthDuration_HTML.html#47,47,1366,625,1366,768,9-20-2022,13-30-54,110,depth_duration_stimuli/000506_2014-06-08_23-21-00_260595134347_rgbf000070-resize_7/000506_2014-06-08_23-21-00_260595134347_rgbf000070-resize_7-target.png,250,4.0585,5,4230,336,meters,jsons/v1_VE250_randls_43.json,712833,800134,29,Man
110,774263,DepthScenes,duration_manipulation_targetAtFixation,jsons/v1_VE250_randls_43.json,http://54.235.29.9/FacialAge/BNav_EC2/DepthDuration/v2_depth_duration_MTurk/v2_DepthDuration_HTML.html#47,47,1366,625,1366,768,9-20-2022,13-30-54,111,depth_duration_stimuli/003079_2014-06-15_15-18-20_094959634447_rgbf000152-resize_8/003079_2014-06-15_15-18-20_094959634447_rgbf000152-resize_8-target.png,250,2.8775,2,2840,218,meters,jsons/v1_VE250_randls_43.json,712833,800134,29,Man
111,774263,DepthScenes,duration_manipulation_targetAtFixation,jsons/v1_VE250_randls_43.json,http://54.235.29.9/FacialAge/BNav_EC2/DepthDuration/v2_depth_duration_MTurk/v2_DepthDuration_HTML.html#47,47,1366,625,1366,768,9-20-2022,13-30-54,112,depth_duration_stimuli/000493_2014-06-09_21-01-18_260595134347_rgbf000196-resize_3/000493_2014-06-09_21-01-18_260595134347_rgbf000196-resize_3-target.png,250,3.44,4,2568,373,meters,jsons/v1_VE250_randls_43.json,712833,800134,29,Man
112,774263,DepthScenes,duration_manipulation_targetAtFixation,jsons/v1_VE250_randls_43.json,http://54.235.29.9/FacialAge/BNav_EC2/DepthDuration/v2_depth_duration_MTurk/v2_DepthDuration_HTML.html#47,47,1366,625,1366,768,9-20-2022,13-30-54,113,depth_duration_stimuli/000191_2014-05-12_17-07-38_260595134347_rgbf000199-resize_0/000191_2014-05-12_17-07-38_260595134347_rgbf000199-resize_0-target.png,250,3.7995,3,2693,239,meters,jsons/v1_VE250_randls_43.json,712833,800134,29,Man
113,774263,DepthScenes,duration_manipulation_targetAtFixation,jsons/v1_VE250_randls_43.json,http://54.235.29.9/FacialAge/BNav_EC2/DepthDuration/v2_depth_duration_MTurk/v2_DepthDuration_HTML.html#47,47,1366,625,1366,768,9-20-2022,13-30-54,114,depth_duration_stimuli/000486_2014-06-09_20-47-20_260595134347_rgbf000143-resize_2/000486_2014-06-09_20-47-20_260595134347_rgbf000143-resize_2-target.png,250,4.8325,4,3276,170,meters,jsons/v1_VE250_randls_43.json,712833,800134,29,Man
114,774263,DepthScenes,duration_manipulation_targetAtFixation,jsons/v1_VE250_randls_43.json,http://54.235.29.9/FacialAge/BNav_EC2/DepthDuration/v2_depth_duration_MTurk/v2_DepthDuration_HTML.html#47,47,1366,625,1366,768,9-20-2022,13-30-54,115,depth_duration_stimuli/003083_2014-06-15_15-21-03_094959634447_rgbf000063-resize_1/003083_2014-06-15_15-21-03_094959634447_rgbf000063-resize_1-target.png,250,4.1405,3,2790,203,meters,jsons/v1_VE250_randls_43.json,712833,800134,29,Man
115,774263,DepthScenes,duration_manipulation_targetAtFixation,jsons/v1_VE250_randls_43.json,http://54.235.29.9/FacialAge/BNav_EC2/DepthDuration/v2_depth_duration_MTurk/v2_DepthDuration_HTML.html#47,47,1366,625,1366,768,9-20-2022,13-30-54,116,depth_duration_stimuli/001170_2014-06-17_15-43-44_260595134347_rgbf000096-resize_6/001170_2014-06-17_15-43-44_260595134347_rgbf000096-resize-original.jpg,250,1.1909999999999998,4,8717,250,meters,jsons/v1_VE250_randls_43.json,712833,800134,29,Man
116,774263,DepthScenes,duration_manipulation_targetAtFixation,jsons/v1_VE250_randls_43.json,http://54.235.29.9/FacialAge/BNav_EC2/DepthDuration/v2_depth_duration_MTurk/v2_DepthDuration_HTML.html#47,47,1366,625,1366,768,9-20-2022,13-30-54,117,depth_duration_stimuli/000469_2014-06-09_19-42-10_260595134347_rgbf000081-resize_1/000469_2014-06-09_19-42-10_260595134347_rgbf000081-resize_1-target.png,250,1.652,5,6756,245,meters,jsons/v1_VE250_randls_43.json,712833,800134,29,Man
117,774263,DepthScenes,duration_manipulation_targetAtFixation,jsons/v1_VE250_randls_43.json,http://54.235.29.9/FacialAge/BNav_EC2/DepthDuration/v2_depth_duration_MTurk/v2_DepthDuration_HTML.html#47,47,1366,625,1366,768,9-20-2022,13-30-54,118,depth_duration_stimuli/000483_2014-06-09_20-41-45_260595134347_rgbf000116-resize_4/000483_2014-06-09_20-41-45_260595134347_rgbf000116-resize_4-target.png,250,1.337,4,9841,241,meters,jsons/v1_VE250_randls_43.json,712833,800134,29,Man
118,774263,DepthScenes,duration_manipulation_targetAtFixation,jsons/v1_VE250_randls_43.json,http://54.235.29.9/FacialAge/BNav_EC2/DepthDuration/v2_depth_duration_MTurk/v2_DepthDuration_HTML.html#47,47,1366,625,1366,768,9-20-2022,13-30-54,119,depth_duration_stimuli/001449_2014-06-19_17-01-27_260595134347_rgbf000116-resize_2/001449_2014-06-19_17-01-27_260595134347_rgbf000116-resize_2-target.png,250,3.452,4,10541,236,meters,jsons/v1_VE250_randls_43.json,712833,800134,29,Man
119,774263,DepthScenes,duration_manipulation_targetAtFixation,jsons/v1_VE250_randls_43.json,http://54.235.29.9/FacialAge/BNav_EC2/DepthDuration/v2_depth_duration_MTurk/v2_DepthDuration_HTML.html#47,47,1366,625,1366,768,9-20-2022,13-30-54,120,depth_duration_stimuli/001450_2014-06-19_17-02-03_260595134347_rgbf000203-resize_4/001450_2014-06-19_17-02-03_260595134347_rgbf000203-resize_4-target.png,250,4.0106666666667,3,4775,249,meters,jsons/v1_VE250_randls_43.json,712833,800134,29,Man
120,774263,DepthScenes,duration_manipulation_targetAtFixation,jsons/v1_VE250_randls_43.json,http://54.235.29.9/FacialAge/BNav_EC2/DepthDuration/v2_depth_duration_MTurk/v2_DepthDuration_HTML.html#47,47,1366,625,1366,768,9-20-2022,13-30-54,121,depth_duration_stimuli/001244_2014-06-17_16-47-45_260595134347_rgbf000030-resize_4/001244_2014-06-17_16-47-45_260595134347_rgbf000030-resize_4-target.png,250,2.0425,4,2689,259,meters,jsons/v1_VE250_randls_43.json,712833,800134,29,Man
121,774263,DepthScenes,duration_manipulation_targetAtFixation,jsons/v1_VE250_randls_43.json,http://54.235.29.9/FacialAge/BNav_EC2/DepthDuration/v2_depth_duration_MTurk/v2_DepthDuration_HTML.html#47,47,1366,625,1366,768,9-20-2022,13-30-54,122,depth_duration_stimuli/003495_2014-05-21_16-01-51_094959634447_rgbf000100-resize_3/003495_2014-05-21_16-01-51_094959634447_rgbf000100-resize_3-target.png,250,1.6255,4,2726,329,meters,jsons/v1_VE250_randls_43.json,712833,800134,29,Man
122,774263,DepthScenes,duration_manipulation_targetAtFixation,jsons/v1_VE250_randls_43.json,http://54.235.29.9/FacialAge/BNav_EC2/DepthDuration/v2_depth_duration_MTurk/v2_DepthDuration_HTML.html#47,47,1366,625,1366,768,9-20-2022,13-30-54,123,depth_duration_stimuli/000009_2014-05-26_14-32-05_260595134347_rgbf000034-resize_3/000009_2014-05-26_14-32-05_260595134347_rgbf000034-resize_3-target.png,250,3.8715,5,6573,262,meters,jsons/v1_VE250_randls_43.json,712833,800134,29,Man
123,774263,DepthScenes,duration_manipulation_targetAtFixation,jsons/v1_VE250_randls_43.json,http://54.235.29.9/FacialAge/BNav_EC2/DepthDuration/v2_depth_duration_MTurk/v2_DepthDuration_HTML.html#47,47,1366,625,1366,768,9-20-2022,13-30-54,124,depth_duration_stimuli/001828_2014-06-26_21-40-03_260595134347_rgbf000024-resize_0/001828_2014-06-26_21-40-03_260595134347_rgbf000024-resize_0-target.png,250,4.8260000000000005,4,4708,290,meters,jsons/v1_VE250_randls_43.json,712833,800134,29,Man
124,774263,DepthScenes,duration_manipulation_targetAtFixation,jsons/v1_VE250_randls_43.json,http://54.235.29.9/FacialAge/BNav_EC2/DepthDuration/v2_depth_duration_MTurk/v2_DepthDuration_HTML.html#47,47,1366,625,1366,768,9-20-2022,13-30-54,125,depth_duration_stimuli/000522_2014-06-08_13-35-06_260595134347_rgbf000244-resize_1/000522_2014-06-08_13-35-06_260595134347_rgbf000244-resize_1-target.png,250,2.3715,3,2666,249,meters,jsons/v1_VE250_randls_43.json,712833,800134,29,Man
125,774263,DepthScenes,duration_manipulation_targetAtFixation,jsons/v1_VE250_randls_43.json,http://54.235.29.9/FacialAge/BNav_EC2/DepthDuration/v2_depth_duration_MTurk/v2_DepthDuration_HTML.html#47,47,1366,625,1366,768,9-20-2022,13-30-54,126,depth_duration_stimuli/002949_2014-06-26_15-57-42_094959634447_rgbf000079-resize_1/002949_2014-06-26_15-57-42_094959634447_rgbf000079-resize_1-target.png,250,1.8915,4,3078,236,meters,jsons/v1_VE250_randls_43.json,712833,800134,29,Man
126,774263,DepthScenes,duration_manipulation_targetAtFixation,jsons/v1_VE250_randls_43.json,http://54.235.29.9/FacialAge/BNav_EC2/DepthDuration/v2_depth_duration_MTurk/v2_DepthDuration_HTML.html#47,47,1366,625,1366,768,9-20-2022,13-30-54,127,depth_duration_stimuli/002043_2014-06-24_20-29-38_260595134347_rgbf000039-resize_4/002043_2014-06-24_20-29-38_260595134347_rgbf000039-resize_4-target.png,250,2.8435,3,2828,276,meters,jsons/v1_VE250_randls_43.json,712833,800134,29,Man
127,774263,DepthScenes,duration_manipulation_targetAtFixation,jsons/v1_VE250_randls_43.json,http://54.235.29.9/FacialAge/BNav_EC2/DepthDuration/v2_depth_duration_MTurk/v2_DepthDuration_HTML.html#47,47,1366,625,1366,768,9-20-2022,13-30-54,128,depth_duration_stimuli/003048_2014-06-15_13-49-43_094959634447_rgbf000150-resize_1/003048_2014-06-15_13-49-43_094959634447_rgbf000150-resize_1-target.png,250,4.0035,3,3385,242,meters,jsons/v1_VE250_randls_43.json,712833,800134,29,Man
128,774263,DepthScenes,duration_manipulation_targetAtFixation,jsons/v1_VE250_randls_43.json,http://54.235.29.9/FacialAge/BNav_EC2/DepthDuration/v2_depth_duration_MTurk/v2_DepthDuration_HTML.html#47,47,1366,625,1366,768,9-20-2022,13-30-54,129,depth_duration_stimuli/001133_2014-06-17_14-49-16_260595134347_rgbf000100-resize_0/001133_2014-06-17_14-49-16_260595134347_rgbf000100-resize_0-target.png,250,4.2115,4,2346,240,meters,jsons/v1_VE250_randls_43.json,712833,800134,29,Man
129,774263,DepthScenes,duration_manipulation_targetAtFixation,jsons/v1_VE250_randls_43.json,http://54.235.29.9/FacialAge/BNav_EC2/DepthDuration/v2_depth_duration_MTurk/v2_DepthDuration_HTML.html#47,47,1366,625,1366,768,9-20-2022,13-30-54,130,depth_duration_stimuli/001132_2014-06-17_14-48-54_260595134347_rgbf000100-resize_2/001132_2014-06-17_14-48-54_260595134347_rgbf000100-resize_2-target.png,250,3.753,4,2298,141,meters,jsons/v1_VE250_randls_43.json,712833,800134,29,Man
130,774263,DepthScenes,duration_manipulation_targetAtFixation,jsons/v1_VE250_randls_43.json,http://54.235.29.9/FacialAge/BNav_EC2/DepthDuration/v2_depth_duration_MTurk/v2_DepthDuration_HTML.html#47,47,1366,625,1366,768,9-20-2022,13-30-54,131,depth_duration_stimuli/002788_2014-06-22_19-36-03_094959634447_rgbf000088-resize_2/002788_2014-06-22_19-36-03_094959634447_rgbf000088-resize_2-target.png,250,1.6465,6,3469,256,meters,jsons/v1_VE250_randls_43.json,712833,800134,29,Man
131,774263,DepthScenes,duration_manipulation_targetAtFixation,jsons/v1_VE250_randls_43.json,http://54.235.29.9/FacialAge/BNav_EC2/DepthDuration/v2_depth_duration_MTurk/v2_DepthDuration_HTML.html#47,47,1366,625,1366,768,9-20-2022,13-30-54,132,depth_duration_stimuli/000749_2014-06-08_21-55-06_260595134347_rgbf000070-resize_2/000749_2014-06-08_21-55-06_260595134347_rgbf000070-resize_2-target.png,250,2.331,3,2437,251,meters,jsons/v1_VE250_randls_43.json,712833,800134,29,Man
132,774263,DepthScenes,duration_manipulation_targetAtFixation,jsons/v1_VE250_randls_43.json,http://54.235.29.9/FacialAge/BNav_EC2/DepthDuration/v2_depth_duration_MTurk/v2_DepthDuration_HTML.html#47,47,1366,625,1366,768,9-20-2022,13-30-54,133,depth_duration_stimuli/000758_2014-06-08_22-05-08_260595134347_rgbf000085-resize_0/000758_2014-06-08_22-05-08_260595134347_rgbf000085-resize_0-target.png,250,3.3810000000000002,3,2208,46,meters,jsons/v1_VE250_randls_43.json,712833,800134,29,Man
133,774263,DepthScenes,duration_manipulation_targetAtFixation,jsons/v1_VE250_randls_43.json,http://54.235.29.9/FacialAge/BNav_EC2/DepthDuration/v2_depth_duration_MTurk/v2_DepthDuration_HTML.html#47,47,1366,625,1366,768,9-20-2022,13-30-54,134,depth_duration_stimuli/000854_2014-06-09_19-43-13_260595134347_rgbf000066-resize_0/000854_2014-06-09_19-43-13_260595134347_rgbf000066-resize_0-target.png,250,3.068,3,2971,239,meters,jsons/v1_VE250_randls_43.json,712833,800134,29,Man
134,774263,DepthScenes,duration_manipulation_targetAtFixation,jsons/v1_VE250_randls_43.json,http://54.235.29.9/FacialAge/BNav_EC2/DepthDuration/v2_depth_duration_MTurk/v2_DepthDuration_HTML.html#47,47,1366,625,1366,768,9-20-2022,13-30-54,135,depth_duration_stimuli/002072_2014-06-24_21-48-06_260595134347_rgbf000115-resize_0/002072_2014-06-24_21-48-06_260595134347_rgbf000115-resize-original.jpg,250,4.702,4,2370,227,meters,jsons/v1_VE250_randls_43.json,712833,800134,29,Man
135,774263,DepthScenes,duration_manipulation_targetAtFixation,jsons/v1_VE250_randls_43.json,http://54.235.29.9/FacialAge/BNav_EC2/DepthDuration/v2_depth_duration_MTurk/v2_DepthDuration_HTML.html#47,47,1366,625,1366,768,9-20-2022,13-30-54,136,depth_duration_stimuli/002725_2014-06-22_11-47-51_094959634447_rgbf000070-resize_1/002725_2014-06-22_11-47-51_094959634447_rgbf000070-resize_1-target.png,250,2.195,3,2369,257,meters,jsons/v1_VE250_randls_43.json,712833,800134,29,Man
136,774263,DepthScenes,duration_manipulation_targetAtFixation,jsons/v1_VE250_randls_43.json,http://54.235.29.9/FacialAge/BNav_EC2/DepthDuration/v2_depth_duration_MTurk/v2_DepthDuration_HTML.html#47,47,1366,625,1366,768,9-20-2022,13-30-54,137,depth_duration_stimuli/002344_2014-06-28_20-06-29_260595134347_rgbf000030-resize_1/002344_2014-06-28_20-06-29_260595134347_rgbf000030-resize_1-target.png,250,1.5795,5,2444,200,meters,jsons/v1_VE250_randls_43.json,712833,800134,29,Man
137,774263,DepthScenes,duration_manipulation_targetAtFixation,jsons/v1_VE250_randls_43.json,http://54.235.29.9/FacialAge/BNav_EC2/DepthDuration/v2_depth_duration_MTurk/v2_DepthDuration_HTML.html#47,47,1366,625,1366,768,9-20-2022,13-30-54,138,depth_duration_stimuli/001016_2014-06-09_16-16-10_260595134347_rgbf000112-resize_5/001016_2014-06-09_16-16-10_260595134347_rgbf000112-resize_5-target.png,250,1.6565,3,3048,260,meters,jsons/v1_VE250_randls_43.json,712833,800134,29,Man
138,774263,DepthScenes,duration_manipulation_targetAtFixation,jsons/v1_VE250_randls_43.json,http://54.235.29.9/FacialAge/BNav_EC2/DepthDuration/v2_depth_duration_MTurk/v2_DepthDuration_HTML.html#47,47,1366,625,1366,768,9-20-2022,13-30-54,139,depth_duration_stimuli/002340_2014-06-28_20-05-46_260595134347_rgbf000113-resize_0/002340_2014-06-28_20-05-46_260595134347_rgbf000113-resize_0-target.png,250,2.4735,3,2757,249,meters,jsons/v1_VE250_randls_43.json,712833,800134,29,Man
139,774263,DepthScenes,duration_manipulation_targetAtFixation,jsons/v1_VE250_randls_43.json,http://54.235.29.9/FacialAge/BNav_EC2/DepthDuration/v2_depth_duration_MTurk/v2_DepthDuration_HTML.html#47,47,1366,625,1366,768,9-20-2022,13-30-54,140,depth_duration_stimuli/002375_2014-06-28_20-13-44_260595134347_rgbf000032-resize_1/002375_2014-06-28_20-13-44_260595134347_rgbf000032-resize_1-target.png,250,4.0175,4,2442,205,meters,jsons/v1_VE250_randls_43.json,712833,800134,29,Man
140,774263,DepthScenes,duration_manipulation_targetAtFixation,jsons/v1_VE250_randls_43.json,http://54.235.29.9/FacialAge/BNav_EC2/DepthDuration/v2_depth_duration_MTurk/v2_DepthDuration_HTML.html#47,47,1366,625,1366,768,9-20-2022,13-30-54,141,depth_duration_stimuli/002657_2014-06-13_15-29-54_094959634447_rgbf000150-resize_1/002657_2014-06-13_15-29-54_094959634447_rgbf000150-resize_1-target.png,250,4.919,4,2566,253,meters,jsons/v1_VE250_randls_43.json,712833,800134,29,Man
141,774263,DepthScenes,duration_manipulation_targetAtFixation,jsons/v1_VE250_randls_43.json,http://54.235.29.9/FacialAge/BNav_EC2/DepthDuration/v2_depth_duration_MTurk/v2_DepthDuration_HTML.html#47,47,1366,625,1366,768,9-20-2022,13-30-54,142,depth_duration_stimuli/001199_2014-06-17_16-03-48_260595134347_rgbf000077-resize_0/001199_2014-06-17_16-03-48_260595134347_rgbf000077-resize_0-target.png,250,3.4375,3,4102,237,meters,jsons/v1_VE250_randls_43.json,712833,800134,29,Man
142,774263,DepthScenes,duration_manipulation_targetAtFixation,jsons/v1_VE250_randls_43.json,http://54.235.29.9/FacialAge/BNav_EC2/DepthDuration/v2_depth_duration_MTurk/v2_DepthDuration_HTML.html#47,47,1366,625,1366,768,9-20-2022,13-30-54,143,depth_duration_stimuli/000502_2014-06-08_23-02-32_260595134347_rgbf000063-resize_4/000502_2014-06-08_23-02-32_260595134347_rgbf000063-resize_4-target.png,250,2.431,4,3119,258,meters,jsons/v1_VE250_randls_43.json,712833,800134,29,Man
143,774263,DepthScenes,duration_manipulation_targetAtFixation,jsons/v1_VE250_randls_43.json,http://54.235.29.9/FacialAge/BNav_EC2/DepthDuration/v2_depth_duration_MTurk/v2_DepthDuration_HTML.html#47,47,1366,625,1366,768,9-20-2022,13-30-54,144,depth_duration_stimuli/000692_2014-06-08_13-09-42_260595134347_rgbf000199-resize_2/000692_2014-06-08_13-09-42_260595134347_rgbf000199-resize_2-target.png,250,3.661,5,2916,263,meters,jsons/v1_VE250_randls_43.json,712833,800134,29,Man
144,774263,DepthScenes,duration_manipulation_targetAtFixation,jsons/v1_VE250_randls_43.json,http://54.235.29.9/FacialAge/BNav_EC2/DepthDuration/v2_depth_duration_MTurk/v2_DepthDuration_HTML.html#47,47,1366,625,1366,768,9-20-2022,13-30-54,145,depth_duration_stimuli/001094_2014-06-15_17-36-00_260595134347_rgbf000205-resize_0/001094_2014-06-15_17-36-00_260595134347_rgbf000205-resize_0-target.png,250,4.2175,3,2606,255,meters,jsons/v1_VE250_randls_43.json,712833,800134,29,Man
145,774263,DepthScenes,duration_manipulation_targetAtFixation,jsons/v1_VE250_randls_43.json,http://54.235.29.9/FacialAge/BNav_EC2/DepthDuration/v2_depth_duration_MTurk/v2_DepthDuration_HTML.html#47,47,1366,625,1366,768,9-20-2022,13-30-54,146,depth_duration_stimuli/001498_2014-06-19_17-45-14_260595134347_rgbf000129-resize_4/001498_2014-06-19_17-45-14_260595134347_rgbf000129-resize-original.jpg,250,1.4075,3,2446,238,meters,jsons/v1_VE250_randls_43.json,712833,800134,29,Man
146,774263,DepthScenes,duration_manipulation_targetAtFixation,jsons/v1_VE250_randls_43.json,http://54.235.29.9/FacialAge/BNav_EC2/DepthDuration/v2_depth_duration_MTurk/v2_DepthDuration_HTML.html#47,47,1366,625,1366,768,9-20-2022,13-30-54,147,depth_duration_stimuli/003534_2014-05-22_15-06-10_094959634447_rgbf000102-resize_4/003534_2014-05-22_15-06-10_094959634447_rgbf000102-resize_4-target.png,250,1.426,3,2366,248,meters,jsons/v1_VE250_randls_43.json,712833,800134,29,Man
147,774263,DepthScenes,duration_manipulation_targetAtFixation,jsons/v1_VE250_randls_43.json,http://54.235.29.9/FacialAge/BNav_EC2/DepthDuration/v2_depth_duration_MTurk/v2_DepthDuration_HTML.html#47,47,1366,625,1366,768,9-20-2022,13-30-54,148,depth_duration_stimuli/002637_2014-06-24_14-51-13_094959634447_rgbf000066-resize_4/002637_2014-06-24_14-51-13_094959634447_rgbf000066-resize_4-target.png,250,1.9955,2,2406,240,meters,jsons/v1_VE250_randls_43.json,712833,800134,29,Man
148,774263,DepthScenes,duration_manipulation_targetAtFixation,jsons/v1_VE250_randls_43.json,http://54.235.29.9/FacialAge/BNav_EC2/DepthDuration/v2_depth_duration_MTurk/v2_DepthDuration_HTML.html#47,47,1366,625,1366,768,9-20-2022,13-30-54,149,depth_duration_stimuli/001806_2014-06-26_20-50-20_260595134347_rgbf000091-resize_1/001806_2014-06-26_20-50-20_260595134347_rgbf000091-resize_1-target.png,250,2.7305,5,2391,242,meters,jsons/v1_VE250_randls_43.json,712833,800134,29,Man
149,774263,DepthScenes,duration_manipulation_targetAtFixation,jsons/v1_VE250_randls_43.json,http://54.235.29.9/FacialAge/BNav_EC2/DepthDuration/v2_depth_duration_MTurk/v2_DepthDuration_HTML.html#47,47,1366,625,1366,768,9-20-2022,13-30-54,150,depth_duration_stimuli/001617_2014-06-20_11-35-32_260595134347_rgbf000066-resize_1/001617_2014-06-20_11-35-32_260595134347_rgbf000066-resize_1-target.png,250,3.7910000000000004,4,2276,247,meters,jsons/v1_VE250_randls_43.json,712833,800134,29,Man
150,774263,DepthScenes,duration_manipulation_targetAtFixation,jsons/v1_VE250_randls_43.json,http://54.235.29.9/FacialAge/BNav_EC2/DepthDuration/v2_depth_duration_MTurk/v2_DepthDuration_HTML.html#47,47,1366,625,1366,768,9-20-2022,13-30-54,151,depth_duration_stimuli/001059_2014-06-08_21-53-27_260595134347_rgbf000061-resize_4/001059_2014-06-08_21-53-27_260595134347_rgbf000061-resize_4-target.png,250,2.4185,3,2196,255,meters,jsons/v1_VE250_randls_43.json,712833,800134,29,Man
151,774263,DepthScenes,duration_manipulation_targetAtFixation,jsons/v1_VE250_randls_43.json,http://54.235.29.9/FacialAge/BNav_EC2/DepthDuration/v2_depth_duration_MTurk/v2_DepthDuration_HTML.html#47,47,1366,625,1366,768,9-20-2022,13-30-54,152,depth_duration_stimuli/001032_2014-06-08_13-23-17_260595134347_rgbf000021-resize_3/001032_2014-06-08_13-23-17_260595134347_rgbf000021-resize_3-target.png,250,3.2725,5,6307,217,meters,jsons/v1_VE250_randls_43.json,712833,800134,29,Man
152,774263,DepthScenes,duration_manipulation_targetAtFixation,jsons/v1_VE250_randls_43.json,http://54.235.29.9/FacialAge/BNav_EC2/DepthDuration/v2_depth_duration_MTurk/v2_DepthDuration_HTML.html#47,47,1366,625,1366,768,9-20-2022,13-30-54,153,depth_duration_stimuli/001555_2014-06-20_17-12-10_260595134347_rgbf000065-resize_4/001555_2014-06-20_17-12-10_260595134347_rgbf000065-resize_4-target.png,250,1.633,4,2940,236,meters,jsons/v1_VE250_randls_43.json,712833,800134,29,Man
153,774263,DepthScenes,duration_manipulation_targetAtFixation,jsons/v1_VE250_randls_43.json,http://54.235.29.9/FacialAge/BNav_EC2/DepthDuration/v2_depth_duration_MTurk/v2_DepthDuration_HTML.html#47,47,1366,625,1366,768,9-20-2022,13-30-54,154,depth_duration_stimuli/000103_2014-05-14_22-01-17_260595134347_rgbf000152-resize_5/000103_2014-05-14_22-01-17_260595134347_rgbf000152-resize_5-target.png,250,1.993,4,2260,251,meters,jsons/v1_VE250_randls_43.json,712833,800134,29,Man
154,774263,DepthScenes,duration_manipulation_targetAtFixation,jsons/v1_VE250_randls_43.json,http://54.235.29.9/FacialAge/BNav_EC2/DepthDuration/v2_depth_duration_MTurk/v2_DepthDuration_HTML.html#47,47,1366,625,1366,768,9-20-2022,13-30-54,155,depth_duration_stimuli/002964_2014-06-08_17-46-11_094959634447_rgbf000091-resize_4/002964_2014-06-08_17-46-11_094959634447_rgbf000091-resize_4-target.png,250,1.6909999999999998,3,2414,247,meters,jsons/v1_VE250_randls_43.json,712833,800134,29,Man
155,774263,DepthScenes,duration_manipulation_targetAtFixation,jsons/v1_VE250_randls_43.json,http://54.235.29.9/FacialAge/BNav_EC2/DepthDuration/v2_depth_duration_MTurk/v2_DepthDuration_HTML.html#47,47,1366,625,1366,768,9-20-2022,13-30-54,156,depth_duration_stimuli/002136_2014-06-25_21-18-03_260595134347_rgbf000109-resize_3/002136_2014-06-25_21-18-03_260595134347_rgbf000109-resize_3-target.png,250,1.9569999999999999,3,2665,260,meters,jsons/v1_VE250_randls_43.json,712833,800134,29,Man
156,774263,DepthScenes,duration_manipulation_targetAtFixation,jsons/v1_VE250_randls_43.json,http://54.235.29.9/FacialAge/BNav_EC2/DepthDuration/v2_depth_duration_MTurk/v2_DepthDuration_HTML.html#47,47,1366,625,1366,768,9-20-2022,13-30-54,157,depth_duration_stimuli/002630_2014-06-24_14-47-50_094959634447_rgbf000055-resize_1/002630_2014-06-24_14-47-50_094959634447_rgbf000055-resize_1-target.png,250,3.0095,4,2308,250,meters,jsons/v1_VE250_randls_43.json,712833,800134,29,Man
157,774263,DepthScenes,duration_manipulation_targetAtFixation,jsons/v1_VE250_randls_43.json,http://54.235.29.9/FacialAge/BNav_EC2/DepthDuration/v2_depth_duration_MTurk/v2_DepthDuration_HTML.html#47,47,1366,625,1366,768,9-20-2022,13-30-54,158,depth_duration_stimuli/002758_2014-06-22_19-11-20_094959634447_rgbf000128-resize_1/002758_2014-06-22_19-11-20_094959634447_rgbf000128-resize_1-target.png,250,2.555,3,2325,248,meters,jsons/v1_VE250_randls_43.json,712833,800134,29,Man
158,774263,DepthScenes,duration_manipulation_targetAtFixation,jsons/v1_VE250_randls_43.json,http://54.235.29.9/FacialAge/BNav_EC2/DepthDuration/v2_depth_duration_MTurk/v2_DepthDuration_HTML.html#47,47,1366,625,1366,768,9-20-2022,13-30-54,159,depth_duration_stimuli/002039_2014-06-24_20-22-38_260595134347_rgbf000084-resize_1/002039_2014-06-24_20-22-38_260595134347_rgbf000084-resize_1-target.png,250,4.408,4,2330,239,meters,jsons/v1_VE250_randls_43.json,712833,800134,29,Man
159,774263,DepthScenes,duration_manipulation_targetAtFixation,jsons/v1_VE250_randls_43.json,http://54.235.29.9/FacialAge/BNav_EC2/DepthDuration/v2_depth_duration_MTurk/v2_DepthDuration_HTML.html#47,47,1366,625,1366,768,9-20-2022,13-30-54,160,depth_duration_stimuli/002103_2014-06-25_20-00-40_260595134347_rgbf000049-resize_0/002103_2014-06-25_20-00-40_260595134347_rgbf000049-resize_0-target.png,250,4.105,4,2473,242,meters,jsons/v1_VE250_randls_43.json,712833,800134,29,Man
160,774263,DepthScenes,duration_manipulation_targetAtFixation,jsons/v1_VE250_randls_43.json,http://54.235.29.9/FacialAge/BNav_EC2/DepthDuration/v2_depth_duration_MTurk/v2_DepthDuration_HTML.html#47,47,1366,625,1366,768,9-20-2022,13-30-54,161,depth_duration_stimuli/000736_2014-06-08_18-24-15_260595134347_rgbf000206-resize_3/000736_2014-06-08_18-24-15_260595134347_rgbf000206-resize_3-target.png,250,3.515,3,2861,255,meters,jsons/v1_VE250_randls_43.json,712833,800134,29,Man
161,774263,DepthScenes,duration_manipulation_targetAtFixation,jsons/v1_VE250_randls_43.json,http://54.235.29.9/FacialAge/BNav_EC2/DepthDuration/v2_depth_duration_MTurk/v2_DepthDuration_HTML.html#47,47,1366,625,1366,768,9-20-2022,13-30-54,162,depth_duration_stimuli/000137_2014-05-20_17-04-49_260595134347_rgbf000120-resize_1/000137_2014-05-20_17-04-49_260595134347_rgbf000120-resize_1-target.png,250,3.786,2,2397,250,meters,jsons/v1_VE250_randls_43.json,712833,800134,29,Man
162,774263,DepthScenes,duration_manipulation_targetAtFixation,jsons/v1_VE250_randls_43.json,http://54.235.29.9/FacialAge/BNav_EC2/DepthDuration/v2_depth_duration_MTurk/v2_DepthDuration_HTML.html#47,47,1366,625,1366,768,9-20-2022,13-30-54,163,depth_duration_stimuli/002570_2014-06-24_13-59-54_094959634447_rgbf000059-resize_0/002570_2014-06-24_13-59-54_094959634447_rgbf000059-resize_0-target.png,250,4.037,6,2186,247,meters,jsons/v1_VE250_randls_43.json,712833,800134,29,Man
163,774263,DepthScenes,duration_manipulation_targetAtFixation,jsons/v1_VE250_randls_43.json,http://54.235.29.9/FacialAge/BNav_EC2/DepthDuration/v2_depth_duration_MTurk/v2_DepthDuration_HTML.html#47,47,1366,625,1366,768,9-20-2022,13-30-54,164,depth_duration_stimuli/002467_2014-06-28_20-38-07_260595134347_rgbf000026-resize_2/002467_2014-06-28_20-38-07_260595134347_rgbf000026-resize_2-target.png,250,4.742,4,2288,284,meters,jsons/v1_VE250_randls_43.json,712833,800134,29,Man
