,subjID,experimentName,versionName,sequenceName,url,selected_row,windowWidth,windowHeight,screenWidth,screenHeight,startDate,startTime,trial,stimulus,duration,actual_depth,depth_estimate,trial_RT,log_sceneDuration,unitSelection,seq_filepath,experimentTime,totalTime,age,gender
0,777408,DepthScenes,duration_manipulation_targetAtFixation,jsons/VE125_randls_7.json,http://54.235.29.9/FacialAge/BNav_EC2/DepthDuration/v2_depth_duration_MTurk/v2_DepthDuration_HTML.html#26,26,1364,625,1364,768,8-29-2022,12-25-7,1,depth_duration_stimuli/002445_2014-06-28_20-32-16_260595134347_rgbf000029-resize_4/002445_2014-06-28_20-32-16_260595134347_rgbf000029-resize_4-target.png,125,2.5315,1,4743,128,feet,jsons/VE125_randls_7.json,614932,811230,28,Woman
1,777408,DepthScenes,duration_manipulation_targetAtFixation,jsons/VE125_randls_7.json,http://54.235.29.9/FacialAge/BNav_EC2/DepthDuration/v2_depth_duration_MTurk/v2_DepthDuration_HTML.html#26,26,1364,625,1364,768,8-29-2022,12-25-7,2,depth_duration_stimuli/000780_2014-06-08_22-28-29_260595134347_rgbf000126-resize_1/000780_2014-06-08_22-28-29_260595134347_rgbf000126-resize_1-target.png,125,3.3825,2,3662,119,feet,jsons/VE125_randls_7.json,614932,811230,28,Woman
2,777408,DepthScenes,duration_manipulation_targetAtFixation,jsons/VE125_randls_7.json,http://54.235.29.9/FacialAge/BNav_EC2/DepthDuration/v2_depth_duration_MTurk/v2_DepthDuration_HTML.html#26,26,1364,625,1364,768,8-29-2022,12-25-7,3,depth_duration_stimuli/000009_2014-05-26_14-32-05_260595134347_rgbf000034-resize_3/000009_2014-05-26_14-32-05_260595134347_rgbf000034-resize_3-target.png,125,3.8715,3,4610,123,feet,jsons/VE125_randls_7.json,614932,811230,28,Woman
3,777408,DepthScenes,duration_manipulation_targetAtFixation,jsons/VE125_randls_7.json,http://54.235.29.9/FacialAge/BNav_EC2/DepthDuration/v2_depth_duration_MTurk/v2_DepthDuration_HTML.html#26,26,1364,625,1364,768,8-29-2022,12-25-7,4,depth_duration_stimuli/001828_2014-06-26_21-40-03_260595134347_rgbf000024-resize_0/001828_2014-06-26_21-40-03_260595134347_rgbf000024-resize_0-target.png,125,4.8260000000000005,2,2659,101,feet,jsons/VE125_randls_7.json,614932,811230,28,Woman
4,777408,DepthScenes,duration_manipulation_targetAtFixation,jsons/VE125_randls_7.json,http://54.235.29.9/FacialAge/BNav_EC2/DepthDuration/v2_depth_duration_MTurk/v2_DepthDuration_HTML.html#26,26,1364,625,1364,768,8-29-2022,12-25-7,5,depth_duration_stimuli/001810_2014-06-26_20-51-35_260595134347_rgbf000040-resize_3/001810_2014-06-26_20-51-35_260595134347_rgbf000040-resize_3-target.png,125,2.2525,1,3103,124,feet,jsons/VE125_randls_7.json,614932,811230,28,Woman
5,777408,DepthScenes,duration_manipulation_targetAtFixation,jsons/VE125_randls_7.json,http://54.235.29.9/FacialAge/BNav_EC2/DepthDuration/v2_depth_duration_MTurk/v2_DepthDuration_HTML.html#26,26,1364,625,1364,768,8-29-2022,12-25-7,6,depth_duration_stimuli/003010_2014-06-15_12-54-35_094959634447_rgbf000112-resize_0/003010_2014-06-15_12-54-35_094959634447_rgbf000112-resize_0-target.png,125,3.1185,3,4219,126,feet,jsons/VE125_randls_7.json,614932,811230,28,Woman
6,777408,DepthScenes,duration_manipulation_targetAtFixation,jsons/VE125_randls_7.json,http://54.235.29.9/FacialAge/BNav_EC2/DepthDuration/v2_depth_duration_MTurk/v2_DepthDuration_HTML.html#26,26,1364,625,1364,768,8-29-2022,12-25-7,7,depth_duration_stimuli/001059_2014-06-08_21-53-27_260595134347_rgbf000061-resize_4/001059_2014-06-08_21-53-27_260595134347_rgbf000061-resize_4-target.png,125,2.4185,1,3255,125,feet,jsons/VE125_randls_7.json,614932,811230,28,Woman
7,777408,DepthScenes,duration_manipulation_targetAtFixation,jsons/VE125_randls_7.json,http://54.235.29.9/FacialAge/BNav_EC2/DepthDuration/v2_depth_duration_MTurk/v2_DepthDuration_HTML.html#26,26,1364,625,1364,768,8-29-2022,12-25-7,8,depth_duration_stimuli/001032_2014-06-08_13-23-17_260595134347_rgbf000021-resize_3/001032_2014-06-08_13-23-17_260595134347_rgbf000021-resize_3-target.png,125,3.2725,2,2424,114,feet,jsons/VE125_randls_7.json,614932,811230,28,Woman
8,777408,DepthScenes,duration_manipulation_targetAtFixation,jsons/VE125_randls_7.json,http://54.235.29.9/FacialAge/BNav_EC2/DepthDuration/v2_depth_duration_MTurk/v2_DepthDuration_HTML.html#26,26,1364,625,1364,768,8-29-2022,12-25-7,9,depth_duration_stimuli/001806_2014-06-26_20-50-20_260595134347_rgbf000091-resize_1/001806_2014-06-26_20-50-20_260595134347_rgbf000091-resize_1-target.png,125,2.7305,1,3176,153,feet,jsons/VE125_randls_7.json,614932,811230,28,Woman
9,777408,DepthScenes,duration_manipulation_targetAtFixation,jsons/VE125_randls_7.json,http://54.235.29.9/FacialAge/BNav_EC2/DepthDuration/v2_depth_duration_MTurk/v2_DepthDuration_HTML.html#26,26,1364,625,1364,768,8-29-2022,12-25-7,10,depth_duration_stimuli/001617_2014-06-20_11-35-32_260595134347_rgbf000066-resize_1/001617_2014-06-20_11-35-32_260595134347_rgbf000066-resize_1-target.png,125,3.7910000000000004,3,3565,126,feet,jsons/VE125_randls_7.json,614932,811230,28,Woman
10,777408,DepthScenes,duration_manipulation_targetAtFixation,jsons/VE125_randls_7.json,http://54.235.29.9/FacialAge/BNav_EC2/DepthDuration/v2_depth_duration_MTurk/v2_DepthDuration_HTML.html#26,26,1364,625,1364,768,8-29-2022,12-25-7,11,depth_duration_stimuli/002118_2014-06-25_20-32-08_260595134347_rgbf000078-resize_1/002118_2014-06-25_20-32-08_260595134347_rgbf000078-resize_1-target.png,125,2.6460000000000004,3,3944,143,feet,jsons/VE125_randls_7.json,614932,811230,28,Woman
11,777408,DepthScenes,duration_manipulation_targetAtFixation,jsons/VE125_randls_7.json,http://54.235.29.9/FacialAge/BNav_EC2/DepthDuration/v2_depth_duration_MTurk/v2_DepthDuration_HTML.html#26,26,1364,625,1364,768,8-29-2022,12-25-7,12,depth_duration_stimuli/001516_2014-06-20_16-25-09_260595134347_rgbf000076-resize_2/001516_2014-06-20_16-25-09_260595134347_rgbf000076-resize_2-target.png,125,1.7445,1,6607,125,feet,jsons/VE125_randls_7.json,614932,811230,28,Woman
12,777408,DepthScenes,duration_manipulation_targetAtFixation,jsons/VE125_randls_7.json,http://54.235.29.9/FacialAge/BNav_EC2/DepthDuration/v2_depth_duration_MTurk/v2_DepthDuration_HTML.html#26,26,1364,625,1364,768,8-29-2022,12-25-7,13,depth_duration_stimuli/000569_2014-06-09_22-51-47_260595134347_rgbf000141-resize_3/000569_2014-06-09_22-51-47_260595134347_rgbf000141-resize-original.jpg,125,4.512,2,3295,124,feet,jsons/VE125_randls_7.json,614932,811230,28,Woman
13,777408,DepthScenes,duration_manipulation_targetAtFixation,jsons/VE125_randls_7.json,http://54.235.29.9/FacialAge/BNav_EC2/DepthDuration/v2_depth_duration_MTurk/v2_DepthDuration_HTML.html#26,26,1364,625,1364,768,8-29-2022,12-25-7,14,depth_duration_stimuli/002043_2014-06-24_20-29-38_260595134347_rgbf000039-resize_4/002043_2014-06-24_20-29-38_260595134347_rgbf000039-resize_4-target.png,125,2.8435,3,3921,126,feet,jsons/VE125_randls_7.json,614932,811230,28,Woman
14,777408,DepthScenes,duration_manipulation_targetAtFixation,jsons/VE125_randls_7.json,http://54.235.29.9/FacialAge/BNav_EC2/DepthDuration/v2_depth_duration_MTurk/v2_DepthDuration_HTML.html#26,26,1364,625,1364,768,8-29-2022,12-25-7,15,depth_duration_stimuli/003048_2014-06-15_13-49-43_094959634447_rgbf000150-resize_1/003048_2014-06-15_13-49-43_094959634447_rgbf000150-resize_1-target.png,125,4.0035,2,2683,126,feet,jsons/VE125_randls_7.json,614932,811230,28,Woman
15,777408,DepthScenes,duration_manipulation_targetAtFixation,jsons/VE125_randls_7.json,http://54.235.29.9/FacialAge/BNav_EC2/DepthDuration/v2_depth_duration_MTurk/v2_DepthDuration_HTML.html#26,26,1364,625,1364,768,8-29-2022,12-25-7,16,depth_duration_stimuli/003534_2014-05-22_15-06-10_094959634447_rgbf000102-resize_4/003534_2014-05-22_15-06-10_094959634447_rgbf000102-resize_4-target.png,125,1.426,1,2643,125,feet,jsons/VE125_randls_7.json,614932,811230,28,Woman
16,777408,DepthScenes,duration_manipulation_targetAtFixation,jsons/VE125_randls_7.json,http://54.235.29.9/FacialAge/BNav_EC2/DepthDuration/v2_depth_duration_MTurk/v2_DepthDuration_HTML.html#26,26,1364,625,1364,768,8-29-2022,12-25-7,17,depth_duration_stimuli/002637_2014-06-24_14-51-13_094959634447_rgbf000066-resize_4/002637_2014-06-24_14-51-13_094959634447_rgbf000066-resize_4-target.png,125,1.9955,2,2463,126,feet,jsons/VE125_randls_7.json,614932,811230,28,Woman
17,777408,DepthScenes,duration_manipulation_targetAtFixation,jsons/VE125_randls_7.json,http://54.235.29.9/FacialAge/BNav_EC2/DepthDuration/v2_depth_duration_MTurk/v2_DepthDuration_HTML.html#26,26,1364,625,1364,768,8-29-2022,12-25-7,18,depth_duration_stimuli/001808_2014-06-26_20-50-58_260595134347_rgbf000029-resize_1/001808_2014-06-26_20-50-58_260595134347_rgbf000029-resize_1-target.png,125,4.249,3,2759,128,feet,jsons/VE125_randls_7.json,614932,811230,28,Woman
18,777408,DepthScenes,duration_manipulation_targetAtFixation,jsons/VE125_randls_7.json,http://54.235.29.9/FacialAge/BNav_EC2/DepthDuration/v2_depth_duration_MTurk/v2_DepthDuration_HTML.html#26,26,1364,625,1364,768,8-29-2022,12-25-7,19,depth_duration_stimuli/001815_2014-06-26_20-52-55_260595134347_rgbf000020-resize_0/001815_2014-06-26_20-52-55_260595134347_rgbf000020-resize_0-target.png,125,3.3865,2,2107,126,feet,jsons/VE125_randls_7.json,614932,811230,28,Woman
19,777408,DepthScenes,duration_manipulation_targetAtFixation,jsons/VE125_randls_7.json,http://54.235.29.9/FacialAge/BNav_EC2/DepthDuration/v2_depth_duration_MTurk/v2_DepthDuration_HTML.html#26,26,1364,625,1364,768,8-29-2022,12-25-7,20,depth_duration_stimuli/000739_2014-06-08_18-45-58_260595134347_rgbf000068-resize_1/000739_2014-06-08_18-45-58_260595134347_rgbf000068-resize_1-target.png,125,3.534,2,3046,122,feet,jsons/VE125_randls_7.json,614932,811230,28,Woman
20,777408,DepthScenes,duration_manipulation_targetAtFixation,jsons/VE125_randls_7.json,http://54.235.29.9/FacialAge/BNav_EC2/DepthDuration/v2_depth_duration_MTurk/v2_DepthDuration_HTML.html#26,26,1364,625,1364,768,8-29-2022,12-25-7,21,depth_duration_stimuli/000734_2014-06-08_17-39-11_260595134347_rgbf000128-resize_2/000734_2014-06-08_17-39-11_260595134347_rgbf000128-resize_2-target.png,125,4.098,2,2264,128,feet,jsons/VE125_randls_7.json,614932,811230,28,Woman
21,777408,DepthScenes,duration_manipulation_targetAtFixation,jsons/VE125_randls_7.json,http://54.235.29.9/FacialAge/BNav_EC2/DepthDuration/v2_depth_duration_MTurk/v2_DepthDuration_HTML.html#26,26,1364,625,1364,768,8-29-2022,12-25-7,22,depth_duration_stimuli/000642_2014-06-08_16-59-25_260595134347_rgbf000098-resize_2/000642_2014-06-08_16-59-25_260595134347_rgbf000098-resize_2-target.png,125,2.8815,1,2388,125,feet,jsons/VE125_randls_7.json,614932,811230,28,Woman
22,777408,DepthScenes,duration_manipulation_targetAtFixation,jsons/VE125_randls_7.json,http://54.235.29.9/FacialAge/BNav_EC2/DepthDuration/v2_depth_duration_MTurk/v2_DepthDuration_HTML.html#26,26,1364,625,1364,768,8-29-2022,12-25-7,23,depth_duration_stimuli/002425_2014-06-28_20-27-29_260595134347_rgbf000031-resize_8/002425_2014-06-28_20-27-29_260595134347_rgbf000031-resize_8-target.png,125,3.8960000000000004,3,2547,125,feet,jsons/VE125_randls_7.json,614932,811230,28,Woman
23,777408,DepthScenes,duration_manipulation_targetAtFixation,jsons/VE125_randls_7.json,http://54.235.29.9/FacialAge/BNav_EC2/DepthDuration/v2_depth_duration_MTurk/v2_DepthDuration_HTML.html#26,26,1364,625,1364,768,8-29-2022,12-25-7,24,depth_duration_stimuli/001056_2014-06-08_18-46-44_260595134347_rgbf000068-resize_0/001056_2014-06-08_18-46-44_260595134347_rgbf000068-resize_0-target.png,125,2.6625,2,3828,124,feet,jsons/VE125_randls_7.json,614932,811230,28,Woman
24,777408,DepthScenes,duration_manipulation_targetAtFixation,jsons/VE125_randls_7.json,http://54.235.29.9/FacialAge/BNav_EC2/DepthDuration/v2_depth_duration_MTurk/v2_DepthDuration_HTML.html#26,26,1364,625,1364,768,8-29-2022,12-25-7,25,depth_duration_stimuli/002199_2014-06-28_18-33-56_260595134347_rgbf000074-resize_0/002199_2014-06-28_18-33-56_260595134347_rgbf000074-resize_0-target.png,125,1.996,3,3315,125,feet,jsons/VE125_randls_7.json,614932,811230,28,Woman
25,777408,DepthScenes,duration_manipulation_targetAtFixation,jsons/VE125_randls_7.json,http://54.235.29.9/FacialAge/BNav_EC2/DepthDuration/v2_depth_duration_MTurk/v2_DepthDuration_HTML.html#26,26,1364,625,1364,768,8-29-2022,12-25-7,26,depth_duration_stimuli/000368_2014-06-09_15-53-01_260595134347_rgbf000155-resize_2/000368_2014-06-09_15-53-01_260595134347_rgbf000155-resize_2-target.png,125,2.4859999999999998,2,2752,124,feet,jsons/VE125_randls_7.json,614932,811230,28,Woman
26,777408,DepthScenes,duration_manipulation_targetAtFixation,jsons/VE125_randls_7.json,http://54.235.29.9/FacialAge/BNav_EC2/DepthDuration/v2_depth_duration_MTurk/v2_DepthDuration_HTML.html#26,26,1364,625,1364,768,8-29-2022,12-25-7,27,depth_duration_stimuli/002678_2014-06-13_16-15-32_094959634447_rgbf000151-resize_6/002678_2014-06-13_16-15-32_094959634447_rgbf000151-resize_6-target.png,125,2.1830000000000003,3,2128,136,feet,jsons/VE125_randls_7.json,614932,811230,28,Woman
27,777408,DepthScenes,duration_manipulation_targetAtFixation,jsons/VE125_randls_7.json,http://54.235.29.9/FacialAge/BNav_EC2/DepthDuration/v2_depth_duration_MTurk/v2_DepthDuration_HTML.html#26,26,1364,625,1364,768,8-29-2022,12-25-7,28,depth_duration_stimuli/002272_2014-06-28_18-53-56_260595134347_rgbf000067-resize_2/002272_2014-06-28_18-53-56_260595134347_rgbf000067-resize_2-target.png,125,1.138,1,2599,129,feet,jsons/VE125_randls_7.json,614932,811230,28,Woman
28,777408,DepthScenes,duration_manipulation_targetAtFixation,jsons/VE125_randls_7.json,http://54.235.29.9/FacialAge/BNav_EC2/DepthDuration/v2_depth_duration_MTurk/v2_DepthDuration_HTML.html#26,26,1364,625,1364,768,8-29-2022,12-25-7,29,depth_duration_stimuli/001571_2014-06-20_17-21-32_260595134347_rgbf000089-resize_1/001571_2014-06-20_17-21-32_260595134347_rgbf000089-resize_1-target.png,125,1.86,2,2181,119,feet,jsons/VE125_randls_7.json,614932,811230,28,Woman
29,777408,DepthScenes,duration_manipulation_targetAtFixation,jsons/VE125_randls_7.json,http://54.235.29.9/FacialAge/BNav_EC2/DepthDuration/v2_depth_duration_MTurk/v2_DepthDuration_HTML.html#26,26,1364,625,1364,768,8-29-2022,12-25-7,30,depth_duration_stimuli/000375_2014-06-08_11-17-29_260595134347_rgbf000133-resize_2/000375_2014-06-08_11-17-29_260595134347_rgbf000133-resize-original.jpg,125,4.718,2,1984,123,feet,jsons/VE125_randls_7.json,614932,811230,28,Woman
30,777408,DepthScenes,duration_manipulation_targetAtFixation,jsons/VE125_randls_7.json,http://54.235.29.9/FacialAge/BNav_EC2/DepthDuration/v2_depth_duration_MTurk/v2_DepthDuration_HTML.html#26,26,1364,625,1364,768,8-29-2022,12-25-7,31,depth_duration_stimuli/002784_2014-06-22_19-26-30_094959634447_rgbf000083-resize_3/002784_2014-06-22_19-26-30_094959634447_rgbf000083-resize_3-target.png,125,1.8046666666667,1,2257,125,feet,jsons/VE125_randls_7.json,614932,811230,28,Woman
31,777408,DepthScenes,duration_manipulation_targetAtFixation,jsons/VE125_randls_7.json,http://54.235.29.9/FacialAge/BNav_EC2/DepthDuration/v2_depth_duration_MTurk/v2_DepthDuration_HTML.html#26,26,1364,625,1364,768,8-29-2022,12-25-7,32,depth_duration_stimuli/001100_2014-06-15_17-46-26_260595134347_rgbf000225-resize_2/001100_2014-06-15_17-46-26_260595134347_rgbf000225-resize_2-target.png,125,2.24,3,1966,124,feet,jsons/VE125_randls_7.json,614932,811230,28,Woman
32,777408,DepthScenes,duration_manipulation_targetAtFixation,jsons/VE125_randls_7.json,http://54.235.29.9/FacialAge/BNav_EC2/DepthDuration/v2_depth_duration_MTurk/v2_DepthDuration_HTML.html#26,26,1364,625,1364,768,8-29-2022,12-25-7,33,depth_duration_stimuli/000692_2014-06-08_13-09-42_260595134347_rgbf000199-resize_2/000692_2014-06-08_13-09-42_260595134347_rgbf000199-resize_2-target.png,125,3.661,2,3617,126,feet,jsons/VE125_randls_7.json,614932,811230,28,Woman
33,777408,DepthScenes,duration_manipulation_targetAtFixation,jsons/VE125_randls_7.json,http://54.235.29.9/FacialAge/BNav_EC2/DepthDuration/v2_depth_duration_MTurk/v2_DepthDuration_HTML.html#26,26,1364,625,1364,768,8-29-2022,12-25-7,34,depth_duration_stimuli/001094_2014-06-15_17-36-00_260595134347_rgbf000205-resize_0/001094_2014-06-15_17-36-00_260595134347_rgbf000205-resize_0-target.png,125,4.2175,2,3115,124,feet,jsons/VE125_randls_7.json,614932,811230,28,Woman
34,777408,DepthScenes,duration_manipulation_targetAtFixation,jsons/VE125_randls_7.json,http://54.235.29.9/FacialAge/BNav_EC2/DepthDuration/v2_depth_duration_MTurk/v2_DepthDuration_HTML.html#26,26,1364,625,1364,768,8-29-2022,12-25-7,35,depth_duration_stimuli/002570_2014-06-24_13-59-54_094959634447_rgbf000059-resize_0/002570_2014-06-24_13-59-54_094959634447_rgbf000059-resize_0-target.png,125,4.037,3,2269,126,feet,jsons/VE125_randls_7.json,614932,811230,28,Woman
35,777408,DepthScenes,duration_manipulation_targetAtFixation,jsons/VE125_randls_7.json,http://54.235.29.9/FacialAge/BNav_EC2/DepthDuration/v2_depth_duration_MTurk/v2_DepthDuration_HTML.html#26,26,1364,625,1364,768,8-29-2022,12-25-7,36,depth_duration_stimuli/002467_2014-06-28_20-38-07_260595134347_rgbf000026-resize_2/002467_2014-06-28_20-38-07_260595134347_rgbf000026-resize_2-target.png,125,4.742,1,2126,124,feet,jsons/VE125_randls_7.json,614932,811230,28,Woman
36,777408,DepthScenes,duration_manipulation_targetAtFixation,jsons/VE125_randls_7.json,http://54.235.29.9/FacialAge/BNav_EC2/DepthDuration/v2_depth_duration_MTurk/v2_DepthDuration_HTML.html#26,26,1364,625,1364,768,8-29-2022,12-25-7,37,depth_duration_stimuli/000522_2014-06-08_13-35-06_260595134347_rgbf000244-resize_1/000522_2014-06-08_13-35-06_260595134347_rgbf000244-resize_1-target.png,125,2.3715,2,2062,130,feet,jsons/VE125_randls_7.json,614932,811230,28,Woman
37,777408,DepthScenes,duration_manipulation_targetAtFixation,jsons/VE125_randls_7.json,http://54.235.29.9/FacialAge/BNav_EC2/DepthDuration/v2_depth_duration_MTurk/v2_DepthDuration_HTML.html#26,26,1364,625,1364,768,8-29-2022,12-25-7,38,depth_duration_stimuli/002949_2014-06-26_15-57-42_094959634447_rgbf000079-resize_1/002949_2014-06-26_15-57-42_094959634447_rgbf000079-resize_1-target.png,125,1.8915,2,3145,122,feet,jsons/VE125_randls_7.json,614932,811230,28,Woman
38,777408,DepthScenes,duration_manipulation_targetAtFixation,jsons/VE125_randls_7.json,http://54.235.29.9/FacialAge/BNav_EC2/DepthDuration/v2_depth_duration_MTurk/v2_DepthDuration_HTML.html#26,26,1364,625,1364,768,8-29-2022,12-25-7,39,depth_duration_stimuli/002748_2014-06-22_19-07-22_094959634447_rgbf000078-resize_1/002748_2014-06-22_19-07-22_094959634447_rgbf000078-resize_1-target.png,125,4.6705,1,19466,128,feet,jsons/VE125_randls_7.json,614932,811230,28,Woman
39,777408,DepthScenes,duration_manipulation_targetAtFixation,jsons/VE125_randls_7.json,http://54.235.29.9/FacialAge/BNav_EC2/DepthDuration/v2_depth_duration_MTurk/v2_DepthDuration_HTML.html#26,26,1364,625,1364,768,8-29-2022,12-25-7,40,depth_duration_stimuli/002995_2014-06-15_12-31-26_094959634447_rgbf000150-resize_1/002995_2014-06-15_12-31-26_094959634447_rgbf000150-resize_1-target.png,125,3.8360000000000003,2,3163,133,feet,jsons/VE125_randls_7.json,614932,811230,28,Woman
40,777408,DepthScenes,duration_manipulation_targetAtFixation,jsons/VE125_randls_7.json,http://54.235.29.9/FacialAge/BNav_EC2/DepthDuration/v2_depth_duration_MTurk/v2_DepthDuration_HTML.html#26,26,1364,625,1364,768,8-29-2022,12-25-7,41,depth_duration_stimuli/000758_2014-06-08_22-05-08_260595134347_rgbf000085-resize_0/000758_2014-06-08_22-05-08_260595134347_rgbf000085-resize_0-target.png,125,3.3810000000000002,2,2271,143,feet,jsons/VE125_randls_7.json,614932,811230,28,Woman
41,777408,DepthScenes,duration_manipulation_targetAtFixation,jsons/VE125_randls_7.json,http://54.235.29.9/FacialAge/BNav_EC2/DepthDuration/v2_depth_duration_MTurk/v2_DepthDuration_HTML.html#26,26,1364,625,1364,768,8-29-2022,12-25-7,42,depth_duration_stimuli/000854_2014-06-09_19-43-13_260595134347_rgbf000066-resize_0/000854_2014-06-09_19-43-13_260595134347_rgbf000066-resize_0-target.png,125,3.068,1,1904,123,feet,jsons/VE125_randls_7.json,614932,811230,28,Woman
42,777408,DepthScenes,duration_manipulation_targetAtFixation,jsons/VE125_randls_7.json,http://54.235.29.9/FacialAge/BNav_EC2/DepthDuration/v2_depth_duration_MTurk/v2_DepthDuration_HTML.html#26,26,1364,625,1364,768,8-29-2022,12-25-7,43,depth_duration_stimuli/001244_2014-06-17_16-47-45_260595134347_rgbf000030-resize_4/001244_2014-06-17_16-47-45_260595134347_rgbf000030-resize_4-target.png,125,2.0425,3,2283,125,feet,jsons/VE125_randls_7.json,614932,811230,28,Woman
43,777408,DepthScenes,duration_manipulation_targetAtFixation,jsons/VE125_randls_7.json,http://54.235.29.9/FacialAge/BNav_EC2/DepthDuration/v2_depth_duration_MTurk/v2_DepthDuration_HTML.html#26,26,1364,625,1364,768,8-29-2022,12-25-7,44,depth_duration_stimuli/003495_2014-05-21_16-01-51_094959634447_rgbf000100-resize_3/003495_2014-05-21_16-01-51_094959634447_rgbf000100-resize_3-target.png,125,1.6255,2,1978,126,feet,jsons/VE125_randls_7.json,614932,811230,28,Woman
44,777408,DepthScenes,duration_manipulation_targetAtFixation,jsons/VE125_randls_7.json,http://54.235.29.9/FacialAge/BNav_EC2/DepthDuration/v2_depth_duration_MTurk/v2_DepthDuration_HTML.html#26,26,1364,625,1364,768,8-29-2022,12-25-7,45,depth_duration_stimuli/000787_2014-06-08_22-33-53_260595134347_rgbf000175-resize_1/000787_2014-06-08_22-33-53_260595134347_rgbf000175-resize-original.jpg,125,4.784,2,2603,123,feet,jsons/VE125_randls_7.json,614932,811230,28,Woman
45,777408,DepthScenes,duration_manipulation_targetAtFixation,jsons/VE125_randls_7.json,http://54.235.29.9/FacialAge/BNav_EC2/DepthDuration/v2_depth_duration_MTurk/v2_DepthDuration_HTML.html#26,26,1364,625,1364,768,8-29-2022,12-25-7,46,depth_duration_stimuli/000436_2014-06-09_22-25-11_260595134347_rgbf000137-resize_1/000436_2014-06-09_22-25-11_260595134347_rgbf000137-resize_1-target.png,125,4.0705,2,2524,140,feet,jsons/VE125_randls_7.json,614932,811230,28,Woman
46,777408,DepthScenes,duration_manipulation_targetAtFixation,jsons/VE125_randls_7.json,http://54.235.29.9/FacialAge/BNav_EC2/DepthDuration/v2_depth_duration_MTurk/v2_DepthDuration_HTML.html#26,26,1364,625,1364,768,8-29-2022,12-25-7,47,depth_duration_stimuli/002444_2014-06-28_20-32-08_260595134347_rgbf000027-resize_0/002444_2014-06-28_20-32-08_260595134347_rgbf000027-resize_0-target.png,125,4.388999999999999,2,84832,125,feet,jsons/VE125_randls_7.json,614932,811230,28,Woman
47,777408,DepthScenes,duration_manipulation_targetAtFixation,jsons/VE125_randls_7.json,http://54.235.29.9/FacialAge/BNav_EC2/DepthDuration/v2_depth_duration_MTurk/v2_DepthDuration_HTML.html#26,26,1364,625,1364,768,8-29-2022,12-25-7,48,depth_duration_stimuli/001029_2014-06-08_13-17-57_260595134347_rgbf000065-resize_1/001029_2014-06-08_13-17-57_260595134347_rgbf000065-resize_1-target.png,125,3.0835,1,3810,125,feet,jsons/VE125_randls_7.json,614932,811230,28,Woman
48,777408,DepthScenes,duration_manipulation_targetAtFixation,jsons/VE125_randls_7.json,http://54.235.29.9/FacialAge/BNav_EC2/DepthDuration/v2_depth_duration_MTurk/v2_DepthDuration_HTML.html#26,26,1364,625,1364,768,8-29-2022,12-25-7,49,depth_duration_stimuli/000677_2014-06-08_23-10-32_260595134347_rgbf000158-resize_6/000677_2014-06-08_23-10-32_260595134347_rgbf000158-resize_6-target.png,125,3.556,2,2040,113,feet,jsons/VE125_randls_7.json,614932,811230,28,Woman
49,777408,DepthScenes,duration_manipulation_targetAtFixation,jsons/VE125_randls_7.json,http://54.235.29.9/FacialAge/BNav_EC2/DepthDuration/v2_depth_duration_MTurk/v2_DepthDuration_HTML.html#26,26,1364,625,1364,768,8-29-2022,12-25-7,50,depth_duration_stimuli/000447_2014-06-08_16-15-46_260595134347_rgbf000130-resize_1/000447_2014-06-08_16-15-46_260595134347_rgbf000130-resize_1-target.png,125,4.479,2,2084,131,feet,jsons/VE125_randls_7.json,614932,811230,28,Woman
50,777408,DepthScenes,duration_manipulation_targetAtFixation,jsons/VE125_randls_7.json,http://54.235.29.9/FacialAge/BNav_EC2/DepthDuration/v2_depth_duration_MTurk/v2_DepthDuration_HTML.html#26,26,1364,625,1364,768,8-29-2022,12-25-7,51,depth_duration_stimuli/001447_2014-06-19_17-00-32_260595134347_rgbf000082-resize_5/001447_2014-06-19_17-00-32_260595134347_rgbf000082-resize_5-target.png,125,4.13775,2,2073,125,feet,jsons/VE125_randls_7.json,614932,811230,28,Woman
51,777408,DepthScenes,duration_manipulation_targetAtFixation,jsons/VE125_randls_7.json,http://54.235.29.9/FacialAge/BNav_EC2/DepthDuration/v2_depth_duration_MTurk/v2_DepthDuration_HTML.html#26,26,1364,625,1364,768,8-29-2022,12-25-7,52,depth_duration_stimuli/002213_2014-06-28_18-37-58_260595134347_rgbf000055-resize_1/002213_2014-06-28_18-37-58_260595134347_rgbf000055-resize_1-target.png,125,3.62,3,2627,125,feet,jsons/VE125_randls_7.json,614932,811230,28,Woman
52,777408,DepthScenes,duration_manipulation_targetAtFixation,jsons/VE125_randls_7.json,http://54.235.29.9/FacialAge/BNav_EC2/DepthDuration/v2_depth_duration_MTurk/v2_DepthDuration_HTML.html#26,26,1364,625,1364,768,8-29-2022,12-25-7,53,depth_duration_stimuli/000691_2014-06-08_13-08-50_260595134347_rgbf000132-resize_3/000691_2014-06-08_13-08-50_260595134347_rgbf000132-resize_3-target.png,125,4.1530000000000005,1,2455,124,feet,jsons/VE125_randls_7.json,614932,811230,28,Woman
53,777408,DepthScenes,duration_manipulation_targetAtFixation,jsons/VE125_randls_7.json,http://54.235.29.9/FacialAge/BNav_EC2/DepthDuration/v2_depth_duration_MTurk/v2_DepthDuration_HTML.html#26,26,1364,625,1364,768,8-29-2022,12-25-7,54,depth_duration_stimuli/001092_2014-06-15_17-34-58_260595134347_rgbf000171-resize_3/001092_2014-06-15_17-34-58_260595134347_rgbf000171-resize_3-target.png,125,2.6935,3,3163,125,feet,jsons/VE125_randls_7.json,614932,811230,28,Woman
54,777408,DepthScenes,duration_manipulation_targetAtFixation,jsons/VE125_randls_7.json,http://54.235.29.9/FacialAge/BNav_EC2/DepthDuration/v2_depth_duration_MTurk/v2_DepthDuration_HTML.html#26,26,1364,625,1364,768,8-29-2022,12-25-7,55,depth_duration_stimuli/002545_2014-06-24_13-38-53_094959634447_rgbf000080-resize_4/002545_2014-06-24_13-38-53_094959634447_rgbf000080-resize_4-target.png,125,1.9205,1,1915,125,feet,jsons/VE125_randls_7.json,614932,811230,28,Woman
55,777408,DepthScenes,duration_manipulation_targetAtFixation,jsons/VE125_randls_7.json,http://54.235.29.9/FacialAge/BNav_EC2/DepthDuration/v2_depth_duration_MTurk/v2_DepthDuration_HTML.html#26,26,1364,625,1364,768,8-29-2022,12-25-7,56,depth_duration_stimuli/001175_2014-06-17_15-45-55_260595134347_rgbf000129-resize_4/001175_2014-06-17_15-45-55_260595134347_rgbf000129-resize_4-target.png,125,4.255,2,2271,126,feet,jsons/VE125_randls_7.json,614932,811230,28,Woman
56,777408,DepthScenes,duration_manipulation_targetAtFixation,jsons/VE125_randls_7.json,http://54.235.29.9/FacialAge/BNav_EC2/DepthDuration/v2_depth_duration_MTurk/v2_DepthDuration_HTML.html#26,26,1364,625,1364,768,8-29-2022,12-25-7,57,depth_duration_stimuli/003490_2014-05-21_15-50-11_094959634447_rgbf000101-resize_3/003490_2014-05-21_15-50-11_094959634447_rgbf000101-resize_3-target.png,125,3.6445,2,2340,127,feet,jsons/VE125_randls_7.json,614932,811230,28,Woman
57,777408,DepthScenes,duration_manipulation_targetAtFixation,jsons/VE125_randls_7.json,http://54.235.29.9/FacialAge/BNav_EC2/DepthDuration/v2_depth_duration_MTurk/v2_DepthDuration_HTML.html#26,26,1364,625,1364,768,8-29-2022,12-25-7,58,depth_duration_stimuli/001158_2014-06-17_15-32-16_260595134347_rgbf000138-resize_2/001158_2014-06-17_15-32-16_260595134347_rgbf000138-resize_2-target.png,125,4.5315,3,1904,126,feet,jsons/VE125_randls_7.json,614932,811230,28,Woman
58,777408,DepthScenes,duration_manipulation_targetAtFixation,jsons/VE125_randls_7.json,http://54.235.29.9/FacialAge/BNav_EC2/DepthDuration/v2_depth_duration_MTurk/v2_DepthDuration_HTML.html#26,26,1364,625,1364,768,8-29-2022,12-25-7,59,depth_duration_stimuli/000556_2014-06-09_22-42-56_260595134347_rgbf000214-resize_1/000556_2014-06-09_22-42-56_260595134347_rgbf000214-resize_1-target.png,125,4.8415,1,1641,124,feet,jsons/VE125_randls_7.json,614932,811230,28,Woman
59,777408,DepthScenes,duration_manipulation_targetAtFixation,jsons/VE125_randls_7.json,http://54.235.29.9/FacialAge/BNav_EC2/DepthDuration/v2_depth_duration_MTurk/v2_DepthDuration_HTML.html#26,26,1364,625,1364,768,8-29-2022,12-25-7,60,depth_duration_stimuli/000470_2014-06-09_19-42-40_260595134347_rgbf000094-resize_1/000470_2014-06-09_19-42-40_260595134347_rgbf000094-resize_1-target.png,125,1.831,2,1973,125,feet,jsons/VE125_randls_7.json,614932,811230,28,Woman
60,777408,DepthScenes,duration_manipulation_targetAtFixation,jsons/VE125_randls_7.json,http://54.235.29.9/FacialAge/BNav_EC2/DepthDuration/v2_depth_duration_MTurk/v2_DepthDuration_HTML.html#26,26,1364,625,1364,768,8-29-2022,12-25-7,61,depth_duration_stimuli/000109_2014-05-14_23-41-52_260595134347_rgbf000035-resize_9/000109_2014-05-14_23-41-52_260595134347_rgbf000035-resize_9-target.png,125,1.3545,2,2892,126,feet,jsons/VE125_randls_7.json,614932,811230,28,Woman
61,777408,DepthScenes,duration_manipulation_targetAtFixation,jsons/VE125_randls_7.json,http://54.235.29.9/FacialAge/BNav_EC2/DepthDuration/v2_depth_duration_MTurk/v2_DepthDuration_HTML.html#26,26,1364,625,1364,768,8-29-2022,12-25-7,62,depth_duration_stimuli/000878_2014-06-08_22-52-45_260595134347_rgbf000045-resize_2/000878_2014-06-08_22-52-45_260595134347_rgbf000045-resize_2-target.png,125,2.092,2,2628,126,feet,jsons/VE125_randls_7.json,614932,811230,28,Woman
62,777408,DepthScenes,duration_manipulation_targetAtFixation,jsons/VE125_randls_7.json,http://54.235.29.9/FacialAge/BNav_EC2/DepthDuration/v2_depth_duration_MTurk/v2_DepthDuration_HTML.html#26,26,1364,625,1364,768,8-29-2022,12-25-7,63,depth_duration_stimuli/002953_2014-06-08_17-32-18_094959634447_rgbf000059-resize_5/002953_2014-06-08_17-32-18_094959634447_rgbf000059-resize_5-target.png,125,1.551,2,2144,121,feet,jsons/VE125_randls_7.json,614932,811230,28,Woman
63,777408,DepthScenes,duration_manipulation_targetAtFixation,jsons/VE125_randls_7.json,http://54.235.29.9/FacialAge/BNav_EC2/DepthDuration/v2_depth_duration_MTurk/v2_DepthDuration_HTML.html#26,26,1364,625,1364,768,8-29-2022,12-25-7,64,depth_duration_stimuli/002600_2014-06-24_14-27-04_094959634447_rgbf000074-resize_2/002600_2014-06-24_14-27-04_094959634447_rgbf000074-resize_2-target.png,125,2.7575,3,1943,124,feet,jsons/VE125_randls_7.json,614932,811230,28,Woman
64,777408,DepthScenes,duration_manipulation_targetAtFixation,jsons/VE125_randls_7.json,http://54.235.29.9/FacialAge/BNav_EC2/DepthDuration/v2_depth_duration_MTurk/v2_DepthDuration_HTML.html#26,26,1364,625,1364,768,8-29-2022,12-25-7,65,depth_duration_stimuli/003228_2014-05-14_13-42-35_094959634447_rgbf000101-resize_1/003228_2014-05-14_13-42-35_094959634447_rgbf000101-resize_1-target.png,125,1.9680000000000002,1,1723,124,feet,jsons/VE125_randls_7.json,614932,811230,28,Woman
65,777408,DepthScenes,duration_manipulation_targetAtFixation,jsons/VE125_randls_7.json,http://54.235.29.9/FacialAge/BNav_EC2/DepthDuration/v2_depth_duration_MTurk/v2_DepthDuration_HTML.html#26,26,1364,625,1364,768,8-29-2022,12-25-7,66,depth_duration_stimuli/001222_2014-06-17_16-24-06_260595134347_rgbf000073-resize_0/001222_2014-06-17_16-24-06_260595134347_rgbf000073-resize-original.jpg,125,1.4385,3,2220,124,feet,jsons/VE125_randls_7.json,614932,811230,28,Woman
66,777408,DepthScenes,duration_manipulation_targetAtFixation,jsons/VE125_randls_7.json,http://54.235.29.9/FacialAge/BNav_EC2/DepthDuration/v2_depth_duration_MTurk/v2_DepthDuration_HTML.html#26,26,1364,625,1364,768,8-29-2022,12-25-7,67,depth_duration_stimuli/002988_2014-06-15_12-24-20_094959634447_rgbf000150-resize_1/002988_2014-06-15_12-24-20_094959634447_rgbf000150-resize_1-target.png,125,4.7669999999999995,2,2280,116,feet,jsons/VE125_randls_7.json,614932,811230,28,Woman
67,777408,DepthScenes,duration_manipulation_targetAtFixation,jsons/VE125_randls_7.json,http://54.235.29.9/FacialAge/BNav_EC2/DepthDuration/v2_depth_duration_MTurk/v2_DepthDuration_HTML.html#26,26,1364,625,1364,768,8-29-2022,12-25-7,68,depth_duration_stimuli/001052_2014-06-08_18-24-54_260595134347_rgbf000130-resize_1/001052_2014-06-08_18-24-54_260595134347_rgbf000130-resize_1-target.png,125,4.1045,2,2812,124,feet,jsons/VE125_randls_7.json,614932,811230,28,Woman
68,777408,DepthScenes,duration_manipulation_targetAtFixation,jsons/VE125_randls_7.json,http://54.235.29.9/FacialAge/BNav_EC2/DepthDuration/v2_depth_duration_MTurk/v2_DepthDuration_HTML.html#26,26,1364,625,1364,768,8-29-2022,12-25-7,69,depth_duration_stimuli/000906_2014-06-08_13-35-43_260595134347_rgbf000155-resize_1/000906_2014-06-08_13-35-43_260595134347_rgbf000155-resize_1-target.png,125,2.8489999999999998,1,2410,125,feet,jsons/VE125_randls_7.json,614932,811230,28,Woman
69,777408,DepthScenes,duration_manipulation_targetAtFixation,jsons/VE125_randls_7.json,http://54.235.29.9/FacialAge/BNav_EC2/DepthDuration/v2_depth_duration_MTurk/v2_DepthDuration_HTML.html#26,26,1364,625,1364,768,8-29-2022,12-25-7,70,depth_duration_stimuli/002805_2014-06-22_19-54-03_094959634447_rgbf000079-resize_1/002805_2014-06-22_19-54-03_094959634447_rgbf000079-resize_1-target.png,125,3.1439999999999997,3,1882,123,feet,jsons/VE125_randls_7.json,614932,811230,28,Woman
70,777408,DepthScenes,duration_manipulation_targetAtFixation,jsons/VE125_randls_7.json,http://54.235.29.9/FacialAge/BNav_EC2/DepthDuration/v2_depth_duration_MTurk/v2_DepthDuration_HTML.html#26,26,1364,625,1364,768,8-29-2022,12-25-7,71,depth_duration_stimuli/002989_2014-06-15_12-25-03_094959634447_rgbf000150-resize_3/002989_2014-06-15_12-25-03_094959634447_rgbf000150-resize_3-target.png,125,4.1975,2,3442,122,feet,jsons/VE125_randls_7.json,614932,811230,28,Woman
71,777408,DepthScenes,duration_manipulation_targetAtFixation,jsons/VE125_randls_7.json,http://54.235.29.9/FacialAge/BNav_EC2/DepthDuration/v2_depth_duration_MTurk/v2_DepthDuration_HTML.html#26,26,1364,625,1364,768,8-29-2022,12-25-7,72,depth_duration_stimuli/000866_2014-06-09_20-45-42_260595134347_rgbf000139-resize_1/000866_2014-06-09_20-45-42_260595134347_rgbf000139-resize_1-target.png,125,3.2155,2,1954,125,feet,jsons/VE125_randls_7.json,614932,811230,28,Woman
72,777408,DepthScenes,duration_manipulation_targetAtFixation,jsons/VE125_randls_7.json,http://54.235.29.9/FacialAge/BNav_EC2/DepthDuration/v2_depth_duration_MTurk/v2_DepthDuration_HTML.html#26,26,1364,625,1364,768,8-29-2022,12-25-7,73,depth_duration_stimuli/002279_2014-06-28_18-55-32_260595134347_rgbf000040-resize_5/002279_2014-06-28_18-55-32_260595134347_rgbf000040-resize_5-target.png,125,1.5043333333333,2,2234,124,feet,jsons/VE125_randls_7.json,614932,811230,28,Woman
73,777408,DepthScenes,duration_manipulation_targetAtFixation,jsons/VE125_randls_7.json,http://54.235.29.9/FacialAge/BNav_EC2/DepthDuration/v2_depth_duration_MTurk/v2_DepthDuration_HTML.html#26,26,1364,625,1364,768,8-29-2022,12-25-7,74,depth_duration_stimuli/000635_2014-06-08_16-38-42_260595134347_rgbf000106-resize_1/000635_2014-06-08_16-38-42_260595134347_rgbf000106-resize_1-target.png,125,2.074,3,1756,127,feet,jsons/VE125_randls_7.json,614932,811230,28,Woman
74,777408,DepthScenes,duration_manipulation_targetAtFixation,jsons/VE125_randls_7.json,http://54.235.29.9/FacialAge/BNav_EC2/DepthDuration/v2_depth_duration_MTurk/v2_DepthDuration_HTML.html#26,26,1364,625,1364,768,8-29-2022,12-25-7,75,depth_duration_stimuli/000736_2014-06-08_18-24-15_260595134347_rgbf000206-resize_3/000736_2014-06-08_18-24-15_260595134347_rgbf000206-resize_3-target.png,125,3.515,4,2738,131,feet,jsons/VE125_randls_7.json,614932,811230,28,Woman
75,777408,DepthScenes,duration_manipulation_targetAtFixation,jsons/VE125_randls_7.json,http://54.235.29.9/FacialAge/BNav_EC2/DepthDuration/v2_depth_duration_MTurk/v2_DepthDuration_HTML.html#26,26,1364,625,1364,768,8-29-2022,12-25-7,76,depth_duration_stimuli/000137_2014-05-20_17-04-49_260595134347_rgbf000120-resize_1/000137_2014-05-20_17-04-49_260595134347_rgbf000120-resize_1-target.png,125,3.786,1,3467,124,feet,jsons/VE125_randls_7.json,614932,811230,28,Woman
76,777408,DepthScenes,duration_manipulation_targetAtFixation,jsons/VE125_randls_7.json,http://54.235.29.9/FacialAge/BNav_EC2/DepthDuration/v2_depth_duration_MTurk/v2_DepthDuration_HTML.html#26,26,1364,625,1364,768,8-29-2022,12-25-7,77,depth_duration_stimuli/000486_2014-06-09_20-47-20_260595134347_rgbf000143-resize_2/000486_2014-06-09_20-47-20_260595134347_rgbf000143-resize_2-target.png,125,4.8325,2,2957,113,feet,jsons/VE125_randls_7.json,614932,811230,28,Woman
77,777408,DepthScenes,duration_manipulation_targetAtFixation,jsons/VE125_randls_7.json,http://54.235.29.9/FacialAge/BNav_EC2/DepthDuration/v2_depth_duration_MTurk/v2_DepthDuration_HTML.html#26,26,1364,625,1364,768,8-29-2022,12-25-7,78,depth_duration_stimuli/003083_2014-06-15_15-21-03_094959634447_rgbf000063-resize_1/003083_2014-06-15_15-21-03_094959634447_rgbf000063-resize_1-target.png,125,4.1405,3,1981,125,feet,jsons/VE125_randls_7.json,614932,811230,28,Woman
78,777408,DepthScenes,duration_manipulation_targetAtFixation,jsons/VE125_randls_7.json,http://54.235.29.9/FacialAge/BNav_EC2/DepthDuration/v2_depth_duration_MTurk/v2_DepthDuration_HTML.html#26,26,1364,625,1364,768,8-29-2022,12-25-7,79,depth_duration_stimuli/002763_2014-06-22_19-13-10_094959634447_rgbf000075-resize_4/002763_2014-06-22_19-13-10_094959634447_rgbf000075-resize_4-target.png,125,1.68375,2,2707,130,feet,jsons/VE125_randls_7.json,614932,811230,28,Woman
79,777408,DepthScenes,duration_manipulation_targetAtFixation,jsons/VE125_randls_7.json,http://54.235.29.9/FacialAge/BNav_EC2/DepthDuration/v2_depth_duration_MTurk/v2_DepthDuration_HTML.html#26,26,1364,625,1364,768,8-29-2022,12-25-7,80,depth_duration_stimuli/002209_2014-06-28_18-36-10_260595134347_rgbf000051-resize_1/002209_2014-06-28_18-36-10_260595134347_rgbf000051-resize_1-target.png,125,2.057,2,2485,125,feet,jsons/VE125_randls_7.json,614932,811230,28,Woman
80,777408,DepthScenes,duration_manipulation_targetAtFixation,jsons/VE125_randls_7.json,http://54.235.29.9/FacialAge/BNav_EC2/DepthDuration/v2_depth_duration_MTurk/v2_DepthDuration_HTML.html#26,26,1364,625,1364,768,8-29-2022,12-25-7,81,depth_duration_stimuli/002549_2014-06-24_13-41-39_094959634447_rgbf000022-resize_3/002549_2014-06-24_13-41-39_094959634447_rgbf000022-resize_3-target.png,125,1.476,2,2098,125,feet,jsons/VE125_randls_7.json,614932,811230,28,Woman
81,777408,DepthScenes,duration_manipulation_targetAtFixation,jsons/VE125_randls_7.json,http://54.235.29.9/FacialAge/BNav_EC2/DepthDuration/v2_depth_duration_MTurk/v2_DepthDuration_HTML.html#26,26,1364,625,1364,768,8-29-2022,12-25-7,82,depth_duration_stimuli/002750_2014-06-22_19-08-03_094959634447_rgbf000094-resize_4/002750_2014-06-22_19-08-03_094959634447_rgbf000094-resize_4-target.png,125,2.354,1,1762,126,feet,jsons/VE125_randls_7.json,614932,811230,28,Woman
82,777408,DepthScenes,duration_manipulation_targetAtFixation,jsons/VE125_randls_7.json,http://54.235.29.9/FacialAge/BNav_EC2/DepthDuration/v2_depth_duration_MTurk/v2_DepthDuration_HTML.html#26,26,1364,625,1364,768,8-29-2022,12-25-7,83,depth_duration_stimuli/002153_2014-06-25_21-27-18_260595134347_rgbf000038-resize_5/002153_2014-06-25_21-27-18_260595134347_rgbf000038-resize_5-target.png,125,2.505,1,2692,125,feet,jsons/VE125_randls_7.json,614932,811230,28,Woman
83,777408,DepthScenes,duration_manipulation_targetAtFixation,jsons/VE125_randls_7.json,http://54.235.29.9/FacialAge/BNav_EC2/DepthDuration/v2_depth_duration_MTurk/v2_DepthDuration_HTML.html#26,26,1364,625,1364,768,8-29-2022,12-25-7,84,depth_duration_stimuli/002660_2014-06-13_15-44-18_094959634447_rgbf001878-resize_2/002660_2014-06-13_15-44-18_094959634447_rgbf001878-resize_2-target.png,125,3.576,2,1917,122,feet,jsons/VE125_randls_7.json,614932,811230,28,Woman
84,777408,DepthScenes,duration_manipulation_targetAtFixation,jsons/VE125_randls_7.json,http://54.235.29.9/FacialAge/BNav_EC2/DepthDuration/v2_depth_duration_MTurk/v2_DepthDuration_HTML.html#26,26,1364,625,1364,768,8-29-2022,12-25-7,85,depth_duration_stimuli/003492_2014-05-21_15-50-55_094959634447_rgbf000828-resize_1/003492_2014-05-21_15-50-55_094959634447_rgbf000828-resize_1-target.png,125,4.06875,2,2310,124,feet,jsons/VE125_randls_7.json,614932,811230,28,Woman
85,777408,DepthScenes,duration_manipulation_targetAtFixation,jsons/VE125_randls_7.json,http://54.235.29.9/FacialAge/BNav_EC2/DepthDuration/v2_depth_duration_MTurk/v2_DepthDuration_HTML.html#26,26,1364,625,1364,768,8-29-2022,12-25-7,86,depth_duration_stimuli/002568_2014-06-24_13-59-21_094959634447_rgbf000062-resize_4/002568_2014-06-24_13-59-21_094959634447_rgbf000062-resize_4-target.png,125,3.015,2,3725,134,feet,jsons/VE125_randls_7.json,614932,811230,28,Woman
86,777408,DepthScenes,duration_manipulation_targetAtFixation,jsons/VE125_randls_7.json,http://54.235.29.9/FacialAge/BNav_EC2/DepthDuration/v2_depth_duration_MTurk/v2_DepthDuration_HTML.html#26,26,1364,625,1364,768,8-29-2022,12-25-7,87,depth_duration_stimuli/000929_2014-06-09_16-33-19_260595134347_rgbf000139-resize_0/000929_2014-06-09_16-33-19_260595134347_rgbf000139-resize_0-target.png,125,2.8680000000000003,3,3034,123,feet,jsons/VE125_randls_7.json,614932,811230,28,Woman
87,777408,DepthScenes,duration_manipulation_targetAtFixation,jsons/VE125_randls_7.json,http://54.235.29.9/FacialAge/BNav_EC2/DepthDuration/v2_depth_duration_MTurk/v2_DepthDuration_HTML.html#26,26,1364,625,1364,768,8-29-2022,12-25-7,88,depth_duration_stimuli/000457_2014-06-08_16-52-43_260595134347_rgbf000199-resize_1/000457_2014-06-08_16-52-43_260595134347_rgbf000199-resize_1-target.png,125,3.6489999999999996,2,1770,108,feet,jsons/VE125_randls_7.json,614932,811230,28,Woman
88,777408,DepthScenes,duration_manipulation_targetAtFixation,jsons/VE125_randls_7.json,http://54.235.29.9/FacialAge/BNav_EC2/DepthDuration/v2_depth_duration_MTurk/v2_DepthDuration_HTML.html#26,26,1364,625,1364,768,8-29-2022,12-25-7,89,depth_duration_stimuli/002630_2014-06-24_14-47-50_094959634447_rgbf000055-resize_1/002630_2014-06-24_14-47-50_094959634447_rgbf000055-resize_1-target.png,125,3.0095,1,2455,124,feet,jsons/VE125_randls_7.json,614932,811230,28,Woman
89,777408,DepthScenes,duration_manipulation_targetAtFixation,jsons/VE125_randls_7.json,http://54.235.29.9/FacialAge/BNav_EC2/DepthDuration/v2_depth_duration_MTurk/v2_DepthDuration_HTML.html#26,26,1364,625,1364,768,8-29-2022,12-25-7,90,depth_duration_stimuli/002758_2014-06-22_19-11-20_094959634447_rgbf000128-resize_1/002758_2014-06-22_19-11-20_094959634447_rgbf000128-resize_1-target.png,125,2.555,2,2092,126,feet,jsons/VE125_randls_7.json,614932,811230,28,Woman
90,777408,DepthScenes,duration_manipulation_targetAtFixation,jsons/VE125_randls_7.json,http://54.235.29.9/FacialAge/BNav_EC2/DepthDuration/v2_depth_duration_MTurk/v2_DepthDuration_HTML.html#26,26,1364,625,1364,768,8-29-2022,12-25-7,91,depth_duration_stimuli/000810_2014-06-08_17-20-01_260595134347_rgbf000105-resize_0/000810_2014-06-08_17-20-01_260595134347_rgbf000105-resize_0-target.png,125,1.4865,3,2280,134,feet,jsons/VE125_randls_7.json,614932,811230,28,Woman
91,777408,DepthScenes,duration_manipulation_targetAtFixation,jsons/VE125_randls_7.json,http://54.235.29.9/FacialAge/BNav_EC2/DepthDuration/v2_depth_duration_MTurk/v2_DepthDuration_HTML.html#26,26,1364,625,1364,768,8-29-2022,12-25-7,92,depth_duration_stimuli/001214_2014-06-17_16-13-55_260595134347_rgbf000111-resize_0/001214_2014-06-17_16-13-55_260595134347_rgbf000111-resize_0-target.png,125,2.6505,3,1739,122,feet,jsons/VE125_randls_7.json,614932,811230,28,Woman
92,777408,DepthScenes,duration_manipulation_targetAtFixation,jsons/VE125_randls_7.json,http://54.235.29.9/FacialAge/BNav_EC2/DepthDuration/v2_depth_duration_MTurk/v2_DepthDuration_HTML.html#26,26,1364,625,1364,768,8-29-2022,12-25-7,93,depth_duration_stimuli/001133_2014-06-17_14-49-16_260595134347_rgbf000100-resize_0/001133_2014-06-17_14-49-16_260595134347_rgbf000100-resize_0-target.png,125,4.2115,2,2948,129,feet,jsons/VE125_randls_7.json,614932,811230,28,Woman
93,777408,DepthScenes,duration_manipulation_targetAtFixation,jsons/VE125_randls_7.json,http://54.235.29.9/FacialAge/BNav_EC2/DepthDuration/v2_depth_duration_MTurk/v2_DepthDuration_HTML.html#26,26,1364,625,1364,768,8-29-2022,12-25-7,94,depth_duration_stimuli/001132_2014-06-17_14-48-54_260595134347_rgbf000100-resize_2/001132_2014-06-17_14-48-54_260595134347_rgbf000100-resize_2-target.png,125,3.753,1,2169,124,feet,jsons/VE125_randls_7.json,614932,811230,28,Woman
94,777408,DepthScenes,duration_manipulation_targetAtFixation,jsons/VE125_randls_7.json,http://54.235.29.9/FacialAge/BNav_EC2/DepthDuration/v2_depth_duration_MTurk/v2_DepthDuration_HTML.html#26,26,1364,625,1364,768,8-29-2022,12-25-7,95,depth_duration_stimuli/000414_2014-06-04_19-49-13_260595134347_rgbf000044-resize_0/000414_2014-06-04_19-49-13_260595134347_rgbf000044-resize_0-target.png,125,4.329,2,2223,104,feet,jsons/VE125_randls_7.json,614932,811230,28,Woman
95,777408,DepthScenes,duration_manipulation_targetAtFixation,jsons/VE125_randls_7.json,http://54.235.29.9/FacialAge/BNav_EC2/DepthDuration/v2_depth_duration_MTurk/v2_DepthDuration_HTML.html#26,26,1364,625,1364,768,8-29-2022,12-25-7,96,depth_duration_stimuli/003129_2014-05-12_10-48-10_094959634447_rgbf000100-resize_0/003129_2014-05-12_10-48-10_094959634447_rgbf000100-resize_0-target.png,125,4.9305,2,2012,125,feet,jsons/VE125_randls_7.json,614932,811230,28,Woman
96,777408,DepthScenes,duration_manipulation_targetAtFixation,jsons/VE125_randls_7.json,http://54.235.29.9/FacialAge/BNav_EC2/DepthDuration/v2_depth_duration_MTurk/v2_DepthDuration_HTML.html#26,26,1364,625,1364,768,8-29-2022,12-25-7,97,depth_duration_stimuli/001016_2014-06-09_16-16-10_260595134347_rgbf000112-resize_5/001016_2014-06-09_16-16-10_260595134347_rgbf000112-resize_5-target.png,125,1.6565,3,2201,125,feet,jsons/VE125_randls_7.json,614932,811230,28,Woman
97,777408,DepthScenes,duration_manipulation_targetAtFixation,jsons/VE125_randls_7.json,http://54.235.29.9/FacialAge/BNav_EC2/DepthDuration/v2_depth_duration_MTurk/v2_DepthDuration_HTML.html#26,26,1364,625,1364,768,8-29-2022,12-25-7,98,depth_duration_stimuli/002340_2014-06-28_20-05-46_260595134347_rgbf000113-resize_0/002340_2014-06-28_20-05-46_260595134347_rgbf000113-resize_0-target.png,125,2.4735,1,2650,126,feet,jsons/VE125_randls_7.json,614932,811230,28,Woman
98,777408,DepthScenes,duration_manipulation_targetAtFixation,jsons/VE125_randls_7.json,http://54.235.29.9/FacialAge/BNav_EC2/DepthDuration/v2_depth_duration_MTurk/v2_DepthDuration_HTML.html#26,26,1364,625,1364,768,8-29-2022,12-25-7,99,depth_duration_stimuli/001540_2014-06-20_17-01-05_260595134347_rgbf000086-resize_2/001540_2014-06-20_17-01-05_260595134347_rgbf000086-resize-original.jpg,125,1.459,2,2869,128,feet,jsons/VE125_randls_7.json,614932,811230,28,Woman
99,777408,DepthScenes,duration_manipulation_targetAtFixation,jsons/VE125_randls_7.json,http://54.235.29.9/FacialAge/BNav_EC2/DepthDuration/v2_depth_duration_MTurk/v2_DepthDuration_HTML.html#26,26,1364,625,1364,768,8-29-2022,12-25-7,100,depth_duration_stimuli/002964_2014-06-08_17-46-11_094959634447_rgbf000091-resize_4/002964_2014-06-08_17-46-11_094959634447_rgbf000091-resize_4-target.png,125,1.6909999999999998,3,2329,124,feet,jsons/VE125_randls_7.json,614932,811230,28,Woman
100,777408,DepthScenes,duration_manipulation_targetAtFixation,jsons/VE125_randls_7.json,http://54.235.29.9/FacialAge/BNav_EC2/DepthDuration/v2_depth_duration_MTurk/v2_DepthDuration_HTML.html#26,26,1364,625,1364,768,8-29-2022,12-25-7,101,depth_duration_stimuli/002136_2014-06-25_21-18-03_260595134347_rgbf000109-resize_3/002136_2014-06-25_21-18-03_260595134347_rgbf000109-resize_3-target.png,125,1.9569999999999999,1,1755,127,feet,jsons/VE125_randls_7.json,614932,811230,28,Woman
101,777408,DepthScenes,duration_manipulation_targetAtFixation,jsons/VE125_randls_7.json,http://54.235.29.9/FacialAge/BNav_EC2/DepthDuration/v2_depth_duration_MTurk/v2_DepthDuration_HTML.html#26,26,1364,625,1364,768,8-29-2022,12-25-7,102,depth_duration_stimuli/003621_2014-05-23_18-06-08_094959634447_rgbf000101-resize_1/003621_2014-05-23_18-06-08_094959634447_rgbf000101-resize_1-target.png,125,3.9835,2,2167,124,feet,jsons/VE125_randls_7.json,614932,811230,28,Woman
102,777408,DepthScenes,duration_manipulation_targetAtFixation,jsons/VE125_randls_7.json,http://54.235.29.9/FacialAge/BNav_EC2/DepthDuration/v2_depth_duration_MTurk/v2_DepthDuration_HTML.html#26,26,1364,625,1364,768,8-29-2022,12-25-7,103,depth_duration_stimuli/001584_2014-06-20_11-07-43_260595134347_rgbf000002-resize_1/001584_2014-06-20_11-07-43_260595134347_rgbf000002-resize_1-target.png,125,3.53,3,1857,125,feet,jsons/VE125_randls_7.json,614932,811230,28,Woman
103,777408,DepthScenes,duration_manipulation_targetAtFixation,jsons/VE125_randls_7.json,http://54.235.29.9/FacialAge/BNav_EC2/DepthDuration/v2_depth_duration_MTurk/v2_DepthDuration_HTML.html#26,26,1364,625,1364,768,8-29-2022,12-25-7,104,depth_duration_stimuli/002788_2014-06-22_19-36-03_094959634447_rgbf000088-resize_2/002788_2014-06-22_19-36-03_094959634447_rgbf000088-resize_2-target.png,125,1.6465,2,2522,125,feet,jsons/VE125_randls_7.json,614932,811230,28,Woman
104,777408,DepthScenes,duration_manipulation_targetAtFixation,jsons/VE125_randls_7.json,http://54.235.29.9/FacialAge/BNav_EC2/DepthDuration/v2_depth_duration_MTurk/v2_DepthDuration_HTML.html#26,26,1364,625,1364,768,8-29-2022,12-25-7,105,depth_duration_stimuli/000749_2014-06-08_21-55-06_260595134347_rgbf000070-resize_2/000749_2014-06-08_21-55-06_260595134347_rgbf000070-resize_2-target.png,125,2.331,3,2202,125,feet,jsons/VE125_randls_7.json,614932,811230,28,Woman
105,777408,DepthScenes,duration_manipulation_targetAtFixation,jsons/VE125_randls_7.json,http://54.235.29.9/FacialAge/BNav_EC2/DepthDuration/v2_depth_duration_MTurk/v2_DepthDuration_HTML.html#26,26,1364,625,1364,768,8-29-2022,12-25-7,106,depth_duration_stimuli/001167_2014-06-17_15-38-07_260595134347_rgbf000108-resize_0/001167_2014-06-17_15-38-07_260595134347_rgbf000108-resize_0-target.png,125,1.8505,2,2443,124,feet,jsons/VE125_randls_7.json,614932,811230,28,Woman
106,777408,DepthScenes,duration_manipulation_targetAtFixation,jsons/VE125_randls_7.json,http://54.235.29.9/FacialAge/BNav_EC2/DepthDuration/v2_depth_duration_MTurk/v2_DepthDuration_HTML.html#26,26,1364,625,1364,768,8-29-2022,12-25-7,107,depth_duration_stimuli/003587_2014-05-23_16-48-02_094959634447_rgbf002384-resize_2/003587_2014-05-23_16-48-02_094959634447_rgbf002384-resize_2-target.png,125,1.357,3,1856,156,feet,jsons/VE125_randls_7.json,614932,811230,28,Woman
107,777408,DepthScenes,duration_manipulation_targetAtFixation,jsons/VE125_randls_7.json,http://54.235.29.9/FacialAge/BNav_EC2/DepthDuration/v2_depth_duration_MTurk/v2_DepthDuration_HTML.html#26,26,1364,625,1364,768,8-29-2022,12-25-7,108,depth_duration_stimuli/000788_2014-06-08_22-34-36_260595134347_rgbf000131-resize_1/000788_2014-06-08_22-34-36_260595134347_rgbf000131-resize_1-target.png,125,3.359,2,2317,133,feet,jsons/VE125_randls_7.json,614932,811230,28,Woman
108,777408,DepthScenes,duration_manipulation_targetAtFixation,jsons/VE125_randls_7.json,http://54.235.29.9/FacialAge/BNav_EC2/DepthDuration/v2_depth_duration_MTurk/v2_DepthDuration_HTML.html#26,26,1364,625,1364,768,8-29-2022,12-25-7,109,depth_duration_stimuli/001235_2014-06-17_16-37-36_260595134347_rgbf000084-resize_4/001235_2014-06-17_16-37-36_260595134347_rgbf000084-resize_4-target.png,125,3.6605,3,1833,126,feet,jsons/VE125_randls_7.json,614932,811230,28,Woman
109,777408,DepthScenes,duration_manipulation_targetAtFixation,jsons/VE125_randls_7.json,http://54.235.29.9/FacialAge/BNav_EC2/DepthDuration/v2_depth_duration_MTurk/v2_DepthDuration_HTML.html#26,26,1364,625,1364,768,8-29-2022,12-25-7,110,depth_duration_stimuli/002039_2014-06-24_20-22-38_260595134347_rgbf000084-resize_1/002039_2014-06-24_20-22-38_260595134347_rgbf000084-resize_1-target.png,125,4.408,3,2540,140,feet,jsons/VE125_randls_7.json,614932,811230,28,Woman
110,777408,DepthScenes,duration_manipulation_targetAtFixation,jsons/VE125_randls_7.json,http://54.235.29.9/FacialAge/BNav_EC2/DepthDuration/v2_depth_duration_MTurk/v2_DepthDuration_HTML.html#26,26,1364,625,1364,768,8-29-2022,12-25-7,111,depth_duration_stimuli/002103_2014-06-25_20-00-40_260595134347_rgbf000049-resize_0/002103_2014-06-25_20-00-40_260595134347_rgbf000049-resize_0-target.png,125,4.105,2,1747,123,feet,jsons/VE125_randls_7.json,614932,811230,28,Woman
111,777408,DepthScenes,duration_manipulation_targetAtFixation,jsons/VE125_randls_7.json,http://54.235.29.9/FacialAge/BNav_EC2/DepthDuration/v2_depth_duration_MTurk/v2_DepthDuration_HTML.html#26,26,1364,625,1364,768,8-29-2022,12-25-7,112,depth_duration_stimuli/001011_2014-06-08_23-18-54_260595134347_rgbf000044-resize_4/001011_2014-06-08_23-18-54_260595134347_rgbf000044-resize_4-target.png,125,2.4730000000000003,1,2301,124,feet,jsons/VE125_randls_7.json,614932,811230,28,Woman
112,777408,DepthScenes,duration_manipulation_targetAtFixation,jsons/VE125_randls_7.json,http://54.235.29.9/FacialAge/BNav_EC2/DepthDuration/v2_depth_duration_MTurk/v2_DepthDuration_HTML.html#26,26,1364,625,1364,768,8-29-2022,12-25-7,113,depth_duration_stimuli/002875_2014-06-01_15-19-00_094959634447_rgbf000151-resize_1/002875_2014-06-01_15-19-00_094959634447_rgbf000151-resize_1-target.png,125,1.9675,2,1702,122,feet,jsons/VE125_randls_7.json,614932,811230,28,Woman
113,777408,DepthScenes,duration_manipulation_targetAtFixation,jsons/VE125_randls_7.json,http://54.235.29.9/FacialAge/BNav_EC2/DepthDuration/v2_depth_duration_MTurk/v2_DepthDuration_HTML.html#26,26,1364,625,1364,768,8-29-2022,12-25-7,114,depth_duration_stimuli/001449_2014-06-19_17-01-27_260595134347_rgbf000116-resize_2/001449_2014-06-19_17-01-27_260595134347_rgbf000116-resize_2-target.png,125,3.452,1,2358,125,feet,jsons/VE125_randls_7.json,614932,811230,28,Woman
114,777408,DepthScenes,duration_manipulation_targetAtFixation,jsons/VE125_randls_7.json,http://54.235.29.9/FacialAge/BNav_EC2/DepthDuration/v2_depth_duration_MTurk/v2_DepthDuration_HTML.html#26,26,1364,625,1364,768,8-29-2022,12-25-7,115,depth_duration_stimuli/001450_2014-06-19_17-02-03_260595134347_rgbf000203-resize_4/001450_2014-06-19_17-02-03_260595134347_rgbf000203-resize_4-target.png,125,4.0106666666667,2,1684,126,feet,jsons/VE125_randls_7.json,614932,811230,28,Woman
115,777408,DepthScenes,duration_manipulation_targetAtFixation,jsons/VE125_randls_7.json,http://54.235.29.9/FacialAge/BNav_EC2/DepthDuration/v2_depth_duration_MTurk/v2_DepthDuration_HTML.html#26,26,1364,625,1364,768,8-29-2022,12-25-7,116,depth_duration_stimuli/001170_2014-06-17_15-43-44_260595134347_rgbf000096-resize_6/001170_2014-06-17_15-43-44_260595134347_rgbf000096-resize-original.jpg,125,1.1909999999999998,2,2384,133,feet,jsons/VE125_randls_7.json,614932,811230,28,Woman
116,777408,DepthScenes,duration_manipulation_targetAtFixation,jsons/VE125_randls_7.json,http://54.235.29.9/FacialAge/BNav_EC2/DepthDuration/v2_depth_duration_MTurk/v2_DepthDuration_HTML.html#26,26,1364,625,1364,768,8-29-2022,12-25-7,117,depth_duration_stimuli/001055_2014-06-08_18-45-35_260595134347_rgbf000111-resize_4/001055_2014-06-08_18-45-35_260595134347_rgbf000111-resize_4-target.png,125,2.4290000000000003,2,1903,123,feet,jsons/VE125_randls_7.json,614932,811230,28,Woman
117,777408,DepthScenes,duration_manipulation_targetAtFixation,jsons/VE125_randls_7.json,http://54.235.29.9/FacialAge/BNav_EC2/DepthDuration/v2_depth_duration_MTurk/v2_DepthDuration_HTML.html#26,26,1364,625,1364,768,8-29-2022,12-25-7,118,depth_duration_stimuli/000549_2014-06-08_22-10-24_260595134347_rgbf000247-resize_3/000549_2014-06-08_22-10-24_260595134347_rgbf000247-resize_3-target.png,125,1.841,3,1786,122,feet,jsons/VE125_randls_7.json,614932,811230,28,Woman
118,777408,DepthScenes,duration_manipulation_targetAtFixation,jsons/VE125_randls_7.json,http://54.235.29.9/FacialAge/BNav_EC2/DepthDuration/v2_depth_duration_MTurk/v2_DepthDuration_HTML.html#26,26,1364,625,1364,768,8-29-2022,12-25-7,119,depth_duration_stimuli/002725_2014-06-22_11-47-51_094959634447_rgbf000070-resize_1/002725_2014-06-22_11-47-51_094959634447_rgbf000070-resize_1-target.png,125,2.195,3,2076,121,feet,jsons/VE125_randls_7.json,614932,811230,28,Woman
119,777408,DepthScenes,duration_manipulation_targetAtFixation,jsons/VE125_randls_7.json,http://54.235.29.9/FacialAge/BNav_EC2/DepthDuration/v2_depth_duration_MTurk/v2_DepthDuration_HTML.html#26,26,1364,625,1364,768,8-29-2022,12-25-7,120,depth_duration_stimuli/002344_2014-06-28_20-06-29_260595134347_rgbf000030-resize_1/002344_2014-06-28_20-06-29_260595134347_rgbf000030-resize_1-target.png,125,1.5795,1,2421,132,feet,jsons/VE125_randls_7.json,614932,811230,28,Woman
120,777408,DepthScenes,duration_manipulation_targetAtFixation,jsons/VE125_randls_7.json,http://54.235.29.9/FacialAge/BNav_EC2/DepthDuration/v2_depth_duration_MTurk/v2_DepthDuration_HTML.html#26,26,1364,625,1364,768,8-29-2022,12-25-7,121,depth_duration_stimuli/000682_2014-06-08_23-14-58_260595134347_rgbf000041-resize_5/000682_2014-06-08_23-14-58_260595134347_rgbf000041-resize_5-target.png,125,2.7239999999999998,3,1721,134,feet,jsons/VE125_randls_7.json,614932,811230,28,Woman
121,777408,DepthScenes,duration_manipulation_targetAtFixation,jsons/VE125_randls_7.json,http://54.235.29.9/FacialAge/BNav_EC2/DepthDuration/v2_depth_duration_MTurk/v2_DepthDuration_HTML.html#26,26,1364,625,1364,768,8-29-2022,12-25-7,122,depth_duration_stimuli/001650_2014-06-20_12-09-00_260595134347_rgbf000087-resize_3/001650_2014-06-20_12-09-00_260595134347_rgbf000087-resize_3-target.png,125,1.9505,2,1929,126,feet,jsons/VE125_randls_7.json,614932,811230,28,Woman
122,777408,DepthScenes,duration_manipulation_targetAtFixation,jsons/VE125_randls_7.json,http://54.235.29.9/FacialAge/BNav_EC2/DepthDuration/v2_depth_duration_MTurk/v2_DepthDuration_HTML.html#26,26,1364,625,1364,768,8-29-2022,12-25-7,123,depth_duration_stimuli/002057_2014-06-24_21-00-13_260595134347_rgbf000120-resize_1/002057_2014-06-24_21-00-13_260595134347_rgbf000120-resize_1-target.png,125,2.967,2,1934,124,feet,jsons/VE125_randls_7.json,614932,811230,28,Woman
123,777408,DepthScenes,duration_manipulation_targetAtFixation,jsons/VE125_randls_7.json,http://54.235.29.9/FacialAge/BNav_EC2/DepthDuration/v2_depth_duration_MTurk/v2_DepthDuration_HTML.html#26,26,1364,625,1364,768,8-29-2022,12-25-7,124,depth_duration_stimuli/000709_2014-06-08_13-51-55_260595134347_rgbf000068-resize_3/000709_2014-06-08_13-51-55_260595134347_rgbf000068-resize_3-target.png,125,1.8030000000000002,1,2187,142,feet,jsons/VE125_randls_7.json,614932,811230,28,Woman
124,777408,DepthScenes,duration_manipulation_targetAtFixation,jsons/VE125_randls_7.json,http://54.235.29.9/FacialAge/BNav_EC2/DepthDuration/v2_depth_duration_MTurk/v2_DepthDuration_HTML.html#26,26,1364,625,1364,768,8-29-2022,12-25-7,125,depth_duration_stimuli/001164_2014-06-17_15-35-46_260595134347_rgbf000085-resize_3/001164_2014-06-17_15-35-46_260595134347_rgbf000085-resize_3-target.png,125,2.354,2,1910,125,feet,jsons/VE125_randls_7.json,614932,811230,28,Woman
125,777408,DepthScenes,duration_manipulation_targetAtFixation,jsons/VE125_randls_7.json,http://54.235.29.9/FacialAge/BNav_EC2/DepthDuration/v2_depth_duration_MTurk/v2_DepthDuration_HTML.html#26,26,1364,625,1364,768,8-29-2022,12-25-7,126,depth_duration_stimuli/001136_2014-06-17_15-19-41_260595134347_rgbf000076-resize_3/001136_2014-06-17_15-19-41_260595134347_rgbf000076-resize_3-target.png,125,1.8655,2,2286,123,feet,jsons/VE125_randls_7.json,614932,811230,28,Woman
126,777408,DepthScenes,duration_manipulation_targetAtFixation,jsons/VE125_randls_7.json,http://54.235.29.9/FacialAge/BNav_EC2/DepthDuration/v2_depth_duration_MTurk/v2_DepthDuration_HTML.html#26,26,1364,625,1364,768,8-29-2022,12-25-7,127,depth_duration_stimuli/001110_2014-06-15_17-25-28_260595134347_rgbf000150-resize_1/001110_2014-06-15_17-25-28_260595134347_rgbf000150-resize_1-target.png,125,1.7115,2,2451,126,feet,jsons/VE125_randls_7.json,614932,811230,28,Woman
127,777408,DepthScenes,duration_manipulation_targetAtFixation,jsons/VE125_randls_7.json,http://54.235.29.9/FacialAge/BNav_EC2/DepthDuration/v2_depth_duration_MTurk/v2_DepthDuration_HTML.html#26,26,1364,625,1364,768,8-29-2022,12-25-7,128,depth_duration_stimuli/000927_2014-06-09_16-32-30_260595134347_rgbf000123-resize_3/000927_2014-06-09_16-32-30_260595134347_rgbf000123-resize_3-target.png,125,2.6785,2,2361,121,feet,jsons/VE125_randls_7.json,614932,811230,28,Woman
128,777408,DepthScenes,duration_manipulation_targetAtFixation,jsons/VE125_randls_7.json,http://54.235.29.9/FacialAge/BNav_EC2/DepthDuration/v2_depth_duration_MTurk/v2_DepthDuration_HTML.html#26,26,1364,625,1364,768,8-29-2022,12-25-7,129,depth_duration_stimuli/001570_2014-06-20_17-21-09_260595134347_rgbf000135-resize_4/001570_2014-06-20_17-21-09_260595134347_rgbf000135-resize_4-target.png,125,4.467,3,2465,138,feet,jsons/VE125_randls_7.json,614932,811230,28,Woman
129,777408,DepthScenes,duration_manipulation_targetAtFixation,jsons/VE125_randls_7.json,http://54.235.29.9/FacialAge/BNav_EC2/DepthDuration/v2_depth_duration_MTurk/v2_DepthDuration_HTML.html#26,26,1364,625,1364,768,8-29-2022,12-25-7,130,depth_duration_stimuli/001392_2014-06-19_16-07-59_260595134347_rgbf000046-resize_1/001392_2014-06-19_16-07-59_260595134347_rgbf000046-resize_1-target.png,125,4.135,2,2813,133,feet,jsons/VE125_randls_7.json,614932,811230,28,Woman
130,777408,DepthScenes,duration_manipulation_targetAtFixation,jsons/VE125_randls_7.json,http://54.235.29.9/FacialAge/BNav_EC2/DepthDuration/v2_depth_duration_MTurk/v2_DepthDuration_HTML.html#26,26,1364,625,1364,768,8-29-2022,12-25-7,131,depth_duration_stimuli/002663_2014-06-13_15-50-26_094959634447_rgbf000075-resize_1/002663_2014-06-13_15-50-26_094959634447_rgbf000075-resize_1-target.png,125,4.7495,2,2566,125,feet,jsons/VE125_randls_7.json,614932,811230,28,Woman
131,777408,DepthScenes,duration_manipulation_targetAtFixation,jsons/VE125_randls_7.json,http://54.235.29.9/FacialAge/BNav_EC2/DepthDuration/v2_depth_duration_MTurk/v2_DepthDuration_HTML.html#26,26,1364,625,1364,768,8-29-2022,12-25-7,132,depth_duration_stimuli/000409_2014-06-04_19-23-33_260595134347_rgbf000067-resize_0/000409_2014-06-04_19-23-33_260595134347_rgbf000067-resize_0-target.png,125,3.7335,2,1680,124,feet,jsons/VE125_randls_7.json,614932,811230,28,Woman
132,777408,DepthScenes,duration_manipulation_targetAtFixation,jsons/VE125_randls_7.json,http://54.235.29.9/FacialAge/BNav_EC2/DepthDuration/v2_depth_duration_MTurk/v2_DepthDuration_HTML.html#26,26,1364,625,1364,768,8-29-2022,12-25-7,133,depth_duration_stimuli/001066_2014-06-08_22-03-20_260595134347_rgbf000066-resize_4/001066_2014-06-08_22-03-20_260595134347_rgbf000066-resize_4-target.png,125,4.2330000000000005,21,3059,125,feet,jsons/VE125_randls_7.json,614932,811230,28,Woman
133,777408,DepthScenes,duration_manipulation_targetAtFixation,jsons/VE125_randls_7.json,http://54.235.29.9/FacialAge/BNav_EC2/DepthDuration/v2_depth_duration_MTurk/v2_DepthDuration_HTML.html#26,26,1364,625,1364,768,8-29-2022,12-25-7,134,depth_duration_stimuli/000742_2014-06-08_18-48-09_260595134347_rgbf000164-resize_4/000742_2014-06-08_18-48-09_260595134347_rgbf000164-resize_4-target.png,125,4.632,2,2625,125,feet,jsons/VE125_randls_7.json,614932,811230,28,Woman
134,777408,DepthScenes,duration_manipulation_targetAtFixation,jsons/VE125_randls_7.json,http://54.235.29.9/FacialAge/BNav_EC2/DepthDuration/v2_depth_duration_MTurk/v2_DepthDuration_HTML.html#26,26,1364,625,1364,768,8-29-2022,12-25-7,135,depth_duration_stimuli/002072_2014-06-24_21-48-06_260595134347_rgbf000115-resize_0/002072_2014-06-24_21-48-06_260595134347_rgbf000115-resize-original.jpg,125,4.702,1,2878,129,feet,jsons/VE125_randls_7.json,614932,811230,28,Woman
135,777408,DepthScenes,duration_manipulation_targetAtFixation,jsons/VE125_randls_7.json,http://54.235.29.9/FacialAge/BNav_EC2/DepthDuration/v2_depth_duration_MTurk/v2_DepthDuration_HTML.html#26,26,1364,625,1364,768,8-29-2022,12-25-7,136,depth_duration_stimuli/001150_2014-06-17_15-27-34_260595134347_rgbf000108-resize_2/001150_2014-06-17_15-27-34_260595134347_rgbf000108-resize_2-target.png,125,4.0325,2,2725,120,feet,jsons/VE125_randls_7.json,614932,811230,28,Woman
136,777408,DepthScenes,duration_manipulation_targetAtFixation,jsons/VE125_randls_7.json,http://54.235.29.9/FacialAge/BNav_EC2/DepthDuration/v2_depth_duration_MTurk/v2_DepthDuration_HTML.html#26,26,1364,625,1364,768,8-29-2022,12-25-7,137,depth_duration_stimuli/000665_2014-06-09_20-42-35_260595134347_rgbf000110-resize_1/000665_2014-06-09_20-42-35_260595134347_rgbf000110-resize_1-target.png,125,3.057,3,1979,130,feet,jsons/VE125_randls_7.json,614932,811230,28,Woman
137,777408,DepthScenes,duration_manipulation_targetAtFixation,jsons/VE125_randls_7.json,http://54.235.29.9/FacialAge/BNav_EC2/DepthDuration/v2_depth_duration_MTurk/v2_DepthDuration_HTML.html#26,26,1364,625,1364,768,8-29-2022,12-25-7,138,depth_duration_stimuli/000773_2014-06-08_22-24-54_260595134347_rgbf000093-resize_1/000773_2014-06-08_22-24-54_260595134347_rgbf000093-resize_1-target.png,125,4.973,1,2103,126,feet,jsons/VE125_randls_7.json,614932,811230,28,Woman
138,777408,DepthScenes,duration_manipulation_targetAtFixation,jsons/VE125_randls_7.json,http://54.235.29.9/FacialAge/BNav_EC2/DepthDuration/v2_depth_duration_MTurk/v2_DepthDuration_HTML.html#26,26,1364,625,1364,768,8-29-2022,12-25-7,139,depth_duration_stimuli/002414_2014-06-28_20-24-58_260595134347_rgbf000067-resize_4/002414_2014-06-28_20-24-58_260595134347_rgbf000067-resize_4-target.png,125,4.363,2,2079,123,feet,jsons/VE125_randls_7.json,614932,811230,28,Woman
139,777408,DepthScenes,duration_manipulation_targetAtFixation,jsons/VE125_randls_7.json,http://54.235.29.9/FacialAge/BNav_EC2/DepthDuration/v2_depth_duration_MTurk/v2_DepthDuration_HTML.html#26,26,1364,625,1364,768,8-29-2022,12-25-7,140,depth_duration_stimuli/000506_2014-06-08_23-21-00_260595134347_rgbf000070-resize_7/000506_2014-06-08_23-21-00_260595134347_rgbf000070-resize_7-target.png,125,4.0585,3,2994,125,feet,jsons/VE125_randls_7.json,614932,811230,28,Woman
140,777408,DepthScenes,duration_manipulation_targetAtFixation,jsons/VE125_randls_7.json,http://54.235.29.9/FacialAge/BNav_EC2/DepthDuration/v2_depth_duration_MTurk/v2_DepthDuration_HTML.html#26,26,1364,625,1364,768,8-29-2022,12-25-7,141,depth_duration_stimuli/003079_2014-06-15_15-18-20_094959634447_rgbf000152-resize_8/003079_2014-06-15_15-18-20_094959634447_rgbf000152-resize_8-target.png,125,2.8775,1,2613,125,feet,jsons/VE125_randls_7.json,614932,811230,28,Woman
141,777408,DepthScenes,duration_manipulation_targetAtFixation,jsons/VE125_randls_7.json,http://54.235.29.9/FacialAge/BNav_EC2/DepthDuration/v2_depth_duration_MTurk/v2_DepthDuration_HTML.html#26,26,1364,625,1364,768,8-29-2022,12-25-7,142,depth_duration_stimuli/001555_2014-06-20_17-12-10_260595134347_rgbf000065-resize_4/001555_2014-06-20_17-12-10_260595134347_rgbf000065-resize_4-target.png,125,1.633,1,2608,124,feet,jsons/VE125_randls_7.json,614932,811230,28,Woman
142,777408,DepthScenes,duration_manipulation_targetAtFixation,jsons/VE125_randls_7.json,http://54.235.29.9/FacialAge/BNav_EC2/DepthDuration/v2_depth_duration_MTurk/v2_DepthDuration_HTML.html#26,26,1364,625,1364,768,8-29-2022,12-25-7,143,depth_duration_stimuli/000103_2014-05-14_22-01-17_260595134347_rgbf000152-resize_5/000103_2014-05-14_22-01-17_260595134347_rgbf000152-resize_5-target.png,125,1.993,2,2066,143,feet,jsons/VE125_randls_7.json,614932,811230,28,Woman
143,777408,DepthScenes,duration_manipulation_targetAtFixation,jsons/VE125_randls_7.json,http://54.235.29.9/FacialAge/BNav_EC2/DepthDuration/v2_depth_duration_MTurk/v2_DepthDuration_HTML.html#26,26,1364,625,1364,768,8-29-2022,12-25-7,144,depth_duration_stimuli/002509_2014-06-24_13-19-22_094959634447_rgbf000077-resize_0/002509_2014-06-24_13-19-22_094959634447_rgbf000077-resize_0-target.png,125,1.3065,3,1913,122,feet,jsons/VE125_randls_7.json,614932,811230,28,Woman
144,777408,DepthScenes,duration_manipulation_targetAtFixation,jsons/VE125_randls_7.json,http://54.235.29.9/FacialAge/BNav_EC2/DepthDuration/v2_depth_duration_MTurk/v2_DepthDuration_HTML.html#26,26,1364,625,1364,768,8-29-2022,12-25-7,145,depth_duration_stimuli/003338_2014-05-20_11-01-23_094959634447_rgbf000051-resize_6/003338_2014-05-20_11-01-23_094959634447_rgbf000051-resize_6-target.png,125,1.693,2,2321,125,feet,jsons/VE125_randls_7.json,614932,811230,28,Woman
145,777408,DepthScenes,duration_manipulation_targetAtFixation,jsons/VE125_randls_7.json,http://54.235.29.9/FacialAge/BNav_EC2/DepthDuration/v2_depth_duration_MTurk/v2_DepthDuration_HTML.html#26,26,1364,625,1364,768,8-29-2022,12-25-7,146,depth_duration_stimuli/001498_2014-06-19_17-45-14_260595134347_rgbf000129-resize_4/001498_2014-06-19_17-45-14_260595134347_rgbf000129-resize-original.jpg,125,1.4075,3,2390,121,feet,jsons/VE125_randls_7.json,614932,811230,28,Woman
146,777408,DepthScenes,duration_manipulation_targetAtFixation,jsons/VE125_randls_7.json,http://54.235.29.9/FacialAge/BNav_EC2/DepthDuration/v2_depth_duration_MTurk/v2_DepthDuration_HTML.html#26,26,1364,625,1364,768,8-29-2022,12-25-7,147,depth_duration_stimuli/000917_2014-06-09_22-45-29_260595134347_rgbf000149-resize_3/000917_2014-06-09_22-45-29_260595134347_rgbf000149-resize_3-target.png,125,4.1865,2,2030,118,feet,jsons/VE125_randls_7.json,614932,811230,28,Woman
147,777408,DepthScenes,duration_manipulation_targetAtFixation,jsons/VE125_randls_7.json,http://54.235.29.9/FacialAge/BNav_EC2/DepthDuration/v2_depth_duration_MTurk/v2_DepthDuration_HTML.html#26,26,1364,625,1364,768,8-29-2022,12-25-7,148,depth_duration_stimuli/002323_2014-06-28_20-01-54_260595134347_rgbf000051-resize_4/002323_2014-06-28_20-01-54_260595134347_rgbf000051-resize_4-target.png,125,3.7310000000000003,2,2470,124,feet,jsons/VE125_randls_7.json,614932,811230,28,Woman
148,777408,DepthScenes,duration_manipulation_targetAtFixation,jsons/VE125_randls_7.json,http://54.235.29.9/FacialAge/BNav_EC2/DepthDuration/v2_depth_duration_MTurk/v2_DepthDuration_HTML.html#26,26,1364,625,1364,768,8-29-2022,12-25-7,149,depth_duration_stimuli/002375_2014-06-28_20-13-44_260595134347_rgbf000032-resize_1/002375_2014-06-28_20-13-44_260595134347_rgbf000032-resize_1-target.png,125,4.0175,2,2068,124,feet,jsons/VE125_randls_7.json,614932,811230,28,Woman
149,777408,DepthScenes,duration_manipulation_targetAtFixation,jsons/VE125_randls_7.json,http://54.235.29.9/FacialAge/BNav_EC2/DepthDuration/v2_depth_duration_MTurk/v2_DepthDuration_HTML.html#26,26,1364,625,1364,768,8-29-2022,12-25-7,150,depth_duration_stimuli/002657_2014-06-13_15-29-54_094959634447_rgbf000150-resize_1/002657_2014-06-13_15-29-54_094959634447_rgbf000150-resize_1-target.png,125,4.919,3,1658,126,feet,jsons/VE125_randls_7.json,614932,811230,28,Woman
150,777408,DepthScenes,duration_manipulation_targetAtFixation,jsons/VE125_randls_7.json,http://54.235.29.9/FacialAge/BNav_EC2/DepthDuration/v2_depth_duration_MTurk/v2_DepthDuration_HTML.html#26,26,1364,625,1364,768,8-29-2022,12-25-7,151,depth_duration_stimuli/001417_2014-06-19_16-25-36_260595134347_rgbf000115-resize_5/001417_2014-06-19_16-25-36_260595134347_rgbf000115-resize_5-target.png,125,4.6255,3,4612,124,feet,jsons/VE125_randls_7.json,614932,811230,28,Woman
151,777408,DepthScenes,duration_manipulation_targetAtFixation,jsons/VE125_randls_7.json,http://54.235.29.9/FacialAge/BNav_EC2/DepthDuration/v2_depth_duration_MTurk/v2_DepthDuration_HTML.html#26,26,1364,625,1364,768,8-29-2022,12-25-7,152,depth_duration_stimuli/003081_2014-06-15_15-19-16_094959634447_rgbf000150-resize_1/003081_2014-06-15_15-19-16_094959634447_rgbf000150-resize_1-target.png,125,3.9125,2,1879,141,feet,jsons/VE125_randls_7.json,614932,811230,28,Woman
152,777408,DepthScenes,duration_manipulation_targetAtFixation,jsons/VE125_randls_7.json,http://54.235.29.9/FacialAge/BNav_EC2/DepthDuration/v2_depth_duration_MTurk/v2_DepthDuration_HTML.html#26,26,1364,625,1364,768,8-29-2022,12-25-7,153,depth_duration_stimuli/002905_2014-06-03_18-04-43_094959634447_rgbf000151-resize_2/002905_2014-06-03_18-04-43_094959634447_rgbf000151-resize_2-target.png,125,2.0295,2,4383,124,feet,jsons/VE125_randls_7.json,614932,811230,28,Woman
153,777408,DepthScenes,duration_manipulation_targetAtFixation,jsons/VE125_randls_7.json,http://54.235.29.9/FacialAge/BNav_EC2/DepthDuration/v2_depth_duration_MTurk/v2_DepthDuration_HTML.html#26,26,1364,625,1364,768,8-29-2022,12-25-7,154,depth_duration_stimuli/003423_2014-05-21_10-23-26_094959634447_rgbf002665-resize_2/003423_2014-05-21_10-23-26_094959634447_rgbf002665-resize_2-target.png,125,3.2575,2,10724,124,feet,jsons/VE125_randls_7.json,614932,811230,28,Woman
154,777408,DepthScenes,duration_manipulation_targetAtFixation,jsons/VE125_randls_7.json,http://54.235.29.9/FacialAge/BNav_EC2/DepthDuration/v2_depth_duration_MTurk/v2_DepthDuration_HTML.html#26,26,1364,625,1364,768,8-29-2022,12-25-7,155,depth_duration_stimuli/000469_2014-06-09_19-42-10_260595134347_rgbf000081-resize_1/000469_2014-06-09_19-42-10_260595134347_rgbf000081-resize_1-target.png,125,1.652,3,2763,124,feet,jsons/VE125_randls_7.json,614932,811230,28,Woman
155,777408,DepthScenes,duration_manipulation_targetAtFixation,jsons/VE125_randls_7.json,http://54.235.29.9/FacialAge/BNav_EC2/DepthDuration/v2_depth_duration_MTurk/v2_DepthDuration_HTML.html#26,26,1364,625,1364,768,8-29-2022,12-25-7,156,depth_duration_stimuli/000483_2014-06-09_20-41-45_260595134347_rgbf000116-resize_4/000483_2014-06-09_20-41-45_260595134347_rgbf000116-resize_4-target.png,125,1.337,3,1962,136,feet,jsons/VE125_randls_7.json,614932,811230,28,Woman
156,777408,DepthScenes,duration_manipulation_targetAtFixation,jsons/VE125_randls_7.json,http://54.235.29.9/FacialAge/BNav_EC2/DepthDuration/v2_depth_duration_MTurk/v2_DepthDuration_HTML.html#26,26,1364,625,1364,768,8-29-2022,12-25-7,157,depth_duration_stimuli/000493_2014-06-09_21-01-18_260595134347_rgbf000196-resize_3/000493_2014-06-09_21-01-18_260595134347_rgbf000196-resize_3-target.png,125,3.44,2,2222,125,feet,jsons/VE125_randls_7.json,614932,811230,28,Woman
157,777408,DepthScenes,duration_manipulation_targetAtFixation,jsons/VE125_randls_7.json,http://54.235.29.9/FacialAge/BNav_EC2/DepthDuration/v2_depth_duration_MTurk/v2_DepthDuration_HTML.html#26,26,1364,625,1364,768,8-29-2022,12-25-7,158,depth_duration_stimuli/000191_2014-05-12_17-07-38_260595134347_rgbf000199-resize_0/000191_2014-05-12_17-07-38_260595134347_rgbf000199-resize_0-target.png,125,3.7995,2,3995,125,feet,jsons/VE125_randls_7.json,614932,811230,28,Woman
158,777408,DepthScenes,duration_manipulation_targetAtFixation,jsons/VE125_randls_7.json,http://54.235.29.9/FacialAge/BNav_EC2/DepthDuration/v2_depth_duration_MTurk/v2_DepthDuration_HTML.html#26,26,1364,625,1364,768,8-29-2022,12-25-7,159,depth_duration_stimuli/003292_2014-05-14_21-53-49_094959634447_rgbf000100-resize_2/003292_2014-05-14_21-53-49_094959634447_rgbf000100-resize_2-target.png,125,3.4815,2,2349,123,feet,jsons/VE125_randls_7.json,614932,811230,28,Woman
159,777408,DepthScenes,duration_manipulation_targetAtFixation,jsons/VE125_randls_7.json,http://54.235.29.9/FacialAge/BNav_EC2/DepthDuration/v2_depth_duration_MTurk/v2_DepthDuration_HTML.html#26,26,1364,625,1364,768,8-29-2022,12-25-7,160,depth_duration_stimuli/002639_2014-06-24_14-51-37_094959634447_rgbf000074-resize_4/002639_2014-06-24_14-51-37_094959634447_rgbf000074-resize_4-target.png,125,4.0375,2,12347,140,feet,jsons/VE125_randls_7.json,614932,811230,28,Woman
160,777408,DepthScenes,duration_manipulation_targetAtFixation,jsons/VE125_randls_7.json,http://54.235.29.9/FacialAge/BNav_EC2/DepthDuration/v2_depth_duration_MTurk/v2_DepthDuration_HTML.html#26,26,1364,625,1364,768,8-29-2022,12-25-7,161,depth_duration_stimuli/003070_2014-06-15_14-58-27_094959634447_rgbf000150-resize_3/003070_2014-06-15_14-58-27_094959634447_rgbf000150-resize_3-target.png,125,2.9415,1,2869,124,feet,jsons/VE125_randls_7.json,614932,811230,28,Woman
161,777408,DepthScenes,duration_manipulation_targetAtFixation,jsons/VE125_randls_7.json,http://54.235.29.9/FacialAge/BNav_EC2/DepthDuration/v2_depth_duration_MTurk/v2_DepthDuration_HTML.html#26,26,1364,625,1364,768,8-29-2022,12-25-7,162,depth_duration_stimuli/000943_2014-06-09_19-31-07_260595134347_rgbf000128-resize_1/000943_2014-06-09_19-31-07_260595134347_rgbf000128-resize_1-target.png,125,1.9765,3,2913,130,feet,jsons/VE125_randls_7.json,614932,811230,28,Woman
162,777408,DepthScenes,duration_manipulation_targetAtFixation,jsons/VE125_randls_7.json,http://54.235.29.9/FacialAge/BNav_EC2/DepthDuration/v2_depth_duration_MTurk/v2_DepthDuration_HTML.html#26,26,1364,625,1364,768,8-29-2022,12-25-7,163,depth_duration_stimuli/001199_2014-06-17_16-03-48_260595134347_rgbf000077-resize_0/001199_2014-06-17_16-03-48_260595134347_rgbf000077-resize_0-target.png,125,3.4375,2,3004,125,feet,jsons/VE125_randls_7.json,614932,811230,28,Woman
163,777408,DepthScenes,duration_manipulation_targetAtFixation,jsons/VE125_randls_7.json,http://54.235.29.9/FacialAge/BNav_EC2/DepthDuration/v2_depth_duration_MTurk/v2_DepthDuration_HTML.html#26,26,1364,625,1364,768,8-29-2022,12-25-7,164,depth_duration_stimuli/000502_2014-06-08_23-02-32_260595134347_rgbf000063-resize_4/000502_2014-06-08_23-02-32_260595134347_rgbf000063-resize_4-target.png,125,2.431,2,3002,123,feet,jsons/VE125_randls_7.json,614932,811230,28,Woman
