,subjID,experimentName,versionName,sequenceName,url,selected_row,windowWidth,windowHeight,screenWidth,screenHeight,startDate,startTime,trial,stimulus,duration,actual_depth,depth_estimate,trial_RT,log_sceneDuration,unitSelection,seq_filepath,experimentTime,totalTime,age,gender
0,779298,DepthScenes,duration_manipulation_targetAtFixation,jsons/VE125_randls_14_rotated.json,http://54.235.29.9/FacialAge/BNav_EC2/DepthDuration/v2_depth_duration_MTurk/v2_DepthDuration_HTML.html#56,56,1349,625,1366,768,8-21-2022,10-10-2,1,depth_duration_stimuli/002340_2014-06-28_20-05-46_260595134347_rgbf000113-resize_0/002340_2014-06-28_20-05-46_260595134347_rgbf000113-resize_0-target.png,125,2.4735,2,6509,122,feet,jsons/VE125_randls_14_rotated.json,612260,812796,33,Man
1,779298,DepthScenes,duration_manipulation_targetAtFixation,jsons/VE125_randls_14_rotated.json,http://54.235.29.9/FacialAge/BNav_EC2/DepthDuration/v2_depth_duration_MTurk/v2_DepthDuration_HTML.html#56,56,1349,625,1366,768,8-21-2022,10-10-2,2,depth_duration_stimuli/001016_2014-06-09_16-16-10_260595134347_rgbf000112-resize_5/001016_2014-06-09_16-16-10_260595134347_rgbf000112-resize_5-target.png,125,1.6565,2,3475,150,feet,jsons/VE125_randls_14_rotated.json,612260,812796,33,Man
2,779298,DepthScenes,duration_manipulation_targetAtFixation,jsons/VE125_randls_14_rotated.json,http://54.235.29.9/FacialAge/BNav_EC2/DepthDuration/v2_depth_duration_MTurk/v2_DepthDuration_HTML.html#56,56,1349,625,1366,768,8-21-2022,10-10-2,3,depth_duration_stimuli/001447_2014-06-19_17-00-32_260595134347_rgbf000082-resize_5/001447_2014-06-19_17-00-32_260595134347_rgbf000082-resize_5-target.png,125,4.13775,1,3962,136,feet,jsons/VE125_randls_14_rotated.json,612260,812796,33,Man
3,779298,DepthScenes,duration_manipulation_targetAtFixation,jsons/VE125_randls_14_rotated.json,http://54.235.29.9/FacialAge/BNav_EC2/DepthDuration/v2_depth_duration_MTurk/v2_DepthDuration_HTML.html#56,56,1349,625,1366,768,8-21-2022,10-10-2,4,depth_duration_stimuli/000447_2014-06-08_16-15-46_260595134347_rgbf000130-resize_1/000447_2014-06-08_16-15-46_260595134347_rgbf000130-resize_1-target.png,125,4.479,2,3196,123,feet,jsons/VE125_randls_14_rotated.json,612260,812796,33,Man
4,779298,DepthScenes,duration_manipulation_targetAtFixation,jsons/VE125_randls_14_rotated.json,http://54.235.29.9/FacialAge/BNav_EC2/DepthDuration/v2_depth_duration_MTurk/v2_DepthDuration_HTML.html#56,56,1349,625,1366,768,8-21-2022,10-10-2,5,depth_duration_stimuli/002344_2014-06-28_20-06-29_260595134347_rgbf000030-resize_1/002344_2014-06-28_20-06-29_260595134347_rgbf000030-resize_1-target.png,125,1.5795,2,3924,95,feet,jsons/VE125_randls_14_rotated.json,612260,812796,33,Man
5,779298,DepthScenes,duration_manipulation_targetAtFixation,jsons/VE125_randls_14_rotated.json,http://54.235.29.9/FacialAge/BNav_EC2/DepthDuration/v2_depth_duration_MTurk/v2_DepthDuration_HTML.html#56,56,1349,625,1366,768,8-21-2022,10-10-2,6,depth_duration_stimuli/002725_2014-06-22_11-47-51_094959634447_rgbf000070-resize_1/002725_2014-06-22_11-47-51_094959634447_rgbf000070-resize_1-target.png,125,2.195,2,3220,124,feet,jsons/VE125_randls_14_rotated.json,612260,812796,33,Man
6,779298,DepthScenes,duration_manipulation_targetAtFixation,jsons/VE125_randls_14_rotated.json,http://54.235.29.9/FacialAge/BNav_EC2/DepthDuration/v2_depth_duration_MTurk/v2_DepthDuration_HTML.html#56,56,1349,625,1366,768,8-21-2022,10-10-2,7,depth_duration_stimuli/001516_2014-06-20_16-25-09_260595134347_rgbf000076-resize_2/001516_2014-06-20_16-25-09_260595134347_rgbf000076-resize_2-target.png,125,1.7445,2,3368,125,feet,jsons/VE125_randls_14_rotated.json,612260,812796,33,Man
7,779298,DepthScenes,duration_manipulation_targetAtFixation,jsons/VE125_randls_14_rotated.json,http://54.235.29.9/FacialAge/BNav_EC2/DepthDuration/v2_depth_duration_MTurk/v2_DepthDuration_HTML.html#56,56,1349,625,1366,768,8-21-2022,10-10-2,8,depth_duration_stimuli/002118_2014-06-25_20-32-08_260595134347_rgbf000078-resize_1/002118_2014-06-25_20-32-08_260595134347_rgbf000078-resize_1-target.png,125,2.6460000000000004,1,4116,125,feet,jsons/VE125_randls_14_rotated.json,612260,812796,33,Man
8,779298,DepthScenes,duration_manipulation_targetAtFixation,jsons/VE125_randls_14_rotated.json,http://54.235.29.9/FacialAge/BNav_EC2/DepthDuration/v2_depth_duration_MTurk/v2_DepthDuration_HTML.html#56,56,1349,625,1366,768,8-21-2022,10-10-2,9,depth_duration_stimuli/002467_2014-06-28_20-38-07_260595134347_rgbf000026-resize_2/002467_2014-06-28_20-38-07_260595134347_rgbf000026-resize_2-target.png,125,4.742,2,3312,127,feet,jsons/VE125_randls_14_rotated.json,612260,812796,33,Man
9,779298,DepthScenes,duration_manipulation_targetAtFixation,jsons/VE125_randls_14_rotated.json,http://54.235.29.9/FacialAge/BNav_EC2/DepthDuration/v2_depth_duration_MTurk/v2_DepthDuration_HTML.html#56,56,1349,625,1366,768,8-21-2022,10-10-2,10,depth_duration_stimuli/002570_2014-06-24_13-59-54_094959634447_rgbf000059-resize_0/002570_2014-06-24_13-59-54_094959634447_rgbf000059-resize_0-target.png,125,4.037,2,3270,124,feet,jsons/VE125_randls_14_rotated.json,612260,812796,33,Man
10,779298,DepthScenes,duration_manipulation_targetAtFixation,jsons/VE125_randls_14_rotated.json,http://54.235.29.9/FacialAge/BNav_EC2/DepthDuration/v2_depth_duration_MTurk/v2_DepthDuration_HTML.html#56,56,1349,625,1366,768,8-21-2022,10-10-2,11,depth_duration_stimuli/000742_2014-06-08_18-48-09_260595134347_rgbf000164-resize_4/000742_2014-06-08_18-48-09_260595134347_rgbf000164-resize_4-target.png,125,4.632,2,2938,124,feet,jsons/VE125_randls_14_rotated.json,612260,812796,33,Man
11,779298,DepthScenes,duration_manipulation_targetAtFixation,jsons/VE125_randls_14_rotated.json,http://54.235.29.9/FacialAge/BNav_EC2/DepthDuration/v2_depth_duration_MTurk/v2_DepthDuration_HTML.html#56,56,1349,625,1366,768,8-21-2022,10-10-2,12,depth_duration_stimuli/001066_2014-06-08_22-03-20_260595134347_rgbf000066-resize_4/001066_2014-06-08_22-03-20_260595134347_rgbf000066-resize_4-target.png,125,4.2330000000000005,2,2731,126,feet,jsons/VE125_randls_14_rotated.json,612260,812796,33,Man
12,779298,DepthScenes,duration_manipulation_targetAtFixation,jsons/VE125_randls_14_rotated.json,http://54.235.29.9/FacialAge/BNav_EC2/DepthDuration/v2_depth_duration_MTurk/v2_DepthDuration_HTML.html#56,56,1349,625,1366,768,8-21-2022,10-10-2,13,depth_duration_stimuli/003083_2014-06-15_15-21-03_094959634447_rgbf000063-resize_1/003083_2014-06-15_15-21-03_094959634447_rgbf000063-resize_1-target.png,125,4.1405,2,4144,124,feet,jsons/VE125_randls_14_rotated.json,612260,812796,33,Man
13,779298,DepthScenes,duration_manipulation_targetAtFixation,jsons/VE125_randls_14_rotated.json,http://54.235.29.9/FacialAge/BNav_EC2/DepthDuration/v2_depth_duration_MTurk/v2_DepthDuration_HTML.html#56,56,1349,625,1366,768,8-21-2022,10-10-2,14,depth_duration_stimuli/000486_2014-06-09_20-47-20_260595134347_rgbf000143-resize_2/000486_2014-06-09_20-47-20_260595134347_rgbf000143-resize_2-target.png,125,4.8325,1,3470,139,feet,jsons/VE125_randls_14_rotated.json,612260,812796,33,Man
14,779298,DepthScenes,duration_manipulation_targetAtFixation,jsons/VE125_randls_14_rotated.json,http://54.235.29.9/FacialAge/BNav_EC2/DepthDuration/v2_depth_duration_MTurk/v2_DepthDuration_HTML.html#56,56,1349,625,1366,768,8-21-2022,10-10-2,15,depth_duration_stimuli/000483_2014-06-09_20-41-45_260595134347_rgbf000116-resize_4/000483_2014-06-09_20-41-45_260595134347_rgbf000116-resize_4-target.png,125,1.337,3,2988,125,feet,jsons/VE125_randls_14_rotated.json,612260,812796,33,Man
15,779298,DepthScenes,duration_manipulation_targetAtFixation,jsons/VE125_randls_14_rotated.json,http://54.235.29.9/FacialAge/BNav_EC2/DepthDuration/v2_depth_duration_MTurk/v2_DepthDuration_HTML.html#56,56,1349,625,1366,768,8-21-2022,10-10-2,16,depth_duration_stimuli/000469_2014-06-09_19-42-10_260595134347_rgbf000081-resize_1/000469_2014-06-09_19-42-10_260595134347_rgbf000081-resize_1-target.png,125,1.652,3,2643,125,feet,jsons/VE125_randls_14_rotated.json,612260,812796,33,Man
16,779298,DepthScenes,duration_manipulation_targetAtFixation,jsons/VE125_randls_14_rotated.json,http://54.235.29.9/FacialAge/BNav_EC2/DepthDuration/v2_depth_duration_MTurk/v2_DepthDuration_HTML.html#56,56,1349,625,1366,768,8-21-2022,10-10-2,17,depth_duration_stimuli/001235_2014-06-17_16-37-36_260595134347_rgbf000084-resize_4/001235_2014-06-17_16-37-36_260595134347_rgbf000084-resize_4-target.png,125,3.6605,2,3162,125,feet,jsons/VE125_randls_14_rotated.json,612260,812796,33,Man
17,779298,DepthScenes,duration_manipulation_targetAtFixation,jsons/VE125_randls_14_rotated.json,http://54.235.29.9/FacialAge/BNav_EC2/DepthDuration/v2_depth_duration_MTurk/v2_DepthDuration_HTML.html#56,56,1349,625,1366,768,8-21-2022,10-10-2,18,depth_duration_stimuli/000788_2014-06-08_22-34-36_260595134347_rgbf000131-resize_1/000788_2014-06-08_22-34-36_260595134347_rgbf000131-resize_1-target.png,125,3.359,2,2653,121,feet,jsons/VE125_randls_14_rotated.json,612260,812796,33,Man
18,779298,DepthScenes,duration_manipulation_targetAtFixation,jsons/VE125_randls_14_rotated.json,http://54.235.29.9/FacialAge/BNav_EC2/DepthDuration/v2_depth_duration_MTurk/v2_DepthDuration_HTML.html#56,56,1349,625,1366,768,8-21-2022,10-10-2,19,depth_duration_stimuli/001498_2014-06-19_17-45-14_260595134347_rgbf000129-resize_4/001498_2014-06-19_17-45-14_260595134347_rgbf000129-resize-original.jpg,125,1.4075,2,3062,123,feet,jsons/VE125_randls_14_rotated.json,612260,812796,33,Man
19,779298,DepthScenes,duration_manipulation_targetAtFixation,jsons/VE125_randls_14_rotated.json,http://54.235.29.9/FacialAge/BNav_EC2/DepthDuration/v2_depth_duration_MTurk/v2_DepthDuration_HTML.html#56,56,1349,625,1366,768,8-21-2022,10-10-2,20,depth_duration_stimuli/002750_2014-06-22_19-08-03_094959634447_rgbf000094-resize_4/002750_2014-06-22_19-08-03_094959634447_rgbf000094-resize_4-target.png,125,2.354,2,3113,125,feet,jsons/VE125_randls_14_rotated.json,612260,812796,33,Man
20,779298,DepthScenes,duration_manipulation_targetAtFixation,jsons/VE125_randls_14_rotated.json,http://54.235.29.9/FacialAge/BNav_EC2/DepthDuration/v2_depth_duration_MTurk/v2_DepthDuration_HTML.html#56,56,1349,625,1366,768,8-21-2022,10-10-2,21,depth_duration_stimuli/002549_2014-06-24_13-41-39_094959634447_rgbf000022-resize_3/002549_2014-06-24_13-41-39_094959634447_rgbf000022-resize_3-target.png,125,1.476,2,4378,124,feet,jsons/VE125_randls_14_rotated.json,612260,812796,33,Man
21,779298,DepthScenes,duration_manipulation_targetAtFixation,jsons/VE125_randls_14_rotated.json,http://54.235.29.9/FacialAge/BNav_EC2/DepthDuration/v2_depth_duration_MTurk/v2_DepthDuration_HTML.html#56,56,1349,625,1366,768,8-21-2022,10-10-2,22,depth_duration_stimuli/001815_2014-06-26_20-52-55_260595134347_rgbf000020-resize_0/001815_2014-06-26_20-52-55_260595134347_rgbf000020-resize_0-target.png,125,3.3865,1,5083,126,feet,jsons/VE125_randls_14_rotated.json,612260,812796,33,Man
22,779298,DepthScenes,duration_manipulation_targetAtFixation,jsons/VE125_randls_14_rotated.json,http://54.235.29.9/FacialAge/BNav_EC2/DepthDuration/v2_depth_duration_MTurk/v2_DepthDuration_HTML.html#56,56,1349,625,1366,768,8-21-2022,10-10-2,23,depth_duration_stimuli/001808_2014-06-26_20-50-58_260595134347_rgbf000029-resize_1/001808_2014-06-26_20-50-58_260595134347_rgbf000029-resize_1-target.png,125,4.249,2,3154,123,feet,jsons/VE125_randls_14_rotated.json,612260,812796,33,Man
23,779298,DepthScenes,duration_manipulation_targetAtFixation,jsons/VE125_randls_14_rotated.json,http://54.235.29.9/FacialAge/BNav_EC2/DepthDuration/v2_depth_duration_MTurk/v2_DepthDuration_HTML.html#56,56,1349,625,1366,768,8-21-2022,10-10-2,24,depth_duration_stimuli/000191_2014-05-12_17-07-38_260595134347_rgbf000199-resize_0/000191_2014-05-12_17-07-38_260595134347_rgbf000199-resize_0-target.png,125,3.7995,1,3382,110,feet,jsons/VE125_randls_14_rotated.json,612260,812796,33,Man
24,779298,DepthScenes,duration_manipulation_targetAtFixation,jsons/VE125_randls_14_rotated.json,http://54.235.29.9/FacialAge/BNav_EC2/DepthDuration/v2_depth_duration_MTurk/v2_DepthDuration_HTML.html#56,56,1349,625,1366,768,8-21-2022,10-10-2,25,depth_duration_stimuli/000493_2014-06-09_21-01-18_260595134347_rgbf000196-resize_3/000493_2014-06-09_21-01-18_260595134347_rgbf000196-resize_3-target.png,125,3.44,2,2930,133,feet,jsons/VE125_randls_14_rotated.json,612260,812796,33,Man
25,779298,DepthScenes,duration_manipulation_targetAtFixation,jsons/VE125_randls_14_rotated.json,http://54.235.29.9/FacialAge/BNav_EC2/DepthDuration/v2_depth_duration_MTurk/v2_DepthDuration_HTML.html#56,56,1349,625,1366,768,8-21-2022,10-10-2,26,depth_duration_stimuli/002995_2014-06-15_12-31-26_094959634447_rgbf000150-resize_1/002995_2014-06-15_12-31-26_094959634447_rgbf000150-resize_1-target.png,125,3.8360000000000003,2,3699,132,feet,jsons/VE125_randls_14_rotated.json,612260,812796,33,Man
26,779298,DepthScenes,duration_manipulation_targetAtFixation,jsons/VE125_randls_14_rotated.json,http://54.235.29.9/FacialAge/BNav_EC2/DepthDuration/v2_depth_duration_MTurk/v2_DepthDuration_HTML.html#56,56,1349,625,1366,768,8-21-2022,10-10-2,27,depth_duration_stimuli/002748_2014-06-22_19-07-22_094959634447_rgbf000078-resize_1/002748_2014-06-22_19-07-22_094959634447_rgbf000078-resize_1-target.png,125,4.6705,2,3347,124,feet,jsons/VE125_randls_14_rotated.json,612260,812796,33,Man
27,779298,DepthScenes,duration_manipulation_targetAtFixation,jsons/VE125_randls_14_rotated.json,http://54.235.29.9/FacialAge/BNav_EC2/DepthDuration/v2_depth_duration_MTurk/v2_DepthDuration_HTML.html#56,56,1349,625,1366,768,8-21-2022,10-10-2,28,depth_duration_stimuli/000549_2014-06-08_22-10-24_260595134347_rgbf000247-resize_3/000549_2014-06-08_22-10-24_260595134347_rgbf000247-resize_3-target.png,125,1.841,1,4260,122,feet,jsons/VE125_randls_14_rotated.json,612260,812796,33,Man
28,779298,DepthScenes,duration_manipulation_targetAtFixation,jsons/VE125_randls_14_rotated.json,http://54.235.29.9/FacialAge/BNav_EC2/DepthDuration/v2_depth_duration_MTurk/v2_DepthDuration_HTML.html#56,56,1349,625,1366,768,8-21-2022,10-10-2,29,depth_duration_stimuli/001055_2014-06-08_18-45-35_260595134347_rgbf000111-resize_4/001055_2014-06-08_18-45-35_260595134347_rgbf000111-resize_4-target.png,125,2.4290000000000003,3,2745,124,feet,jsons/VE125_randls_14_rotated.json,612260,812796,33,Man
29,779298,DepthScenes,duration_manipulation_targetAtFixation,jsons/VE125_randls_14_rotated.json,http://54.235.29.9/FacialAge/BNav_EC2/DepthDuration/v2_depth_duration_MTurk/v2_DepthDuration_HTML.html#56,56,1349,625,1366,768,8-21-2022,10-10-2,30,depth_duration_stimuli/002072_2014-06-24_21-48-06_260595134347_rgbf000115-resize_0/002072_2014-06-24_21-48-06_260595134347_rgbf000115-resize-original.jpg,125,4.702,0,5569,106,feet,jsons/VE125_randls_14_rotated.json,612260,812796,33,Man
30,779298,DepthScenes,duration_manipulation_targetAtFixation,jsons/VE125_randls_14_rotated.json,http://54.235.29.9/FacialAge/BNav_EC2/DepthDuration/v2_depth_duration_MTurk/v2_DepthDuration_HTML.html#56,56,1349,625,1366,768,8-21-2022,10-10-2,31,depth_duration_stimuli/003010_2014-06-15_12-54-35_094959634447_rgbf000112-resize_0/003010_2014-06-15_12-54-35_094959634447_rgbf000112-resize_0-target.png,125,3.1185,3,34701,124,feet,jsons/VE125_randls_14_rotated.json,612260,812796,33,Man
31,779298,DepthScenes,duration_manipulation_targetAtFixation,jsons/VE125_randls_14_rotated.json,http://54.235.29.9/FacialAge/BNav_EC2/DepthDuration/v2_depth_duration_MTurk/v2_DepthDuration_HTML.html#56,56,1349,625,1366,768,8-21-2022,10-10-2,32,depth_duration_stimuli/001810_2014-06-26_20-51-35_260595134347_rgbf000040-resize_3/001810_2014-06-26_20-51-35_260595134347_rgbf000040-resize_3-target.png,125,2.2525,3,2717,125,feet,jsons/VE125_randls_14_rotated.json,612260,812796,33,Man
32,779298,DepthScenes,duration_manipulation_targetAtFixation,jsons/VE125_randls_14_rotated.json,http://54.235.29.9/FacialAge/BNav_EC2/DepthDuration/v2_depth_duration_MTurk/v2_DepthDuration_HTML.html#56,56,1349,625,1366,768,8-21-2022,10-10-2,33,depth_duration_stimuli/002425_2014-06-28_20-27-29_260595134347_rgbf000031-resize_8/002425_2014-06-28_20-27-29_260595134347_rgbf000031-resize_8-target.png,125,3.8960000000000004,2,3531,124,feet,jsons/VE125_randls_14_rotated.json,612260,812796,33,Man
33,779298,DepthScenes,duration_manipulation_targetAtFixation,jsons/VE125_randls_14_rotated.json,http://54.235.29.9/FacialAge/BNav_EC2/DepthDuration/v2_depth_duration_MTurk/v2_DepthDuration_HTML.html#56,56,1349,625,1366,768,8-21-2022,10-10-2,34,depth_duration_stimuli/000642_2014-06-08_16-59-25_260595134347_rgbf000098-resize_2/000642_2014-06-08_16-59-25_260595134347_rgbf000098-resize_2-target.png,125,2.8815,2,2426,124,feet,jsons/VE125_randls_14_rotated.json,612260,812796,33,Man
34,779298,DepthScenes,duration_manipulation_targetAtFixation,jsons/VE125_randls_14_rotated.json,http://54.235.29.9/FacialAge/BNav_EC2/DepthDuration/v2_depth_duration_MTurk/v2_DepthDuration_HTML.html#56,56,1349,625,1366,768,8-21-2022,10-10-2,35,depth_duration_stimuli/002568_2014-06-24_13-59-21_094959634447_rgbf000062-resize_4/002568_2014-06-24_13-59-21_094959634447_rgbf000062-resize_4-target.png,125,3.015,2,3569,125,feet,jsons/VE125_randls_14_rotated.json,612260,812796,33,Man
35,779298,DepthScenes,duration_manipulation_targetAtFixation,jsons/VE125_randls_14_rotated.json,http://54.235.29.9/FacialAge/BNav_EC2/DepthDuration/v2_depth_duration_MTurk/v2_DepthDuration_HTML.html#56,56,1349,625,1366,768,8-21-2022,10-10-2,36,depth_duration_stimuli/003492_2014-05-21_15-50-55_094959634447_rgbf000828-resize_1/003492_2014-05-21_15-50-55_094959634447_rgbf000828-resize_1-target.png,125,4.06875,2,2868,124,feet,jsons/VE125_randls_14_rotated.json,612260,812796,33,Man
36,779298,DepthScenes,duration_manipulation_targetAtFixation,jsons/VE125_randls_14_rotated.json,http://54.235.29.9/FacialAge/BNav_EC2/DepthDuration/v2_depth_duration_MTurk/v2_DepthDuration_HTML.html#56,56,1349,625,1366,768,8-21-2022,10-10-2,37,depth_duration_stimuli/002103_2014-06-25_20-00-40_260595134347_rgbf000049-resize_0/002103_2014-06-25_20-00-40_260595134347_rgbf000049-resize_0-target.png,125,4.105,2,2619,125,feet,jsons/VE125_randls_14_rotated.json,612260,812796,33,Man
37,779298,DepthScenes,duration_manipulation_targetAtFixation,jsons/VE125_randls_14_rotated.json,http://54.235.29.9/FacialAge/BNav_EC2/DepthDuration/v2_depth_duration_MTurk/v2_DepthDuration_HTML.html#56,56,1349,625,1366,768,8-21-2022,10-10-2,38,depth_duration_stimuli/002039_2014-06-24_20-22-38_260595134347_rgbf000084-resize_1/002039_2014-06-24_20-22-38_260595134347_rgbf000084-resize_1-target.png,125,4.408,2,8811,221,feet,jsons/VE125_randls_14_rotated.json,612260,812796,33,Man
38,779298,DepthScenes,duration_manipulation_targetAtFixation,jsons/VE125_randls_14_rotated.json,http://54.235.29.9/FacialAge/BNav_EC2/DepthDuration/v2_depth_duration_MTurk/v2_DepthDuration_HTML.html#56,56,1349,625,1366,768,8-21-2022,10-10-2,39,depth_duration_stimuli/001214_2014-06-17_16-13-55_260595134347_rgbf000111-resize_0/001214_2014-06-17_16-13-55_260595134347_rgbf000111-resize_0-target.png,125,2.6505,1,3705,124,feet,jsons/VE125_randls_14_rotated.json,612260,812796,33,Man
39,779298,DepthScenes,duration_manipulation_targetAtFixation,jsons/VE125_randls_14_rotated.json,http://54.235.29.9/FacialAge/BNav_EC2/DepthDuration/v2_depth_duration_MTurk/v2_DepthDuration_HTML.html#56,56,1349,625,1366,768,8-21-2022,10-10-2,40,depth_duration_stimuli/000810_2014-06-08_17-20-01_260595134347_rgbf000105-resize_0/000810_2014-06-08_17-20-01_260595134347_rgbf000105-resize_0-target.png,125,1.4865,0,3970,153,feet,jsons/VE125_randls_14_rotated.json,612260,812796,33,Man
40,779298,DepthScenes,duration_manipulation_targetAtFixation,jsons/VE125_randls_14_rotated.json,http://54.235.29.9/FacialAge/BNav_EC2/DepthDuration/v2_depth_duration_MTurk/v2_DepthDuration_HTML.html#56,56,1349,625,1366,768,8-21-2022,10-10-2,41,depth_duration_stimuli/000780_2014-06-08_22-28-29_260595134347_rgbf000126-resize_1/000780_2014-06-08_22-28-29_260595134347_rgbf000126-resize_1-target.png,125,3.3825,1,3430,128,feet,jsons/VE125_randls_14_rotated.json,612260,812796,33,Man
41,779298,DepthScenes,duration_manipulation_targetAtFixation,jsons/VE125_randls_14_rotated.json,http://54.235.29.9/FacialAge/BNav_EC2/DepthDuration/v2_depth_duration_MTurk/v2_DepthDuration_HTML.html#56,56,1349,625,1366,768,8-21-2022,10-10-2,42,depth_duration_stimuli/002445_2014-06-28_20-32-16_260595134347_rgbf000029-resize_4/002445_2014-06-28_20-32-16_260595134347_rgbf000029-resize_4-target.png,125,2.5315,2,2895,137,feet,jsons/VE125_randls_14_rotated.json,612260,812796,33,Man
42,779298,DepthScenes,duration_manipulation_targetAtFixation,jsons/VE125_randls_14_rotated.json,http://54.235.29.9/FacialAge/BNav_EC2/DepthDuration/v2_depth_duration_MTurk/v2_DepthDuration_HTML.html#56,56,1349,625,1366,768,8-21-2022,10-10-2,43,depth_duration_stimuli/001617_2014-06-20_11-35-32_260595134347_rgbf000066-resize_1/001617_2014-06-20_11-35-32_260595134347_rgbf000066-resize_1-target.png,125,3.7910000000000004,2,2429,125,feet,jsons/VE125_randls_14_rotated.json,612260,812796,33,Man
43,779298,DepthScenes,duration_manipulation_targetAtFixation,jsons/VE125_randls_14_rotated.json,http://54.235.29.9/FacialAge/BNav_EC2/DepthDuration/v2_depth_duration_MTurk/v2_DepthDuration_HTML.html#56,56,1349,625,1366,768,8-21-2022,10-10-2,44,depth_duration_stimuli/001806_2014-06-26_20-50-20_260595134347_rgbf000091-resize_1/001806_2014-06-26_20-50-20_260595134347_rgbf000091-resize_1-target.png,125,2.7305,2,2424,125,feet,jsons/VE125_randls_14_rotated.json,612260,812796,33,Man
44,779298,DepthScenes,duration_manipulation_targetAtFixation,jsons/VE125_randls_14_rotated.json,http://54.235.29.9/FacialAge/BNav_EC2/DepthDuration/v2_depth_duration_MTurk/v2_DepthDuration_HTML.html#56,56,1349,625,1366,768,8-21-2022,10-10-2,45,depth_duration_stimuli/003081_2014-06-15_15-19-16_094959634447_rgbf000150-resize_1/003081_2014-06-15_15-19-16_094959634447_rgbf000150-resize_1-target.png,125,3.9125,2,3528,125,feet,jsons/VE125_randls_14_rotated.json,612260,812796,33,Man
45,779298,DepthScenes,duration_manipulation_targetAtFixation,jsons/VE125_randls_14_rotated.json,http://54.235.29.9/FacialAge/BNav_EC2/DepthDuration/v2_depth_duration_MTurk/v2_DepthDuration_HTML.html#56,56,1349,625,1366,768,8-21-2022,10-10-2,46,depth_duration_stimuli/001417_2014-06-19_16-25-36_260595134347_rgbf000115-resize_5/001417_2014-06-19_16-25-36_260595134347_rgbf000115-resize_5-target.png,125,4.6255,2,2866,125,feet,jsons/VE125_randls_14_rotated.json,612260,812796,33,Man
46,779298,DepthScenes,duration_manipulation_targetAtFixation,jsons/VE125_randls_14_rotated.json,http://54.235.29.9/FacialAge/BNav_EC2/DepthDuration/v2_depth_duration_MTurk/v2_DepthDuration_HTML.html#56,56,1349,625,1366,768,8-21-2022,10-10-2,47,depth_duration_stimuli/003587_2014-05-23_16-48-02_094959634447_rgbf002384-resize_2/003587_2014-05-23_16-48-02_094959634447_rgbf002384-resize_2-target.png,125,1.357,1,3653,162,feet,jsons/VE125_randls_14_rotated.json,612260,812796,33,Man
47,779298,DepthScenes,duration_manipulation_targetAtFixation,jsons/VE125_randls_14_rotated.json,http://54.235.29.9/FacialAge/BNav_EC2/DepthDuration/v2_depth_duration_MTurk/v2_DepthDuration_HTML.html#56,56,1349,625,1366,768,8-21-2022,10-10-2,48,depth_duration_stimuli/001167_2014-06-17_15-38-07_260595134347_rgbf000108-resize_0/001167_2014-06-17_15-38-07_260595134347_rgbf000108-resize_0-target.png,125,1.8505,2,2753,123,feet,jsons/VE125_randls_14_rotated.json,612260,812796,33,Man
48,779298,DepthScenes,duration_manipulation_targetAtFixation,jsons/VE125_randls_14_rotated.json,http://54.235.29.9/FacialAge/BNav_EC2/DepthDuration/v2_depth_duration_MTurk/v2_DepthDuration_HTML.html#56,56,1349,625,1366,768,8-21-2022,10-10-2,49,depth_duration_stimuli/001170_2014-06-17_15-43-44_260595134347_rgbf000096-resize_6/001170_2014-06-17_15-43-44_260595134347_rgbf000096-resize-original.jpg,125,1.1909999999999998,0,3783,60,feet,jsons/VE125_randls_14_rotated.json,612260,812796,33,Man
49,779298,DepthScenes,duration_manipulation_targetAtFixation,jsons/VE125_randls_14_rotated.json,http://54.235.29.9/FacialAge/BNav_EC2/DepthDuration/v2_depth_duration_MTurk/v2_DepthDuration_HTML.html#56,56,1349,625,1366,768,8-21-2022,10-10-2,50,depth_duration_stimuli/001650_2014-06-20_12-09-00_260595134347_rgbf000087-resize_3/001650_2014-06-20_12-09-00_260595134347_rgbf000087-resize_3-target.png,125,1.9505,2,2793,124,feet,jsons/VE125_randls_14_rotated.json,612260,812796,33,Man
50,779298,DepthScenes,duration_manipulation_targetAtFixation,jsons/VE125_randls_14_rotated.json,http://54.235.29.9/FacialAge/BNav_EC2/DepthDuration/v2_depth_duration_MTurk/v2_DepthDuration_HTML.html#56,56,1349,625,1366,768,8-21-2022,10-10-2,51,depth_duration_stimuli/000682_2014-06-08_23-14-58_260595134347_rgbf000041-resize_5/000682_2014-06-08_23-14-58_260595134347_rgbf000041-resize_5-target.png,125,2.7239999999999998,2,2519,289,feet,jsons/VE125_randls_14_rotated.json,612260,812796,33,Man
51,779298,DepthScenes,duration_manipulation_targetAtFixation,jsons/VE125_randls_14_rotated.json,http://54.235.29.9/FacialAge/BNav_EC2/DepthDuration/v2_depth_duration_MTurk/v2_DepthDuration_HTML.html#56,56,1349,625,1366,768,8-21-2022,10-10-2,52,depth_duration_stimuli/002949_2014-06-26_15-57-42_094959634447_rgbf000079-resize_1/002949_2014-06-26_15-57-42_094959634447_rgbf000079-resize_1-target.png,125,1.8915,2,2332,128,feet,jsons/VE125_randls_14_rotated.json,612260,812796,33,Man
52,779298,DepthScenes,duration_manipulation_targetAtFixation,jsons/VE125_randls_14_rotated.json,http://54.235.29.9/FacialAge/BNav_EC2/DepthDuration/v2_depth_duration_MTurk/v2_DepthDuration_HTML.html#56,56,1349,625,1366,768,8-21-2022,10-10-2,53,depth_duration_stimuli/000522_2014-06-08_13-35-06_260595134347_rgbf000244-resize_1/000522_2014-06-08_13-35-06_260595134347_rgbf000244-resize_1-target.png,125,2.3715,2,2575,127,feet,jsons/VE125_randls_14_rotated.json,612260,812796,33,Man
53,779298,DepthScenes,duration_manipulation_targetAtFixation,jsons/VE125_randls_14_rotated.json,http://54.235.29.9/FacialAge/BNav_EC2/DepthDuration/v2_depth_duration_MTurk/v2_DepthDuration_HTML.html#56,56,1349,625,1366,768,8-21-2022,10-10-2,54,depth_duration_stimuli/000866_2014-06-09_20-45-42_260595134347_rgbf000139-resize_1/000866_2014-06-09_20-45-42_260595134347_rgbf000139-resize_1-target.png,125,3.2155,2,2326,125,feet,jsons/VE125_randls_14_rotated.json,612260,812796,33,Man
54,779298,DepthScenes,duration_manipulation_targetAtFixation,jsons/VE125_randls_14_rotated.json,http://54.235.29.9/FacialAge/BNav_EC2/DepthDuration/v2_depth_duration_MTurk/v2_DepthDuration_HTML.html#56,56,1349,625,1366,768,8-21-2022,10-10-2,55,depth_duration_stimuli/002989_2014-06-15_12-25-03_094959634447_rgbf000150-resize_3/002989_2014-06-15_12-25-03_094959634447_rgbf000150-resize_3-target.png,125,4.1975,2,2478,125,feet,jsons/VE125_randls_14_rotated.json,612260,812796,33,Man
55,779298,DepthScenes,duration_manipulation_targetAtFixation,jsons/VE125_randls_14_rotated.json,http://54.235.29.9/FacialAge/BNav_EC2/DepthDuration/v2_depth_duration_MTurk/v2_DepthDuration_HTML.html#56,56,1349,625,1366,768,8-21-2022,10-10-2,56,depth_duration_stimuli/002657_2014-06-13_15-29-54_094959634447_rgbf000150-resize_1/002657_2014-06-13_15-29-54_094959634447_rgbf000150-resize_1-target.png,125,4.919,2,2350,124,feet,jsons/VE125_randls_14_rotated.json,612260,812796,33,Man
56,779298,DepthScenes,duration_manipulation_targetAtFixation,jsons/VE125_randls_14_rotated.json,http://54.235.29.9/FacialAge/BNav_EC2/DepthDuration/v2_depth_duration_MTurk/v2_DepthDuration_HTML.html#56,56,1349,625,1366,768,8-21-2022,10-10-2,57,depth_duration_stimuli/002375_2014-06-28_20-13-44_260595134347_rgbf000032-resize_1/002375_2014-06-28_20-13-44_260595134347_rgbf000032-resize_1-target.png,125,4.0175,2,3836,123,feet,jsons/VE125_randls_14_rotated.json,612260,812796,33,Man
57,779298,DepthScenes,duration_manipulation_targetAtFixation,jsons/VE125_randls_14_rotated.json,http://54.235.29.9/FacialAge/BNav_EC2/DepthDuration/v2_depth_duration_MTurk/v2_DepthDuration_HTML.html#56,56,1349,625,1366,768,8-21-2022,10-10-2,58,depth_duration_stimuli/002323_2014-06-28_20-01-54_260595134347_rgbf000051-resize_4/002323_2014-06-28_20-01-54_260595134347_rgbf000051-resize_4-target.png,125,3.7310000000000003,2,3508,125,feet,jsons/VE125_randls_14_rotated.json,612260,812796,33,Man
58,779298,DepthScenes,duration_manipulation_targetAtFixation,jsons/VE125_randls_14_rotated.json,http://54.235.29.9/FacialAge/BNav_EC2/DepthDuration/v2_depth_duration_MTurk/v2_DepthDuration_HTML.html#56,56,1349,625,1366,768,8-21-2022,10-10-2,59,depth_duration_stimuli/000917_2014-06-09_22-45-29_260595134347_rgbf000149-resize_3/000917_2014-06-09_22-45-29_260595134347_rgbf000149-resize_3-target.png,125,4.1865,2,2766,277,feet,jsons/VE125_randls_14_rotated.json,612260,812796,33,Man
59,779298,DepthScenes,duration_manipulation_targetAtFixation,jsons/VE125_randls_14_rotated.json,http://54.235.29.9/FacialAge/BNav_EC2/DepthDuration/v2_depth_duration_MTurk/v2_DepthDuration_HTML.html#56,56,1349,625,1366,768,8-21-2022,10-10-2,60,depth_duration_stimuli/000854_2014-06-09_19-43-13_260595134347_rgbf000066-resize_0/000854_2014-06-09_19-43-13_260595134347_rgbf000066-resize_0-target.png,125,3.068,2,2299,124,feet,jsons/VE125_randls_14_rotated.json,612260,812796,33,Man
60,779298,DepthScenes,duration_manipulation_targetAtFixation,jsons/VE125_randls_14_rotated.json,http://54.235.29.9/FacialAge/BNav_EC2/DepthDuration/v2_depth_duration_MTurk/v2_DepthDuration_HTML.html#56,56,1349,625,1366,768,8-21-2022,10-10-2,61,depth_duration_stimuli/000758_2014-06-08_22-05-08_260595134347_rgbf000085-resize_0/000758_2014-06-08_22-05-08_260595134347_rgbf000085-resize_0-target.png,125,3.3810000000000002,2,2627,124,feet,jsons/VE125_randls_14_rotated.json,612260,812796,33,Man
61,779298,DepthScenes,duration_manipulation_targetAtFixation,jsons/VE125_randls_14_rotated.json,http://54.235.29.9/FacialAge/BNav_EC2/DepthDuration/v2_depth_duration_MTurk/v2_DepthDuration_HTML.html#56,56,1349,625,1366,768,8-21-2022,10-10-2,62,depth_duration_stimuli/000665_2014-06-09_20-42-35_260595134347_rgbf000110-resize_1/000665_2014-06-09_20-42-35_260595134347_rgbf000110-resize_1-target.png,125,3.057,2,3191,125,feet,jsons/VE125_randls_14_rotated.json,612260,812796,33,Man
62,779298,DepthScenes,duration_manipulation_targetAtFixation,jsons/VE125_randls_14_rotated.json,http://54.235.29.9/FacialAge/BNav_EC2/DepthDuration/v2_depth_duration_MTurk/v2_DepthDuration_HTML.html#56,56,1349,625,1366,768,8-21-2022,10-10-2,63,depth_duration_stimuli/001150_2014-06-17_15-27-34_260595134347_rgbf000108-resize_2/001150_2014-06-17_15-27-34_260595134347_rgbf000108-resize_2-target.png,125,4.0325,2,2282,125,feet,jsons/VE125_randls_14_rotated.json,612260,812796,33,Man
63,779298,DepthScenes,duration_manipulation_targetAtFixation,jsons/VE125_randls_14_rotated.json,http://54.235.29.9/FacialAge/BNav_EC2/DepthDuration/v2_depth_duration_MTurk/v2_DepthDuration_HTML.html#56,56,1349,625,1366,768,8-21-2022,10-10-2,64,depth_duration_stimuli/000137_2014-05-20_17-04-49_260595134347_rgbf000120-resize_1/000137_2014-05-20_17-04-49_260595134347_rgbf000120-resize_1-target.png,125,3.786,2,3060,123,feet,jsons/VE125_randls_14_rotated.json,612260,812796,33,Man
64,779298,DepthScenes,duration_manipulation_targetAtFixation,jsons/VE125_randls_14_rotated.json,http://54.235.29.9/FacialAge/BNav_EC2/DepthDuration/v2_depth_duration_MTurk/v2_DepthDuration_HTML.html#56,56,1349,625,1366,768,8-21-2022,10-10-2,65,depth_duration_stimuli/000736_2014-06-08_18-24-15_260595134347_rgbf000206-resize_3/000736_2014-06-08_18-24-15_260595134347_rgbf000206-resize_3-target.png,125,3.515,2,2803,125,feet,jsons/VE125_randls_14_rotated.json,612260,812796,33,Man
65,779298,DepthScenes,duration_manipulation_targetAtFixation,jsons/VE125_randls_14_rotated.json,http://54.235.29.9/FacialAge/BNav_EC2/DepthDuration/v2_depth_duration_MTurk/v2_DepthDuration_HTML.html#56,56,1349,625,1366,768,8-21-2022,10-10-2,66,depth_duration_stimuli/001540_2014-06-20_17-01-05_260595134347_rgbf000086-resize_2/001540_2014-06-20_17-01-05_260595134347_rgbf000086-resize-original.jpg,125,1.459,2,4079,123,feet,jsons/VE125_randls_14_rotated.json,612260,812796,33,Man
66,779298,DepthScenes,duration_manipulation_targetAtFixation,jsons/VE125_randls_14_rotated.json,http://54.235.29.9/FacialAge/BNav_EC2/DepthDuration/v2_depth_duration_MTurk/v2_DepthDuration_HTML.html#56,56,1349,625,1366,768,8-21-2022,10-10-2,67,depth_duration_stimuli/002637_2014-06-24_14-51-13_094959634447_rgbf000066-resize_4/002637_2014-06-24_14-51-13_094959634447_rgbf000066-resize_4-target.png,125,1.9955,2,2826,125,feet,jsons/VE125_randls_14_rotated.json,612260,812796,33,Man
67,779298,DepthScenes,duration_manipulation_targetAtFixation,jsons/VE125_randls_14_rotated.json,http://54.235.29.9/FacialAge/BNav_EC2/DepthDuration/v2_depth_duration_MTurk/v2_DepthDuration_HTML.html#56,56,1349,625,1366,768,8-21-2022,10-10-2,68,depth_duration_stimuli/003534_2014-05-22_15-06-10_094959634447_rgbf000102-resize_4/003534_2014-05-22_15-06-10_094959634447_rgbf000102-resize_4-target.png,125,1.426,2,2878,125,feet,jsons/VE125_randls_14_rotated.json,612260,812796,33,Man
68,779298,DepthScenes,duration_manipulation_targetAtFixation,jsons/VE125_randls_14_rotated.json,http://54.235.29.9/FacialAge/BNav_EC2/DepthDuration/v2_depth_duration_MTurk/v2_DepthDuration_HTML.html#56,56,1349,625,1366,768,8-21-2022,10-10-2,69,depth_duration_stimuli/001052_2014-06-08_18-24-54_260595134347_rgbf000130-resize_1/001052_2014-06-08_18-24-54_260595134347_rgbf000130-resize_1-target.png,125,4.1045,2,4019,123,feet,jsons/VE125_randls_14_rotated.json,612260,812796,33,Man
69,779298,DepthScenes,duration_manipulation_targetAtFixation,jsons/VE125_randls_14_rotated.json,http://54.235.29.9/FacialAge/BNav_EC2/DepthDuration/v2_depth_duration_MTurk/v2_DepthDuration_HTML.html#56,56,1349,625,1366,768,8-21-2022,10-10-2,70,depth_duration_stimuli/002988_2014-06-15_12-24-20_094959634447_rgbf000150-resize_1/002988_2014-06-15_12-24-20_094959634447_rgbf000150-resize_1-target.png,125,4.7669999999999995,2,5360,132,feet,jsons/VE125_randls_14_rotated.json,612260,812796,33,Man
70,779298,DepthScenes,duration_manipulation_targetAtFixation,jsons/VE125_randls_14_rotated.json,http://54.235.29.9/FacialAge/BNav_EC2/DepthDuration/v2_depth_duration_MTurk/v2_DepthDuration_HTML.html#56,56,1349,625,1366,768,8-21-2022,10-10-2,71,depth_duration_stimuli/000677_2014-06-08_23-10-32_260595134347_rgbf000158-resize_6/000677_2014-06-08_23-10-32_260595134347_rgbf000158-resize_6-target.png,125,3.556,2,5128,276,feet,jsons/VE125_randls_14_rotated.json,612260,812796,33,Man
71,779298,DepthScenes,duration_manipulation_targetAtFixation,jsons/VE125_randls_14_rotated.json,http://54.235.29.9/FacialAge/BNav_EC2/DepthDuration/v2_depth_duration_MTurk/v2_DepthDuration_HTML.html#56,56,1349,625,1366,768,8-21-2022,10-10-2,72,depth_duration_stimuli/001029_2014-06-08_13-17-57_260595134347_rgbf000065-resize_1/001029_2014-06-08_13-17-57_260595134347_rgbf000065-resize_1-target.png,125,3.0835,2,3244,125,feet,jsons/VE125_randls_14_rotated.json,612260,812796,33,Man
72,779298,DepthScenes,duration_manipulation_targetAtFixation,jsons/VE125_randls_14_rotated.json,http://54.235.29.9/FacialAge/BNav_EC2/DepthDuration/v2_depth_duration_MTurk/v2_DepthDuration_HTML.html#56,56,1349,625,1366,768,8-21-2022,10-10-2,73,depth_duration_stimuli/000457_2014-06-08_16-52-43_260595134347_rgbf000199-resize_1/000457_2014-06-08_16-52-43_260595134347_rgbf000199-resize_1-target.png,125,3.6489999999999996,2,2955,126,feet,jsons/VE125_randls_14_rotated.json,612260,812796,33,Man
73,779298,DepthScenes,duration_manipulation_targetAtFixation,jsons/VE125_randls_14_rotated.json,http://54.235.29.9/FacialAge/BNav_EC2/DepthDuration/v2_depth_duration_MTurk/v2_DepthDuration_HTML.html#56,56,1349,625,1366,768,8-21-2022,10-10-2,74,depth_duration_stimuli/000929_2014-06-09_16-33-19_260595134347_rgbf000139-resize_0/000929_2014-06-09_16-33-19_260595134347_rgbf000139-resize_0-target.png,125,2.8680000000000003,2,2276,125,feet,jsons/VE125_randls_14_rotated.json,612260,812796,33,Man
74,779298,DepthScenes,duration_manipulation_targetAtFixation,jsons/VE125_randls_14_rotated.json,http://54.235.29.9/FacialAge/BNav_EC2/DepthDuration/v2_depth_duration_MTurk/v2_DepthDuration_HTML.html#56,56,1349,625,1366,768,8-21-2022,10-10-2,75,depth_duration_stimuli/002678_2014-06-13_16-15-32_094959634447_rgbf000151-resize_6/002678_2014-06-13_16-15-32_094959634447_rgbf000151-resize_6-target.png,125,2.1830000000000003,4,3147,125,feet,jsons/VE125_randls_14_rotated.json,612260,812796,33,Man
75,779298,DepthScenes,duration_manipulation_targetAtFixation,jsons/VE125_randls_14_rotated.json,http://54.235.29.9/FacialAge/BNav_EC2/DepthDuration/v2_depth_duration_MTurk/v2_DepthDuration_HTML.html#56,56,1349,625,1366,768,8-21-2022,10-10-2,76,depth_duration_stimuli/000368_2014-06-09_15-53-01_260595134347_rgbf000155-resize_2/000368_2014-06-09_15-53-01_260595134347_rgbf000155-resize_2-target.png,125,2.4859999999999998,2,2520,125,feet,jsons/VE125_randls_14_rotated.json,612260,812796,33,Man
76,779298,DepthScenes,duration_manipulation_targetAtFixation,jsons/VE125_randls_14_rotated.json,http://54.235.29.9/FacialAge/BNav_EC2/DepthDuration/v2_depth_duration_MTurk/v2_DepthDuration_HTML.html#56,56,1349,625,1366,768,8-21-2022,10-10-2,77,depth_duration_stimuli/000556_2014-06-09_22-42-56_260595134347_rgbf000214-resize_1/000556_2014-06-09_22-42-56_260595134347_rgbf000214-resize_1-target.png,125,4.8415,1,3142,118,feet,jsons/VE125_randls_14_rotated.json,612260,812796,33,Man
77,779298,DepthScenes,duration_manipulation_targetAtFixation,jsons/VE125_randls_14_rotated.json,http://54.235.29.9/FacialAge/BNav_EC2/DepthDuration/v2_depth_duration_MTurk/v2_DepthDuration_HTML.html#56,56,1349,625,1366,768,8-21-2022,10-10-2,78,depth_duration_stimuli/001158_2014-06-17_15-32-16_260595134347_rgbf000138-resize_2/001158_2014-06-17_15-32-16_260595134347_rgbf000138-resize_2-target.png,125,4.5315,2,2425,142,feet,jsons/VE125_randls_14_rotated.json,612260,812796,33,Man
78,779298,DepthScenes,duration_manipulation_targetAtFixation,jsons/VE125_randls_14_rotated.json,http://54.235.29.9/FacialAge/BNav_EC2/DepthDuration/v2_depth_duration_MTurk/v2_DepthDuration_HTML.html#56,56,1349,625,1366,768,8-21-2022,10-10-2,79,depth_duration_stimuli/001136_2014-06-17_15-19-41_260595134347_rgbf000076-resize_3/001136_2014-06-17_15-19-41_260595134347_rgbf000076-resize_3-target.png,125,1.8655,2,2932,131,feet,jsons/VE125_randls_14_rotated.json,612260,812796,33,Man
79,779298,DepthScenes,duration_manipulation_targetAtFixation,jsons/VE125_randls_14_rotated.json,http://54.235.29.9/FacialAge/BNav_EC2/DepthDuration/v2_depth_duration_MTurk/v2_DepthDuration_HTML.html#56,56,1349,625,1366,768,8-21-2022,10-10-2,80,depth_duration_stimuli/001164_2014-06-17_15-35-46_260595134347_rgbf000085-resize_3/001164_2014-06-17_15-35-46_260595134347_rgbf000085-resize_3-target.png,125,2.354,2,2128,125,feet,jsons/VE125_randls_14_rotated.json,612260,812796,33,Man
80,779298,DepthScenes,duration_manipulation_targetAtFixation,jsons/VE125_randls_14_rotated.json,http://54.235.29.9/FacialAge/BNav_EC2/DepthDuration/v2_depth_duration_MTurk/v2_DepthDuration_HTML.html#56,56,1349,625,1366,768,8-21-2022,10-10-2,81,depth_duration_stimuli/003129_2014-05-12_10-48-10_094959634447_rgbf000100-resize_0/003129_2014-05-12_10-48-10_094959634447_rgbf000100-resize_0-target.png,125,4.9305,2,2229,127,feet,jsons/VE125_randls_14_rotated.json,612260,812796,33,Man
81,779298,DepthScenes,duration_manipulation_targetAtFixation,jsons/VE125_randls_14_rotated.json,http://54.235.29.9/FacialAge/BNav_EC2/DepthDuration/v2_depth_duration_MTurk/v2_DepthDuration_HTML.html#56,56,1349,625,1366,768,8-21-2022,10-10-2,82,depth_duration_stimuli/000414_2014-06-04_19-49-13_260595134347_rgbf000044-resize_0/000414_2014-06-04_19-49-13_260595134347_rgbf000044-resize_0-target.png,125,4.329,2,2241,125,feet,jsons/VE125_randls_14_rotated.json,612260,812796,33,Man
82,779298,DepthScenes,duration_manipulation_targetAtFixation,jsons/VE125_randls_14_rotated.json,http://54.235.29.9/FacialAge/BNav_EC2/DepthDuration/v2_depth_duration_MTurk/v2_DepthDuration_HTML.html#56,56,1349,625,1366,768,8-21-2022,10-10-2,83,depth_duration_stimuli/000943_2014-06-09_19-31-07_260595134347_rgbf000128-resize_1/000943_2014-06-09_19-31-07_260595134347_rgbf000128-resize_1-target.png,125,1.9765,2,2450,124,feet,jsons/VE125_randls_14_rotated.json,612260,812796,33,Man
83,779298,DepthScenes,duration_manipulation_targetAtFixation,jsons/VE125_randls_14_rotated.json,http://54.235.29.9/FacialAge/BNav_EC2/DepthDuration/v2_depth_duration_MTurk/v2_DepthDuration_HTML.html#56,56,1349,625,1366,768,8-21-2022,10-10-2,84,depth_duration_stimuli/003070_2014-06-15_14-58-27_094959634447_rgbf000150-resize_3/003070_2014-06-15_14-58-27_094959634447_rgbf000150-resize_3-target.png,125,2.9415,2,2552,130,feet,jsons/VE125_randls_14_rotated.json,612260,812796,33,Man
84,779298,DepthScenes,duration_manipulation_targetAtFixation,jsons/VE125_randls_14_rotated.json,http://54.235.29.9/FacialAge/BNav_EC2/DepthDuration/v2_depth_duration_MTurk/v2_DepthDuration_HTML.html#56,56,1349,625,1366,768,8-21-2022,10-10-2,85,depth_duration_stimuli/003079_2014-06-15_15-18-20_094959634447_rgbf000152-resize_8/003079_2014-06-15_15-18-20_094959634447_rgbf000152-resize_8-target.png,125,2.8775,4,3239,123,feet,jsons/VE125_randls_14_rotated.json,612260,812796,33,Man
85,779298,DepthScenes,duration_manipulation_targetAtFixation,jsons/VE125_randls_14_rotated.json,http://54.235.29.9/FacialAge/BNav_EC2/DepthDuration/v2_depth_duration_MTurk/v2_DepthDuration_HTML.html#56,56,1349,625,1366,768,8-21-2022,10-10-2,86,depth_duration_stimuli/000506_2014-06-08_23-21-00_260595134347_rgbf000070-resize_7/000506_2014-06-08_23-21-00_260595134347_rgbf000070-resize_7-target.png,125,4.0585,2,2451,135,feet,jsons/VE125_randls_14_rotated.json,612260,812796,33,Man
86,779298,DepthScenes,duration_manipulation_targetAtFixation,jsons/VE125_randls_14_rotated.json,http://54.235.29.9/FacialAge/BNav_EC2/DepthDuration/v2_depth_duration_MTurk/v2_DepthDuration_HTML.html#56,56,1349,625,1366,768,8-21-2022,10-10-2,87,depth_duration_stimuli/001392_2014-06-19_16-07-59_260595134347_rgbf000046-resize_1/001392_2014-06-19_16-07-59_260595134347_rgbf000046-resize_1-target.png,125,4.135,2,2918,125,feet,jsons/VE125_randls_14_rotated.json,612260,812796,33,Man
87,779298,DepthScenes,duration_manipulation_targetAtFixation,jsons/VE125_randls_14_rotated.json,http://54.235.29.9/FacialAge/BNav_EC2/DepthDuration/v2_depth_duration_MTurk/v2_DepthDuration_HTML.html#56,56,1349,625,1366,768,8-21-2022,10-10-2,88,depth_duration_stimuli/001570_2014-06-20_17-21-09_260595134347_rgbf000135-resize_4/001570_2014-06-20_17-21-09_260595134347_rgbf000135-resize_4-target.png,125,4.467,2,2408,125,feet,jsons/VE125_randls_14_rotated.json,612260,812796,33,Man
88,779298,DepthScenes,duration_manipulation_targetAtFixation,jsons/VE125_randls_14_rotated.json,http://54.235.29.9/FacialAge/BNav_EC2/DepthDuration/v2_depth_duration_MTurk/v2_DepthDuration_HTML.html#56,56,1349,625,1366,768,8-21-2022,10-10-2,89,depth_duration_stimuli/002639_2014-06-24_14-51-37_094959634447_rgbf000074-resize_4/002639_2014-06-24_14-51-37_094959634447_rgbf000074-resize_4-target.png,125,4.0375,2,2878,123,feet,jsons/VE125_randls_14_rotated.json,612260,812796,33,Man
89,779298,DepthScenes,duration_manipulation_targetAtFixation,jsons/VE125_randls_14_rotated.json,http://54.235.29.9/FacialAge/BNav_EC2/DepthDuration/v2_depth_duration_MTurk/v2_DepthDuration_HTML.html#56,56,1349,625,1366,768,8-21-2022,10-10-2,90,depth_duration_stimuli/003292_2014-05-14_21-53-49_094959634447_rgbf000100-resize_2/003292_2014-05-14_21-53-49_094959634447_rgbf000100-resize_2-target.png,125,3.4815,2,2291,125,feet,jsons/VE125_randls_14_rotated.json,612260,812796,33,Man
90,779298,DepthScenes,duration_manipulation_targetAtFixation,jsons/VE125_randls_14_rotated.json,http://54.235.29.9/FacialAge/BNav_EC2/DepthDuration/v2_depth_duration_MTurk/v2_DepthDuration_HTML.html#56,56,1349,625,1366,768,8-21-2022,10-10-2,91,depth_duration_stimuli/000749_2014-06-08_21-55-06_260595134347_rgbf000070-resize_2/000749_2014-06-08_21-55-06_260595134347_rgbf000070-resize_2-target.png,125,2.331,2,2385,128,feet,jsons/VE125_randls_14_rotated.json,612260,812796,33,Man
91,779298,DepthScenes,duration_manipulation_targetAtFixation,jsons/VE125_randls_14_rotated.json,http://54.235.29.9/FacialAge/BNav_EC2/DepthDuration/v2_depth_duration_MTurk/v2_DepthDuration_HTML.html#56,56,1349,625,1366,768,8-21-2022,10-10-2,92,depth_duration_stimuli/002788_2014-06-22_19-36-03_094959634447_rgbf000088-resize_2/002788_2014-06-22_19-36-03_094959634447_rgbf000088-resize_2-target.png,125,1.6465,2,4859,125,feet,jsons/VE125_randls_14_rotated.json,612260,812796,33,Man
92,779298,DepthScenes,duration_manipulation_targetAtFixation,jsons/VE125_randls_14_rotated.json,http://54.235.29.9/FacialAge/BNav_EC2/DepthDuration/v2_depth_duration_MTurk/v2_DepthDuration_HTML.html#56,56,1349,625,1366,768,8-21-2022,10-10-2,93,depth_duration_stimuli/001094_2014-06-15_17-36-00_260595134347_rgbf000205-resize_0/001094_2014-06-15_17-36-00_260595134347_rgbf000205-resize_0-target.png,125,4.2175,2,2808,125,feet,jsons/VE125_randls_14_rotated.json,612260,812796,33,Man
93,779298,DepthScenes,duration_manipulation_targetAtFixation,jsons/VE125_randls_14_rotated.json,http://54.235.29.9/FacialAge/BNav_EC2/DepthDuration/v2_depth_duration_MTurk/v2_DepthDuration_HTML.html#56,56,1349,625,1366,768,8-21-2022,10-10-2,94,depth_duration_stimuli/000692_2014-06-08_13-09-42_260595134347_rgbf000199-resize_2/000692_2014-06-08_13-09-42_260595134347_rgbf000199-resize_2-target.png,125,3.661,2,2453,130,feet,jsons/VE125_randls_14_rotated.json,612260,812796,33,Man
94,779298,DepthScenes,duration_manipulation_targetAtFixation,jsons/VE125_randls_14_rotated.json,http://54.235.29.9/FacialAge/BNav_EC2/DepthDuration/v2_depth_duration_MTurk/v2_DepthDuration_HTML.html#56,56,1349,625,1366,768,8-21-2022,10-10-2,95,depth_duration_stimuli/002199_2014-06-28_18-33-56_260595134347_rgbf000074-resize_0/002199_2014-06-28_18-33-56_260595134347_rgbf000074-resize_0-target.png,125,1.996,2,2476,124,feet,jsons/VE125_randls_14_rotated.json,612260,812796,33,Man
95,779298,DepthScenes,duration_manipulation_targetAtFixation,jsons/VE125_randls_14_rotated.json,http://54.235.29.9/FacialAge/BNav_EC2/DepthDuration/v2_depth_duration_MTurk/v2_DepthDuration_HTML.html#56,56,1349,625,1366,768,8-21-2022,10-10-2,96,depth_duration_stimuli/001056_2014-06-08_18-46-44_260595134347_rgbf000068-resize_0/001056_2014-06-08_18-46-44_260595134347_rgbf000068-resize_0-target.png,125,2.6625,2,2220,132,feet,jsons/VE125_randls_14_rotated.json,612260,812796,33,Man
96,779298,DepthScenes,duration_manipulation_targetAtFixation,jsons/VE125_randls_14_rotated.json,http://54.235.29.9/FacialAge/BNav_EC2/DepthDuration/v2_depth_duration_MTurk/v2_DepthDuration_HTML.html#56,56,1349,625,1366,768,8-21-2022,10-10-2,97,depth_duration_stimuli/003338_2014-05-20_11-01-23_094959634447_rgbf000051-resize_6/003338_2014-05-20_11-01-23_094959634447_rgbf000051-resize_6-target.png,125,1.693,2,2371,125,feet,jsons/VE125_randls_14_rotated.json,612260,812796,33,Man
97,779298,DepthScenes,duration_manipulation_targetAtFixation,jsons/VE125_randls_14_rotated.json,http://54.235.29.9/FacialAge/BNav_EC2/DepthDuration/v2_depth_duration_MTurk/v2_DepthDuration_HTML.html#56,56,1349,625,1366,768,8-21-2022,10-10-2,98,depth_duration_stimuli/002509_2014-06-24_13-19-22_094959634447_rgbf000077-resize_0/002509_2014-06-24_13-19-22_094959634447_rgbf000077-resize_0-target.png,125,1.3065,2,2150,109,feet,jsons/VE125_randls_14_rotated.json,612260,812796,33,Man
98,779298,DepthScenes,duration_manipulation_targetAtFixation,jsons/VE125_randls_14_rotated.json,http://54.235.29.9/FacialAge/BNav_EC2/DepthDuration/v2_depth_duration_MTurk/v2_DepthDuration_HTML.html#56,56,1349,625,1366,768,8-21-2022,10-10-2,99,depth_duration_stimuli/001222_2014-06-17_16-24-06_260595134347_rgbf000073-resize_0/001222_2014-06-17_16-24-06_260595134347_rgbf000073-resize-original.jpg,125,1.4385,2,2378,124,feet,jsons/VE125_randls_14_rotated.json,612260,812796,33,Man
99,779298,DepthScenes,duration_manipulation_targetAtFixation,jsons/VE125_randls_14_rotated.json,http://54.235.29.9/FacialAge/BNav_EC2/DepthDuration/v2_depth_duration_MTurk/v2_DepthDuration_HTML.html#56,56,1349,625,1366,768,8-21-2022,10-10-2,100,depth_duration_stimuli/000109_2014-05-14_23-41-52_260595134347_rgbf000035-resize_9/000109_2014-05-14_23-41-52_260595134347_rgbf000035-resize_9-target.png,125,1.3545,2,2470,125,feet,jsons/VE125_randls_14_rotated.json,612260,812796,33,Man
100,779298,DepthScenes,duration_manipulation_targetAtFixation,jsons/VE125_randls_14_rotated.json,http://54.235.29.9/FacialAge/BNav_EC2/DepthDuration/v2_depth_duration_MTurk/v2_DepthDuration_HTML.html#56,56,1349,625,1366,768,8-21-2022,10-10-2,101,depth_duration_stimuli/000470_2014-06-09_19-42-40_260595134347_rgbf000094-resize_1/000470_2014-06-09_19-42-40_260595134347_rgbf000094-resize_1-target.png,125,1.831,2,2754,222,feet,jsons/VE125_randls_14_rotated.json,612260,812796,33,Man
101,779298,DepthScenes,duration_manipulation_targetAtFixation,jsons/VE125_randls_14_rotated.json,http://54.235.29.9/FacialAge/BNav_EC2/DepthDuration/v2_depth_duration_MTurk/v2_DepthDuration_HTML.html#56,56,1349,625,1366,768,8-21-2022,10-10-2,102,depth_duration_stimuli/002805_2014-06-22_19-54-03_094959634447_rgbf000079-resize_1/002805_2014-06-22_19-54-03_094959634447_rgbf000079-resize_1-target.png,125,3.1439999999999997,2,2637,140,feet,jsons/VE125_randls_14_rotated.json,612260,812796,33,Man
102,779298,DepthScenes,duration_manipulation_targetAtFixation,jsons/VE125_randls_14_rotated.json,http://54.235.29.9/FacialAge/BNav_EC2/DepthDuration/v2_depth_duration_MTurk/v2_DepthDuration_HTML.html#56,56,1349,625,1366,768,8-21-2022,10-10-2,103,depth_duration_stimuli/000906_2014-06-08_13-35-43_260595134347_rgbf000155-resize_1/000906_2014-06-08_13-35-43_260595134347_rgbf000155-resize_1-target.png,125,2.8489999999999998,2,2458,125,feet,jsons/VE125_randls_14_rotated.json,612260,812796,33,Man
103,779298,DepthScenes,duration_manipulation_targetAtFixation,jsons/VE125_randls_14_rotated.json,http://54.235.29.9/FacialAge/BNav_EC2/DepthDuration/v2_depth_duration_MTurk/v2_DepthDuration_HTML.html#56,56,1349,625,1366,768,8-21-2022,10-10-2,104,depth_duration_stimuli/000709_2014-06-08_13-51-55_260595134347_rgbf000068-resize_3/000709_2014-06-08_13-51-55_260595134347_rgbf000068-resize_3-target.png,125,1.8030000000000002,2,2152,144,feet,jsons/VE125_randls_14_rotated.json,612260,812796,33,Man
104,779298,DepthScenes,duration_manipulation_targetAtFixation,jsons/VE125_randls_14_rotated.json,http://54.235.29.9/FacialAge/BNav_EC2/DepthDuration/v2_depth_duration_MTurk/v2_DepthDuration_HTML.html#56,56,1349,625,1366,768,8-21-2022,10-10-2,105,depth_duration_stimuli/002057_2014-06-24_21-00-13_260595134347_rgbf000120-resize_1/002057_2014-06-24_21-00-13_260595134347_rgbf000120-resize_1-target.png,125,2.967,2,2474,124,feet,jsons/VE125_randls_14_rotated.json,612260,812796,33,Man
105,779298,DepthScenes,duration_manipulation_targetAtFixation,jsons/VE125_randls_14_rotated.json,http://54.235.29.9/FacialAge/BNav_EC2/DepthDuration/v2_depth_duration_MTurk/v2_DepthDuration_HTML.html#56,56,1349,625,1366,768,8-21-2022,10-10-2,106,depth_duration_stimuli/003228_2014-05-14_13-42-35_094959634447_rgbf000101-resize_1/003228_2014-05-14_13-42-35_094959634447_rgbf000101-resize_1-target.png,125,1.9680000000000002,2,2569,126,feet,jsons/VE125_randls_14_rotated.json,612260,812796,33,Man
106,779298,DepthScenes,duration_manipulation_targetAtFixation,jsons/VE125_randls_14_rotated.json,http://54.235.29.9/FacialAge/BNav_EC2/DepthDuration/v2_depth_duration_MTurk/v2_DepthDuration_HTML.html#56,56,1349,625,1366,768,8-21-2022,10-10-2,107,depth_duration_stimuli/002600_2014-06-24_14-27-04_094959634447_rgbf000074-resize_2/002600_2014-06-24_14-27-04_094959634447_rgbf000074-resize_2-target.png,125,2.7575,2,2326,126,feet,jsons/VE125_randls_14_rotated.json,612260,812796,33,Man
107,779298,DepthScenes,duration_manipulation_targetAtFixation,jsons/VE125_randls_14_rotated.json,http://54.235.29.9/FacialAge/BNav_EC2/DepthDuration/v2_depth_duration_MTurk/v2_DepthDuration_HTML.html#56,56,1349,625,1366,768,8-21-2022,10-10-2,108,depth_duration_stimuli/003423_2014-05-21_10-23-26_094959634447_rgbf002665-resize_2/003423_2014-05-21_10-23-26_094959634447_rgbf002665-resize_2-target.png,125,3.2575,2,3550,126,feet,jsons/VE125_randls_14_rotated.json,612260,812796,33,Man
108,779298,DepthScenes,duration_manipulation_targetAtFixation,jsons/VE125_randls_14_rotated.json,http://54.235.29.9/FacialAge/BNav_EC2/DepthDuration/v2_depth_duration_MTurk/v2_DepthDuration_HTML.html#56,56,1349,625,1366,768,8-21-2022,10-10-2,109,depth_duration_stimuli/002905_2014-06-03_18-04-43_094959634447_rgbf000151-resize_2/002905_2014-06-03_18-04-43_094959634447_rgbf000151-resize_2-target.png,125,2.0295,2,2038,126,feet,jsons/VE125_randls_14_rotated.json,612260,812796,33,Man
109,779298,DepthScenes,duration_manipulation_targetAtFixation,jsons/VE125_randls_14_rotated.json,http://54.235.29.9/FacialAge/BNav_EC2/DepthDuration/v2_depth_duration_MTurk/v2_DepthDuration_HTML.html#56,56,1349,625,1366,768,8-21-2022,10-10-2,110,depth_duration_stimuli/001571_2014-06-20_17-21-32_260595134347_rgbf000089-resize_1/001571_2014-06-20_17-21-32_260595134347_rgbf000089-resize_1-target.png,125,1.86,2,2117,125,feet,jsons/VE125_randls_14_rotated.json,612260,812796,33,Man
110,779298,DepthScenes,duration_manipulation_targetAtFixation,jsons/VE125_randls_14_rotated.json,http://54.235.29.9/FacialAge/BNav_EC2/DepthDuration/v2_depth_duration_MTurk/v2_DepthDuration_HTML.html#56,56,1349,625,1366,768,8-21-2022,10-10-2,111,depth_duration_stimuli/002272_2014-06-28_18-53-56_260595134347_rgbf000067-resize_2/002272_2014-06-28_18-53-56_260595134347_rgbf000067-resize_2-target.png,125,1.138,2,2607,124,feet,jsons/VE125_randls_14_rotated.json,612260,812796,33,Man
111,779298,DepthScenes,duration_manipulation_targetAtFixation,jsons/VE125_randls_14_rotated.json,http://54.235.29.9/FacialAge/BNav_EC2/DepthDuration/v2_depth_duration_MTurk/v2_DepthDuration_HTML.html#56,56,1349,625,1366,768,8-21-2022,10-10-2,112,depth_duration_stimuli/001828_2014-06-26_21-40-03_260595134347_rgbf000024-resize_0/001828_2014-06-26_21-40-03_260595134347_rgbf000024-resize_0-target.png,125,4.8260000000000005,3,3438,125,feet,jsons/VE125_randls_14_rotated.json,612260,812796,33,Man
112,779298,DepthScenes,duration_manipulation_targetAtFixation,jsons/VE125_randls_14_rotated.json,http://54.235.29.9/FacialAge/BNav_EC2/DepthDuration/v2_depth_duration_MTurk/v2_DepthDuration_HTML.html#56,56,1349,625,1366,768,8-21-2022,10-10-2,113,depth_duration_stimuli/000009_2014-05-26_14-32-05_260595134347_rgbf000034-resize_3/000009_2014-05-26_14-32-05_260595134347_rgbf000034-resize_3-target.png,125,3.8715,3,2229,126,feet,jsons/VE125_randls_14_rotated.json,612260,812796,33,Man
113,779298,DepthScenes,duration_manipulation_targetAtFixation,jsons/VE125_randls_14_rotated.json,http://54.235.29.9/FacialAge/BNav_EC2/DepthDuration/v2_depth_duration_MTurk/v2_DepthDuration_HTML.html#56,56,1349,625,1366,768,8-21-2022,10-10-2,114,depth_duration_stimuli/002414_2014-06-28_20-24-58_260595134347_rgbf000067-resize_4/002414_2014-06-28_20-24-58_260595134347_rgbf000067-resize_4-target.png,125,4.363,3,2139,134,feet,jsons/VE125_randls_14_rotated.json,612260,812796,33,Man
114,779298,DepthScenes,duration_manipulation_targetAtFixation,jsons/VE125_randls_14_rotated.json,http://54.235.29.9/FacialAge/BNav_EC2/DepthDuration/v2_depth_duration_MTurk/v2_DepthDuration_HTML.html#56,56,1349,625,1366,768,8-21-2022,10-10-2,115,depth_duration_stimuli/000773_2014-06-08_22-24-54_260595134347_rgbf000093-resize_1/000773_2014-06-08_22-24-54_260595134347_rgbf000093-resize_1-target.png,125,4.973,2,2337,125,feet,jsons/VE125_randls_14_rotated.json,612260,812796,33,Man
115,779298,DepthScenes,duration_manipulation_targetAtFixation,jsons/VE125_randls_14_rotated.json,http://54.235.29.9/FacialAge/BNav_EC2/DepthDuration/v2_depth_duration_MTurk/v2_DepthDuration_HTML.html#56,56,1349,625,1366,768,8-21-2022,10-10-2,116,depth_duration_stimuli/001100_2014-06-15_17-46-26_260595134347_rgbf000225-resize_2/001100_2014-06-15_17-46-26_260595134347_rgbf000225-resize_2-target.png,125,2.24,2,2390,125,feet,jsons/VE125_randls_14_rotated.json,612260,812796,33,Man
116,779298,DepthScenes,duration_manipulation_targetAtFixation,jsons/VE125_randls_14_rotated.json,http://54.235.29.9/FacialAge/BNav_EC2/DepthDuration/v2_depth_duration_MTurk/v2_DepthDuration_HTML.html#56,56,1349,625,1366,768,8-21-2022,10-10-2,117,depth_duration_stimuli/002784_2014-06-22_19-26-30_094959634447_rgbf000083-resize_3/002784_2014-06-22_19-26-30_094959634447_rgbf000083-resize_3-target.png,125,1.8046666666667,2,2226,124,feet,jsons/VE125_randls_14_rotated.json,612260,812796,33,Man
117,779298,DepthScenes,duration_manipulation_targetAtFixation,jsons/VE125_randls_14_rotated.json,http://54.235.29.9/FacialAge/BNav_EC2/DepthDuration/v2_depth_duration_MTurk/v2_DepthDuration_HTML.html#56,56,1349,625,1366,768,8-21-2022,10-10-2,118,depth_duration_stimuli/000635_2014-06-08_16-38-42_260595134347_rgbf000106-resize_1/000635_2014-06-08_16-38-42_260595134347_rgbf000106-resize_1-target.png,125,2.074,2,2507,125,feet,jsons/VE125_randls_14_rotated.json,612260,812796,33,Man
118,779298,DepthScenes,duration_manipulation_targetAtFixation,jsons/VE125_randls_14_rotated.json,http://54.235.29.9/FacialAge/BNav_EC2/DepthDuration/v2_depth_duration_MTurk/v2_DepthDuration_HTML.html#56,56,1349,625,1366,768,8-21-2022,10-10-2,119,depth_duration_stimuli/002279_2014-06-28_18-55-32_260595134347_rgbf000040-resize_5/002279_2014-06-28_18-55-32_260595134347_rgbf000040-resize_5-target.png,125,1.5043333333333,2,2029,125,feet,jsons/VE125_randls_14_rotated.json,612260,812796,33,Man
119,779298,DepthScenes,duration_manipulation_targetAtFixation,jsons/VE125_randls_14_rotated.json,http://54.235.29.9/FacialAge/BNav_EC2/DepthDuration/v2_depth_duration_MTurk/v2_DepthDuration_HTML.html#56,56,1349,625,1366,768,8-21-2022,10-10-2,120,depth_duration_stimuli/000787_2014-06-08_22-33-53_260595134347_rgbf000175-resize_1/000787_2014-06-08_22-33-53_260595134347_rgbf000175-resize-original.jpg,125,4.784,2,2138,125,feet,jsons/VE125_randls_14_rotated.json,612260,812796,33,Man
120,779298,DepthScenes,duration_manipulation_targetAtFixation,jsons/VE125_randls_14_rotated.json,http://54.235.29.9/FacialAge/BNav_EC2/DepthDuration/v2_depth_duration_MTurk/v2_DepthDuration_HTML.html#56,56,1349,625,1366,768,8-21-2022,10-10-2,121,depth_duration_stimuli/002758_2014-06-22_19-11-20_094959634447_rgbf000128-resize_1/002758_2014-06-22_19-11-20_094959634447_rgbf000128-resize_1-target.png,125,2.555,2,2151,124,feet,jsons/VE125_randls_14_rotated.json,612260,812796,33,Man
121,779298,DepthScenes,duration_manipulation_targetAtFixation,jsons/VE125_randls_14_rotated.json,http://54.235.29.9/FacialAge/BNav_EC2/DepthDuration/v2_depth_duration_MTurk/v2_DepthDuration_HTML.html#56,56,1349,625,1366,768,8-21-2022,10-10-2,122,depth_duration_stimuli/002630_2014-06-24_14-47-50_094959634447_rgbf000055-resize_1/002630_2014-06-24_14-47-50_094959634447_rgbf000055-resize_1-target.png,125,3.0095,2,2035,127,feet,jsons/VE125_randls_14_rotated.json,612260,812796,33,Man
122,779298,DepthScenes,duration_manipulation_targetAtFixation,jsons/VE125_randls_14_rotated.json,http://54.235.29.9/FacialAge/BNav_EC2/DepthDuration/v2_depth_duration_MTurk/v2_DepthDuration_HTML.html#56,56,1349,625,1366,768,8-21-2022,10-10-2,123,depth_duration_stimuli/003495_2014-05-21_16-01-51_094959634447_rgbf000100-resize_3/003495_2014-05-21_16-01-51_094959634447_rgbf000100-resize_3-target.png,125,1.6255,2,4386,124,feet,jsons/VE125_randls_14_rotated.json,612260,812796,33,Man
123,779298,DepthScenes,duration_manipulation_targetAtFixation,jsons/VE125_randls_14_rotated.json,http://54.235.29.9/FacialAge/BNav_EC2/DepthDuration/v2_depth_duration_MTurk/v2_DepthDuration_HTML.html#56,56,1349,625,1366,768,8-21-2022,10-10-2,124,depth_duration_stimuli/001244_2014-06-17_16-47-45_260595134347_rgbf000030-resize_4/001244_2014-06-17_16-47-45_260595134347_rgbf000030-resize_4-target.png,125,2.0425,2,2157,120,feet,jsons/VE125_randls_14_rotated.json,612260,812796,33,Man
124,779298,DepthScenes,duration_manipulation_targetAtFixation,jsons/VE125_randls_14_rotated.json,http://54.235.29.9/FacialAge/BNav_EC2/DepthDuration/v2_depth_duration_MTurk/v2_DepthDuration_HTML.html#56,56,1349,625,1366,768,8-21-2022,10-10-2,125,depth_duration_stimuli/000927_2014-06-09_16-32-30_260595134347_rgbf000123-resize_3/000927_2014-06-09_16-32-30_260595134347_rgbf000123-resize_3-target.png,125,2.6785,2,2769,131,feet,jsons/VE125_randls_14_rotated.json,612260,812796,33,Man
125,779298,DepthScenes,duration_manipulation_targetAtFixation,jsons/VE125_randls_14_rotated.json,http://54.235.29.9/FacialAge/BNav_EC2/DepthDuration/v2_depth_duration_MTurk/v2_DepthDuration_HTML.html#56,56,1349,625,1366,768,8-21-2022,10-10-2,126,depth_duration_stimuli/001110_2014-06-15_17-25-28_260595134347_rgbf000150-resize_1/001110_2014-06-15_17-25-28_260595134347_rgbf000150-resize_1-target.png,125,1.7115,2,2266,125,feet,jsons/VE125_randls_14_rotated.json,612260,812796,33,Man
126,779298,DepthScenes,duration_manipulation_targetAtFixation,jsons/VE125_randls_14_rotated.json,http://54.235.29.9/FacialAge/BNav_EC2/DepthDuration/v2_depth_duration_MTurk/v2_DepthDuration_HTML.html#56,56,1349,625,1366,768,8-21-2022,10-10-2,127,depth_duration_stimuli/002444_2014-06-28_20-32-08_260595134347_rgbf000027-resize_0/002444_2014-06-28_20-32-08_260595134347_rgbf000027-resize_0-target.png,125,4.388999999999999,2,2222,5,feet,jsons/VE125_randls_14_rotated.json,612260,812796,33,Man
127,779298,DepthScenes,duration_manipulation_targetAtFixation,jsons/VE125_randls_14_rotated.json,http://54.235.29.9/FacialAge/BNav_EC2/DepthDuration/v2_depth_duration_MTurk/v2_DepthDuration_HTML.html#56,56,1349,625,1366,768,8-21-2022,10-10-2,128,depth_duration_stimuli/000436_2014-06-09_22-25-11_260595134347_rgbf000137-resize_1/000436_2014-06-09_22-25-11_260595134347_rgbf000137-resize_1-target.png,125,4.0705,2,2288,124,feet,jsons/VE125_randls_14_rotated.json,612260,812796,33,Man
128,779298,DepthScenes,duration_manipulation_targetAtFixation,jsons/VE125_randls_14_rotated.json,http://54.235.29.9/FacialAge/BNav_EC2/DepthDuration/v2_depth_duration_MTurk/v2_DepthDuration_HTML.html#56,56,1349,625,1366,768,8-21-2022,10-10-2,129,depth_duration_stimuli/000103_2014-05-14_22-01-17_260595134347_rgbf000152-resize_5/000103_2014-05-14_22-01-17_260595134347_rgbf000152-resize_5-target.png,125,1.993,2,2511,123,feet,jsons/VE125_randls_14_rotated.json,612260,812796,33,Man
129,779298,DepthScenes,duration_manipulation_targetAtFixation,jsons/VE125_randls_14_rotated.json,http://54.235.29.9/FacialAge/BNav_EC2/DepthDuration/v2_depth_duration_MTurk/v2_DepthDuration_HTML.html#56,56,1349,625,1366,768,8-21-2022,10-10-2,130,depth_duration_stimuli/001555_2014-06-20_17-12-10_260595134347_rgbf000065-resize_4/001555_2014-06-20_17-12-10_260595134347_rgbf000065-resize_4-target.png,125,1.633,2,2180,125,feet,jsons/VE125_randls_14_rotated.json,612260,812796,33,Man
130,779298,DepthScenes,duration_manipulation_targetAtFixation,jsons/VE125_randls_14_rotated.json,http://54.235.29.9/FacialAge/BNav_EC2/DepthDuration/v2_depth_duration_MTurk/v2_DepthDuration_HTML.html#56,56,1349,625,1366,768,8-21-2022,10-10-2,131,depth_duration_stimuli/001032_2014-06-08_13-23-17_260595134347_rgbf000021-resize_3/001032_2014-06-08_13-23-17_260595134347_rgbf000021-resize_3-target.png,125,3.2725,2,2470,127,feet,jsons/VE125_randls_14_rotated.json,612260,812796,33,Man
131,779298,DepthScenes,duration_manipulation_targetAtFixation,jsons/VE125_randls_14_rotated.json,http://54.235.29.9/FacialAge/BNav_EC2/DepthDuration/v2_depth_duration_MTurk/v2_DepthDuration_HTML.html#56,56,1349,625,1366,768,8-21-2022,10-10-2,132,depth_duration_stimuli/001059_2014-06-08_21-53-27_260595134347_rgbf000061-resize_4/001059_2014-06-08_21-53-27_260595134347_rgbf000061-resize_4-target.png,125,2.4185,2,2245,132,feet,jsons/VE125_randls_14_rotated.json,612260,812796,33,Man
132,779298,DepthScenes,duration_manipulation_targetAtFixation,jsons/VE125_randls_14_rotated.json,http://54.235.29.9/FacialAge/BNav_EC2/DepthDuration/v2_depth_duration_MTurk/v2_DepthDuration_HTML.html#56,56,1349,625,1366,768,8-21-2022,10-10-2,133,depth_duration_stimuli/002209_2014-06-28_18-36-10_260595134347_rgbf000051-resize_1/002209_2014-06-28_18-36-10_260595134347_rgbf000051-resize_1-target.png,125,2.057,2,3387,123,feet,jsons/VE125_randls_14_rotated.json,612260,812796,33,Man
133,779298,DepthScenes,duration_manipulation_targetAtFixation,jsons/VE125_randls_14_rotated.json,http://54.235.29.9/FacialAge/BNav_EC2/DepthDuration/v2_depth_duration_MTurk/v2_DepthDuration_HTML.html#56,56,1349,625,1366,768,8-21-2022,10-10-2,134,depth_duration_stimuli/002763_2014-06-22_19-13-10_094959634447_rgbf000075-resize_4/002763_2014-06-22_19-13-10_094959634447_rgbf000075-resize_4-target.png,125,1.68375,2,4654,143,feet,jsons/VE125_randls_14_rotated.json,612260,812796,33,Man
134,779298,DepthScenes,duration_manipulation_targetAtFixation,jsons/VE125_randls_14_rotated.json,http://54.235.29.9/FacialAge/BNav_EC2/DepthDuration/v2_depth_duration_MTurk/v2_DepthDuration_HTML.html#56,56,1349,625,1366,768,8-21-2022,10-10-2,135,depth_duration_stimuli/000375_2014-06-08_11-17-29_260595134347_rgbf000133-resize_2/000375_2014-06-08_11-17-29_260595134347_rgbf000133-resize-original.jpg,125,4.718,2,2521,207,feet,jsons/VE125_randls_14_rotated.json,612260,812796,33,Man
135,779298,DepthScenes,duration_manipulation_targetAtFixation,jsons/VE125_randls_14_rotated.json,http://54.235.29.9/FacialAge/BNav_EC2/DepthDuration/v2_depth_duration_MTurk/v2_DepthDuration_HTML.html#56,56,1349,625,1366,768,8-21-2022,10-10-2,136,depth_duration_stimuli/002875_2014-06-01_15-19-00_094959634447_rgbf000151-resize_1/002875_2014-06-01_15-19-00_094959634447_rgbf000151-resize_1-target.png,125,1.9675,2,2072,124,feet,jsons/VE125_randls_14_rotated.json,612260,812796,33,Man
136,779298,DepthScenes,duration_manipulation_targetAtFixation,jsons/VE125_randls_14_rotated.json,http://54.235.29.9/FacialAge/BNav_EC2/DepthDuration/v2_depth_duration_MTurk/v2_DepthDuration_HTML.html#56,56,1349,625,1366,768,8-21-2022,10-10-2,137,depth_duration_stimuli/001011_2014-06-08_23-18-54_260595134347_rgbf000044-resize_4/001011_2014-06-08_23-18-54_260595134347_rgbf000044-resize_4-target.png,125,2.4730000000000003,2,2253,113,feet,jsons/VE125_randls_14_rotated.json,612260,812796,33,Man
137,779298,DepthScenes,duration_manipulation_targetAtFixation,jsons/VE125_randls_14_rotated.json,http://54.235.29.9/FacialAge/BNav_EC2/DepthDuration/v2_depth_duration_MTurk/v2_DepthDuration_HTML.html#56,56,1349,625,1366,768,8-21-2022,10-10-2,138,depth_duration_stimuli/002660_2014-06-13_15-44-18_094959634447_rgbf001878-resize_2/002660_2014-06-13_15-44-18_094959634447_rgbf001878-resize_2-target.png,125,3.576,2,2080,129,feet,jsons/VE125_randls_14_rotated.json,612260,812796,33,Man
138,779298,DepthScenes,duration_manipulation_targetAtFixation,jsons/VE125_randls_14_rotated.json,http://54.235.29.9/FacialAge/BNav_EC2/DepthDuration/v2_depth_duration_MTurk/v2_DepthDuration_HTML.html#56,56,1349,625,1366,768,8-21-2022,10-10-2,139,depth_duration_stimuli/002153_2014-06-25_21-27-18_260595134347_rgbf000038-resize_5/002153_2014-06-25_21-27-18_260595134347_rgbf000038-resize_5-target.png,125,2.505,2,2078,127,feet,jsons/VE125_randls_14_rotated.json,612260,812796,33,Man
139,779298,DepthScenes,duration_manipulation_targetAtFixation,jsons/VE125_randls_14_rotated.json,http://54.235.29.9/FacialAge/BNav_EC2/DepthDuration/v2_depth_duration_MTurk/v2_DepthDuration_HTML.html#56,56,1349,625,1366,768,8-21-2022,10-10-2,140,depth_duration_stimuli/002136_2014-06-25_21-18-03_260595134347_rgbf000109-resize_3/002136_2014-06-25_21-18-03_260595134347_rgbf000109-resize_3-target.png,125,1.9569999999999999,1,3086,120,feet,jsons/VE125_randls_14_rotated.json,612260,812796,33,Man
140,779298,DepthScenes,duration_manipulation_targetAtFixation,jsons/VE125_randls_14_rotated.json,http://54.235.29.9/FacialAge/BNav_EC2/DepthDuration/v2_depth_duration_MTurk/v2_DepthDuration_HTML.html#56,56,1349,625,1366,768,8-21-2022,10-10-2,141,depth_duration_stimuli/002964_2014-06-08_17-46-11_094959634447_rgbf000091-resize_4/002964_2014-06-08_17-46-11_094959634447_rgbf000091-resize_4-target.png,125,1.6909999999999998,2,2088,124,feet,jsons/VE125_randls_14_rotated.json,612260,812796,33,Man
141,779298,DepthScenes,duration_manipulation_targetAtFixation,jsons/VE125_randls_14_rotated.json,http://54.235.29.9/FacialAge/BNav_EC2/DepthDuration/v2_depth_duration_MTurk/v2_DepthDuration_HTML.html#56,56,1349,625,1366,768,8-21-2022,10-10-2,142,depth_duration_stimuli/002953_2014-06-08_17-32-18_094959634447_rgbf000059-resize_5/002953_2014-06-08_17-32-18_094959634447_rgbf000059-resize_5-target.png,125,1.551,2,2969,62,feet,jsons/VE125_randls_14_rotated.json,612260,812796,33,Man
142,779298,DepthScenes,duration_manipulation_targetAtFixation,jsons/VE125_randls_14_rotated.json,http://54.235.29.9/FacialAge/BNav_EC2/DepthDuration/v2_depth_duration_MTurk/v2_DepthDuration_HTML.html#56,56,1349,625,1366,768,8-21-2022,10-10-2,143,depth_duration_stimuli/000878_2014-06-08_22-52-45_260595134347_rgbf000045-resize_2/000878_2014-06-08_22-52-45_260595134347_rgbf000045-resize_2-target.png,125,2.092,2,2626,125,feet,jsons/VE125_randls_14_rotated.json,612260,812796,33,Man
143,779298,DepthScenes,duration_manipulation_targetAtFixation,jsons/VE125_randls_14_rotated.json,http://54.235.29.9/FacialAge/BNav_EC2/DepthDuration/v2_depth_duration_MTurk/v2_DepthDuration_HTML.html#56,56,1349,625,1366,768,8-21-2022,10-10-2,144,depth_duration_stimuli/001132_2014-06-17_14-48-54_260595134347_rgbf000100-resize_2/001132_2014-06-17_14-48-54_260595134347_rgbf000100-resize_2-target.png,125,3.753,2,3980,125,feet,jsons/VE125_randls_14_rotated.json,612260,812796,33,Man
144,779298,DepthScenes,duration_manipulation_targetAtFixation,jsons/VE125_randls_14_rotated.json,http://54.235.29.9/FacialAge/BNav_EC2/DepthDuration/v2_depth_duration_MTurk/v2_DepthDuration_HTML.html#56,56,1349,625,1366,768,8-21-2022,10-10-2,145,depth_duration_stimuli/001133_2014-06-17_14-49-16_260595134347_rgbf000100-resize_0/001133_2014-06-17_14-49-16_260595134347_rgbf000100-resize_0-target.png,125,4.2115,2,3549,125,feet,jsons/VE125_randls_14_rotated.json,612260,812796,33,Man
145,779298,DepthScenes,duration_manipulation_targetAtFixation,jsons/VE125_randls_14_rotated.json,http://54.235.29.9/FacialAge/BNav_EC2/DepthDuration/v2_depth_duration_MTurk/v2_DepthDuration_HTML.html#56,56,1349,625,1366,768,8-21-2022,10-10-2,146,depth_duration_stimuli/002545_2014-06-24_13-38-53_094959634447_rgbf000080-resize_4/002545_2014-06-24_13-38-53_094959634447_rgbf000080-resize_4-target.png,125,1.9205,2,2076,125,feet,jsons/VE125_randls_14_rotated.json,612260,812796,33,Man
146,779298,DepthScenes,duration_manipulation_targetAtFixation,jsons/VE125_randls_14_rotated.json,http://54.235.29.9/FacialAge/BNav_EC2/DepthDuration/v2_depth_duration_MTurk/v2_DepthDuration_HTML.html#56,56,1349,625,1366,768,8-21-2022,10-10-2,147,depth_duration_stimuli/001092_2014-06-15_17-34-58_260595134347_rgbf000171-resize_3/001092_2014-06-15_17-34-58_260595134347_rgbf000171-resize_3-target.png,125,2.6935,2,2034,125,feet,jsons/VE125_randls_14_rotated.json,612260,812796,33,Man
147,779298,DepthScenes,duration_manipulation_targetAtFixation,jsons/VE125_randls_14_rotated.json,http://54.235.29.9/FacialAge/BNav_EC2/DepthDuration/v2_depth_duration_MTurk/v2_DepthDuration_HTML.html#56,56,1349,625,1366,768,8-21-2022,10-10-2,148,depth_duration_stimuli/000409_2014-06-04_19-23-33_260595134347_rgbf000067-resize_0/000409_2014-06-04_19-23-33_260595134347_rgbf000067-resize_0-target.png,125,3.7335,2,2934,125,feet,jsons/VE125_randls_14_rotated.json,612260,812796,33,Man
148,779298,DepthScenes,duration_manipulation_targetAtFixation,jsons/VE125_randls_14_rotated.json,http://54.235.29.9/FacialAge/BNav_EC2/DepthDuration/v2_depth_duration_MTurk/v2_DepthDuration_HTML.html#56,56,1349,625,1366,768,8-21-2022,10-10-2,149,depth_duration_stimuli/002663_2014-06-13_15-50-26_094959634447_rgbf000075-resize_1/002663_2014-06-13_15-50-26_094959634447_rgbf000075-resize_1-target.png,125,4.7495,2,3818,121,feet,jsons/VE125_randls_14_rotated.json,612260,812796,33,Man
149,779298,DepthScenes,duration_manipulation_targetAtFixation,jsons/VE125_randls_14_rotated.json,http://54.235.29.9/FacialAge/BNav_EC2/DepthDuration/v2_depth_duration_MTurk/v2_DepthDuration_HTML.html#56,56,1349,625,1366,768,8-21-2022,10-10-2,150,depth_duration_stimuli/000691_2014-06-08_13-08-50_260595134347_rgbf000132-resize_3/000691_2014-06-08_13-08-50_260595134347_rgbf000132-resize_3-target.png,125,4.1530000000000005,0,4077,121,feet,jsons/VE125_randls_14_rotated.json,612260,812796,33,Man
150,779298,DepthScenes,duration_manipulation_targetAtFixation,jsons/VE125_randls_14_rotated.json,http://54.235.29.9/FacialAge/BNav_EC2/DepthDuration/v2_depth_duration_MTurk/v2_DepthDuration_HTML.html#56,56,1349,625,1366,768,8-21-2022,10-10-2,151,depth_duration_stimuli/002213_2014-06-28_18-37-58_260595134347_rgbf000055-resize_1/002213_2014-06-28_18-37-58_260595134347_rgbf000055-resize_1-target.png,125,3.62,2,4728,125,feet,jsons/VE125_randls_14_rotated.json,612260,812796,33,Man
151,779298,DepthScenes,duration_manipulation_targetAtFixation,jsons/VE125_randls_14_rotated.json,http://54.235.29.9/FacialAge/BNav_EC2/DepthDuration/v2_depth_duration_MTurk/v2_DepthDuration_HTML.html#56,56,1349,625,1366,768,8-21-2022,10-10-2,152,depth_duration_stimuli/000569_2014-06-09_22-51-47_260595134347_rgbf000141-resize_3/000569_2014-06-09_22-51-47_260595134347_rgbf000141-resize-original.jpg,125,4.512,0,7063,121,feet,jsons/VE125_randls_14_rotated.json,612260,812796,33,Man
152,779298,DepthScenes,duration_manipulation_targetAtFixation,jsons/VE125_randls_14_rotated.json,http://54.235.29.9/FacialAge/BNav_EC2/DepthDuration/v2_depth_duration_MTurk/v2_DepthDuration_HTML.html#56,56,1349,625,1366,768,8-21-2022,10-10-2,153,depth_duration_stimuli/003048_2014-06-15_13-49-43_094959634447_rgbf000150-resize_1/003048_2014-06-15_13-49-43_094959634447_rgbf000150-resize_1-target.png,125,4.0035,2,2987,129,feet,jsons/VE125_randls_14_rotated.json,612260,812796,33,Man
153,779298,DepthScenes,duration_manipulation_targetAtFixation,jsons/VE125_randls_14_rotated.json,http://54.235.29.9/FacialAge/BNav_EC2/DepthDuration/v2_depth_duration_MTurk/v2_DepthDuration_HTML.html#56,56,1349,625,1366,768,8-21-2022,10-10-2,154,depth_duration_stimuli/002043_2014-06-24_20-29-38_260595134347_rgbf000039-resize_4/002043_2014-06-24_20-29-38_260595134347_rgbf000039-resize_4-target.png,125,2.8435,2,2137,124,feet,jsons/VE125_randls_14_rotated.json,612260,812796,33,Man
154,779298,DepthScenes,duration_manipulation_targetAtFixation,jsons/VE125_randls_14_rotated.json,http://54.235.29.9/FacialAge/BNav_EC2/DepthDuration/v2_depth_duration_MTurk/v2_DepthDuration_HTML.html#56,56,1349,625,1366,768,8-21-2022,10-10-2,155,depth_duration_stimuli/003490_2014-05-21_15-50-11_094959634447_rgbf000101-resize_3/003490_2014-05-21_15-50-11_094959634447_rgbf000101-resize_3-target.png,125,3.6445,2,2404,125,feet,jsons/VE125_randls_14_rotated.json,612260,812796,33,Man
155,779298,DepthScenes,duration_manipulation_targetAtFixation,jsons/VE125_randls_14_rotated.json,http://54.235.29.9/FacialAge/BNav_EC2/DepthDuration/v2_depth_duration_MTurk/v2_DepthDuration_HTML.html#56,56,1349,625,1366,768,8-21-2022,10-10-2,156,depth_duration_stimuli/001175_2014-06-17_15-45-55_260595134347_rgbf000129-resize_4/001175_2014-06-17_15-45-55_260595134347_rgbf000129-resize_4-target.png,125,4.255,2,4074,125,feet,jsons/VE125_randls_14_rotated.json,612260,812796,33,Man
156,779298,DepthScenes,duration_manipulation_targetAtFixation,jsons/VE125_randls_14_rotated.json,http://54.235.29.9/FacialAge/BNav_EC2/DepthDuration/v2_depth_duration_MTurk/v2_DepthDuration_HTML.html#56,56,1349,625,1366,768,8-21-2022,10-10-2,157,depth_duration_stimuli/000502_2014-06-08_23-02-32_260595134347_rgbf000063-resize_4/000502_2014-06-08_23-02-32_260595134347_rgbf000063-resize_4-target.png,125,2.431,2,2163,125,feet,jsons/VE125_randls_14_rotated.json,612260,812796,33,Man
157,779298,DepthScenes,duration_manipulation_targetAtFixation,jsons/VE125_randls_14_rotated.json,http://54.235.29.9/FacialAge/BNav_EC2/DepthDuration/v2_depth_duration_MTurk/v2_DepthDuration_HTML.html#56,56,1349,625,1366,768,8-21-2022,10-10-2,158,depth_duration_stimuli/001199_2014-06-17_16-03-48_260595134347_rgbf000077-resize_0/001199_2014-06-17_16-03-48_260595134347_rgbf000077-resize_0-target.png,125,3.4375,2,2239,131,feet,jsons/VE125_randls_14_rotated.json,612260,812796,33,Man
158,779298,DepthScenes,duration_manipulation_targetAtFixation,jsons/VE125_randls_14_rotated.json,http://54.235.29.9/FacialAge/BNav_EC2/DepthDuration/v2_depth_duration_MTurk/v2_DepthDuration_HTML.html#56,56,1349,625,1366,768,8-21-2022,10-10-2,159,depth_duration_stimuli/000734_2014-06-08_17-39-11_260595134347_rgbf000128-resize_2/000734_2014-06-08_17-39-11_260595134347_rgbf000128-resize_2-target.png,125,4.098,2,4692,125,feet,jsons/VE125_randls_14_rotated.json,612260,812796,33,Man
159,779298,DepthScenes,duration_manipulation_targetAtFixation,jsons/VE125_randls_14_rotated.json,http://54.235.29.9/FacialAge/BNav_EC2/DepthDuration/v2_depth_duration_MTurk/v2_DepthDuration_HTML.html#56,56,1349,625,1366,768,8-21-2022,10-10-2,160,depth_duration_stimuli/000739_2014-06-08_18-45-58_260595134347_rgbf000068-resize_1/000739_2014-06-08_18-45-58_260595134347_rgbf000068-resize_1-target.png,125,3.534,2,3311,143,feet,jsons/VE125_randls_14_rotated.json,612260,812796,33,Man
160,779298,DepthScenes,duration_manipulation_targetAtFixation,jsons/VE125_randls_14_rotated.json,http://54.235.29.9/FacialAge/BNav_EC2/DepthDuration/v2_depth_duration_MTurk/v2_DepthDuration_HTML.html#56,56,1349,625,1366,768,8-21-2022,10-10-2,161,depth_duration_stimuli/001450_2014-06-19_17-02-03_260595134347_rgbf000203-resize_4/001450_2014-06-19_17-02-03_260595134347_rgbf000203-resize_4-target.png,125,4.0106666666667,2,4002,125,feet,jsons/VE125_randls_14_rotated.json,612260,812796,33,Man
161,779298,DepthScenes,duration_manipulation_targetAtFixation,jsons/VE125_randls_14_rotated.json,http://54.235.29.9/FacialAge/BNav_EC2/DepthDuration/v2_depth_duration_MTurk/v2_DepthDuration_HTML.html#56,56,1349,625,1366,768,8-21-2022,10-10-2,162,depth_duration_stimuli/001449_2014-06-19_17-01-27_260595134347_rgbf000116-resize_2/001449_2014-06-19_17-01-27_260595134347_rgbf000116-resize_2-target.png,125,3.452,2,3328,124,feet,jsons/VE125_randls_14_rotated.json,612260,812796,33,Man
162,779298,DepthScenes,duration_manipulation_targetAtFixation,jsons/VE125_randls_14_rotated.json,http://54.235.29.9/FacialAge/BNav_EC2/DepthDuration/v2_depth_duration_MTurk/v2_DepthDuration_HTML.html#56,56,1349,625,1366,768,8-21-2022,10-10-2,163,depth_duration_stimuli/001584_2014-06-20_11-07-43_260595134347_rgbf000002-resize_1/001584_2014-06-20_11-07-43_260595134347_rgbf000002-resize_1-target.png,125,3.53,2,3044,123,feet,jsons/VE125_randls_14_rotated.json,612260,812796,33,Man
163,779298,DepthScenes,duration_manipulation_targetAtFixation,jsons/VE125_randls_14_rotated.json,http://54.235.29.9/FacialAge/BNav_EC2/DepthDuration/v2_depth_duration_MTurk/v2_DepthDuration_HTML.html#56,56,1349,625,1366,768,8-21-2022,10-10-2,164,depth_duration_stimuli/003621_2014-05-23_18-06-08_094959634447_rgbf000101-resize_1/003621_2014-05-23_18-06-08_094959634447_rgbf000101-resize_1-target.png,125,3.9835,2,2352,126,feet,jsons/VE125_randls_14_rotated.json,612260,812796,33,Man
