,subjID,experimentName,versionName,sequenceName,url,selected_row,windowWidth,windowHeight,screenWidth,screenHeight,startDate,startTime,trial,stimulus,duration,actual_depth,depth_estimate,trial_RT,log_sceneDuration,unitSelection,seq_filepath,experimentTime,totalTime,age,gender
0,780015,DepthScenes,duration_manipulation_targetAtFixation,jsons/v1_VE1000_randls_50.json,http://54.235.29.9/FacialAge/BNav_EC2/DepthDuration/v2_depth_duration_MTurk/v2_DepthDuration_HTML.html#181,181,1366,625,1366,768,9-3-2022,9-38-1,1,depth_duration_stimuli/001175_2014-06-17_15-45-55_260595134347_rgbf000129-resize_4/001175_2014-06-17_15-45-55_260595134347_rgbf000129-resize_4-target.png,1000,4.255,9,4885,999,meters,jsons/v1_VE1000_randls_50.json,747351,839413,35,Man
1,780015,DepthScenes,duration_manipulation_targetAtFixation,jsons/v1_VE1000_randls_50.json,http://54.235.29.9/FacialAge/BNav_EC2/DepthDuration/v2_depth_duration_MTurk/v2_DepthDuration_HTML.html#181,181,1366,625,1366,768,9-3-2022,9-38-1,2,depth_duration_stimuli/003490_2014-05-21_15-50-11_094959634447_rgbf000101-resize_3/003490_2014-05-21_15-50-11_094959634447_rgbf000101-resize_3-target.png,1000,3.6445,7,3576,997,meters,jsons/v1_VE1000_randls_50.json,747351,839413,35,Man
2,780015,DepthScenes,duration_manipulation_targetAtFixation,jsons/v1_VE1000_randls_50.json,http://54.235.29.9/FacialAge/BNav_EC2/DepthDuration/v2_depth_duration_MTurk/v2_DepthDuration_HTML.html#181,181,1366,625,1366,768,9-3-2022,9-38-1,3,depth_duration_stimuli/003621_2014-05-23_18-06-08_094959634447_rgbf000101-resize_1/003621_2014-05-23_18-06-08_094959634447_rgbf000101-resize_1-target.png,1000,3.9835,7,3553,999,meters,jsons/v1_VE1000_randls_50.json,747351,839413,35,Man
3,780015,DepthScenes,duration_manipulation_targetAtFixation,jsons/v1_VE1000_randls_50.json,http://54.235.29.9/FacialAge/BNav_EC2/DepthDuration/v2_depth_duration_MTurk/v2_DepthDuration_HTML.html#181,181,1366,625,1366,768,9-3-2022,9-38-1,4,depth_duration_stimuli/001584_2014-06-20_11-07-43_260595134347_rgbf000002-resize_1/001584_2014-06-20_11-07-43_260595134347_rgbf000002-resize_1-target.png,1000,3.53,6,3860,997,meters,jsons/v1_VE1000_randls_50.json,747351,839413,35,Man
4,780015,DepthScenes,duration_manipulation_targetAtFixation,jsons/v1_VE1000_randls_50.json,http://54.235.29.9/FacialAge/BNav_EC2/DepthDuration/v2_depth_duration_MTurk/v2_DepthDuration_HTML.html#181,181,1366,625,1366,768,9-3-2022,9-38-1,5,depth_duration_stimuli/001199_2014-06-17_16-03-48_260595134347_rgbf000077-resize_0/001199_2014-06-17_16-03-48_260595134347_rgbf000077-resize_0-target.png,1000,3.4375,7,3610,1000,meters,jsons/v1_VE1000_randls_50.json,747351,839413,35,Man
5,780015,DepthScenes,duration_manipulation_targetAtFixation,jsons/v1_VE1000_randls_50.json,http://54.235.29.9/FacialAge/BNav_EC2/DepthDuration/v2_depth_duration_MTurk/v2_DepthDuration_HTML.html#181,181,1366,625,1366,768,9-3-2022,9-38-1,6,depth_duration_stimuli/000502_2014-06-08_23-02-32_260595134347_rgbf000063-resize_4/000502_2014-06-08_23-02-32_260595134347_rgbf000063-resize_4-target.png,1000,2.431,8,3514,1008,meters,jsons/v1_VE1000_randls_50.json,747351,839413,35,Man
6,780015,DepthScenes,duration_manipulation_targetAtFixation,jsons/v1_VE1000_randls_50.json,http://54.235.29.9/FacialAge/BNav_EC2/DepthDuration/v2_depth_duration_MTurk/v2_DepthDuration_HTML.html#181,181,1366,625,1366,768,9-3-2022,9-38-1,7,depth_duration_stimuli/000682_2014-06-08_23-14-58_260595134347_rgbf000041-resize_5/000682_2014-06-08_23-14-58_260595134347_rgbf000041-resize_5-target.png,1000,2.7239999999999998,7,3401,997,meters,jsons/v1_VE1000_randls_50.json,747351,839413,35,Man
7,780015,DepthScenes,duration_manipulation_targetAtFixation,jsons/v1_VE1000_randls_50.json,http://54.235.29.9/FacialAge/BNav_EC2/DepthDuration/v2_depth_duration_MTurk/v2_DepthDuration_HTML.html#181,181,1366,625,1366,768,9-3-2022,9-38-1,8,depth_duration_stimuli/001650_2014-06-20_12-09-00_260595134347_rgbf000087-resize_3/001650_2014-06-20_12-09-00_260595134347_rgbf000087-resize_3-target.png,1000,1.9505,8,3814,998,meters,jsons/v1_VE1000_randls_50.json,747351,839413,35,Man
8,780015,DepthScenes,duration_manipulation_targetAtFixation,jsons/v1_VE1000_randls_50.json,http://54.235.29.9/FacialAge/BNav_EC2/DepthDuration/v2_depth_duration_MTurk/v2_DepthDuration_HTML.html#181,181,1366,625,1366,768,9-3-2022,9-38-1,9,depth_duration_stimuli/002279_2014-06-28_18-55-32_260595134347_rgbf000040-resize_5/002279_2014-06-28_18-55-32_260595134347_rgbf000040-resize_5-target.png,1000,1.5043333333333,6,3520,997,meters,jsons/v1_VE1000_randls_50.json,747351,839413,35,Man
9,780015,DepthScenes,duration_manipulation_targetAtFixation,jsons/v1_VE1000_randls_50.json,http://54.235.29.9/FacialAge/BNav_EC2/DepthDuration/v2_depth_duration_MTurk/v2_DepthDuration_HTML.html#181,181,1366,625,1366,768,9-3-2022,9-38-1,10,depth_duration_stimuli/000635_2014-06-08_16-38-42_260595134347_rgbf000106-resize_1/000635_2014-06-08_16-38-42_260595134347_rgbf000106-resize_1-target.png,1000,2.074,9,4101,996,meters,jsons/v1_VE1000_randls_50.json,747351,839413,35,Man
10,780015,DepthScenes,duration_manipulation_targetAtFixation,jsons/v1_VE1000_randls_50.json,http://54.235.29.9/FacialAge/BNav_EC2/DepthDuration/v2_depth_duration_MTurk/v2_DepthDuration_HTML.html#181,181,1366,625,1366,768,9-3-2022,9-38-1,11,depth_duration_stimuli/002763_2014-06-22_19-13-10_094959634447_rgbf000075-resize_4/002763_2014-06-22_19-13-10_094959634447_rgbf000075-resize_4-target.png,1000,1.68375,9,3619,994,meters,jsons/v1_VE1000_randls_50.json,747351,839413,35,Man
11,780015,DepthScenes,duration_manipulation_targetAtFixation,jsons/v1_VE1000_randls_50.json,http://54.235.29.9/FacialAge/BNav_EC2/DepthDuration/v2_depth_duration_MTurk/v2_DepthDuration_HTML.html#181,181,1366,625,1366,768,9-3-2022,9-38-1,12,depth_duration_stimuli/002209_2014-06-28_18-36-10_260595134347_rgbf000051-resize_1/002209_2014-06-28_18-36-10_260595134347_rgbf000051-resize_1-target.png,1000,2.057,7,3678,992,meters,jsons/v1_VE1000_randls_50.json,747351,839413,35,Man
12,780015,DepthScenes,duration_manipulation_targetAtFixation,jsons/v1_VE1000_randls_50.json,http://54.235.29.9/FacialAge/BNav_EC2/DepthDuration/v2_depth_duration_MTurk/v2_DepthDuration_HTML.html#181,181,1366,625,1366,768,9-3-2022,9-38-1,13,depth_duration_stimuli/000569_2014-06-09_22-51-47_260595134347_rgbf000141-resize_3/000569_2014-06-09_22-51-47_260595134347_rgbf000141-resize-original.jpg,1000,4.512,0,4458,999,meters,jsons/v1_VE1000_randls_50.json,747351,839413,35,Man
13,780015,DepthScenes,duration_manipulation_targetAtFixation,jsons/v1_VE1000_randls_50.json,http://54.235.29.9/FacialAge/BNav_EC2/DepthDuration/v2_depth_duration_MTurk/v2_DepthDuration_HTML.html#181,181,1366,625,1366,768,9-3-2022,9-38-1,14,depth_duration_stimuli/002600_2014-06-24_14-27-04_094959634447_rgbf000074-resize_2/002600_2014-06-24_14-27-04_094959634447_rgbf000074-resize_2-target.png,1000,2.7575,7,3636,992,meters,jsons/v1_VE1000_randls_50.json,747351,839413,35,Man
14,780015,DepthScenes,duration_manipulation_targetAtFixation,jsons/v1_VE1000_randls_50.json,http://54.235.29.9/FacialAge/BNav_EC2/DepthDuration/v2_depth_duration_MTurk/v2_DepthDuration_HTML.html#181,181,1366,625,1366,768,9-3-2022,9-38-1,15,depth_duration_stimuli/003228_2014-05-14_13-42-35_094959634447_rgbf000101-resize_1/003228_2014-05-14_13-42-35_094959634447_rgbf000101-resize_1-target.png,1000,1.9680000000000002,8,3594,1000,meters,jsons/v1_VE1000_randls_50.json,747351,839413,35,Man
15,780015,DepthScenes,duration_manipulation_targetAtFixation,jsons/v1_VE1000_randls_50.json,http://54.235.29.9/FacialAge/BNav_EC2/DepthDuration/v2_depth_duration_MTurk/v2_DepthDuration_HTML.html#181,181,1366,625,1366,768,9-3-2022,9-38-1,16,depth_duration_stimuli/000447_2014-06-08_16-15-46_260595134347_rgbf000130-resize_1/000447_2014-06-08_16-15-46_260595134347_rgbf000130-resize_1-target.png,1000,4.479,7,4176,1006,meters,jsons/v1_VE1000_randls_50.json,747351,839413,35,Man
16,780015,DepthScenes,duration_manipulation_targetAtFixation,jsons/v1_VE1000_randls_50.json,http://54.235.29.9/FacialAge/BNav_EC2/DepthDuration/v2_depth_duration_MTurk/v2_DepthDuration_HTML.html#181,181,1366,625,1366,768,9-3-2022,9-38-1,17,depth_duration_stimuli/001447_2014-06-19_17-00-32_260595134347_rgbf000082-resize_5/001447_2014-06-19_17-00-32_260595134347_rgbf000082-resize_5-target.png,1000,4.13775,9,4096,1007,meters,jsons/v1_VE1000_randls_50.json,747351,839413,35,Man
17,780015,DepthScenes,duration_manipulation_targetAtFixation,jsons/v1_VE1000_randls_50.json,http://54.235.29.9/FacialAge/BNav_EC2/DepthDuration/v2_depth_duration_MTurk/v2_DepthDuration_HTML.html#181,181,1366,625,1366,768,9-3-2022,9-38-1,18,depth_duration_stimuli/002630_2014-06-24_14-47-50_094959634447_rgbf000055-resize_1/002630_2014-06-24_14-47-50_094959634447_rgbf000055-resize_1-target.png,1000,3.0095,7,3813,987,meters,jsons/v1_VE1000_randls_50.json,747351,839413,35,Man
18,780015,DepthScenes,duration_manipulation_targetAtFixation,jsons/v1_VE1000_randls_50.json,http://54.235.29.9/FacialAge/BNav_EC2/DepthDuration/v2_depth_duration_MTurk/v2_DepthDuration_HTML.html#181,181,1366,625,1366,768,9-3-2022,9-38-1,19,depth_duration_stimuli/002758_2014-06-22_19-11-20_094959634447_rgbf000128-resize_1/002758_2014-06-22_19-11-20_094959634447_rgbf000128-resize_1-target.png,1000,2.555,7,3296,993,meters,jsons/v1_VE1000_randls_50.json,747351,839413,35,Man
19,780015,DepthScenes,duration_manipulation_targetAtFixation,jsons/v1_VE1000_randls_50.json,http://54.235.29.9/FacialAge/BNav_EC2/DepthDuration/v2_depth_duration_MTurk/v2_DepthDuration_HTML.html#181,181,1366,625,1366,768,9-3-2022,9-38-1,20,depth_duration_stimuli/002725_2014-06-22_11-47-51_094959634447_rgbf000070-resize_1/002725_2014-06-22_11-47-51_094959634447_rgbf000070-resize_1-target.png,1000,2.195,8,3354,1012,meters,jsons/v1_VE1000_randls_50.json,747351,839413,35,Man
20,780015,DepthScenes,duration_manipulation_targetAtFixation,jsons/v1_VE1000_randls_50.json,http://54.235.29.9/FacialAge/BNav_EC2/DepthDuration/v2_depth_duration_MTurk/v2_DepthDuration_HTML.html#181,181,1366,625,1366,768,9-3-2022,9-38-1,21,depth_duration_stimuli/002344_2014-06-28_20-06-29_260595134347_rgbf000030-resize_1/002344_2014-06-28_20-06-29_260595134347_rgbf000030-resize_1-target.png,1000,1.5795,7,3373,1000,meters,jsons/v1_VE1000_randls_50.json,747351,839413,35,Man
21,780015,DepthScenes,duration_manipulation_targetAtFixation,jsons/v1_VE1000_randls_50.json,http://54.235.29.9/FacialAge/BNav_EC2/DepthDuration/v2_depth_duration_MTurk/v2_DepthDuration_HTML.html#181,181,1366,625,1366,768,9-3-2022,9-38-1,22,depth_duration_stimuli/003070_2014-06-15_14-58-27_094959634447_rgbf000150-resize_3/003070_2014-06-15_14-58-27_094959634447_rgbf000150-resize_3-target.png,1000,2.9415,9,3651,1005,meters,jsons/v1_VE1000_randls_50.json,747351,839413,35,Man
22,780015,DepthScenes,duration_manipulation_targetAtFixation,jsons/v1_VE1000_randls_50.json,http://54.235.29.9/FacialAge/BNav_EC2/DepthDuration/v2_depth_duration_MTurk/v2_DepthDuration_HTML.html#181,181,1366,625,1366,768,9-3-2022,9-38-1,23,depth_duration_stimuli/000943_2014-06-09_19-31-07_260595134347_rgbf000128-resize_1/000943_2014-06-09_19-31-07_260595134347_rgbf000128-resize_1-target.png,1000,1.9765,9,3936,1002,meters,jsons/v1_VE1000_randls_50.json,747351,839413,35,Man
23,780015,DepthScenes,duration_manipulation_targetAtFixation,jsons/v1_VE1000_randls_50.json,http://54.235.29.9/FacialAge/BNav_EC2/DepthDuration/v2_depth_duration_MTurk/v2_DepthDuration_HTML.html#181,181,1366,625,1366,768,9-3-2022,9-38-1,24,depth_duration_stimuli/001029_2014-06-08_13-17-57_260595134347_rgbf000065-resize_1/001029_2014-06-08_13-17-57_260595134347_rgbf000065-resize_1-target.png,1000,3.0835,8,3759,992,meters,jsons/v1_VE1000_randls_50.json,747351,839413,35,Man
24,780015,DepthScenes,duration_manipulation_targetAtFixation,jsons/v1_VE1000_randls_50.json,http://54.235.29.9/FacialAge/BNav_EC2/DepthDuration/v2_depth_duration_MTurk/v2_DepthDuration_HTML.html#181,181,1366,625,1366,768,9-3-2022,9-38-1,25,depth_duration_stimuli/000677_2014-06-08_23-10-32_260595134347_rgbf000158-resize_6/000677_2014-06-08_23-10-32_260595134347_rgbf000158-resize_6-target.png,1000,3.556,8,3913,989,meters,jsons/v1_VE1000_randls_50.json,747351,839413,35,Man
25,780015,DepthScenes,duration_manipulation_targetAtFixation,jsons/v1_VE1000_randls_50.json,http://54.235.29.9/FacialAge/BNav_EC2/DepthDuration/v2_depth_duration_MTurk/v2_DepthDuration_HTML.html#181,181,1366,625,1366,768,9-3-2022,9-38-1,26,depth_duration_stimuli/002039_2014-06-24_20-22-38_260595134347_rgbf000084-resize_1/002039_2014-06-24_20-22-38_260595134347_rgbf000084-resize_1-target.png,1000,4.408,7,3930,1004,meters,jsons/v1_VE1000_randls_50.json,747351,839413,35,Man
26,780015,DepthScenes,duration_manipulation_targetAtFixation,jsons/v1_VE1000_randls_50.json,http://54.235.29.9/FacialAge/BNav_EC2/DepthDuration/v2_depth_duration_MTurk/v2_DepthDuration_HTML.html#181,181,1366,625,1366,768,9-3-2022,9-38-1,27,depth_duration_stimuli/002103_2014-06-25_20-00-40_260595134347_rgbf000049-resize_0/002103_2014-06-25_20-00-40_260595134347_rgbf000049-resize_0-target.png,1000,4.105,6,3764,998,meters,jsons/v1_VE1000_randls_50.json,747351,839413,35,Man
27,780015,DepthScenes,duration_manipulation_targetAtFixation,jsons/v1_VE1000_randls_50.json,http://54.235.29.9/FacialAge/BNav_EC2/DepthDuration/v2_depth_duration_MTurk/v2_DepthDuration_HTML.html#181,181,1366,625,1366,768,9-3-2022,9-38-1,28,depth_duration_stimuli/002784_2014-06-22_19-26-30_094959634447_rgbf000083-resize_3/002784_2014-06-22_19-26-30_094959634447_rgbf000083-resize_3-target.png,1000,1.8046666666667,7,3654,999,meters,jsons/v1_VE1000_randls_50.json,747351,839413,35,Man
28,780015,DepthScenes,duration_manipulation_targetAtFixation,jsons/v1_VE1000_randls_50.json,http://54.235.29.9/FacialAge/BNav_EC2/DepthDuration/v2_depth_duration_MTurk/v2_DepthDuration_HTML.html#181,181,1366,625,1366,768,9-3-2022,9-38-1,29,depth_duration_stimuli/001100_2014-06-15_17-46-26_260595134347_rgbf000225-resize_2/001100_2014-06-15_17-46-26_260595134347_rgbf000225-resize_2-target.png,1000,2.24,7,3486,987,meters,jsons/v1_VE1000_randls_50.json,747351,839413,35,Man
29,780015,DepthScenes,duration_manipulation_targetAtFixation,jsons/v1_VE1000_randls_50.json,http://54.235.29.9/FacialAge/BNav_EC2/DepthDuration/v2_depth_duration_MTurk/v2_DepthDuration_HTML.html#181,181,1366,625,1366,768,9-3-2022,9-38-1,30,depth_duration_stimuli/000375_2014-06-08_11-17-29_260595134347_rgbf000133-resize_2/000375_2014-06-08_11-17-29_260595134347_rgbf000133-resize-original.jpg,1000,4.718,0,3771,1002,meters,jsons/v1_VE1000_randls_50.json,747351,839413,35,Man
30,780015,DepthScenes,duration_manipulation_targetAtFixation,jsons/v1_VE1000_randls_50.json,http://54.235.29.9/FacialAge/BNav_EC2/DepthDuration/v2_depth_duration_MTurk/v2_DepthDuration_HTML.html#181,181,1366,625,1366,768,9-3-2022,9-38-1,31,depth_duration_stimuli/000758_2014-06-08_22-05-08_260595134347_rgbf000085-resize_0/000758_2014-06-08_22-05-08_260595134347_rgbf000085-resize_0-target.png,1000,3.3810000000000002,9,3785,997,meters,jsons/v1_VE1000_randls_50.json,747351,839413,35,Man
31,780015,DepthScenes,duration_manipulation_targetAtFixation,jsons/v1_VE1000_randls_50.json,http://54.235.29.9/FacialAge/BNav_EC2/DepthDuration/v2_depth_duration_MTurk/v2_DepthDuration_HTML.html#181,181,1366,625,1366,768,9-3-2022,9-38-1,32,depth_duration_stimuli/000854_2014-06-09_19-43-13_260595134347_rgbf000066-resize_0/000854_2014-06-09_19-43-13_260595134347_rgbf000066-resize_0-target.png,1000,3.068,7,3952,998,meters,jsons/v1_VE1000_randls_50.json,747351,839413,35,Man
32,780015,DepthScenes,duration_manipulation_targetAtFixation,jsons/v1_VE1000_randls_50.json,http://54.235.29.9/FacialAge/BNav_EC2/DepthDuration/v2_depth_duration_MTurk/v2_DepthDuration_HTML.html#181,181,1366,625,1366,768,9-3-2022,9-38-1,33,depth_duration_stimuli/002153_2014-06-25_21-27-18_260595134347_rgbf000038-resize_5/002153_2014-06-25_21-27-18_260595134347_rgbf000038-resize_5-target.png,1000,2.505,8,3555,995,meters,jsons/v1_VE1000_randls_50.json,747351,839413,35,Man
33,780015,DepthScenes,duration_manipulation_targetAtFixation,jsons/v1_VE1000_randls_50.json,http://54.235.29.9/FacialAge/BNav_EC2/DepthDuration/v2_depth_duration_MTurk/v2_DepthDuration_HTML.html#181,181,1366,625,1366,768,9-3-2022,9-38-1,34,depth_duration_stimuli/002660_2014-06-13_15-44-18_094959634447_rgbf001878-resize_2/002660_2014-06-13_15-44-18_094959634447_rgbf001878-resize_2-target.png,1000,3.576,9,3745,996,meters,jsons/v1_VE1000_randls_50.json,747351,839413,35,Man
34,780015,DepthScenes,duration_manipulation_targetAtFixation,jsons/v1_VE1000_randls_50.json,http://54.235.29.9/FacialAge/BNav_EC2/DepthDuration/v2_depth_duration_MTurk/v2_DepthDuration_HTML.html#181,181,1366,625,1366,768,9-3-2022,9-38-1,35,depth_duration_stimuli/002788_2014-06-22_19-36-03_094959634447_rgbf000088-resize_2/002788_2014-06-22_19-36-03_094959634447_rgbf000088-resize_2-target.png,1000,1.6465,8,4755,1002,meters,jsons/v1_VE1000_randls_50.json,747351,839413,35,Man
35,780015,DepthScenes,duration_manipulation_targetAtFixation,jsons/v1_VE1000_randls_50.json,http://54.235.29.9/FacialAge/BNav_EC2/DepthDuration/v2_depth_duration_MTurk/v2_DepthDuration_HTML.html#181,181,1366,625,1366,768,9-3-2022,9-38-1,36,depth_duration_stimuli/000749_2014-06-08_21-55-06_260595134347_rgbf000070-resize_2/000749_2014-06-08_21-55-06_260595134347_rgbf000070-resize_2-target.png,1000,2.331,8,5104,1001,meters,jsons/v1_VE1000_randls_50.json,747351,839413,35,Man
36,780015,DepthScenes,duration_manipulation_targetAtFixation,jsons/v1_VE1000_randls_50.json,http://54.235.29.9/FacialAge/BNav_EC2/DepthDuration/v2_depth_duration_MTurk/v2_DepthDuration_HTML.html#181,181,1366,625,1366,768,9-3-2022,9-38-1,37,depth_duration_stimuli/000878_2014-06-08_22-52-45_260595134347_rgbf000045-resize_2/000878_2014-06-08_22-52-45_260595134347_rgbf000045-resize_2-target.png,1000,2.092,9,4585,1003,meters,jsons/v1_VE1000_randls_50.json,747351,839413,35,Man
37,780015,DepthScenes,duration_manipulation_targetAtFixation,jsons/v1_VE1000_randls_50.json,http://54.235.29.9/FacialAge/BNav_EC2/DepthDuration/v2_depth_duration_MTurk/v2_DepthDuration_HTML.html#181,181,1366,625,1366,768,9-3-2022,9-38-1,38,depth_duration_stimuli/002953_2014-06-08_17-32-18_094959634447_rgbf000059-resize_5/002953_2014-06-08_17-32-18_094959634447_rgbf000059-resize_5-target.png,1000,1.551,8,4013,992,meters,jsons/v1_VE1000_randls_50.json,747351,839413,35,Man
38,780015,DepthScenes,duration_manipulation_targetAtFixation,jsons/v1_VE1000_randls_50.json,http://54.235.29.9/FacialAge/BNav_EC2/DepthDuration/v2_depth_duration_MTurk/v2_DepthDuration_HTML.html#181,181,1366,625,1366,768,9-3-2022,9-38-1,39,depth_duration_stimuli/000414_2014-06-04_19-49-13_260595134347_rgbf000044-resize_0/000414_2014-06-04_19-49-13_260595134347_rgbf000044-resize_0-target.png,1000,4.329,8,4255,986,meters,jsons/v1_VE1000_randls_50.json,747351,839413,35,Man
39,780015,DepthScenes,duration_manipulation_targetAtFixation,jsons/v1_VE1000_randls_50.json,http://54.235.29.9/FacialAge/BNav_EC2/DepthDuration/v2_depth_duration_MTurk/v2_DepthDuration_HTML.html#181,181,1366,625,1366,768,9-3-2022,9-38-1,40,depth_duration_stimuli/003129_2014-05-12_10-48-10_094959634447_rgbf000100-resize_0/003129_2014-05-12_10-48-10_094959634447_rgbf000100-resize_0-target.png,1000,4.9305,7,3768,995,meters,jsons/v1_VE1000_randls_50.json,747351,839413,35,Man
40,780015,DepthScenes,duration_manipulation_targetAtFixation,jsons/v1_VE1000_randls_50.json,http://54.235.29.9/FacialAge/BNav_EC2/DepthDuration/v2_depth_duration_MTurk/v2_DepthDuration_HTML.html#181,181,1366,625,1366,768,9-3-2022,9-38-1,41,depth_duration_stimuli/002988_2014-06-15_12-24-20_094959634447_rgbf000150-resize_1/002988_2014-06-15_12-24-20_094959634447_rgbf000150-resize_1-target.png,1000,4.7669999999999995,7,3827,993,meters,jsons/v1_VE1000_randls_50.json,747351,839413,35,Man
41,780015,DepthScenes,duration_manipulation_targetAtFixation,jsons/v1_VE1000_randls_50.json,http://54.235.29.9/FacialAge/BNav_EC2/DepthDuration/v2_depth_duration_MTurk/v2_DepthDuration_HTML.html#181,181,1366,625,1366,768,9-3-2022,9-38-1,42,depth_duration_stimuli/001052_2014-06-08_18-24-54_260595134347_rgbf000130-resize_1/001052_2014-06-08_18-24-54_260595134347_rgbf000130-resize_1-target.png,1000,4.1045,6,3578,993,meters,jsons/v1_VE1000_randls_50.json,747351,839413,35,Man
42,780015,DepthScenes,duration_manipulation_targetAtFixation,jsons/v1_VE1000_randls_50.json,http://54.235.29.9/FacialAge/BNav_EC2/DepthDuration/v2_depth_duration_MTurk/v2_DepthDuration_HTML.html#181,181,1366,625,1366,768,9-3-2022,9-38-1,43,depth_duration_stimuli/000906_2014-06-08_13-35-43_260595134347_rgbf000155-resize_1/000906_2014-06-08_13-35-43_260595134347_rgbf000155-resize_1-target.png,1000,2.8489999999999998,8,3603,995,meters,jsons/v1_VE1000_randls_50.json,747351,839413,35,Man
43,780015,DepthScenes,duration_manipulation_targetAtFixation,jsons/v1_VE1000_randls_50.json,http://54.235.29.9/FacialAge/BNav_EC2/DepthDuration/v2_depth_duration_MTurk/v2_DepthDuration_HTML.html#181,181,1366,625,1366,768,9-3-2022,9-38-1,44,depth_duration_stimuli/002805_2014-06-22_19-54-03_094959634447_rgbf000079-resize_1/002805_2014-06-22_19-54-03_094959634447_rgbf000079-resize_1-target.png,1000,3.1439999999999997,9,4147,1000,meters,jsons/v1_VE1000_randls_50.json,747351,839413,35,Man
44,780015,DepthScenes,duration_manipulation_targetAtFixation,jsons/v1_VE1000_randls_50.json,http://54.235.29.9/FacialAge/BNav_EC2/DepthDuration/v2_depth_duration_MTurk/v2_DepthDuration_HTML.html#181,181,1366,625,1366,768,9-3-2022,9-38-1,45,depth_duration_stimuli/000787_2014-06-08_22-33-53_260595134347_rgbf000175-resize_1/000787_2014-06-08_22-33-53_260595134347_rgbf000175-resize-original.jpg,1000,4.784,0,4370,997,meters,jsons/v1_VE1000_randls_50.json,747351,839413,35,Man
45,780015,DepthScenes,duration_manipulation_targetAtFixation,jsons/v1_VE1000_randls_50.json,http://54.235.29.9/FacialAge/BNav_EC2/DepthDuration/v2_depth_duration_MTurk/v2_DepthDuration_HTML.html#181,181,1366,625,1366,768,9-3-2022,9-38-1,46,depth_duration_stimuli/000009_2014-05-26_14-32-05_260595134347_rgbf000034-resize_3/000009_2014-05-26_14-32-05_260595134347_rgbf000034-resize_3-target.png,1000,3.8715,9,4055,998,meters,jsons/v1_VE1000_randls_50.json,747351,839413,35,Man
46,780015,DepthScenes,duration_manipulation_targetAtFixation,jsons/v1_VE1000_randls_50.json,http://54.235.29.9/FacialAge/BNav_EC2/DepthDuration/v2_depth_duration_MTurk/v2_DepthDuration_HTML.html#181,181,1366,625,1366,768,9-3-2022,9-38-1,47,depth_duration_stimuli/001828_2014-06-26_21-40-03_260595134347_rgbf000024-resize_0/001828_2014-06-26_21-40-03_260595134347_rgbf000024-resize_0-target.png,1000,4.8260000000000005,7,4054,998,meters,jsons/v1_VE1000_randls_50.json,747351,839413,35,Man
47,780015,DepthScenes,duration_manipulation_targetAtFixation,jsons/v1_VE1000_randls_50.json,http://54.235.29.9/FacialAge/BNav_EC2/DepthDuration/v2_depth_duration_MTurk/v2_DepthDuration_HTML.html#181,181,1366,625,1366,768,9-3-2022,9-38-1,48,depth_duration_stimuli/002570_2014-06-24_13-59-54_094959634447_rgbf000059-resize_0/002570_2014-06-24_13-59-54_094959634447_rgbf000059-resize_0-target.png,1000,4.037,7,3496,999,meters,jsons/v1_VE1000_randls_50.json,747351,839413,35,Man
48,780015,DepthScenes,duration_manipulation_targetAtFixation,jsons/v1_VE1000_randls_50.json,http://54.235.29.9/FacialAge/BNav_EC2/DepthDuration/v2_depth_duration_MTurk/v2_DepthDuration_HTML.html#181,181,1366,625,1366,768,9-3-2022,9-38-1,49,depth_duration_stimuli/002467_2014-06-28_20-38-07_260595134347_rgbf000026-resize_2/002467_2014-06-28_20-38-07_260595134347_rgbf000026-resize_2-target.png,1000,4.742,6,3560,999,meters,jsons/v1_VE1000_randls_50.json,747351,839413,35,Man
49,780015,DepthScenes,duration_manipulation_targetAtFixation,jsons/v1_VE1000_randls_50.json,http://54.235.29.9/FacialAge/BNav_EC2/DepthDuration/v2_depth_duration_MTurk/v2_DepthDuration_HTML.html#181,181,1366,625,1366,768,9-3-2022,9-38-1,50,depth_duration_stimuli/001150_2014-06-17_15-27-34_260595134347_rgbf000108-resize_2/001150_2014-06-17_15-27-34_260595134347_rgbf000108-resize_2-target.png,1000,4.0325,8,3248,986,meters,jsons/v1_VE1000_randls_50.json,747351,839413,35,Man
50,780015,DepthScenes,duration_manipulation_targetAtFixation,jsons/v1_VE1000_randls_50.json,http://54.235.29.9/FacialAge/BNav_EC2/DepthDuration/v2_depth_duration_MTurk/v2_DepthDuration_HTML.html#181,181,1366,625,1366,768,9-3-2022,9-38-1,51,depth_duration_stimuli/000665_2014-06-09_20-42-35_260595134347_rgbf000110-resize_1/000665_2014-06-09_20-42-35_260595134347_rgbf000110-resize_1-target.png,1000,3.057,8,5591,986,meters,jsons/v1_VE1000_randls_50.json,747351,839413,35,Man
51,780015,DepthScenes,duration_manipulation_targetAtFixation,jsons/v1_VE1000_randls_50.json,http://54.235.29.9/FacialAge/BNav_EC2/DepthDuration/v2_depth_duration_MTurk/v2_DepthDuration_HTML.html#181,181,1366,625,1366,768,9-3-2022,9-38-1,52,depth_duration_stimuli/001011_2014-06-08_23-18-54_260595134347_rgbf000044-resize_4/001011_2014-06-08_23-18-54_260595134347_rgbf000044-resize_4-target.png,1000,2.4730000000000003,8,4143,998,meters,jsons/v1_VE1000_randls_50.json,747351,839413,35,Man
52,780015,DepthScenes,duration_manipulation_targetAtFixation,jsons/v1_VE1000_randls_50.json,http://54.235.29.9/FacialAge/BNav_EC2/DepthDuration/v2_depth_duration_MTurk/v2_DepthDuration_HTML.html#181,181,1366,625,1366,768,9-3-2022,9-38-1,53,depth_duration_stimuli/002875_2014-06-01_15-19-00_094959634447_rgbf000151-resize_1/002875_2014-06-01_15-19-00_094959634447_rgbf000151-resize_1-target.png,1000,1.9675,8,3855,1000,meters,jsons/v1_VE1000_randls_50.json,747351,839413,35,Man
53,780015,DepthScenes,duration_manipulation_targetAtFixation,jsons/v1_VE1000_randls_50.json,http://54.235.29.9/FacialAge/BNav_EC2/DepthDuration/v2_depth_duration_MTurk/v2_DepthDuration_HTML.html#181,181,1366,625,1366,768,9-3-2022,9-38-1,54,depth_duration_stimuli/000773_2014-06-08_22-24-54_260595134347_rgbf000093-resize_1/000773_2014-06-08_22-24-54_260595134347_rgbf000093-resize_1-target.png,1000,4.973,7,14319,998,meters,jsons/v1_VE1000_randls_50.json,747351,839413,35,Man
54,780015,DepthScenes,duration_manipulation_targetAtFixation,jsons/v1_VE1000_randls_50.json,http://54.235.29.9/FacialAge/BNav_EC2/DepthDuration/v2_depth_duration_MTurk/v2_DepthDuration_HTML.html#181,181,1366,625,1366,768,9-3-2022,9-38-1,55,depth_duration_stimuli/002414_2014-06-28_20-24-58_260595134347_rgbf000067-resize_4/002414_2014-06-28_20-24-58_260595134347_rgbf000067-resize_4-target.png,1000,4.363,7,4840,1001,meters,jsons/v1_VE1000_randls_50.json,747351,839413,35,Man
55,780015,DepthScenes,duration_manipulation_targetAtFixation,jsons/v1_VE1000_randls_50.json,http://54.235.29.9/FacialAge/BNav_EC2/DepthDuration/v2_depth_duration_MTurk/v2_DepthDuration_HTML.html#181,181,1366,625,1366,768,9-3-2022,9-38-1,56,depth_duration_stimuli/001110_2014-06-15_17-25-28_260595134347_rgbf000150-resize_1/001110_2014-06-15_17-25-28_260595134347_rgbf000150-resize_1-target.png,1000,1.7115,8,4614,997,meters,jsons/v1_VE1000_randls_50.json,747351,839413,35,Man
56,780015,DepthScenes,duration_manipulation_targetAtFixation,jsons/v1_VE1000_randls_50.json,http://54.235.29.9/FacialAge/BNav_EC2/DepthDuration/v2_depth_duration_MTurk/v2_DepthDuration_HTML.html#181,181,1366,625,1366,768,9-3-2022,9-38-1,57,depth_duration_stimuli/000927_2014-06-09_16-32-30_260595134347_rgbf000123-resize_3/000927_2014-06-09_16-32-30_260595134347_rgbf000123-resize_3-target.png,1000,2.6785,7,3956,998,meters,jsons/v1_VE1000_randls_50.json,747351,839413,35,Man
57,780015,DepthScenes,duration_manipulation_targetAtFixation,jsons/v1_VE1000_randls_50.json,http://54.235.29.9/FacialAge/BNav_EC2/DepthDuration/v2_depth_duration_MTurk/v2_DepthDuration_HTML.html#181,181,1366,625,1366,768,9-3-2022,9-38-1,58,depth_duration_stimuli/002905_2014-06-03_18-04-43_094959634447_rgbf000151-resize_2/002905_2014-06-03_18-04-43_094959634447_rgbf000151-resize_2-target.png,1000,2.0295,8,4043,1000,meters,jsons/v1_VE1000_randls_50.json,747351,839413,35,Man
58,780015,DepthScenes,duration_manipulation_targetAtFixation,jsons/v1_VE1000_randls_50.json,http://54.235.29.9/FacialAge/BNav_EC2/DepthDuration/v2_depth_duration_MTurk/v2_DepthDuration_HTML.html#181,181,1366,625,1366,768,9-3-2022,9-38-1,59,depth_duration_stimuli/003423_2014-05-21_10-23-26_094959634447_rgbf002665-resize_2/003423_2014-05-21_10-23-26_094959634447_rgbf002665-resize_2-target.png,1000,3.2575,6,3913,1000,meters,jsons/v1_VE1000_randls_50.json,747351,839413,35,Man
59,780015,DepthScenes,duration_manipulation_targetAtFixation,jsons/v1_VE1000_randls_50.json,http://54.235.29.9/FacialAge/BNav_EC2/DepthDuration/v2_depth_duration_MTurk/v2_DepthDuration_HTML.html#181,181,1366,625,1366,768,9-3-2022,9-38-1,60,depth_duration_stimuli/001092_2014-06-15_17-34-58_260595134347_rgbf000171-resize_3/001092_2014-06-15_17-34-58_260595134347_rgbf000171-resize_3-target.png,1000,2.6935,6,4042,997,meters,jsons/v1_VE1000_randls_50.json,747351,839413,35,Man
60,780015,DepthScenes,duration_manipulation_targetAtFixation,jsons/v1_VE1000_randls_50.json,http://54.235.29.9/FacialAge/BNav_EC2/DepthDuration/v2_depth_duration_MTurk/v2_DepthDuration_HTML.html#181,181,1366,625,1366,768,9-3-2022,9-38-1,61,depth_duration_stimuli/002545_2014-06-24_13-38-53_094959634447_rgbf000080-resize_4/002545_2014-06-24_13-38-53_094959634447_rgbf000080-resize_4-target.png,1000,1.9205,7,4177,999,meters,jsons/v1_VE1000_randls_50.json,747351,839413,35,Man
61,780015,DepthScenes,duration_manipulation_targetAtFixation,jsons/v1_VE1000_randls_50.json,http://54.235.29.9/FacialAge/BNav_EC2/DepthDuration/v2_depth_duration_MTurk/v2_DepthDuration_HTML.html#181,181,1366,625,1366,768,9-3-2022,9-38-1,62,depth_duration_stimuli/002118_2014-06-25_20-32-08_260595134347_rgbf000078-resize_1/002118_2014-06-25_20-32-08_260595134347_rgbf000078-resize_1-target.png,1000,2.6460000000000004,6,3851,993,meters,jsons/v1_VE1000_randls_50.json,747351,839413,35,Man
62,780015,DepthScenes,duration_manipulation_targetAtFixation,jsons/v1_VE1000_randls_50.json,http://54.235.29.9/FacialAge/BNav_EC2/DepthDuration/v2_depth_duration_MTurk/v2_DepthDuration_HTML.html#181,181,1366,625,1366,768,9-3-2022,9-38-1,63,depth_duration_stimuli/001516_2014-06-20_16-25-09_260595134347_rgbf000076-resize_2/001516_2014-06-20_16-25-09_260595134347_rgbf000076-resize_2-target.png,1000,1.7445,8,4230,994,meters,jsons/v1_VE1000_randls_50.json,747351,839413,35,Man
63,780015,DepthScenes,duration_manipulation_targetAtFixation,jsons/v1_VE1000_randls_50.json,http://54.235.29.9/FacialAge/BNav_EC2/DepthDuration/v2_depth_duration_MTurk/v2_DepthDuration_HTML.html#181,181,1366,625,1366,768,9-3-2022,9-38-1,64,depth_duration_stimuli/001164_2014-06-17_15-35-46_260595134347_rgbf000085-resize_3/001164_2014-06-17_15-35-46_260595134347_rgbf000085-resize_3-target.png,1000,2.354,7,3629,1009,meters,jsons/v1_VE1000_randls_50.json,747351,839413,35,Man
64,780015,DepthScenes,duration_manipulation_targetAtFixation,jsons/v1_VE1000_randls_50.json,http://54.235.29.9/FacialAge/BNav_EC2/DepthDuration/v2_depth_duration_MTurk/v2_DepthDuration_HTML.html#181,181,1366,625,1366,768,9-3-2022,9-38-1,65,depth_duration_stimuli/001136_2014-06-17_15-19-41_260595134347_rgbf000076-resize_3/001136_2014-06-17_15-19-41_260595134347_rgbf000076-resize_3-target.png,1000,1.8655,8,3906,998,meters,jsons/v1_VE1000_randls_50.json,747351,839413,35,Man
65,780015,DepthScenes,duration_manipulation_targetAtFixation,jsons/v1_VE1000_randls_50.json,http://54.235.29.9/FacialAge/BNav_EC2/DepthDuration/v2_depth_duration_MTurk/v2_DepthDuration_HTML.html#181,181,1366,625,1366,768,9-3-2022,9-38-1,66,depth_duration_stimuli/001222_2014-06-17_16-24-06_260595134347_rgbf000073-resize_0/001222_2014-06-17_16-24-06_260595134347_rgbf000073-resize-original.jpg,1000,1.4385,0,4079,1004,meters,jsons/v1_VE1000_randls_50.json,747351,839413,35,Man
66,780015,DepthScenes,duration_manipulation_targetAtFixation,jsons/v1_VE1000_randls_50.json,http://54.235.29.9/FacialAge/BNav_EC2/DepthDuration/v2_depth_duration_MTurk/v2_DepthDuration_HTML.html#181,181,1366,625,1366,768,9-3-2022,9-38-1,67,depth_duration_stimuli/002663_2014-06-13_15-50-26_094959634447_rgbf000075-resize_1/002663_2014-06-13_15-50-26_094959634447_rgbf000075-resize_1-target.png,1000,4.7495,7,7191,1008,meters,jsons/v1_VE1000_randls_50.json,747351,839413,35,Man
67,780015,DepthScenes,duration_manipulation_targetAtFixation,jsons/v1_VE1000_randls_50.json,http://54.235.29.9/FacialAge/BNav_EC2/DepthDuration/v2_depth_duration_MTurk/v2_DepthDuration_HTML.html#181,181,1366,625,1366,768,9-3-2022,9-38-1,68,depth_duration_stimuli/000409_2014-06-04_19-23-33_260595134347_rgbf000067-resize_0/000409_2014-06-04_19-23-33_260595134347_rgbf000067-resize_0-target.png,1000,3.7335,8,3849,993,meters,jsons/v1_VE1000_randls_50.json,747351,839413,35,Man
68,780015,DepthScenes,duration_manipulation_targetAtFixation,jsons/v1_VE1000_randls_50.json,http://54.235.29.9/FacialAge/BNav_EC2/DepthDuration/v2_depth_duration_MTurk/v2_DepthDuration_HTML.html#181,181,1366,625,1366,768,9-3-2022,9-38-1,69,depth_duration_stimuli/002989_2014-06-15_12-25-03_094959634447_rgbf000150-resize_3/002989_2014-06-15_12-25-03_094959634447_rgbf000150-resize_3-target.png,1000,4.1975,7,3967,997,meters,jsons/v1_VE1000_randls_50.json,747351,839413,35,Man
69,780015,DepthScenes,duration_manipulation_targetAtFixation,jsons/v1_VE1000_randls_50.json,http://54.235.29.9/FacialAge/BNav_EC2/DepthDuration/v2_depth_duration_MTurk/v2_DepthDuration_HTML.html#181,181,1366,625,1366,768,9-3-2022,9-38-1,70,depth_duration_stimuli/000866_2014-06-09_20-45-42_260595134347_rgbf000139-resize_1/000866_2014-06-09_20-45-42_260595134347_rgbf000139-resize_1-target.png,1000,3.2155,8,4369,999,meters,jsons/v1_VE1000_randls_50.json,747351,839413,35,Man
70,780015,DepthScenes,duration_manipulation_targetAtFixation,jsons/v1_VE1000_randls_50.json,http://54.235.29.9/FacialAge/BNav_EC2/DepthDuration/v2_depth_duration_MTurk/v2_DepthDuration_HTML.html#181,181,1366,625,1366,768,9-3-2022,9-38-1,71,depth_duration_stimuli/000917_2014-06-09_22-45-29_260595134347_rgbf000149-resize_3/000917_2014-06-09_22-45-29_260595134347_rgbf000149-resize_3-target.png,1000,4.1865,7,4407,998,meters,jsons/v1_VE1000_randls_50.json,747351,839413,35,Man
71,780015,DepthScenes,duration_manipulation_targetAtFixation,jsons/v1_VE1000_randls_50.json,http://54.235.29.9/FacialAge/BNav_EC2/DepthDuration/v2_depth_duration_MTurk/v2_DepthDuration_HTML.html#181,181,1366,625,1366,768,9-3-2022,9-38-1,72,depth_duration_stimuli/002323_2014-06-28_20-01-54_260595134347_rgbf000051-resize_4/002323_2014-06-28_20-01-54_260595134347_rgbf000051-resize_4-target.png,1000,3.7310000000000003,8,3993,1000,meters,jsons/v1_VE1000_randls_50.json,747351,839413,35,Man
72,780015,DepthScenes,duration_manipulation_targetAtFixation,jsons/v1_VE1000_randls_50.json,http://54.235.29.9/FacialAge/BNav_EC2/DepthDuration/v2_depth_duration_MTurk/v2_DepthDuration_HTML.html#181,181,1366,625,1366,768,9-3-2022,9-38-1,73,depth_duration_stimuli/000736_2014-06-08_18-24-15_260595134347_rgbf000206-resize_3/000736_2014-06-08_18-24-15_260595134347_rgbf000206-resize_3-target.png,1000,3.515,7,3860,986,meters,jsons/v1_VE1000_randls_50.json,747351,839413,35,Man
73,780015,DepthScenes,duration_manipulation_targetAtFixation,jsons/v1_VE1000_randls_50.json,http://54.235.29.9/FacialAge/BNav_EC2/DepthDuration/v2_depth_duration_MTurk/v2_DepthDuration_HTML.html#181,181,1366,625,1366,768,9-3-2022,9-38-1,74,depth_duration_stimuli/000137_2014-05-20_17-04-49_260595134347_rgbf000120-resize_1/000137_2014-05-20_17-04-49_260595134347_rgbf000120-resize_1-target.png,1000,3.786,8,4034,983,meters,jsons/v1_VE1000_randls_50.json,747351,839413,35,Man
74,780015,DepthScenes,duration_manipulation_targetAtFixation,jsons/v1_VE1000_randls_50.json,http://54.235.29.9/FacialAge/BNav_EC2/DepthDuration/v2_depth_duration_MTurk/v2_DepthDuration_HTML.html#181,181,1366,625,1366,768,9-3-2022,9-38-1,75,depth_duration_stimuli/001806_2014-06-26_20-50-20_260595134347_rgbf000091-resize_1/001806_2014-06-26_20-50-20_260595134347_rgbf000091-resize_1-target.png,1000,2.7305,8,5480,999,meters,jsons/v1_VE1000_randls_50.json,747351,839413,35,Man
75,780015,DepthScenes,duration_manipulation_targetAtFixation,jsons/v1_VE1000_randls_50.json,http://54.235.29.9/FacialAge/BNav_EC2/DepthDuration/v2_depth_duration_MTurk/v2_DepthDuration_HTML.html#181,181,1366,625,1366,768,9-3-2022,9-38-1,76,depth_duration_stimuli/001617_2014-06-20_11-35-32_260595134347_rgbf000066-resize_1/001617_2014-06-20_11-35-32_260595134347_rgbf000066-resize_1-target.png,1000,3.7910000000000004,6,4823,997,meters,jsons/v1_VE1000_randls_50.json,747351,839413,35,Man
76,780015,DepthScenes,duration_manipulation_targetAtFixation,jsons/v1_VE1000_randls_50.json,http://54.235.29.9/FacialAge/BNav_EC2/DepthDuration/v2_depth_duration_MTurk/v2_DepthDuration_HTML.html#181,181,1366,625,1366,768,9-3-2022,9-38-1,77,depth_duration_stimuli/000692_2014-06-08_13-09-42_260595134347_rgbf000199-resize_2/000692_2014-06-08_13-09-42_260595134347_rgbf000199-resize_2-target.png,1000,3.661,8,4583,996,meters,jsons/v1_VE1000_randls_50.json,747351,839413,35,Man
77,780015,DepthScenes,duration_manipulation_targetAtFixation,jsons/v1_VE1000_randls_50.json,http://54.235.29.9/FacialAge/BNav_EC2/DepthDuration/v2_depth_duration_MTurk/v2_DepthDuration_HTML.html#181,181,1366,625,1366,768,9-3-2022,9-38-1,78,depth_duration_stimuli/001094_2014-06-15_17-36-00_260595134347_rgbf000205-resize_0/001094_2014-06-15_17-36-00_260595134347_rgbf000205-resize_0-target.png,1000,4.2175,7,4329,999,meters,jsons/v1_VE1000_randls_50.json,747351,839413,35,Man
78,780015,DepthScenes,duration_manipulation_targetAtFixation,jsons/v1_VE1000_randls_50.json,http://54.235.29.9/FacialAge/BNav_EC2/DepthDuration/v2_depth_duration_MTurk/v2_DepthDuration_HTML.html#181,181,1366,625,1366,768,9-3-2022,9-38-1,79,depth_duration_stimuli/003534_2014-05-22_15-06-10_094959634447_rgbf000102-resize_4/003534_2014-05-22_15-06-10_094959634447_rgbf000102-resize_4-target.png,1000,1.426,7,4589,1004,meters,jsons/v1_VE1000_randls_50.json,747351,839413,35,Man
79,780015,DepthScenes,duration_manipulation_targetAtFixation,jsons/v1_VE1000_randls_50.json,http://54.235.29.9/FacialAge/BNav_EC2/DepthDuration/v2_depth_duration_MTurk/v2_DepthDuration_HTML.html#181,181,1366,625,1366,768,9-3-2022,9-38-1,80,depth_duration_stimuli/002637_2014-06-24_14-51-13_094959634447_rgbf000066-resize_4/002637_2014-06-24_14-51-13_094959634447_rgbf000066-resize_4-target.png,1000,1.9955,8,3801,1010,meters,jsons/v1_VE1000_randls_50.json,747351,839413,35,Man
80,780015,DepthScenes,duration_manipulation_targetAtFixation,jsons/v1_VE1000_randls_50.json,http://54.235.29.9/FacialAge/BNav_EC2/DepthDuration/v2_depth_duration_MTurk/v2_DepthDuration_HTML.html#181,181,1366,625,1366,768,9-3-2022,9-38-1,81,depth_duration_stimuli/001417_2014-06-19_16-25-36_260595134347_rgbf000115-resize_5/001417_2014-06-19_16-25-36_260595134347_rgbf000115-resize_5-target.png,1000,4.6255,7,4468,995,meters,jsons/v1_VE1000_randls_50.json,747351,839413,35,Man
81,780015,DepthScenes,duration_manipulation_targetAtFixation,jsons/v1_VE1000_randls_50.json,http://54.235.29.9/FacialAge/BNav_EC2/DepthDuration/v2_depth_duration_MTurk/v2_DepthDuration_HTML.html#181,181,1366,625,1366,768,9-3-2022,9-38-1,82,depth_duration_stimuli/003081_2014-06-15_15-19-16_094959634447_rgbf000150-resize_1/003081_2014-06-15_15-19-16_094959634447_rgbf000150-resize_1-target.png,1000,3.9125,8,4162,993,meters,jsons/v1_VE1000_randls_50.json,747351,839413,35,Man
82,780015,DepthScenes,duration_manipulation_targetAtFixation,jsons/v1_VE1000_randls_50.json,http://54.235.29.9/FacialAge/BNav_EC2/DepthDuration/v2_depth_duration_MTurk/v2_DepthDuration_HTML.html#181,181,1366,625,1366,768,9-3-2022,9-38-1,83,depth_duration_stimuli/000486_2014-06-09_20-47-20_260595134347_rgbf000143-resize_2/000486_2014-06-09_20-47-20_260595134347_rgbf000143-resize_2-target.png,1000,4.8325,8,3620,993,meters,jsons/v1_VE1000_randls_50.json,747351,839413,35,Man
83,780015,DepthScenes,duration_manipulation_targetAtFixation,jsons/v1_VE1000_randls_50.json,http://54.235.29.9/FacialAge/BNav_EC2/DepthDuration/v2_depth_duration_MTurk/v2_DepthDuration_HTML.html#181,181,1366,625,1366,768,9-3-2022,9-38-1,84,depth_duration_stimuli/003083_2014-06-15_15-21-03_094959634447_rgbf000063-resize_1/003083_2014-06-15_15-21-03_094959634447_rgbf000063-resize_1-target.png,1000,4.1405,7,3495,997,meters,jsons/v1_VE1000_randls_50.json,747351,839413,35,Man
84,780015,DepthScenes,duration_manipulation_targetAtFixation,jsons/v1_VE1000_randls_50.json,http://54.235.29.9/FacialAge/BNav_EC2/DepthDuration/v2_depth_duration_MTurk/v2_DepthDuration_HTML.html#181,181,1366,625,1366,768,9-3-2022,9-38-1,85,depth_duration_stimuli/000522_2014-06-08_13-35-06_260595134347_rgbf000244-resize_1/000522_2014-06-08_13-35-06_260595134347_rgbf000244-resize_1-target.png,1000,2.3715,8,3528,999,meters,jsons/v1_VE1000_randls_50.json,747351,839413,35,Man
85,780015,DepthScenes,duration_manipulation_targetAtFixation,jsons/v1_VE1000_randls_50.json,http://54.235.29.9/FacialAge/BNav_EC2/DepthDuration/v2_depth_duration_MTurk/v2_DepthDuration_HTML.html#181,181,1366,625,1366,768,9-3-2022,9-38-1,86,depth_duration_stimuli/002949_2014-06-26_15-57-42_094959634447_rgbf000079-resize_1/002949_2014-06-26_15-57-42_094959634447_rgbf000079-resize_1-target.png,1000,1.8915,7,4229,1005,meters,jsons/v1_VE1000_randls_50.json,747351,839413,35,Man
86,780015,DepthScenes,duration_manipulation_targetAtFixation,jsons/v1_VE1000_randls_50.json,http://54.235.29.9/FacialAge/BNav_EC2/DepthDuration/v2_depth_duration_MTurk/v2_DepthDuration_HTML.html#181,181,1366,625,1366,768,9-3-2022,9-38-1,87,depth_duration_stimuli/000739_2014-06-08_18-45-58_260595134347_rgbf000068-resize_1/000739_2014-06-08_18-45-58_260595134347_rgbf000068-resize_1-target.png,1000,3.534,8,3895,993,meters,jsons/v1_VE1000_randls_50.json,747351,839413,35,Man
87,780015,DepthScenes,duration_manipulation_targetAtFixation,jsons/v1_VE1000_randls_50.json,http://54.235.29.9/FacialAge/BNav_EC2/DepthDuration/v2_depth_duration_MTurk/v2_DepthDuration_HTML.html#181,181,1366,625,1366,768,9-3-2022,9-38-1,88,depth_duration_stimuli/000734_2014-06-08_17-39-11_260595134347_rgbf000128-resize_2/000734_2014-06-08_17-39-11_260595134347_rgbf000128-resize_2-target.png,1000,4.098,8,4076,990,meters,jsons/v1_VE1000_randls_50.json,747351,839413,35,Man
88,780015,DepthScenes,duration_manipulation_targetAtFixation,jsons/v1_VE1000_randls_50.json,http://54.235.29.9/FacialAge/BNav_EC2/DepthDuration/v2_depth_duration_MTurk/v2_DepthDuration_HTML.html#181,181,1366,625,1366,768,9-3-2022,9-38-1,89,depth_duration_stimuli/001016_2014-06-09_16-16-10_260595134347_rgbf000112-resize_5/001016_2014-06-09_16-16-10_260595134347_rgbf000112-resize_5-target.png,1000,1.6565,6,4486,990,meters,jsons/v1_VE1000_randls_50.json,747351,839413,35,Man
89,780015,DepthScenes,duration_manipulation_targetAtFixation,jsons/v1_VE1000_randls_50.json,http://54.235.29.9/FacialAge/BNav_EC2/DepthDuration/v2_depth_duration_MTurk/v2_DepthDuration_HTML.html#181,181,1366,625,1366,768,9-3-2022,9-38-1,90,depth_duration_stimuli/002340_2014-06-28_20-05-46_260595134347_rgbf000113-resize_0/002340_2014-06-28_20-05-46_260595134347_rgbf000113-resize_0-target.png,1000,2.4735,7,4121,1002,meters,jsons/v1_VE1000_randls_50.json,747351,839413,35,Man
90,780015,DepthScenes,duration_manipulation_targetAtFixation,jsons/v1_VE1000_randls_50.json,http://54.235.29.9/FacialAge/BNav_EC2/DepthDuration/v2_depth_duration_MTurk/v2_DepthDuration_HTML.html#181,181,1366,625,1366,768,9-3-2022,9-38-1,91,depth_duration_stimuli/001158_2014-06-17_15-32-16_260595134347_rgbf000138-resize_2/001158_2014-06-17_15-32-16_260595134347_rgbf000138-resize_2-target.png,1000,4.5315,9,3678,998,meters,jsons/v1_VE1000_randls_50.json,747351,839413,35,Man
91,780015,DepthScenes,duration_manipulation_targetAtFixation,jsons/v1_VE1000_randls_50.json,http://54.235.29.9/FacialAge/BNav_EC2/DepthDuration/v2_depth_duration_MTurk/v2_DepthDuration_HTML.html#181,181,1366,625,1366,768,9-3-2022,9-38-1,92,depth_duration_stimuli/000556_2014-06-09_22-42-56_260595134347_rgbf000214-resize_1/000556_2014-06-09_22-42-56_260595134347_rgbf000214-resize_1-target.png,1000,4.8415,7,3771,999,meters,jsons/v1_VE1000_randls_50.json,747351,839413,35,Man
92,780015,DepthScenes,duration_manipulation_targetAtFixation,jsons/v1_VE1000_randls_50.json,http://54.235.29.9/FacialAge/BNav_EC2/DepthDuration/v2_depth_duration_MTurk/v2_DepthDuration_HTML.html#181,181,1366,625,1366,768,9-3-2022,9-38-1,93,depth_duration_stimuli/000810_2014-06-08_17-20-01_260595134347_rgbf000105-resize_0/000810_2014-06-08_17-20-01_260595134347_rgbf000105-resize_0-target.png,1000,1.4865,8,4748,984,meters,jsons/v1_VE1000_randls_50.json,747351,839413,35,Man
93,780015,DepthScenes,duration_manipulation_targetAtFixation,jsons/v1_VE1000_randls_50.json,http://54.235.29.9/FacialAge/BNav_EC2/DepthDuration/v2_depth_duration_MTurk/v2_DepthDuration_HTML.html#181,181,1366,625,1366,768,9-3-2022,9-38-1,94,depth_duration_stimuli/001214_2014-06-17_16-13-55_260595134347_rgbf000111-resize_0/001214_2014-06-17_16-13-55_260595134347_rgbf000111-resize_0-target.png,1000,2.6505,7,4295,997,meters,jsons/v1_VE1000_randls_50.json,747351,839413,35,Man
94,780015,DepthScenes,duration_manipulation_targetAtFixation,jsons/v1_VE1000_randls_50.json,http://54.235.29.9/FacialAge/BNav_EC2/DepthDuration/v2_depth_duration_MTurk/v2_DepthDuration_HTML.html#181,181,1366,625,1366,768,9-3-2022,9-38-1,95,depth_duration_stimuli/000506_2014-06-08_23-21-00_260595134347_rgbf000070-resize_7/000506_2014-06-08_23-21-00_260595134347_rgbf000070-resize_7-target.png,1000,4.0585,8,4102,992,meters,jsons/v1_VE1000_randls_50.json,747351,839413,35,Man
95,780015,DepthScenes,duration_manipulation_targetAtFixation,jsons/v1_VE1000_randls_50.json,http://54.235.29.9/FacialAge/BNav_EC2/DepthDuration/v2_depth_duration_MTurk/v2_DepthDuration_HTML.html#181,181,1366,625,1366,768,9-3-2022,9-38-1,96,depth_duration_stimuli/003079_2014-06-15_15-18-20_094959634447_rgbf000152-resize_8/003079_2014-06-15_15-18-20_094959634447_rgbf000152-resize_8-target.png,1000,2.8775,8,4017,999,meters,jsons/v1_VE1000_randls_50.json,747351,839413,35,Man
96,780015,DepthScenes,duration_manipulation_targetAtFixation,jsons/v1_VE1000_randls_50.json,http://54.235.29.9/FacialAge/BNav_EC2/DepthDuration/v2_depth_duration_MTurk/v2_DepthDuration_HTML.html#181,181,1366,625,1366,768,9-3-2022,9-38-1,97,depth_duration_stimuli/001167_2014-06-17_15-38-07_260595134347_rgbf000108-resize_0/001167_2014-06-17_15-38-07_260595134347_rgbf000108-resize_0-target.png,1000,1.8505,8,3770,997,meters,jsons/v1_VE1000_randls_50.json,747351,839413,35,Man
97,780015,DepthScenes,duration_manipulation_targetAtFixation,jsons/v1_VE1000_randls_50.json,http://54.235.29.9/FacialAge/BNav_EC2/DepthDuration/v2_depth_duration_MTurk/v2_DepthDuration_HTML.html#181,181,1366,625,1366,768,9-3-2022,9-38-1,98,depth_duration_stimuli/003587_2014-05-23_16-48-02_094959634447_rgbf002384-resize_2/003587_2014-05-23_16-48-02_094959634447_rgbf002384-resize_2-target.png,1000,1.357,8,3818,998,meters,jsons/v1_VE1000_randls_50.json,747351,839413,35,Man
98,780015,DepthScenes,duration_manipulation_targetAtFixation,jsons/v1_VE1000_randls_50.json,http://54.235.29.9/FacialAge/BNav_EC2/DepthDuration/v2_depth_duration_MTurk/v2_DepthDuration_HTML.html#181,181,1366,625,1366,768,9-3-2022,9-38-1,99,depth_duration_stimuli/001540_2014-06-20_17-01-05_260595134347_rgbf000086-resize_2/001540_2014-06-20_17-01-05_260595134347_rgbf000086-resize-original.jpg,1000,1.459,0,3564,993,meters,jsons/v1_VE1000_randls_50.json,747351,839413,35,Man
99,780015,DepthScenes,duration_manipulation_targetAtFixation,jsons/v1_VE1000_randls_50.json,http://54.235.29.9/FacialAge/BNav_EC2/DepthDuration/v2_depth_duration_MTurk/v2_DepthDuration_HTML.html#181,181,1366,625,1366,768,9-3-2022,9-38-1,100,depth_duration_stimuli/001810_2014-06-26_20-51-35_260595134347_rgbf000040-resize_3/001810_2014-06-26_20-51-35_260595134347_rgbf000040-resize_3-target.png,1000,2.2525,8,3562,992,meters,jsons/v1_VE1000_randls_50.json,747351,839413,35,Man
100,780015,DepthScenes,duration_manipulation_targetAtFixation,jsons/v1_VE1000_randls_50.json,http://54.235.29.9/FacialAge/BNav_EC2/DepthDuration/v2_depth_duration_MTurk/v2_DepthDuration_HTML.html#181,181,1366,625,1366,768,9-3-2022,9-38-1,101,depth_duration_stimuli/003010_2014-06-15_12-54-35_094959634447_rgbf000112-resize_0/003010_2014-06-15_12-54-35_094959634447_rgbf000112-resize_0-target.png,1000,3.1185,7,4048,997,meters,jsons/v1_VE1000_randls_50.json,747351,839413,35,Man
101,780015,DepthScenes,duration_manipulation_targetAtFixation,jsons/v1_VE1000_randls_50.json,http://54.235.29.9/FacialAge/BNav_EC2/DepthDuration/v2_depth_duration_MTurk/v2_DepthDuration_HTML.html#181,181,1366,625,1366,768,9-3-2022,9-38-1,102,depth_duration_stimuli/000788_2014-06-08_22-34-36_260595134347_rgbf000131-resize_1/000788_2014-06-08_22-34-36_260595134347_rgbf000131-resize_1-target.png,1000,3.359,8,3628,995,meters,jsons/v1_VE1000_randls_50.json,747351,839413,35,Man
102,780015,DepthScenes,duration_manipulation_targetAtFixation,jsons/v1_VE1000_randls_50.json,http://54.235.29.9/FacialAge/BNav_EC2/DepthDuration/v2_depth_duration_MTurk/v2_DepthDuration_HTML.html#181,181,1366,625,1366,768,9-3-2022,9-38-1,103,depth_duration_stimuli/001235_2014-06-17_16-37-36_260595134347_rgbf000084-resize_4/001235_2014-06-17_16-37-36_260595134347_rgbf000084-resize_4-target.png,1000,3.6605,7,3530,984,meters,jsons/v1_VE1000_randls_50.json,747351,839413,35,Man
103,780015,DepthScenes,duration_manipulation_targetAtFixation,jsons/v1_VE1000_randls_50.json,http://54.235.29.9/FacialAge/BNav_EC2/DepthDuration/v2_depth_duration_MTurk/v2_DepthDuration_HTML.html#181,181,1366,625,1366,768,9-3-2022,9-38-1,104,depth_duration_stimuli/000436_2014-06-09_22-25-11_260595134347_rgbf000137-resize_1/000436_2014-06-09_22-25-11_260595134347_rgbf000137-resize_1-target.png,1000,4.0705,8,3644,987,meters,jsons/v1_VE1000_randls_50.json,747351,839413,35,Man
104,780015,DepthScenes,duration_manipulation_targetAtFixation,jsons/v1_VE1000_randls_50.json,http://54.235.29.9/FacialAge/BNav_EC2/DepthDuration/v2_depth_duration_MTurk/v2_DepthDuration_HTML.html#181,181,1366,625,1366,768,9-3-2022,9-38-1,105,depth_duration_stimuli/002444_2014-06-28_20-32-08_260595134347_rgbf000027-resize_0/002444_2014-06-28_20-32-08_260595134347_rgbf000027-resize_0-target.png,1000,4.388999999999999,8,4174,988,meters,jsons/v1_VE1000_randls_50.json,747351,839413,35,Man
105,780015,DepthScenes,duration_manipulation_targetAtFixation,jsons/v1_VE1000_randls_50.json,http://54.235.29.9/FacialAge/BNav_EC2/DepthDuration/v2_depth_duration_MTurk/v2_DepthDuration_HTML.html#181,181,1366,625,1366,768,9-3-2022,9-38-1,106,depth_duration_stimuli/002445_2014-06-28_20-32-16_260595134347_rgbf000029-resize_4/002445_2014-06-28_20-32-16_260595134347_rgbf000029-resize_4-target.png,1000,2.5315,8,6328,967,meters,jsons/v1_VE1000_randls_50.json,747351,839413,35,Man
106,780015,DepthScenes,duration_manipulation_targetAtFixation,jsons/v1_VE1000_randls_50.json,http://54.235.29.9/FacialAge/BNav_EC2/DepthDuration/v2_depth_duration_MTurk/v2_DepthDuration_HTML.html#181,181,1366,625,1366,768,9-3-2022,9-38-1,107,depth_duration_stimuli/000780_2014-06-08_22-28-29_260595134347_rgbf000126-resize_1/000780_2014-06-08_22-28-29_260595134347_rgbf000126-resize_1-target.png,1000,3.3825,7,3962,991,meters,jsons/v1_VE1000_randls_50.json,747351,839413,35,Man
107,780015,DepthScenes,duration_manipulation_targetAtFixation,jsons/v1_VE1000_randls_50.json,http://54.235.29.9/FacialAge/BNav_EC2/DepthDuration/v2_depth_duration_MTurk/v2_DepthDuration_HTML.html#181,181,1366,625,1366,768,9-3-2022,9-38-1,108,depth_duration_stimuli/002043_2014-06-24_20-29-38_260595134347_rgbf000039-resize_4/002043_2014-06-24_20-29-38_260595134347_rgbf000039-resize_4-target.png,1000,2.8435,8,3910,993,meters,jsons/v1_VE1000_randls_50.json,747351,839413,35,Man
108,780015,DepthScenes,duration_manipulation_targetAtFixation,jsons/v1_VE1000_randls_50.json,http://54.235.29.9/FacialAge/BNav_EC2/DepthDuration/v2_depth_duration_MTurk/v2_DepthDuration_HTML.html#181,181,1366,625,1366,768,9-3-2022,9-38-1,109,depth_duration_stimuli/003048_2014-06-15_13-49-43_094959634447_rgbf000150-resize_1/003048_2014-06-15_13-49-43_094959634447_rgbf000150-resize_1-target.png,1000,4.0035,9,4051,999,meters,jsons/v1_VE1000_randls_50.json,747351,839413,35,Man
109,780015,DepthScenes,duration_manipulation_targetAtFixation,jsons/v1_VE1000_randls_50.json,http://54.235.29.9/FacialAge/BNav_EC2/DepthDuration/v2_depth_duration_MTurk/v2_DepthDuration_HTML.html#181,181,1366,625,1366,768,9-3-2022,9-38-1,110,depth_duration_stimuli/001133_2014-06-17_14-49-16_260595134347_rgbf000100-resize_0/001133_2014-06-17_14-49-16_260595134347_rgbf000100-resize_0-target.png,1000,4.2115,9,3310,1008,meters,jsons/v1_VE1000_randls_50.json,747351,839413,35,Man
110,780015,DepthScenes,duration_manipulation_targetAtFixation,jsons/v1_VE1000_randls_50.json,http://54.235.29.9/FacialAge/BNav_EC2/DepthDuration/v2_depth_duration_MTurk/v2_DepthDuration_HTML.html#181,181,1366,625,1366,768,9-3-2022,9-38-1,111,depth_duration_stimuli/001132_2014-06-17_14-48-54_260595134347_rgbf000100-resize_2/001132_2014-06-17_14-48-54_260595134347_rgbf000100-resize_2-target.png,1000,3.753,7,4444,990,meters,jsons/v1_VE1000_randls_50.json,747351,839413,35,Man
111,780015,DepthScenes,duration_manipulation_targetAtFixation,jsons/v1_VE1000_randls_50.json,http://54.235.29.9/FacialAge/BNav_EC2/DepthDuration/v2_depth_duration_MTurk/v2_DepthDuration_HTML.html#181,181,1366,625,1366,768,9-3-2022,9-38-1,112,depth_duration_stimuli/001808_2014-06-26_20-50-58_260595134347_rgbf000029-resize_1/001808_2014-06-26_20-50-58_260595134347_rgbf000029-resize_1-target.png,1000,4.249,7,4351,996,meters,jsons/v1_VE1000_randls_50.json,747351,839413,35,Man
112,780015,DepthScenes,duration_manipulation_targetAtFixation,jsons/v1_VE1000_randls_50.json,http://54.235.29.9/FacialAge/BNav_EC2/DepthDuration/v2_depth_duration_MTurk/v2_DepthDuration_HTML.html#181,181,1366,625,1366,768,9-3-2022,9-38-1,113,depth_duration_stimuli/001815_2014-06-26_20-52-55_260595134347_rgbf000020-resize_0/001815_2014-06-26_20-52-55_260595134347_rgbf000020-resize_0-target.png,1000,3.3865,8,3770,993,meters,jsons/v1_VE1000_randls_50.json,747351,839413,35,Man
113,780015,DepthScenes,duration_manipulation_targetAtFixation,jsons/v1_VE1000_randls_50.json,http://54.235.29.9/FacialAge/BNav_EC2/DepthDuration/v2_depth_duration_MTurk/v2_DepthDuration_HTML.html#181,181,1366,625,1366,768,9-3-2022,9-38-1,114,depth_duration_stimuli/001055_2014-06-08_18-45-35_260595134347_rgbf000111-resize_4/001055_2014-06-08_18-45-35_260595134347_rgbf000111-resize_4-target.png,1000,2.4290000000000003,8,4058,994,meters,jsons/v1_VE1000_randls_50.json,747351,839413,35,Man
114,780015,DepthScenes,duration_manipulation_targetAtFixation,jsons/v1_VE1000_randls_50.json,http://54.235.29.9/FacialAge/BNav_EC2/DepthDuration/v2_depth_duration_MTurk/v2_DepthDuration_HTML.html#181,181,1366,625,1366,768,9-3-2022,9-38-1,115,depth_duration_stimuli/000549_2014-06-08_22-10-24_260595134347_rgbf000247-resize_3/000549_2014-06-08_22-10-24_260595134347_rgbf000247-resize_3-target.png,1000,1.841,7,3702,994,meters,jsons/v1_VE1000_randls_50.json,747351,839413,35,Man
115,780015,DepthScenes,duration_manipulation_targetAtFixation,jsons/v1_VE1000_randls_50.json,http://54.235.29.9/FacialAge/BNav_EC2/DepthDuration/v2_depth_duration_MTurk/v2_DepthDuration_HTML.html#181,181,1366,625,1366,768,9-3-2022,9-38-1,116,depth_duration_stimuli/001170_2014-06-17_15-43-44_260595134347_rgbf000096-resize_6/001170_2014-06-17_15-43-44_260595134347_rgbf000096-resize-original.jpg,1000,1.1909999999999998,0,3750,1002,meters,jsons/v1_VE1000_randls_50.json,747351,839413,35,Man
116,780015,DepthScenes,duration_manipulation_targetAtFixation,jsons/v1_VE1000_randls_50.json,http://54.235.29.9/FacialAge/BNav_EC2/DepthDuration/v2_depth_duration_MTurk/v2_DepthDuration_HTML.html#181,181,1366,625,1366,768,9-3-2022,9-38-1,117,depth_duration_stimuli/001066_2014-06-08_22-03-20_260595134347_rgbf000066-resize_4/001066_2014-06-08_22-03-20_260595134347_rgbf000066-resize_4-target.png,1000,4.2330000000000005,8,4520,995,meters,jsons/v1_VE1000_randls_50.json,747351,839413,35,Man
117,780015,DepthScenes,duration_manipulation_targetAtFixation,jsons/v1_VE1000_randls_50.json,http://54.235.29.9/FacialAge/BNav_EC2/DepthDuration/v2_depth_duration_MTurk/v2_DepthDuration_HTML.html#181,181,1366,625,1366,768,9-3-2022,9-38-1,118,depth_duration_stimuli/000742_2014-06-08_18-48-09_260595134347_rgbf000164-resize_4/000742_2014-06-08_18-48-09_260595134347_rgbf000164-resize_4-target.png,1000,4.632,6,3425,991,meters,jsons/v1_VE1000_randls_50.json,747351,839413,35,Man
118,780015,DepthScenes,duration_manipulation_targetAtFixation,jsons/v1_VE1000_randls_50.json,http://54.235.29.9/FacialAge/BNav_EC2/DepthDuration/v2_depth_duration_MTurk/v2_DepthDuration_HTML.html#181,181,1366,625,1366,768,9-3-2022,9-38-1,119,depth_duration_stimuli/000493_2014-06-09_21-01-18_260595134347_rgbf000196-resize_3/000493_2014-06-09_21-01-18_260595134347_rgbf000196-resize_3-target.png,1000,3.44,7,3603,983,meters,jsons/v1_VE1000_randls_50.json,747351,839413,35,Man
119,780015,DepthScenes,duration_manipulation_targetAtFixation,jsons/v1_VE1000_randls_50.json,http://54.235.29.9/FacialAge/BNav_EC2/DepthDuration/v2_depth_duration_MTurk/v2_DepthDuration_HTML.html#181,181,1366,625,1366,768,9-3-2022,9-38-1,120,depth_duration_stimuli/000191_2014-05-12_17-07-38_260595134347_rgbf000199-resize_0/000191_2014-05-12_17-07-38_260595134347_rgbf000199-resize_0-target.png,1000,3.7995,7,3444,1007,meters,jsons/v1_VE1000_randls_50.json,747351,839413,35,Man
120,780015,DepthScenes,duration_manipulation_targetAtFixation,jsons/v1_VE1000_randls_50.json,http://54.235.29.9/FacialAge/BNav_EC2/DepthDuration/v2_depth_duration_MTurk/v2_DepthDuration_HTML.html#181,181,1366,625,1366,768,9-3-2022,9-38-1,121,depth_duration_stimuli/001570_2014-06-20_17-21-09_260595134347_rgbf000135-resize_4/001570_2014-06-20_17-21-09_260595134347_rgbf000135-resize_4-target.png,1000,4.467,8,3324,997,meters,jsons/v1_VE1000_randls_50.json,747351,839413,35,Man
121,780015,DepthScenes,duration_manipulation_targetAtFixation,jsons/v1_VE1000_randls_50.json,http://54.235.29.9/FacialAge/BNav_EC2/DepthDuration/v2_depth_duration_MTurk/v2_DepthDuration_HTML.html#181,181,1366,625,1366,768,9-3-2022,9-38-1,122,depth_duration_stimuli/001392_2014-06-19_16-07-59_260595134347_rgbf000046-resize_1/001392_2014-06-19_16-07-59_260595134347_rgbf000046-resize_1-target.png,1000,4.135,8,3302,1004,meters,jsons/v1_VE1000_randls_50.json,747351,839413,35,Man
122,780015,DepthScenes,duration_manipulation_targetAtFixation,jsons/v1_VE1000_randls_50.json,http://54.235.29.9/FacialAge/BNav_EC2/DepthDuration/v2_depth_duration_MTurk/v2_DepthDuration_HTML.html#181,181,1366,625,1366,768,9-3-2022,9-38-1,123,depth_duration_stimuli/000469_2014-06-09_19-42-10_260595134347_rgbf000081-resize_1/000469_2014-06-09_19-42-10_260595134347_rgbf000081-resize_1-target.png,1000,1.652,6,3678,1009,meters,jsons/v1_VE1000_randls_50.json,747351,839413,35,Man
123,780015,DepthScenes,duration_manipulation_targetAtFixation,jsons/v1_VE1000_randls_50.json,http://54.235.29.9/FacialAge/BNav_EC2/DepthDuration/v2_depth_duration_MTurk/v2_DepthDuration_HTML.html#181,181,1366,625,1366,768,9-3-2022,9-38-1,124,depth_duration_stimuli/000483_2014-06-09_20-41-45_260595134347_rgbf000116-resize_4/000483_2014-06-09_20-41-45_260595134347_rgbf000116-resize_4-target.png,1000,1.337,6,3925,997,meters,jsons/v1_VE1000_randls_50.json,747351,839413,35,Man
124,780015,DepthScenes,duration_manipulation_targetAtFixation,jsons/v1_VE1000_randls_50.json,http://54.235.29.9/FacialAge/BNav_EC2/DepthDuration/v2_depth_duration_MTurk/v2_DepthDuration_HTML.html#181,181,1366,625,1366,768,9-3-2022,9-38-1,125,depth_duration_stimuli/002213_2014-06-28_18-37-58_260595134347_rgbf000055-resize_1/002213_2014-06-28_18-37-58_260595134347_rgbf000055-resize_1-target.png,1000,3.62,8,4124,997,meters,jsons/v1_VE1000_randls_50.json,747351,839413,35,Man
125,780015,DepthScenes,duration_manipulation_targetAtFixation,jsons/v1_VE1000_randls_50.json,http://54.235.29.9/FacialAge/BNav_EC2/DepthDuration/v2_depth_duration_MTurk/v2_DepthDuration_HTML.html#181,181,1366,625,1366,768,9-3-2022,9-38-1,126,depth_duration_stimuli/000691_2014-06-08_13-08-50_260595134347_rgbf000132-resize_3/000691_2014-06-08_13-08-50_260595134347_rgbf000132-resize_3-target.png,1000,4.1530000000000005,7,3654,999,meters,jsons/v1_VE1000_randls_50.json,747351,839413,35,Man
126,780015,DepthScenes,duration_manipulation_targetAtFixation,jsons/v1_VE1000_randls_50.json,http://54.235.29.9/FacialAge/BNav_EC2/DepthDuration/v2_depth_duration_MTurk/v2_DepthDuration_HTML.html#181,181,1366,625,1366,768,9-3-2022,9-38-1,127,depth_duration_stimuli/002057_2014-06-24_21-00-13_260595134347_rgbf000120-resize_1/002057_2014-06-24_21-00-13_260595134347_rgbf000120-resize_1-target.png,1000,2.967,7,3581,1001,meters,jsons/v1_VE1000_randls_50.json,747351,839413,35,Man
127,780015,DepthScenes,duration_manipulation_targetAtFixation,jsons/v1_VE1000_randls_50.json,http://54.235.29.9/FacialAge/BNav_EC2/DepthDuration/v2_depth_duration_MTurk/v2_DepthDuration_HTML.html#181,181,1366,625,1366,768,9-3-2022,9-38-1,128,depth_duration_stimuli/000709_2014-06-08_13-51-55_260595134347_rgbf000068-resize_3/000709_2014-06-08_13-51-55_260595134347_rgbf000068-resize_3-target.png,1000,1.8030000000000002,8,3611,998,meters,jsons/v1_VE1000_randls_50.json,747351,839413,35,Man
128,780015,DepthScenes,duration_manipulation_targetAtFixation,jsons/v1_VE1000_randls_50.json,http://54.235.29.9/FacialAge/BNav_EC2/DepthDuration/v2_depth_duration_MTurk/v2_DepthDuration_HTML.html#181,181,1366,625,1366,768,9-3-2022,9-38-1,129,depth_duration_stimuli/002964_2014-06-08_17-46-11_094959634447_rgbf000091-resize_4/002964_2014-06-08_17-46-11_094959634447_rgbf000091-resize_4-target.png,1000,1.6909999999999998,8,4053,996,meters,jsons/v1_VE1000_randls_50.json,747351,839413,35,Man
129,780015,DepthScenes,duration_manipulation_targetAtFixation,jsons/v1_VE1000_randls_50.json,http://54.235.29.9/FacialAge/BNav_EC2/DepthDuration/v2_depth_duration_MTurk/v2_DepthDuration_HTML.html#181,181,1366,625,1366,768,9-3-2022,9-38-1,130,depth_duration_stimuli/002136_2014-06-25_21-18-03_260595134347_rgbf000109-resize_3/002136_2014-06-25_21-18-03_260595134347_rgbf000109-resize_3-target.png,1000,1.9569999999999999,7,3867,1003,meters,jsons/v1_VE1000_randls_50.json,747351,839413,35,Man
130,780015,DepthScenes,duration_manipulation_targetAtFixation,jsons/v1_VE1000_randls_50.json,http://54.235.29.9/FacialAge/BNav_EC2/DepthDuration/v2_depth_duration_MTurk/v2_DepthDuration_HTML.html#181,181,1366,625,1366,768,9-3-2022,9-38-1,131,depth_duration_stimuli/001449_2014-06-19_17-01-27_260595134347_rgbf000116-resize_2/001449_2014-06-19_17-01-27_260595134347_rgbf000116-resize_2-target.png,1000,3.452,6,3592,999,meters,jsons/v1_VE1000_randls_50.json,747351,839413,35,Man
131,780015,DepthScenes,duration_manipulation_targetAtFixation,jsons/v1_VE1000_randls_50.json,http://54.235.29.9/FacialAge/BNav_EC2/DepthDuration/v2_depth_duration_MTurk/v2_DepthDuration_HTML.html#181,181,1366,625,1366,768,9-3-2022,9-38-1,132,depth_duration_stimuli/001450_2014-06-19_17-02-03_260595134347_rgbf000203-resize_4/001450_2014-06-19_17-02-03_260595134347_rgbf000203-resize_4-target.png,1000,4.0106666666667,7,3245,990,meters,jsons/v1_VE1000_randls_50.json,747351,839413,35,Man
132,780015,DepthScenes,duration_manipulation_targetAtFixation,jsons/v1_VE1000_randls_50.json,http://54.235.29.9/FacialAge/BNav_EC2/DepthDuration/v2_depth_duration_MTurk/v2_DepthDuration_HTML.html#181,181,1366,625,1366,768,9-3-2022,9-38-1,133,depth_duration_stimuli/001056_2014-06-08_18-46-44_260595134347_rgbf000068-resize_0/001056_2014-06-08_18-46-44_260595134347_rgbf000068-resize_0-target.png,1000,2.6625,9,3401,1000,meters,jsons/v1_VE1000_randls_50.json,747351,839413,35,Man
133,780015,DepthScenes,duration_manipulation_targetAtFixation,jsons/v1_VE1000_randls_50.json,http://54.235.29.9/FacialAge/BNav_EC2/DepthDuration/v2_depth_duration_MTurk/v2_DepthDuration_HTML.html#181,181,1366,625,1366,768,9-3-2022,9-38-1,134,depth_duration_stimuli/002199_2014-06-28_18-33-56_260595134347_rgbf000074-resize_0/002199_2014-06-28_18-33-56_260595134347_rgbf000074-resize_0-target.png,1000,1.996,8,4051,1007,meters,jsons/v1_VE1000_randls_50.json,747351,839413,35,Man
134,780015,DepthScenes,duration_manipulation_targetAtFixation,jsons/v1_VE1000_randls_50.json,http://54.235.29.9/FacialAge/BNav_EC2/DepthDuration/v2_depth_duration_MTurk/v2_DepthDuration_HTML.html#181,181,1366,625,1366,768,9-3-2022,9-38-1,135,depth_duration_stimuli/002072_2014-06-24_21-48-06_260595134347_rgbf000115-resize_0/002072_2014-06-24_21-48-06_260595134347_rgbf000115-resize-original.jpg,1000,4.702,0,3768,992,meters,jsons/v1_VE1000_randls_50.json,747351,839413,35,Man
135,780015,DepthScenes,duration_manipulation_targetAtFixation,jsons/v1_VE1000_randls_50.json,http://54.235.29.9/FacialAge/BNav_EC2/DepthDuration/v2_depth_duration_MTurk/v2_DepthDuration_HTML.html#181,181,1366,625,1366,768,9-3-2022,9-38-1,136,depth_duration_stimuli/002272_2014-06-28_18-53-56_260595134347_rgbf000067-resize_2/002272_2014-06-28_18-53-56_260595134347_rgbf000067-resize_2-target.png,1000,1.138,8,3507,1001,meters,jsons/v1_VE1000_randls_50.json,747351,839413,35,Man
136,780015,DepthScenes,duration_manipulation_targetAtFixation,jsons/v1_VE1000_randls_50.json,http://54.235.29.9/FacialAge/BNav_EC2/DepthDuration/v2_depth_duration_MTurk/v2_DepthDuration_HTML.html#181,181,1366,625,1366,768,9-3-2022,9-38-1,137,depth_duration_stimuli/001571_2014-06-20_17-21-32_260595134347_rgbf000089-resize_1/001571_2014-06-20_17-21-32_260595134347_rgbf000089-resize_1-target.png,1000,1.86,8,3693,999,meters,jsons/v1_VE1000_randls_50.json,747351,839413,35,Man
137,780015,DepthScenes,duration_manipulation_targetAtFixation,jsons/v1_VE1000_randls_50.json,http://54.235.29.9/FacialAge/BNav_EC2/DepthDuration/v2_depth_duration_MTurk/v2_DepthDuration_HTML.html#181,181,1366,625,1366,768,9-3-2022,9-38-1,138,depth_duration_stimuli/000470_2014-06-09_19-42-40_260595134347_rgbf000094-resize_1/000470_2014-06-09_19-42-40_260595134347_rgbf000094-resize_1-target.png,1000,1.831,9,3374,998,meters,jsons/v1_VE1000_randls_50.json,747351,839413,35,Man
138,780015,DepthScenes,duration_manipulation_targetAtFixation,jsons/v1_VE1000_randls_50.json,http://54.235.29.9/FacialAge/BNav_EC2/DepthDuration/v2_depth_duration_MTurk/v2_DepthDuration_HTML.html#181,181,1366,625,1366,768,9-3-2022,9-38-1,139,depth_duration_stimuli/000109_2014-05-14_23-41-52_260595134347_rgbf000035-resize_9/000109_2014-05-14_23-41-52_260595134347_rgbf000035-resize_9-target.png,1000,1.3545,8,4250,997,meters,jsons/v1_VE1000_randls_50.json,747351,839413,35,Man
139,780015,DepthScenes,duration_manipulation_targetAtFixation,jsons/v1_VE1000_randls_50.json,http://54.235.29.9/FacialAge/BNav_EC2/DepthDuration/v2_depth_duration_MTurk/v2_DepthDuration_HTML.html#181,181,1366,625,1366,768,9-3-2022,9-38-1,140,depth_duration_stimuli/000929_2014-06-09_16-33-19_260595134347_rgbf000139-resize_0/000929_2014-06-09_16-33-19_260595134347_rgbf000139-resize_0-target.png,1000,2.8680000000000003,7,4041,999,meters,jsons/v1_VE1000_randls_50.json,747351,839413,35,Man
140,780015,DepthScenes,duration_manipulation_targetAtFixation,jsons/v1_VE1000_randls_50.json,http://54.235.29.9/FacialAge/BNav_EC2/DepthDuration/v2_depth_duration_MTurk/v2_DepthDuration_HTML.html#181,181,1366,625,1366,768,9-3-2022,9-38-1,141,depth_duration_stimuli/000457_2014-06-08_16-52-43_260595134347_rgbf000199-resize_1/000457_2014-06-08_16-52-43_260595134347_rgbf000199-resize_1-target.png,1000,3.6489999999999996,7,4105,996,meters,jsons/v1_VE1000_randls_50.json,747351,839413,35,Man
141,780015,DepthScenes,duration_manipulation_targetAtFixation,jsons/v1_VE1000_randls_50.json,http://54.235.29.9/FacialAge/BNav_EC2/DepthDuration/v2_depth_duration_MTurk/v2_DepthDuration_HTML.html#181,181,1366,625,1366,768,9-3-2022,9-38-1,142,depth_duration_stimuli/002549_2014-06-24_13-41-39_094959634447_rgbf000022-resize_3/002549_2014-06-24_13-41-39_094959634447_rgbf000022-resize_3-target.png,1000,1.476,8,5479,999,meters,jsons/v1_VE1000_randls_50.json,747351,839413,35,Man
142,780015,DepthScenes,duration_manipulation_targetAtFixation,jsons/v1_VE1000_randls_50.json,http://54.235.29.9/FacialAge/BNav_EC2/DepthDuration/v2_depth_duration_MTurk/v2_DepthDuration_HTML.html#181,181,1366,625,1366,768,9-3-2022,9-38-1,143,depth_duration_stimuli/002750_2014-06-22_19-08-03_094959634447_rgbf000094-resize_4/002750_2014-06-22_19-08-03_094959634447_rgbf000094-resize_4-target.png,1000,2.354,9,3873,997,meters,jsons/v1_VE1000_randls_50.json,747351,839413,35,Man
143,780015,DepthScenes,duration_manipulation_targetAtFixation,jsons/v1_VE1000_randls_50.json,http://54.235.29.9/FacialAge/BNav_EC2/DepthDuration/v2_depth_duration_MTurk/v2_DepthDuration_HTML.html#181,181,1366,625,1366,768,9-3-2022,9-38-1,144,depth_duration_stimuli/001555_2014-06-20_17-12-10_260595134347_rgbf000065-resize_4/001555_2014-06-20_17-12-10_260595134347_rgbf000065-resize_4-target.png,1000,1.633,7,4169,999,meters,jsons/v1_VE1000_randls_50.json,747351,839413,35,Man
144,780015,DepthScenes,duration_manipulation_targetAtFixation,jsons/v1_VE1000_randls_50.json,http://54.235.29.9/FacialAge/BNav_EC2/DepthDuration/v2_depth_duration_MTurk/v2_DepthDuration_HTML.html#181,181,1366,625,1366,768,9-3-2022,9-38-1,145,depth_duration_stimuli/000103_2014-05-14_22-01-17_260595134347_rgbf000152-resize_5/000103_2014-05-14_22-01-17_260595134347_rgbf000152-resize_5-target.png,1000,1.993,8,4099,998,meters,jsons/v1_VE1000_randls_50.json,747351,839413,35,Man
145,780015,DepthScenes,duration_manipulation_targetAtFixation,jsons/v1_VE1000_randls_50.json,http://54.235.29.9/FacialAge/BNav_EC2/DepthDuration/v2_depth_duration_MTurk/v2_DepthDuration_HTML.html#181,181,1366,625,1366,768,9-3-2022,9-38-1,146,depth_duration_stimuli/001498_2014-06-19_17-45-14_260595134347_rgbf000129-resize_4/001498_2014-06-19_17-45-14_260595134347_rgbf000129-resize-original.jpg,1000,1.4075,0,3525,987,meters,jsons/v1_VE1000_randls_50.json,747351,839413,35,Man
146,780015,DepthScenes,duration_manipulation_targetAtFixation,jsons/v1_VE1000_randls_50.json,http://54.235.29.9/FacialAge/BNav_EC2/DepthDuration/v2_depth_duration_MTurk/v2_DepthDuration_HTML.html#181,181,1366,625,1366,768,9-3-2022,9-38-1,147,depth_duration_stimuli/002375_2014-06-28_20-13-44_260595134347_rgbf000032-resize_1/002375_2014-06-28_20-13-44_260595134347_rgbf000032-resize_1-target.png,1000,4.0175,8,4211,985,meters,jsons/v1_VE1000_randls_50.json,747351,839413,35,Man
147,780015,DepthScenes,duration_manipulation_targetAtFixation,jsons/v1_VE1000_randls_50.json,http://54.235.29.9/FacialAge/BNav_EC2/DepthDuration/v2_depth_duration_MTurk/v2_DepthDuration_HTML.html#181,181,1366,625,1366,768,9-3-2022,9-38-1,148,depth_duration_stimuli/002657_2014-06-13_15-29-54_094959634447_rgbf000150-resize_1/002657_2014-06-13_15-29-54_094959634447_rgbf000150-resize_1-target.png,1000,4.919,7,3936,997,meters,jsons/v1_VE1000_randls_50.json,747351,839413,35,Man
148,780015,DepthScenes,duration_manipulation_targetAtFixation,jsons/v1_VE1000_randls_50.json,http://54.235.29.9/FacialAge/BNav_EC2/DepthDuration/v2_depth_duration_MTurk/v2_DepthDuration_HTML.html#181,181,1366,625,1366,768,9-3-2022,9-38-1,149,depth_duration_stimuli/003492_2014-05-21_15-50-55_094959634447_rgbf000828-resize_1/003492_2014-05-21_15-50-55_094959634447_rgbf000828-resize_1-target.png,1000,4.06875,8,4067,1003,meters,jsons/v1_VE1000_randls_50.json,747351,839413,35,Man
149,780015,DepthScenes,duration_manipulation_targetAtFixation,jsons/v1_VE1000_randls_50.json,http://54.235.29.9/FacialAge/BNav_EC2/DepthDuration/v2_depth_duration_MTurk/v2_DepthDuration_HTML.html#181,181,1366,625,1366,768,9-3-2022,9-38-1,150,depth_duration_stimuli/002568_2014-06-24_13-59-21_094959634447_rgbf000062-resize_4/002568_2014-06-24_13-59-21_094959634447_rgbf000062-resize_4-target.png,1000,3.015,10,4801,1003,meters,jsons/v1_VE1000_randls_50.json,747351,839413,35,Man
150,780015,DepthScenes,duration_manipulation_targetAtFixation,jsons/v1_VE1000_randls_50.json,http://54.235.29.9/FacialAge/BNav_EC2/DepthDuration/v2_depth_duration_MTurk/v2_DepthDuration_HTML.html#181,181,1366,625,1366,768,9-3-2022,9-38-1,151,depth_duration_stimuli/002748_2014-06-22_19-07-22_094959634447_rgbf000078-resize_1/002748_2014-06-22_19-07-22_094959634447_rgbf000078-resize_1-target.png,1000,4.6705,9,4018,998,meters,jsons/v1_VE1000_randls_50.json,747351,839413,35,Man
151,780015,DepthScenes,duration_manipulation_targetAtFixation,jsons/v1_VE1000_randls_50.json,http://54.235.29.9/FacialAge/BNav_EC2/DepthDuration/v2_depth_duration_MTurk/v2_DepthDuration_HTML.html#181,181,1366,625,1366,768,9-3-2022,9-38-1,152,depth_duration_stimuli/002995_2014-06-15_12-31-26_094959634447_rgbf000150-resize_1/002995_2014-06-15_12-31-26_094959634447_rgbf000150-resize_1-target.png,1000,3.8360000000000003,8,3675,1004,meters,jsons/v1_VE1000_randls_50.json,747351,839413,35,Man
152,780015,DepthScenes,duration_manipulation_targetAtFixation,jsons/v1_VE1000_randls_50.json,http://54.235.29.9/FacialAge/BNav_EC2/DepthDuration/v2_depth_duration_MTurk/v2_DepthDuration_HTML.html#181,181,1366,625,1366,768,9-3-2022,9-38-1,153,depth_duration_stimuli/001244_2014-06-17_16-47-45_260595134347_rgbf000030-resize_4/001244_2014-06-17_16-47-45_260595134347_rgbf000030-resize_4-target.png,1000,2.0425,7,3269,985,meters,jsons/v1_VE1000_randls_50.json,747351,839413,35,Man
153,780015,DepthScenes,duration_manipulation_targetAtFixation,jsons/v1_VE1000_randls_50.json,http://54.235.29.9/FacialAge/BNav_EC2/DepthDuration/v2_depth_duration_MTurk/v2_DepthDuration_HTML.html#181,181,1366,625,1366,768,9-3-2022,9-38-1,154,depth_duration_stimuli/003495_2014-05-21_16-01-51_094959634447_rgbf000100-resize_3/003495_2014-05-21_16-01-51_094959634447_rgbf000100-resize_3-target.png,1000,1.6255,7,3298,997,meters,jsons/v1_VE1000_randls_50.json,747351,839413,35,Man
154,780015,DepthScenes,duration_manipulation_targetAtFixation,jsons/v1_VE1000_randls_50.json,http://54.235.29.9/FacialAge/BNav_EC2/DepthDuration/v2_depth_duration_MTurk/v2_DepthDuration_HTML.html#181,181,1366,625,1366,768,9-3-2022,9-38-1,155,depth_duration_stimuli/001059_2014-06-08_21-53-27_260595134347_rgbf000061-resize_4/001059_2014-06-08_21-53-27_260595134347_rgbf000061-resize_4-target.png,1000,2.4185,9,5098,995,meters,jsons/v1_VE1000_randls_50.json,747351,839413,35,Man
155,780015,DepthScenes,duration_manipulation_targetAtFixation,jsons/v1_VE1000_randls_50.json,http://54.235.29.9/FacialAge/BNav_EC2/DepthDuration/v2_depth_duration_MTurk/v2_DepthDuration_HTML.html#181,181,1366,625,1366,768,9-3-2022,9-38-1,156,depth_duration_stimuli/001032_2014-06-08_13-23-17_260595134347_rgbf000021-resize_3/001032_2014-06-08_13-23-17_260595134347_rgbf000021-resize_3-target.png,1000,3.2725,9,4195,998,meters,jsons/v1_VE1000_randls_50.json,747351,839413,35,Man
156,780015,DepthScenes,duration_manipulation_targetAtFixation,jsons/v1_VE1000_randls_50.json,http://54.235.29.9/FacialAge/BNav_EC2/DepthDuration/v2_depth_duration_MTurk/v2_DepthDuration_HTML.html#181,181,1366,625,1366,768,9-3-2022,9-38-1,157,depth_duration_stimuli/003292_2014-05-14_21-53-49_094959634447_rgbf000100-resize_2/003292_2014-05-14_21-53-49_094959634447_rgbf000100-resize_2-target.png,1000,3.4815,9,4720,1000,meters,jsons/v1_VE1000_randls_50.json,747351,839413,35,Man
157,780015,DepthScenes,duration_manipulation_targetAtFixation,jsons/v1_VE1000_randls_50.json,http://54.235.29.9/FacialAge/BNav_EC2/DepthDuration/v2_depth_duration_MTurk/v2_DepthDuration_HTML.html#181,181,1366,625,1366,768,9-3-2022,9-38-1,158,depth_duration_stimuli/002639_2014-06-24_14-51-37_094959634447_rgbf000074-resize_4/002639_2014-06-24_14-51-37_094959634447_rgbf000074-resize_4-target.png,1000,4.0375,8,3795,1014,meters,jsons/v1_VE1000_randls_50.json,747351,839413,35,Man
158,780015,DepthScenes,duration_manipulation_targetAtFixation,jsons/v1_VE1000_randls_50.json,http://54.235.29.9/FacialAge/BNav_EC2/DepthDuration/v2_depth_duration_MTurk/v2_DepthDuration_HTML.html#181,181,1366,625,1366,768,9-3-2022,9-38-1,159,depth_duration_stimuli/000642_2014-06-08_16-59-25_260595134347_rgbf000098-resize_2/000642_2014-06-08_16-59-25_260595134347_rgbf000098-resize_2-target.png,1000,2.8815,8,4230,998,meters,jsons/v1_VE1000_randls_50.json,747351,839413,35,Man
159,780015,DepthScenes,duration_manipulation_targetAtFixation,jsons/v1_VE1000_randls_50.json,http://54.235.29.9/FacialAge/BNav_EC2/DepthDuration/v2_depth_duration_MTurk/v2_DepthDuration_HTML.html#181,181,1366,625,1366,768,9-3-2022,9-38-1,160,depth_duration_stimuli/002425_2014-06-28_20-27-29_260595134347_rgbf000031-resize_8/002425_2014-06-28_20-27-29_260595134347_rgbf000031-resize_8-target.png,1000,3.8960000000000004,8,3854,995,meters,jsons/v1_VE1000_randls_50.json,747351,839413,35,Man
160,780015,DepthScenes,duration_manipulation_targetAtFixation,jsons/v1_VE1000_randls_50.json,http://54.235.29.9/FacialAge/BNav_EC2/DepthDuration/v2_depth_duration_MTurk/v2_DepthDuration_HTML.html#181,181,1366,625,1366,768,9-3-2022,9-38-1,161,depth_duration_stimuli/002509_2014-06-24_13-19-22_094959634447_rgbf000077-resize_0/002509_2014-06-24_13-19-22_094959634447_rgbf000077-resize_0-target.png,1000,1.3065,8,4071,997,meters,jsons/v1_VE1000_randls_50.json,747351,839413,35,Man
161,780015,DepthScenes,duration_manipulation_targetAtFixation,jsons/v1_VE1000_randls_50.json,http://54.235.29.9/FacialAge/BNav_EC2/DepthDuration/v2_depth_duration_MTurk/v2_DepthDuration_HTML.html#181,181,1366,625,1366,768,9-3-2022,9-38-1,162,depth_duration_stimuli/003338_2014-05-20_11-01-23_094959634447_rgbf000051-resize_6/003338_2014-05-20_11-01-23_094959634447_rgbf000051-resize_6-target.png,1000,1.693,7,4142,1009,meters,jsons/v1_VE1000_randls_50.json,747351,839413,35,Man
162,780015,DepthScenes,duration_manipulation_targetAtFixation,jsons/v1_VE1000_randls_50.json,http://54.235.29.9/FacialAge/BNav_EC2/DepthDuration/v2_depth_duration_MTurk/v2_DepthDuration_HTML.html#181,181,1366,625,1366,768,9-3-2022,9-38-1,163,depth_duration_stimuli/000368_2014-06-09_15-53-01_260595134347_rgbf000155-resize_2/000368_2014-06-09_15-53-01_260595134347_rgbf000155-resize_2-target.png,1000,2.4859999999999998,5,3766,1000,meters,jsons/v1_VE1000_randls_50.json,747351,839413,35,Man
163,780015,DepthScenes,duration_manipulation_targetAtFixation,jsons/v1_VE1000_randls_50.json,http://54.235.29.9/FacialAge/BNav_EC2/DepthDuration/v2_depth_duration_MTurk/v2_DepthDuration_HTML.html#181,181,1366,625,1366,768,9-3-2022,9-38-1,164,depth_duration_stimuli/002678_2014-06-13_16-15-32_094959634447_rgbf000151-resize_6/002678_2014-06-13_16-15-32_094959634447_rgbf000151-resize_6-target.png,1000,2.1830000000000003,8,3867,998,meters,jsons/v1_VE1000_randls_50.json,747351,839413,35,Man
