,subjID,experimentName,versionName,sequenceName,url,selected_row,windowWidth,windowHeight,screenWidth,screenHeight,startDate,startTime,trial,stimulus,duration,actual_depth,depth_estimate,trial_RT,log_sceneDuration,unitSelection,seq_filepath,experimentTime,totalTime,age,gender
0,780486,DepthScenes,duration_manipulation_targetAtFixation,jsons/v1_VE1000_randls_76_rotated.json,http://54.235.29.9/FacialAge/BNav_EC2/DepthDuration/v2_depth_duration_MTurk/v2_DepthDuration_HTML.html#217,217,1440,757,1440,900,8-30-2022,7-6-23,1,depth_duration_stimuli/001100_2014-06-15_17-46-26_260595134347_rgbf000225-resize_2/001100_2014-06-15_17-46-26_260595134347_rgbf000225-resize_2-target.png,1000,2.24,2.0,11128,987,feet,jsons/v1_VE1000_randls_76_rotated.json,1136651,1644795,30,Man
1,780486,DepthScenes,duration_manipulation_targetAtFixation,jsons/v1_VE1000_randls_76_rotated.json,http://54.235.29.9/FacialAge/BNav_EC2/DepthDuration/v2_depth_duration_MTurk/v2_DepthDuration_HTML.html#217,217,1440,757,1440,900,8-30-2022,7-6-23,2,depth_duration_stimuli/002784_2014-06-22_19-26-30_094959634447_rgbf000083-resize_3/002784_2014-06-22_19-26-30_094959634447_rgbf000083-resize_3-target.png,1000,1.8046666666667,1.0,7171,1022,feet,jsons/v1_VE1000_randls_76_rotated.json,1136651,1644795,30,Man
2,780486,DepthScenes,duration_manipulation_targetAtFixation,jsons/v1_VE1000_randls_76_rotated.json,http://54.235.29.9/FacialAge/BNav_EC2/DepthDuration/v2_depth_duration_MTurk/v2_DepthDuration_HTML.html#217,217,1440,757,1440,900,8-30-2022,7-6-23,3,depth_duration_stimuli/002467_2014-06-28_20-38-07_260595134347_rgbf000026-resize_2/002467_2014-06-28_20-38-07_260595134347_rgbf000026-resize_2-target.png,1000,4.742,3.5,10544,1000,feet,jsons/v1_VE1000_randls_76_rotated.json,1136651,1644795,30,Man
3,780486,DepthScenes,duration_manipulation_targetAtFixation,jsons/v1_VE1000_randls_76_rotated.json,http://54.235.29.9/FacialAge/BNav_EC2/DepthDuration/v2_depth_duration_MTurk/v2_DepthDuration_HTML.html#217,217,1440,757,1440,900,8-30-2022,7-6-23,4,depth_duration_stimuli/002570_2014-06-24_13-59-54_094959634447_rgbf000059-resize_0/002570_2014-06-24_13-59-54_094959634447_rgbf000059-resize_0-target.png,1000,4.037,3.0,5608,1000,feet,jsons/v1_VE1000_randls_76_rotated.json,1136651,1644795,30,Man
4,780486,DepthScenes,duration_manipulation_targetAtFixation,jsons/v1_VE1000_randls_76_rotated.json,http://54.235.29.9/FacialAge/BNav_EC2/DepthDuration/v2_depth_duration_MTurk/v2_DepthDuration_HTML.html#217,217,1440,757,1440,900,8-30-2022,7-6-23,5,depth_duration_stimuli/003079_2014-06-15_15-18-20_094959634447_rgbf000152-resize_8/003079_2014-06-15_15-18-20_094959634447_rgbf000152-resize_8-target.png,1000,2.8775,6.0,9669,999,feet,jsons/v1_VE1000_randls_76_rotated.json,1136651,1644795,30,Man
5,780486,DepthScenes,duration_manipulation_targetAtFixation,jsons/v1_VE1000_randls_76_rotated.json,http://54.235.29.9/FacialAge/BNav_EC2/DepthDuration/v2_depth_duration_MTurk/v2_DepthDuration_HTML.html#217,217,1440,757,1440,900,8-30-2022,7-6-23,6,depth_duration_stimuli/000506_2014-06-08_23-21-00_260595134347_rgbf000070-resize_7/000506_2014-06-08_23-21-00_260595134347_rgbf000070-resize_7-target.png,1000,4.0585,4.0,4765,1000,feet,jsons/v1_VE1000_randls_76_rotated.json,1136651,1644795,30,Man
6,780486,DepthScenes,duration_manipulation_targetAtFixation,jsons/v1_VE1000_randls_76_rotated.json,http://54.235.29.9/FacialAge/BNav_EC2/DepthDuration/v2_depth_duration_MTurk/v2_DepthDuration_HTML.html#217,217,1440,757,1440,900,8-30-2022,7-6-23,7,depth_duration_stimuli/000749_2014-06-08_21-55-06_260595134347_rgbf000070-resize_2/000749_2014-06-08_21-55-06_260595134347_rgbf000070-resize_2-target.png,1000,2.331,3.0,8467,993,feet,jsons/v1_VE1000_randls_76_rotated.json,1136651,1644795,30,Man
7,780486,DepthScenes,duration_manipulation_targetAtFixation,jsons/v1_VE1000_randls_76_rotated.json,http://54.235.29.9/FacialAge/BNav_EC2/DepthDuration/v2_depth_duration_MTurk/v2_DepthDuration_HTML.html#217,217,1440,757,1440,900,8-30-2022,7-6-23,8,depth_duration_stimuli/002788_2014-06-22_19-36-03_094959634447_rgbf000088-resize_2/002788_2014-06-22_19-36-03_094959634447_rgbf000088-resize_2-target.png,1000,1.6465,3.0,8234,1000,feet,jsons/v1_VE1000_randls_76_rotated.json,1136651,1644795,30,Man
8,780486,DepthScenes,duration_manipulation_targetAtFixation,jsons/v1_VE1000_randls_76_rotated.json,http://54.235.29.9/FacialAge/BNav_EC2/DepthDuration/v2_depth_duration_MTurk/v2_DepthDuration_HTML.html#217,217,1440,757,1440,900,8-30-2022,7-6-23,9,depth_duration_stimuli/002995_2014-06-15_12-31-26_094959634447_rgbf000150-resize_1/002995_2014-06-15_12-31-26_094959634447_rgbf000150-resize_1-target.png,1000,3.8360000000000003,3.5,9864,1013,feet,jsons/v1_VE1000_randls_76_rotated.json,1136651,1644795,30,Man
9,780486,DepthScenes,duration_manipulation_targetAtFixation,jsons/v1_VE1000_randls_76_rotated.json,http://54.235.29.9/FacialAge/BNav_EC2/DepthDuration/v2_depth_duration_MTurk/v2_DepthDuration_HTML.html#217,217,1440,757,1440,900,8-30-2022,7-6-23,10,depth_duration_stimuli/002748_2014-06-22_19-07-22_094959634447_rgbf000078-resize_1/002748_2014-06-22_19-07-22_094959634447_rgbf000078-resize_1-target.png,1000,4.6705,5.0,7537,1015,feet,jsons/v1_VE1000_randls_76_rotated.json,1136651,1644795,30,Man
10,780486,DepthScenes,duration_manipulation_targetAtFixation,jsons/v1_VE1000_randls_76_rotated.json,http://54.235.29.9/FacialAge/BNav_EC2/DepthDuration/v2_depth_duration_MTurk/v2_DepthDuration_HTML.html#217,217,1440,757,1440,900,8-30-2022,7-6-23,11,depth_duration_stimuli/002568_2014-06-24_13-59-21_094959634447_rgbf000062-resize_4/002568_2014-06-24_13-59-21_094959634447_rgbf000062-resize_4-target.png,1000,3.015,2.5,7980,1000,feet,jsons/v1_VE1000_randls_76_rotated.json,1136651,1644795,30,Man
11,780486,DepthScenes,duration_manipulation_targetAtFixation,jsons/v1_VE1000_randls_76_rotated.json,http://54.235.29.9/FacialAge/BNav_EC2/DepthDuration/v2_depth_duration_MTurk/v2_DepthDuration_HTML.html#217,217,1440,757,1440,900,8-30-2022,7-6-23,12,depth_duration_stimuli/003492_2014-05-21_15-50-55_094959634447_rgbf000828-resize_1/003492_2014-05-21_15-50-55_094959634447_rgbf000828-resize_1-target.png,1000,4.06875,0.0,4443,1001,feet,jsons/v1_VE1000_randls_76_rotated.json,1136651,1644795,30,Man
12,780486,DepthScenes,duration_manipulation_targetAtFixation,jsons/v1_VE1000_randls_76_rotated.json,http://54.235.29.9/FacialAge/BNav_EC2/DepthDuration/v2_depth_duration_MTurk/v2_DepthDuration_HTML.html#217,217,1440,757,1440,900,8-30-2022,7-6-23,13,depth_duration_stimuli/001235_2014-06-17_16-37-36_260595134347_rgbf000084-resize_4/001235_2014-06-17_16-37-36_260595134347_rgbf000084-resize_4-target.png,1000,3.6605,3.5,10515,1000,feet,jsons/v1_VE1000_randls_76_rotated.json,1136651,1644795,30,Man
13,780486,DepthScenes,duration_manipulation_targetAtFixation,jsons/v1_VE1000_randls_76_rotated.json,http://54.235.29.9/FacialAge/BNav_EC2/DepthDuration/v2_depth_duration_MTurk/v2_DepthDuration_HTML.html#217,217,1440,757,1440,900,8-30-2022,7-6-23,14,depth_duration_stimuli/000788_2014-06-08_22-34-36_260595134347_rgbf000131-resize_1/000788_2014-06-08_22-34-36_260595134347_rgbf000131-resize_1-target.png,1000,3.359,1.5,5546,1001,feet,jsons/v1_VE1000_randls_76_rotated.json,1136651,1644795,30,Man
14,780486,DepthScenes,duration_manipulation_targetAtFixation,jsons/v1_VE1000_randls_76_rotated.json,http://54.235.29.9/FacialAge/BNav_EC2/DepthDuration/v2_depth_duration_MTurk/v2_DepthDuration_HTML.html#217,217,1440,757,1440,900,8-30-2022,7-6-23,15,depth_duration_stimuli/003129_2014-05-12_10-48-10_094959634447_rgbf000100-resize_0/003129_2014-05-12_10-48-10_094959634447_rgbf000100-resize_0-target.png,1000,4.9305,1.5,9959,1000,feet,jsons/v1_VE1000_randls_76_rotated.json,1136651,1644795,30,Man
15,780486,DepthScenes,duration_manipulation_targetAtFixation,jsons/v1_VE1000_randls_76_rotated.json,http://54.235.29.9/FacialAge/BNav_EC2/DepthDuration/v2_depth_duration_MTurk/v2_DepthDuration_HTML.html#217,217,1440,757,1440,900,8-30-2022,7-6-23,16,depth_duration_stimuli/000414_2014-06-04_19-49-13_260595134347_rgbf000044-resize_0/000414_2014-06-04_19-49-13_260595134347_rgbf000044-resize_0-target.png,1000,4.329,4.5,7852,998,feet,jsons/v1_VE1000_randls_76_rotated.json,1136651,1644795,30,Man
16,780486,DepthScenes,duration_manipulation_targetAtFixation,jsons/v1_VE1000_randls_76_rotated.json,http://54.235.29.9/FacialAge/BNav_EC2/DepthDuration/v2_depth_duration_MTurk/v2_DepthDuration_HTML.html#217,217,1440,757,1440,900,8-30-2022,7-6-23,17,depth_duration_stimuli/001132_2014-06-17_14-48-54_260595134347_rgbf000100-resize_2/001132_2014-06-17_14-48-54_260595134347_rgbf000100-resize_2-target.png,1000,3.753,3.0,14586,1000,feet,jsons/v1_VE1000_randls_76_rotated.json,1136651,1644795,30,Man
17,780486,DepthScenes,duration_manipulation_targetAtFixation,jsons/v1_VE1000_randls_76_rotated.json,http://54.235.29.9/FacialAge/BNav_EC2/DepthDuration/v2_depth_duration_MTurk/v2_DepthDuration_HTML.html#217,217,1440,757,1440,900,8-30-2022,7-6-23,18,depth_duration_stimuli/001133_2014-06-17_14-49-16_260595134347_rgbf000100-resize_0/001133_2014-06-17_14-49-16_260595134347_rgbf000100-resize_0-target.png,1000,4.2115,2.1,8715,1000,feet,jsons/v1_VE1000_randls_76_rotated.json,1136651,1644795,30,Man
18,780486,DepthScenes,duration_manipulation_targetAtFixation,jsons/v1_VE1000_randls_76_rotated.json,http://54.235.29.9/FacialAge/BNav_EC2/DepthDuration/v2_depth_duration_MTurk/v2_DepthDuration_HTML.html#217,217,1440,757,1440,900,8-30-2022,7-6-23,19,depth_duration_stimuli/001498_2014-06-19_17-45-14_260595134347_rgbf000129-resize_4/001498_2014-06-19_17-45-14_260595134347_rgbf000129-resize-original.jpg,1000,1.4075,0.0,8705,1002,feet,jsons/v1_VE1000_randls_76_rotated.json,1136651,1644795,30,Man
19,780486,DepthScenes,duration_manipulation_targetAtFixation,jsons/v1_VE1000_randls_76_rotated.json,http://54.235.29.9/FacialAge/BNav_EC2/DepthDuration/v2_depth_duration_MTurk/v2_DepthDuration_HTML.html#217,217,1440,757,1440,900,8-30-2022,7-6-23,20,depth_duration_stimuli/000665_2014-06-09_20-42-35_260595134347_rgbf000110-resize_1/000665_2014-06-09_20-42-35_260595134347_rgbf000110-resize_1-target.png,1000,3.057,2.0,8165,1001,feet,jsons/v1_VE1000_randls_76_rotated.json,1136651,1644795,30,Man
20,780486,DepthScenes,duration_manipulation_targetAtFixation,jsons/v1_VE1000_randls_76_rotated.json,http://54.235.29.9/FacialAge/BNav_EC2/DepthDuration/v2_depth_duration_MTurk/v2_DepthDuration_HTML.html#217,217,1440,757,1440,900,8-30-2022,7-6-23,21,depth_duration_stimuli/001150_2014-06-17_15-27-34_260595134347_rgbf000108-resize_2/001150_2014-06-17_15-27-34_260595134347_rgbf000108-resize_2-target.png,1000,4.0325,4.1,6511,1000,feet,jsons/v1_VE1000_randls_76_rotated.json,1136651,1644795,30,Man
21,780486,DepthScenes,duration_manipulation_targetAtFixation,jsons/v1_VE1000_randls_76_rotated.json,http://54.235.29.9/FacialAge/BNav_EC2/DepthDuration/v2_depth_duration_MTurk/v2_DepthDuration_HTML.html#217,217,1440,757,1440,900,8-30-2022,7-6-23,22,depth_duration_stimuli/003495_2014-05-21_16-01-51_094959634447_rgbf000100-resize_3/003495_2014-05-21_16-01-51_094959634447_rgbf000100-resize_3-target.png,1000,1.6255,2.4,13413,1000,feet,jsons/v1_VE1000_randls_76_rotated.json,1136651,1644795,30,Man
22,780486,DepthScenes,duration_manipulation_targetAtFixation,jsons/v1_VE1000_randls_76_rotated.json,http://54.235.29.9/FacialAge/BNav_EC2/DepthDuration/v2_depth_duration_MTurk/v2_DepthDuration_HTML.html#217,217,1440,757,1440,900,8-30-2022,7-6-23,23,depth_duration_stimuli/001244_2014-06-17_16-47-45_260595134347_rgbf000030-resize_4/001244_2014-06-17_16-47-45_260595134347_rgbf000030-resize_4-target.png,1000,2.0425,2.2,6483,999,feet,jsons/v1_VE1000_randls_76_rotated.json,1136651,1644795,30,Man
23,780486,DepthScenes,duration_manipulation_targetAtFixation,jsons/v1_VE1000_randls_76_rotated.json,http://54.235.29.9/FacialAge/BNav_EC2/DepthDuration/v2_depth_duration_MTurk/v2_DepthDuration_HTML.html#217,217,1440,757,1440,900,8-30-2022,7-6-23,24,depth_duration_stimuli/000734_2014-06-08_17-39-11_260595134347_rgbf000128-resize_2/000734_2014-06-08_17-39-11_260595134347_rgbf000128-resize_2-target.png,1000,4.098,3.2,11440,1001,feet,jsons/v1_VE1000_randls_76_rotated.json,1136651,1644795,30,Man
24,780486,DepthScenes,duration_manipulation_targetAtFixation,jsons/v1_VE1000_randls_76_rotated.json,http://54.235.29.9/FacialAge/BNav_EC2/DepthDuration/v2_depth_duration_MTurk/v2_DepthDuration_HTML.html#217,217,1440,757,1440,900,8-30-2022,7-6-23,25,depth_duration_stimuli/000739_2014-06-08_18-45-58_260595134347_rgbf000068-resize_1/000739_2014-06-08_18-45-58_260595134347_rgbf000068-resize_1-target.png,1000,3.534,2.0,4410,1000,feet,jsons/v1_VE1000_randls_76_rotated.json,1136651,1644795,30,Man
25,780486,DepthScenes,duration_manipulation_targetAtFixation,jsons/v1_VE1000_randls_76_rotated.json,http://54.235.29.9/FacialAge/BNav_EC2/DepthDuration/v2_depth_duration_MTurk/v2_DepthDuration_HTML.html#217,217,1440,757,1440,900,8-30-2022,7-6-23,26,depth_duration_stimuli/000137_2014-05-20_17-04-49_260595134347_rgbf000120-resize_1/000137_2014-05-20_17-04-49_260595134347_rgbf000120-resize_1-target.png,1000,3.786,3.2,11470,999,feet,jsons/v1_VE1000_randls_76_rotated.json,1136651,1644795,30,Man
26,780486,DepthScenes,duration_manipulation_targetAtFixation,jsons/v1_VE1000_randls_76_rotated.json,http://54.235.29.9/FacialAge/BNav_EC2/DepthDuration/v2_depth_duration_MTurk/v2_DepthDuration_HTML.html#217,217,1440,757,1440,900,8-30-2022,7-6-23,27,depth_duration_stimuli/000736_2014-06-08_18-24-15_260595134347_rgbf000206-resize_3/000736_2014-06-08_18-24-15_260595134347_rgbf000206-resize_3-target.png,1000,3.515,2.1,5040,1003,feet,jsons/v1_VE1000_randls_76_rotated.json,1136651,1644795,30,Man
27,780486,DepthScenes,duration_manipulation_targetAtFixation,jsons/v1_VE1000_randls_76_rotated.json,http://54.235.29.9/FacialAge/BNav_EC2/DepthDuration/v2_depth_duration_MTurk/v2_DepthDuration_HTML.html#217,217,1440,757,1440,900,8-30-2022,7-6-23,28,depth_duration_stimuli/001450_2014-06-19_17-02-03_260595134347_rgbf000203-resize_4/001450_2014-06-19_17-02-03_260595134347_rgbf000203-resize_4-target.png,1000,4.0106666666667,3.4,11849,998,feet,jsons/v1_VE1000_randls_76_rotated.json,1136651,1644795,30,Man
28,780486,DepthScenes,duration_manipulation_targetAtFixation,jsons/v1_VE1000_randls_76_rotated.json,http://54.235.29.9/FacialAge/BNav_EC2/DepthDuration/v2_depth_duration_MTurk/v2_DepthDuration_HTML.html#217,217,1440,757,1440,900,8-30-2022,7-6-23,29,depth_duration_stimuli/001449_2014-06-19_17-01-27_260595134347_rgbf000116-resize_2/001449_2014-06-19_17-01-27_260595134347_rgbf000116-resize_2-target.png,1000,3.452,2.5,6309,1000,feet,jsons/v1_VE1000_randls_76_rotated.json,1136651,1644795,30,Man
29,780486,DepthScenes,duration_manipulation_targetAtFixation,jsons/v1_VE1000_randls_76_rotated.json,http://54.235.29.9/FacialAge/BNav_EC2/DepthDuration/v2_depth_duration_MTurk/v2_DepthDuration_HTML.html#217,217,1440,757,1440,900,8-30-2022,7-6-23,30,depth_duration_stimuli/002072_2014-06-24_21-48-06_260595134347_rgbf000115-resize_0/002072_2014-06-24_21-48-06_260595134347_rgbf000115-resize-original.jpg,1000,4.702,0.0,7662,999,feet,jsons/v1_VE1000_randls_76_rotated.json,1136651,1644795,30,Man
30,780486,DepthScenes,duration_manipulation_targetAtFixation,jsons/v1_VE1000_randls_76_rotated.json,http://54.235.29.9/FacialAge/BNav_EC2/DepthDuration/v2_depth_duration_MTurk/v2_DepthDuration_HTML.html#217,217,1440,757,1440,900,8-30-2022,7-6-23,31,depth_duration_stimuli/000483_2014-06-09_20-41-45_260595134347_rgbf000116-resize_4/000483_2014-06-09_20-41-45_260595134347_rgbf000116-resize_4-target.png,1000,1.337,2.0,8648,1000,feet,jsons/v1_VE1000_randls_76_rotated.json,1136651,1644795,30,Man
31,780486,DepthScenes,duration_manipulation_targetAtFixation,jsons/v1_VE1000_randls_76_rotated.json,http://54.235.29.9/FacialAge/BNav_EC2/DepthDuration/v2_depth_duration_MTurk/v2_DepthDuration_HTML.html#217,217,1440,757,1440,900,8-30-2022,7-6-23,32,depth_duration_stimuli/000469_2014-06-09_19-42-10_260595134347_rgbf000081-resize_1/000469_2014-06-09_19-42-10_260595134347_rgbf000081-resize_1-target.png,1000,1.652,2.0,5227,998,feet,jsons/v1_VE1000_randls_76_rotated.json,1136651,1644795,30,Man
32,780486,DepthScenes,duration_manipulation_targetAtFixation,jsons/v1_VE1000_randls_76_rotated.json,http://54.235.29.9/FacialAge/BNav_EC2/DepthDuration/v2_depth_duration_MTurk/v2_DepthDuration_HTML.html#217,217,1440,757,1440,900,8-30-2022,7-6-23,33,depth_duration_stimuli/002545_2014-06-24_13-38-53_094959634447_rgbf000080-resize_4/002545_2014-06-24_13-38-53_094959634447_rgbf000080-resize_4-target.png,1000,1.9205,2.2,9189,1000,feet,jsons/v1_VE1000_randls_76_rotated.json,1136651,1644795,30,Man
33,780486,DepthScenes,duration_manipulation_targetAtFixation,jsons/v1_VE1000_randls_76_rotated.json,http://54.235.29.9/FacialAge/BNav_EC2/DepthDuration/v2_depth_duration_MTurk/v2_DepthDuration_HTML.html#217,217,1440,757,1440,900,8-30-2022,7-6-23,34,depth_duration_stimuli/001092_2014-06-15_17-34-58_260595134347_rgbf000171-resize_3/001092_2014-06-15_17-34-58_260595134347_rgbf000171-resize_3-target.png,1000,2.6935,2.1,6612,999,feet,jsons/v1_VE1000_randls_76_rotated.json,1136651,1644795,30,Man
34,780486,DepthScenes,duration_manipulation_targetAtFixation,jsons/v1_VE1000_randls_76_rotated.json,http://54.235.29.9/FacialAge/BNav_EC2/DepthDuration/v2_depth_duration_MTurk/v2_DepthDuration_HTML.html#217,217,1440,757,1440,900,8-30-2022,7-6-23,35,depth_duration_stimuli/000635_2014-06-08_16-38-42_260595134347_rgbf000106-resize_1/000635_2014-06-08_16-38-42_260595134347_rgbf000106-resize_1-target.png,1000,2.074,3.0,9824,1001,feet,jsons/v1_VE1000_randls_76_rotated.json,1136651,1644795,30,Man
35,780486,DepthScenes,duration_manipulation_targetAtFixation,jsons/v1_VE1000_randls_76_rotated.json,http://54.235.29.9/FacialAge/BNav_EC2/DepthDuration/v2_depth_duration_MTurk/v2_DepthDuration_HTML.html#217,217,1440,757,1440,900,8-30-2022,7-6-23,36,depth_duration_stimuli/002279_2014-06-28_18-55-32_260595134347_rgbf000040-resize_5/002279_2014-06-28_18-55-32_260595134347_rgbf000040-resize_5-target.png,1000,1.5043333333333,1.5,13150,1063,feet,jsons/v1_VE1000_randls_76_rotated.json,1136651,1644795,30,Man
36,780486,DepthScenes,duration_manipulation_targetAtFixation,jsons/v1_VE1000_randls_76_rotated.json,http://54.235.29.9/FacialAge/BNav_EC2/DepthDuration/v2_depth_duration_MTurk/v2_DepthDuration_HTML.html#217,217,1440,757,1440,900,8-30-2022,7-6-23,37,depth_duration_stimuli/000191_2014-05-12_17-07-38_260595134347_rgbf000199-resize_0/000191_2014-05-12_17-07-38_260595134347_rgbf000199-resize_0-target.png,1000,3.7995,3.0,5523,1001,feet,jsons/v1_VE1000_randls_76_rotated.json,1136651,1644795,30,Man
37,780486,DepthScenes,duration_manipulation_targetAtFixation,jsons/v1_VE1000_randls_76_rotated.json,http://54.235.29.9/FacialAge/BNav_EC2/DepthDuration/v2_depth_duration_MTurk/v2_DepthDuration_HTML.html#217,217,1440,757,1440,900,8-30-2022,7-6-23,38,depth_duration_stimuli/000493_2014-06-09_21-01-18_260595134347_rgbf000196-resize_3/000493_2014-06-09_21-01-18_260595134347_rgbf000196-resize_3-target.png,1000,3.44,2.0,4243,999,feet,jsons/v1_VE1000_randls_76_rotated.json,1136651,1644795,30,Man
38,780486,DepthScenes,duration_manipulation_targetAtFixation,jsons/v1_VE1000_randls_76_rotated.json,http://54.235.29.9/FacialAge/BNav_EC2/DepthDuration/v2_depth_duration_MTurk/v2_DepthDuration_HTML.html#217,217,1440,757,1440,900,8-30-2022,7-6-23,39,depth_duration_stimuli/003490_2014-05-21_15-50-11_094959634447_rgbf000101-resize_3/003490_2014-05-21_15-50-11_094959634447_rgbf000101-resize_3-target.png,1000,3.6445,3.1,13048,999,feet,jsons/v1_VE1000_randls_76_rotated.json,1136651,1644795,30,Man
39,780486,DepthScenes,duration_manipulation_targetAtFixation,jsons/v1_VE1000_randls_76_rotated.json,http://54.235.29.9/FacialAge/BNav_EC2/DepthDuration/v2_depth_duration_MTurk/v2_DepthDuration_HTML.html#217,217,1440,757,1440,900,8-30-2022,7-6-23,40,depth_duration_stimuli/001175_2014-06-17_15-45-55_260595134347_rgbf000129-resize_4/001175_2014-06-17_15-45-55_260595134347_rgbf000129-resize_4-target.png,1000,4.255,0.0,13189,1000,feet,jsons/v1_VE1000_randls_76_rotated.json,1136651,1644795,30,Man
40,780486,DepthScenes,duration_manipulation_targetAtFixation,jsons/v1_VE1000_randls_76_rotated.json,http://54.235.29.9/FacialAge/BNav_EC2/DepthDuration/v2_depth_duration_MTurk/v2_DepthDuration_HTML.html#217,217,1440,757,1440,900,8-30-2022,7-6-23,41,depth_duration_stimuli/003010_2014-06-15_12-54-35_094959634447_rgbf000112-resize_0/003010_2014-06-15_12-54-35_094959634447_rgbf000112-resize_0-target.png,1000,3.1185,6.0,8062,1000,feet,jsons/v1_VE1000_randls_76_rotated.json,1136651,1644795,30,Man
41,780486,DepthScenes,duration_manipulation_targetAtFixation,jsons/v1_VE1000_randls_76_rotated.json,http://54.235.29.9/FacialAge/BNav_EC2/DepthDuration/v2_depth_duration_MTurk/v2_DepthDuration_HTML.html#217,217,1440,757,1440,900,8-30-2022,7-6-23,42,depth_duration_stimuli/001810_2014-06-26_20-51-35_260595134347_rgbf000040-resize_3/001810_2014-06-26_20-51-35_260595134347_rgbf000040-resize_3-target.png,1000,2.2525,2.0,5173,1000,feet,jsons/v1_VE1000_randls_76_rotated.json,1136651,1644795,30,Man
42,780486,DepthScenes,duration_manipulation_targetAtFixation,jsons/v1_VE1000_randls_76_rotated.json,http://54.235.29.9/FacialAge/BNav_EC2/DepthDuration/v2_depth_duration_MTurk/v2_DepthDuration_HTML.html#217,217,1440,757,1440,900,8-30-2022,7-6-23,43,depth_duration_stimuli/001815_2014-06-26_20-52-55_260595134347_rgbf000020-resize_0/001815_2014-06-26_20-52-55_260595134347_rgbf000020-resize_0-target.png,1000,3.3865,5.1,8253,1001,feet,jsons/v1_VE1000_randls_76_rotated.json,1136651,1644795,30,Man
43,780486,DepthScenes,duration_manipulation_targetAtFixation,jsons/v1_VE1000_randls_76_rotated.json,http://54.235.29.9/FacialAge/BNav_EC2/DepthDuration/v2_depth_duration_MTurk/v2_DepthDuration_HTML.html#217,217,1440,757,1440,900,8-30-2022,7-6-23,44,depth_duration_stimuli/001808_2014-06-26_20-50-58_260595134347_rgbf000029-resize_1/001808_2014-06-26_20-50-58_260595134347_rgbf000029-resize_1-target.png,1000,4.249,5.2,4969,1000,feet,jsons/v1_VE1000_randls_76_rotated.json,1136651,1644795,30,Man
44,780486,DepthScenes,duration_manipulation_targetAtFixation,jsons/v1_VE1000_randls_76_rotated.json,http://54.235.29.9/FacialAge/BNav_EC2/DepthDuration/v2_depth_duration_MTurk/v2_DepthDuration_HTML.html#217,217,1440,757,1440,900,8-30-2022,7-6-23,45,depth_duration_stimuli/000780_2014-06-08_22-28-29_260595134347_rgbf000126-resize_1/000780_2014-06-08_22-28-29_260595134347_rgbf000126-resize_1-target.png,1000,3.3825,4.3,8622,1001,feet,jsons/v1_VE1000_randls_76_rotated.json,1136651,1644795,30,Man
45,780486,DepthScenes,duration_manipulation_targetAtFixation,jsons/v1_VE1000_randls_76_rotated.json,http://54.235.29.9/FacialAge/BNav_EC2/DepthDuration/v2_depth_duration_MTurk/v2_DepthDuration_HTML.html#217,217,1440,757,1440,900,8-30-2022,7-6-23,46,depth_duration_stimuli/002445_2014-06-28_20-32-16_260595134347_rgbf000029-resize_4/002445_2014-06-28_20-32-16_260595134347_rgbf000029-resize_4-target.png,1000,2.5315,2.0,4191,1000,feet,jsons/v1_VE1000_randls_76_rotated.json,1136651,1644795,30,Man
46,780486,DepthScenes,duration_manipulation_targetAtFixation,jsons/v1_VE1000_randls_76_rotated.json,http://54.235.29.9/FacialAge/BNav_EC2/DepthDuration/v2_depth_duration_MTurk/v2_DepthDuration_HTML.html#217,217,1440,757,1440,900,8-30-2022,7-6-23,47,depth_duration_stimuli/001617_2014-06-20_11-35-32_260595134347_rgbf000066-resize_1/001617_2014-06-20_11-35-32_260595134347_rgbf000066-resize_1-target.png,1000,3.7910000000000004,3.3,8354,1013,feet,jsons/v1_VE1000_randls_76_rotated.json,1136651,1644795,30,Man
47,780486,DepthScenes,duration_manipulation_targetAtFixation,jsons/v1_VE1000_randls_76_rotated.json,http://54.235.29.9/FacialAge/BNav_EC2/DepthDuration/v2_depth_duration_MTurk/v2_DepthDuration_HTML.html#217,217,1440,757,1440,900,8-30-2022,7-6-23,48,depth_duration_stimuli/001806_2014-06-26_20-50-20_260595134347_rgbf000091-resize_1/001806_2014-06-26_20-50-20_260595134347_rgbf000091-resize_1-target.png,1000,2.7305,2.1,5077,996,feet,jsons/v1_VE1000_randls_76_rotated.json,1136651,1644795,30,Man
48,780486,DepthScenes,duration_manipulation_targetAtFixation,jsons/v1_VE1000_randls_76_rotated.json,http://54.235.29.9/FacialAge/BNav_EC2/DepthDuration/v2_depth_duration_MTurk/v2_DepthDuration_HTML.html#217,217,1440,757,1440,900,8-30-2022,7-6-23,49,depth_duration_stimuli/001170_2014-06-17_15-43-44_260595134347_rgbf000096-resize_6/001170_2014-06-17_15-43-44_260595134347_rgbf000096-resize-original.jpg,1000,1.1909999999999998,0.0,6815,999,feet,jsons/v1_VE1000_randls_76_rotated.json,1136651,1644795,30,Man
49,780486,DepthScenes,duration_manipulation_targetAtFixation,jsons/v1_VE1000_randls_76_rotated.json,http://54.235.29.9/FacialAge/BNav_EC2/DepthDuration/v2_depth_duration_MTurk/v2_DepthDuration_HTML.html#217,217,1440,757,1440,900,8-30-2022,7-6-23,50,depth_duration_stimuli/000927_2014-06-09_16-32-30_260595134347_rgbf000123-resize_3/000927_2014-06-09_16-32-30_260595134347_rgbf000123-resize_3-target.png,1000,2.6785,3.3,7368,1014,feet,jsons/v1_VE1000_randls_76_rotated.json,1136651,1644795,30,Man
50,780486,DepthScenes,duration_manipulation_targetAtFixation,jsons/v1_VE1000_randls_76_rotated.json,http://54.235.29.9/FacialAge/BNav_EC2/DepthDuration/v2_depth_duration_MTurk/v2_DepthDuration_HTML.html#217,217,1440,757,1440,900,8-30-2022,7-6-23,51,depth_duration_stimuli/001110_2014-06-15_17-25-28_260595134347_rgbf000150-resize_1/001110_2014-06-15_17-25-28_260595134347_rgbf000150-resize_1-target.png,1000,1.7115,0.0,4899,1000,feet,jsons/v1_VE1000_randls_76_rotated.json,1136651,1644795,30,Man
51,780486,DepthScenes,duration_manipulation_targetAtFixation,jsons/v1_VE1000_randls_76_rotated.json,http://54.235.29.9/FacialAge/BNav_EC2/DepthDuration/v2_depth_duration_MTurk/v2_DepthDuration_HTML.html#217,217,1440,757,1440,900,8-30-2022,7-6-23,52,depth_duration_stimuli/002758_2014-06-22_19-11-20_094959634447_rgbf000128-resize_1/002758_2014-06-22_19-11-20_094959634447_rgbf000128-resize_1-target.png,1000,2.555,2.1,8111,999,feet,jsons/v1_VE1000_randls_76_rotated.json,1136651,1644795,30,Man
52,780486,DepthScenes,duration_manipulation_targetAtFixation,jsons/v1_VE1000_randls_76_rotated.json,http://54.235.29.9/FacialAge/BNav_EC2/DepthDuration/v2_depth_duration_MTurk/v2_DepthDuration_HTML.html#217,217,1440,757,1440,900,8-30-2022,7-6-23,53,depth_duration_stimuli/002630_2014-06-24_14-47-50_094959634447_rgbf000055-resize_1/002630_2014-06-24_14-47-50_094959634447_rgbf000055-resize_1-target.png,1000,3.0095,4.3,7526,1000,feet,jsons/v1_VE1000_randls_76_rotated.json,1136651,1644795,30,Man
53,780486,DepthScenes,duration_manipulation_targetAtFixation,jsons/v1_VE1000_randls_76_rotated.json,http://54.235.29.9/FacialAge/BNav_EC2/DepthDuration/v2_depth_duration_MTurk/v2_DepthDuration_HTML.html#217,217,1440,757,1440,900,8-30-2022,7-6-23,54,depth_duration_stimuli/002875_2014-06-01_15-19-00_094959634447_rgbf000151-resize_1/002875_2014-06-01_15-19-00_094959634447_rgbf000151-resize_1-target.png,1000,1.9675,3.2,5017,1021,feet,jsons/v1_VE1000_randls_76_rotated.json,1136651,1644795,30,Man
54,780486,DepthScenes,duration_manipulation_targetAtFixation,jsons/v1_VE1000_randls_76_rotated.json,http://54.235.29.9/FacialAge/BNav_EC2/DepthDuration/v2_depth_duration_MTurk/v2_DepthDuration_HTML.html#217,217,1440,757,1440,900,8-30-2022,7-6-23,55,depth_duration_stimuli/001011_2014-06-08_23-18-54_260595134347_rgbf000044-resize_4/001011_2014-06-08_23-18-54_260595134347_rgbf000044-resize_4-target.png,1000,2.4730000000000003,3.3,8777,1000,feet,jsons/v1_VE1000_randls_76_rotated.json,1136651,1644795,30,Man
55,780486,DepthScenes,duration_manipulation_targetAtFixation,jsons/v1_VE1000_randls_76_rotated.json,http://54.235.29.9/FacialAge/BNav_EC2/DepthDuration/v2_depth_duration_MTurk/v2_DepthDuration_HTML.html#217,217,1440,757,1440,900,8-30-2022,7-6-23,56,depth_duration_stimuli/000691_2014-06-08_13-08-50_260595134347_rgbf000132-resize_3/000691_2014-06-08_13-08-50_260595134347_rgbf000132-resize_3-target.png,1000,4.1530000000000005,2.2,7645,896,feet,jsons/v1_VE1000_randls_76_rotated.json,1136651,1644795,30,Man
56,780486,DepthScenes,duration_manipulation_targetAtFixation,jsons/v1_VE1000_randls_76_rotated.json,http://54.235.29.9/FacialAge/BNav_EC2/DepthDuration/v2_depth_duration_MTurk/v2_DepthDuration_HTML.html#217,217,1440,757,1440,900,8-30-2022,7-6-23,57,depth_duration_stimuli/002213_2014-06-28_18-37-58_260595134347_rgbf000055-resize_1/002213_2014-06-28_18-37-58_260595134347_rgbf000055-resize_1-target.png,1000,3.62,0.0,8083,1001,feet,jsons/v1_VE1000_randls_76_rotated.json,1136651,1644795,30,Man
57,780486,DepthScenes,duration_manipulation_targetAtFixation,jsons/v1_VE1000_randls_76_rotated.json,http://54.235.29.9/FacialAge/BNav_EC2/DepthDuration/v2_depth_duration_MTurk/v2_DepthDuration_HTML.html#217,217,1440,757,1440,900,8-30-2022,7-6-23,58,depth_duration_stimuli/002805_2014-06-22_19-54-03_094959634447_rgbf000079-resize_1/002805_2014-06-22_19-54-03_094959634447_rgbf000079-resize_1-target.png,1000,3.1439999999999997,2.3,9934,998,feet,jsons/v1_VE1000_randls_76_rotated.json,1136651,1644795,30,Man
58,780486,DepthScenes,duration_manipulation_targetAtFixation,jsons/v1_VE1000_randls_76_rotated.json,http://54.235.29.9/FacialAge/BNav_EC2/DepthDuration/v2_depth_duration_MTurk/v2_DepthDuration_HTML.html#217,217,1440,757,1440,900,8-30-2022,7-6-23,59,depth_duration_stimuli/000906_2014-06-08_13-35-43_260595134347_rgbf000155-resize_1/000906_2014-06-08_13-35-43_260595134347_rgbf000155-resize_1-target.png,1000,2.8489999999999998,2.4,10431,1001,feet,jsons/v1_VE1000_randls_76_rotated.json,1136651,1644795,30,Man
59,780486,DepthScenes,duration_manipulation_targetAtFixation,jsons/v1_VE1000_randls_76_rotated.json,http://54.235.29.9/FacialAge/BNav_EC2/DepthDuration/v2_depth_duration_MTurk/v2_DepthDuration_HTML.html#217,217,1440,757,1440,900,8-30-2022,7-6-23,60,depth_duration_stimuli/001032_2014-06-08_13-23-17_260595134347_rgbf000021-resize_3/001032_2014-06-08_13-23-17_260595134347_rgbf000021-resize_3-target.png,1000,3.2725,1.0,6708,895,feet,jsons/v1_VE1000_randls_76_rotated.json,1136651,1644795,30,Man
60,780486,DepthScenes,duration_manipulation_targetAtFixation,jsons/v1_VE1000_randls_76_rotated.json,http://54.235.29.9/FacialAge/BNav_EC2/DepthDuration/v2_depth_duration_MTurk/v2_DepthDuration_HTML.html#217,217,1440,757,1440,900,8-30-2022,7-6-23,61,depth_duration_stimuli/001059_2014-06-08_21-53-27_260595134347_rgbf000061-resize_4/001059_2014-06-08_21-53-27_260595134347_rgbf000061-resize_4-target.png,1000,2.4185,3.0,7326,1000,feet,jsons/v1_VE1000_randls_76_rotated.json,1136651,1644795,30,Man
61,780486,DepthScenes,duration_manipulation_targetAtFixation,jsons/v1_VE1000_randls_76_rotated.json,http://54.235.29.9/FacialAge/BNav_EC2/DepthDuration/v2_depth_duration_MTurk/v2_DepthDuration_HTML.html#217,217,1440,757,1440,900,8-30-2022,7-6-23,62,depth_duration_stimuli/002639_2014-06-24_14-51-37_094959634447_rgbf000074-resize_4/002639_2014-06-24_14-51-37_094959634447_rgbf000074-resize_4-target.png,1000,4.0375,3.1,6046,998,feet,jsons/v1_VE1000_randls_76_rotated.json,1136651,1644795,30,Man
62,780486,DepthScenes,duration_manipulation_targetAtFixation,jsons/v1_VE1000_randls_76_rotated.json,http://54.235.29.9/FacialAge/BNav_EC2/DepthDuration/v2_depth_duration_MTurk/v2_DepthDuration_HTML.html#217,217,1440,757,1440,900,8-30-2022,7-6-23,63,depth_duration_stimuli/003292_2014-05-14_21-53-49_094959634447_rgbf000100-resize_2/003292_2014-05-14_21-53-49_094959634447_rgbf000100-resize_2-target.png,1000,3.4815,3.2,4487,1007,feet,jsons/v1_VE1000_randls_76_rotated.json,1136651,1644795,30,Man
63,780486,DepthScenes,duration_manipulation_targetAtFixation,jsons/v1_VE1000_randls_76_rotated.json,http://54.235.29.9/FacialAge/BNav_EC2/DepthDuration/v2_depth_duration_MTurk/v2_DepthDuration_HTML.html#217,217,1440,757,1440,900,8-30-2022,7-6-23,64,depth_duration_stimuli/000103_2014-05-14_22-01-17_260595134347_rgbf000152-resize_5/000103_2014-05-14_22-01-17_260595134347_rgbf000152-resize_5-target.png,1000,1.993,4.0,7217,1014,feet,jsons/v1_VE1000_randls_76_rotated.json,1136651,1644795,30,Man
64,780486,DepthScenes,duration_manipulation_targetAtFixation,jsons/v1_VE1000_randls_76_rotated.json,http://54.235.29.9/FacialAge/BNav_EC2/DepthDuration/v2_depth_duration_MTurk/v2_DepthDuration_HTML.html#217,217,1440,757,1440,900,8-30-2022,7-6-23,65,depth_duration_stimuli/001555_2014-06-20_17-12-10_260595134347_rgbf000065-resize_4/001555_2014-06-20_17-12-10_260595134347_rgbf000065-resize_4-target.png,1000,1.633,2.1,4934,1000,feet,jsons/v1_VE1000_randls_76_rotated.json,1136651,1644795,30,Man
65,780486,DepthScenes,duration_manipulation_targetAtFixation,jsons/v1_VE1000_randls_76_rotated.json,http://54.235.29.9/FacialAge/BNav_EC2/DepthDuration/v2_depth_duration_MTurk/v2_DepthDuration_HTML.html#217,217,1440,757,1440,900,8-30-2022,7-6-23,66,depth_duration_stimuli/001540_2014-06-20_17-01-05_260595134347_rgbf000086-resize_2/001540_2014-06-20_17-01-05_260595134347_rgbf000086-resize-original.jpg,1000,1.459,0.0,5573,999,feet,jsons/v1_VE1000_randls_76_rotated.json,1136651,1644795,30,Man
66,780486,DepthScenes,duration_manipulation_targetAtFixation,jsons/v1_VE1000_randls_76_rotated.json,http://54.235.29.9/FacialAge/BNav_EC2/DepthDuration/v2_depth_duration_MTurk/v2_DepthDuration_HTML.html#217,217,1440,757,1440,900,8-30-2022,7-6-23,67,depth_duration_stimuli/000709_2014-06-08_13-51-55_260595134347_rgbf000068-resize_3/000709_2014-06-08_13-51-55_260595134347_rgbf000068-resize_3-target.png,1000,1.8030000000000002,4.3,9743,1000,feet,jsons/v1_VE1000_randls_76_rotated.json,1136651,1644795,30,Man
67,780486,DepthScenes,duration_manipulation_targetAtFixation,jsons/v1_VE1000_randls_76_rotated.json,http://54.235.29.9/FacialAge/BNav_EC2/DepthDuration/v2_depth_duration_MTurk/v2_DepthDuration_HTML.html#217,217,1440,757,1440,900,8-30-2022,7-6-23,68,depth_duration_stimuli/002057_2014-06-24_21-00-13_260595134347_rgbf000120-resize_1/002057_2014-06-24_21-00-13_260595134347_rgbf000120-resize_1-target.png,1000,2.967,3.2,4577,1001,feet,jsons/v1_VE1000_randls_76_rotated.json,1136651,1644795,30,Man
68,780486,DepthScenes,duration_manipulation_targetAtFixation,jsons/v1_VE1000_randls_76_rotated.json,http://54.235.29.9/FacialAge/BNav_EC2/DepthDuration/v2_depth_duration_MTurk/v2_DepthDuration_HTML.html#217,217,1440,757,1440,900,8-30-2022,7-6-23,69,depth_duration_stimuli/001136_2014-06-17_15-19-41_260595134347_rgbf000076-resize_3/001136_2014-06-17_15-19-41_260595134347_rgbf000076-resize_3-target.png,1000,1.8655,4.0,5652,1000,feet,jsons/v1_VE1000_randls_76_rotated.json,1136651,1644795,30,Man
69,780486,DepthScenes,duration_manipulation_targetAtFixation,jsons/v1_VE1000_randls_76_rotated.json,http://54.235.29.9/FacialAge/BNav_EC2/DepthDuration/v2_depth_duration_MTurk/v2_DepthDuration_HTML.html#217,217,1440,757,1440,900,8-30-2022,7-6-23,70,depth_duration_stimuli/001164_2014-06-17_15-35-46_260595134347_rgbf000085-resize_3/001164_2014-06-17_15-35-46_260595134347_rgbf000085-resize_3-target.png,1000,2.354,4.2,5128,999,feet,jsons/v1_VE1000_randls_76_rotated.json,1136651,1644795,30,Man
70,780486,DepthScenes,duration_manipulation_targetAtFixation,jsons/v1_VE1000_randls_76_rotated.json,http://54.235.29.9/FacialAge/BNav_EC2/DepthDuration/v2_depth_duration_MTurk/v2_DepthDuration_HTML.html#217,217,1440,757,1440,900,8-30-2022,7-6-23,71,depth_duration_stimuli/002637_2014-06-24_14-51-13_094959634447_rgbf000066-resize_4/002637_2014-06-24_14-51-13_094959634447_rgbf000066-resize_4-target.png,1000,1.9955,3.0,5349,999,feet,jsons/v1_VE1000_randls_76_rotated.json,1136651,1644795,30,Man
71,780486,DepthScenes,duration_manipulation_targetAtFixation,jsons/v1_VE1000_randls_76_rotated.json,http://54.235.29.9/FacialAge/BNav_EC2/DepthDuration/v2_depth_duration_MTurk/v2_DepthDuration_HTML.html#217,217,1440,757,1440,900,8-30-2022,7-6-23,72,depth_duration_stimuli/003534_2014-05-22_15-06-10_094959634447_rgbf000102-resize_4/003534_2014-05-22_15-06-10_094959634447_rgbf000102-resize_4-target.png,1000,1.426,1.0,3684,1000,feet,jsons/v1_VE1000_randls_76_rotated.json,1136651,1644795,30,Man
72,780486,DepthScenes,duration_manipulation_targetAtFixation,jsons/v1_VE1000_randls_76_rotated.json,http://54.235.29.9/FacialAge/BNav_EC2/DepthDuration/v2_depth_duration_MTurk/v2_DepthDuration_HTML.html#217,217,1440,757,1440,900,8-30-2022,7-6-23,73,depth_duration_stimuli/002136_2014-06-25_21-18-03_260595134347_rgbf000109-resize_3/002136_2014-06-25_21-18-03_260595134347_rgbf000109-resize_3-target.png,1000,1.9569999999999999,2.0,6686,1001,feet,jsons/v1_VE1000_randls_76_rotated.json,1136651,1644795,30,Man
73,780486,DepthScenes,duration_manipulation_targetAtFixation,jsons/v1_VE1000_randls_76_rotated.json,http://54.235.29.9/FacialAge/BNav_EC2/DepthDuration/v2_depth_duration_MTurk/v2_DepthDuration_HTML.html#217,217,1440,757,1440,900,8-30-2022,7-6-23,74,depth_duration_stimuli/002964_2014-06-08_17-46-11_094959634447_rgbf000091-resize_4/002964_2014-06-08_17-46-11_094959634447_rgbf000091-resize_4-target.png,1000,1.6909999999999998,2.1,3980,1000,feet,jsons/v1_VE1000_randls_76_rotated.json,1136651,1644795,30,Man
74,780486,DepthScenes,duration_manipulation_targetAtFixation,jsons/v1_VE1000_randls_76_rotated.json,http://54.235.29.9/FacialAge/BNav_EC2/DepthDuration/v2_depth_duration_MTurk/v2_DepthDuration_HTML.html#217,217,1440,757,1440,900,8-30-2022,7-6-23,75,depth_duration_stimuli/000854_2014-06-09_19-43-13_260595134347_rgbf000066-resize_0/000854_2014-06-09_19-43-13_260595134347_rgbf000066-resize_0-target.png,1000,3.068,1.3,6680,1001,feet,jsons/v1_VE1000_randls_76_rotated.json,1136651,1644795,30,Man
75,780486,DepthScenes,duration_manipulation_targetAtFixation,jsons/v1_VE1000_randls_76_rotated.json,http://54.235.29.9/FacialAge/BNav_EC2/DepthDuration/v2_depth_duration_MTurk/v2_DepthDuration_HTML.html#217,217,1440,757,1440,900,8-30-2022,7-6-23,76,depth_duration_stimuli/000758_2014-06-08_22-05-08_260595134347_rgbf000085-resize_0/000758_2014-06-08_22-05-08_260595134347_rgbf000085-resize_0-target.png,1000,3.3810000000000002,2.5,6959,1000,feet,jsons/v1_VE1000_randls_76_rotated.json,1136651,1644795,30,Man
76,780486,DepthScenes,duration_manipulation_targetAtFixation,jsons/v1_VE1000_randls_76_rotated.json,http://54.235.29.9/FacialAge/BNav_EC2/DepthDuration/v2_depth_duration_MTurk/v2_DepthDuration_HTML.html#217,217,1440,757,1440,900,8-30-2022,7-6-23,77,depth_duration_stimuli/003081_2014-06-15_15-19-16_094959634447_rgbf000150-resize_1/003081_2014-06-15_15-19-16_094959634447_rgbf000150-resize_1-target.png,1000,3.9125,3.0,5877,1000,feet,jsons/v1_VE1000_randls_76_rotated.json,1136651,1644795,30,Man
77,780486,DepthScenes,duration_manipulation_targetAtFixation,jsons/v1_VE1000_randls_76_rotated.json,http://54.235.29.9/FacialAge/BNav_EC2/DepthDuration/v2_depth_duration_MTurk/v2_DepthDuration_HTML.html#217,217,1440,757,1440,900,8-30-2022,7-6-23,78,depth_duration_stimuli/001417_2014-06-19_16-25-36_260595134347_rgbf000115-resize_5/001417_2014-06-19_16-25-36_260595134347_rgbf000115-resize_5-target.png,1000,4.6255,3.0,4581,998,feet,jsons/v1_VE1000_randls_76_rotated.json,1136651,1644795,30,Man
78,780486,DepthScenes,duration_manipulation_targetAtFixation,jsons/v1_VE1000_randls_76_rotated.json,http://54.235.29.9/FacialAge/BNav_EC2/DepthDuration/v2_depth_duration_MTurk/v2_DepthDuration_HTML.html#217,217,1440,757,1440,900,8-30-2022,7-6-23,79,depth_duration_stimuli/001094_2014-06-15_17-36-00_260595134347_rgbf000205-resize_0/001094_2014-06-15_17-36-00_260595134347_rgbf000205-resize_0-target.png,1000,4.2175,3.0,5118,1000,feet,jsons/v1_VE1000_randls_76_rotated.json,1136651,1644795,30,Man
79,780486,DepthScenes,duration_manipulation_targetAtFixation,jsons/v1_VE1000_randls_76_rotated.json,http://54.235.29.9/FacialAge/BNav_EC2/DepthDuration/v2_depth_duration_MTurk/v2_DepthDuration_HTML.html#217,217,1440,757,1440,900,8-30-2022,7-6-23,80,depth_duration_stimuli/000692_2014-06-08_13-09-42_260595134347_rgbf000199-resize_2/000692_2014-06-08_13-09-42_260595134347_rgbf000199-resize_2-target.png,1000,3.661,4.1,4878,1001,feet,jsons/v1_VE1000_randls_76_rotated.json,1136651,1644795,30,Man
80,780486,DepthScenes,duration_manipulation_targetAtFixation,jsons/v1_VE1000_randls_76_rotated.json,http://54.235.29.9/FacialAge/BNav_EC2/DepthDuration/v2_depth_duration_MTurk/v2_DepthDuration_HTML.html#217,217,1440,757,1440,900,8-30-2022,7-6-23,81,depth_duration_stimuli/001516_2014-06-20_16-25-09_260595134347_rgbf000076-resize_2/001516_2014-06-20_16-25-09_260595134347_rgbf000076-resize_2-target.png,1000,1.7445,3.4,7052,1120,feet,jsons/v1_VE1000_randls_76_rotated.json,1136651,1644795,30,Man
81,780486,DepthScenes,duration_manipulation_targetAtFixation,jsons/v1_VE1000_randls_76_rotated.json,http://54.235.29.9/FacialAge/BNav_EC2/DepthDuration/v2_depth_duration_MTurk/v2_DepthDuration_HTML.html#217,217,1440,757,1440,900,8-30-2022,7-6-23,82,depth_duration_stimuli/002118_2014-06-25_20-32-08_260595134347_rgbf000078-resize_1/002118_2014-06-25_20-32-08_260595134347_rgbf000078-resize_1-target.png,1000,2.6460000000000004,2.2,5287,999,feet,jsons/v1_VE1000_randls_76_rotated.json,1136651,1644795,30,Man
82,780486,DepthScenes,duration_manipulation_targetAtFixation,jsons/v1_VE1000_randls_76_rotated.json,http://54.235.29.9/FacialAge/BNav_EC2/DepthDuration/v2_depth_duration_MTurk/v2_DepthDuration_HTML.html#217,217,1440,757,1440,900,8-30-2022,7-6-23,83,depth_duration_stimuli/001392_2014-06-19_16-07-59_260595134347_rgbf000046-resize_1/001392_2014-06-19_16-07-59_260595134347_rgbf000046-resize_1-target.png,1000,4.135,5.5,9472,992,feet,jsons/v1_VE1000_randls_76_rotated.json,1136651,1644795,30,Man
83,780486,DepthScenes,duration_manipulation_targetAtFixation,jsons/v1_VE1000_randls_76_rotated.json,http://54.235.29.9/FacialAge/BNav_EC2/DepthDuration/v2_depth_duration_MTurk/v2_DepthDuration_HTML.html#217,217,1440,757,1440,900,8-30-2022,7-6-23,84,depth_duration_stimuli/001570_2014-06-20_17-21-09_260595134347_rgbf000135-resize_4/001570_2014-06-20_17-21-09_260595134347_rgbf000135-resize_4-target.png,1000,4.467,3.2,4577,998,feet,jsons/v1_VE1000_randls_76_rotated.json,1136651,1644795,30,Man
84,780486,DepthScenes,duration_manipulation_targetAtFixation,jsons/v1_VE1000_randls_76_rotated.json,http://54.235.29.9/FacialAge/BNav_EC2/DepthDuration/v2_depth_duration_MTurk/v2_DepthDuration_HTML.html#217,217,1440,757,1440,900,8-30-2022,7-6-23,85,depth_duration_stimuli/001828_2014-06-26_21-40-03_260595134347_rgbf000024-resize_0/001828_2014-06-26_21-40-03_260595134347_rgbf000024-resize_0-target.png,1000,4.8260000000000005,2.5,8738,999,feet,jsons/v1_VE1000_randls_76_rotated.json,1136651,1644795,30,Man
85,780486,DepthScenes,duration_manipulation_targetAtFixation,jsons/v1_VE1000_randls_76_rotated.json,http://54.235.29.9/FacialAge/BNav_EC2/DepthDuration/v2_depth_duration_MTurk/v2_DepthDuration_HTML.html#217,217,1440,757,1440,900,8-30-2022,7-6-23,86,depth_duration_stimuli/000009_2014-05-26_14-32-05_260595134347_rgbf000034-resize_3/000009_2014-05-26_14-32-05_260595134347_rgbf000034-resize_3-target.png,1000,3.8715,6.0,3640,997,feet,jsons/v1_VE1000_randls_76_rotated.json,1136651,1644795,30,Man
86,780486,DepthScenes,duration_manipulation_targetAtFixation,jsons/v1_VE1000_randls_76_rotated.json,http://54.235.29.9/FacialAge/BNav_EC2/DepthDuration/v2_depth_duration_MTurk/v2_DepthDuration_HTML.html#217,217,1440,757,1440,900,8-30-2022,7-6-23,87,depth_duration_stimuli/002340_2014-06-28_20-05-46_260595134347_rgbf000113-resize_0/002340_2014-06-28_20-05-46_260595134347_rgbf000113-resize_0-target.png,1000,2.4735,5.0,6654,1000,feet,jsons/v1_VE1000_randls_76_rotated.json,1136651,1644795,30,Man
87,780486,DepthScenes,duration_manipulation_targetAtFixation,jsons/v1_VE1000_randls_76_rotated.json,http://54.235.29.9/FacialAge/BNav_EC2/DepthDuration/v2_depth_duration_MTurk/v2_DepthDuration_HTML.html#217,217,1440,757,1440,900,8-30-2022,7-6-23,88,depth_duration_stimuli/001016_2014-06-09_16-16-10_260595134347_rgbf000112-resize_5/001016_2014-06-09_16-16-10_260595134347_rgbf000112-resize_5-target.png,1000,1.6565,2.4,4539,999,feet,jsons/v1_VE1000_randls_76_rotated.json,1136651,1644795,30,Man
88,780486,DepthScenes,duration_manipulation_targetAtFixation,jsons/v1_VE1000_randls_76_rotated.json,http://54.235.29.9/FacialAge/BNav_EC2/DepthDuration/v2_depth_duration_MTurk/v2_DepthDuration_HTML.html#217,217,1440,757,1440,900,8-30-2022,7-6-23,89,depth_duration_stimuli/002660_2014-06-13_15-44-18_094959634447_rgbf001878-resize_2/002660_2014-06-13_15-44-18_094959634447_rgbf001878-resize_2-target.png,1000,3.576,2.2,8347,997,feet,jsons/v1_VE1000_randls_76_rotated.json,1136651,1644795,30,Man
89,780486,DepthScenes,duration_manipulation_targetAtFixation,jsons/v1_VE1000_randls_76_rotated.json,http://54.235.29.9/FacialAge/BNav_EC2/DepthDuration/v2_depth_duration_MTurk/v2_DepthDuration_HTML.html#217,217,1440,757,1440,900,8-30-2022,7-6-23,90,depth_duration_stimuli/002153_2014-06-25_21-27-18_260595134347_rgbf000038-resize_5/002153_2014-06-25_21-27-18_260595134347_rgbf000038-resize_5-target.png,1000,2.505,1.5,5459,1150,feet,jsons/v1_VE1000_randls_76_rotated.json,1136651,1644795,30,Man
90,780486,DepthScenes,duration_manipulation_targetAtFixation,jsons/v1_VE1000_randls_76_rotated.json,http://54.235.29.9/FacialAge/BNav_EC2/DepthDuration/v2_depth_duration_MTurk/v2_DepthDuration_HTML.html#217,217,1440,757,1440,900,8-30-2022,7-6-23,91,depth_duration_stimuli/000409_2014-06-04_19-23-33_260595134347_rgbf000067-resize_0/000409_2014-06-04_19-23-33_260595134347_rgbf000067-resize_0-target.png,1000,3.7335,2.5,8629,999,feet,jsons/v1_VE1000_randls_76_rotated.json,1136651,1644795,30,Man
91,780486,DepthScenes,duration_manipulation_targetAtFixation,jsons/v1_VE1000_randls_76_rotated.json,http://54.235.29.9/FacialAge/BNav_EC2/DepthDuration/v2_depth_duration_MTurk/v2_DepthDuration_HTML.html#217,217,1440,757,1440,900,8-30-2022,7-6-23,92,depth_duration_stimuli/002663_2014-06-13_15-50-26_094959634447_rgbf000075-resize_1/002663_2014-06-13_15-50-26_094959634447_rgbf000075-resize_1-target.png,1000,4.7495,3.4,5266,926,feet,jsons/v1_VE1000_randls_76_rotated.json,1136651,1644795,30,Man
92,780486,DepthScenes,duration_manipulation_targetAtFixation,jsons/v1_VE1000_randls_76_rotated.json,http://54.235.29.9/FacialAge/BNav_EC2/DepthDuration/v2_depth_duration_MTurk/v2_DepthDuration_HTML.html#217,217,1440,757,1440,900,8-30-2022,7-6-23,93,depth_duration_stimuli/002657_2014-06-13_15-29-54_094959634447_rgbf000150-resize_1/002657_2014-06-13_15-29-54_094959634447_rgbf000150-resize_1-target.png,1000,4.919,2.2,10177,1000,feet,jsons/v1_VE1000_randls_76_rotated.json,1136651,1644795,30,Man
93,780486,DepthScenes,duration_manipulation_targetAtFixation,jsons/v1_VE1000_randls_76_rotated.json,http://54.235.29.9/FacialAge/BNav_EC2/DepthDuration/v2_depth_duration_MTurk/v2_DepthDuration_HTML.html#217,217,1440,757,1440,900,8-30-2022,7-6-23,94,depth_duration_stimuli/002375_2014-06-28_20-13-44_260595134347_rgbf000032-resize_1/002375_2014-06-28_20-13-44_260595134347_rgbf000032-resize_1-target.png,1000,4.0175,2.0,5021,999,feet,jsons/v1_VE1000_randls_76_rotated.json,1136651,1644795,30,Man
94,780486,DepthScenes,duration_manipulation_targetAtFixation,jsons/v1_VE1000_randls_76_rotated.json,http://54.235.29.9/FacialAge/BNav_EC2/DepthDuration/v2_depth_duration_MTurk/v2_DepthDuration_HTML.html#217,217,1440,757,1440,900,8-30-2022,7-6-23,95,depth_duration_stimuli/002103_2014-06-25_20-00-40_260595134347_rgbf000049-resize_0/002103_2014-06-25_20-00-40_260595134347_rgbf000049-resize_0-target.png,1000,4.105,3.0,8161,1000,feet,jsons/v1_VE1000_randls_76_rotated.json,1136651,1644795,30,Man
95,780486,DepthScenes,duration_manipulation_targetAtFixation,jsons/v1_VE1000_randls_76_rotated.json,http://54.235.29.9/FacialAge/BNav_EC2/DepthDuration/v2_depth_duration_MTurk/v2_DepthDuration_HTML.html#217,217,1440,757,1440,900,8-30-2022,7-6-23,96,depth_duration_stimuli/002039_2014-06-24_20-22-38_260595134347_rgbf000084-resize_1/002039_2014-06-24_20-22-38_260595134347_rgbf000084-resize_1-target.png,1000,4.408,3.0,4439,1000,feet,jsons/v1_VE1000_randls_76_rotated.json,1136651,1644795,30,Man
96,780486,DepthScenes,duration_manipulation_targetAtFixation,jsons/v1_VE1000_randls_76_rotated.json,http://54.235.29.9/FacialAge/BNav_EC2/DepthDuration/v2_depth_duration_MTurk/v2_DepthDuration_HTML.html#217,217,1440,757,1440,900,8-30-2022,7-6-23,97,depth_duration_stimuli/001214_2014-06-17_16-13-55_260595134347_rgbf000111-resize_0/001214_2014-06-17_16-13-55_260595134347_rgbf000111-resize_0-target.png,1000,2.6505,1.4,9102,1000,feet,jsons/v1_VE1000_randls_76_rotated.json,1136651,1644795,30,Man
97,780486,DepthScenes,duration_manipulation_targetAtFixation,jsons/v1_VE1000_randls_76_rotated.json,http://54.235.29.9/FacialAge/BNav_EC2/DepthDuration/v2_depth_duration_MTurk/v2_DepthDuration_HTML.html#217,217,1440,757,1440,900,8-30-2022,7-6-23,98,depth_duration_stimuli/000810_2014-06-08_17-20-01_260595134347_rgbf000105-resize_0/000810_2014-06-08_17-20-01_260595134347_rgbf000105-resize_0-target.png,1000,1.4865,1.3,3767,1015,feet,jsons/v1_VE1000_randls_76_rotated.json,1136651,1644795,30,Man
98,780486,DepthScenes,duration_manipulation_targetAtFixation,jsons/v1_VE1000_randls_76_rotated.json,http://54.235.29.9/FacialAge/BNav_EC2/DepthDuration/v2_depth_duration_MTurk/v2_DepthDuration_HTML.html#217,217,1440,757,1440,900,8-30-2022,7-6-23,99,depth_duration_stimuli/001222_2014-06-17_16-24-06_260595134347_rgbf000073-resize_0/001222_2014-06-17_16-24-06_260595134347_rgbf000073-resize-original.jpg,1000,1.4385,0.0,6413,998,feet,jsons/v1_VE1000_randls_76_rotated.json,1136651,1644795,30,Man
99,780486,DepthScenes,duration_manipulation_targetAtFixation,jsons/v1_VE1000_randls_76_rotated.json,http://54.235.29.9/FacialAge/BNav_EC2/DepthDuration/v2_depth_duration_MTurk/v2_DepthDuration_HTML.html#217,217,1440,757,1440,900,8-30-2022,7-6-23,100,depth_duration_stimuli/000549_2014-06-08_22-10-24_260595134347_rgbf000247-resize_3/000549_2014-06-08_22-10-24_260595134347_rgbf000247-resize_3-target.png,1000,1.841,1.2,6896,1020,feet,jsons/v1_VE1000_randls_76_rotated.json,1136651,1644795,30,Man
100,780486,DepthScenes,duration_manipulation_targetAtFixation,jsons/v1_VE1000_randls_76_rotated.json,http://54.235.29.9/FacialAge/BNav_EC2/DepthDuration/v2_depth_duration_MTurk/v2_DepthDuration_HTML.html#217,217,1440,757,1440,900,8-30-2022,7-6-23,101,depth_duration_stimuli/001055_2014-06-08_18-45-35_260595134347_rgbf000111-resize_4/001055_2014-06-08_18-45-35_260595134347_rgbf000111-resize_4-target.png,1000,2.4290000000000003,6.0,3964,1000,feet,jsons/v1_VE1000_randls_76_rotated.json,1136651,1644795,30,Man
101,780486,DepthScenes,duration_manipulation_targetAtFixation,jsons/v1_VE1000_randls_76_rotated.json,http://54.235.29.9/FacialAge/BNav_EC2/DepthDuration/v2_depth_duration_MTurk/v2_DepthDuration_HTML.html#217,217,1440,757,1440,900,8-30-2022,7-6-23,102,depth_duration_stimuli/001584_2014-06-20_11-07-43_260595134347_rgbf000002-resize_1/001584_2014-06-20_11-07-43_260595134347_rgbf000002-resize_1-target.png,1000,3.53,3.0,8222,1000,feet,jsons/v1_VE1000_randls_76_rotated.json,1136651,1644795,30,Man
102,780486,DepthScenes,duration_manipulation_targetAtFixation,jsons/v1_VE1000_randls_76_rotated.json,http://54.235.29.9/FacialAge/BNav_EC2/DepthDuration/v2_depth_duration_MTurk/v2_DepthDuration_HTML.html#217,217,1440,757,1440,900,8-30-2022,7-6-23,103,depth_duration_stimuli/003621_2014-05-23_18-06-08_094959634447_rgbf000101-resize_1/003621_2014-05-23_18-06-08_094959634447_rgbf000101-resize_1-target.png,1000,3.9835,3.0,9230,1000,feet,jsons/v1_VE1000_randls_76_rotated.json,1136651,1644795,30,Man
103,780486,DepthScenes,duration_manipulation_targetAtFixation,jsons/v1_VE1000_randls_76_rotated.json,http://54.235.29.9/FacialAge/BNav_EC2/DepthDuration/v2_depth_duration_MTurk/v2_DepthDuration_HTML.html#217,217,1440,757,1440,900,8-30-2022,7-6-23,104,depth_duration_stimuli/002444_2014-06-28_20-32-08_260595134347_rgbf000027-resize_0/002444_2014-06-28_20-32-08_260595134347_rgbf000027-resize_0-target.png,1000,4.388999999999999,3.0,7338,1000,feet,jsons/v1_VE1000_randls_76_rotated.json,1136651,1644795,30,Man
104,780486,DepthScenes,duration_manipulation_targetAtFixation,jsons/v1_VE1000_randls_76_rotated.json,http://54.235.29.9/FacialAge/BNav_EC2/DepthDuration/v2_depth_duration_MTurk/v2_DepthDuration_HTML.html#217,217,1440,757,1440,900,8-30-2022,7-6-23,105,depth_duration_stimuli/000436_2014-06-09_22-25-11_260595134347_rgbf000137-resize_1/000436_2014-06-09_22-25-11_260595134347_rgbf000137-resize_1-target.png,1000,4.0705,3.2,3789,1000,feet,jsons/v1_VE1000_randls_76_rotated.json,1136651,1644795,30,Man
105,780486,DepthScenes,duration_manipulation_targetAtFixation,jsons/v1_VE1000_randls_76_rotated.json,http://54.235.29.9/FacialAge/BNav_EC2/DepthDuration/v2_depth_duration_MTurk/v2_DepthDuration_HTML.html#217,217,1440,757,1440,900,8-30-2022,7-6-23,106,depth_duration_stimuli/003338_2014-05-20_11-01-23_094959634447_rgbf000051-resize_6/003338_2014-05-20_11-01-23_094959634447_rgbf000051-resize_6-target.png,1000,1.693,3.2,8530,999,feet,jsons/v1_VE1000_randls_76_rotated.json,1136651,1644795,30,Man
106,780486,DepthScenes,duration_manipulation_targetAtFixation,jsons/v1_VE1000_randls_76_rotated.json,http://54.235.29.9/FacialAge/BNav_EC2/DepthDuration/v2_depth_duration_MTurk/v2_DepthDuration_HTML.html#217,217,1440,757,1440,900,8-30-2022,7-6-23,107,depth_duration_stimuli/002509_2014-06-24_13-19-22_094959634447_rgbf000077-resize_0/002509_2014-06-24_13-19-22_094959634447_rgbf000077-resize_0-target.png,1000,1.3065,3.0,6020,1001,feet,jsons/v1_VE1000_randls_76_rotated.json,1136651,1644795,30,Man
107,780486,DepthScenes,duration_manipulation_targetAtFixation,jsons/v1_VE1000_randls_76_rotated.json,http://54.235.29.9/FacialAge/BNav_EC2/DepthDuration/v2_depth_duration_MTurk/v2_DepthDuration_HTML.html#217,217,1440,757,1440,900,8-30-2022,7-6-23,108,depth_duration_stimuli/002949_2014-06-26_15-57-42_094959634447_rgbf000079-resize_1/002949_2014-06-26_15-57-42_094959634447_rgbf000079-resize_1-target.png,1000,1.8915,1.5,6228,1001,feet,jsons/v1_VE1000_randls_76_rotated.json,1136651,1644795,30,Man
108,780486,DepthScenes,duration_manipulation_targetAtFixation,jsons/v1_VE1000_randls_76_rotated.json,http://54.235.29.9/FacialAge/BNav_EC2/DepthDuration/v2_depth_duration_MTurk/v2_DepthDuration_HTML.html#217,217,1440,757,1440,900,8-30-2022,7-6-23,109,depth_duration_stimuli/000522_2014-06-08_13-35-06_260595134347_rgbf000244-resize_1/000522_2014-06-08_13-35-06_260595134347_rgbf000244-resize_1-target.png,1000,2.3715,2.4,4879,978,feet,jsons/v1_VE1000_randls_76_rotated.json,1136651,1644795,30,Man
109,780486,DepthScenes,duration_manipulation_targetAtFixation,jsons/v1_VE1000_randls_76_rotated.json,http://54.235.29.9/FacialAge/BNav_EC2/DepthDuration/v2_depth_duration_MTurk/v2_DepthDuration_HTML.html#217,217,1440,757,1440,900,8-30-2022,7-6-23,110,depth_duration_stimuli/001052_2014-06-08_18-24-54_260595134347_rgbf000130-resize_1/001052_2014-06-08_18-24-54_260595134347_rgbf000130-resize_1-target.png,1000,4.1045,5.0,5019,1001,feet,jsons/v1_VE1000_randls_76_rotated.json,1136651,1644795,30,Man
110,780486,DepthScenes,duration_manipulation_targetAtFixation,jsons/v1_VE1000_randls_76_rotated.json,http://54.235.29.9/FacialAge/BNav_EC2/DepthDuration/v2_depth_duration_MTurk/v2_DepthDuration_HTML.html#217,217,1440,757,1440,900,8-30-2022,7-6-23,111,depth_duration_stimuli/002988_2014-06-15_12-24-20_094959634447_rgbf000150-resize_1/002988_2014-06-15_12-24-20_094959634447_rgbf000150-resize_1-target.png,1000,4.7669999999999995,6.0,3261,1154,feet,jsons/v1_VE1000_randls_76_rotated.json,1136651,1644795,30,Man
111,780486,DepthScenes,duration_manipulation_targetAtFixation,jsons/v1_VE1000_randls_76_rotated.json,http://54.235.29.9/FacialAge/BNav_EC2/DepthDuration/v2_depth_duration_MTurk/v2_DepthDuration_HTML.html#217,217,1440,757,1440,900,8-30-2022,7-6-23,112,depth_duration_stimuli/000109_2014-05-14_23-41-52_260595134347_rgbf000035-resize_9/000109_2014-05-14_23-41-52_260595134347_rgbf000035-resize_9-target.png,1000,1.3545,1.4,5760,1000,feet,jsons/v1_VE1000_randls_76_rotated.json,1136651,1644795,30,Man
112,780486,DepthScenes,duration_manipulation_targetAtFixation,jsons/v1_VE1000_randls_76_rotated.json,http://54.235.29.9/FacialAge/BNav_EC2/DepthDuration/v2_depth_duration_MTurk/v2_DepthDuration_HTML.html#217,217,1440,757,1440,900,8-30-2022,7-6-23,113,depth_duration_stimuli/000470_2014-06-09_19-42-40_260595134347_rgbf000094-resize_1/000470_2014-06-09_19-42-40_260595134347_rgbf000094-resize_1-target.png,1000,1.831,2.0,3547,1000,feet,jsons/v1_VE1000_randls_76_rotated.json,1136651,1644795,30,Man
113,780486,DepthScenes,duration_manipulation_targetAtFixation,jsons/v1_VE1000_randls_76_rotated.json,http://54.235.29.9/FacialAge/BNav_EC2/DepthDuration/v2_depth_duration_MTurk/v2_DepthDuration_HTML.html#217,217,1440,757,1440,900,8-30-2022,7-6-23,114,depth_duration_stimuli/002209_2014-06-28_18-36-10_260595134347_rgbf000051-resize_1/002209_2014-06-28_18-36-10_260595134347_rgbf000051-resize_1-target.png,1000,2.057,2.0,4310,1000,feet,jsons/v1_VE1000_randls_76_rotated.json,1136651,1644795,30,Man
114,780486,DepthScenes,duration_manipulation_targetAtFixation,jsons/v1_VE1000_randls_76_rotated.json,http://54.235.29.9/FacialAge/BNav_EC2/DepthDuration/v2_depth_duration_MTurk/v2_DepthDuration_HTML.html#217,217,1440,757,1440,900,8-30-2022,7-6-23,115,depth_duration_stimuli/002763_2014-06-22_19-13-10_094959634447_rgbf000075-resize_4/002763_2014-06-22_19-13-10_094959634447_rgbf000075-resize_4-target.png,1000,1.68375,3.0,3551,984,feet,jsons/v1_VE1000_randls_76_rotated.json,1136651,1644795,30,Man
115,780486,DepthScenes,duration_manipulation_targetAtFixation,jsons/v1_VE1000_randls_76_rotated.json,http://54.235.29.9/FacialAge/BNav_EC2/DepthDuration/v2_depth_duration_MTurk/v2_DepthDuration_HTML.html#217,217,1440,757,1440,900,8-30-2022,7-6-23,116,depth_duration_stimuli/001650_2014-06-20_12-09-00_260595134347_rgbf000087-resize_3/001650_2014-06-20_12-09-00_260595134347_rgbf000087-resize_3-target.png,1000,1.9505,1.5,7026,996,feet,jsons/v1_VE1000_randls_76_rotated.json,1136651,1644795,30,Man
116,780486,DepthScenes,duration_manipulation_targetAtFixation,jsons/v1_VE1000_randls_76_rotated.json,http://54.235.29.9/FacialAge/BNav_EC2/DepthDuration/v2_depth_duration_MTurk/v2_DepthDuration_HTML.html#217,217,1440,757,1440,900,8-30-2022,7-6-23,117,depth_duration_stimuli/000682_2014-06-08_23-14-58_260595134347_rgbf000041-resize_5/000682_2014-06-08_23-14-58_260595134347_rgbf000041-resize_5-target.png,1000,2.7239999999999998,2.1,4101,1001,feet,jsons/v1_VE1000_randls_76_rotated.json,1136651,1644795,30,Man
117,780486,DepthScenes,duration_manipulation_targetAtFixation,jsons/v1_VE1000_randls_76_rotated.json,http://54.235.29.9/FacialAge/BNav_EC2/DepthDuration/v2_depth_duration_MTurk/v2_DepthDuration_HTML.html#217,217,1440,757,1440,900,8-30-2022,7-6-23,118,depth_duration_stimuli/002425_2014-06-28_20-27-29_260595134347_rgbf000031-resize_8/002425_2014-06-28_20-27-29_260595134347_rgbf000031-resize_8-target.png,1000,3.8960000000000004,4.0,5598,1000,feet,jsons/v1_VE1000_randls_76_rotated.json,1136651,1644795,30,Man
118,780486,DepthScenes,duration_manipulation_targetAtFixation,jsons/v1_VE1000_randls_76_rotated.json,http://54.235.29.9/FacialAge/BNav_EC2/DepthDuration/v2_depth_duration_MTurk/v2_DepthDuration_HTML.html#217,217,1440,757,1440,900,8-30-2022,7-6-23,119,depth_duration_stimuli/000642_2014-06-08_16-59-25_260595134347_rgbf000098-resize_2/000642_2014-06-08_16-59-25_260595134347_rgbf000098-resize_2-target.png,1000,2.8815,2.2,4293,1000,feet,jsons/v1_VE1000_randls_76_rotated.json,1136651,1644795,30,Man
119,780486,DepthScenes,duration_manipulation_targetAtFixation,jsons/v1_VE1000_randls_76_rotated.json,http://54.235.29.9/FacialAge/BNav_EC2/DepthDuration/v2_depth_duration_MTurk/v2_DepthDuration_HTML.html#217,217,1440,757,1440,900,8-30-2022,7-6-23,120,depth_duration_stimuli/000787_2014-06-08_22-33-53_260595134347_rgbf000175-resize_1/000787_2014-06-08_22-33-53_260595134347_rgbf000175-resize-original.jpg,1000,4.784,0.0,3926,1000,feet,jsons/v1_VE1000_randls_76_rotated.json,1136651,1644795,30,Man
120,780486,DepthScenes,duration_manipulation_targetAtFixation,jsons/v1_VE1000_randls_76_rotated.json,http://54.235.29.9/FacialAge/BNav_EC2/DepthDuration/v2_depth_duration_MTurk/v2_DepthDuration_HTML.html#217,217,1440,757,1440,900,8-30-2022,7-6-23,121,depth_duration_stimuli/002199_2014-06-28_18-33-56_260595134347_rgbf000074-resize_0/002199_2014-06-28_18-33-56_260595134347_rgbf000074-resize_0-target.png,1000,1.996,2.4,5269,999,feet,jsons/v1_VE1000_randls_76_rotated.json,1136651,1644795,30,Man
121,780486,DepthScenes,duration_manipulation_targetAtFixation,jsons/v1_VE1000_randls_76_rotated.json,http://54.235.29.9/FacialAge/BNav_EC2/DepthDuration/v2_depth_duration_MTurk/v2_DepthDuration_HTML.html#217,217,1440,757,1440,900,8-30-2022,7-6-23,122,depth_duration_stimuli/001056_2014-06-08_18-46-44_260595134347_rgbf000068-resize_0/001056_2014-06-08_18-46-44_260595134347_rgbf000068-resize_0-target.png,1000,2.6625,3.0,3500,1001,feet,jsons/v1_VE1000_randls_76_rotated.json,1136651,1644795,30,Man
122,780486,DepthScenes,duration_manipulation_targetAtFixation,jsons/v1_VE1000_randls_76_rotated.json,http://54.235.29.9/FacialAge/BNav_EC2/DepthDuration/v2_depth_duration_MTurk/v2_DepthDuration_HTML.html#217,217,1440,757,1440,900,8-30-2022,7-6-23,123,depth_duration_stimuli/001571_2014-06-20_17-21-32_260595134347_rgbf000089-resize_1/001571_2014-06-20_17-21-32_260595134347_rgbf000089-resize_1-target.png,1000,1.86,2.2,4811,981,feet,jsons/v1_VE1000_randls_76_rotated.json,1136651,1644795,30,Man
123,780486,DepthScenes,duration_manipulation_targetAtFixation,jsons/v1_VE1000_randls_76_rotated.json,http://54.235.29.9/FacialAge/BNav_EC2/DepthDuration/v2_depth_duration_MTurk/v2_DepthDuration_HTML.html#217,217,1440,757,1440,900,8-30-2022,7-6-23,124,depth_duration_stimuli/002272_2014-06-28_18-53-56_260595134347_rgbf000067-resize_2/002272_2014-06-28_18-53-56_260595134347_rgbf000067-resize_2-target.png,1000,1.138,2.3,3389,1001,feet,jsons/v1_VE1000_randls_76_rotated.json,1136651,1644795,30,Man
124,780486,DepthScenes,duration_manipulation_targetAtFixation,jsons/v1_VE1000_randls_76_rotated.json,http://54.235.29.9/FacialAge/BNav_EC2/DepthDuration/v2_depth_duration_MTurk/v2_DepthDuration_HTML.html#217,217,1440,757,1440,900,8-30-2022,7-6-23,125,depth_duration_stimuli/001447_2014-06-19_17-00-32_260595134347_rgbf000082-resize_5/001447_2014-06-19_17-00-32_260595134347_rgbf000082-resize_5-target.png,1000,4.13775,3.2,4267,999,feet,jsons/v1_VE1000_randls_76_rotated.json,1136651,1644795,30,Man
125,780486,DepthScenes,duration_manipulation_targetAtFixation,jsons/v1_VE1000_randls_76_rotated.json,http://54.235.29.9/FacialAge/BNav_EC2/DepthDuration/v2_depth_duration_MTurk/v2_DepthDuration_HTML.html#217,217,1440,757,1440,900,8-30-2022,7-6-23,126,depth_duration_stimuli/000447_2014-06-08_16-15-46_260595134347_rgbf000130-resize_1/000447_2014-06-08_16-15-46_260595134347_rgbf000130-resize_1-target.png,1000,4.479,4.3,3814,999,feet,jsons/v1_VE1000_randls_76_rotated.json,1136651,1644795,30,Man
126,780486,DepthScenes,duration_manipulation_targetAtFixation,jsons/v1_VE1000_randls_76_rotated.json,http://54.235.29.9/FacialAge/BNav_EC2/DepthDuration/v2_depth_duration_MTurk/v2_DepthDuration_HTML.html#217,217,1440,757,1440,900,8-30-2022,7-6-23,127,depth_duration_stimuli/002414_2014-06-28_20-24-58_260595134347_rgbf000067-resize_4/002414_2014-06-28_20-24-58_260595134347_rgbf000067-resize_4-target.png,1000,4.363,3.5,5096,1000,feet,jsons/v1_VE1000_randls_76_rotated.json,1136651,1644795,30,Man
127,780486,DepthScenes,duration_manipulation_targetAtFixation,jsons/v1_VE1000_randls_76_rotated.json,http://54.235.29.9/FacialAge/BNav_EC2/DepthDuration/v2_depth_duration_MTurk/v2_DepthDuration_HTML.html#217,217,1440,757,1440,900,8-30-2022,7-6-23,128,depth_duration_stimuli/000773_2014-06-08_22-24-54_260595134347_rgbf000093-resize_1/000773_2014-06-08_22-24-54_260595134347_rgbf000093-resize_1-target.png,1000,4.973,2.5,3680,1018,feet,jsons/v1_VE1000_randls_76_rotated.json,1136651,1644795,30,Man
128,780486,DepthScenes,duration_manipulation_targetAtFixation,jsons/v1_VE1000_randls_76_rotated.json,http://54.235.29.9/FacialAge/BNav_EC2/DepthDuration/v2_depth_duration_MTurk/v2_DepthDuration_HTML.html#217,217,1440,757,1440,900,8-30-2022,7-6-23,129,depth_duration_stimuli/003587_2014-05-23_16-48-02_094959634447_rgbf002384-resize_2/003587_2014-05-23_16-48-02_094959634447_rgbf002384-resize_2-target.png,1000,1.357,2.3,4783,1001,feet,jsons/v1_VE1000_randls_76_rotated.json,1136651,1644795,30,Man
129,780486,DepthScenes,duration_manipulation_targetAtFixation,jsons/v1_VE1000_randls_76_rotated.json,http://54.235.29.9/FacialAge/BNav_EC2/DepthDuration/v2_depth_duration_MTurk/v2_DepthDuration_HTML.html#217,217,1440,757,1440,900,8-30-2022,7-6-23,130,depth_duration_stimuli/001167_2014-06-17_15-38-07_260595134347_rgbf000108-resize_0/001167_2014-06-17_15-38-07_260595134347_rgbf000108-resize_0-target.png,1000,1.8505,2.3,3621,998,feet,jsons/v1_VE1000_randls_76_rotated.json,1136651,1644795,30,Man
130,780486,DepthScenes,duration_manipulation_targetAtFixation,jsons/v1_VE1000_randls_76_rotated.json,http://54.235.29.9/FacialAge/BNav_EC2/DepthDuration/v2_depth_duration_MTurk/v2_DepthDuration_HTML.html#217,217,1440,757,1440,900,8-30-2022,7-6-23,131,depth_duration_stimuli/003083_2014-06-15_15-21-03_094959634447_rgbf000063-resize_1/003083_2014-06-15_15-21-03_094959634447_rgbf000063-resize_1-target.png,1000,4.1405,4.2,6420,1002,feet,jsons/v1_VE1000_randls_76_rotated.json,1136651,1644795,30,Man
131,780486,DepthScenes,duration_manipulation_targetAtFixation,jsons/v1_VE1000_randls_76_rotated.json,http://54.235.29.9/FacialAge/BNav_EC2/DepthDuration/v2_depth_duration_MTurk/v2_DepthDuration_HTML.html#217,217,1440,757,1440,900,8-30-2022,7-6-23,132,depth_duration_stimuli/000486_2014-06-09_20-47-20_260595134347_rgbf000143-resize_2/000486_2014-06-09_20-47-20_260595134347_rgbf000143-resize_2-target.png,1000,4.8325,3.2,5959,1000,feet,jsons/v1_VE1000_randls_76_rotated.json,1136651,1644795,30,Man
132,780486,DepthScenes,duration_manipulation_targetAtFixation,jsons/v1_VE1000_randls_76_rotated.json,http://54.235.29.9/FacialAge/BNav_EC2/DepthDuration/v2_depth_duration_MTurk/v2_DepthDuration_HTML.html#217,217,1440,757,1440,900,8-30-2022,7-6-23,133,depth_duration_stimuli/000502_2014-06-08_23-02-32_260595134347_rgbf000063-resize_4/000502_2014-06-08_23-02-32_260595134347_rgbf000063-resize_4-target.png,1000,2.431,2.0,4506,919,feet,jsons/v1_VE1000_randls_76_rotated.json,1136651,1644795,30,Man
133,780486,DepthScenes,duration_manipulation_targetAtFixation,jsons/v1_VE1000_randls_76_rotated.json,http://54.235.29.9/FacialAge/BNav_EC2/DepthDuration/v2_depth_duration_MTurk/v2_DepthDuration_HTML.html#217,217,1440,757,1440,900,8-30-2022,7-6-23,134,depth_duration_stimuli/001199_2014-06-17_16-03-48_260595134347_rgbf000077-resize_0/001199_2014-06-17_16-03-48_260595134347_rgbf000077-resize_0-target.png,1000,3.4375,3.4,3976,999,feet,jsons/v1_VE1000_randls_76_rotated.json,1136651,1644795,30,Man
134,780486,DepthScenes,duration_manipulation_targetAtFixation,jsons/v1_VE1000_randls_76_rotated.json,http://54.235.29.9/FacialAge/BNav_EC2/DepthDuration/v2_depth_duration_MTurk/v2_DepthDuration_HTML.html#217,217,1440,757,1440,900,8-30-2022,7-6-23,135,depth_duration_stimuli/000375_2014-06-08_11-17-29_260595134347_rgbf000133-resize_2/000375_2014-06-08_11-17-29_260595134347_rgbf000133-resize-original.jpg,1000,4.718,0.0,3286,1000,feet,jsons/v1_VE1000_randls_76_rotated.json,1136651,1644795,30,Man
135,780486,DepthScenes,duration_manipulation_targetAtFixation,jsons/v1_VE1000_randls_76_rotated.json,http://54.235.29.9/FacialAge/BNav_EC2/DepthDuration/v2_depth_duration_MTurk/v2_DepthDuration_HTML.html#217,217,1440,757,1440,900,8-30-2022,7-6-23,136,depth_duration_stimuli/003228_2014-05-14_13-42-35_094959634447_rgbf000101-resize_1/003228_2014-05-14_13-42-35_094959634447_rgbf000101-resize_1-target.png,1000,1.9680000000000002,2.4,5395,952,feet,jsons/v1_VE1000_randls_76_rotated.json,1136651,1644795,30,Man
136,780486,DepthScenes,duration_manipulation_targetAtFixation,jsons/v1_VE1000_randls_76_rotated.json,http://54.235.29.9/FacialAge/BNav_EC2/DepthDuration/v2_depth_duration_MTurk/v2_DepthDuration_HTML.html#217,217,1440,757,1440,900,8-30-2022,7-6-23,137,depth_duration_stimuli/002600_2014-06-24_14-27-04_094959634447_rgbf000074-resize_2/002600_2014-06-24_14-27-04_094959634447_rgbf000074-resize_2-target.png,1000,2.7575,1.5,4460,995,feet,jsons/v1_VE1000_randls_76_rotated.json,1136651,1644795,30,Man
137,780486,DepthScenes,duration_manipulation_targetAtFixation,jsons/v1_VE1000_randls_76_rotated.json,http://54.235.29.9/FacialAge/BNav_EC2/DepthDuration/v2_depth_duration_MTurk/v2_DepthDuration_HTML.html#217,217,1440,757,1440,900,8-30-2022,7-6-23,138,depth_duration_stimuli/000457_2014-06-08_16-52-43_260595134347_rgbf000199-resize_1/000457_2014-06-08_16-52-43_260595134347_rgbf000199-resize_1-target.png,1000,3.6489999999999996,4.0,4831,1001,feet,jsons/v1_VE1000_randls_76_rotated.json,1136651,1644795,30,Man
138,780486,DepthScenes,duration_manipulation_targetAtFixation,jsons/v1_VE1000_randls_76_rotated.json,http://54.235.29.9/FacialAge/BNav_EC2/DepthDuration/v2_depth_duration_MTurk/v2_DepthDuration_HTML.html#217,217,1440,757,1440,900,8-30-2022,7-6-23,139,depth_duration_stimuli/000929_2014-06-09_16-33-19_260595134347_rgbf000139-resize_0/000929_2014-06-09_16-33-19_260595134347_rgbf000139-resize_0-target.png,1000,2.8680000000000003,2.1,4048,998,feet,jsons/v1_VE1000_randls_76_rotated.json,1136651,1644795,30,Man
139,780486,DepthScenes,duration_manipulation_targetAtFixation,jsons/v1_VE1000_randls_76_rotated.json,http://54.235.29.9/FacialAge/BNav_EC2/DepthDuration/v2_depth_duration_MTurk/v2_DepthDuration_HTML.html#217,217,1440,757,1440,900,8-30-2022,7-6-23,140,depth_duration_stimuli/000943_2014-06-09_19-31-07_260595134347_rgbf000128-resize_1/000943_2014-06-09_19-31-07_260595134347_rgbf000128-resize_1-target.png,1000,1.9765,3.3,4995,997,feet,jsons/v1_VE1000_randls_76_rotated.json,1136651,1644795,30,Man
140,780486,DepthScenes,duration_manipulation_targetAtFixation,jsons/v1_VE1000_randls_76_rotated.json,http://54.235.29.9/FacialAge/BNav_EC2/DepthDuration/v2_depth_duration_MTurk/v2_DepthDuration_HTML.html#217,217,1440,757,1440,900,8-30-2022,7-6-23,141,depth_duration_stimuli/003070_2014-06-15_14-58-27_094959634447_rgbf000150-resize_3/003070_2014-06-15_14-58-27_094959634447_rgbf000150-resize_3-target.png,1000,2.9415,2.2,4041,1028,feet,jsons/v1_VE1000_randls_76_rotated.json,1136651,1644795,30,Man
141,780486,DepthScenes,duration_manipulation_targetAtFixation,jsons/v1_VE1000_randls_76_rotated.json,http://54.235.29.9/FacialAge/BNav_EC2/DepthDuration/v2_depth_duration_MTurk/v2_DepthDuration_HTML.html#217,217,1440,757,1440,900,8-30-2022,7-6-23,142,depth_duration_stimuli/002750_2014-06-22_19-08-03_094959634447_rgbf000094-resize_4/002750_2014-06-22_19-08-03_094959634447_rgbf000094-resize_4-target.png,1000,2.354,4.0,4875,1026,feet,jsons/v1_VE1000_randls_76_rotated.json,1136651,1644795,30,Man
142,780486,DepthScenes,duration_manipulation_targetAtFixation,jsons/v1_VE1000_randls_76_rotated.json,http://54.235.29.9/FacialAge/BNav_EC2/DepthDuration/v2_depth_duration_MTurk/v2_DepthDuration_HTML.html#217,217,1440,757,1440,900,8-30-2022,7-6-23,143,depth_duration_stimuli/002549_2014-06-24_13-41-39_094959634447_rgbf000022-resize_3/002549_2014-06-24_13-41-39_094959634447_rgbf000022-resize_3-target.png,1000,1.476,3.0,3579,996,feet,jsons/v1_VE1000_randls_76_rotated.json,1136651,1644795,30,Man
143,780486,DepthScenes,duration_manipulation_targetAtFixation,jsons/v1_VE1000_randls_76_rotated.json,http://54.235.29.9/FacialAge/BNav_EC2/DepthDuration/v2_depth_duration_MTurk/v2_DepthDuration_HTML.html#217,217,1440,757,1440,900,8-30-2022,7-6-23,144,depth_duration_stimuli/002678_2014-06-13_16-15-32_094959634447_rgbf000151-resize_6/002678_2014-06-13_16-15-32_094959634447_rgbf000151-resize_6-target.png,1000,2.1830000000000003,5.0,7490,1001,feet,jsons/v1_VE1000_randls_76_rotated.json,1136651,1644795,30,Man
144,780486,DepthScenes,duration_manipulation_targetAtFixation,jsons/v1_VE1000_randls_76_rotated.json,http://54.235.29.9/FacialAge/BNav_EC2/DepthDuration/v2_depth_duration_MTurk/v2_DepthDuration_HTML.html#217,217,1440,757,1440,900,8-30-2022,7-6-23,145,depth_duration_stimuli/000368_2014-06-09_15-53-01_260595134347_rgbf000155-resize_2/000368_2014-06-09_15-53-01_260595134347_rgbf000155-resize_2-target.png,1000,2.4859999999999998,1.5,5448,999,feet,jsons/v1_VE1000_randls_76_rotated.json,1136651,1644795,30,Man
145,780486,DepthScenes,duration_manipulation_targetAtFixation,jsons/v1_VE1000_randls_76_rotated.json,http://54.235.29.9/FacialAge/BNav_EC2/DepthDuration/v2_depth_duration_MTurk/v2_DepthDuration_HTML.html#217,217,1440,757,1440,900,8-30-2022,7-6-23,146,depth_duration_stimuli/000742_2014-06-08_18-48-09_260595134347_rgbf000164-resize_4/000742_2014-06-08_18-48-09_260595134347_rgbf000164-resize_4-target.png,1000,4.632,3.2,4900,1002,feet,jsons/v1_VE1000_randls_76_rotated.json,1136651,1644795,30,Man
146,780486,DepthScenes,duration_manipulation_targetAtFixation,jsons/v1_VE1000_randls_76_rotated.json,http://54.235.29.9/FacialAge/BNav_EC2/DepthDuration/v2_depth_duration_MTurk/v2_DepthDuration_HTML.html#217,217,1440,757,1440,900,8-30-2022,7-6-23,147,depth_duration_stimuli/001066_2014-06-08_22-03-20_260595134347_rgbf000066-resize_4/001066_2014-06-08_22-03-20_260595134347_rgbf000066-resize_4-target.png,1000,4.2330000000000005,5.0,3607,1000,feet,jsons/v1_VE1000_randls_76_rotated.json,1136651,1644795,30,Man
147,780486,DepthScenes,duration_manipulation_targetAtFixation,jsons/v1_VE1000_randls_76_rotated.json,http://54.235.29.9/FacialAge/BNav_EC2/DepthDuration/v2_depth_duration_MTurk/v2_DepthDuration_HTML.html#217,217,1440,757,1440,900,8-30-2022,7-6-23,148,depth_duration_stimuli/003048_2014-06-15_13-49-43_094959634447_rgbf000150-resize_1/003048_2014-06-15_13-49-43_094959634447_rgbf000150-resize_1-target.png,1000,4.0035,5.0,4809,975,feet,jsons/v1_VE1000_randls_76_rotated.json,1136651,1644795,30,Man
148,780486,DepthScenes,duration_manipulation_targetAtFixation,jsons/v1_VE1000_randls_76_rotated.json,http://54.235.29.9/FacialAge/BNav_EC2/DepthDuration/v2_depth_duration_MTurk/v2_DepthDuration_HTML.html#217,217,1440,757,1440,900,8-30-2022,7-6-23,149,depth_duration_stimuli/002043_2014-06-24_20-29-38_260595134347_rgbf000039-resize_4/002043_2014-06-24_20-29-38_260595134347_rgbf000039-resize_4-target.png,1000,2.8435,2.3,4845,1001,feet,jsons/v1_VE1000_randls_76_rotated.json,1136651,1644795,30,Man
149,780486,DepthScenes,duration_manipulation_targetAtFixation,jsons/v1_VE1000_randls_76_rotated.json,http://54.235.29.9/FacialAge/BNav_EC2/DepthDuration/v2_depth_duration_MTurk/v2_DepthDuration_HTML.html#217,217,1440,757,1440,900,8-30-2022,7-6-23,150,depth_duration_stimuli/000677_2014-06-08_23-10-32_260595134347_rgbf000158-resize_6/000677_2014-06-08_23-10-32_260595134347_rgbf000158-resize_6-target.png,1000,3.556,3.1,5556,1000,feet,jsons/v1_VE1000_randls_76_rotated.json,1136651,1644795,30,Man
150,780486,DepthScenes,duration_manipulation_targetAtFixation,jsons/v1_VE1000_randls_76_rotated.json,http://54.235.29.9/FacialAge/BNav_EC2/DepthDuration/v2_depth_duration_MTurk/v2_DepthDuration_HTML.html#217,217,1440,757,1440,900,8-30-2022,7-6-23,151,depth_duration_stimuli/001029_2014-06-08_13-17-57_260595134347_rgbf000065-resize_1/001029_2014-06-08_13-17-57_260595134347_rgbf000065-resize_1-target.png,1000,3.0835,3.2,3761,1000,feet,jsons/v1_VE1000_randls_76_rotated.json,1136651,1644795,30,Man
151,780486,DepthScenes,duration_manipulation_targetAtFixation,jsons/v1_VE1000_randls_76_rotated.json,http://54.235.29.9/FacialAge/BNav_EC2/DepthDuration/v2_depth_duration_MTurk/v2_DepthDuration_HTML.html#217,217,1440,757,1440,900,8-30-2022,7-6-23,152,depth_duration_stimuli/000569_2014-06-09_22-51-47_260595134347_rgbf000141-resize_3/000569_2014-06-09_22-51-47_260595134347_rgbf000141-resize-original.jpg,1000,4.512,0.0,4590,1000,feet,jsons/v1_VE1000_randls_76_rotated.json,1136651,1644795,30,Man
152,780486,DepthScenes,duration_manipulation_targetAtFixation,jsons/v1_VE1000_randls_76_rotated.json,http://54.235.29.9/FacialAge/BNav_EC2/DepthDuration/v2_depth_duration_MTurk/v2_DepthDuration_HTML.html#217,217,1440,757,1440,900,8-30-2022,7-6-23,153,depth_duration_stimuli/002953_2014-06-08_17-32-18_094959634447_rgbf000059-resize_5/002953_2014-06-08_17-32-18_094959634447_rgbf000059-resize_5-target.png,1000,1.551,3.1,4789,1000,feet,jsons/v1_VE1000_randls_76_rotated.json,1136651,1644795,30,Man
153,780486,DepthScenes,duration_manipulation_targetAtFixation,jsons/v1_VE1000_randls_76_rotated.json,http://54.235.29.9/FacialAge/BNav_EC2/DepthDuration/v2_depth_duration_MTurk/v2_DepthDuration_HTML.html#217,217,1440,757,1440,900,8-30-2022,7-6-23,154,depth_duration_stimuli/000878_2014-06-08_22-52-45_260595134347_rgbf000045-resize_2/000878_2014-06-08_22-52-45_260595134347_rgbf000045-resize_2-target.png,1000,2.092,4.0,3335,1013,feet,jsons/v1_VE1000_randls_76_rotated.json,1136651,1644795,30,Man
154,780486,DepthScenes,duration_manipulation_targetAtFixation,jsons/v1_VE1000_randls_76_rotated.json,http://54.235.29.9/FacialAge/BNav_EC2/DepthDuration/v2_depth_duration_MTurk/v2_DepthDuration_HTML.html#217,217,1440,757,1440,900,8-30-2022,7-6-23,155,depth_duration_stimuli/002323_2014-06-28_20-01-54_260595134347_rgbf000051-resize_4/002323_2014-06-28_20-01-54_260595134347_rgbf000051-resize_4-target.png,1000,3.7310000000000003,3.4,6744,1000,feet,jsons/v1_VE1000_randls_76_rotated.json,1136651,1644795,30,Man
155,780486,DepthScenes,duration_manipulation_targetAtFixation,jsons/v1_VE1000_randls_76_rotated.json,http://54.235.29.9/FacialAge/BNav_EC2/DepthDuration/v2_depth_duration_MTurk/v2_DepthDuration_HTML.html#217,217,1440,757,1440,900,8-30-2022,7-6-23,156,depth_duration_stimuli/000917_2014-06-09_22-45-29_260595134347_rgbf000149-resize_3/000917_2014-06-09_22-45-29_260595134347_rgbf000149-resize_3-target.png,1000,4.1865,4.0,3513,1000,feet,jsons/v1_VE1000_randls_76_rotated.json,1136651,1644795,30,Man
156,780486,DepthScenes,duration_manipulation_targetAtFixation,jsons/v1_VE1000_randls_76_rotated.json,http://54.235.29.9/FacialAge/BNav_EC2/DepthDuration/v2_depth_duration_MTurk/v2_DepthDuration_HTML.html#217,217,1440,757,1440,900,8-30-2022,7-6-23,157,depth_duration_stimuli/000556_2014-06-09_22-42-56_260595134347_rgbf000214-resize_1/000556_2014-06-09_22-42-56_260595134347_rgbf000214-resize_1-target.png,1000,4.8415,1.4,6989,1000,feet,jsons/v1_VE1000_randls_76_rotated.json,1136651,1644795,30,Man
157,780486,DepthScenes,duration_manipulation_targetAtFixation,jsons/v1_VE1000_randls_76_rotated.json,http://54.235.29.9/FacialAge/BNav_EC2/DepthDuration/v2_depth_duration_MTurk/v2_DepthDuration_HTML.html#217,217,1440,757,1440,900,8-30-2022,7-6-23,158,depth_duration_stimuli/001158_2014-06-17_15-32-16_260595134347_rgbf000138-resize_2/001158_2014-06-17_15-32-16_260595134347_rgbf000138-resize_2-target.png,1000,4.5315,2.5,6687,1000,feet,jsons/v1_VE1000_randls_76_rotated.json,1136651,1644795,30,Man
158,780486,DepthScenes,duration_manipulation_targetAtFixation,jsons/v1_VE1000_randls_76_rotated.json,http://54.235.29.9/FacialAge/BNav_EC2/DepthDuration/v2_depth_duration_MTurk/v2_DepthDuration_HTML.html#217,217,1440,757,1440,900,8-30-2022,7-6-23,159,depth_duration_stimuli/002344_2014-06-28_20-06-29_260595134347_rgbf000030-resize_1/002344_2014-06-28_20-06-29_260595134347_rgbf000030-resize_1-target.png,1000,1.5795,1.5,4636,944,feet,jsons/v1_VE1000_randls_76_rotated.json,1136651,1644795,30,Man
159,780486,DepthScenes,duration_manipulation_targetAtFixation,jsons/v1_VE1000_randls_76_rotated.json,http://54.235.29.9/FacialAge/BNav_EC2/DepthDuration/v2_depth_duration_MTurk/v2_DepthDuration_HTML.html#217,217,1440,757,1440,900,8-30-2022,7-6-23,160,depth_duration_stimuli/002725_2014-06-22_11-47-51_094959634447_rgbf000070-resize_1/002725_2014-06-22_11-47-51_094959634447_rgbf000070-resize_1-target.png,1000,2.195,2.5,5187,1189,feet,jsons/v1_VE1000_randls_76_rotated.json,1136651,1644795,30,Man
160,780486,DepthScenes,duration_manipulation_targetAtFixation,jsons/v1_VE1000_randls_76_rotated.json,http://54.235.29.9/FacialAge/BNav_EC2/DepthDuration/v2_depth_duration_MTurk/v2_DepthDuration_HTML.html#217,217,1440,757,1440,900,8-30-2022,7-6-23,161,depth_duration_stimuli/000866_2014-06-09_20-45-42_260595134347_rgbf000139-resize_1/000866_2014-06-09_20-45-42_260595134347_rgbf000139-resize_1-target.png,1000,3.2155,3.0,4573,1001,feet,jsons/v1_VE1000_randls_76_rotated.json,1136651,1644795,30,Man
161,780486,DepthScenes,duration_manipulation_targetAtFixation,jsons/v1_VE1000_randls_76_rotated.json,http://54.235.29.9/FacialAge/BNav_EC2/DepthDuration/v2_depth_duration_MTurk/v2_DepthDuration_HTML.html#217,217,1440,757,1440,900,8-30-2022,7-6-23,162,depth_duration_stimuli/002989_2014-06-15_12-25-03_094959634447_rgbf000150-resize_3/002989_2014-06-15_12-25-03_094959634447_rgbf000150-resize_3-target.png,1000,4.1975,3.3,5553,998,feet,jsons/v1_VE1000_randls_76_rotated.json,1136651,1644795,30,Man
162,780486,DepthScenes,duration_manipulation_targetAtFixation,jsons/v1_VE1000_randls_76_rotated.json,http://54.235.29.9/FacialAge/BNav_EC2/DepthDuration/v2_depth_duration_MTurk/v2_DepthDuration_HTML.html#217,217,1440,757,1440,900,8-30-2022,7-6-23,163,depth_duration_stimuli/003423_2014-05-21_10-23-26_094959634447_rgbf002665-resize_2/003423_2014-05-21_10-23-26_094959634447_rgbf002665-resize_2-target.png,1000,3.2575,0.4,8004,1000,feet,jsons/v1_VE1000_randls_76_rotated.json,1136651,1644795,30,Man
163,780486,DepthScenes,duration_manipulation_targetAtFixation,jsons/v1_VE1000_randls_76_rotated.json,http://54.235.29.9/FacialAge/BNav_EC2/DepthDuration/v2_depth_duration_MTurk/v2_DepthDuration_HTML.html#217,217,1440,757,1440,900,8-30-2022,7-6-23,164,depth_duration_stimuli/002905_2014-06-03_18-04-43_094959634447_rgbf000151-resize_2/002905_2014-06-03_18-04-43_094959634447_rgbf000151-resize_2-target.png,1000,2.0295,1.4,4864,998,feet,jsons/v1_VE1000_randls_76_rotated.json,1136651,1644795,30,Man
