,subjID,experimentName,versionName,sequenceName,url,selected_row,windowWidth,windowHeight,screenWidth,screenHeight,startDate,startTime,trial,stimulus,duration,actual_depth,depth_estimate,trial_RT,log_sceneDuration,unitSelection,seq_filepath,experimentTime,totalTime,age,gender
0,784703,DepthScenes,duration_manipulation_targetAtFixation,jsons/VE125_randls_66_rotated.json,http://54.235.29.9/FacialAge/BNav_EC2/DepthDuration/v2_depth_duration_MTurk/v2_DepthDuration_HTML.html#255,255,1366,768,1366,768,9-3-2022,10-29-39,1,depth_duration_stimuli/003083_2014-06-15_15-21-03_094959634447_rgbf000063-resize_1/003083_2014-06-15_15-21-03_094959634447_rgbf000063-resize_1-target.png,125,4.1405,5,6648,125,feet,jsons/VE125_randls_66_rotated.json,604915,1005357,30,Woman
1,784703,DepthScenes,duration_manipulation_targetAtFixation,jsons/VE125_randls_66_rotated.json,http://54.235.29.9/FacialAge/BNav_EC2/DepthDuration/v2_depth_duration_MTurk/v2_DepthDuration_HTML.html#255,255,1366,768,1366,768,9-3-2022,10-29-39,2,depth_duration_stimuli/000486_2014-06-09_20-47-20_260595134347_rgbf000143-resize_2/000486_2014-06-09_20-47-20_260595134347_rgbf000143-resize_2-target.png,125,4.8325,2,3277,125,feet,jsons/VE125_randls_66_rotated.json,604915,1005357,30,Woman
2,784703,DepthScenes,duration_manipulation_targetAtFixation,jsons/VE125_randls_66_rotated.json,http://54.235.29.9/FacialAge/BNav_EC2/DepthDuration/v2_depth_duration_MTurk/v2_DepthDuration_HTML.html#255,255,1366,768,1366,768,9-3-2022,10-29-39,3,depth_duration_stimuli/003228_2014-05-14_13-42-35_094959634447_rgbf000101-resize_1/003228_2014-05-14_13-42-35_094959634447_rgbf000101-resize_1-target.png,125,1.9680000000000002,1,2811,124,feet,jsons/VE125_randls_66_rotated.json,604915,1005357,30,Woman
3,784703,DepthScenes,duration_manipulation_targetAtFixation,jsons/VE125_randls_66_rotated.json,http://54.235.29.9/FacialAge/BNav_EC2/DepthDuration/v2_depth_duration_MTurk/v2_DepthDuration_HTML.html#255,255,1366,768,1366,768,9-3-2022,10-29-39,4,depth_duration_stimuli/002600_2014-06-24_14-27-04_094959634447_rgbf000074-resize_2/002600_2014-06-24_14-27-04_094959634447_rgbf000074-resize_2-target.png,125,2.7575,0,3485,126,feet,jsons/VE125_randls_66_rotated.json,604915,1005357,30,Woman
4,784703,DepthScenes,duration_manipulation_targetAtFixation,jsons/VE125_randls_66_rotated.json,http://54.235.29.9/FacialAge/BNav_EC2/DepthDuration/v2_depth_duration_MTurk/v2_DepthDuration_HTML.html#255,255,1366,768,1366,768,9-3-2022,10-29-39,5,depth_duration_stimuli/000556_2014-06-09_22-42-56_260595134347_rgbf000214-resize_1/000556_2014-06-09_22-42-56_260595134347_rgbf000214-resize_1-target.png,125,4.8415,4,3657,127,feet,jsons/VE125_randls_66_rotated.json,604915,1005357,30,Woman
5,784703,DepthScenes,duration_manipulation_targetAtFixation,jsons/VE125_randls_66_rotated.json,http://54.235.29.9/FacialAge/BNav_EC2/DepthDuration/v2_depth_duration_MTurk/v2_DepthDuration_HTML.html#255,255,1366,768,1366,768,9-3-2022,10-29-39,6,depth_duration_stimuli/001158_2014-06-17_15-32-16_260595134347_rgbf000138-resize_2/001158_2014-06-17_15-32-16_260595134347_rgbf000138-resize_2-target.png,125,4.5315,7,4664,124,feet,jsons/VE125_randls_66_rotated.json,604915,1005357,30,Woman
6,784703,DepthScenes,duration_manipulation_targetAtFixation,jsons/VE125_randls_66_rotated.json,http://54.235.29.9/FacialAge/BNav_EC2/DepthDuration/v2_depth_duration_MTurk/v2_DepthDuration_HTML.html#255,255,1366,768,1366,768,9-3-2022,10-29-39,7,depth_duration_stimuli/001450_2014-06-19_17-02-03_260595134347_rgbf000203-resize_4/001450_2014-06-19_17-02-03_260595134347_rgbf000203-resize_4-target.png,125,4.0106666666667,6,4384,120,feet,jsons/VE125_randls_66_rotated.json,604915,1005357,30,Woman
7,784703,DepthScenes,duration_manipulation_targetAtFixation,jsons/VE125_randls_66_rotated.json,http://54.235.29.9/FacialAge/BNav_EC2/DepthDuration/v2_depth_duration_MTurk/v2_DepthDuration_HTML.html#255,255,1366,768,1366,768,9-3-2022,10-29-39,8,depth_duration_stimuli/001449_2014-06-19_17-01-27_260595134347_rgbf000116-resize_2/001449_2014-06-19_17-01-27_260595134347_rgbf000116-resize_2-target.png,125,3.452,4,2984,122,feet,jsons/VE125_randls_66_rotated.json,604915,1005357,30,Woman
8,784703,DepthScenes,duration_manipulation_targetAtFixation,jsons/VE125_randls_66_rotated.json,http://54.235.29.9/FacialAge/BNav_EC2/DepthDuration/v2_depth_duration_MTurk/v2_DepthDuration_HTML.html#255,255,1366,768,1366,768,9-3-2022,10-29-39,9,depth_duration_stimuli/000943_2014-06-09_19-31-07_260595134347_rgbf000128-resize_1/000943_2014-06-09_19-31-07_260595134347_rgbf000128-resize_1-target.png,125,1.9765,1,3166,120,feet,jsons/VE125_randls_66_rotated.json,604915,1005357,30,Woman
9,784703,DepthScenes,duration_manipulation_targetAtFixation,jsons/VE125_randls_66_rotated.json,http://54.235.29.9/FacialAge/BNav_EC2/DepthDuration/v2_depth_duration_MTurk/v2_DepthDuration_HTML.html#255,255,1366,768,1366,768,9-3-2022,10-29-39,10,depth_duration_stimuli/003070_2014-06-15_14-58-27_094959634447_rgbf000150-resize_3/003070_2014-06-15_14-58-27_094959634447_rgbf000150-resize_3-target.png,125,2.9415,0,3331,130,feet,jsons/VE125_randls_66_rotated.json,604915,1005357,30,Woman
10,784703,DepthScenes,duration_manipulation_targetAtFixation,jsons/VE125_randls_66_rotated.json,http://54.235.29.9/FacialAge/BNav_EC2/DepthDuration/v2_depth_duration_MTurk/v2_DepthDuration_HTML.html#255,255,1366,768,1366,768,9-3-2022,10-29-39,11,depth_duration_stimuli/002637_2014-06-24_14-51-13_094959634447_rgbf000066-resize_4/002637_2014-06-24_14-51-13_094959634447_rgbf000066-resize_4-target.png,125,1.9955,2,3616,124,feet,jsons/VE125_randls_66_rotated.json,604915,1005357,30,Woman
11,784703,DepthScenes,duration_manipulation_targetAtFixation,jsons/VE125_randls_66_rotated.json,http://54.235.29.9/FacialAge/BNav_EC2/DepthDuration/v2_depth_duration_MTurk/v2_DepthDuration_HTML.html#255,255,1366,768,1366,768,9-3-2022,10-29-39,12,depth_duration_stimuli/003534_2014-05-22_15-06-10_094959634447_rgbf000102-resize_4/003534_2014-05-22_15-06-10_094959634447_rgbf000102-resize_4-target.png,125,1.426,2,2791,116,feet,jsons/VE125_randls_66_rotated.json,604915,1005357,30,Woman
12,784703,DepthScenes,duration_manipulation_targetAtFixation,jsons/VE125_randls_66_rotated.json,http://54.235.29.9/FacialAge/BNav_EC2/DepthDuration/v2_depth_duration_MTurk/v2_DepthDuration_HTML.html#255,255,1366,768,1366,768,9-3-2022,10-29-39,13,depth_duration_stimuli/002750_2014-06-22_19-08-03_094959634447_rgbf000094-resize_4/002750_2014-06-22_19-08-03_094959634447_rgbf000094-resize_4-target.png,125,2.354,4,3168,125,feet,jsons/VE125_randls_66_rotated.json,604915,1005357,30,Woman
13,784703,DepthScenes,duration_manipulation_targetAtFixation,jsons/VE125_randls_66_rotated.json,http://54.235.29.9/FacialAge/BNav_EC2/DepthDuration/v2_depth_duration_MTurk/v2_DepthDuration_HTML.html#255,255,1366,768,1366,768,9-3-2022,10-29-39,14,depth_duration_stimuli/002549_2014-06-24_13-41-39_094959634447_rgbf000022-resize_3/002549_2014-06-24_13-41-39_094959634447_rgbf000022-resize_3-target.png,125,1.476,1,3124,123,feet,jsons/VE125_randls_66_rotated.json,604915,1005357,30,Woman
14,784703,DepthScenes,duration_manipulation_targetAtFixation,jsons/VE125_randls_66_rotated.json,http://54.235.29.9/FacialAge/BNav_EC2/DepthDuration/v2_depth_duration_MTurk/v2_DepthDuration_HTML.html#255,255,1366,768,1366,768,9-3-2022,10-29-39,15,depth_duration_stimuli/001032_2014-06-08_13-23-17_260595134347_rgbf000021-resize_3/001032_2014-06-08_13-23-17_260595134347_rgbf000021-resize_3-target.png,125,3.2725,2,2552,113,feet,jsons/VE125_randls_66_rotated.json,604915,1005357,30,Woman
15,784703,DepthScenes,duration_manipulation_targetAtFixation,jsons/VE125_randls_66_rotated.json,http://54.235.29.9/FacialAge/BNav_EC2/DepthDuration/v2_depth_duration_MTurk/v2_DepthDuration_HTML.html#255,255,1366,768,1366,768,9-3-2022,10-29-39,16,depth_duration_stimuli/001059_2014-06-08_21-53-27_260595134347_rgbf000061-resize_4/001059_2014-06-08_21-53-27_260595134347_rgbf000061-resize_4-target.png,125,2.4185,2,2482,119,feet,jsons/VE125_randls_66_rotated.json,604915,1005357,30,Woman
16,784703,DepthScenes,duration_manipulation_targetAtFixation,jsons/VE125_randls_66_rotated.json,http://54.235.29.9/FacialAge/BNav_EC2/DepthDuration/v2_depth_duration_MTurk/v2_DepthDuration_HTML.html#255,255,1366,768,1366,768,9-3-2022,10-29-39,17,depth_duration_stimuli/003048_2014-06-15_13-49-43_094959634447_rgbf000150-resize_1/003048_2014-06-15_13-49-43_094959634447_rgbf000150-resize_1-target.png,125,4.0035,3,3497,121,feet,jsons/VE125_randls_66_rotated.json,604915,1005357,30,Woman
17,784703,DepthScenes,duration_manipulation_targetAtFixation,jsons/VE125_randls_66_rotated.json,http://54.235.29.9/FacialAge/BNav_EC2/DepthDuration/v2_depth_duration_MTurk/v2_DepthDuration_HTML.html#255,255,1366,768,1366,768,9-3-2022,10-29-39,18,depth_duration_stimuli/002043_2014-06-24_20-29-38_260595134347_rgbf000039-resize_4/002043_2014-06-24_20-29-38_260595134347_rgbf000039-resize_4-target.png,125,2.8435,2,4740,123,feet,jsons/VE125_randls_66_rotated.json,604915,1005357,30,Woman
18,784703,DepthScenes,duration_manipulation_targetAtFixation,jsons/VE125_randls_66_rotated.json,http://54.235.29.9/FacialAge/BNav_EC2/DepthDuration/v2_depth_duration_MTurk/v2_DepthDuration_HTML.html#255,255,1366,768,1366,768,9-3-2022,10-29-39,19,depth_duration_stimuli/001498_2014-06-19_17-45-14_260595134347_rgbf000129-resize_4/001498_2014-06-19_17-45-14_260595134347_rgbf000129-resize-original.jpg,125,1.4075,0,3134,125,feet,jsons/VE125_randls_66_rotated.json,604915,1005357,30,Woman
19,784703,DepthScenes,duration_manipulation_targetAtFixation,jsons/VE125_randls_66_rotated.json,http://54.235.29.9/FacialAge/BNav_EC2/DepthDuration/v2_depth_duration_MTurk/v2_DepthDuration_HTML.html#255,255,1366,768,1366,768,9-3-2022,10-29-39,20,depth_duration_stimuli/000549_2014-06-08_22-10-24_260595134347_rgbf000247-resize_3/000549_2014-06-08_22-10-24_260595134347_rgbf000247-resize_3-target.png,125,1.841,2,3297,130,feet,jsons/VE125_randls_66_rotated.json,604915,1005357,30,Woman
20,784703,DepthScenes,duration_manipulation_targetAtFixation,jsons/VE125_randls_66_rotated.json,http://54.235.29.9/FacialAge/BNav_EC2/DepthDuration/v2_depth_duration_MTurk/v2_DepthDuration_HTML.html#255,255,1366,768,1366,768,9-3-2022,10-29-39,21,depth_duration_stimuli/001055_2014-06-08_18-45-35_260595134347_rgbf000111-resize_4/001055_2014-06-08_18-45-35_260595134347_rgbf000111-resize_4-target.png,125,2.4290000000000003,4,5876,121,feet,jsons/VE125_randls_66_rotated.json,604915,1005357,30,Woman
21,784703,DepthScenes,duration_manipulation_targetAtFixation,jsons/VE125_randls_66_rotated.json,http://54.235.29.9/FacialAge/BNav_EC2/DepthDuration/v2_depth_duration_MTurk/v2_DepthDuration_HTML.html#255,255,1366,768,1366,768,9-3-2022,10-29-39,22,depth_duration_stimuli/002344_2014-06-28_20-06-29_260595134347_rgbf000030-resize_1/002344_2014-06-28_20-06-29_260595134347_rgbf000030-resize_1-target.png,125,1.5795,2,2803,115,feet,jsons/VE125_randls_66_rotated.json,604915,1005357,30,Woman
22,784703,DepthScenes,duration_manipulation_targetAtFixation,jsons/VE125_randls_66_rotated.json,http://54.235.29.9/FacialAge/BNav_EC2/DepthDuration/v2_depth_duration_MTurk/v2_DepthDuration_HTML.html#255,255,1366,768,1366,768,9-3-2022,10-29-39,23,depth_duration_stimuli/002725_2014-06-22_11-47-51_094959634447_rgbf000070-resize_1/002725_2014-06-22_11-47-51_094959634447_rgbf000070-resize_1-target.png,125,2.195,2,2306,130,feet,jsons/VE125_randls_66_rotated.json,604915,1005357,30,Woman
23,784703,DepthScenes,duration_manipulation_targetAtFixation,jsons/VE125_randls_66_rotated.json,http://54.235.29.9/FacialAge/BNav_EC2/DepthDuration/v2_depth_duration_MTurk/v2_DepthDuration_HTML.html#255,255,1366,768,1366,768,9-3-2022,10-29-39,24,depth_duration_stimuli/002953_2014-06-08_17-32-18_094959634447_rgbf000059-resize_5/002953_2014-06-08_17-32-18_094959634447_rgbf000059-resize_5-target.png,125,1.551,1,2439,129,feet,jsons/VE125_randls_66_rotated.json,604915,1005357,30,Woman
24,784703,DepthScenes,duration_manipulation_targetAtFixation,jsons/VE125_randls_66_rotated.json,http://54.235.29.9/FacialAge/BNav_EC2/DepthDuration/v2_depth_duration_MTurk/v2_DepthDuration_HTML.html#255,255,1366,768,1366,768,9-3-2022,10-29-39,25,depth_duration_stimuli/000878_2014-06-08_22-52-45_260595134347_rgbf000045-resize_2/000878_2014-06-08_22-52-45_260595134347_rgbf000045-resize_2-target.png,125,2.092,3,3372,107,feet,jsons/VE125_randls_66_rotated.json,604915,1005357,30,Woman
25,784703,DepthScenes,duration_manipulation_targetAtFixation,jsons/VE125_randls_66_rotated.json,http://54.235.29.9/FacialAge/BNav_EC2/DepthDuration/v2_depth_duration_MTurk/v2_DepthDuration_HTML.html#255,255,1366,768,1366,768,9-3-2022,10-29-39,26,depth_duration_stimuli/001392_2014-06-19_16-07-59_260595134347_rgbf000046-resize_1/001392_2014-06-19_16-07-59_260595134347_rgbf000046-resize_1-target.png,125,4.135,4,3060,131,feet,jsons/VE125_randls_66_rotated.json,604915,1005357,30,Woman
26,784703,DepthScenes,duration_manipulation_targetAtFixation,jsons/VE125_randls_66_rotated.json,http://54.235.29.9/FacialAge/BNav_EC2/DepthDuration/v2_depth_duration_MTurk/v2_DepthDuration_HTML.html#255,255,1366,768,1366,768,9-3-2022,10-29-39,27,depth_duration_stimuli/001570_2014-06-20_17-21-09_260595134347_rgbf000135-resize_4/001570_2014-06-20_17-21-09_260595134347_rgbf000135-resize_4-target.png,125,4.467,4,3347,118,feet,jsons/VE125_randls_66_rotated.json,604915,1005357,30,Woman
27,784703,DepthScenes,duration_manipulation_targetAtFixation,jsons/VE125_randls_66_rotated.json,http://54.235.29.9/FacialAge/BNav_EC2/DepthDuration/v2_depth_duration_MTurk/v2_DepthDuration_HTML.html#255,255,1366,768,1366,768,9-3-2022,10-29-39,28,depth_duration_stimuli/000927_2014-06-09_16-32-30_260595134347_rgbf000123-resize_3/000927_2014-06-09_16-32-30_260595134347_rgbf000123-resize_3-target.png,125,2.6785,5,4119,136,feet,jsons/VE125_randls_66_rotated.json,604915,1005357,30,Woman
28,784703,DepthScenes,duration_manipulation_targetAtFixation,jsons/VE125_randls_66_rotated.json,http://54.235.29.9/FacialAge/BNav_EC2/DepthDuration/v2_depth_duration_MTurk/v2_DepthDuration_HTML.html#255,255,1366,768,1366,768,9-3-2022,10-29-39,29,depth_duration_stimuli/001110_2014-06-15_17-25-28_260595134347_rgbf000150-resize_1/001110_2014-06-15_17-25-28_260595134347_rgbf000150-resize_1-target.png,125,1.7115,2,2903,126,feet,jsons/VE125_randls_66_rotated.json,604915,1005357,30,Woman
29,784703,DepthScenes,duration_manipulation_targetAtFixation,jsons/VE125_randls_66_rotated.json,http://54.235.29.9/FacialAge/BNav_EC2/DepthDuration/v2_depth_duration_MTurk/v2_DepthDuration_HTML.html#255,255,1366,768,1366,768,9-3-2022,10-29-39,30,depth_duration_stimuli/002072_2014-06-24_21-48-06_260595134347_rgbf000115-resize_0/002072_2014-06-24_21-48-06_260595134347_rgbf000115-resize-original.jpg,125,4.702,0,4485,130,feet,jsons/VE125_randls_66_rotated.json,604915,1005357,30,Woman
30,784703,DepthScenes,duration_manipulation_targetAtFixation,jsons/VE125_randls_66_rotated.json,http://54.235.29.9/FacialAge/BNav_EC2/DepthDuration/v2_depth_duration_MTurk/v2_DepthDuration_HTML.html#255,255,1366,768,1366,768,9-3-2022,10-29-39,31,depth_duration_stimuli/003495_2014-05-21_16-01-51_094959634447_rgbf000100-resize_3/003495_2014-05-21_16-01-51_094959634447_rgbf000100-resize_3-target.png,125,1.6255,1,3729,128,feet,jsons/VE125_randls_66_rotated.json,604915,1005357,30,Woman
31,784703,DepthScenes,duration_manipulation_targetAtFixation,jsons/VE125_randls_66_rotated.json,http://54.235.29.9/FacialAge/BNav_EC2/DepthDuration/v2_depth_duration_MTurk/v2_DepthDuration_HTML.html#255,255,1366,768,1366,768,9-3-2022,10-29-39,32,depth_duration_stimuli/001244_2014-06-17_16-47-45_260595134347_rgbf000030-resize_4/001244_2014-06-17_16-47-45_260595134347_rgbf000030-resize_4-target.png,125,2.0425,2,2413,120,feet,jsons/VE125_randls_66_rotated.json,604915,1005357,30,Woman
32,784703,DepthScenes,duration_manipulation_targetAtFixation,jsons/VE125_randls_66_rotated.json,http://54.235.29.9/FacialAge/BNav_EC2/DepthDuration/v2_depth_duration_MTurk/v2_DepthDuration_HTML.html#255,255,1366,768,1366,768,9-3-2022,10-29-39,33,depth_duration_stimuli/002660_2014-06-13_15-44-18_094959634447_rgbf001878-resize_2/002660_2014-06-13_15-44-18_094959634447_rgbf001878-resize_2-target.png,125,3.576,5,3546,118,feet,jsons/VE125_randls_66_rotated.json,604915,1005357,30,Woman
33,784703,DepthScenes,duration_manipulation_targetAtFixation,jsons/VE125_randls_66_rotated.json,http://54.235.29.9/FacialAge/BNav_EC2/DepthDuration/v2_depth_duration_MTurk/v2_DepthDuration_HTML.html#255,255,1366,768,1366,768,9-3-2022,10-29-39,34,depth_duration_stimuli/002153_2014-06-25_21-27-18_260595134347_rgbf000038-resize_5/002153_2014-06-25_21-27-18_260595134347_rgbf000038-resize_5-target.png,125,2.505,2,3709,106,feet,jsons/VE125_randls_66_rotated.json,604915,1005357,30,Woman
34,784703,DepthScenes,duration_manipulation_targetAtFixation,jsons/VE125_randls_66_rotated.json,http://54.235.29.9/FacialAge/BNav_EC2/DepthDuration/v2_depth_duration_MTurk/v2_DepthDuration_HTML.html#255,255,1366,768,1366,768,9-3-2022,10-29-39,35,depth_duration_stimuli/000866_2014-06-09_20-45-42_260595134347_rgbf000139-resize_1/000866_2014-06-09_20-45-42_260595134347_rgbf000139-resize_1-target.png,125,3.2155,3,3830,101,feet,jsons/VE125_randls_66_rotated.json,604915,1005357,30,Woman
35,784703,DepthScenes,duration_manipulation_targetAtFixation,jsons/VE125_randls_66_rotated.json,http://54.235.29.9/FacialAge/BNav_EC2/DepthDuration/v2_depth_duration_MTurk/v2_DepthDuration_HTML.html#255,255,1366,768,1366,768,9-3-2022,10-29-39,36,depth_duration_stimuli/002989_2014-06-15_12-25-03_094959634447_rgbf000150-resize_3/002989_2014-06-15_12-25-03_094959634447_rgbf000150-resize_3-target.png,125,4.1975,6,5214,122,feet,jsons/VE125_randls_66_rotated.json,604915,1005357,30,Woman
36,784703,DepthScenes,duration_manipulation_targetAtFixation,jsons/VE125_randls_66_rotated.json,http://54.235.29.9/FacialAge/BNav_EC2/DepthDuration/v2_depth_duration_MTurk/v2_DepthDuration_HTML.html#255,255,1366,768,1366,768,9-3-2022,10-29-39,37,depth_duration_stimuli/002639_2014-06-24_14-51-37_094959634447_rgbf000074-resize_4/002639_2014-06-24_14-51-37_094959634447_rgbf000074-resize_4-target.png,125,4.0375,3,3203,123,feet,jsons/VE125_randls_66_rotated.json,604915,1005357,30,Woman
37,784703,DepthScenes,duration_manipulation_targetAtFixation,jsons/VE125_randls_66_rotated.json,http://54.235.29.9/FacialAge/BNav_EC2/DepthDuration/v2_depth_duration_MTurk/v2_DepthDuration_HTML.html#255,255,1366,768,1366,768,9-3-2022,10-29-39,38,depth_duration_stimuli/003292_2014-05-14_21-53-49_094959634447_rgbf000100-resize_2/003292_2014-05-14_21-53-49_094959634447_rgbf000100-resize_2-target.png,125,3.4815,1,4969,119,feet,jsons/VE125_randls_66_rotated.json,604915,1005357,30,Woman
38,784703,DepthScenes,duration_manipulation_targetAtFixation,jsons/VE125_randls_66_rotated.json,http://54.235.29.9/FacialAge/BNav_EC2/DepthDuration/v2_depth_duration_MTurk/v2_DepthDuration_HTML.html#255,255,1366,768,1366,768,9-3-2022,10-29-39,39,depth_duration_stimuli/001650_2014-06-20_12-09-00_260595134347_rgbf000087-resize_3/001650_2014-06-20_12-09-00_260595134347_rgbf000087-resize_3-target.png,125,1.9505,3,2776,111,feet,jsons/VE125_randls_66_rotated.json,604915,1005357,30,Woman
39,784703,DepthScenes,duration_manipulation_targetAtFixation,jsons/VE125_randls_66_rotated.json,http://54.235.29.9/FacialAge/BNav_EC2/DepthDuration/v2_depth_duration_MTurk/v2_DepthDuration_HTML.html#255,255,1366,768,1366,768,9-3-2022,10-29-39,40,depth_duration_stimuli/000682_2014-06-08_23-14-58_260595134347_rgbf000041-resize_5/000682_2014-06-08_23-14-58_260595134347_rgbf000041-resize_5-target.png,125,2.7239999999999998,2,2779,132,feet,jsons/VE125_randls_66_rotated.json,604915,1005357,30,Woman
40,784703,DepthScenes,duration_manipulation_targetAtFixation,jsons/VE125_randls_66_rotated.json,http://54.235.29.9/FacialAge/BNav_EC2/DepthDuration/v2_depth_duration_MTurk/v2_DepthDuration_HTML.html#255,255,1366,768,1366,768,9-3-2022,10-29-39,41,depth_duration_stimuli/000409_2014-06-04_19-23-33_260595134347_rgbf000067-resize_0/000409_2014-06-04_19-23-33_260595134347_rgbf000067-resize_0-target.png,125,3.7335,4,3897,128,feet,jsons/VE125_randls_66_rotated.json,604915,1005357,30,Woman
41,784703,DepthScenes,duration_manipulation_targetAtFixation,jsons/VE125_randls_66_rotated.json,http://54.235.29.9/FacialAge/BNav_EC2/DepthDuration/v2_depth_duration_MTurk/v2_DepthDuration_HTML.html#255,255,1366,768,1366,768,9-3-2022,10-29-39,42,depth_duration_stimuli/002663_2014-06-13_15-50-26_094959634447_rgbf000075-resize_1/002663_2014-06-13_15-50-26_094959634447_rgbf000075-resize_1-target.png,125,4.7495,0,3030,124,feet,jsons/VE125_randls_66_rotated.json,604915,1005357,30,Woman
42,784703,DepthScenes,duration_manipulation_targetAtFixation,jsons/VE125_randls_66_rotated.json,http://54.235.29.9/FacialAge/BNav_EC2/DepthDuration/v2_depth_duration_MTurk/v2_DepthDuration_HTML.html#255,255,1366,768,1366,768,9-3-2022,10-29-39,43,depth_duration_stimuli/003129_2014-05-12_10-48-10_094959634447_rgbf000100-resize_0/003129_2014-05-12_10-48-10_094959634447_rgbf000100-resize_0-target.png,125,4.9305,5,3227,130,feet,jsons/VE125_randls_66_rotated.json,604915,1005357,30,Woman
43,784703,DepthScenes,duration_manipulation_targetAtFixation,jsons/VE125_randls_66_rotated.json,http://54.235.29.9/FacialAge/BNav_EC2/DepthDuration/v2_depth_duration_MTurk/v2_DepthDuration_HTML.html#255,255,1366,768,1366,768,9-3-2022,10-29-39,44,depth_duration_stimuli/000414_2014-06-04_19-49-13_260595134347_rgbf000044-resize_0/000414_2014-06-04_19-49-13_260595134347_rgbf000044-resize_0-target.png,125,4.329,0,2747,127,feet,jsons/VE125_randls_66_rotated.json,604915,1005357,30,Woman
44,784703,DepthScenes,duration_manipulation_targetAtFixation,jsons/VE125_randls_66_rotated.json,http://54.235.29.9/FacialAge/BNav_EC2/DepthDuration/v2_depth_duration_MTurk/v2_DepthDuration_HTML.html#255,255,1366,768,1366,768,9-3-2022,10-29-39,45,depth_duration_stimuli/001617_2014-06-20_11-35-32_260595134347_rgbf000066-resize_1/001617_2014-06-20_11-35-32_260595134347_rgbf000066-resize_1-target.png,125,3.7910000000000004,4,3200,124,feet,jsons/VE125_randls_66_rotated.json,604915,1005357,30,Woman
45,784703,DepthScenes,duration_manipulation_targetAtFixation,jsons/VE125_randls_66_rotated.json,http://54.235.29.9/FacialAge/BNav_EC2/DepthDuration/v2_depth_duration_MTurk/v2_DepthDuration_HTML.html#255,255,1366,768,1366,768,9-3-2022,10-29-39,46,depth_duration_stimuli/001806_2014-06-26_20-50-20_260595134347_rgbf000091-resize_1/001806_2014-06-26_20-50-20_260595134347_rgbf000091-resize_1-target.png,125,2.7305,2,4827,123,feet,jsons/VE125_randls_66_rotated.json,604915,1005357,30,Woman
46,784703,DepthScenes,duration_manipulation_targetAtFixation,jsons/VE125_randls_66_rotated.json,http://54.235.29.9/FacialAge/BNav_EC2/DepthDuration/v2_depth_duration_MTurk/v2_DepthDuration_HTML.html#255,255,1366,768,1366,768,9-3-2022,10-29-39,47,depth_duration_stimuli/000677_2014-06-08_23-10-32_260595134347_rgbf000158-resize_6/000677_2014-06-08_23-10-32_260595134347_rgbf000158-resize_6-target.png,125,3.556,2,2879,93,feet,jsons/VE125_randls_66_rotated.json,604915,1005357,30,Woman
47,784703,DepthScenes,duration_manipulation_targetAtFixation,jsons/VE125_randls_66_rotated.json,http://54.235.29.9/FacialAge/BNav_EC2/DepthDuration/v2_depth_duration_MTurk/v2_DepthDuration_HTML.html#255,255,1366,768,1366,768,9-3-2022,10-29-39,48,depth_duration_stimuli/001029_2014-06-08_13-17-57_260595134347_rgbf000065-resize_1/001029_2014-06-08_13-17-57_260595134347_rgbf000065-resize_1-target.png,125,3.0835,2,2103,124,feet,jsons/VE125_randls_66_rotated.json,604915,1005357,30,Woman
48,784703,DepthScenes,duration_manipulation_targetAtFixation,jsons/VE125_randls_66_rotated.json,http://54.235.29.9/FacialAge/BNav_EC2/DepthDuration/v2_depth_duration_MTurk/v2_DepthDuration_HTML.html#255,255,1366,768,1366,768,9-3-2022,10-29-39,49,depth_duration_stimuli/001170_2014-06-17_15-43-44_260595134347_rgbf000096-resize_6/001170_2014-06-17_15-43-44_260595134347_rgbf000096-resize-original.jpg,125,1.1909999999999998,0,2665,125,feet,jsons/VE125_randls_66_rotated.json,604915,1005357,30,Woman
49,784703,DepthScenes,duration_manipulation_targetAtFixation,jsons/VE125_randls_66_rotated.json,http://54.235.29.9/FacialAge/BNav_EC2/DepthDuration/v2_depth_duration_MTurk/v2_DepthDuration_HTML.html#255,255,1366,768,1366,768,9-3-2022,10-29-39,50,depth_duration_stimuli/002657_2014-06-13_15-29-54_094959634447_rgbf000150-resize_1/002657_2014-06-13_15-29-54_094959634447_rgbf000150-resize_1-target.png,125,4.919,3,3475,155,feet,jsons/VE125_randls_66_rotated.json,604915,1005357,30,Woman
50,784703,DepthScenes,duration_manipulation_targetAtFixation,jsons/VE125_randls_66_rotated.json,http://54.235.29.9/FacialAge/BNav_EC2/DepthDuration/v2_depth_duration_MTurk/v2_DepthDuration_HTML.html#255,255,1366,768,1366,768,9-3-2022,10-29-39,51,depth_duration_stimuli/002375_2014-06-28_20-13-44_260595134347_rgbf000032-resize_1/002375_2014-06-28_20-13-44_260595134347_rgbf000032-resize_1-target.png,125,4.0175,3,2998,118,feet,jsons/VE125_randls_66_rotated.json,604915,1005357,30,Woman
51,784703,DepthScenes,duration_manipulation_targetAtFixation,jsons/VE125_randls_66_rotated.json,http://54.235.29.9/FacialAge/BNav_EC2/DepthDuration/v2_depth_duration_MTurk/v2_DepthDuration_HTML.html#255,255,1366,768,1366,768,9-3-2022,10-29-39,52,depth_duration_stimuli/000709_2014-06-08_13-51-55_260595134347_rgbf000068-resize_3/000709_2014-06-08_13-51-55_260595134347_rgbf000068-resize_3-target.png,125,1.8030000000000002,3,2516,118,feet,jsons/VE125_randls_66_rotated.json,604915,1005357,30,Woman
52,784703,DepthScenes,duration_manipulation_targetAtFixation,jsons/VE125_randls_66_rotated.json,http://54.235.29.9/FacialAge/BNav_EC2/DepthDuration/v2_depth_duration_MTurk/v2_DepthDuration_HTML.html#255,255,1366,768,1366,768,9-3-2022,10-29-39,53,depth_duration_stimuli/002057_2014-06-24_21-00-13_260595134347_rgbf000120-resize_1/002057_2014-06-24_21-00-13_260595134347_rgbf000120-resize_1-target.png,125,2.967,0,3406,125,feet,jsons/VE125_randls_66_rotated.json,604915,1005357,30,Woman
53,784703,DepthScenes,duration_manipulation_targetAtFixation,jsons/VE125_randls_66_rotated.json,http://54.235.29.9/FacialAge/BNav_EC2/DepthDuration/v2_depth_duration_MTurk/v2_DepthDuration_HTML.html#255,255,1366,768,1366,768,9-3-2022,10-29-39,54,depth_duration_stimuli/001235_2014-06-17_16-37-36_260595134347_rgbf000084-resize_4/001235_2014-06-17_16-37-36_260595134347_rgbf000084-resize_4-target.png,125,3.6605,2,3213,119,feet,jsons/VE125_randls_66_rotated.json,604915,1005357,30,Woman
54,784703,DepthScenes,duration_manipulation_targetAtFixation,jsons/VE125_randls_66_rotated.json,http://54.235.29.9/FacialAge/BNav_EC2/DepthDuration/v2_depth_duration_MTurk/v2_DepthDuration_HTML.html#255,255,1366,768,1366,768,9-3-2022,10-29-39,55,depth_duration_stimuli/000788_2014-06-08_22-34-36_260595134347_rgbf000131-resize_1/000788_2014-06-08_22-34-36_260595134347_rgbf000131-resize_1-target.png,125,3.359,3,2885,124,feet,jsons/VE125_randls_66_rotated.json,604915,1005357,30,Woman
55,784703,DepthScenes,duration_manipulation_targetAtFixation,jsons/VE125_randls_66_rotated.json,http://54.235.29.9/FacialAge/BNav_EC2/DepthDuration/v2_depth_duration_MTurk/v2_DepthDuration_HTML.html#255,255,1366,768,1366,768,9-3-2022,10-29-39,56,depth_duration_stimuli/001516_2014-06-20_16-25-09_260595134347_rgbf000076-resize_2/001516_2014-06-20_16-25-09_260595134347_rgbf000076-resize_2-target.png,125,1.7445,2,2189,124,feet,jsons/VE125_randls_66_rotated.json,604915,1005357,30,Woman
56,784703,DepthScenes,duration_manipulation_targetAtFixation,jsons/VE125_randls_66_rotated.json,http://54.235.29.9/FacialAge/BNav_EC2/DepthDuration/v2_depth_duration_MTurk/v2_DepthDuration_HTML.html#255,255,1366,768,1366,768,9-3-2022,10-29-39,57,depth_duration_stimuli/002118_2014-06-25_20-32-08_260595134347_rgbf000078-resize_1/002118_2014-06-25_20-32-08_260595134347_rgbf000078-resize_1-target.png,125,2.6460000000000004,2,2468,154,feet,jsons/VE125_randls_66_rotated.json,604915,1005357,30,Woman
57,784703,DepthScenes,duration_manipulation_targetAtFixation,jsons/VE125_randls_66_rotated.json,http://54.235.29.9/FacialAge/BNav_EC2/DepthDuration/v2_depth_duration_MTurk/v2_DepthDuration_HTML.html#255,255,1366,768,1366,768,9-3-2022,10-29-39,58,depth_duration_stimuli/000109_2014-05-14_23-41-52_260595134347_rgbf000035-resize_9/000109_2014-05-14_23-41-52_260595134347_rgbf000035-resize_9-target.png,125,1.3545,1,2892,136,feet,jsons/VE125_randls_66_rotated.json,604915,1005357,30,Woman
58,784703,DepthScenes,duration_manipulation_targetAtFixation,jsons/VE125_randls_66_rotated.json,http://54.235.29.9/FacialAge/BNav_EC2/DepthDuration/v2_depth_duration_MTurk/v2_DepthDuration_HTML.html#255,255,1366,768,1366,768,9-3-2022,10-29-39,59,depth_duration_stimuli/000470_2014-06-09_19-42-40_260595134347_rgbf000094-resize_1/000470_2014-06-09_19-42-40_260595134347_rgbf000094-resize_1-target.png,125,1.831,3,2070,124,feet,jsons/VE125_randls_66_rotated.json,604915,1005357,30,Woman
59,784703,DepthScenes,duration_manipulation_targetAtFixation,jsons/VE125_randls_66_rotated.json,http://54.235.29.9/FacialAge/BNav_EC2/DepthDuration/v2_depth_duration_MTurk/v2_DepthDuration_HTML.html#255,255,1366,768,1366,768,9-3-2022,10-29-39,60,depth_duration_stimuli/003081_2014-06-15_15-19-16_094959634447_rgbf000150-resize_1/003081_2014-06-15_15-19-16_094959634447_rgbf000150-resize_1-target.png,125,3.9125,2,2187,125,feet,jsons/VE125_randls_66_rotated.json,604915,1005357,30,Woman
60,784703,DepthScenes,duration_manipulation_targetAtFixation,jsons/VE125_randls_66_rotated.json,http://54.235.29.9/FacialAge/BNav_EC2/DepthDuration/v2_depth_duration_MTurk/v2_DepthDuration_HTML.html#255,255,1366,768,1366,768,9-3-2022,10-29-39,61,depth_duration_stimuli/001417_2014-06-19_16-25-36_260595134347_rgbf000115-resize_5/001417_2014-06-19_16-25-36_260595134347_rgbf000115-resize_5-target.png,125,4.6255,3,3252,119,feet,jsons/VE125_randls_66_rotated.json,604915,1005357,30,Woman
61,784703,DepthScenes,duration_manipulation_targetAtFixation,jsons/VE125_randls_66_rotated.json,http://54.235.29.9/FacialAge/BNav_EC2/DepthDuration/v2_depth_duration_MTurk/v2_DepthDuration_HTML.html#255,255,1366,768,1366,768,9-3-2022,10-29-39,62,depth_duration_stimuli/003079_2014-06-15_15-18-20_094959634447_rgbf000152-resize_8/003079_2014-06-15_15-18-20_094959634447_rgbf000152-resize_8-target.png,125,2.8775,5,2798,118,feet,jsons/VE125_randls_66_rotated.json,604915,1005357,30,Woman
62,784703,DepthScenes,duration_manipulation_targetAtFixation,jsons/VE125_randls_66_rotated.json,http://54.235.29.9/FacialAge/BNav_EC2/DepthDuration/v2_depth_duration_MTurk/v2_DepthDuration_HTML.html#255,255,1366,768,1366,768,9-3-2022,10-29-39,63,depth_duration_stimuli/000506_2014-06-08_23-21-00_260595134347_rgbf000070-resize_7/000506_2014-06-08_23-21-00_260595134347_rgbf000070-resize_7-target.png,125,4.0585,4,3080,133,feet,jsons/VE125_randls_66_rotated.json,604915,1005357,30,Woman
63,784703,DepthScenes,duration_manipulation_targetAtFixation,jsons/VE125_randls_66_rotated.json,http://54.235.29.9/FacialAge/BNav_EC2/DepthDuration/v2_depth_duration_MTurk/v2_DepthDuration_HTML.html#255,255,1366,768,1366,768,9-3-2022,10-29-39,64,depth_duration_stimuli/000854_2014-06-09_19-43-13_260595134347_rgbf000066-resize_0/000854_2014-06-09_19-43-13_260595134347_rgbf000066-resize_0-target.png,125,3.068,3,2166,122,feet,jsons/VE125_randls_66_rotated.json,604915,1005357,30,Woman
64,784703,DepthScenes,duration_manipulation_targetAtFixation,jsons/VE125_randls_66_rotated.json,http://54.235.29.9/FacialAge/BNav_EC2/DepthDuration/v2_depth_duration_MTurk/v2_DepthDuration_HTML.html#255,255,1366,768,1366,768,9-3-2022,10-29-39,65,depth_duration_stimuli/000758_2014-06-08_22-05-08_260595134347_rgbf000085-resize_0/000758_2014-06-08_22-05-08_260595134347_rgbf000085-resize_0-target.png,125,3.3810000000000002,4,2106,125,feet,jsons/VE125_randls_66_rotated.json,604915,1005357,30,Woman
65,784703,DepthScenes,duration_manipulation_targetAtFixation,jsons/VE125_randls_66_rotated.json,http://54.235.29.9/FacialAge/BNav_EC2/DepthDuration/v2_depth_duration_MTurk/v2_DepthDuration_HTML.html#255,255,1366,768,1366,768,9-3-2022,10-29-39,66,depth_duration_stimuli/001540_2014-06-20_17-01-05_260595134347_rgbf000086-resize_2/001540_2014-06-20_17-01-05_260595134347_rgbf000086-resize-original.jpg,125,1.459,0,2769,120,feet,jsons/VE125_randls_66_rotated.json,604915,1005357,30,Woman
66,784703,DepthScenes,duration_manipulation_targetAtFixation,jsons/VE125_randls_66_rotated.json,http://54.235.29.9/FacialAge/BNav_EC2/DepthDuration/v2_depth_duration_MTurk/v2_DepthDuration_HTML.html#255,255,1366,768,1366,768,9-3-2022,10-29-39,67,depth_duration_stimuli/003338_2014-05-20_11-01-23_094959634447_rgbf000051-resize_6/003338_2014-05-20_11-01-23_094959634447_rgbf000051-resize_6-target.png,125,1.693,2,2956,124,feet,jsons/VE125_randls_66_rotated.json,604915,1005357,30,Woman
67,784703,DepthScenes,duration_manipulation_targetAtFixation,jsons/VE125_randls_66_rotated.json,http://54.235.29.9/FacialAge/BNav_EC2/DepthDuration/v2_depth_duration_MTurk/v2_DepthDuration_HTML.html#255,255,1366,768,1366,768,9-3-2022,10-29-39,68,depth_duration_stimuli/002509_2014-06-24_13-19-22_094959634447_rgbf000077-resize_0/002509_2014-06-24_13-19-22_094959634447_rgbf000077-resize_0-target.png,125,1.3065,1,3059,110,feet,jsons/VE125_randls_66_rotated.json,604915,1005357,30,Woman
68,784703,DepthScenes,duration_manipulation_targetAtFixation,jsons/VE125_randls_66_rotated.json,http://54.235.29.9/FacialAge/BNav_EC2/DepthDuration/v2_depth_duration_MTurk/v2_DepthDuration_HTML.html#255,255,1366,768,1366,768,9-3-2022,10-29-39,69,depth_duration_stimuli/001815_2014-06-26_20-52-55_260595134347_rgbf000020-resize_0/001815_2014-06-26_20-52-55_260595134347_rgbf000020-resize_0-target.png,125,3.3865,5,2985,124,feet,jsons/VE125_randls_66_rotated.json,604915,1005357,30,Woman
69,784703,DepthScenes,duration_manipulation_targetAtFixation,jsons/VE125_randls_66_rotated.json,http://54.235.29.9/FacialAge/BNav_EC2/DepthDuration/v2_depth_duration_MTurk/v2_DepthDuration_HTML.html#255,255,1366,768,1366,768,9-3-2022,10-29-39,70,depth_duration_stimuli/001808_2014-06-26_20-50-58_260595134347_rgbf000029-resize_1/001808_2014-06-26_20-50-58_260595134347_rgbf000029-resize_1-target.png,125,4.249,4,2798,135,feet,jsons/VE125_randls_66_rotated.json,604915,1005357,30,Woman
70,784703,DepthScenes,duration_manipulation_targetAtFixation,jsons/VE125_randls_66_rotated.json,http://54.235.29.9/FacialAge/BNav_EC2/DepthDuration/v2_depth_duration_MTurk/v2_DepthDuration_HTML.html#255,255,1366,768,1366,768,9-3-2022,10-29-39,71,depth_duration_stimuli/000665_2014-06-09_20-42-35_260595134347_rgbf000110-resize_1/000665_2014-06-09_20-42-35_260595134347_rgbf000110-resize_1-target.png,125,3.057,3,3381,123,feet,jsons/VE125_randls_66_rotated.json,604915,1005357,30,Woman
71,784703,DepthScenes,duration_manipulation_targetAtFixation,jsons/VE125_randls_66_rotated.json,http://54.235.29.9/FacialAge/BNav_EC2/DepthDuration/v2_depth_duration_MTurk/v2_DepthDuration_HTML.html#255,255,1366,768,1366,768,9-3-2022,10-29-39,72,depth_duration_stimuli/001150_2014-06-17_15-27-34_260595134347_rgbf000108-resize_2/001150_2014-06-17_15-27-34_260595134347_rgbf000108-resize_2-target.png,125,4.0325,5,2547,125,feet,jsons/VE125_randls_66_rotated.json,604915,1005357,30,Woman
72,784703,DepthScenes,duration_manipulation_targetAtFixation,jsons/VE125_randls_66_rotated.json,http://54.235.29.9/FacialAge/BNav_EC2/DepthDuration/v2_depth_duration_MTurk/v2_DepthDuration_HTML.html#255,255,1366,768,1366,768,9-3-2022,10-29-39,73,depth_duration_stimuli/002323_2014-06-28_20-01-54_260595134347_rgbf000051-resize_4/002323_2014-06-28_20-01-54_260595134347_rgbf000051-resize_4-target.png,125,3.7310000000000003,3,3030,127,feet,jsons/VE125_randls_66_rotated.json,604915,1005357,30,Woman
73,784703,DepthScenes,duration_manipulation_targetAtFixation,jsons/VE125_randls_66_rotated.json,http://54.235.29.9/FacialAge/BNav_EC2/DepthDuration/v2_depth_duration_MTurk/v2_DepthDuration_HTML.html#255,255,1366,768,1366,768,9-3-2022,10-29-39,74,depth_duration_stimuli/000917_2014-06-09_22-45-29_260595134347_rgbf000149-resize_3/000917_2014-06-09_22-45-29_260595134347_rgbf000149-resize_3-target.png,125,4.1865,6,3450,124,feet,jsons/VE125_randls_66_rotated.json,604915,1005357,30,Woman
74,784703,DepthScenes,duration_manipulation_targetAtFixation,jsons/VE125_randls_66_rotated.json,http://54.235.29.9/FacialAge/BNav_EC2/DepthDuration/v2_depth_duration_MTurk/v2_DepthDuration_HTML.html#255,255,1366,768,1366,768,9-3-2022,10-29-39,75,depth_duration_stimuli/003423_2014-05-21_10-23-26_094959634447_rgbf002665-resize_2/003423_2014-05-21_10-23-26_094959634447_rgbf002665-resize_2-target.png,125,3.2575,7,3353,133,feet,jsons/VE125_randls_66_rotated.json,604915,1005357,30,Woman
75,784703,DepthScenes,duration_manipulation_targetAtFixation,jsons/VE125_randls_66_rotated.json,http://54.235.29.9/FacialAge/BNav_EC2/DepthDuration/v2_depth_duration_MTurk/v2_DepthDuration_HTML.html#255,255,1366,768,1366,768,9-3-2022,10-29-39,76,depth_duration_stimuli/002905_2014-06-03_18-04-43_094959634447_rgbf000151-resize_2/002905_2014-06-03_18-04-43_094959634447_rgbf000151-resize_2-target.png,125,2.0295,1,3347,124,feet,jsons/VE125_randls_66_rotated.json,604915,1005357,30,Woman
76,784703,DepthScenes,duration_manipulation_targetAtFixation,jsons/VE125_randls_66_rotated.json,http://54.235.29.9/FacialAge/BNav_EC2/DepthDuration/v2_depth_duration_MTurk/v2_DepthDuration_HTML.html#255,255,1366,768,1366,768,9-3-2022,10-29-39,77,depth_duration_stimuli/002949_2014-06-26_15-57-42_094959634447_rgbf000079-resize_1/002949_2014-06-26_15-57-42_094959634447_rgbf000079-resize_1-target.png,125,1.8915,1,2780,123,feet,jsons/VE125_randls_66_rotated.json,604915,1005357,30,Woman
77,784703,DepthScenes,duration_manipulation_targetAtFixation,jsons/VE125_randls_66_rotated.json,http://54.235.29.9/FacialAge/BNav_EC2/DepthDuration/v2_depth_duration_MTurk/v2_DepthDuration_HTML.html#255,255,1366,768,1366,768,9-3-2022,10-29-39,78,depth_duration_stimuli/000522_2014-06-08_13-35-06_260595134347_rgbf000244-resize_1/000522_2014-06-08_13-35-06_260595134347_rgbf000244-resize_1-target.png,125,2.3715,1,3809,140,feet,jsons/VE125_randls_66_rotated.json,604915,1005357,30,Woman
78,784703,DepthScenes,duration_manipulation_targetAtFixation,jsons/VE125_randls_66_rotated.json,http://54.235.29.9/FacialAge/BNav_EC2/DepthDuration/v2_depth_duration_MTurk/v2_DepthDuration_HTML.html#255,255,1366,768,1366,768,9-3-2022,10-29-39,79,depth_duration_stimuli/001052_2014-06-08_18-24-54_260595134347_rgbf000130-resize_1/001052_2014-06-08_18-24-54_260595134347_rgbf000130-resize_1-target.png,125,4.1045,6,2832,131,feet,jsons/VE125_randls_66_rotated.json,604915,1005357,30,Woman
79,784703,DepthScenes,duration_manipulation_targetAtFixation,jsons/VE125_randls_66_rotated.json,http://54.235.29.9/FacialAge/BNav_EC2/DepthDuration/v2_depth_duration_MTurk/v2_DepthDuration_HTML.html#255,255,1366,768,1366,768,9-3-2022,10-29-39,80,depth_duration_stimuli/002988_2014-06-15_12-24-20_094959634447_rgbf000150-resize_1/002988_2014-06-15_12-24-20_094959634447_rgbf000150-resize_1-target.png,125,4.7669999999999995,5,3023,140,feet,jsons/VE125_randls_66_rotated.json,604915,1005357,30,Woman
80,784703,DepthScenes,duration_manipulation_targetAtFixation,jsons/VE125_randls_66_rotated.json,http://54.235.29.9/FacialAge/BNav_EC2/DepthDuration/v2_depth_duration_MTurk/v2_DepthDuration_HTML.html#255,255,1366,768,1366,768,9-3-2022,10-29-39,81,depth_duration_stimuli/000191_2014-05-12_17-07-38_260595134347_rgbf000199-resize_0/000191_2014-05-12_17-07-38_260595134347_rgbf000199-resize_0-target.png,125,3.7995,4,2818,130,feet,jsons/VE125_randls_66_rotated.json,604915,1005357,30,Woman
81,784703,DepthScenes,duration_manipulation_targetAtFixation,jsons/VE125_randls_66_rotated.json,http://54.235.29.9/FacialAge/BNav_EC2/DepthDuration/v2_depth_duration_MTurk/v2_DepthDuration_HTML.html#255,255,1366,768,1366,768,9-3-2022,10-29-39,82,depth_duration_stimuli/000493_2014-06-09_21-01-18_260595134347_rgbf000196-resize_3/000493_2014-06-09_21-01-18_260595134347_rgbf000196-resize_3-target.png,125,3.44,3,2675,126,feet,jsons/VE125_randls_66_rotated.json,604915,1005357,30,Woman
82,784703,DepthScenes,duration_manipulation_targetAtFixation,jsons/VE125_randls_66_rotated.json,http://54.235.29.9/FacialAge/BNav_EC2/DepthDuration/v2_depth_duration_MTurk/v2_DepthDuration_HTML.html#255,255,1366,768,1366,768,9-3-2022,10-29-39,83,depth_duration_stimuli/003587_2014-05-23_16-48-02_094959634447_rgbf002384-resize_2/003587_2014-05-23_16-48-02_094959634447_rgbf002384-resize_2-target.png,125,1.357,2,2665,121,feet,jsons/VE125_randls_66_rotated.json,604915,1005357,30,Woman
83,784703,DepthScenes,duration_manipulation_targetAtFixation,jsons/VE125_randls_66_rotated.json,http://54.235.29.9/FacialAge/BNav_EC2/DepthDuration/v2_depth_duration_MTurk/v2_DepthDuration_HTML.html#255,255,1366,768,1366,768,9-3-2022,10-29-39,84,depth_duration_stimuli/001167_2014-06-17_15-38-07_260595134347_rgbf000108-resize_0/001167_2014-06-17_15-38-07_260595134347_rgbf000108-resize_0-target.png,125,1.8505,2,4279,129,feet,jsons/VE125_randls_66_rotated.json,604915,1005357,30,Woman
84,784703,DepthScenes,duration_manipulation_targetAtFixation,jsons/VE125_randls_66_rotated.json,http://54.235.29.9/FacialAge/BNav_EC2/DepthDuration/v2_depth_duration_MTurk/v2_DepthDuration_HTML.html#255,255,1366,768,1366,768,9-3-2022,10-29-39,85,depth_duration_stimuli/000103_2014-05-14_22-01-17_260595134347_rgbf000152-resize_5/000103_2014-05-14_22-01-17_260595134347_rgbf000152-resize_5-target.png,125,1.993,4,4272,124,feet,jsons/VE125_randls_66_rotated.json,604915,1005357,30,Woman
85,784703,DepthScenes,duration_manipulation_targetAtFixation,jsons/VE125_randls_66_rotated.json,http://54.235.29.9/FacialAge/BNav_EC2/DepthDuration/v2_depth_duration_MTurk/v2_DepthDuration_HTML.html#255,255,1366,768,1366,768,9-3-2022,10-29-39,86,depth_duration_stimuli/001555_2014-06-20_17-12-10_260595134347_rgbf000065-resize_4/001555_2014-06-20_17-12-10_260595134347_rgbf000065-resize_4-target.png,125,1.633,1,3478,130,feet,jsons/VE125_randls_66_rotated.json,604915,1005357,30,Woman
86,784703,DepthScenes,duration_manipulation_targetAtFixation,jsons/VE125_randls_66_rotated.json,http://54.235.29.9/FacialAge/BNav_EC2/DepthDuration/v2_depth_duration_MTurk/v2_DepthDuration_HTML.html#255,255,1366,768,1366,768,9-3-2022,10-29-39,87,depth_duration_stimuli/002414_2014-06-28_20-24-58_260595134347_rgbf000067-resize_4/002414_2014-06-28_20-24-58_260595134347_rgbf000067-resize_4-target.png,125,4.363,3,2603,125,feet,jsons/VE125_randls_66_rotated.json,604915,1005357,30,Woman
87,784703,DepthScenes,duration_manipulation_targetAtFixation,jsons/VE125_randls_66_rotated.json,http://54.235.29.9/FacialAge/BNav_EC2/DepthDuration/v2_depth_duration_MTurk/v2_DepthDuration_HTML.html#255,255,1366,768,1366,768,9-3-2022,10-29-39,88,depth_duration_stimuli/000773_2014-06-08_22-24-54_260595134347_rgbf000093-resize_1/000773_2014-06-08_22-24-54_260595134347_rgbf000093-resize_1-target.png,125,4.973,5,2822,124,feet,jsons/VE125_randls_66_rotated.json,604915,1005357,30,Woman
88,784703,DepthScenes,duration_manipulation_targetAtFixation,jsons/VE125_randls_66_rotated.json,http://54.235.29.9/FacialAge/BNav_EC2/DepthDuration/v2_depth_duration_MTurk/v2_DepthDuration_HTML.html#255,255,1366,768,1366,768,9-3-2022,10-29-39,89,depth_duration_stimuli/001132_2014-06-17_14-48-54_260595134347_rgbf000100-resize_2/001132_2014-06-17_14-48-54_260595134347_rgbf000100-resize_2-target.png,125,3.753,2,2904,125,feet,jsons/VE125_randls_66_rotated.json,604915,1005357,30,Woman
89,784703,DepthScenes,duration_manipulation_targetAtFixation,jsons/VE125_randls_66_rotated.json,http://54.235.29.9/FacialAge/BNav_EC2/DepthDuration/v2_depth_duration_MTurk/v2_DepthDuration_HTML.html#255,255,1366,768,1366,768,9-3-2022,10-29-39,90,depth_duration_stimuli/001133_2014-06-17_14-49-16_260595134347_rgbf000100-resize_0/001133_2014-06-17_14-49-16_260595134347_rgbf000100-resize_0-target.png,125,4.2115,0,3187,123,feet,jsons/VE125_randls_66_rotated.json,604915,1005357,30,Woman
90,784703,DepthScenes,duration_manipulation_targetAtFixation,jsons/VE125_randls_66_rotated.json,http://54.235.29.9/FacialAge/BNav_EC2/DepthDuration/v2_depth_duration_MTurk/v2_DepthDuration_HTML.html#255,255,1366,768,1366,768,9-3-2022,10-29-39,91,depth_duration_stimuli/002103_2014-06-25_20-00-40_260595134347_rgbf000049-resize_0/002103_2014-06-25_20-00-40_260595134347_rgbf000049-resize_0-target.png,125,4.105,3,4674,123,feet,jsons/VE125_randls_66_rotated.json,604915,1005357,30,Woman
91,784703,DepthScenes,duration_manipulation_targetAtFixation,jsons/VE125_randls_66_rotated.json,http://54.235.29.9/FacialAge/BNav_EC2/DepthDuration/v2_depth_duration_MTurk/v2_DepthDuration_HTML.html#255,255,1366,768,1366,768,9-3-2022,10-29-39,92,depth_duration_stimuli/002039_2014-06-24_20-22-38_260595134347_rgbf000084-resize_1/002039_2014-06-24_20-22-38_260595134347_rgbf000084-resize_1-target.png,125,4.408,6,3605,125,feet,jsons/VE125_randls_66_rotated.json,604915,1005357,30,Woman
92,784703,DepthScenes,duration_manipulation_targetAtFixation,jsons/VE125_randls_66_rotated.json,http://54.235.29.9/FacialAge/BNav_EC2/DepthDuration/v2_depth_duration_MTurk/v2_DepthDuration_HTML.html#255,255,1366,768,1366,768,9-3-2022,10-29-39,93,depth_duration_stimuli/000780_2014-06-08_22-28-29_260595134347_rgbf000126-resize_1/000780_2014-06-08_22-28-29_260595134347_rgbf000126-resize_1-target.png,125,3.3825,4,2580,126,feet,jsons/VE125_randls_66_rotated.json,604915,1005357,30,Woman
93,784703,DepthScenes,duration_manipulation_targetAtFixation,jsons/VE125_randls_66_rotated.json,http://54.235.29.9/FacialAge/BNav_EC2/DepthDuration/v2_depth_duration_MTurk/v2_DepthDuration_HTML.html#255,255,1366,768,1366,768,9-3-2022,10-29-39,94,depth_duration_stimuli/002445_2014-06-28_20-32-16_260595134347_rgbf000029-resize_4/002445_2014-06-28_20-32-16_260595134347_rgbf000029-resize_4-target.png,125,2.5315,3,2046,124,feet,jsons/VE125_randls_66_rotated.json,604915,1005357,30,Woman
94,784703,DepthScenes,duration_manipulation_targetAtFixation,jsons/VE125_randls_66_rotated.json,http://54.235.29.9/FacialAge/BNav_EC2/DepthDuration/v2_depth_duration_MTurk/v2_DepthDuration_HTML.html#255,255,1366,768,1366,768,9-3-2022,10-29-39,95,depth_duration_stimuli/000742_2014-06-08_18-48-09_260595134347_rgbf000164-resize_4/000742_2014-06-08_18-48-09_260595134347_rgbf000164-resize_4-target.png,125,4.632,6,3448,129,feet,jsons/VE125_randls_66_rotated.json,604915,1005357,30,Woman
95,784703,DepthScenes,duration_manipulation_targetAtFixation,jsons/VE125_randls_66_rotated.json,http://54.235.29.9/FacialAge/BNav_EC2/DepthDuration/v2_depth_duration_MTurk/v2_DepthDuration_HTML.html#255,255,1366,768,1366,768,9-3-2022,10-29-39,96,depth_duration_stimuli/001066_2014-06-08_22-03-20_260595134347_rgbf000066-resize_4/001066_2014-06-08_22-03-20_260595134347_rgbf000066-resize_4-target.png,125,4.2330000000000005,5,4396,131,feet,jsons/VE125_randls_66_rotated.json,604915,1005357,30,Woman
96,784703,DepthScenes,duration_manipulation_targetAtFixation,jsons/VE125_randls_66_rotated.json,http://54.235.29.9/FacialAge/BNav_EC2/DepthDuration/v2_depth_duration_MTurk/v2_DepthDuration_HTML.html#255,255,1366,768,1366,768,9-3-2022,10-29-39,97,depth_duration_stimuli/002875_2014-06-01_15-19-00_094959634447_rgbf000151-resize_1/002875_2014-06-01_15-19-00_094959634447_rgbf000151-resize_1-target.png,125,1.9675,3,3202,114,feet,jsons/VE125_randls_66_rotated.json,604915,1005357,30,Woman
97,784703,DepthScenes,duration_manipulation_targetAtFixation,jsons/VE125_randls_66_rotated.json,http://54.235.29.9/FacialAge/BNav_EC2/DepthDuration/v2_depth_duration_MTurk/v2_DepthDuration_HTML.html#255,255,1366,768,1366,768,9-3-2022,10-29-39,98,depth_duration_stimuli/001011_2014-06-08_23-18-54_260595134347_rgbf000044-resize_4/001011_2014-06-08_23-18-54_260595134347_rgbf000044-resize_4-target.png,125,2.4730000000000003,4,2564,111,feet,jsons/VE125_randls_66_rotated.json,604915,1005357,30,Woman
98,784703,DepthScenes,duration_manipulation_targetAtFixation,jsons/VE125_randls_66_rotated.json,http://54.235.29.9/FacialAge/BNav_EC2/DepthDuration/v2_depth_duration_MTurk/v2_DepthDuration_HTML.html#255,255,1366,768,1366,768,9-3-2022,10-29-39,99,depth_duration_stimuli/001222_2014-06-17_16-24-06_260595134347_rgbf000073-resize_0/001222_2014-06-17_16-24-06_260595134347_rgbf000073-resize-original.jpg,125,1.4385,0,2965,116,feet,jsons/VE125_randls_66_rotated.json,604915,1005357,30,Woman
99,784703,DepthScenes,duration_manipulation_targetAtFixation,jsons/VE125_randls_66_rotated.json,http://54.235.29.9/FacialAge/BNav_EC2/DepthDuration/v2_depth_duration_MTurk/v2_DepthDuration_HTML.html#255,255,1366,768,1366,768,9-3-2022,10-29-39,100,depth_duration_stimuli/002136_2014-06-25_21-18-03_260595134347_rgbf000109-resize_3/002136_2014-06-25_21-18-03_260595134347_rgbf000109-resize_3-target.png,125,1.9569999999999999,2,2884,121,feet,jsons/VE125_randls_66_rotated.json,604915,1005357,30,Woman
100,784703,DepthScenes,duration_manipulation_targetAtFixation,jsons/VE125_randls_66_rotated.json,http://54.235.29.9/FacialAge/BNav_EC2/DepthDuration/v2_depth_duration_MTurk/v2_DepthDuration_HTML.html#255,255,1366,768,1366,768,9-3-2022,10-29-39,101,depth_duration_stimuli/002964_2014-06-08_17-46-11_094959634447_rgbf000091-resize_4/002964_2014-06-08_17-46-11_094959634447_rgbf000091-resize_4-target.png,125,1.6909999999999998,1,2637,125,feet,jsons/VE125_randls_66_rotated.json,604915,1005357,30,Woman
101,784703,DepthScenes,duration_manipulation_targetAtFixation,jsons/VE125_randls_66_rotated.json,http://54.235.29.9/FacialAge/BNav_EC2/DepthDuration/v2_depth_duration_MTurk/v2_DepthDuration_HTML.html#255,255,1366,768,1366,768,9-3-2022,10-29-39,102,depth_duration_stimuli/000457_2014-06-08_16-52-43_260595134347_rgbf000199-resize_1/000457_2014-06-08_16-52-43_260595134347_rgbf000199-resize_1-target.png,125,3.6489999999999996,2,2397,125,feet,jsons/VE125_randls_66_rotated.json,604915,1005357,30,Woman
102,784703,DepthScenes,duration_manipulation_targetAtFixation,jsons/VE125_randls_66_rotated.json,http://54.235.29.9/FacialAge/BNav_EC2/DepthDuration/v2_depth_duration_MTurk/v2_DepthDuration_HTML.html#255,255,1366,768,1366,768,9-3-2022,10-29-39,103,depth_duration_stimuli/000929_2014-06-09_16-33-19_260595134347_rgbf000139-resize_0/000929_2014-06-09_16-33-19_260595134347_rgbf000139-resize_0-target.png,125,2.8680000000000003,2,2466,121,feet,jsons/VE125_randls_66_rotated.json,604915,1005357,30,Woman
103,784703,DepthScenes,duration_manipulation_targetAtFixation,jsons/VE125_randls_66_rotated.json,http://54.235.29.9/FacialAge/BNav_EC2/DepthDuration/v2_depth_duration_MTurk/v2_DepthDuration_HTML.html#255,255,1366,768,1366,768,9-3-2022,10-29-39,104,depth_duration_stimuli/000734_2014-06-08_17-39-11_260595134347_rgbf000128-resize_2/000734_2014-06-08_17-39-11_260595134347_rgbf000128-resize_2-target.png,125,4.098,3,3894,146,feet,jsons/VE125_randls_66_rotated.json,604915,1005357,30,Woman
104,784703,DepthScenes,duration_manipulation_targetAtFixation,jsons/VE125_randls_66_rotated.json,http://54.235.29.9/FacialAge/BNav_EC2/DepthDuration/v2_depth_duration_MTurk/v2_DepthDuration_HTML.html#255,255,1366,768,1366,768,9-3-2022,10-29-39,105,depth_duration_stimuli/000739_2014-06-08_18-45-58_260595134347_rgbf000068-resize_1/000739_2014-06-08_18-45-58_260595134347_rgbf000068-resize_1-target.png,125,3.534,3,2775,135,feet,jsons/VE125_randls_66_rotated.json,604915,1005357,30,Woman
105,784703,DepthScenes,duration_manipulation_targetAtFixation,jsons/VE125_randls_66_rotated.json,http://54.235.29.9/FacialAge/BNav_EC2/DepthDuration/v2_depth_duration_MTurk/v2_DepthDuration_HTML.html#255,255,1366,768,1366,768,9-3-2022,10-29-39,106,depth_duration_stimuli/003490_2014-05-21_15-50-11_094959634447_rgbf000101-resize_3/003490_2014-05-21_15-50-11_094959634447_rgbf000101-resize_3-target.png,125,3.6445,4,2801,125,feet,jsons/VE125_randls_66_rotated.json,604915,1005357,30,Woman
106,784703,DepthScenes,duration_manipulation_targetAtFixation,jsons/VE125_randls_66_rotated.json,http://54.235.29.9/FacialAge/BNav_EC2/DepthDuration/v2_depth_duration_MTurk/v2_DepthDuration_HTML.html#255,255,1366,768,1366,768,9-3-2022,10-29-39,107,depth_duration_stimuli/001175_2014-06-17_15-45-55_260595134347_rgbf000129-resize_4/001175_2014-06-17_15-45-55_260595134347_rgbf000129-resize_4-target.png,125,4.255,5,2678,110,feet,jsons/VE125_randls_66_rotated.json,604915,1005357,30,Woman
107,784703,DepthScenes,duration_manipulation_targetAtFixation,jsons/VE125_randls_66_rotated.json,http://54.235.29.9/FacialAge/BNav_EC2/DepthDuration/v2_depth_duration_MTurk/v2_DepthDuration_HTML.html#255,255,1366,768,1366,768,9-3-2022,10-29-39,108,depth_duration_stimuli/001214_2014-06-17_16-13-55_260595134347_rgbf000111-resize_0/001214_2014-06-17_16-13-55_260595134347_rgbf000111-resize_0-target.png,125,2.6505,3,2579,123,feet,jsons/VE125_randls_66_rotated.json,604915,1005357,30,Woman
108,784703,DepthScenes,duration_manipulation_targetAtFixation,jsons/VE125_randls_66_rotated.json,http://54.235.29.9/FacialAge/BNav_EC2/DepthDuration/v2_depth_duration_MTurk/v2_DepthDuration_HTML.html#255,255,1366,768,1366,768,9-3-2022,10-29-39,109,depth_duration_stimuli/000810_2014-06-08_17-20-01_260595134347_rgbf000105-resize_0/000810_2014-06-08_17-20-01_260595134347_rgbf000105-resize_0-target.png,125,1.4865,3,2851,126,feet,jsons/VE125_randls_66_rotated.json,604915,1005357,30,Woman
109,784703,DepthScenes,duration_manipulation_targetAtFixation,jsons/VE125_randls_66_rotated.json,http://54.235.29.9/FacialAge/BNav_EC2/DepthDuration/v2_depth_duration_MTurk/v2_DepthDuration_HTML.html#255,255,1366,768,1366,768,9-3-2022,10-29-39,110,depth_duration_stimuli/000691_2014-06-08_13-08-50_260595134347_rgbf000132-resize_3/000691_2014-06-08_13-08-50_260595134347_rgbf000132-resize_3-target.png,125,4.1530000000000005,2,3702,130,feet,jsons/VE125_randls_66_rotated.json,604915,1005357,30,Woman
110,784703,DepthScenes,duration_manipulation_targetAtFixation,jsons/VE125_randls_66_rotated.json,http://54.235.29.9/FacialAge/BNav_EC2/DepthDuration/v2_depth_duration_MTurk/v2_DepthDuration_HTML.html#255,255,1366,768,1366,768,9-3-2022,10-29-39,111,depth_duration_stimuli/002213_2014-06-28_18-37-58_260595134347_rgbf000055-resize_1/002213_2014-06-28_18-37-58_260595134347_rgbf000055-resize_1-target.png,125,3.62,0,3404,120,feet,jsons/VE125_randls_66_rotated.json,604915,1005357,30,Woman
111,784703,DepthScenes,duration_manipulation_targetAtFixation,jsons/VE125_randls_66_rotated.json,http://54.235.29.9/FacialAge/BNav_EC2/DepthDuration/v2_depth_duration_MTurk/v2_DepthDuration_HTML.html#255,255,1366,768,1366,768,9-3-2022,10-29-39,112,depth_duration_stimuli/001447_2014-06-19_17-00-32_260595134347_rgbf000082-resize_5/001447_2014-06-19_17-00-32_260595134347_rgbf000082-resize_5-target.png,125,4.13775,4,3900,127,feet,jsons/VE125_randls_66_rotated.json,604915,1005357,30,Woman
112,784703,DepthScenes,duration_manipulation_targetAtFixation,jsons/VE125_randls_66_rotated.json,http://54.235.29.9/FacialAge/BNav_EC2/DepthDuration/v2_depth_duration_MTurk/v2_DepthDuration_HTML.html#255,255,1366,768,1366,768,9-3-2022,10-29-39,113,depth_duration_stimuli/000447_2014-06-08_16-15-46_260595134347_rgbf000130-resize_1/000447_2014-06-08_16-15-46_260595134347_rgbf000130-resize_1-target.png,125,4.479,6,2959,124,feet,jsons/VE125_randls_66_rotated.json,604915,1005357,30,Woman
113,784703,DepthScenes,duration_manipulation_targetAtFixation,jsons/VE125_randls_66_rotated.json,http://54.235.29.9/FacialAge/BNav_EC2/DepthDuration/v2_depth_duration_MTurk/v2_DepthDuration_HTML.html#255,255,1366,768,1366,768,9-3-2022,10-29-39,114,depth_duration_stimuli/003010_2014-06-15_12-54-35_094959634447_rgbf000112-resize_0/003010_2014-06-15_12-54-35_094959634447_rgbf000112-resize_0-target.png,125,3.1185,7,2899,120,feet,jsons/VE125_randls_66_rotated.json,604915,1005357,30,Woman
114,784703,DepthScenes,duration_manipulation_targetAtFixation,jsons/VE125_randls_66_rotated.json,http://54.235.29.9/FacialAge/BNav_EC2/DepthDuration/v2_depth_duration_MTurk/v2_DepthDuration_HTML.html#255,255,1366,768,1366,768,9-3-2022,10-29-39,115,depth_duration_stimuli/001810_2014-06-26_20-51-35_260595134347_rgbf000040-resize_3/001810_2014-06-26_20-51-35_260595134347_rgbf000040-resize_3-target.png,125,2.2525,1,2880,126,feet,jsons/VE125_randls_66_rotated.json,604915,1005357,30,Woman
115,784703,DepthScenes,duration_manipulation_targetAtFixation,jsons/VE125_randls_66_rotated.json,http://54.235.29.9/FacialAge/BNav_EC2/DepthDuration/v2_depth_duration_MTurk/v2_DepthDuration_HTML.html#255,255,1366,768,1366,768,9-3-2022,10-29-39,116,depth_duration_stimuli/002425_2014-06-28_20-27-29_260595134347_rgbf000031-resize_8/002425_2014-06-28_20-27-29_260595134347_rgbf000031-resize_8-target.png,125,3.8960000000000004,3,4134,126,feet,jsons/VE125_randls_66_rotated.json,604915,1005357,30,Woman
116,784703,DepthScenes,duration_manipulation_targetAtFixation,jsons/VE125_randls_66_rotated.json,http://54.235.29.9/FacialAge/BNav_EC2/DepthDuration/v2_depth_duration_MTurk/v2_DepthDuration_HTML.html#255,255,1366,768,1366,768,9-3-2022,10-29-39,117,depth_duration_stimuli/000642_2014-06-08_16-59-25_260595134347_rgbf000098-resize_2/000642_2014-06-08_16-59-25_260595134347_rgbf000098-resize_2-target.png,125,2.8815,2,2513,112,feet,jsons/VE125_randls_66_rotated.json,604915,1005357,30,Woman
117,784703,DepthScenes,duration_manipulation_targetAtFixation,jsons/VE125_randls_66_rotated.json,http://54.235.29.9/FacialAge/BNav_EC2/DepthDuration/v2_depth_duration_MTurk/v2_DepthDuration_HTML.html#255,255,1366,768,1366,768,9-3-2022,10-29-39,118,depth_duration_stimuli/002209_2014-06-28_18-36-10_260595134347_rgbf000051-resize_1/002209_2014-06-28_18-36-10_260595134347_rgbf000051-resize_1-target.png,125,2.057,2,4935,129,feet,jsons/VE125_randls_66_rotated.json,604915,1005357,30,Woman
118,784703,DepthScenes,duration_manipulation_targetAtFixation,jsons/VE125_randls_66_rotated.json,http://54.235.29.9/FacialAge/BNav_EC2/DepthDuration/v2_depth_duration_MTurk/v2_DepthDuration_HTML.html#255,255,1366,768,1366,768,9-3-2022,10-29-39,119,depth_duration_stimuli/002763_2014-06-22_19-13-10_094959634447_rgbf000075-resize_4/002763_2014-06-22_19-13-10_094959634447_rgbf000075-resize_4-target.png,125,1.68375,2,2965,129,feet,jsons/VE125_randls_66_rotated.json,604915,1005357,30,Woman
119,784703,DepthScenes,duration_manipulation_targetAtFixation,jsons/VE125_randls_66_rotated.json,http://54.235.29.9/FacialAge/BNav_EC2/DepthDuration/v2_depth_duration_MTurk/v2_DepthDuration_HTML.html#255,255,1366,768,1366,768,9-3-2022,10-29-39,120,depth_duration_stimuli/000787_2014-06-08_22-33-53_260595134347_rgbf000175-resize_1/000787_2014-06-08_22-33-53_260595134347_rgbf000175-resize-original.jpg,125,4.784,0,3312,128,feet,jsons/VE125_randls_66_rotated.json,604915,1005357,30,Woman
120,784703,DepthScenes,duration_manipulation_targetAtFixation,jsons/VE125_randls_66_rotated.json,http://54.235.29.9/FacialAge/BNav_EC2/DepthDuration/v2_depth_duration_MTurk/v2_DepthDuration_HTML.html#255,255,1366,768,1366,768,9-3-2022,10-29-39,121,depth_duration_stimuli/002678_2014-06-13_16-15-32_094959634447_rgbf000151-resize_6/002678_2014-06-13_16-15-32_094959634447_rgbf000151-resize_6-target.png,125,2.1830000000000003,4,3254,104,feet,jsons/VE125_randls_66_rotated.json,604915,1005357,30,Woman
121,784703,DepthScenes,duration_manipulation_targetAtFixation,jsons/VE125_randls_66_rotated.json,http://54.235.29.9/FacialAge/BNav_EC2/DepthDuration/v2_depth_duration_MTurk/v2_DepthDuration_HTML.html#255,255,1366,768,1366,768,9-3-2022,10-29-39,122,depth_duration_stimuli/000368_2014-06-09_15-53-01_260595134347_rgbf000155-resize_2/000368_2014-06-09_15-53-01_260595134347_rgbf000155-resize_2-target.png,125,2.4859999999999998,2,2497,126,feet,jsons/VE125_randls_66_rotated.json,604915,1005357,30,Woman
122,784703,DepthScenes,duration_manipulation_targetAtFixation,jsons/VE125_randls_66_rotated.json,http://54.235.29.9/FacialAge/BNav_EC2/DepthDuration/v2_depth_duration_MTurk/v2_DepthDuration_HTML.html#255,255,1366,768,1366,768,9-3-2022,10-29-39,123,depth_duration_stimuli/002758_2014-06-22_19-11-20_094959634447_rgbf000128-resize_1/002758_2014-06-22_19-11-20_094959634447_rgbf000128-resize_1-target.png,125,2.555,3,3220,115,feet,jsons/VE125_randls_66_rotated.json,604915,1005357,30,Woman
123,784703,DepthScenes,duration_manipulation_targetAtFixation,jsons/VE125_randls_66_rotated.json,http://54.235.29.9/FacialAge/BNav_EC2/DepthDuration/v2_depth_duration_MTurk/v2_DepthDuration_HTML.html#255,255,1366,768,1366,768,9-3-2022,10-29-39,124,depth_duration_stimuli/002630_2014-06-24_14-47-50_094959634447_rgbf000055-resize_1/002630_2014-06-24_14-47-50_094959634447_rgbf000055-resize_1-target.png,125,3.0095,5,3465,142,feet,jsons/VE125_randls_66_rotated.json,604915,1005357,30,Woman
124,784703,DepthScenes,duration_manipulation_targetAtFixation,jsons/VE125_randls_66_rotated.json,http://54.235.29.9/FacialAge/BNav_EC2/DepthDuration/v2_depth_duration_MTurk/v2_DepthDuration_HTML.html#255,255,1366,768,1366,768,9-3-2022,10-29-39,125,depth_duration_stimuli/002444_2014-06-28_20-32-08_260595134347_rgbf000027-resize_0/002444_2014-06-28_20-32-08_260595134347_rgbf000027-resize_0-target.png,125,4.388999999999999,4,4036,116,feet,jsons/VE125_randls_66_rotated.json,604915,1005357,30,Woman
125,784703,DepthScenes,duration_manipulation_targetAtFixation,jsons/VE125_randls_66_rotated.json,http://54.235.29.9/FacialAge/BNav_EC2/DepthDuration/v2_depth_duration_MTurk/v2_DepthDuration_HTML.html#255,255,1366,768,1366,768,9-3-2022,10-29-39,126,depth_duration_stimuli/000436_2014-06-09_22-25-11_260595134347_rgbf000137-resize_1/000436_2014-06-09_22-25-11_260595134347_rgbf000137-resize_1-target.png,125,4.0705,0,3099,124,feet,jsons/VE125_randls_66_rotated.json,604915,1005357,30,Woman
126,784703,DepthScenes,duration_manipulation_targetAtFixation,jsons/VE125_randls_66_rotated.json,http://54.235.29.9/FacialAge/BNav_EC2/DepthDuration/v2_depth_duration_MTurk/v2_DepthDuration_HTML.html#255,255,1366,768,1366,768,9-3-2022,10-29-39,127,depth_duration_stimuli/001100_2014-06-15_17-46-26_260595134347_rgbf000225-resize_2/001100_2014-06-15_17-46-26_260595134347_rgbf000225-resize_2-target.png,125,2.24,1,2886,125,feet,jsons/VE125_randls_66_rotated.json,604915,1005357,30,Woman
127,784703,DepthScenes,duration_manipulation_targetAtFixation,jsons/VE125_randls_66_rotated.json,http://54.235.29.9/FacialAge/BNav_EC2/DepthDuration/v2_depth_duration_MTurk/v2_DepthDuration_HTML.html#255,255,1366,768,1366,768,9-3-2022,10-29-39,128,depth_duration_stimuli/002784_2014-06-22_19-26-30_094959634447_rgbf000083-resize_3/002784_2014-06-22_19-26-30_094959634447_rgbf000083-resize_3-target.png,125,1.8046666666667,0,2713,125,feet,jsons/VE125_randls_66_rotated.json,604915,1005357,30,Woman
128,784703,DepthScenes,duration_manipulation_targetAtFixation,jsons/VE125_randls_66_rotated.json,http://54.235.29.9/FacialAge/BNav_EC2/DepthDuration/v2_depth_duration_MTurk/v2_DepthDuration_HTML.html#255,255,1366,768,1366,768,9-3-2022,10-29-39,129,depth_duration_stimuli/001828_2014-06-26_21-40-03_260595134347_rgbf000024-resize_0/001828_2014-06-26_21-40-03_260595134347_rgbf000024-resize_0-target.png,125,4.8260000000000005,3,2679,129,feet,jsons/VE125_randls_66_rotated.json,604915,1005357,30,Woman
129,784703,DepthScenes,duration_manipulation_targetAtFixation,jsons/VE125_randls_66_rotated.json,http://54.235.29.9/FacialAge/BNav_EC2/DepthDuration/v2_depth_duration_MTurk/v2_DepthDuration_HTML.html#255,255,1366,768,1366,768,9-3-2022,10-29-39,130,depth_duration_stimuli/000009_2014-05-26_14-32-05_260595134347_rgbf000034-resize_3/000009_2014-05-26_14-32-05_260595134347_rgbf000034-resize_3-target.png,125,3.8715,4,2812,133,feet,jsons/VE125_randls_66_rotated.json,604915,1005357,30,Woman
130,784703,DepthScenes,duration_manipulation_targetAtFixation,jsons/VE125_randls_66_rotated.json,http://54.235.29.9/FacialAge/BNav_EC2/DepthDuration/v2_depth_duration_MTurk/v2_DepthDuration_HTML.html#255,255,1366,768,1366,768,9-3-2022,10-29-39,131,depth_duration_stimuli/002545_2014-06-24_13-38-53_094959634447_rgbf000080-resize_4/002545_2014-06-24_13-38-53_094959634447_rgbf000080-resize_4-target.png,125,1.9205,2,2530,122,feet,jsons/VE125_randls_66_rotated.json,604915,1005357,30,Woman
131,784703,DepthScenes,duration_manipulation_targetAtFixation,jsons/VE125_randls_66_rotated.json,http://54.235.29.9/FacialAge/BNav_EC2/DepthDuration/v2_depth_duration_MTurk/v2_DepthDuration_HTML.html#255,255,1366,768,1366,768,9-3-2022,10-29-39,132,depth_duration_stimuli/001092_2014-06-15_17-34-58_260595134347_rgbf000171-resize_3/001092_2014-06-15_17-34-58_260595134347_rgbf000171-resize_3-target.png,125,2.6935,0,3739,124,feet,jsons/VE125_randls_66_rotated.json,604915,1005357,30,Woman
132,784703,DepthScenes,duration_manipulation_targetAtFixation,jsons/VE125_randls_66_rotated.json,http://54.235.29.9/FacialAge/BNav_EC2/DepthDuration/v2_depth_duration_MTurk/v2_DepthDuration_HTML.html#255,255,1366,768,1366,768,9-3-2022,10-29-39,133,depth_duration_stimuli/000137_2014-05-20_17-04-49_260595134347_rgbf000120-resize_1/000137_2014-05-20_17-04-49_260595134347_rgbf000120-resize_1-target.png,125,3.786,4,2827,124,feet,jsons/VE125_randls_66_rotated.json,604915,1005357,30,Woman
133,784703,DepthScenes,duration_manipulation_targetAtFixation,jsons/VE125_randls_66_rotated.json,http://54.235.29.9/FacialAge/BNav_EC2/DepthDuration/v2_depth_duration_MTurk/v2_DepthDuration_HTML.html#255,255,1366,768,1366,768,9-3-2022,10-29-39,134,depth_duration_stimuli/000736_2014-06-08_18-24-15_260595134347_rgbf000206-resize_3/000736_2014-06-08_18-24-15_260595134347_rgbf000206-resize_3-target.png,125,3.515,2,2896,128,feet,jsons/VE125_randls_66_rotated.json,604915,1005357,30,Woman
134,784703,DepthScenes,duration_manipulation_targetAtFixation,jsons/VE125_randls_66_rotated.json,http://54.235.29.9/FacialAge/BNav_EC2/DepthDuration/v2_depth_duration_MTurk/v2_DepthDuration_HTML.html#255,255,1366,768,1366,768,9-3-2022,10-29-39,135,depth_duration_stimuli/000375_2014-06-08_11-17-29_260595134347_rgbf000133-resize_2/000375_2014-06-08_11-17-29_260595134347_rgbf000133-resize-original.jpg,125,4.718,0,3146,118,feet,jsons/VE125_randls_66_rotated.json,604915,1005357,30,Woman
135,784703,DepthScenes,duration_manipulation_targetAtFixation,jsons/VE125_randls_66_rotated.json,http://54.235.29.9/FacialAge/BNav_EC2/DepthDuration/v2_depth_duration_MTurk/v2_DepthDuration_HTML.html#255,255,1366,768,1366,768,9-3-2022,10-29-39,136,depth_duration_stimuli/000749_2014-06-08_21-55-06_260595134347_rgbf000070-resize_2/000749_2014-06-08_21-55-06_260595134347_rgbf000070-resize_2-target.png,125,2.331,1,2756,169,feet,jsons/VE125_randls_66_rotated.json,604915,1005357,30,Woman
136,784703,DepthScenes,duration_manipulation_targetAtFixation,jsons/VE125_randls_66_rotated.json,http://54.235.29.9/FacialAge/BNav_EC2/DepthDuration/v2_depth_duration_MTurk/v2_DepthDuration_HTML.html#255,255,1366,768,1366,768,9-3-2022,10-29-39,137,depth_duration_stimuli/002788_2014-06-22_19-36-03_094959634447_rgbf000088-resize_2/002788_2014-06-22_19-36-03_094959634447_rgbf000088-resize_2-target.png,125,1.6465,0,2738,128,feet,jsons/VE125_randls_66_rotated.json,604915,1005357,30,Woman
137,784703,DepthScenes,duration_manipulation_targetAtFixation,jsons/VE125_randls_66_rotated.json,http://54.235.29.9/FacialAge/BNav_EC2/DepthDuration/v2_depth_duration_MTurk/v2_DepthDuration_HTML.html#255,255,1366,768,1366,768,9-3-2022,10-29-39,138,depth_duration_stimuli/000483_2014-06-09_20-41-45_260595134347_rgbf000116-resize_4/000483_2014-06-09_20-41-45_260595134347_rgbf000116-resize_4-target.png,125,1.337,2,3494,125,feet,jsons/VE125_randls_66_rotated.json,604915,1005357,30,Woman
138,784703,DepthScenes,duration_manipulation_targetAtFixation,jsons/VE125_randls_66_rotated.json,http://54.235.29.9/FacialAge/BNav_EC2/DepthDuration/v2_depth_duration_MTurk/v2_DepthDuration_HTML.html#255,255,1366,768,1366,768,9-3-2022,10-29-39,139,depth_duration_stimuli/000469_2014-06-09_19-42-10_260595134347_rgbf000081-resize_1/000469_2014-06-09_19-42-10_260595134347_rgbf000081-resize_1-target.png,125,1.652,3,4212,120,feet,jsons/VE125_randls_66_rotated.json,604915,1005357,30,Woman
139,784703,DepthScenes,duration_manipulation_targetAtFixation,jsons/VE125_randls_66_rotated.json,http://54.235.29.9/FacialAge/BNav_EC2/DepthDuration/v2_depth_duration_MTurk/v2_DepthDuration_HTML.html#255,255,1366,768,1366,768,9-3-2022,10-29-39,140,depth_duration_stimuli/002568_2014-06-24_13-59-21_094959634447_rgbf000062-resize_4/002568_2014-06-24_13-59-21_094959634447_rgbf000062-resize_4-target.png,125,3.015,2,2657,119,feet,jsons/VE125_randls_66_rotated.json,604915,1005357,30,Woman
140,784703,DepthScenes,duration_manipulation_targetAtFixation,jsons/VE125_randls_66_rotated.json,http://54.235.29.9/FacialAge/BNav_EC2/DepthDuration/v2_depth_duration_MTurk/v2_DepthDuration_HTML.html#255,255,1366,768,1366,768,9-3-2022,10-29-39,141,depth_duration_stimuli/003492_2014-05-21_15-50-55_094959634447_rgbf000828-resize_1/003492_2014-05-21_15-50-55_094959634447_rgbf000828-resize_1-target.png,125,4.06875,0,3691,123,feet,jsons/VE125_randls_66_rotated.json,604915,1005357,30,Woman
141,784703,DepthScenes,duration_manipulation_targetAtFixation,jsons/VE125_randls_66_rotated.json,http://54.235.29.9/FacialAge/BNav_EC2/DepthDuration/v2_depth_duration_MTurk/v2_DepthDuration_HTML.html#255,255,1366,768,1366,768,9-3-2022,10-29-39,142,depth_duration_stimuli/001584_2014-06-20_11-07-43_260595134347_rgbf000002-resize_1/001584_2014-06-20_11-07-43_260595134347_rgbf000002-resize_1-target.png,125,3.53,3,3407,133,feet,jsons/VE125_randls_66_rotated.json,604915,1005357,30,Woman
142,784703,DepthScenes,duration_manipulation_targetAtFixation,jsons/VE125_randls_66_rotated.json,http://54.235.29.9/FacialAge/BNav_EC2/DepthDuration/v2_depth_duration_MTurk/v2_DepthDuration_HTML.html#255,255,1366,768,1366,768,9-3-2022,10-29-39,143,depth_duration_stimuli/003621_2014-05-23_18-06-08_094959634447_rgbf000101-resize_1/003621_2014-05-23_18-06-08_094959634447_rgbf000101-resize_1-target.png,125,3.9835,3,2674,124,feet,jsons/VE125_randls_66_rotated.json,604915,1005357,30,Woman
143,784703,DepthScenes,duration_manipulation_targetAtFixation,jsons/VE125_randls_66_rotated.json,http://54.235.29.9/FacialAge/BNav_EC2/DepthDuration/v2_depth_duration_MTurk/v2_DepthDuration_HTML.html#255,255,1366,768,1366,768,9-3-2022,10-29-39,144,depth_duration_stimuli/000635_2014-06-08_16-38-42_260595134347_rgbf000106-resize_1/000635_2014-06-08_16-38-42_260595134347_rgbf000106-resize_1-target.png,125,2.074,2,2464,129,feet,jsons/VE125_randls_66_rotated.json,604915,1005357,30,Woman
144,784703,DepthScenes,duration_manipulation_targetAtFixation,jsons/VE125_randls_66_rotated.json,http://54.235.29.9/FacialAge/BNav_EC2/DepthDuration/v2_depth_duration_MTurk/v2_DepthDuration_HTML.html#255,255,1366,768,1366,768,9-3-2022,10-29-39,145,depth_duration_stimuli/002279_2014-06-28_18-55-32_260595134347_rgbf000040-resize_5/002279_2014-06-28_18-55-32_260595134347_rgbf000040-resize_5-target.png,125,1.5043333333333,3,1971,123,feet,jsons/VE125_randls_66_rotated.json,604915,1005357,30,Woman
145,784703,DepthScenes,duration_manipulation_targetAtFixation,jsons/VE125_randls_66_rotated.json,http://54.235.29.9/FacialAge/BNav_EC2/DepthDuration/v2_depth_duration_MTurk/v2_DepthDuration_HTML.html#255,255,1366,768,1366,768,9-3-2022,10-29-39,146,depth_duration_stimuli/002467_2014-06-28_20-38-07_260595134347_rgbf000026-resize_2/002467_2014-06-28_20-38-07_260595134347_rgbf000026-resize_2-target.png,125,4.742,4,3942,125,feet,jsons/VE125_randls_66_rotated.json,604915,1005357,30,Woman
146,784703,DepthScenes,duration_manipulation_targetAtFixation,jsons/VE125_randls_66_rotated.json,http://54.235.29.9/FacialAge/BNav_EC2/DepthDuration/v2_depth_duration_MTurk/v2_DepthDuration_HTML.html#255,255,1366,768,1366,768,9-3-2022,10-29-39,147,depth_duration_stimuli/002570_2014-06-24_13-59-54_094959634447_rgbf000059-resize_0/002570_2014-06-24_13-59-54_094959634447_rgbf000059-resize_0-target.png,125,4.037,3,3441,124,feet,jsons/VE125_randls_66_rotated.json,604915,1005357,30,Woman
147,784703,DepthScenes,duration_manipulation_targetAtFixation,jsons/VE125_randls_66_rotated.json,http://54.235.29.9/FacialAge/BNav_EC2/DepthDuration/v2_depth_duration_MTurk/v2_DepthDuration_HTML.html#255,255,1366,768,1366,768,9-3-2022,10-29-39,148,depth_duration_stimuli/001571_2014-06-20_17-21-32_260595134347_rgbf000089-resize_1/001571_2014-06-20_17-21-32_260595134347_rgbf000089-resize_1-target.png,125,1.86,2,2128,124,feet,jsons/VE125_randls_66_rotated.json,604915,1005357,30,Woman
148,784703,DepthScenes,duration_manipulation_targetAtFixation,jsons/VE125_randls_66_rotated.json,http://54.235.29.9/FacialAge/BNav_EC2/DepthDuration/v2_depth_duration_MTurk/v2_DepthDuration_HTML.html#255,255,1366,768,1366,768,9-3-2022,10-29-39,149,depth_duration_stimuli/002272_2014-06-28_18-53-56_260595134347_rgbf000067-resize_2/002272_2014-06-28_18-53-56_260595134347_rgbf000067-resize_2-target.png,125,1.138,3,2076,125,feet,jsons/VE125_randls_66_rotated.json,604915,1005357,30,Woman
149,784703,DepthScenes,duration_manipulation_targetAtFixation,jsons/VE125_randls_66_rotated.json,http://54.235.29.9/FacialAge/BNav_EC2/DepthDuration/v2_depth_duration_MTurk/v2_DepthDuration_HTML.html#255,255,1366,768,1366,768,9-3-2022,10-29-39,150,depth_duration_stimuli/002805_2014-06-22_19-54-03_094959634447_rgbf000079-resize_1/002805_2014-06-22_19-54-03_094959634447_rgbf000079-resize_1-target.png,125,3.1439999999999997,4,3060,123,feet,jsons/VE125_randls_66_rotated.json,604915,1005357,30,Woman
150,784703,DepthScenes,duration_manipulation_targetAtFixation,jsons/VE125_randls_66_rotated.json,http://54.235.29.9/FacialAge/BNav_EC2/DepthDuration/v2_depth_duration_MTurk/v2_DepthDuration_HTML.html#255,255,1366,768,1366,768,9-3-2022,10-29-39,151,depth_duration_stimuli/000906_2014-06-08_13-35-43_260595134347_rgbf000155-resize_1/000906_2014-06-08_13-35-43_260595134347_rgbf000155-resize_1-target.png,125,2.8489999999999998,5,3406,124,feet,jsons/VE125_randls_66_rotated.json,604915,1005357,30,Woman
151,784703,DepthScenes,duration_manipulation_targetAtFixation,jsons/VE125_randls_66_rotated.json,http://54.235.29.9/FacialAge/BNav_EC2/DepthDuration/v2_depth_duration_MTurk/v2_DepthDuration_HTML.html#255,255,1366,768,1366,768,9-3-2022,10-29-39,152,depth_duration_stimuli/000569_2014-06-09_22-51-47_260595134347_rgbf000141-resize_3/000569_2014-06-09_22-51-47_260595134347_rgbf000141-resize-original.jpg,125,4.512,0,2818,124,feet,jsons/VE125_randls_66_rotated.json,604915,1005357,30,Woman
152,784703,DepthScenes,duration_manipulation_targetAtFixation,jsons/VE125_randls_66_rotated.json,http://54.235.29.9/FacialAge/BNav_EC2/DepthDuration/v2_depth_duration_MTurk/v2_DepthDuration_HTML.html#255,255,1366,768,1366,768,9-3-2022,10-29-39,153,depth_duration_stimuli/000502_2014-06-08_23-02-32_260595134347_rgbf000063-resize_4/000502_2014-06-08_23-02-32_260595134347_rgbf000063-resize_4-target.png,125,2.431,4,2679,127,feet,jsons/VE125_randls_66_rotated.json,604915,1005357,30,Woman
153,784703,DepthScenes,duration_manipulation_targetAtFixation,jsons/VE125_randls_66_rotated.json,http://54.235.29.9/FacialAge/BNav_EC2/DepthDuration/v2_depth_duration_MTurk/v2_DepthDuration_HTML.html#255,255,1366,768,1366,768,9-3-2022,10-29-39,154,depth_duration_stimuli/001199_2014-06-17_16-03-48_260595134347_rgbf000077-resize_0/001199_2014-06-17_16-03-48_260595134347_rgbf000077-resize_0-target.png,125,3.4375,3,2869,126,feet,jsons/VE125_randls_66_rotated.json,604915,1005357,30,Woman
154,784703,DepthScenes,duration_manipulation_targetAtFixation,jsons/VE125_randls_66_rotated.json,http://54.235.29.9/FacialAge/BNav_EC2/DepthDuration/v2_depth_duration_MTurk/v2_DepthDuration_HTML.html#255,255,1366,768,1366,768,9-3-2022,10-29-39,155,depth_duration_stimuli/002340_2014-06-28_20-05-46_260595134347_rgbf000113-resize_0/002340_2014-06-28_20-05-46_260595134347_rgbf000113-resize_0-target.png,125,2.4735,4,2644,125,feet,jsons/VE125_randls_66_rotated.json,604915,1005357,30,Woman
155,784703,DepthScenes,duration_manipulation_targetAtFixation,jsons/VE125_randls_66_rotated.json,http://54.235.29.9/FacialAge/BNav_EC2/DepthDuration/v2_depth_duration_MTurk/v2_DepthDuration_HTML.html#255,255,1366,768,1366,768,9-3-2022,10-29-39,156,depth_duration_stimuli/001016_2014-06-09_16-16-10_260595134347_rgbf000112-resize_5/001016_2014-06-09_16-16-10_260595134347_rgbf000112-resize_5-target.png,125,1.6565,2,2743,129,feet,jsons/VE125_randls_66_rotated.json,604915,1005357,30,Woman
156,784703,DepthScenes,duration_manipulation_targetAtFixation,jsons/VE125_randls_66_rotated.json,http://54.235.29.9/FacialAge/BNav_EC2/DepthDuration/v2_depth_duration_MTurk/v2_DepthDuration_HTML.html#255,255,1366,768,1366,768,9-3-2022,10-29-39,157,depth_duration_stimuli/002995_2014-06-15_12-31-26_094959634447_rgbf000150-resize_1/002995_2014-06-15_12-31-26_094959634447_rgbf000150-resize_1-target.png,125,3.8360000000000003,3,2706,124,feet,jsons/VE125_randls_66_rotated.json,604915,1005357,30,Woman
157,784703,DepthScenes,duration_manipulation_targetAtFixation,jsons/VE125_randls_66_rotated.json,http://54.235.29.9/FacialAge/BNav_EC2/DepthDuration/v2_depth_duration_MTurk/v2_DepthDuration_HTML.html#255,255,1366,768,1366,768,9-3-2022,10-29-39,158,depth_duration_stimuli/002748_2014-06-22_19-07-22_094959634447_rgbf000078-resize_1/002748_2014-06-22_19-07-22_094959634447_rgbf000078-resize_1-target.png,125,4.6705,7,2889,129,feet,jsons/VE125_randls_66_rotated.json,604915,1005357,30,Woman
158,784703,DepthScenes,duration_manipulation_targetAtFixation,jsons/VE125_randls_66_rotated.json,http://54.235.29.9/FacialAge/BNav_EC2/DepthDuration/v2_depth_duration_MTurk/v2_DepthDuration_HTML.html#255,255,1366,768,1366,768,9-3-2022,10-29-39,159,depth_duration_stimuli/002199_2014-06-28_18-33-56_260595134347_rgbf000074-resize_0/002199_2014-06-28_18-33-56_260595134347_rgbf000074-resize_0-target.png,125,1.996,1,2813,97,feet,jsons/VE125_randls_66_rotated.json,604915,1005357,30,Woman
159,784703,DepthScenes,duration_manipulation_targetAtFixation,jsons/VE125_randls_66_rotated.json,http://54.235.29.9/FacialAge/BNav_EC2/DepthDuration/v2_depth_duration_MTurk/v2_DepthDuration_HTML.html#255,255,1366,768,1366,768,9-3-2022,10-29-39,160,depth_duration_stimuli/001056_2014-06-08_18-46-44_260595134347_rgbf000068-resize_0/001056_2014-06-08_18-46-44_260595134347_rgbf000068-resize_0-target.png,125,2.6625,3,5835,123,feet,jsons/VE125_randls_66_rotated.json,604915,1005357,30,Woman
160,784703,DepthScenes,duration_manipulation_targetAtFixation,jsons/VE125_randls_66_rotated.json,http://54.235.29.9/FacialAge/BNav_EC2/DepthDuration/v2_depth_duration_MTurk/v2_DepthDuration_HTML.html#255,255,1366,768,1366,768,9-3-2022,10-29-39,161,depth_duration_stimuli/001136_2014-06-17_15-19-41_260595134347_rgbf000076-resize_3/001136_2014-06-17_15-19-41_260595134347_rgbf000076-resize_3-target.png,125,1.8655,3,4463,120,feet,jsons/VE125_randls_66_rotated.json,604915,1005357,30,Woman
161,784703,DepthScenes,duration_manipulation_targetAtFixation,jsons/VE125_randls_66_rotated.json,http://54.235.29.9/FacialAge/BNav_EC2/DepthDuration/v2_depth_duration_MTurk/v2_DepthDuration_HTML.html#255,255,1366,768,1366,768,9-3-2022,10-29-39,162,depth_duration_stimuli/001164_2014-06-17_15-35-46_260595134347_rgbf000085-resize_3/001164_2014-06-17_15-35-46_260595134347_rgbf000085-resize_3-target.png,125,2.354,2,2748,125,feet,jsons/VE125_randls_66_rotated.json,604915,1005357,30,Woman
162,784703,DepthScenes,duration_manipulation_targetAtFixation,jsons/VE125_randls_66_rotated.json,http://54.235.29.9/FacialAge/BNav_EC2/DepthDuration/v2_depth_duration_MTurk/v2_DepthDuration_HTML.html#255,255,1366,768,1366,768,9-3-2022,10-29-39,163,depth_duration_stimuli/001094_2014-06-15_17-36-00_260595134347_rgbf000205-resize_0/001094_2014-06-15_17-36-00_260595134347_rgbf000205-resize_0-target.png,125,4.2175,7,3068,125,feet,jsons/VE125_randls_66_rotated.json,604915,1005357,30,Woman
163,784703,DepthScenes,duration_manipulation_targetAtFixation,jsons/VE125_randls_66_rotated.json,http://54.235.29.9/FacialAge/BNav_EC2/DepthDuration/v2_depth_duration_MTurk/v2_DepthDuration_HTML.html#255,255,1366,768,1366,768,9-3-2022,10-29-39,164,depth_duration_stimuli/000692_2014-06-08_13-09-42_260595134347_rgbf000199-resize_2/000692_2014-06-08_13-09-42_260595134347_rgbf000199-resize_2-target.png,125,3.661,6,2943,125,feet,jsons/VE125_randls_66_rotated.json,604915,1005357,30,Woman
