,subjID,experimentName,versionName,sequenceName,url,selected_row,windowWidth,windowHeight,screenWidth,screenHeight,startDate,startTime,trial,stimulus,duration,actual_depth,depth_estimate,trial_RT,log_sceneDuration,unitSelection,seq_filepath,experimentTime,totalTime,age,gender
0,786056,DepthScenes,duration_manipulation_targetAtFixation,jsons/v1_VE1000_randls_7_rotated.json,http://54.235.29.9/FacialAge/BNav_EC2/DepthDuration/v2_depth_duration_MTurk/v2_DepthDuration_HTML.html#79,79,1024,625,1024,768,8-22-2022,8-18-31,1,depth_duration_stimuli/000502_2014-06-08_23-02-32_260595134347_rgbf000063-resize_4/000502_2014-06-08_23-02-32_260595134347_rgbf000063-resize_4-target.png,1000,2.431,1,4173,1084,meters,jsons/v1_VE1000_randls_7_rotated.json,621242,709280,30,Woman
1,786056,DepthScenes,duration_manipulation_targetAtFixation,jsons/v1_VE1000_randls_7_rotated.json,http://54.235.29.9/FacialAge/BNav_EC2/DepthDuration/v2_depth_duration_MTurk/v2_DepthDuration_HTML.html#79,79,1024,625,1024,768,8-22-2022,8-18-31,2,depth_duration_stimuli/001199_2014-06-17_16-03-48_260595134347_rgbf000077-resize_0/001199_2014-06-17_16-03-48_260595134347_rgbf000077-resize_0-target.png,1000,3.4375,2,2689,1007,meters,jsons/v1_VE1000_randls_7_rotated.json,621242,709280,30,Woman
2,786056,DepthScenes,duration_manipulation_targetAtFixation,jsons/v1_VE1000_randls_7_rotated.json,http://54.235.29.9/FacialAge/BNav_EC2/DepthDuration/v2_depth_duration_MTurk/v2_DepthDuration_HTML.html#79,79,1024,625,1024,768,8-22-2022,8-18-31,3,depth_duration_stimuli/000943_2014-06-09_19-31-07_260595134347_rgbf000128-resize_1/000943_2014-06-09_19-31-07_260595134347_rgbf000128-resize_1-target.png,1000,1.9765,2,2794,1000,meters,jsons/v1_VE1000_randls_7_rotated.json,621242,709280,30,Woman
3,786056,DepthScenes,duration_manipulation_targetAtFixation,jsons/v1_VE1000_randls_7_rotated.json,http://54.235.29.9/FacialAge/BNav_EC2/DepthDuration/v2_depth_duration_MTurk/v2_DepthDuration_HTML.html#79,79,1024,625,1024,768,8-22-2022,8-18-31,4,depth_duration_stimuli/003070_2014-06-15_14-58-27_094959634447_rgbf000150-resize_3/003070_2014-06-15_14-58-27_094959634447_rgbf000150-resize_3-target.png,1000,2.9415,2,5040,1009,meters,jsons/v1_VE1000_randls_7_rotated.json,621242,709280,30,Woman
4,786056,DepthScenes,duration_manipulation_targetAtFixation,jsons/v1_VE1000_randls_7_rotated.json,http://54.235.29.9/FacialAge/BNav_EC2/DepthDuration/v2_depth_duration_MTurk/v2_DepthDuration_HTML.html#79,79,1024,625,1024,768,8-22-2022,8-18-31,5,depth_duration_stimuli/002639_2014-06-24_14-51-37_094959634447_rgbf000074-resize_4/002639_2014-06-24_14-51-37_094959634447_rgbf000074-resize_4-target.png,1000,4.0375,2,2745,1021,meters,jsons/v1_VE1000_randls_7_rotated.json,621242,709280,30,Woman
5,786056,DepthScenes,duration_manipulation_targetAtFixation,jsons/v1_VE1000_randls_7_rotated.json,http://54.235.29.9/FacialAge/BNav_EC2/DepthDuration/v2_depth_duration_MTurk/v2_DepthDuration_HTML.html#79,79,1024,625,1024,768,8-22-2022,8-18-31,6,depth_duration_stimuli/003292_2014-05-14_21-53-49_094959634447_rgbf000100-resize_2/003292_2014-05-14_21-53-49_094959634447_rgbf000100-resize_2-target.png,1000,3.4815,2,2496,995,meters,jsons/v1_VE1000_randls_7_rotated.json,621242,709280,30,Woman
6,786056,DepthScenes,duration_manipulation_targetAtFixation,jsons/v1_VE1000_randls_7_rotated.json,http://54.235.29.9/FacialAge/BNav_EC2/DepthDuration/v2_depth_duration_MTurk/v2_DepthDuration_HTML.html#79,79,1024,625,1024,768,8-22-2022,8-18-31,7,depth_duration_stimuli/000191_2014-05-12_17-07-38_260595134347_rgbf000199-resize_0/000191_2014-05-12_17-07-38_260595134347_rgbf000199-resize_0-target.png,1000,3.7995,2,2508,983,meters,jsons/v1_VE1000_randls_7_rotated.json,621242,709280,30,Woman
7,786056,DepthScenes,duration_manipulation_targetAtFixation,jsons/v1_VE1000_randls_7_rotated.json,http://54.235.29.9/FacialAge/BNav_EC2/DepthDuration/v2_depth_duration_MTurk/v2_DepthDuration_HTML.html#79,79,1024,625,1024,768,8-22-2022,8-18-31,8,depth_duration_stimuli/000493_2014-06-09_21-01-18_260595134347_rgbf000196-resize_3/000493_2014-06-09_21-01-18_260595134347_rgbf000196-resize_3-target.png,1000,3.44,2,3583,985,meters,jsons/v1_VE1000_randls_7_rotated.json,621242,709280,30,Woman
8,786056,DepthScenes,duration_manipulation_targetAtFixation,jsons/v1_VE1000_randls_7_rotated.json,http://54.235.29.9/FacialAge/BNav_EC2/DepthDuration/v2_depth_duration_MTurk/v2_DepthDuration_HTML.html#79,79,1024,625,1024,768,8-22-2022,8-18-31,9,depth_duration_stimuli/000483_2014-06-09_20-41-45_260595134347_rgbf000116-resize_4/000483_2014-06-09_20-41-45_260595134347_rgbf000116-resize_4-target.png,1000,1.337,2,2810,993,meters,jsons/v1_VE1000_randls_7_rotated.json,621242,709280,30,Woman
9,786056,DepthScenes,duration_manipulation_targetAtFixation,jsons/v1_VE1000_randls_7_rotated.json,http://54.235.29.9/FacialAge/BNav_EC2/DepthDuration/v2_depth_duration_MTurk/v2_DepthDuration_HTML.html#79,79,1024,625,1024,768,8-22-2022,8-18-31,10,depth_duration_stimuli/000469_2014-06-09_19-42-10_260595134347_rgbf000081-resize_1/000469_2014-06-09_19-42-10_260595134347_rgbf000081-resize_1-target.png,1000,1.652,2,3614,1058,meters,jsons/v1_VE1000_randls_7_rotated.json,621242,709280,30,Woman
10,786056,DepthScenes,duration_manipulation_targetAtFixation,jsons/v1_VE1000_randls_7_rotated.json,http://54.235.29.9/FacialAge/BNav_EC2/DepthDuration/v2_depth_duration_MTurk/v2_DepthDuration_HTML.html#79,79,1024,625,1024,768,8-22-2022,8-18-31,11,depth_duration_stimuli/003423_2014-05-21_10-23-26_094959634447_rgbf002665-resize_2/003423_2014-05-21_10-23-26_094959634447_rgbf002665-resize_2-target.png,1000,3.2575,2,2687,999,meters,jsons/v1_VE1000_randls_7_rotated.json,621242,709280,30,Woman
11,786056,DepthScenes,duration_manipulation_targetAtFixation,jsons/v1_VE1000_randls_7_rotated.json,http://54.235.29.9/FacialAge/BNav_EC2/DepthDuration/v2_depth_duration_MTurk/v2_DepthDuration_HTML.html#79,79,1024,625,1024,768,8-22-2022,8-18-31,12,depth_duration_stimuli/002905_2014-06-03_18-04-43_094959634447_rgbf000151-resize_2/002905_2014-06-03_18-04-43_094959634447_rgbf000151-resize_2-target.png,1000,2.0295,2,2668,1007,meters,jsons/v1_VE1000_randls_7_rotated.json,621242,709280,30,Woman
12,786056,DepthScenes,duration_manipulation_targetAtFixation,jsons/v1_VE1000_randls_7_rotated.json,http://54.235.29.9/FacialAge/BNav_EC2/DepthDuration/v2_depth_duration_MTurk/v2_DepthDuration_HTML.html#79,79,1024,625,1024,768,8-22-2022,8-18-31,13,depth_duration_stimuli/003081_2014-06-15_15-19-16_094959634447_rgbf000150-resize_1/003081_2014-06-15_15-19-16_094959634447_rgbf000150-resize_1-target.png,1000,3.9125,2,2606,998,meters,jsons/v1_VE1000_randls_7_rotated.json,621242,709280,30,Woman
13,786056,DepthScenes,duration_manipulation_targetAtFixation,jsons/v1_VE1000_randls_7_rotated.json,http://54.235.29.9/FacialAge/BNav_EC2/DepthDuration/v2_depth_duration_MTurk/v2_DepthDuration_HTML.html#79,79,1024,625,1024,768,8-22-2022,8-18-31,14,depth_duration_stimuli/001417_2014-06-19_16-25-36_260595134347_rgbf000115-resize_5/001417_2014-06-19_16-25-36_260595134347_rgbf000115-resize_5-target.png,1000,4.6255,2,2571,998,meters,jsons/v1_VE1000_randls_7_rotated.json,621242,709280,30,Woman
14,786056,DepthScenes,duration_manipulation_targetAtFixation,jsons/v1_VE1000_randls_7_rotated.json,http://54.235.29.9/FacialAge/BNav_EC2/DepthDuration/v2_depth_duration_MTurk/v2_DepthDuration_HTML.html#79,79,1024,625,1024,768,8-22-2022,8-18-31,15,depth_duration_stimuli/002657_2014-06-13_15-29-54_094959634447_rgbf000150-resize_1/002657_2014-06-13_15-29-54_094959634447_rgbf000150-resize_1-target.png,1000,4.919,3,2649,982,meters,jsons/v1_VE1000_randls_7_rotated.json,621242,709280,30,Woman
15,786056,DepthScenes,duration_manipulation_targetAtFixation,jsons/v1_VE1000_randls_7_rotated.json,http://54.235.29.9/FacialAge/BNav_EC2/DepthDuration/v2_depth_duration_MTurk/v2_DepthDuration_HTML.html#79,79,1024,625,1024,768,8-22-2022,8-18-31,16,depth_duration_stimuli/002375_2014-06-28_20-13-44_260595134347_rgbf000032-resize_1/002375_2014-06-28_20-13-44_260595134347_rgbf000032-resize_1-target.png,1000,4.0175,2,4126,993,meters,jsons/v1_VE1000_randls_7_rotated.json,621242,709280,30,Woman
16,786056,DepthScenes,duration_manipulation_targetAtFixation,jsons/v1_VE1000_randls_7_rotated.json,http://54.235.29.9/FacialAge/BNav_EC2/DepthDuration/v2_depth_duration_MTurk/v2_DepthDuration_HTML.html#79,79,1024,625,1024,768,8-22-2022,8-18-31,17,depth_duration_stimuli/002323_2014-06-28_20-01-54_260595134347_rgbf000051-resize_4/002323_2014-06-28_20-01-54_260595134347_rgbf000051-resize_4-target.png,1000,3.7310000000000003,2,2754,967,meters,jsons/v1_VE1000_randls_7_rotated.json,621242,709280,30,Woman
17,786056,DepthScenes,duration_manipulation_targetAtFixation,jsons/v1_VE1000_randls_7_rotated.json,http://54.235.29.9/FacialAge/BNav_EC2/DepthDuration/v2_depth_duration_MTurk/v2_DepthDuration_HTML.html#79,79,1024,625,1024,768,8-22-2022,8-18-31,18,depth_duration_stimuli/000917_2014-06-09_22-45-29_260595134347_rgbf000149-resize_3/000917_2014-06-09_22-45-29_260595134347_rgbf000149-resize_3-target.png,1000,4.1865,2,3006,999,meters,jsons/v1_VE1000_randls_7_rotated.json,621242,709280,30,Woman
18,786056,DepthScenes,duration_manipulation_targetAtFixation,jsons/v1_VE1000_randls_7_rotated.json,http://54.235.29.9/FacialAge/BNav_EC2/DepthDuration/v2_depth_duration_MTurk/v2_DepthDuration_HTML.html#79,79,1024,625,1024,768,8-22-2022,8-18-31,19,depth_duration_stimuli/001498_2014-06-19_17-45-14_260595134347_rgbf000129-resize_4/001498_2014-06-19_17-45-14_260595134347_rgbf000129-resize-original.jpg,1000,1.4075,2,2857,976,meters,jsons/v1_VE1000_randls_7_rotated.json,621242,709280,30,Woman
19,786056,DepthScenes,duration_manipulation_targetAtFixation,jsons/v1_VE1000_randls_7_rotated.json,http://54.235.29.9/FacialAge/BNav_EC2/DepthDuration/v2_depth_duration_MTurk/v2_DepthDuration_HTML.html#79,79,1024,625,1024,768,8-22-2022,8-18-31,20,depth_duration_stimuli/003338_2014-05-20_11-01-23_094959634447_rgbf000051-resize_6/003338_2014-05-20_11-01-23_094959634447_rgbf000051-resize_6-target.png,1000,1.693,2,2862,1047,meters,jsons/v1_VE1000_randls_7_rotated.json,621242,709280,30,Woman
20,786056,DepthScenes,duration_manipulation_targetAtFixation,jsons/v1_VE1000_randls_7_rotated.json,http://54.235.29.9/FacialAge/BNav_EC2/DepthDuration/v2_depth_duration_MTurk/v2_DepthDuration_HTML.html#79,79,1024,625,1024,768,8-22-2022,8-18-31,21,depth_duration_stimuli/002509_2014-06-24_13-19-22_094959634447_rgbf000077-resize_0/002509_2014-06-24_13-19-22_094959634447_rgbf000077-resize_0-target.png,1000,1.3065,3,2672,998,meters,jsons/v1_VE1000_randls_7_rotated.json,621242,709280,30,Woman
21,786056,DepthScenes,duration_manipulation_targetAtFixation,jsons/v1_VE1000_randls_7_rotated.json,http://54.235.29.9/FacialAge/BNav_EC2/DepthDuration/v2_depth_duration_MTurk/v2_DepthDuration_HTML.html#79,79,1024,625,1024,768,8-22-2022,8-18-31,22,depth_duration_stimuli/000103_2014-05-14_22-01-17_260595134347_rgbf000152-resize_5/000103_2014-05-14_22-01-17_260595134347_rgbf000152-resize_5-target.png,1000,1.993,2,2725,1005,meters,jsons/v1_VE1000_randls_7_rotated.json,621242,709280,30,Woman
22,786056,DepthScenes,duration_manipulation_targetAtFixation,jsons/v1_VE1000_randls_7_rotated.json,http://54.235.29.9/FacialAge/BNav_EC2/DepthDuration/v2_depth_duration_MTurk/v2_DepthDuration_HTML.html#79,79,1024,625,1024,768,8-22-2022,8-18-31,23,depth_duration_stimuli/001555_2014-06-20_17-12-10_260595134347_rgbf000065-resize_4/001555_2014-06-20_17-12-10_260595134347_rgbf000065-resize_4-target.png,1000,1.633,2,2612,468,meters,jsons/v1_VE1000_randls_7_rotated.json,621242,709280,30,Woman
23,786056,DepthScenes,duration_manipulation_targetAtFixation,jsons/v1_VE1000_randls_7_rotated.json,http://54.235.29.9/FacialAge/BNav_EC2/DepthDuration/v2_depth_duration_MTurk/v2_DepthDuration_HTML.html#79,79,1024,625,1024,768,8-22-2022,8-18-31,24,depth_duration_stimuli/003079_2014-06-15_15-18-20_094959634447_rgbf000152-resize_8/003079_2014-06-15_15-18-20_094959634447_rgbf000152-resize_8-target.png,1000,2.8775,2,2547,874,meters,jsons/v1_VE1000_randls_7_rotated.json,621242,709280,30,Woman
24,786056,DepthScenes,duration_manipulation_targetAtFixation,jsons/v1_VE1000_randls_7_rotated.json,http://54.235.29.9/FacialAge/BNav_EC2/DepthDuration/v2_depth_duration_MTurk/v2_DepthDuration_HTML.html#79,79,1024,625,1024,768,8-22-2022,8-18-31,25,depth_duration_stimuli/000506_2014-06-08_23-21-00_260595134347_rgbf000070-resize_7/000506_2014-06-08_23-21-00_260595134347_rgbf000070-resize_7-target.png,1000,4.0585,2,2693,991,meters,jsons/v1_VE1000_randls_7_rotated.json,621242,709280,30,Woman
25,786056,DepthScenes,duration_manipulation_targetAtFixation,jsons/v1_VE1000_randls_7_rotated.json,http://54.235.29.9/FacialAge/BNav_EC2/DepthDuration/v2_depth_duration_MTurk/v2_DepthDuration_HTML.html#79,79,1024,625,1024,768,8-22-2022,8-18-31,26,depth_duration_stimuli/002414_2014-06-28_20-24-58_260595134347_rgbf000067-resize_4/002414_2014-06-28_20-24-58_260595134347_rgbf000067-resize_4-target.png,1000,4.363,2,4530,995,meters,jsons/v1_VE1000_randls_7_rotated.json,621242,709280,30,Woman
26,786056,DepthScenes,duration_manipulation_targetAtFixation,jsons/v1_VE1000_randls_7_rotated.json,http://54.235.29.9/FacialAge/BNav_EC2/DepthDuration/v2_depth_duration_MTurk/v2_DepthDuration_HTML.html#79,79,1024,625,1024,768,8-22-2022,8-18-31,27,depth_duration_stimuli/000773_2014-06-08_22-24-54_260595134347_rgbf000093-resize_1/000773_2014-06-08_22-24-54_260595134347_rgbf000093-resize_1-target.png,1000,4.973,1,2821,952,meters,jsons/v1_VE1000_randls_7_rotated.json,621242,709280,30,Woman
27,786056,DepthScenes,duration_manipulation_targetAtFixation,jsons/v1_VE1000_randls_7_rotated.json,http://54.235.29.9/FacialAge/BNav_EC2/DepthDuration/v2_depth_duration_MTurk/v2_DepthDuration_HTML.html#79,79,1024,625,1024,768,8-22-2022,8-18-31,28,depth_duration_stimuli/000665_2014-06-09_20-42-35_260595134347_rgbf000110-resize_1/000665_2014-06-09_20-42-35_260595134347_rgbf000110-resize_1-target.png,1000,3.057,2,2518,1000,meters,jsons/v1_VE1000_randls_7_rotated.json,621242,709280,30,Woman
28,786056,DepthScenes,duration_manipulation_targetAtFixation,jsons/v1_VE1000_randls_7_rotated.json,http://54.235.29.9/FacialAge/BNav_EC2/DepthDuration/v2_depth_duration_MTurk/v2_DepthDuration_HTML.html#79,79,1024,625,1024,768,8-22-2022,8-18-31,29,depth_duration_stimuli/001150_2014-06-17_15-27-34_260595134347_rgbf000108-resize_2/001150_2014-06-17_15-27-34_260595134347_rgbf000108-resize_2-target.png,1000,4.0325,2,2454,1002,meters,jsons/v1_VE1000_randls_7_rotated.json,621242,709280,30,Woman
29,786056,DepthScenes,duration_manipulation_targetAtFixation,jsons/v1_VE1000_randls_7_rotated.json,http://54.235.29.9/FacialAge/BNav_EC2/DepthDuration/v2_depth_duration_MTurk/v2_DepthDuration_HTML.html#79,79,1024,625,1024,768,8-22-2022,8-18-31,30,depth_duration_stimuli/002072_2014-06-24_21-48-06_260595134347_rgbf000115-resize_0/002072_2014-06-24_21-48-06_260595134347_rgbf000115-resize-original.jpg,1000,4.702,2,2668,1134,meters,jsons/v1_VE1000_randls_7_rotated.json,621242,709280,30,Woman
30,786056,DepthScenes,duration_manipulation_targetAtFixation,jsons/v1_VE1000_randls_7_rotated.json,http://54.235.29.9/FacialAge/BNav_EC2/DepthDuration/v2_depth_duration_MTurk/v2_DepthDuration_HTML.html#79,79,1024,625,1024,768,8-22-2022,8-18-31,31,depth_duration_stimuli/000742_2014-06-08_18-48-09_260595134347_rgbf000164-resize_4/000742_2014-06-08_18-48-09_260595134347_rgbf000164-resize_4-target.png,1000,4.632,2,2476,973,meters,jsons/v1_VE1000_randls_7_rotated.json,621242,709280,30,Woman
31,786056,DepthScenes,duration_manipulation_targetAtFixation,jsons/v1_VE1000_randls_7_rotated.json,http://54.235.29.9/FacialAge/BNav_EC2/DepthDuration/v2_depth_duration_MTurk/v2_DepthDuration_HTML.html#79,79,1024,625,1024,768,8-22-2022,8-18-31,32,depth_duration_stimuli/001066_2014-06-08_22-03-20_260595134347_rgbf000066-resize_4/001066_2014-06-08_22-03-20_260595134347_rgbf000066-resize_4-target.png,1000,4.2330000000000005,2,2664,1082,meters,jsons/v1_VE1000_randls_7_rotated.json,621242,709280,30,Woman
32,786056,DepthScenes,duration_manipulation_targetAtFixation,jsons/v1_VE1000_randls_7_rotated.json,http://54.235.29.9/FacialAge/BNav_EC2/DepthDuration/v2_depth_duration_MTurk/v2_DepthDuration_HTML.html#79,79,1024,625,1024,768,8-22-2022,8-18-31,33,depth_duration_stimuli/000409_2014-06-04_19-23-33_260595134347_rgbf000067-resize_0/000409_2014-06-04_19-23-33_260595134347_rgbf000067-resize_0-target.png,1000,3.7335,3,2609,1005,meters,jsons/v1_VE1000_randls_7_rotated.json,621242,709280,30,Woman
33,786056,DepthScenes,duration_manipulation_targetAtFixation,jsons/v1_VE1000_randls_7_rotated.json,http://54.235.29.9/FacialAge/BNav_EC2/DepthDuration/v2_depth_duration_MTurk/v2_DepthDuration_HTML.html#79,79,1024,625,1024,768,8-22-2022,8-18-31,34,depth_duration_stimuli/002663_2014-06-13_15-50-26_094959634447_rgbf000075-resize_1/002663_2014-06-13_15-50-26_094959634447_rgbf000075-resize_1-target.png,1000,4.7495,2,2447,990,meters,jsons/v1_VE1000_randls_7_rotated.json,621242,709280,30,Woman
34,786056,DepthScenes,duration_manipulation_targetAtFixation,jsons/v1_VE1000_randls_7_rotated.json,http://54.235.29.9/FacialAge/BNav_EC2/DepthDuration/v2_depth_duration_MTurk/v2_DepthDuration_HTML.html#79,79,1024,625,1024,768,8-22-2022,8-18-31,35,depth_duration_stimuli/001392_2014-06-19_16-07-59_260595134347_rgbf000046-resize_1/001392_2014-06-19_16-07-59_260595134347_rgbf000046-resize_1-target.png,1000,4.135,2,2463,1001,meters,jsons/v1_VE1000_randls_7_rotated.json,621242,709280,30,Woman
35,786056,DepthScenes,duration_manipulation_targetAtFixation,jsons/v1_VE1000_randls_7_rotated.json,http://54.235.29.9/FacialAge/BNav_EC2/DepthDuration/v2_depth_duration_MTurk/v2_DepthDuration_HTML.html#79,79,1024,625,1024,768,8-22-2022,8-18-31,36,depth_duration_stimuli/001570_2014-06-20_17-21-09_260595134347_rgbf000135-resize_4/001570_2014-06-20_17-21-09_260595134347_rgbf000135-resize_4-target.png,1000,4.467,2,2766,1000,meters,jsons/v1_VE1000_randls_7_rotated.json,621242,709280,30,Woman
36,786056,DepthScenes,duration_manipulation_targetAtFixation,jsons/v1_VE1000_randls_7_rotated.json,http://54.235.29.9/FacialAge/BNav_EC2/DepthDuration/v2_depth_duration_MTurk/v2_DepthDuration_HTML.html#79,79,1024,625,1024,768,8-22-2022,8-18-31,37,depth_duration_stimuli/000927_2014-06-09_16-32-30_260595134347_rgbf000123-resize_3/000927_2014-06-09_16-32-30_260595134347_rgbf000123-resize_3-target.png,1000,2.6785,2,2706,1013,meters,jsons/v1_VE1000_randls_7_rotated.json,621242,709280,30,Woman
37,786056,DepthScenes,duration_manipulation_targetAtFixation,jsons/v1_VE1000_randls_7_rotated.json,http://54.235.29.9/FacialAge/BNav_EC2/DepthDuration/v2_depth_duration_MTurk/v2_DepthDuration_HTML.html#79,79,1024,625,1024,768,8-22-2022,8-18-31,38,depth_duration_stimuli/001110_2014-06-15_17-25-28_260595134347_rgbf000150-resize_1/001110_2014-06-15_17-25-28_260595134347_rgbf000150-resize_1-target.png,1000,1.7115,2,2629,1001,meters,jsons/v1_VE1000_randls_7_rotated.json,621242,709280,30,Woman
38,786056,DepthScenes,duration_manipulation_targetAtFixation,jsons/v1_VE1000_randls_7_rotated.json,http://54.235.29.9/FacialAge/BNav_EC2/DepthDuration/v2_depth_duration_MTurk/v2_DepthDuration_HTML.html#79,79,1024,625,1024,768,8-22-2022,8-18-31,39,depth_duration_stimuli/001136_2014-06-17_15-19-41_260595134347_rgbf000076-resize_3/001136_2014-06-17_15-19-41_260595134347_rgbf000076-resize_3-target.png,1000,1.8655,2,2627,994,meters,jsons/v1_VE1000_randls_7_rotated.json,621242,709280,30,Woman
39,786056,DepthScenes,duration_manipulation_targetAtFixation,jsons/v1_VE1000_randls_7_rotated.json,http://54.235.29.9/FacialAge/BNav_EC2/DepthDuration/v2_depth_duration_MTurk/v2_DepthDuration_HTML.html#79,79,1024,625,1024,768,8-22-2022,8-18-31,40,depth_duration_stimuli/001164_2014-06-17_15-35-46_260595134347_rgbf000085-resize_3/001164_2014-06-17_15-35-46_260595134347_rgbf000085-resize_3-target.png,1000,2.354,2,2414,1000,meters,jsons/v1_VE1000_randls_7_rotated.json,621242,709280,30,Woman
40,786056,DepthScenes,duration_manipulation_targetAtFixation,jsons/v1_VE1000_randls_7_rotated.json,http://54.235.29.9/FacialAge/BNav_EC2/DepthDuration/v2_depth_duration_MTurk/v2_DepthDuration_HTML.html#79,79,1024,625,1024,768,8-22-2022,8-18-31,41,depth_duration_stimuli/000709_2014-06-08_13-51-55_260595134347_rgbf000068-resize_3/000709_2014-06-08_13-51-55_260595134347_rgbf000068-resize_3-target.png,1000,1.8030000000000002,2,2696,999,meters,jsons/v1_VE1000_randls_7_rotated.json,621242,709280,30,Woman
41,786056,DepthScenes,duration_manipulation_targetAtFixation,jsons/v1_VE1000_randls_7_rotated.json,http://54.235.29.9/FacialAge/BNav_EC2/DepthDuration/v2_depth_duration_MTurk/v2_DepthDuration_HTML.html#79,79,1024,625,1024,768,8-22-2022,8-18-31,42,depth_duration_stimuli/002057_2014-06-24_21-00-13_260595134347_rgbf000120-resize_1/002057_2014-06-24_21-00-13_260595134347_rgbf000120-resize_1-target.png,1000,2.967,2,2327,999,meters,jsons/v1_VE1000_randls_7_rotated.json,621242,709280,30,Woman
42,786056,DepthScenes,duration_manipulation_targetAtFixation,jsons/v1_VE1000_randls_7_rotated.json,http://54.235.29.9/FacialAge/BNav_EC2/DepthDuration/v2_depth_duration_MTurk/v2_DepthDuration_HTML.html#79,79,1024,625,1024,768,8-22-2022,8-18-31,43,depth_duration_stimuli/001650_2014-06-20_12-09-00_260595134347_rgbf000087-resize_3/001650_2014-06-20_12-09-00_260595134347_rgbf000087-resize_3-target.png,1000,1.9505,2,2616,974,meters,jsons/v1_VE1000_randls_7_rotated.json,621242,709280,30,Woman
43,786056,DepthScenes,duration_manipulation_targetAtFixation,jsons/v1_VE1000_randls_7_rotated.json,http://54.235.29.9/FacialAge/BNav_EC2/DepthDuration/v2_depth_duration_MTurk/v2_DepthDuration_HTML.html#79,79,1024,625,1024,768,8-22-2022,8-18-31,44,depth_duration_stimuli/000682_2014-06-08_23-14-58_260595134347_rgbf000041-resize_5/000682_2014-06-08_23-14-58_260595134347_rgbf000041-resize_5-target.png,1000,2.7239999999999998,1,2545,1004,meters,jsons/v1_VE1000_randls_7_rotated.json,621242,709280,30,Woman
44,786056,DepthScenes,duration_manipulation_targetAtFixation,jsons/v1_VE1000_randls_7_rotated.json,http://54.235.29.9/FacialAge/BNav_EC2/DepthDuration/v2_depth_duration_MTurk/v2_DepthDuration_HTML.html#79,79,1024,625,1024,768,8-22-2022,8-18-31,45,depth_duration_stimuli/002344_2014-06-28_20-06-29_260595134347_rgbf000030-resize_1/002344_2014-06-28_20-06-29_260595134347_rgbf000030-resize_1-target.png,1000,1.5795,2,2743,1688,meters,jsons/v1_VE1000_randls_7_rotated.json,621242,709280,30,Woman
45,786056,DepthScenes,duration_manipulation_targetAtFixation,jsons/v1_VE1000_randls_7_rotated.json,http://54.235.29.9/FacialAge/BNav_EC2/DepthDuration/v2_depth_duration_MTurk/v2_DepthDuration_HTML.html#79,79,1024,625,1024,768,8-22-2022,8-18-31,46,depth_duration_stimuli/002725_2014-06-22_11-47-51_094959634447_rgbf000070-resize_1/002725_2014-06-22_11-47-51_094959634447_rgbf000070-resize_1-target.png,1000,2.195,2,2791,992,meters,jsons/v1_VE1000_randls_7_rotated.json,621242,709280,30,Woman
46,786056,DepthScenes,duration_manipulation_targetAtFixation,jsons/v1_VE1000_randls_7_rotated.json,http://54.235.29.9/FacialAge/BNav_EC2/DepthDuration/v2_depth_duration_MTurk/v2_DepthDuration_HTML.html#79,79,1024,625,1024,768,8-22-2022,8-18-31,47,depth_duration_stimuli/000549_2014-06-08_22-10-24_260595134347_rgbf000247-resize_3/000549_2014-06-08_22-10-24_260595134347_rgbf000247-resize_3-target.png,1000,1.841,2,2752,1002,meters,jsons/v1_VE1000_randls_7_rotated.json,621242,709280,30,Woman
47,786056,DepthScenes,duration_manipulation_targetAtFixation,jsons/v1_VE1000_randls_7_rotated.json,http://54.235.29.9/FacialAge/BNav_EC2/DepthDuration/v2_depth_duration_MTurk/v2_DepthDuration_HTML.html#79,79,1024,625,1024,768,8-22-2022,8-18-31,48,depth_duration_stimuli/001055_2014-06-08_18-45-35_260595134347_rgbf000111-resize_4/001055_2014-06-08_18-45-35_260595134347_rgbf000111-resize_4-target.png,1000,2.4290000000000003,2,2928,999,meters,jsons/v1_VE1000_randls_7_rotated.json,621242,709280,30,Woman
48,786056,DepthScenes,duration_manipulation_targetAtFixation,jsons/v1_VE1000_randls_7_rotated.json,http://54.235.29.9/FacialAge/BNav_EC2/DepthDuration/v2_depth_duration_MTurk/v2_DepthDuration_HTML.html#79,79,1024,625,1024,768,8-22-2022,8-18-31,49,depth_duration_stimuli/001170_2014-06-17_15-43-44_260595134347_rgbf000096-resize_6/001170_2014-06-17_15-43-44_260595134347_rgbf000096-resize-original.jpg,1000,1.1909999999999998,2,2486,1001,meters,jsons/v1_VE1000_randls_7_rotated.json,621242,709280,30,Woman
49,786056,DepthScenes,duration_manipulation_targetAtFixation,jsons/v1_VE1000_randls_7_rotated.json,http://54.235.29.9/FacialAge/BNav_EC2/DepthDuration/v2_depth_duration_MTurk/v2_DepthDuration_HTML.html#79,79,1024,625,1024,768,8-22-2022,8-18-31,50,depth_duration_stimuli/001450_2014-06-19_17-02-03_260595134347_rgbf000203-resize_4/001450_2014-06-19_17-02-03_260595134347_rgbf000203-resize_4-target.png,1000,4.0106666666667,2,2712,1006,meters,jsons/v1_VE1000_randls_7_rotated.json,621242,709280,30,Woman
50,786056,DepthScenes,duration_manipulation_targetAtFixation,jsons/v1_VE1000_randls_7_rotated.json,http://54.235.29.9/FacialAge/BNav_EC2/DepthDuration/v2_depth_duration_MTurk/v2_DepthDuration_HTML.html#79,79,1024,625,1024,768,8-22-2022,8-18-31,51,depth_duration_stimuli/001449_2014-06-19_17-01-27_260595134347_rgbf000116-resize_2/001449_2014-06-19_17-01-27_260595134347_rgbf000116-resize_2-target.png,1000,3.452,2,2469,996,meters,jsons/v1_VE1000_randls_7_rotated.json,621242,709280,30,Woman
51,786056,DepthScenes,duration_manipulation_targetAtFixation,jsons/v1_VE1000_randls_7_rotated.json,http://54.235.29.9/FacialAge/BNav_EC2/DepthDuration/v2_depth_duration_MTurk/v2_DepthDuration_HTML.html#79,79,1024,625,1024,768,8-22-2022,8-18-31,52,depth_duration_stimuli/002875_2014-06-01_15-19-00_094959634447_rgbf000151-resize_1/002875_2014-06-01_15-19-00_094959634447_rgbf000151-resize_1-target.png,1000,1.9675,2,2641,995,meters,jsons/v1_VE1000_randls_7_rotated.json,621242,709280,30,Woman
52,786056,DepthScenes,duration_manipulation_targetAtFixation,jsons/v1_VE1000_randls_7_rotated.json,http://54.235.29.9/FacialAge/BNav_EC2/DepthDuration/v2_depth_duration_MTurk/v2_DepthDuration_HTML.html#79,79,1024,625,1024,768,8-22-2022,8-18-31,53,depth_duration_stimuli/001011_2014-06-08_23-18-54_260595134347_rgbf000044-resize_4/001011_2014-06-08_23-18-54_260595134347_rgbf000044-resize_4-target.png,1000,2.4730000000000003,2,2348,979,meters,jsons/v1_VE1000_randls_7_rotated.json,621242,709280,30,Woman
53,786056,DepthScenes,duration_manipulation_targetAtFixation,jsons/v1_VE1000_randls_7_rotated.json,http://54.235.29.9/FacialAge/BNav_EC2/DepthDuration/v2_depth_duration_MTurk/v2_DepthDuration_HTML.html#79,79,1024,625,1024,768,8-22-2022,8-18-31,54,depth_duration_stimuli/002103_2014-06-25_20-00-40_260595134347_rgbf000049-resize_0/002103_2014-06-25_20-00-40_260595134347_rgbf000049-resize_0-target.png,1000,4.105,2,2460,1003,meters,jsons/v1_VE1000_randls_7_rotated.json,621242,709280,30,Woman
54,786056,DepthScenes,duration_manipulation_targetAtFixation,jsons/v1_VE1000_randls_7_rotated.json,http://54.235.29.9/FacialAge/BNav_EC2/DepthDuration/v2_depth_duration_MTurk/v2_DepthDuration_HTML.html#79,79,1024,625,1024,768,8-22-2022,8-18-31,55,depth_duration_stimuli/002039_2014-06-24_20-22-38_260595134347_rgbf000084-resize_1/002039_2014-06-24_20-22-38_260595134347_rgbf000084-resize_1-target.png,1000,4.408,2,2397,1000,meters,jsons/v1_VE1000_randls_7_rotated.json,621242,709280,30,Woman
55,786056,DepthScenes,duration_manipulation_targetAtFixation,jsons/v1_VE1000_randls_7_rotated.json,http://54.235.29.9/FacialAge/BNav_EC2/DepthDuration/v2_depth_duration_MTurk/v2_DepthDuration_HTML.html#79,79,1024,625,1024,768,8-22-2022,8-18-31,56,depth_duration_stimuli/001235_2014-06-17_16-37-36_260595134347_rgbf000084-resize_4/001235_2014-06-17_16-37-36_260595134347_rgbf000084-resize_4-target.png,1000,3.6605,2,2617,999,meters,jsons/v1_VE1000_randls_7_rotated.json,621242,709280,30,Woman
56,786056,DepthScenes,duration_manipulation_targetAtFixation,jsons/v1_VE1000_randls_7_rotated.json,http://54.235.29.9/FacialAge/BNav_EC2/DepthDuration/v2_depth_duration_MTurk/v2_DepthDuration_HTML.html#79,79,1024,625,1024,768,8-22-2022,8-18-31,57,depth_duration_stimuli/000788_2014-06-08_22-34-36_260595134347_rgbf000131-resize_1/000788_2014-06-08_22-34-36_260595134347_rgbf000131-resize_1-target.png,1000,3.359,2,2507,989,meters,jsons/v1_VE1000_randls_7_rotated.json,621242,709280,30,Woman
57,786056,DepthScenes,duration_manipulation_targetAtFixation,jsons/v1_VE1000_randls_7_rotated.json,http://54.235.29.9/FacialAge/BNav_EC2/DepthDuration/v2_depth_duration_MTurk/v2_DepthDuration_HTML.html#79,79,1024,625,1024,768,8-22-2022,8-18-31,58,depth_duration_stimuli/003587_2014-05-23_16-48-02_094959634447_rgbf002384-resize_2/003587_2014-05-23_16-48-02_094959634447_rgbf002384-resize_2-target.png,1000,1.357,1,2588,894,meters,jsons/v1_VE1000_randls_7_rotated.json,621242,709280,30,Woman
58,786056,DepthScenes,duration_manipulation_targetAtFixation,jsons/v1_VE1000_randls_7_rotated.json,http://54.235.29.9/FacialAge/BNav_EC2/DepthDuration/v2_depth_duration_MTurk/v2_DepthDuration_HTML.html#79,79,1024,625,1024,768,8-22-2022,8-18-31,59,depth_duration_stimuli/001167_2014-06-17_15-38-07_260595134347_rgbf000108-resize_0/001167_2014-06-17_15-38-07_260595134347_rgbf000108-resize_0-target.png,1000,1.8505,2,2815,1012,meters,jsons/v1_VE1000_randls_7_rotated.json,621242,709280,30,Woman
59,786056,DepthScenes,duration_manipulation_targetAtFixation,jsons/v1_VE1000_randls_7_rotated.json,http://54.235.29.9/FacialAge/BNav_EC2/DepthDuration/v2_depth_duration_MTurk/v2_DepthDuration_HTML.html#79,79,1024,625,1024,768,8-22-2022,8-18-31,60,depth_duration_stimuli/000749_2014-06-08_21-55-06_260595134347_rgbf000070-resize_2/000749_2014-06-08_21-55-06_260595134347_rgbf000070-resize_2-target.png,1000,2.331,2,4070,974,meters,jsons/v1_VE1000_randls_7_rotated.json,621242,709280,30,Woman
60,786056,DepthScenes,duration_manipulation_targetAtFixation,jsons/v1_VE1000_randls_7_rotated.json,http://54.235.29.9/FacialAge/BNav_EC2/DepthDuration/v2_depth_duration_MTurk/v2_DepthDuration_HTML.html#79,79,1024,625,1024,768,8-22-2022,8-18-31,61,depth_duration_stimuli/002788_2014-06-22_19-36-03_094959634447_rgbf000088-resize_2/002788_2014-06-22_19-36-03_094959634447_rgbf000088-resize_2-target.png,1000,1.6465,2,3090,1045,meters,jsons/v1_VE1000_randls_7_rotated.json,621242,709280,30,Woman
61,786056,DepthScenes,duration_manipulation_targetAtFixation,jsons/v1_VE1000_randls_7_rotated.json,http://54.235.29.9/FacialAge/BNav_EC2/DepthDuration/v2_depth_duration_MTurk/v2_DepthDuration_HTML.html#79,79,1024,625,1024,768,8-22-2022,8-18-31,62,depth_duration_stimuli/001584_2014-06-20_11-07-43_260595134347_rgbf000002-resize_1/001584_2014-06-20_11-07-43_260595134347_rgbf000002-resize_1-target.png,1000,3.53,2,2475,981,meters,jsons/v1_VE1000_randls_7_rotated.json,621242,709280,30,Woman
62,786056,DepthScenes,duration_manipulation_targetAtFixation,jsons/v1_VE1000_randls_7_rotated.json,http://54.235.29.9/FacialAge/BNav_EC2/DepthDuration/v2_depth_duration_MTurk/v2_DepthDuration_HTML.html#79,79,1024,625,1024,768,8-22-2022,8-18-31,63,depth_duration_stimuli/003621_2014-05-23_18-06-08_094959634447_rgbf000101-resize_1/003621_2014-05-23_18-06-08_094959634447_rgbf000101-resize_1-target.png,1000,3.9835,2,2628,1002,meters,jsons/v1_VE1000_randls_7_rotated.json,621242,709280,30,Woman
63,786056,DepthScenes,duration_manipulation_targetAtFixation,jsons/v1_VE1000_randls_7_rotated.json,http://54.235.29.9/FacialAge/BNav_EC2/DepthDuration/v2_depth_duration_MTurk/v2_DepthDuration_HTML.html#79,79,1024,625,1024,768,8-22-2022,8-18-31,64,depth_duration_stimuli/002136_2014-06-25_21-18-03_260595134347_rgbf000109-resize_3/002136_2014-06-25_21-18-03_260595134347_rgbf000109-resize_3-target.png,1000,1.9569999999999999,2,2627,531,meters,jsons/v1_VE1000_randls_7_rotated.json,621242,709280,30,Woman
64,786056,DepthScenes,duration_manipulation_targetAtFixation,jsons/v1_VE1000_randls_7_rotated.json,http://54.235.29.9/FacialAge/BNav_EC2/DepthDuration/v2_depth_duration_MTurk/v2_DepthDuration_HTML.html#79,79,1024,625,1024,768,8-22-2022,8-18-31,65,depth_duration_stimuli/002964_2014-06-08_17-46-11_094959634447_rgbf000091-resize_4/002964_2014-06-08_17-46-11_094959634447_rgbf000091-resize_4-target.png,1000,1.6909999999999998,2,3160,997,meters,jsons/v1_VE1000_randls_7_rotated.json,621242,709280,30,Woman
65,786056,DepthScenes,duration_manipulation_targetAtFixation,jsons/v1_VE1000_randls_7_rotated.json,http://54.235.29.9/FacialAge/BNav_EC2/DepthDuration/v2_depth_duration_MTurk/v2_DepthDuration_HTML.html#79,79,1024,625,1024,768,8-22-2022,8-18-31,66,depth_duration_stimuli/001540_2014-06-20_17-01-05_260595134347_rgbf000086-resize_2/001540_2014-06-20_17-01-05_260595134347_rgbf000086-resize-original.jpg,1000,1.459,2,2669,1026,meters,jsons/v1_VE1000_randls_7_rotated.json,621242,709280,30,Woman
66,786056,DepthScenes,duration_manipulation_targetAtFixation,jsons/v1_VE1000_randls_7_rotated.json,http://54.235.29.9/FacialAge/BNav_EC2/DepthDuration/v2_depth_duration_MTurk/v2_DepthDuration_HTML.html#79,79,1024,625,1024,768,8-22-2022,8-18-31,67,depth_duration_stimuli/002340_2014-06-28_20-05-46_260595134347_rgbf000113-resize_0/002340_2014-06-28_20-05-46_260595134347_rgbf000113-resize_0-target.png,1000,2.4735,2,2859,1006,meters,jsons/v1_VE1000_randls_7_rotated.json,621242,709280,30,Woman
67,786056,DepthScenes,duration_manipulation_targetAtFixation,jsons/v1_VE1000_randls_7_rotated.json,http://54.235.29.9/FacialAge/BNav_EC2/DepthDuration/v2_depth_duration_MTurk/v2_DepthDuration_HTML.html#79,79,1024,625,1024,768,8-22-2022,8-18-31,68,depth_duration_stimuli/001016_2014-06-09_16-16-10_260595134347_rgbf000112-resize_5/001016_2014-06-09_16-16-10_260595134347_rgbf000112-resize_5-target.png,1000,1.6565,2,2579,983,meters,jsons/v1_VE1000_randls_7_rotated.json,621242,709280,30,Woman
68,786056,DepthScenes,duration_manipulation_targetAtFixation,jsons/v1_VE1000_randls_7_rotated.json,http://54.235.29.9/FacialAge/BNav_EC2/DepthDuration/v2_depth_duration_MTurk/v2_DepthDuration_HTML.html#79,79,1024,625,1024,768,8-22-2022,8-18-31,69,depth_duration_stimuli/003129_2014-05-12_10-48-10_094959634447_rgbf000100-resize_0/003129_2014-05-12_10-48-10_094959634447_rgbf000100-resize_0-target.png,1000,4.9305,1,3167,984,meters,jsons/v1_VE1000_randls_7_rotated.json,621242,709280,30,Woman
69,786056,DepthScenes,duration_manipulation_targetAtFixation,jsons/v1_VE1000_randls_7_rotated.json,http://54.235.29.9/FacialAge/BNav_EC2/DepthDuration/v2_depth_duration_MTurk/v2_DepthDuration_HTML.html#79,79,1024,625,1024,768,8-22-2022,8-18-31,70,depth_duration_stimuli/000414_2014-06-04_19-49-13_260595134347_rgbf000044-resize_0/000414_2014-06-04_19-49-13_260595134347_rgbf000044-resize_0-target.png,1000,4.329,1,3261,1150,meters,jsons/v1_VE1000_randls_7_rotated.json,621242,709280,30,Woman
70,786056,DepthScenes,duration_manipulation_targetAtFixation,jsons/v1_VE1000_randls_7_rotated.json,http://54.235.29.9/FacialAge/BNav_EC2/DepthDuration/v2_depth_duration_MTurk/v2_DepthDuration_HTML.html#79,79,1024,625,1024,768,8-22-2022,8-18-31,71,depth_duration_stimuli/001132_2014-06-17_14-48-54_260595134347_rgbf000100-resize_2/001132_2014-06-17_14-48-54_260595134347_rgbf000100-resize_2-target.png,1000,3.753,2,3732,1006,meters,jsons/v1_VE1000_randls_7_rotated.json,621242,709280,30,Woman
71,786056,DepthScenes,duration_manipulation_targetAtFixation,jsons/v1_VE1000_randls_7_rotated.json,http://54.235.29.9/FacialAge/BNav_EC2/DepthDuration/v2_depth_duration_MTurk/v2_DepthDuration_HTML.html#79,79,1024,625,1024,768,8-22-2022,8-18-31,72,depth_duration_stimuli/001133_2014-06-17_14-49-16_260595134347_rgbf000100-resize_0/001133_2014-06-17_14-49-16_260595134347_rgbf000100-resize_0-target.png,1000,4.2115,2,2631,1023,meters,jsons/v1_VE1000_randls_7_rotated.json,621242,709280,30,Woman
72,786056,DepthScenes,duration_manipulation_targetAtFixation,jsons/v1_VE1000_randls_7_rotated.json,http://54.235.29.9/FacialAge/BNav_EC2/DepthDuration/v2_depth_duration_MTurk/v2_DepthDuration_HTML.html#79,79,1024,625,1024,768,8-22-2022,8-18-31,73,depth_duration_stimuli/001214_2014-06-17_16-13-55_260595134347_rgbf000111-resize_0/001214_2014-06-17_16-13-55_260595134347_rgbf000111-resize_0-target.png,1000,2.6505,2,3052,808,meters,jsons/v1_VE1000_randls_7_rotated.json,621242,709280,30,Woman
73,786056,DepthScenes,duration_manipulation_targetAtFixation,jsons/v1_VE1000_randls_7_rotated.json,http://54.235.29.9/FacialAge/BNav_EC2/DepthDuration/v2_depth_duration_MTurk/v2_DepthDuration_HTML.html#79,79,1024,625,1024,768,8-22-2022,8-18-31,74,depth_duration_stimuli/000810_2014-06-08_17-20-01_260595134347_rgbf000105-resize_0/000810_2014-06-08_17-20-01_260595134347_rgbf000105-resize_0-target.png,1000,1.4865,2,2730,987,meters,jsons/v1_VE1000_randls_7_rotated.json,621242,709280,30,Woman
74,786056,DepthScenes,duration_manipulation_targetAtFixation,jsons/v1_VE1000_randls_7_rotated.json,http://54.235.29.9/FacialAge/BNav_EC2/DepthDuration/v2_depth_duration_MTurk/v2_DepthDuration_HTML.html#79,79,1024,625,1024,768,8-22-2022,8-18-31,75,depth_duration_stimuli/002758_2014-06-22_19-11-20_094959634447_rgbf000128-resize_1/002758_2014-06-22_19-11-20_094959634447_rgbf000128-resize_1-target.png,1000,2.555,2,2952,1002,meters,jsons/v1_VE1000_randls_7_rotated.json,621242,709280,30,Woman
75,786056,DepthScenes,duration_manipulation_targetAtFixation,jsons/v1_VE1000_randls_7_rotated.json,http://54.235.29.9/FacialAge/BNav_EC2/DepthDuration/v2_depth_duration_MTurk/v2_DepthDuration_HTML.html#79,79,1024,625,1024,768,8-22-2022,8-18-31,76,depth_duration_stimuli/002630_2014-06-24_14-47-50_094959634447_rgbf000055-resize_1/002630_2014-06-24_14-47-50_094959634447_rgbf000055-resize_1-target.png,1000,3.0095,2,2414,1004,meters,jsons/v1_VE1000_randls_7_rotated.json,621242,709280,30,Woman
76,786056,DepthScenes,duration_manipulation_targetAtFixation,jsons/v1_VE1000_randls_7_rotated.json,http://54.235.29.9/FacialAge/BNav_EC2/DepthDuration/v2_depth_duration_MTurk/v2_DepthDuration_HTML.html#79,79,1024,625,1024,768,8-22-2022,8-18-31,77,depth_duration_stimuli/000457_2014-06-08_16-52-43_260595134347_rgbf000199-resize_1/000457_2014-06-08_16-52-43_260595134347_rgbf000199-resize_1-target.png,1000,3.6489999999999996,2,2674,1000,meters,jsons/v1_VE1000_randls_7_rotated.json,621242,709280,30,Woman
77,786056,DepthScenes,duration_manipulation_targetAtFixation,jsons/v1_VE1000_randls_7_rotated.json,http://54.235.29.9/FacialAge/BNav_EC2/DepthDuration/v2_depth_duration_MTurk/v2_DepthDuration_HTML.html#79,79,1024,625,1024,768,8-22-2022,8-18-31,78,depth_duration_stimuli/000929_2014-06-09_16-33-19_260595134347_rgbf000139-resize_0/000929_2014-06-09_16-33-19_260595134347_rgbf000139-resize_0-target.png,1000,2.8680000000000003,2,2458,969,meters,jsons/v1_VE1000_randls_7_rotated.json,621242,709280,30,Woman
78,786056,DepthScenes,duration_manipulation_targetAtFixation,jsons/v1_VE1000_randls_7_rotated.json,http://54.235.29.9/FacialAge/BNav_EC2/DepthDuration/v2_depth_duration_MTurk/v2_DepthDuration_HTML.html#79,79,1024,625,1024,768,8-22-2022,8-18-31,79,depth_duration_stimuli/002568_2014-06-24_13-59-21_094959634447_rgbf000062-resize_4/002568_2014-06-24_13-59-21_094959634447_rgbf000062-resize_4-target.png,1000,3.015,2,2704,1000,meters,jsons/v1_VE1000_randls_7_rotated.json,621242,709280,30,Woman
79,786056,DepthScenes,duration_manipulation_targetAtFixation,jsons/v1_VE1000_randls_7_rotated.json,http://54.235.29.9/FacialAge/BNav_EC2/DepthDuration/v2_depth_duration_MTurk/v2_DepthDuration_HTML.html#79,79,1024,625,1024,768,8-22-2022,8-18-31,80,depth_duration_stimuli/003492_2014-05-21_15-50-55_094959634447_rgbf000828-resize_1/003492_2014-05-21_15-50-55_094959634447_rgbf000828-resize_1-target.png,1000,4.06875,2,2736,995,meters,jsons/v1_VE1000_randls_7_rotated.json,621242,709280,30,Woman
80,786056,DepthScenes,duration_manipulation_targetAtFixation,jsons/v1_VE1000_randls_7_rotated.json,http://54.235.29.9/FacialAge/BNav_EC2/DepthDuration/v2_depth_duration_MTurk/v2_DepthDuration_HTML.html#79,79,1024,625,1024,768,8-22-2022,8-18-31,81,depth_duration_stimuli/002660_2014-06-13_15-44-18_094959634447_rgbf001878-resize_2/002660_2014-06-13_15-44-18_094959634447_rgbf001878-resize_2-target.png,1000,3.576,2,2793,1001,meters,jsons/v1_VE1000_randls_7_rotated.json,621242,709280,30,Woman
81,786056,DepthScenes,duration_manipulation_targetAtFixation,jsons/v1_VE1000_randls_7_rotated.json,http://54.235.29.9/FacialAge/BNav_EC2/DepthDuration/v2_depth_duration_MTurk/v2_DepthDuration_HTML.html#79,79,1024,625,1024,768,8-22-2022,8-18-31,82,depth_duration_stimuli/002153_2014-06-25_21-27-18_260595134347_rgbf000038-resize_5/002153_2014-06-25_21-27-18_260595134347_rgbf000038-resize_5-target.png,1000,2.505,2,2812,999,meters,jsons/v1_VE1000_randls_7_rotated.json,621242,709280,30,Woman
82,786056,DepthScenes,duration_manipulation_targetAtFixation,jsons/v1_VE1000_randls_7_rotated.json,http://54.235.29.9/FacialAge/BNav_EC2/DepthDuration/v2_depth_duration_MTurk/v2_DepthDuration_HTML.html#79,79,1024,625,1024,768,8-22-2022,8-18-31,83,depth_duration_stimuli/002750_2014-06-22_19-08-03_094959634447_rgbf000094-resize_4/002750_2014-06-22_19-08-03_094959634447_rgbf000094-resize_4-target.png,1000,2.354,3,2659,1004,meters,jsons/v1_VE1000_randls_7_rotated.json,621242,709280,30,Woman
83,786056,DepthScenes,duration_manipulation_targetAtFixation,jsons/v1_VE1000_randls_7_rotated.json,http://54.235.29.9/FacialAge/BNav_EC2/DepthDuration/v2_depth_duration_MTurk/v2_DepthDuration_HTML.html#79,79,1024,625,1024,768,8-22-2022,8-18-31,84,depth_duration_stimuli/002549_2014-06-24_13-41-39_094959634447_rgbf000022-resize_3/002549_2014-06-24_13-41-39_094959634447_rgbf000022-resize_3-target.png,1000,1.476,2,2733,1007,meters,jsons/v1_VE1000_randls_7_rotated.json,621242,709280,30,Woman
84,786056,DepthScenes,duration_manipulation_targetAtFixation,jsons/v1_VE1000_randls_7_rotated.json,http://54.235.29.9/FacialAge/BNav_EC2/DepthDuration/v2_depth_duration_MTurk/v2_DepthDuration_HTML.html#79,79,1024,625,1024,768,8-22-2022,8-18-31,85,depth_duration_stimuli/002209_2014-06-28_18-36-10_260595134347_rgbf000051-resize_1/002209_2014-06-28_18-36-10_260595134347_rgbf000051-resize_1-target.png,1000,2.057,2,2438,998,meters,jsons/v1_VE1000_randls_7_rotated.json,621242,709280,30,Woman
85,786056,DepthScenes,duration_manipulation_targetAtFixation,jsons/v1_VE1000_randls_7_rotated.json,http://54.235.29.9/FacialAge/BNav_EC2/DepthDuration/v2_depth_duration_MTurk/v2_DepthDuration_HTML.html#79,79,1024,625,1024,768,8-22-2022,8-18-31,86,depth_duration_stimuli/002763_2014-06-22_19-13-10_094959634447_rgbf000075-resize_4/002763_2014-06-22_19-13-10_094959634447_rgbf000075-resize_4-target.png,1000,1.68375,2,2553,997,meters,jsons/v1_VE1000_randls_7_rotated.json,621242,709280,30,Woman
86,786056,DepthScenes,duration_manipulation_targetAtFixation,jsons/v1_VE1000_randls_7_rotated.json,http://54.235.29.9/FacialAge/BNav_EC2/DepthDuration/v2_depth_duration_MTurk/v2_DepthDuration_HTML.html#79,79,1024,625,1024,768,8-22-2022,8-18-31,87,depth_duration_stimuli/003083_2014-06-15_15-21-03_094959634447_rgbf000063-resize_1/003083_2014-06-15_15-21-03_094959634447_rgbf000063-resize_1-target.png,1000,4.1405,2,2415,1000,meters,jsons/v1_VE1000_randls_7_rotated.json,621242,709280,30,Woman
87,786056,DepthScenes,duration_manipulation_targetAtFixation,jsons/v1_VE1000_randls_7_rotated.json,http://54.235.29.9/FacialAge/BNav_EC2/DepthDuration/v2_depth_duration_MTurk/v2_DepthDuration_HTML.html#79,79,1024,625,1024,768,8-22-2022,8-18-31,88,depth_duration_stimuli/000486_2014-06-09_20-47-20_260595134347_rgbf000143-resize_2/000486_2014-06-09_20-47-20_260595134347_rgbf000143-resize_2-target.png,1000,4.8325,2,2332,997,meters,jsons/v1_VE1000_randls_7_rotated.json,621242,709280,30,Woman
88,786056,DepthScenes,duration_manipulation_targetAtFixation,jsons/v1_VE1000_randls_7_rotated.json,http://54.235.29.9/FacialAge/BNav_EC2/DepthDuration/v2_depth_duration_MTurk/v2_DepthDuration_HTML.html#79,79,1024,625,1024,768,8-22-2022,8-18-31,89,depth_duration_stimuli/000137_2014-05-20_17-04-49_260595134347_rgbf000120-resize_1/000137_2014-05-20_17-04-49_260595134347_rgbf000120-resize_1-target.png,1000,3.786,2,3290,927,meters,jsons/v1_VE1000_randls_7_rotated.json,621242,709280,30,Woman
89,786056,DepthScenes,duration_manipulation_targetAtFixation,jsons/v1_VE1000_randls_7_rotated.json,http://54.235.29.9/FacialAge/BNav_EC2/DepthDuration/v2_depth_duration_MTurk/v2_DepthDuration_HTML.html#79,79,1024,625,1024,768,8-22-2022,8-18-31,90,depth_duration_stimuli/000736_2014-06-08_18-24-15_260595134347_rgbf000206-resize_3/000736_2014-06-08_18-24-15_260595134347_rgbf000206-resize_3-target.png,1000,3.515,1,3958,998,meters,jsons/v1_VE1000_randls_7_rotated.json,621242,709280,30,Woman
90,786056,DepthScenes,duration_manipulation_targetAtFixation,jsons/v1_VE1000_randls_7_rotated.json,http://54.235.29.9/FacialAge/BNav_EC2/DepthDuration/v2_depth_duration_MTurk/v2_DepthDuration_HTML.html#79,79,1024,625,1024,768,8-22-2022,8-18-31,91,depth_duration_stimuli/000635_2014-06-08_16-38-42_260595134347_rgbf000106-resize_1/000635_2014-06-08_16-38-42_260595134347_rgbf000106-resize_1-target.png,1000,2.074,2,2647,1293,meters,jsons/v1_VE1000_randls_7_rotated.json,621242,709280,30,Woman
91,786056,DepthScenes,duration_manipulation_targetAtFixation,jsons/v1_VE1000_randls_7_rotated.json,http://54.235.29.9/FacialAge/BNav_EC2/DepthDuration/v2_depth_duration_MTurk/v2_DepthDuration_HTML.html#79,79,1024,625,1024,768,8-22-2022,8-18-31,92,depth_duration_stimuli/002279_2014-06-28_18-55-32_260595134347_rgbf000040-resize_5/002279_2014-06-28_18-55-32_260595134347_rgbf000040-resize_5-target.png,1000,1.5043333333333,3,2366,1000,meters,jsons/v1_VE1000_randls_7_rotated.json,621242,709280,30,Woman
92,786056,DepthScenes,duration_manipulation_targetAtFixation,jsons/v1_VE1000_randls_7_rotated.json,http://54.235.29.9/FacialAge/BNav_EC2/DepthDuration/v2_depth_duration_MTurk/v2_DepthDuration_HTML.html#79,79,1024,625,1024,768,8-22-2022,8-18-31,93,depth_duration_stimuli/000866_2014-06-09_20-45-42_260595134347_rgbf000139-resize_1/000866_2014-06-09_20-45-42_260595134347_rgbf000139-resize_1-target.png,1000,3.2155,2,2434,1005,meters,jsons/v1_VE1000_randls_7_rotated.json,621242,709280,30,Woman
93,786056,DepthScenes,duration_manipulation_targetAtFixation,jsons/v1_VE1000_randls_7_rotated.json,http://54.235.29.9/FacialAge/BNav_EC2/DepthDuration/v2_depth_duration_MTurk/v2_DepthDuration_HTML.html#79,79,1024,625,1024,768,8-22-2022,8-18-31,94,depth_duration_stimuli/002989_2014-06-15_12-25-03_094959634447_rgbf000150-resize_3/002989_2014-06-15_12-25-03_094959634447_rgbf000150-resize_3-target.png,1000,4.1975,2,3499,1000,meters,jsons/v1_VE1000_randls_7_rotated.json,621242,709280,30,Woman
94,786056,DepthScenes,duration_manipulation_targetAtFixation,jsons/v1_VE1000_randls_7_rotated.json,http://54.235.29.9/FacialAge/BNav_EC2/DepthDuration/v2_depth_duration_MTurk/v2_DepthDuration_HTML.html#79,79,1024,625,1024,768,8-22-2022,8-18-31,95,depth_duration_stimuli/002805_2014-06-22_19-54-03_094959634447_rgbf000079-resize_1/002805_2014-06-22_19-54-03_094959634447_rgbf000079-resize_1-target.png,1000,3.1439999999999997,2,2568,997,meters,jsons/v1_VE1000_randls_7_rotated.json,621242,709280,30,Woman
95,786056,DepthScenes,duration_manipulation_targetAtFixation,jsons/v1_VE1000_randls_7_rotated.json,http://54.235.29.9/FacialAge/BNav_EC2/DepthDuration/v2_depth_duration_MTurk/v2_DepthDuration_HTML.html#79,79,1024,625,1024,768,8-22-2022,8-18-31,96,depth_duration_stimuli/000906_2014-06-08_13-35-43_260595134347_rgbf000155-resize_1/000906_2014-06-08_13-35-43_260595134347_rgbf000155-resize_1-target.png,1000,2.8489999999999998,2,2783,992,meters,jsons/v1_VE1000_randls_7_rotated.json,621242,709280,30,Woman
96,786056,DepthScenes,duration_manipulation_targetAtFixation,jsons/v1_VE1000_randls_7_rotated.json,http://54.235.29.9/FacialAge/BNav_EC2/DepthDuration/v2_depth_duration_MTurk/v2_DepthDuration_HTML.html#79,79,1024,625,1024,768,8-22-2022,8-18-31,97,depth_duration_stimuli/001052_2014-06-08_18-24-54_260595134347_rgbf000130-resize_1/001052_2014-06-08_18-24-54_260595134347_rgbf000130-resize_1-target.png,1000,4.1045,2,2664,997,meters,jsons/v1_VE1000_randls_7_rotated.json,621242,709280,30,Woman
97,786056,DepthScenes,duration_manipulation_targetAtFixation,jsons/v1_VE1000_randls_7_rotated.json,http://54.235.29.9/FacialAge/BNav_EC2/DepthDuration/v2_depth_duration_MTurk/v2_DepthDuration_HTML.html#79,79,1024,625,1024,768,8-22-2022,8-18-31,98,depth_duration_stimuli/002988_2014-06-15_12-24-20_094959634447_rgbf000150-resize_1/002988_2014-06-15_12-24-20_094959634447_rgbf000150-resize_1-target.png,1000,4.7669999999999995,1,2898,996,meters,jsons/v1_VE1000_randls_7_rotated.json,621242,709280,30,Woman
98,786056,DepthScenes,duration_manipulation_targetAtFixation,jsons/v1_VE1000_randls_7_rotated.json,http://54.235.29.9/FacialAge/BNav_EC2/DepthDuration/v2_depth_duration_MTurk/v2_DepthDuration_HTML.html#79,79,1024,625,1024,768,8-22-2022,8-18-31,99,depth_duration_stimuli/001222_2014-06-17_16-24-06_260595134347_rgbf000073-resize_0/001222_2014-06-17_16-24-06_260595134347_rgbf000073-resize-original.jpg,1000,1.4385,2,2739,981,meters,jsons/v1_VE1000_randls_7_rotated.json,621242,709280,30,Woman
99,786056,DepthScenes,duration_manipulation_targetAtFixation,jsons/v1_VE1000_randls_7_rotated.json,http://54.235.29.9/FacialAge/BNav_EC2/DepthDuration/v2_depth_duration_MTurk/v2_DepthDuration_HTML.html#79,79,1024,625,1024,768,8-22-2022,8-18-31,100,depth_duration_stimuli/003228_2014-05-14_13-42-35_094959634447_rgbf000101-resize_1/003228_2014-05-14_13-42-35_094959634447_rgbf000101-resize_1-target.png,1000,1.9680000000000002,2,2585,997,meters,jsons/v1_VE1000_randls_7_rotated.json,621242,709280,30,Woman
100,786056,DepthScenes,duration_manipulation_targetAtFixation,jsons/v1_VE1000_randls_7_rotated.json,http://54.235.29.9/FacialAge/BNav_EC2/DepthDuration/v2_depth_duration_MTurk/v2_DepthDuration_HTML.html#79,79,1024,625,1024,768,8-22-2022,8-18-31,101,depth_duration_stimuli/002600_2014-06-24_14-27-04_094959634447_rgbf000074-resize_2/002600_2014-06-24_14-27-04_094959634447_rgbf000074-resize_2-target.png,1000,2.7575,5,2887,1000,meters,jsons/v1_VE1000_randls_7_rotated.json,621242,709280,30,Woman
101,786056,DepthScenes,duration_manipulation_targetAtFixation,jsons/v1_VE1000_randls_7_rotated.json,http://54.235.29.9/FacialAge/BNav_EC2/DepthDuration/v2_depth_duration_MTurk/v2_DepthDuration_HTML.html#79,79,1024,625,1024,768,8-22-2022,8-18-31,102,depth_duration_stimuli/002953_2014-06-08_17-32-18_094959634447_rgbf000059-resize_5/002953_2014-06-08_17-32-18_094959634447_rgbf000059-resize_5-target.png,1000,1.551,2,2645,998,meters,jsons/v1_VE1000_randls_7_rotated.json,621242,709280,30,Woman
102,786056,DepthScenes,duration_manipulation_targetAtFixation,jsons/v1_VE1000_randls_7_rotated.json,http://54.235.29.9/FacialAge/BNav_EC2/DepthDuration/v2_depth_duration_MTurk/v2_DepthDuration_HTML.html#79,79,1024,625,1024,768,8-22-2022,8-18-31,103,depth_duration_stimuli/000878_2014-06-08_22-52-45_260595134347_rgbf000045-resize_2/000878_2014-06-08_22-52-45_260595134347_rgbf000045-resize_2-target.png,1000,2.092,2,2503,1000,meters,jsons/v1_VE1000_randls_7_rotated.json,621242,709280,30,Woman
103,786056,DepthScenes,duration_manipulation_targetAtFixation,jsons/v1_VE1000_randls_7_rotated.json,http://54.235.29.9/FacialAge/BNav_EC2/DepthDuration/v2_depth_duration_MTurk/v2_DepthDuration_HTML.html#79,79,1024,625,1024,768,8-22-2022,8-18-31,104,depth_duration_stimuli/000109_2014-05-14_23-41-52_260595134347_rgbf000035-resize_9/000109_2014-05-14_23-41-52_260595134347_rgbf000035-resize_9-target.png,1000,1.3545,2,2323,999,meters,jsons/v1_VE1000_randls_7_rotated.json,621242,709280,30,Woman
104,786056,DepthScenes,duration_manipulation_targetAtFixation,jsons/v1_VE1000_randls_7_rotated.json,http://54.235.29.9/FacialAge/BNav_EC2/DepthDuration/v2_depth_duration_MTurk/v2_DepthDuration_HTML.html#79,79,1024,625,1024,768,8-22-2022,8-18-31,105,depth_duration_stimuli/000470_2014-06-09_19-42-40_260595134347_rgbf000094-resize_1/000470_2014-06-09_19-42-40_260595134347_rgbf000094-resize_1-target.png,1000,1.831,2,2207,1000,meters,jsons/v1_VE1000_randls_7_rotated.json,621242,709280,30,Woman
105,786056,DepthScenes,duration_manipulation_targetAtFixation,jsons/v1_VE1000_randls_7_rotated.json,http://54.235.29.9/FacialAge/BNav_EC2/DepthDuration/v2_depth_duration_MTurk/v2_DepthDuration_HTML.html#79,79,1024,625,1024,768,8-22-2022,8-18-31,106,depth_duration_stimuli/000556_2014-06-09_22-42-56_260595134347_rgbf000214-resize_1/000556_2014-06-09_22-42-56_260595134347_rgbf000214-resize_1-target.png,1000,4.8415,2,2475,998,meters,jsons/v1_VE1000_randls_7_rotated.json,621242,709280,30,Woman
106,786056,DepthScenes,duration_manipulation_targetAtFixation,jsons/v1_VE1000_randls_7_rotated.json,http://54.235.29.9/FacialAge/BNav_EC2/DepthDuration/v2_depth_duration_MTurk/v2_DepthDuration_HTML.html#79,79,1024,625,1024,768,8-22-2022,8-18-31,107,depth_duration_stimuli/001158_2014-06-17_15-32-16_260595134347_rgbf000138-resize_2/001158_2014-06-17_15-32-16_260595134347_rgbf000138-resize_2-target.png,1000,4.5315,2,2241,989,meters,jsons/v1_VE1000_randls_7_rotated.json,621242,709280,30,Woman
107,786056,DepthScenes,duration_manipulation_targetAtFixation,jsons/v1_VE1000_randls_7_rotated.json,http://54.235.29.9/FacialAge/BNav_EC2/DepthDuration/v2_depth_duration_MTurk/v2_DepthDuration_HTML.html#79,79,1024,625,1024,768,8-22-2022,8-18-31,108,depth_duration_stimuli/003490_2014-05-21_15-50-11_094959634447_rgbf000101-resize_3/003490_2014-05-21_15-50-11_094959634447_rgbf000101-resize_3-target.png,1000,3.6445,1,2789,998,meters,jsons/v1_VE1000_randls_7_rotated.json,621242,709280,30,Woman
108,786056,DepthScenes,duration_manipulation_targetAtFixation,jsons/v1_VE1000_randls_7_rotated.json,http://54.235.29.9/FacialAge/BNav_EC2/DepthDuration/v2_depth_duration_MTurk/v2_DepthDuration_HTML.html#79,79,1024,625,1024,768,8-22-2022,8-18-31,109,depth_duration_stimuli/001175_2014-06-17_15-45-55_260595134347_rgbf000129-resize_4/001175_2014-06-17_15-45-55_260595134347_rgbf000129-resize_4-target.png,1000,4.255,1,2320,995,meters,jsons/v1_VE1000_randls_7_rotated.json,621242,709280,30,Woman
109,786056,DepthScenes,duration_manipulation_targetAtFixation,jsons/v1_VE1000_randls_7_rotated.json,http://54.235.29.9/FacialAge/BNav_EC2/DepthDuration/v2_depth_duration_MTurk/v2_DepthDuration_HTML.html#79,79,1024,625,1024,768,8-22-2022,8-18-31,110,depth_duration_stimuli/002545_2014-06-24_13-38-53_094959634447_rgbf000080-resize_4/002545_2014-06-24_13-38-53_094959634447_rgbf000080-resize_4-target.png,1000,1.9205,1,2393,998,meters,jsons/v1_VE1000_randls_7_rotated.json,621242,709280,30,Woman
110,786056,DepthScenes,duration_manipulation_targetAtFixation,jsons/v1_VE1000_randls_7_rotated.json,http://54.235.29.9/FacialAge/BNav_EC2/DepthDuration/v2_depth_duration_MTurk/v2_DepthDuration_HTML.html#79,79,1024,625,1024,768,8-22-2022,8-18-31,111,depth_duration_stimuli/001092_2014-06-15_17-34-58_260595134347_rgbf000171-resize_3/001092_2014-06-15_17-34-58_260595134347_rgbf000171-resize_3-target.png,1000,2.6935,1,2239,1000,meters,jsons/v1_VE1000_randls_7_rotated.json,621242,709280,30,Woman
111,786056,DepthScenes,duration_manipulation_targetAtFixation,jsons/v1_VE1000_randls_7_rotated.json,http://54.235.29.9/FacialAge/BNav_EC2/DepthDuration/v2_depth_duration_MTurk/v2_DepthDuration_HTML.html#79,79,1024,625,1024,768,8-22-2022,8-18-31,112,depth_duration_stimuli/000691_2014-06-08_13-08-50_260595134347_rgbf000132-resize_3/000691_2014-06-08_13-08-50_260595134347_rgbf000132-resize_3-target.png,1000,4.1530000000000005,1,3205,1115,meters,jsons/v1_VE1000_randls_7_rotated.json,621242,709280,30,Woman
112,786056,DepthScenes,duration_manipulation_targetAtFixation,jsons/v1_VE1000_randls_7_rotated.json,http://54.235.29.9/FacialAge/BNav_EC2/DepthDuration/v2_depth_duration_MTurk/v2_DepthDuration_HTML.html#79,79,1024,625,1024,768,8-22-2022,8-18-31,113,depth_duration_stimuli/002213_2014-06-28_18-37-58_260595134347_rgbf000055-resize_1/002213_2014-06-28_18-37-58_260595134347_rgbf000055-resize_1-target.png,1000,3.62,1,2506,999,meters,jsons/v1_VE1000_randls_7_rotated.json,621242,709280,30,Woman
113,786056,DepthScenes,duration_manipulation_targetAtFixation,jsons/v1_VE1000_randls_7_rotated.json,http://54.235.29.9/FacialAge/BNav_EC2/DepthDuration/v2_depth_duration_MTurk/v2_DepthDuration_HTML.html#79,79,1024,625,1024,768,8-22-2022,8-18-31,114,depth_duration_stimuli/001447_2014-06-19_17-00-32_260595134347_rgbf000082-resize_5/001447_2014-06-19_17-00-32_260595134347_rgbf000082-resize_5-target.png,1000,4.13775,1,2425,999,meters,jsons/v1_VE1000_randls_7_rotated.json,621242,709280,30,Woman
114,786056,DepthScenes,duration_manipulation_targetAtFixation,jsons/v1_VE1000_randls_7_rotated.json,http://54.235.29.9/FacialAge/BNav_EC2/DepthDuration/v2_depth_duration_MTurk/v2_DepthDuration_HTML.html#79,79,1024,625,1024,768,8-22-2022,8-18-31,115,depth_duration_stimuli/000447_2014-06-08_16-15-46_260595134347_rgbf000130-resize_1/000447_2014-06-08_16-15-46_260595134347_rgbf000130-resize_1-target.png,1000,4.479,1,4044,1001,meters,jsons/v1_VE1000_randls_7_rotated.json,621242,709280,30,Woman
115,786056,DepthScenes,duration_manipulation_targetAtFixation,jsons/v1_VE1000_randls_7_rotated.json,http://54.235.29.9/FacialAge/BNav_EC2/DepthDuration/v2_depth_duration_MTurk/v2_DepthDuration_HTML.html#79,79,1024,625,1024,768,8-22-2022,8-18-31,116,depth_duration_stimuli/000677_2014-06-08_23-10-32_260595134347_rgbf000158-resize_6/000677_2014-06-08_23-10-32_260595134347_rgbf000158-resize_6-target.png,1000,3.556,1,2884,1001,meters,jsons/v1_VE1000_randls_7_rotated.json,621242,709280,30,Woman
116,786056,DepthScenes,duration_manipulation_targetAtFixation,jsons/v1_VE1000_randls_7_rotated.json,http://54.235.29.9/FacialAge/BNav_EC2/DepthDuration/v2_depth_duration_MTurk/v2_DepthDuration_HTML.html#79,79,1024,625,1024,768,8-22-2022,8-18-31,117,depth_duration_stimuli/001029_2014-06-08_13-17-57_260595134347_rgbf000065-resize_1/001029_2014-06-08_13-17-57_260595134347_rgbf000065-resize_1-target.png,1000,3.0835,1,2684,1011,meters,jsons/v1_VE1000_randls_7_rotated.json,621242,709280,30,Woman
117,786056,DepthScenes,duration_manipulation_targetAtFixation,jsons/v1_VE1000_randls_7_rotated.json,http://54.235.29.9/FacialAge/BNav_EC2/DepthDuration/v2_depth_duration_MTurk/v2_DepthDuration_HTML.html#79,79,1024,625,1024,768,8-22-2022,8-18-31,118,depth_duration_stimuli/002444_2014-06-28_20-32-08_260595134347_rgbf000027-resize_0/002444_2014-06-28_20-32-08_260595134347_rgbf000027-resize_0-target.png,1000,4.388999999999999,1,2874,1000,meters,jsons/v1_VE1000_randls_7_rotated.json,621242,709280,30,Woman
118,786056,DepthScenes,duration_manipulation_targetAtFixation,jsons/v1_VE1000_randls_7_rotated.json,http://54.235.29.9/FacialAge/BNav_EC2/DepthDuration/v2_depth_duration_MTurk/v2_DepthDuration_HTML.html#79,79,1024,625,1024,768,8-22-2022,8-18-31,119,depth_duration_stimuli/000436_2014-06-09_22-25-11_260595134347_rgbf000137-resize_1/000436_2014-06-09_22-25-11_260595134347_rgbf000137-resize_1-target.png,1000,4.0705,1,3387,1004,meters,jsons/v1_VE1000_randls_7_rotated.json,621242,709280,30,Woman
119,786056,DepthScenes,duration_manipulation_targetAtFixation,jsons/v1_VE1000_randls_7_rotated.json,http://54.235.29.9/FacialAge/BNav_EC2/DepthDuration/v2_depth_duration_MTurk/v2_DepthDuration_HTML.html#79,79,1024,625,1024,768,8-22-2022,8-18-31,120,depth_duration_stimuli/000787_2014-06-08_22-33-53_260595134347_rgbf000175-resize_1/000787_2014-06-08_22-33-53_260595134347_rgbf000175-resize-original.jpg,1000,4.784,2,2430,1000,meters,jsons/v1_VE1000_randls_7_rotated.json,621242,709280,30,Woman
120,786056,DepthScenes,duration_manipulation_targetAtFixation,jsons/v1_VE1000_randls_7_rotated.json,http://54.235.29.9/FacialAge/BNav_EC2/DepthDuration/v2_depth_duration_MTurk/v2_DepthDuration_HTML.html#79,79,1024,625,1024,768,8-22-2022,8-18-31,121,depth_duration_stimuli/003495_2014-05-21_16-01-51_094959634447_rgbf000100-resize_3/003495_2014-05-21_16-01-51_094959634447_rgbf000100-resize_3-target.png,1000,1.6255,2,2315,995,meters,jsons/v1_VE1000_randls_7_rotated.json,621242,709280,30,Woman
121,786056,DepthScenes,duration_manipulation_targetAtFixation,jsons/v1_VE1000_randls_7_rotated.json,http://54.235.29.9/FacialAge/BNav_EC2/DepthDuration/v2_depth_duration_MTurk/v2_DepthDuration_HTML.html#79,79,1024,625,1024,768,8-22-2022,8-18-31,122,depth_duration_stimuli/001244_2014-06-17_16-47-45_260595134347_rgbf000030-resize_4/001244_2014-06-17_16-47-45_260595134347_rgbf000030-resize_4-target.png,1000,2.0425,3,2639,1002,meters,jsons/v1_VE1000_randls_7_rotated.json,621242,709280,30,Woman
122,786056,DepthScenes,duration_manipulation_targetAtFixation,jsons/v1_VE1000_randls_7_rotated.json,http://54.235.29.9/FacialAge/BNav_EC2/DepthDuration/v2_depth_duration_MTurk/v2_DepthDuration_HTML.html#79,79,1024,625,1024,768,8-22-2022,8-18-31,123,depth_duration_stimuli/000854_2014-06-09_19-43-13_260595134347_rgbf000066-resize_0/000854_2014-06-09_19-43-13_260595134347_rgbf000066-resize_0-target.png,1000,3.068,2,2707,1000,meters,jsons/v1_VE1000_randls_7_rotated.json,621242,709280,30,Woman
123,786056,DepthScenes,duration_manipulation_targetAtFixation,jsons/v1_VE1000_randls_7_rotated.json,http://54.235.29.9/FacialAge/BNav_EC2/DepthDuration/v2_depth_duration_MTurk/v2_DepthDuration_HTML.html#79,79,1024,625,1024,768,8-22-2022,8-18-31,124,depth_duration_stimuli/000758_2014-06-08_22-05-08_260595134347_rgbf000085-resize_0/000758_2014-06-08_22-05-08_260595134347_rgbf000085-resize_0-target.png,1000,3.3810000000000002,5,11258,774,meters,jsons/v1_VE1000_randls_7_rotated.json,621242,709280,30,Woman
124,786056,DepthScenes,duration_manipulation_targetAtFixation,jsons/v1_VE1000_randls_7_rotated.json,http://54.235.29.9/FacialAge/BNav_EC2/DepthDuration/v2_depth_duration_MTurk/v2_DepthDuration_HTML.html#79,79,1024,625,1024,768,8-22-2022,8-18-31,125,depth_duration_stimuli/002995_2014-06-15_12-31-26_094959634447_rgbf000150-resize_1/002995_2014-06-15_12-31-26_094959634447_rgbf000150-resize_1-target.png,1000,3.8360000000000003,2,5602,1000,meters,jsons/v1_VE1000_randls_7_rotated.json,621242,709280,30,Woman
125,786056,DepthScenes,duration_manipulation_targetAtFixation,jsons/v1_VE1000_randls_7_rotated.json,http://54.235.29.9/FacialAge/BNav_EC2/DepthDuration/v2_depth_duration_MTurk/v2_DepthDuration_HTML.html#79,79,1024,625,1024,768,8-22-2022,8-18-31,126,depth_duration_stimuli/002748_2014-06-22_19-07-22_094959634447_rgbf000078-resize_1/002748_2014-06-22_19-07-22_094959634447_rgbf000078-resize_1-target.png,1000,4.6705,5,11017,1005,meters,jsons/v1_VE1000_randls_7_rotated.json,621242,709280,30,Woman
126,786056,DepthScenes,duration_manipulation_targetAtFixation,jsons/v1_VE1000_randls_7_rotated.json,http://54.235.29.9/FacialAge/BNav_EC2/DepthDuration/v2_depth_duration_MTurk/v2_DepthDuration_HTML.html#79,79,1024,625,1024,768,8-22-2022,8-18-31,127,depth_duration_stimuli/002949_2014-06-26_15-57-42_094959634447_rgbf000079-resize_1/002949_2014-06-26_15-57-42_094959634447_rgbf000079-resize_1-target.png,1000,1.8915,2,45878,1000,meters,jsons/v1_VE1000_randls_7_rotated.json,621242,709280,30,Woman
127,786056,DepthScenes,duration_manipulation_targetAtFixation,jsons/v1_VE1000_randls_7_rotated.json,http://54.235.29.9/FacialAge/BNav_EC2/DepthDuration/v2_depth_duration_MTurk/v2_DepthDuration_HTML.html#79,79,1024,625,1024,768,8-22-2022,8-18-31,128,depth_duration_stimuli/000522_2014-06-08_13-35-06_260595134347_rgbf000244-resize_1/000522_2014-06-08_13-35-06_260595134347_rgbf000244-resize_1-target.png,1000,2.3715,4,3485,1064,meters,jsons/v1_VE1000_randls_7_rotated.json,621242,709280,30,Woman
128,786056,DepthScenes,duration_manipulation_targetAtFixation,jsons/v1_VE1000_randls_7_rotated.json,http://54.235.29.9/FacialAge/BNav_EC2/DepthDuration/v2_depth_duration_MTurk/v2_DepthDuration_HTML.html#79,79,1024,625,1024,768,8-22-2022,8-18-31,129,depth_duration_stimuli/002467_2014-06-28_20-38-07_260595134347_rgbf000026-resize_2/002467_2014-06-28_20-38-07_260595134347_rgbf000026-resize_2-target.png,1000,4.742,4,2605,1010,meters,jsons/v1_VE1000_randls_7_rotated.json,621242,709280,30,Woman
129,786056,DepthScenes,duration_manipulation_targetAtFixation,jsons/v1_VE1000_randls_7_rotated.json,http://54.235.29.9/FacialAge/BNav_EC2/DepthDuration/v2_depth_duration_MTurk/v2_DepthDuration_HTML.html#79,79,1024,625,1024,768,8-22-2022,8-18-31,130,depth_duration_stimuli/002570_2014-06-24_13-59-54_094959634447_rgbf000059-resize_0/002570_2014-06-24_13-59-54_094959634447_rgbf000059-resize_0-target.png,1000,4.037,5,11204,987,meters,jsons/v1_VE1000_randls_7_rotated.json,621242,709280,30,Woman
130,786056,DepthScenes,duration_manipulation_targetAtFixation,jsons/v1_VE1000_randls_7_rotated.json,http://54.235.29.9/FacialAge/BNav_EC2/DepthDuration/v2_depth_duration_MTurk/v2_DepthDuration_HTML.html#79,79,1024,625,1024,768,8-22-2022,8-18-31,131,depth_duration_stimuli/001094_2014-06-15_17-36-00_260595134347_rgbf000205-resize_0/001094_2014-06-15_17-36-00_260595134347_rgbf000205-resize_0-target.png,1000,4.2175,5,2599,956,meters,jsons/v1_VE1000_randls_7_rotated.json,621242,709280,30,Woman
131,786056,DepthScenes,duration_manipulation_targetAtFixation,jsons/v1_VE1000_randls_7_rotated.json,http://54.235.29.9/FacialAge/BNav_EC2/DepthDuration/v2_depth_duration_MTurk/v2_DepthDuration_HTML.html#79,79,1024,625,1024,768,8-22-2022,8-18-31,132,depth_duration_stimuli/000692_2014-06-08_13-09-42_260595134347_rgbf000199-resize_2/000692_2014-06-08_13-09-42_260595134347_rgbf000199-resize_2-target.png,1000,3.661,5,2885,1002,meters,jsons/v1_VE1000_randls_7_rotated.json,621242,709280,30,Woman
132,786056,DepthScenes,duration_manipulation_targetAtFixation,jsons/v1_VE1000_randls_7_rotated.json,http://54.235.29.9/FacialAge/BNav_EC2/DepthDuration/v2_depth_duration_MTurk/v2_DepthDuration_HTML.html#79,79,1024,625,1024,768,8-22-2022,8-18-31,133,depth_duration_stimuli/001100_2014-06-15_17-46-26_260595134347_rgbf000225-resize_2/001100_2014-06-15_17-46-26_260595134347_rgbf000225-resize_2-target.png,1000,2.24,5,2572,1014,meters,jsons/v1_VE1000_randls_7_rotated.json,621242,709280,30,Woman
133,786056,DepthScenes,duration_manipulation_targetAtFixation,jsons/v1_VE1000_randls_7_rotated.json,http://54.235.29.9/FacialAge/BNav_EC2/DepthDuration/v2_depth_duration_MTurk/v2_DepthDuration_HTML.html#79,79,1024,625,1024,768,8-22-2022,8-18-31,134,depth_duration_stimuli/002784_2014-06-22_19-26-30_094959634447_rgbf000083-resize_3/002784_2014-06-22_19-26-30_094959634447_rgbf000083-resize_3-target.png,1000,1.8046666666667,5,2798,1004,meters,jsons/v1_VE1000_randls_7_rotated.json,621242,709280,30,Woman
134,786056,DepthScenes,duration_manipulation_targetAtFixation,jsons/v1_VE1000_randls_7_rotated.json,http://54.235.29.9/FacialAge/BNav_EC2/DepthDuration/v2_depth_duration_MTurk/v2_DepthDuration_HTML.html#79,79,1024,625,1024,768,8-22-2022,8-18-31,135,depth_duration_stimuli/000375_2014-06-08_11-17-29_260595134347_rgbf000133-resize_2/000375_2014-06-08_11-17-29_260595134347_rgbf000133-resize-original.jpg,1000,4.718,5,2161,933,meters,jsons/v1_VE1000_randls_7_rotated.json,621242,709280,30,Woman
135,786056,DepthScenes,duration_manipulation_targetAtFixation,jsons/v1_VE1000_randls_7_rotated.json,http://54.235.29.9/FacialAge/BNav_EC2/DepthDuration/v2_depth_duration_MTurk/v2_DepthDuration_HTML.html#79,79,1024,625,1024,768,8-22-2022,8-18-31,136,depth_duration_stimuli/001571_2014-06-20_17-21-32_260595134347_rgbf000089-resize_1/001571_2014-06-20_17-21-32_260595134347_rgbf000089-resize_1-target.png,1000,1.86,1,2741,994,meters,jsons/v1_VE1000_randls_7_rotated.json,621242,709280,30,Woman
136,786056,DepthScenes,duration_manipulation_targetAtFixation,jsons/v1_VE1000_randls_7_rotated.json,http://54.235.29.9/FacialAge/BNav_EC2/DepthDuration/v2_depth_duration_MTurk/v2_DepthDuration_HTML.html#79,79,1024,625,1024,768,8-22-2022,8-18-31,137,depth_duration_stimuli/002272_2014-06-28_18-53-56_260595134347_rgbf000067-resize_2/002272_2014-06-28_18-53-56_260595134347_rgbf000067-resize_2-target.png,1000,1.138,2,4724,1006,meters,jsons/v1_VE1000_randls_7_rotated.json,621242,709280,30,Woman
137,786056,DepthScenes,duration_manipulation_targetAtFixation,jsons/v1_VE1000_randls_7_rotated.json,http://54.235.29.9/FacialAge/BNav_EC2/DepthDuration/v2_depth_duration_MTurk/v2_DepthDuration_HTML.html#79,79,1024,625,1024,768,8-22-2022,8-18-31,138,depth_duration_stimuli/002678_2014-06-13_16-15-32_094959634447_rgbf000151-resize_6/002678_2014-06-13_16-15-32_094959634447_rgbf000151-resize_6-target.png,1000,2.1830000000000003,2,3979,1143,meters,jsons/v1_VE1000_randls_7_rotated.json,621242,709280,30,Woman
138,786056,DepthScenes,duration_manipulation_targetAtFixation,jsons/v1_VE1000_randls_7_rotated.json,http://54.235.29.9/FacialAge/BNav_EC2/DepthDuration/v2_depth_duration_MTurk/v2_DepthDuration_HTML.html#79,79,1024,625,1024,768,8-22-2022,8-18-31,139,depth_duration_stimuli/000368_2014-06-09_15-53-01_260595134347_rgbf000155-resize_2/000368_2014-06-09_15-53-01_260595134347_rgbf000155-resize_2-target.png,1000,2.4859999999999998,2,2663,998,meters,jsons/v1_VE1000_randls_7_rotated.json,621242,709280,30,Woman
139,786056,DepthScenes,duration_manipulation_targetAtFixation,jsons/v1_VE1000_randls_7_rotated.json,http://54.235.29.9/FacialAge/BNav_EC2/DepthDuration/v2_depth_duration_MTurk/v2_DepthDuration_HTML.html#79,79,1024,625,1024,768,8-22-2022,8-18-31,140,depth_duration_stimuli/002199_2014-06-28_18-33-56_260595134347_rgbf000074-resize_0/002199_2014-06-28_18-33-56_260595134347_rgbf000074-resize_0-target.png,1000,1.996,2,2589,1006,meters,jsons/v1_VE1000_randls_7_rotated.json,621242,709280,30,Woman
140,786056,DepthScenes,duration_manipulation_targetAtFixation,jsons/v1_VE1000_randls_7_rotated.json,http://54.235.29.9/FacialAge/BNav_EC2/DepthDuration/v2_depth_duration_MTurk/v2_DepthDuration_HTML.html#79,79,1024,625,1024,768,8-22-2022,8-18-31,141,depth_duration_stimuli/001056_2014-06-08_18-46-44_260595134347_rgbf000068-resize_0/001056_2014-06-08_18-46-44_260595134347_rgbf000068-resize_0-target.png,1000,2.6625,2,2614,1002,meters,jsons/v1_VE1000_randls_7_rotated.json,621242,709280,30,Woman
141,786056,DepthScenes,duration_manipulation_targetAtFixation,jsons/v1_VE1000_randls_7_rotated.json,http://54.235.29.9/FacialAge/BNav_EC2/DepthDuration/v2_depth_duration_MTurk/v2_DepthDuration_HTML.html#79,79,1024,625,1024,768,8-22-2022,8-18-31,142,depth_duration_stimuli/002425_2014-06-28_20-27-29_260595134347_rgbf000031-resize_8/002425_2014-06-28_20-27-29_260595134347_rgbf000031-resize_8-target.png,1000,3.8960000000000004,2,3419,774,meters,jsons/v1_VE1000_randls_7_rotated.json,621242,709280,30,Woman
142,786056,DepthScenes,duration_manipulation_targetAtFixation,jsons/v1_VE1000_randls_7_rotated.json,http://54.235.29.9/FacialAge/BNav_EC2/DepthDuration/v2_depth_duration_MTurk/v2_DepthDuration_HTML.html#79,79,1024,625,1024,768,8-22-2022,8-18-31,143,depth_duration_stimuli/000642_2014-06-08_16-59-25_260595134347_rgbf000098-resize_2/000642_2014-06-08_16-59-25_260595134347_rgbf000098-resize_2-target.png,1000,2.8815,2,2705,1053,meters,jsons/v1_VE1000_randls_7_rotated.json,621242,709280,30,Woman
143,786056,DepthScenes,duration_manipulation_targetAtFixation,jsons/v1_VE1000_randls_7_rotated.json,http://54.235.29.9/FacialAge/BNav_EC2/DepthDuration/v2_depth_duration_MTurk/v2_DepthDuration_HTML.html#79,79,1024,625,1024,768,8-22-2022,8-18-31,144,depth_duration_stimuli/000734_2014-06-08_17-39-11_260595134347_rgbf000128-resize_2/000734_2014-06-08_17-39-11_260595134347_rgbf000128-resize_2-target.png,1000,4.098,2,4745,407,meters,jsons/v1_VE1000_randls_7_rotated.json,621242,709280,30,Woman
144,786056,DepthScenes,duration_manipulation_targetAtFixation,jsons/v1_VE1000_randls_7_rotated.json,http://54.235.29.9/FacialAge/BNav_EC2/DepthDuration/v2_depth_duration_MTurk/v2_DepthDuration_HTML.html#79,79,1024,625,1024,768,8-22-2022,8-18-31,145,depth_duration_stimuli/000739_2014-06-08_18-45-58_260595134347_rgbf000068-resize_1/000739_2014-06-08_18-45-58_260595134347_rgbf000068-resize_1-target.png,1000,3.534,2,3519,1001,meters,jsons/v1_VE1000_randls_7_rotated.json,621242,709280,30,Woman
145,786056,DepthScenes,duration_manipulation_targetAtFixation,jsons/v1_VE1000_randls_7_rotated.json,http://54.235.29.9/FacialAge/BNav_EC2/DepthDuration/v2_depth_duration_MTurk/v2_DepthDuration_HTML.html#79,79,1024,625,1024,768,8-22-2022,8-18-31,146,depth_duration_stimuli/001815_2014-06-26_20-52-55_260595134347_rgbf000020-resize_0/001815_2014-06-26_20-52-55_260595134347_rgbf000020-resize_0-target.png,1000,3.3865,2,3110,706,meters,jsons/v1_VE1000_randls_7_rotated.json,621242,709280,30,Woman
146,786056,DepthScenes,duration_manipulation_targetAtFixation,jsons/v1_VE1000_randls_7_rotated.json,http://54.235.29.9/FacialAge/BNav_EC2/DepthDuration/v2_depth_duration_MTurk/v2_DepthDuration_HTML.html#79,79,1024,625,1024,768,8-22-2022,8-18-31,147,depth_duration_stimuli/001808_2014-06-26_20-50-58_260595134347_rgbf000029-resize_1/001808_2014-06-26_20-50-58_260595134347_rgbf000029-resize_1-target.png,1000,4.249,1,3022,990,meters,jsons/v1_VE1000_randls_7_rotated.json,621242,709280,30,Woman
147,786056,DepthScenes,duration_manipulation_targetAtFixation,jsons/v1_VE1000_randls_7_rotated.json,http://54.235.29.9/FacialAge/BNav_EC2/DepthDuration/v2_depth_duration_MTurk/v2_DepthDuration_HTML.html#79,79,1024,625,1024,768,8-22-2022,8-18-31,148,depth_duration_stimuli/002637_2014-06-24_14-51-13_094959634447_rgbf000066-resize_4/002637_2014-06-24_14-51-13_094959634447_rgbf000066-resize_4-target.png,1000,1.9955,2,2820,999,meters,jsons/v1_VE1000_randls_7_rotated.json,621242,709280,30,Woman
148,786056,DepthScenes,duration_manipulation_targetAtFixation,jsons/v1_VE1000_randls_7_rotated.json,http://54.235.29.9/FacialAge/BNav_EC2/DepthDuration/v2_depth_duration_MTurk/v2_DepthDuration_HTML.html#79,79,1024,625,1024,768,8-22-2022,8-18-31,149,depth_duration_stimuli/003534_2014-05-22_15-06-10_094959634447_rgbf000102-resize_4/003534_2014-05-22_15-06-10_094959634447_rgbf000102-resize_4-target.png,1000,1.426,2,2870,997,meters,jsons/v1_VE1000_randls_7_rotated.json,621242,709280,30,Woman
149,786056,DepthScenes,duration_manipulation_targetAtFixation,jsons/v1_VE1000_randls_7_rotated.json,http://54.235.29.9/FacialAge/BNav_EC2/DepthDuration/v2_depth_duration_MTurk/v2_DepthDuration_HTML.html#79,79,1024,625,1024,768,8-22-2022,8-18-31,150,depth_duration_stimuli/003048_2014-06-15_13-49-43_094959634447_rgbf000150-resize_1/003048_2014-06-15_13-49-43_094959634447_rgbf000150-resize_1-target.png,1000,4.0035,2,2633,1000,meters,jsons/v1_VE1000_randls_7_rotated.json,621242,709280,30,Woman
150,786056,DepthScenes,duration_manipulation_targetAtFixation,jsons/v1_VE1000_randls_7_rotated.json,http://54.235.29.9/FacialAge/BNav_EC2/DepthDuration/v2_depth_duration_MTurk/v2_DepthDuration_HTML.html#79,79,1024,625,1024,768,8-22-2022,8-18-31,151,depth_duration_stimuli/002043_2014-06-24_20-29-38_260595134347_rgbf000039-resize_4/002043_2014-06-24_20-29-38_260595134347_rgbf000039-resize_4-target.png,1000,2.8435,2,3057,991,meters,jsons/v1_VE1000_randls_7_rotated.json,621242,709280,30,Woman
151,786056,DepthScenes,duration_manipulation_targetAtFixation,jsons/v1_VE1000_randls_7_rotated.json,http://54.235.29.9/FacialAge/BNav_EC2/DepthDuration/v2_depth_duration_MTurk/v2_DepthDuration_HTML.html#79,79,1024,625,1024,768,8-22-2022,8-18-31,152,depth_duration_stimuli/000569_2014-06-09_22-51-47_260595134347_rgbf000141-resize_3/000569_2014-06-09_22-51-47_260595134347_rgbf000141-resize-original.jpg,1000,4.512,2,3050,987,meters,jsons/v1_VE1000_randls_7_rotated.json,621242,709280,30,Woman
152,786056,DepthScenes,duration_manipulation_targetAtFixation,jsons/v1_VE1000_randls_7_rotated.json,http://54.235.29.9/FacialAge/BNav_EC2/DepthDuration/v2_depth_duration_MTurk/v2_DepthDuration_HTML.html#79,79,1024,625,1024,768,8-22-2022,8-18-31,153,depth_duration_stimuli/001516_2014-06-20_16-25-09_260595134347_rgbf000076-resize_2/001516_2014-06-20_16-25-09_260595134347_rgbf000076-resize_2-target.png,1000,1.7445,2,2827,1000,meters,jsons/v1_VE1000_randls_7_rotated.json,621242,709280,30,Woman
153,786056,DepthScenes,duration_manipulation_targetAtFixation,jsons/v1_VE1000_randls_7_rotated.json,http://54.235.29.9/FacialAge/BNav_EC2/DepthDuration/v2_depth_duration_MTurk/v2_DepthDuration_HTML.html#79,79,1024,625,1024,768,8-22-2022,8-18-31,154,depth_duration_stimuli/002118_2014-06-25_20-32-08_260595134347_rgbf000078-resize_1/002118_2014-06-25_20-32-08_260595134347_rgbf000078-resize_1-target.png,1000,2.6460000000000004,2,2651,988,meters,jsons/v1_VE1000_randls_7_rotated.json,621242,709280,30,Woman
154,786056,DepthScenes,duration_manipulation_targetAtFixation,jsons/v1_VE1000_randls_7_rotated.json,http://54.235.29.9/FacialAge/BNav_EC2/DepthDuration/v2_depth_duration_MTurk/v2_DepthDuration_HTML.html#79,79,1024,625,1024,768,8-22-2022,8-18-31,155,depth_duration_stimuli/001617_2014-06-20_11-35-32_260595134347_rgbf000066-resize_1/001617_2014-06-20_11-35-32_260595134347_rgbf000066-resize_1-target.png,1000,3.7910000000000004,2,2925,1008,meters,jsons/v1_VE1000_randls_7_rotated.json,621242,709280,30,Woman
155,786056,DepthScenes,duration_manipulation_targetAtFixation,jsons/v1_VE1000_randls_7_rotated.json,http://54.235.29.9/FacialAge/BNav_EC2/DepthDuration/v2_depth_duration_MTurk/v2_DepthDuration_HTML.html#79,79,1024,625,1024,768,8-22-2022,8-18-31,156,depth_duration_stimuli/001806_2014-06-26_20-50-20_260595134347_rgbf000091-resize_1/001806_2014-06-26_20-50-20_260595134347_rgbf000091-resize_1-target.png,1000,2.7305,2,3923,1000,meters,jsons/v1_VE1000_randls_7_rotated.json,621242,709280,30,Woman
156,786056,DepthScenes,duration_manipulation_targetAtFixation,jsons/v1_VE1000_randls_7_rotated.json,http://54.235.29.9/FacialAge/BNav_EC2/DepthDuration/v2_depth_duration_MTurk/v2_DepthDuration_HTML.html#79,79,1024,625,1024,768,8-22-2022,8-18-31,157,depth_duration_stimuli/001032_2014-06-08_13-23-17_260595134347_rgbf000021-resize_3/001032_2014-06-08_13-23-17_260595134347_rgbf000021-resize_3-target.png,1000,3.2725,2,2616,990,meters,jsons/v1_VE1000_randls_7_rotated.json,621242,709280,30,Woman
157,786056,DepthScenes,duration_manipulation_targetAtFixation,jsons/v1_VE1000_randls_7_rotated.json,http://54.235.29.9/FacialAge/BNav_EC2/DepthDuration/v2_depth_duration_MTurk/v2_DepthDuration_HTML.html#79,79,1024,625,1024,768,8-22-2022,8-18-31,158,depth_duration_stimuli/001059_2014-06-08_21-53-27_260595134347_rgbf000061-resize_4/001059_2014-06-08_21-53-27_260595134347_rgbf000061-resize_4-target.png,1000,2.4185,2,2556,999,meters,jsons/v1_VE1000_randls_7_rotated.json,621242,709280,30,Woman
158,786056,DepthScenes,duration_manipulation_targetAtFixation,jsons/v1_VE1000_randls_7_rotated.json,http://54.235.29.9/FacialAge/BNav_EC2/DepthDuration/v2_depth_duration_MTurk/v2_DepthDuration_HTML.html#79,79,1024,625,1024,768,8-22-2022,8-18-31,159,depth_duration_stimuli/003010_2014-06-15_12-54-35_094959634447_rgbf000112-resize_0/003010_2014-06-15_12-54-35_094959634447_rgbf000112-resize_0-target.png,1000,3.1185,2,3275,1027,meters,jsons/v1_VE1000_randls_7_rotated.json,621242,709280,30,Woman
159,786056,DepthScenes,duration_manipulation_targetAtFixation,jsons/v1_VE1000_randls_7_rotated.json,http://54.235.29.9/FacialAge/BNav_EC2/DepthDuration/v2_depth_duration_MTurk/v2_DepthDuration_HTML.html#79,79,1024,625,1024,768,8-22-2022,8-18-31,160,depth_duration_stimuli/001810_2014-06-26_20-51-35_260595134347_rgbf000040-resize_3/001810_2014-06-26_20-51-35_260595134347_rgbf000040-resize_3-target.png,1000,2.2525,1,2493,993,meters,jsons/v1_VE1000_randls_7_rotated.json,621242,709280,30,Woman
160,786056,DepthScenes,duration_manipulation_targetAtFixation,jsons/v1_VE1000_randls_7_rotated.json,http://54.235.29.9/FacialAge/BNav_EC2/DepthDuration/v2_depth_duration_MTurk/v2_DepthDuration_HTML.html#79,79,1024,625,1024,768,8-22-2022,8-18-31,161,depth_duration_stimuli/001828_2014-06-26_21-40-03_260595134347_rgbf000024-resize_0/001828_2014-06-26_21-40-03_260595134347_rgbf000024-resize_0-target.png,1000,4.8260000000000005,2,3445,990,meters,jsons/v1_VE1000_randls_7_rotated.json,621242,709280,30,Woman
161,786056,DepthScenes,duration_manipulation_targetAtFixation,jsons/v1_VE1000_randls_7_rotated.json,http://54.235.29.9/FacialAge/BNav_EC2/DepthDuration/v2_depth_duration_MTurk/v2_DepthDuration_HTML.html#79,79,1024,625,1024,768,8-22-2022,8-18-31,162,depth_duration_stimuli/000009_2014-05-26_14-32-05_260595134347_rgbf000034-resize_3/000009_2014-05-26_14-32-05_260595134347_rgbf000034-resize_3-target.png,1000,3.8715,2,2703,997,meters,jsons/v1_VE1000_randls_7_rotated.json,621242,709280,30,Woman
162,786056,DepthScenes,duration_manipulation_targetAtFixation,jsons/v1_VE1000_randls_7_rotated.json,http://54.235.29.9/FacialAge/BNav_EC2/DepthDuration/v2_depth_duration_MTurk/v2_DepthDuration_HTML.html#79,79,1024,625,1024,768,8-22-2022,8-18-31,163,depth_duration_stimuli/000780_2014-06-08_22-28-29_260595134347_rgbf000126-resize_1/000780_2014-06-08_22-28-29_260595134347_rgbf000126-resize_1-target.png,1000,3.3825,2,2819,1003,meters,jsons/v1_VE1000_randls_7_rotated.json,621242,709280,30,Woman
163,786056,DepthScenes,duration_manipulation_targetAtFixation,jsons/v1_VE1000_randls_7_rotated.json,http://54.235.29.9/FacialAge/BNav_EC2/DepthDuration/v2_depth_duration_MTurk/v2_DepthDuration_HTML.html#79,79,1024,625,1024,768,8-22-2022,8-18-31,164,depth_duration_stimuli/002445_2014-06-28_20-32-16_260595134347_rgbf000029-resize_4/002445_2014-06-28_20-32-16_260595134347_rgbf000029-resize_4-target.png,1000,2.5315,2,2877,1000,meters,jsons/v1_VE1000_randls_7_rotated.json,621242,709280,30,Woman
