,subjID,experimentName,versionName,sequenceName,url,selected_row,windowWidth,windowHeight,screenWidth,screenHeight,startDate,startTime,trial,stimulus,duration,actual_depth,depth_estimate,trial_RT,log_sceneDuration,unitSelection,seq_filepath,experimentTime,totalTime,age,gender
0,787842,DepthScenes,duration_manipulation_targetAtFixation,jsons/VE125_randls_8_rotated.json,http://54.235.29.9/FacialAge/BNav_EC2/DepthDuration/v2_depth_duration_MTurk/v2_DepthDuration_HTML.html#218,218,1366,625,1366,768,8-29-2022,14-35-22,1,depth_duration_stimuli/001447_2014-06-19_17-00-32_260595134347_rgbf000082-resize_5/001447_2014-06-19_17-00-32_260595134347_rgbf000082-resize_5-target.png,125,4.13775,2.0,10050,125,meters,jsons/VE125_randls_8_rotated.json,1012861,1299225,58,Man
1,787842,DepthScenes,duration_manipulation_targetAtFixation,jsons/VE125_randls_8_rotated.json,http://54.235.29.9/FacialAge/BNav_EC2/DepthDuration/v2_depth_duration_MTurk/v2_DepthDuration_HTML.html#218,218,1366,625,1366,768,8-29-2022,14-35-22,2,depth_duration_stimuli/000447_2014-06-08_16-15-46_260595134347_rgbf000130-resize_1/000447_2014-06-08_16-15-46_260595134347_rgbf000130-resize_1-target.png,125,4.479,2.0,8957,133,meters,jsons/VE125_randls_8_rotated.json,1012861,1299225,58,Man
2,787842,DepthScenes,duration_manipulation_targetAtFixation,jsons/VE125_randls_8_rotated.json,http://54.235.29.9/FacialAge/BNav_EC2/DepthDuration/v2_depth_duration_MTurk/v2_DepthDuration_HTML.html#218,218,1366,625,1366,768,8-29-2022,14-35-22,3,depth_duration_stimuli/002136_2014-06-25_21-18-03_260595134347_rgbf000109-resize_3/002136_2014-06-25_21-18-03_260595134347_rgbf000109-resize_3-target.png,125,1.9569999999999999,5.0,12668,126,meters,jsons/VE125_randls_8_rotated.json,1012861,1299225,58,Man
3,787842,DepthScenes,duration_manipulation_targetAtFixation,jsons/VE125_randls_8_rotated.json,http://54.235.29.9/FacialAge/BNav_EC2/DepthDuration/v2_depth_duration_MTurk/v2_DepthDuration_HTML.html#218,218,1366,625,1366,768,8-29-2022,14-35-22,4,depth_duration_stimuli/002964_2014-06-08_17-46-11_094959634447_rgbf000091-resize_4/002964_2014-06-08_17-46-11_094959634447_rgbf000091-resize_4-target.png,125,1.6909999999999998,2.0,10043,122,meters,jsons/VE125_randls_8_rotated.json,1012861,1299225,58,Man
4,787842,DepthScenes,duration_manipulation_targetAtFixation,jsons/VE125_randls_8_rotated.json,http://54.235.29.9/FacialAge/BNav_EC2/DepthDuration/v2_depth_duration_MTurk/v2_DepthDuration_HTML.html#218,218,1366,625,1366,768,8-29-2022,14-35-22,5,depth_duration_stimuli/000109_2014-05-14_23-41-52_260595134347_rgbf000035-resize_9/000109_2014-05-14_23-41-52_260595134347_rgbf000035-resize_9-target.png,125,1.3545,4.0,10755,125,meters,jsons/VE125_randls_8_rotated.json,1012861,1299225,58,Man
5,787842,DepthScenes,duration_manipulation_targetAtFixation,jsons/VE125_randls_8_rotated.json,http://54.235.29.9/FacialAge/BNav_EC2/DepthDuration/v2_depth_duration_MTurk/v2_DepthDuration_HTML.html#218,218,1366,625,1366,768,8-29-2022,14-35-22,6,depth_duration_stimuli/000470_2014-06-09_19-42-40_260595134347_rgbf000094-resize_1/000470_2014-06-09_19-42-40_260595134347_rgbf000094-resize_1-target.png,125,1.831,2.0,4377,125,meters,jsons/VE125_randls_8_rotated.json,1012861,1299225,58,Man
6,787842,DepthScenes,duration_manipulation_targetAtFixation,jsons/VE125_randls_8_rotated.json,http://54.235.29.9/FacialAge/BNav_EC2/DepthDuration/v2_depth_duration_MTurk/v2_DepthDuration_HTML.html#218,218,1366,625,1366,768,8-29-2022,14-35-22,7,depth_duration_stimuli/002657_2014-06-13_15-29-54_094959634447_rgbf000150-resize_1/002657_2014-06-13_15-29-54_094959634447_rgbf000150-resize_1-target.png,125,4.919,2.0,7342,114,meters,jsons/VE125_randls_8_rotated.json,1012861,1299225,58,Man
7,787842,DepthScenes,duration_manipulation_targetAtFixation,jsons/VE125_randls_8_rotated.json,http://54.235.29.9/FacialAge/BNav_EC2/DepthDuration/v2_depth_duration_MTurk/v2_DepthDuration_HTML.html#218,218,1366,625,1366,768,8-29-2022,14-35-22,8,depth_duration_stimuli/002375_2014-06-28_20-13-44_260595134347_rgbf000032-resize_1/002375_2014-06-28_20-13-44_260595134347_rgbf000032-resize_1-target.png,125,4.0175,2.0,5302,124,meters,jsons/VE125_randls_8_rotated.json,1012861,1299225,58,Man
8,787842,DepthScenes,duration_manipulation_targetAtFixation,jsons/VE125_randls_8_rotated.json,http://54.235.29.9/FacialAge/BNav_EC2/DepthDuration/v2_depth_duration_MTurk/v2_DepthDuration_HTML.html#218,218,1366,625,1366,768,8-29-2022,14-35-22,9,depth_duration_stimuli/001617_2014-06-20_11-35-32_260595134347_rgbf000066-resize_1/001617_2014-06-20_11-35-32_260595134347_rgbf000066-resize_1-target.png,125,3.7910000000000004,1.0,6664,123,meters,jsons/VE125_randls_8_rotated.json,1012861,1299225,58,Man
9,787842,DepthScenes,duration_manipulation_targetAtFixation,jsons/VE125_randls_8_rotated.json,http://54.235.29.9/FacialAge/BNav_EC2/DepthDuration/v2_depth_duration_MTurk/v2_DepthDuration_HTML.html#218,218,1366,625,1366,768,8-29-2022,14-35-22,10,depth_duration_stimuli/001806_2014-06-26_20-50-20_260595134347_rgbf000091-resize_1/001806_2014-06-26_20-50-20_260595134347_rgbf000091-resize_1-target.png,125,2.7305,0.0,4669,125,meters,jsons/VE125_randls_8_rotated.json,1012861,1299225,58,Man
10,787842,DepthScenes,duration_manipulation_targetAtFixation,jsons/VE125_randls_8_rotated.json,http://54.235.29.9/FacialAge/BNav_EC2/DepthDuration/v2_depth_duration_MTurk/v2_DepthDuration_HTML.html#218,218,1366,625,1366,768,8-29-2022,14-35-22,11,depth_duration_stimuli/002344_2014-06-28_20-06-29_260595134347_rgbf000030-resize_1/002344_2014-06-28_20-06-29_260595134347_rgbf000030-resize_1-target.png,125,1.5795,2.0,7177,122,meters,jsons/VE125_randls_8_rotated.json,1012861,1299225,58,Man
11,787842,DepthScenes,duration_manipulation_targetAtFixation,jsons/VE125_randls_8_rotated.json,http://54.235.29.9/FacialAge/BNav_EC2/DepthDuration/v2_depth_duration_MTurk/v2_DepthDuration_HTML.html#218,218,1366,625,1366,768,8-29-2022,14-35-22,12,depth_duration_stimuli/002725_2014-06-22_11-47-51_094959634447_rgbf000070-resize_1/002725_2014-06-22_11-47-51_094959634447_rgbf000070-resize_1-target.png,125,2.195,1.0,4352,123,meters,jsons/VE125_randls_8_rotated.json,1012861,1299225,58,Man
12,787842,DepthScenes,duration_manipulation_targetAtFixation,jsons/VE125_randls_8_rotated.json,http://54.235.29.9/FacialAge/BNav_EC2/DepthDuration/v2_depth_duration_MTurk/v2_DepthDuration_HTML.html#218,218,1366,625,1366,768,8-29-2022,14-35-22,13,depth_duration_stimuli/002875_2014-06-01_15-19-00_094959634447_rgbf000151-resize_1/002875_2014-06-01_15-19-00_094959634447_rgbf000151-resize_1-target.png,125,1.9675,2.0,10053,124,meters,jsons/VE125_randls_8_rotated.json,1012861,1299225,58,Man
13,787842,DepthScenes,duration_manipulation_targetAtFixation,jsons/VE125_randls_8_rotated.json,http://54.235.29.9/FacialAge/BNav_EC2/DepthDuration/v2_depth_duration_MTurk/v2_DepthDuration_HTML.html#218,218,1366,625,1366,768,8-29-2022,14-35-22,14,depth_duration_stimuli/001011_2014-06-08_23-18-54_260595134347_rgbf000044-resize_4/001011_2014-06-08_23-18-54_260595134347_rgbf000044-resize_4-target.png,125,2.4730000000000003,2.0,3925,122,meters,jsons/VE125_randls_8_rotated.json,1012861,1299225,58,Man
14,787842,DepthScenes,duration_manipulation_targetAtFixation,jsons/VE125_randls_8_rotated.json,http://54.235.29.9/FacialAge/BNav_EC2/DepthDuration/v2_depth_duration_MTurk/v2_DepthDuration_HTML.html#218,218,1366,625,1366,768,8-29-2022,14-35-22,15,depth_duration_stimuli/001815_2014-06-26_20-52-55_260595134347_rgbf000020-resize_0/001815_2014-06-26_20-52-55_260595134347_rgbf000020-resize_0-target.png,125,3.3865,2.0,5991,124,meters,jsons/VE125_randls_8_rotated.json,1012861,1299225,58,Man
15,787842,DepthScenes,duration_manipulation_targetAtFixation,jsons/VE125_randls_8_rotated.json,http://54.235.29.9/FacialAge/BNav_EC2/DepthDuration/v2_depth_duration_MTurk/v2_DepthDuration_HTML.html#218,218,1366,625,1366,768,8-29-2022,14-35-22,16,depth_duration_stimuli/001808_2014-06-26_20-50-58_260595134347_rgbf000029-resize_1/001808_2014-06-26_20-50-58_260595134347_rgbf000029-resize_1-target.png,125,4.249,1.0,4283,123,meters,jsons/VE125_randls_8_rotated.json,1012861,1299225,58,Man
16,787842,DepthScenes,duration_manipulation_targetAtFixation,jsons/VE125_randls_8_rotated.json,http://54.235.29.9/FacialAge/BNav_EC2/DepthDuration/v2_depth_duration_MTurk/v2_DepthDuration_HTML.html#218,218,1366,625,1366,768,8-29-2022,14-35-22,17,depth_duration_stimuli/000549_2014-06-08_22-10-24_260595134347_rgbf000247-resize_3/000549_2014-06-08_22-10-24_260595134347_rgbf000247-resize_3-target.png,125,1.841,2.0,4827,124,meters,jsons/VE125_randls_8_rotated.json,1012861,1299225,58,Man
17,787842,DepthScenes,duration_manipulation_targetAtFixation,jsons/VE125_randls_8_rotated.json,http://54.235.29.9/FacialAge/BNav_EC2/DepthDuration/v2_depth_duration_MTurk/v2_DepthDuration_HTML.html#218,218,1366,625,1366,768,8-29-2022,14-35-22,18,depth_duration_stimuli/001055_2014-06-08_18-45-35_260595134347_rgbf000111-resize_4/001055_2014-06-08_18-45-35_260595134347_rgbf000111-resize_4-target.png,125,2.4290000000000003,4.0,3160,114,meters,jsons/VE125_randls_8_rotated.json,1012861,1299225,58,Man
18,787842,DepthScenes,duration_manipulation_targetAtFixation,jsons/VE125_randls_8_rotated.json,http://54.235.29.9/FacialAge/BNav_EC2/DepthDuration/v2_depth_duration_MTurk/v2_DepthDuration_HTML.html#218,218,1366,625,1366,768,8-29-2022,14-35-22,19,depth_duration_stimuli/001498_2014-06-19_17-45-14_260595134347_rgbf000129-resize_4/001498_2014-06-19_17-45-14_260595134347_rgbf000129-resize-original.jpg,125,1.4075,0.0,4330,124,meters,jsons/VE125_randls_8_rotated.json,1012861,1299225,58,Man
19,787842,DepthScenes,duration_manipulation_targetAtFixation,jsons/VE125_randls_8_rotated.json,http://54.235.29.9/FacialAge/BNav_EC2/DepthDuration/v2_depth_duration_MTurk/v2_DepthDuration_HTML.html#218,218,1366,625,1366,768,8-29-2022,14-35-22,20,depth_duration_stimuli/002340_2014-06-28_20-05-46_260595134347_rgbf000113-resize_0/002340_2014-06-28_20-05-46_260595134347_rgbf000113-resize_0-target.png,125,2.4735,2.0,5676,125,meters,jsons/VE125_randls_8_rotated.json,1012861,1299225,58,Man
20,787842,DepthScenes,duration_manipulation_targetAtFixation,jsons/VE125_randls_8_rotated.json,http://54.235.29.9/FacialAge/BNav_EC2/DepthDuration/v2_depth_duration_MTurk/v2_DepthDuration_HTML.html#218,218,1366,625,1366,768,8-29-2022,14-35-22,21,depth_duration_stimuli/001016_2014-06-09_16-16-10_260595134347_rgbf000112-resize_5/001016_2014-06-09_16-16-10_260595134347_rgbf000112-resize_5-target.png,125,1.6565,1.0,4923,124,meters,jsons/VE125_randls_8_rotated.json,1012861,1299225,58,Man
21,787842,DepthScenes,duration_manipulation_targetAtFixation,jsons/VE125_randls_8_rotated.json,http://54.235.29.9/FacialAge/BNav_EC2/DepthDuration/v2_depth_duration_MTurk/v2_DepthDuration_HTML.html#218,218,1366,625,1366,768,8-29-2022,14-35-22,22,depth_duration_stimuli/002953_2014-06-08_17-32-18_094959634447_rgbf000059-resize_5/002953_2014-06-08_17-32-18_094959634447_rgbf000059-resize_5-target.png,125,1.551,2.0,4249,121,meters,jsons/VE125_randls_8_rotated.json,1012861,1299225,58,Man
22,787842,DepthScenes,duration_manipulation_targetAtFixation,jsons/VE125_randls_8_rotated.json,http://54.235.29.9/FacialAge/BNav_EC2/DepthDuration/v2_depth_duration_MTurk/v2_DepthDuration_HTML.html#218,218,1366,625,1366,768,8-29-2022,14-35-22,23,depth_duration_stimuli/000878_2014-06-08_22-52-45_260595134347_rgbf000045-resize_2/000878_2014-06-08_22-52-45_260595134347_rgbf000045-resize_2-target.png,125,2.092,0.0,3083,125,meters,jsons/VE125_randls_8_rotated.json,1012861,1299225,58,Man
23,787842,DepthScenes,duration_manipulation_targetAtFixation,jsons/VE125_randls_8_rotated.json,http://54.235.29.9/FacialAge/BNav_EC2/DepthDuration/v2_depth_duration_MTurk/v2_DepthDuration_HTML.html#218,218,1366,625,1366,768,8-29-2022,14-35-22,24,depth_duration_stimuli/002750_2014-06-22_19-08-03_094959634447_rgbf000094-resize_4/002750_2014-06-22_19-08-03_094959634447_rgbf000094-resize_4-target.png,125,2.354,2.0,4298,125,meters,jsons/VE125_randls_8_rotated.json,1012861,1299225,58,Man
24,787842,DepthScenes,duration_manipulation_targetAtFixation,jsons/VE125_randls_8_rotated.json,http://54.235.29.9/FacialAge/BNav_EC2/DepthDuration/v2_depth_duration_MTurk/v2_DepthDuration_HTML.html#218,218,1366,625,1366,768,8-29-2022,14-35-22,25,depth_duration_stimuli/002549_2014-06-24_13-41-39_094959634447_rgbf000022-resize_3/002549_2014-06-24_13-41-39_094959634447_rgbf000022-resize_3-target.png,125,1.476,4.0,2970,124,meters,jsons/VE125_randls_8_rotated.json,1012861,1299225,58,Man
25,787842,DepthScenes,duration_manipulation_targetAtFixation,jsons/VE125_randls_8_rotated.json,http://54.235.29.9/FacialAge/BNav_EC2/DepthDuration/v2_depth_duration_MTurk/v2_DepthDuration_HTML.html#218,218,1366,625,1366,768,8-29-2022,14-35-22,26,depth_duration_stimuli/000780_2014-06-08_22-28-29_260595134347_rgbf000126-resize_1/000780_2014-06-08_22-28-29_260595134347_rgbf000126-resize_1-target.png,125,3.3825,4.0,5044,126,meters,jsons/VE125_randls_8_rotated.json,1012861,1299225,58,Man
26,787842,DepthScenes,duration_manipulation_targetAtFixation,jsons/VE125_randls_8_rotated.json,http://54.235.29.9/FacialAge/BNav_EC2/DepthDuration/v2_depth_duration_MTurk/v2_DepthDuration_HTML.html#218,218,1366,625,1366,768,8-29-2022,14-35-22,27,depth_duration_stimuli/002445_2014-06-28_20-32-16_260595134347_rgbf000029-resize_4/002445_2014-06-28_20-32-16_260595134347_rgbf000029-resize_4-target.png,125,2.5315,4.0,20229,125,meters,jsons/VE125_randls_8_rotated.json,1012861,1299225,58,Man
27,787842,DepthScenes,duration_manipulation_targetAtFixation,jsons/VE125_randls_8_rotated.json,http://54.235.29.9/FacialAge/BNav_EC2/DepthDuration/v2_depth_duration_MTurk/v2_DepthDuration_HTML.html#218,218,1366,625,1366,768,8-29-2022,14-35-22,28,depth_duration_stimuli/003228_2014-05-14_13-42-35_094959634447_rgbf000101-resize_1/003228_2014-05-14_13-42-35_094959634447_rgbf000101-resize_1-target.png,125,1.9680000000000002,2.0,6266,125,meters,jsons/VE125_randls_8_rotated.json,1012861,1299225,58,Man
28,787842,DepthScenes,duration_manipulation_targetAtFixation,jsons/VE125_randls_8_rotated.json,http://54.235.29.9/FacialAge/BNav_EC2/DepthDuration/v2_depth_duration_MTurk/v2_DepthDuration_HTML.html#218,218,1366,625,1366,768,8-29-2022,14-35-22,29,depth_duration_stimuli/002600_2014-06-24_14-27-04_094959634447_rgbf000074-resize_2/002600_2014-06-24_14-27-04_094959634447_rgbf000074-resize_2-target.png,125,2.7575,2.0,5061,125,meters,jsons/VE125_randls_8_rotated.json,1012861,1299225,58,Man
29,787842,DepthScenes,duration_manipulation_targetAtFixation,jsons/VE125_randls_8_rotated.json,http://54.235.29.9/FacialAge/BNav_EC2/DepthDuration/v2_depth_duration_MTurk/v2_DepthDuration_HTML.html#218,218,1366,625,1366,768,8-29-2022,14-35-22,30,depth_duration_stimuli/002072_2014-06-24_21-48-06_260595134347_rgbf000115-resize_0/002072_2014-06-24_21-48-06_260595134347_rgbf000115-resize-original.jpg,125,4.702,0.0,4884,124,meters,jsons/VE125_randls_8_rotated.json,1012861,1299225,58,Man
30,787842,DepthScenes,duration_manipulation_targetAtFixation,jsons/VE125_randls_8_rotated.json,http://54.235.29.9/FacialAge/BNav_EC2/DepthDuration/v2_depth_duration_MTurk/v2_DepthDuration_HTML.html#218,218,1366,625,1366,768,8-29-2022,14-35-22,31,depth_duration_stimuli/000709_2014-06-08_13-51-55_260595134347_rgbf000068-resize_3/000709_2014-06-08_13-51-55_260595134347_rgbf000068-resize_3-target.png,125,1.8030000000000002,2.0,4699,126,meters,jsons/VE125_randls_8_rotated.json,1012861,1299225,58,Man
31,787842,DepthScenes,duration_manipulation_targetAtFixation,jsons/VE125_randls_8_rotated.json,http://54.235.29.9/FacialAge/BNav_EC2/DepthDuration/v2_depth_duration_MTurk/v2_DepthDuration_HTML.html#218,218,1366,625,1366,768,8-29-2022,14-35-22,32,depth_duration_stimuli/002057_2014-06-24_21-00-13_260595134347_rgbf000120-resize_1/002057_2014-06-24_21-00-13_260595134347_rgbf000120-resize_1-target.png,125,2.967,1.0,3154,126,meters,jsons/VE125_randls_8_rotated.json,1012861,1299225,58,Man
32,787842,DepthScenes,duration_manipulation_targetAtFixation,jsons/VE125_randls_8_rotated.json,http://54.235.29.9/FacialAge/BNav_EC2/DepthDuration/v2_depth_duration_MTurk/v2_DepthDuration_HTML.html#218,218,1366,625,1366,768,8-29-2022,14-35-22,33,depth_duration_stimuli/000103_2014-05-14_22-01-17_260595134347_rgbf000152-resize_5/000103_2014-05-14_22-01-17_260595134347_rgbf000152-resize_5-target.png,125,1.993,4.0,4966,124,meters,jsons/VE125_randls_8_rotated.json,1012861,1299225,58,Man
33,787842,DepthScenes,duration_manipulation_targetAtFixation,jsons/VE125_randls_8_rotated.json,http://54.235.29.9/FacialAge/BNav_EC2/DepthDuration/v2_depth_duration_MTurk/v2_DepthDuration_HTML.html#218,218,1366,625,1366,768,8-29-2022,14-35-22,34,depth_duration_stimuli/001555_2014-06-20_17-12-10_260595134347_rgbf000065-resize_4/001555_2014-06-20_17-12-10_260595134347_rgbf000065-resize_4-target.png,125,1.633,4.0,3986,124,meters,jsons/VE125_randls_8_rotated.json,1012861,1299225,58,Man
34,787842,DepthScenes,duration_manipulation_targetAtFixation,jsons/VE125_randls_8_rotated.json,http://54.235.29.9/FacialAge/BNav_EC2/DepthDuration/v2_depth_duration_MTurk/v2_DepthDuration_HTML.html#218,218,1366,625,1366,768,8-29-2022,14-35-22,35,depth_duration_stimuli/001094_2014-06-15_17-36-00_260595134347_rgbf000205-resize_0/001094_2014-06-15_17-36-00_260595134347_rgbf000205-resize_0-target.png,125,4.2175,3.0,3997,126,meters,jsons/VE125_randls_8_rotated.json,1012861,1299225,58,Man
35,787842,DepthScenes,duration_manipulation_targetAtFixation,jsons/VE125_randls_8_rotated.json,http://54.235.29.9/FacialAge/BNav_EC2/DepthDuration/v2_depth_duration_MTurk/v2_DepthDuration_HTML.html#218,218,1366,625,1366,768,8-29-2022,14-35-22,36,depth_duration_stimuli/000692_2014-06-08_13-09-42_260595134347_rgbf000199-resize_2/000692_2014-06-08_13-09-42_260595134347_rgbf000199-resize_2-target.png,125,3.661,2.0,4763,122,meters,jsons/VE125_randls_8_rotated.json,1012861,1299225,58,Man
36,787842,DepthScenes,duration_manipulation_targetAtFixation,jsons/VE125_randls_8_rotated.json,http://54.235.29.9/FacialAge/BNav_EC2/DepthDuration/v2_depth_duration_MTurk/v2_DepthDuration_HTML.html#218,218,1366,625,1366,768,8-29-2022,14-35-22,37,depth_duration_stimuli/001052_2014-06-08_18-24-54_260595134347_rgbf000130-resize_1/001052_2014-06-08_18-24-54_260595134347_rgbf000130-resize_1-target.png,125,4.1045,3.0,5387,118,meters,jsons/VE125_randls_8_rotated.json,1012861,1299225,58,Man
37,787842,DepthScenes,duration_manipulation_targetAtFixation,jsons/VE125_randls_8_rotated.json,http://54.235.29.9/FacialAge/BNav_EC2/DepthDuration/v2_depth_duration_MTurk/v2_DepthDuration_HTML.html#218,218,1366,625,1366,768,8-29-2022,14-35-22,38,depth_duration_stimuli/002988_2014-06-15_12-24-20_094959634447_rgbf000150-resize_1/002988_2014-06-15_12-24-20_094959634447_rgbf000150-resize_1-target.png,125,4.7669999999999995,2.0,12477,126,meters,jsons/VE125_randls_8_rotated.json,1012861,1299225,58,Man
38,787842,DepthScenes,duration_manipulation_targetAtFixation,jsons/VE125_randls_8_rotated.json,http://54.235.29.9/FacialAge/BNav_EC2/DepthDuration/v2_depth_duration_MTurk/v2_DepthDuration_HTML.html#218,218,1366,625,1366,768,8-29-2022,14-35-22,39,depth_duration_stimuli/003048_2014-06-15_13-49-43_094959634447_rgbf000150-resize_1/003048_2014-06-15_13-49-43_094959634447_rgbf000150-resize_1-target.png,125,4.0035,3.0,4817,126,meters,jsons/VE125_randls_8_rotated.json,1012861,1299225,58,Man
39,787842,DepthScenes,duration_manipulation_targetAtFixation,jsons/VE125_randls_8_rotated.json,http://54.235.29.9/FacialAge/BNav_EC2/DepthDuration/v2_depth_duration_MTurk/v2_DepthDuration_HTML.html#218,218,1366,625,1366,768,8-29-2022,14-35-22,40,depth_duration_stimuli/002043_2014-06-24_20-29-38_260595134347_rgbf000039-resize_4/002043_2014-06-24_20-29-38_260595134347_rgbf000039-resize_4-target.png,125,2.8435,4.0,3051,125,meters,jsons/VE125_randls_8_rotated.json,1012861,1299225,58,Man
40,787842,DepthScenes,duration_manipulation_targetAtFixation,jsons/VE125_randls_8_rotated.json,http://54.235.29.9/FacialAge/BNav_EC2/DepthDuration/v2_depth_duration_MTurk/v2_DepthDuration_HTML.html#218,218,1366,625,1366,768,8-29-2022,14-35-22,41,depth_duration_stimuli/002467_2014-06-28_20-38-07_260595134347_rgbf000026-resize_2/002467_2014-06-28_20-38-07_260595134347_rgbf000026-resize_2-target.png,125,4.742,4.0,8773,125,meters,jsons/VE125_randls_8_rotated.json,1012861,1299225,58,Man
41,787842,DepthScenes,duration_manipulation_targetAtFixation,jsons/VE125_randls_8_rotated.json,http://54.235.29.9/FacialAge/BNav_EC2/DepthDuration/v2_depth_duration_MTurk/v2_DepthDuration_HTML.html#218,218,1366,625,1366,768,8-29-2022,14-35-22,42,depth_duration_stimuli/002570_2014-06-24_13-59-54_094959634447_rgbf000059-resize_0/002570_2014-06-24_13-59-54_094959634447_rgbf000059-resize_0-target.png,125,4.037,4.0,9427,124,meters,jsons/VE125_randls_8_rotated.json,1012861,1299225,58,Man
42,787842,DepthScenes,duration_manipulation_targetAtFixation,jsons/VE125_randls_8_rotated.json,http://54.235.29.9/FacialAge/BNav_EC2/DepthDuration/v2_depth_duration_MTurk/v2_DepthDuration_HTML.html#218,218,1366,625,1366,768,8-29-2022,14-35-22,43,depth_duration_stimuli/000691_2014-06-08_13-08-50_260595134347_rgbf000132-resize_3/000691_2014-06-08_13-08-50_260595134347_rgbf000132-resize_3-target.png,125,4.1530000000000005,2.0,4661,124,meters,jsons/VE125_randls_8_rotated.json,1012861,1299225,58,Man
43,787842,DepthScenes,duration_manipulation_targetAtFixation,jsons/VE125_randls_8_rotated.json,http://54.235.29.9/FacialAge/BNav_EC2/DepthDuration/v2_depth_duration_MTurk/v2_DepthDuration_HTML.html#218,218,1366,625,1366,768,8-29-2022,14-35-22,44,depth_duration_stimuli/002213_2014-06-28_18-37-58_260595134347_rgbf000055-resize_1/002213_2014-06-28_18-37-58_260595134347_rgbf000055-resize_1-target.png,125,3.62,1.0,2979,125,meters,jsons/VE125_randls_8_rotated.json,1012861,1299225,58,Man
44,787842,DepthScenes,duration_manipulation_targetAtFixation,jsons/VE125_randls_8_rotated.json,http://54.235.29.9/FacialAge/BNav_EC2/DepthDuration/v2_depth_duration_MTurk/v2_DepthDuration_HTML.html#218,218,1366,625,1366,768,8-29-2022,14-35-22,45,depth_duration_stimuli/001571_2014-06-20_17-21-32_260595134347_rgbf000089-resize_1/001571_2014-06-20_17-21-32_260595134347_rgbf000089-resize_1-target.png,125,1.86,4.0,3887,135,meters,jsons/VE125_randls_8_rotated.json,1012861,1299225,58,Man
45,787842,DepthScenes,duration_manipulation_targetAtFixation,jsons/VE125_randls_8_rotated.json,http://54.235.29.9/FacialAge/BNav_EC2/DepthDuration/v2_depth_duration_MTurk/v2_DepthDuration_HTML.html#218,218,1366,625,1366,768,8-29-2022,14-35-22,46,depth_duration_stimuli/002272_2014-06-28_18-53-56_260595134347_rgbf000067-resize_2/002272_2014-06-28_18-53-56_260595134347_rgbf000067-resize_2-target.png,125,1.138,4.0,11195,124,meters,jsons/VE125_randls_8_rotated.json,1012861,1299225,58,Man
46,787842,DepthScenes,duration_manipulation_targetAtFixation,jsons/VE125_randls_8_rotated.json,http://54.235.29.9/FacialAge/BNav_EC2/DepthDuration/v2_depth_duration_MTurk/v2_DepthDuration_HTML.html#218,218,1366,625,1366,768,8-29-2022,14-35-22,47,depth_duration_stimuli/002949_2014-06-26_15-57-42_094959634447_rgbf000079-resize_1/002949_2014-06-26_15-57-42_094959634447_rgbf000079-resize_1-target.png,125,1.8915,3.0,4676,125,meters,jsons/VE125_randls_8_rotated.json,1012861,1299225,58,Man
47,787842,DepthScenes,duration_manipulation_targetAtFixation,jsons/VE125_randls_8_rotated.json,http://54.235.29.9/FacialAge/BNav_EC2/DepthDuration/v2_depth_duration_MTurk/v2_DepthDuration_HTML.html#218,218,1366,625,1366,768,8-29-2022,14-35-22,48,depth_duration_stimuli/000522_2014-06-08_13-35-06_260595134347_rgbf000244-resize_1/000522_2014-06-08_13-35-06_260595134347_rgbf000244-resize_1-target.png,125,2.3715,2.0,3274,125,meters,jsons/VE125_randls_8_rotated.json,1012861,1299225,58,Man
48,787842,DepthScenes,duration_manipulation_targetAtFixation,jsons/VE125_randls_8_rotated.json,http://54.235.29.9/FacialAge/BNav_EC2/DepthDuration/v2_depth_duration_MTurk/v2_DepthDuration_HTML.html#218,218,1366,625,1366,768,8-29-2022,14-35-22,49,depth_duration_stimuli/001170_2014-06-17_15-43-44_260595134347_rgbf000096-resize_6/001170_2014-06-17_15-43-44_260595134347_rgbf000096-resize-original.jpg,125,1.1909999999999998,0.0,4116,125,meters,jsons/VE125_randls_8_rotated.json,1012861,1299225,58,Man
49,787842,DepthScenes,duration_manipulation_targetAtFixation,jsons/VE125_randls_8_rotated.json,http://54.235.29.9/FacialAge/BNav_EC2/DepthDuration/v2_depth_duration_MTurk/v2_DepthDuration_HTML.html#218,218,1366,625,1366,768,8-29-2022,14-35-22,50,depth_duration_stimuli/002660_2014-06-13_15-44-18_094959634447_rgbf001878-resize_2/002660_2014-06-13_15-44-18_094959634447_rgbf001878-resize_2-target.png,125,3.576,4.0,4402,125,meters,jsons/VE125_randls_8_rotated.json,1012861,1299225,58,Man
50,787842,DepthScenes,duration_manipulation_targetAtFixation,jsons/VE125_randls_8_rotated.json,http://54.235.29.9/FacialAge/BNav_EC2/DepthDuration/v2_depth_duration_MTurk/v2_DepthDuration_HTML.html#218,218,1366,625,1366,768,8-29-2022,14-35-22,51,depth_duration_stimuli/002153_2014-06-25_21-27-18_260595134347_rgbf000038-resize_5/002153_2014-06-25_21-27-18_260595134347_rgbf000038-resize_5-target.png,125,2.505,2.0,3531,126,meters,jsons/VE125_randls_8_rotated.json,1012861,1299225,58,Man
51,787842,DepthScenes,duration_manipulation_targetAtFixation,jsons/VE125_randls_8_rotated.json,http://54.235.29.9/FacialAge/BNav_EC2/DepthDuration/v2_depth_duration_MTurk/v2_DepthDuration_HTML.html#218,218,1366,625,1366,768,8-29-2022,14-35-22,52,depth_duration_stimuli/000635_2014-06-08_16-38-42_260595134347_rgbf000106-resize_1/000635_2014-06-08_16-38-42_260595134347_rgbf000106-resize_1-target.png,125,2.074,3.0,3772,126,meters,jsons/VE125_randls_8_rotated.json,1012861,1299225,58,Man
52,787842,DepthScenes,duration_manipulation_targetAtFixation,jsons/VE125_randls_8_rotated.json,http://54.235.29.9/FacialAge/BNav_EC2/DepthDuration/v2_depth_duration_MTurk/v2_DepthDuration_HTML.html#218,218,1366,625,1366,768,8-29-2022,14-35-22,53,depth_duration_stimuli/002279_2014-06-28_18-55-32_260595134347_rgbf000040-resize_5/002279_2014-06-28_18-55-32_260595134347_rgbf000040-resize_5-target.png,125,1.5043333333333,2.0,2932,125,meters,jsons/VE125_randls_8_rotated.json,1012861,1299225,58,Man
53,787842,DepthScenes,duration_manipulation_targetAtFixation,jsons/VE125_randls_8_rotated.json,http://54.235.29.9/FacialAge/BNav_EC2/DepthDuration/v2_depth_duration_MTurk/v2_DepthDuration_HTML.html#218,218,1366,625,1366,768,8-29-2022,14-35-22,54,depth_duration_stimuli/003423_2014-05-21_10-23-26_094959634447_rgbf002665-resize_2/003423_2014-05-21_10-23-26_094959634447_rgbf002665-resize_2-target.png,125,3.2575,2.0,5105,125,meters,jsons/VE125_randls_8_rotated.json,1012861,1299225,58,Man
54,787842,DepthScenes,duration_manipulation_targetAtFixation,jsons/VE125_randls_8_rotated.json,http://54.235.29.9/FacialAge/BNav_EC2/DepthDuration/v2_depth_duration_MTurk/v2_DepthDuration_HTML.html#218,218,1366,625,1366,768,8-29-2022,14-35-22,55,depth_duration_stimuli/002905_2014-06-03_18-04-43_094959634447_rgbf000151-resize_2/002905_2014-06-03_18-04-43_094959634447_rgbf000151-resize_2-target.png,125,2.0295,4.0,6193,123,meters,jsons/VE125_randls_8_rotated.json,1012861,1299225,58,Man
55,787842,DepthScenes,duration_manipulation_targetAtFixation,jsons/VE125_randls_8_rotated.json,http://54.235.29.9/FacialAge/BNav_EC2/DepthDuration/v2_depth_duration_MTurk/v2_DepthDuration_HTML.html#218,218,1366,625,1366,768,8-29-2022,14-35-22,56,depth_duration_stimuli/000734_2014-06-08_17-39-11_260595134347_rgbf000128-resize_2/000734_2014-06-08_17-39-11_260595134347_rgbf000128-resize_2-target.png,125,4.098,4.0,36975,125,meters,jsons/VE125_randls_8_rotated.json,1012861,1299225,58,Man
56,787842,DepthScenes,duration_manipulation_targetAtFixation,jsons/VE125_randls_8_rotated.json,http://54.235.29.9/FacialAge/BNav_EC2/DepthDuration/v2_depth_duration_MTurk/v2_DepthDuration_HTML.html#218,218,1366,625,1366,768,8-29-2022,14-35-22,57,depth_duration_stimuli/000739_2014-06-08_18-45-58_260595134347_rgbf000068-resize_1/000739_2014-06-08_18-45-58_260595134347_rgbf000068-resize_1-target.png,125,3.534,0.0,3219,124,meters,jsons/VE125_randls_8_rotated.json,1012861,1299225,58,Man
57,787842,DepthScenes,duration_manipulation_targetAtFixation,jsons/VE125_randls_8_rotated.json,http://54.235.29.9/FacialAge/BNav_EC2/DepthDuration/v2_depth_duration_MTurk/v2_DepthDuration_HTML.html#218,218,1366,625,1366,768,8-29-2022,14-35-22,58,depth_duration_stimuli/003083_2014-06-15_15-21-03_094959634447_rgbf000063-resize_1/003083_2014-06-15_15-21-03_094959634447_rgbf000063-resize_1-target.png,125,4.1405,7.0,4074,125,meters,jsons/VE125_randls_8_rotated.json,1012861,1299225,58,Man
58,787842,DepthScenes,duration_manipulation_targetAtFixation,jsons/VE125_randls_8_rotated.json,http://54.235.29.9/FacialAge/BNav_EC2/DepthDuration/v2_depth_duration_MTurk/v2_DepthDuration_HTML.html#218,218,1366,625,1366,768,8-29-2022,14-35-22,59,depth_duration_stimuli/000486_2014-06-09_20-47-20_260595134347_rgbf000143-resize_2/000486_2014-06-09_20-47-20_260595134347_rgbf000143-resize_2-target.png,125,4.8325,5.0,3580,125,meters,jsons/VE125_randls_8_rotated.json,1012861,1299225,58,Man
59,787842,DepthScenes,duration_manipulation_targetAtFixation,jsons/VE125_randls_8_rotated.json,http://54.235.29.9/FacialAge/BNav_EC2/DepthDuration/v2_depth_duration_MTurk/v2_DepthDuration_HTML.html#218,218,1366,625,1366,768,8-29-2022,14-35-22,60,depth_duration_stimuli/002545_2014-06-24_13-38-53_094959634447_rgbf000080-resize_4/002545_2014-06-24_13-38-53_094959634447_rgbf000080-resize_4-target.png,125,1.9205,3.0,3460,126,meters,jsons/VE125_randls_8_rotated.json,1012861,1299225,58,Man
60,787842,DepthScenes,duration_manipulation_targetAtFixation,jsons/VE125_randls_8_rotated.json,http://54.235.29.9/FacialAge/BNav_EC2/DepthDuration/v2_depth_duration_MTurk/v2_DepthDuration_HTML.html#218,218,1366,625,1366,768,8-29-2022,14-35-22,61,depth_duration_stimuli/001092_2014-06-15_17-34-58_260595134347_rgbf000171-resize_3/001092_2014-06-15_17-34-58_260595134347_rgbf000171-resize_3-target.png,125,2.6935,4.0,2890,124,meters,jsons/VE125_randls_8_rotated.json,1012861,1299225,58,Man
61,787842,DepthScenes,duration_manipulation_targetAtFixation,jsons/VE125_randls_8_rotated.json,http://54.235.29.9/FacialAge/BNav_EC2/DepthDuration/v2_depth_duration_MTurk/v2_DepthDuration_HTML.html#218,218,1366,625,1366,768,8-29-2022,14-35-22,62,depth_duration_stimuli/002103_2014-06-25_20-00-40_260595134347_rgbf000049-resize_0/002103_2014-06-25_20-00-40_260595134347_rgbf000049-resize_0-target.png,125,4.105,5.0,5419,125,meters,jsons/VE125_randls_8_rotated.json,1012861,1299225,58,Man
62,787842,DepthScenes,duration_manipulation_targetAtFixation,jsons/VE125_randls_8_rotated.json,http://54.235.29.9/FacialAge/BNav_EC2/DepthDuration/v2_depth_duration_MTurk/v2_DepthDuration_HTML.html#218,218,1366,625,1366,768,8-29-2022,14-35-22,63,depth_duration_stimuli/002039_2014-06-24_20-22-38_260595134347_rgbf000084-resize_1/002039_2014-06-24_20-22-38_260595134347_rgbf000084-resize_1-target.png,125,4.408,5.0,3066,123,meters,jsons/VE125_randls_8_rotated.json,1012861,1299225,58,Man
63,787842,DepthScenes,duration_manipulation_targetAtFixation,jsons/VE125_randls_8_rotated.json,http://54.235.29.9/FacialAge/BNav_EC2/DepthDuration/v2_depth_duration_MTurk/v2_DepthDuration_HTML.html#218,218,1366,625,1366,768,8-29-2022,14-35-22,64,depth_duration_stimuli/001136_2014-06-17_15-19-41_260595134347_rgbf000076-resize_3/001136_2014-06-17_15-19-41_260595134347_rgbf000076-resize_3-target.png,125,1.8655,53.0,4619,125,meters,jsons/VE125_randls_8_rotated.json,1012861,1299225,58,Man
64,787842,DepthScenes,duration_manipulation_targetAtFixation,jsons/VE125_randls_8_rotated.json,http://54.235.29.9/FacialAge/BNav_EC2/DepthDuration/v2_depth_duration_MTurk/v2_DepthDuration_HTML.html#218,218,1366,625,1366,768,8-29-2022,14-35-22,65,depth_duration_stimuli/001164_2014-06-17_15-35-46_260595134347_rgbf000085-resize_3/001164_2014-06-17_15-35-46_260595134347_rgbf000085-resize_3-target.png,125,2.354,0.0,2483,125,meters,jsons/VE125_randls_8_rotated.json,1012861,1299225,58,Man
65,787842,DepthScenes,duration_manipulation_targetAtFixation,jsons/VE125_randls_8_rotated.json,http://54.235.29.9/FacialAge/BNav_EC2/DepthDuration/v2_depth_duration_MTurk/v2_DepthDuration_HTML.html#218,218,1366,625,1366,768,8-29-2022,14-35-22,66,depth_duration_stimuli/001540_2014-06-20_17-01-05_260595134347_rgbf000086-resize_2/001540_2014-06-20_17-01-05_260595134347_rgbf000086-resize-original.jpg,125,1.459,0.0,7418,125,meters,jsons/VE125_randls_8_rotated.json,1012861,1299225,58,Man
66,787842,DepthScenes,duration_manipulation_targetAtFixation,jsons/VE125_randls_8_rotated.json,http://54.235.29.9/FacialAge/BNav_EC2/DepthDuration/v2_depth_duration_MTurk/v2_DepthDuration_HTML.html#218,218,1366,625,1366,768,8-29-2022,14-35-22,67,depth_duration_stimuli/000665_2014-06-09_20-42-35_260595134347_rgbf000110-resize_1/000665_2014-06-09_20-42-35_260595134347_rgbf000110-resize_1-target.png,125,3.057,1.0,3980,126,meters,jsons/VE125_randls_8_rotated.json,1012861,1299225,58,Man
67,787842,DepthScenes,duration_manipulation_targetAtFixation,jsons/VE125_randls_8_rotated.json,http://54.235.29.9/FacialAge/BNav_EC2/DepthDuration/v2_depth_duration_MTurk/v2_DepthDuration_HTML.html#218,218,1366,625,1366,768,8-29-2022,14-35-22,68,depth_duration_stimuli/001150_2014-06-17_15-27-34_260595134347_rgbf000108-resize_2/001150_2014-06-17_15-27-34_260595134347_rgbf000108-resize_2-target.png,125,4.0325,1.0,8033,125,meters,jsons/VE125_randls_8_rotated.json,1012861,1299225,58,Man
68,787842,DepthScenes,duration_manipulation_targetAtFixation,jsons/VE125_randls_8_rotated.json,http://54.235.29.9/FacialAge/BNav_EC2/DepthDuration/v2_depth_duration_MTurk/v2_DepthDuration_HTML.html#218,218,1366,625,1366,768,8-29-2022,14-35-22,69,depth_duration_stimuli/002425_2014-06-28_20-27-29_260595134347_rgbf000031-resize_8/002425_2014-06-28_20-27-29_260595134347_rgbf000031-resize_8-target.png,125,3.8960000000000004,1.0,17246,125,meters,jsons/VE125_randls_8_rotated.json,1012861,1299225,58,Man
69,787842,DepthScenes,duration_manipulation_targetAtFixation,jsons/VE125_randls_8_rotated.json,http://54.235.29.9/FacialAge/BNav_EC2/DepthDuration/v2_depth_duration_MTurk/v2_DepthDuration_HTML.html#218,218,1366,625,1366,768,8-29-2022,14-35-22,70,depth_duration_stimuli/000642_2014-06-08_16-59-25_260595134347_rgbf000098-resize_2/000642_2014-06-08_16-59-25_260595134347_rgbf000098-resize_2-target.png,125,2.8815,4.0,5853,125,meters,jsons/VE125_randls_8_rotated.json,1012861,1299225,58,Man
70,787842,DepthScenes,duration_manipulation_targetAtFixation,jsons/VE125_randls_8_rotated.json,http://54.235.29.9/FacialAge/BNav_EC2/DepthDuration/v2_depth_duration_MTurk/v2_DepthDuration_HTML.html#218,218,1366,625,1366,768,8-29-2022,14-35-22,71,depth_duration_stimuli/002323_2014-06-28_20-01-54_260595134347_rgbf000051-resize_4/002323_2014-06-28_20-01-54_260595134347_rgbf000051-resize_4-target.png,125,3.7310000000000003,0.0,3316,125,meters,jsons/VE125_randls_8_rotated.json,1012861,1299225,58,Man
71,787842,DepthScenes,duration_manipulation_targetAtFixation,jsons/VE125_randls_8_rotated.json,http://54.235.29.9/FacialAge/BNav_EC2/DepthDuration/v2_depth_duration_MTurk/v2_DepthDuration_HTML.html#218,218,1366,625,1366,768,8-29-2022,14-35-22,72,depth_duration_stimuli/000917_2014-06-09_22-45-29_260595134347_rgbf000149-resize_3/000917_2014-06-09_22-45-29_260595134347_rgbf000149-resize_3-target.png,125,4.1865,0.0,3143,126,meters,jsons/VE125_randls_8_rotated.json,1012861,1299225,58,Man
72,787842,DepthScenes,duration_manipulation_targetAtFixation,jsons/VE125_randls_8_rotated.json,http://54.235.29.9/FacialAge/BNav_EC2/DepthDuration/v2_depth_duration_MTurk/v2_DepthDuration_HTML.html#218,218,1366,625,1366,768,8-29-2022,14-35-22,73,depth_duration_stimuli/001516_2014-06-20_16-25-09_260595134347_rgbf000076-resize_2/001516_2014-06-20_16-25-09_260595134347_rgbf000076-resize_2-target.png,125,1.7445,4.0,3730,123,meters,jsons/VE125_randls_8_rotated.json,1012861,1299225,58,Man
73,787842,DepthScenes,duration_manipulation_targetAtFixation,jsons/VE125_randls_8_rotated.json,http://54.235.29.9/FacialAge/BNav_EC2/DepthDuration/v2_depth_duration_MTurk/v2_DepthDuration_HTML.html#218,218,1366,625,1366,768,8-29-2022,14-35-22,74,depth_duration_stimuli/002118_2014-06-25_20-32-08_260595134347_rgbf000078-resize_1/002118_2014-06-25_20-32-08_260595134347_rgbf000078-resize_1-target.png,125,2.6460000000000004,5.0,2867,125,meters,jsons/VE125_randls_8_rotated.json,1012861,1299225,58,Man
74,787842,DepthScenes,duration_manipulation_targetAtFixation,jsons/VE125_randls_8_rotated.json,http://54.235.29.9/FacialAge/BNav_EC2/DepthDuration/v2_depth_duration_MTurk/v2_DepthDuration_HTML.html#218,218,1366,625,1366,768,8-29-2022,14-35-22,75,depth_duration_stimuli/002637_2014-06-24_14-51-13_094959634447_rgbf000066-resize_4/002637_2014-06-24_14-51-13_094959634447_rgbf000066-resize_4-target.png,125,1.9955,4.0,4301,125,meters,jsons/VE125_randls_8_rotated.json,1012861,1299225,58,Man
75,787842,DepthScenes,duration_manipulation_targetAtFixation,jsons/VE125_randls_8_rotated.json,http://54.235.29.9/FacialAge/BNav_EC2/DepthDuration/v2_depth_duration_MTurk/v2_DepthDuration_HTML.html#218,218,1366,625,1366,768,8-29-2022,14-35-22,76,depth_duration_stimuli/003534_2014-05-22_15-06-10_094959634447_rgbf000102-resize_4/003534_2014-05-22_15-06-10_094959634447_rgbf000102-resize_4-target.png,125,1.426,2.0,3261,125,meters,jsons/VE125_randls_8_rotated.json,1012861,1299225,58,Man
76,787842,DepthScenes,duration_manipulation_targetAtFixation,jsons/VE125_randls_8_rotated.json,http://54.235.29.9/FacialAge/BNav_EC2/DepthDuration/v2_depth_duration_MTurk/v2_DepthDuration_HTML.html#218,218,1366,625,1366,768,8-29-2022,14-35-22,77,depth_duration_stimuli/000677_2014-06-08_23-10-32_260595134347_rgbf000158-resize_6/000677_2014-06-08_23-10-32_260595134347_rgbf000158-resize_6-target.png,125,3.556,2.0,3228,125,meters,jsons/VE125_randls_8_rotated.json,1012861,1299225,58,Man
77,787842,DepthScenes,duration_manipulation_targetAtFixation,jsons/VE125_randls_8_rotated.json,http://54.235.29.9/FacialAge/BNav_EC2/DepthDuration/v2_depth_duration_MTurk/v2_DepthDuration_HTML.html#218,218,1366,625,1366,768,8-29-2022,14-35-22,78,depth_duration_stimuli/001029_2014-06-08_13-17-57_260595134347_rgbf000065-resize_1/001029_2014-06-08_13-17-57_260595134347_rgbf000065-resize_1-target.png,125,3.0835,4.0,7283,124,meters,jsons/VE125_randls_8_rotated.json,1012861,1299225,58,Man
78,787842,DepthScenes,duration_manipulation_targetAtFixation,jsons/VE125_randls_8_rotated.json,http://54.235.29.9/FacialAge/BNav_EC2/DepthDuration/v2_depth_duration_MTurk/v2_DepthDuration_HTML.html#218,218,1366,625,1366,768,8-29-2022,14-35-22,79,depth_duration_stimuli/001828_2014-06-26_21-40-03_260595134347_rgbf000024-resize_0/001828_2014-06-26_21-40-03_260595134347_rgbf000024-resize_0-target.png,125,4.8260000000000005,2.0,9961,125,meters,jsons/VE125_randls_8_rotated.json,1012861,1299225,58,Man
79,787842,DepthScenes,duration_manipulation_targetAtFixation,jsons/VE125_randls_8_rotated.json,http://54.235.29.9/FacialAge/BNav_EC2/DepthDuration/v2_depth_duration_MTurk/v2_DepthDuration_HTML.html#218,218,1366,625,1366,768,8-29-2022,14-35-22,80,depth_duration_stimuli/000009_2014-05-26_14-32-05_260595134347_rgbf000034-resize_3/000009_2014-05-26_14-32-05_260595134347_rgbf000034-resize_3-target.png,125,3.8715,2.0,6298,125,meters,jsons/VE125_randls_8_rotated.json,1012861,1299225,58,Man
80,787842,DepthScenes,duration_manipulation_targetAtFixation,jsons/VE125_randls_8_rotated.json,http://54.235.29.9/FacialAge/BNav_EC2/DepthDuration/v2_depth_duration_MTurk/v2_DepthDuration_HTML.html#218,218,1366,625,1366,768,8-29-2022,14-35-22,81,depth_duration_stimuli/000854_2014-06-09_19-43-13_260595134347_rgbf000066-resize_0/000854_2014-06-09_19-43-13_260595134347_rgbf000066-resize_0-target.png,125,3.068,4.0,4171,125,meters,jsons/VE125_randls_8_rotated.json,1012861,1299225,58,Man
81,787842,DepthScenes,duration_manipulation_targetAtFixation,jsons/VE125_randls_8_rotated.json,http://54.235.29.9/FacialAge/BNav_EC2/DepthDuration/v2_depth_duration_MTurk/v2_DepthDuration_HTML.html#218,218,1366,625,1366,768,8-29-2022,14-35-22,82,depth_duration_stimuli/000758_2014-06-08_22-05-08_260595134347_rgbf000085-resize_0/000758_2014-06-08_22-05-08_260595134347_rgbf000085-resize_0-target.png,125,3.3810000000000002,1.0,3083,124,meters,jsons/VE125_randls_8_rotated.json,1012861,1299225,58,Man
82,787842,DepthScenes,duration_manipulation_targetAtFixation,jsons/VE125_randls_8_rotated.json,http://54.235.29.9/FacialAge/BNav_EC2/DepthDuration/v2_depth_duration_MTurk/v2_DepthDuration_HTML.html#218,218,1366,625,1366,768,8-29-2022,14-35-22,83,depth_duration_stimuli/002444_2014-06-28_20-32-08_260595134347_rgbf000027-resize_0/002444_2014-06-28_20-32-08_260595134347_rgbf000027-resize_0-target.png,125,4.388999999999999,2.0,5011,125,meters,jsons/VE125_randls_8_rotated.json,1012861,1299225,58,Man
83,787842,DepthScenes,duration_manipulation_targetAtFixation,jsons/VE125_randls_8_rotated.json,http://54.235.29.9/FacialAge/BNav_EC2/DepthDuration/v2_depth_duration_MTurk/v2_DepthDuration_HTML.html#218,218,1366,625,1366,768,8-29-2022,14-35-22,84,depth_duration_stimuli/000436_2014-06-09_22-25-11_260595134347_rgbf000137-resize_1/000436_2014-06-09_22-25-11_260595134347_rgbf000137-resize_1-target.png,125,4.0705,2.0,2709,125,meters,jsons/VE125_randls_8_rotated.json,1012861,1299225,58,Man
84,787842,DepthScenes,duration_manipulation_targetAtFixation,jsons/VE125_randls_8_rotated.json,http://54.235.29.9/FacialAge/BNav_EC2/DepthDuration/v2_depth_duration_MTurk/v2_DepthDuration_HTML.html#218,218,1366,625,1366,768,8-29-2022,14-35-22,85,depth_duration_stimuli/002995_2014-06-15_12-31-26_094959634447_rgbf000150-resize_1/002995_2014-06-15_12-31-26_094959634447_rgbf000150-resize_1-target.png,125,3.8360000000000003,2.0,5483,125,meters,jsons/VE125_randls_8_rotated.json,1012861,1299225,58,Man
85,787842,DepthScenes,duration_manipulation_targetAtFixation,jsons/VE125_randls_8_rotated.json,http://54.235.29.9/FacialAge/BNav_EC2/DepthDuration/v2_depth_duration_MTurk/v2_DepthDuration_HTML.html#218,218,1366,625,1366,768,8-29-2022,14-35-22,86,depth_duration_stimuli/002748_2014-06-22_19-07-22_094959634447_rgbf000078-resize_1/002748_2014-06-22_19-07-22_094959634447_rgbf000078-resize_1-target.png,125,4.6705,1.0,2868,125,meters,jsons/VE125_randls_8_rotated.json,1012861,1299225,58,Man
86,787842,DepthScenes,duration_manipulation_targetAtFixation,jsons/VE125_randls_8_rotated.json,http://54.235.29.9/FacialAge/BNav_EC2/DepthDuration/v2_depth_duration_MTurk/v2_DepthDuration_HTML.html#218,218,1366,625,1366,768,8-29-2022,14-35-22,87,depth_duration_stimuli/000556_2014-06-09_22-42-56_260595134347_rgbf000214-resize_1/000556_2014-06-09_22-42-56_260595134347_rgbf000214-resize_1-target.png,125,4.8415,0.0,2893,126,meters,jsons/VE125_randls_8_rotated.json,1012861,1299225,58,Man
87,787842,DepthScenes,duration_manipulation_targetAtFixation,jsons/VE125_randls_8_rotated.json,http://54.235.29.9/FacialAge/BNav_EC2/DepthDuration/v2_depth_duration_MTurk/v2_DepthDuration_HTML.html#218,218,1366,625,1366,768,8-29-2022,14-35-22,88,depth_duration_stimuli/001158_2014-06-17_15-32-16_260595134347_rgbf000138-resize_2/001158_2014-06-17_15-32-16_260595134347_rgbf000138-resize_2-target.png,125,4.5315,1.0,2995,124,meters,jsons/VE125_randls_8_rotated.json,1012861,1299225,58,Man
88,787842,DepthScenes,duration_manipulation_targetAtFixation,jsons/VE125_randls_8_rotated.json,http://54.235.29.9/FacialAge/BNav_EC2/DepthDuration/v2_depth_duration_MTurk/v2_DepthDuration_HTML.html#218,218,1366,625,1366,768,8-29-2022,14-35-22,89,depth_duration_stimuli/002199_2014-06-28_18-33-56_260595134347_rgbf000074-resize_0/002199_2014-06-28_18-33-56_260595134347_rgbf000074-resize_0-target.png,125,1.996,4.0,2941,125,meters,jsons/VE125_randls_8_rotated.json,1012861,1299225,58,Man
89,787842,DepthScenes,duration_manipulation_targetAtFixation,jsons/VE125_randls_8_rotated.json,http://54.235.29.9/FacialAge/BNav_EC2/DepthDuration/v2_depth_duration_MTurk/v2_DepthDuration_HTML.html#218,218,1366,625,1366,768,8-29-2022,14-35-22,90,depth_duration_stimuli/001056_2014-06-08_18-46-44_260595134347_rgbf000068-resize_0/001056_2014-06-08_18-46-44_260595134347_rgbf000068-resize_0-target.png,125,2.6625,1.0,2712,125,meters,jsons/VE125_randls_8_rotated.json,1012861,1299225,58,Man
90,787842,DepthScenes,duration_manipulation_targetAtFixation,jsons/VE125_randls_8_rotated.json,http://54.235.29.9/FacialAge/BNav_EC2/DepthDuration/v2_depth_duration_MTurk/v2_DepthDuration_HTML.html#218,218,1366,625,1366,768,8-29-2022,14-35-22,91,depth_duration_stimuli/000502_2014-06-08_23-02-32_260595134347_rgbf000063-resize_4/000502_2014-06-08_23-02-32_260595134347_rgbf000063-resize_4-target.png,125,2.431,2.0,3806,126,meters,jsons/VE125_randls_8_rotated.json,1012861,1299225,58,Man
91,787842,DepthScenes,duration_manipulation_targetAtFixation,jsons/VE125_randls_8_rotated.json,http://54.235.29.9/FacialAge/BNav_EC2/DepthDuration/v2_depth_duration_MTurk/v2_DepthDuration_HTML.html#218,218,1366,625,1366,768,8-29-2022,14-35-22,92,depth_duration_stimuli/001199_2014-06-17_16-03-48_260595134347_rgbf000077-resize_0/001199_2014-06-17_16-03-48_260595134347_rgbf000077-resize_0-target.png,125,3.4375,1.0,11498,124,meters,jsons/VE125_randls_8_rotated.json,1012861,1299225,58,Man
92,787842,DepthScenes,duration_manipulation_targetAtFixation,jsons/VE125_randls_8_rotated.json,http://54.235.29.9/FacialAge/BNav_EC2/DepthDuration/v2_depth_duration_MTurk/v2_DepthDuration_HTML.html#218,218,1366,625,1366,768,8-29-2022,14-35-22,93,depth_duration_stimuli/002805_2014-06-22_19-54-03_094959634447_rgbf000079-resize_1/002805_2014-06-22_19-54-03_094959634447_rgbf000079-resize_1-target.png,125,3.1439999999999997,3.0,3102,125,meters,jsons/VE125_randls_8_rotated.json,1012861,1299225,58,Man
93,787842,DepthScenes,duration_manipulation_targetAtFixation,jsons/VE125_randls_8_rotated.json,http://54.235.29.9/FacialAge/BNav_EC2/DepthDuration/v2_depth_duration_MTurk/v2_DepthDuration_HTML.html#218,218,1366,625,1366,768,8-29-2022,14-35-22,94,depth_duration_stimuli/000906_2014-06-08_13-35-43_260595134347_rgbf000155-resize_1/000906_2014-06-08_13-35-43_260595134347_rgbf000155-resize_1-target.png,125,2.8489999999999998,4.0,2746,124,meters,jsons/VE125_randls_8_rotated.json,1012861,1299225,58,Man
94,787842,DepthScenes,duration_manipulation_targetAtFixation,jsons/VE125_randls_8_rotated.json,http://54.235.29.9/FacialAge/BNav_EC2/DepthDuration/v2_depth_duration_MTurk/v2_DepthDuration_HTML.html#218,218,1366,625,1366,768,8-29-2022,14-35-22,95,depth_duration_stimuli/003587_2014-05-23_16-48-02_094959634447_rgbf002384-resize_2/003587_2014-05-23_16-48-02_094959634447_rgbf002384-resize_2-target.png,125,1.357,2.0,3496,123,meters,jsons/VE125_randls_8_rotated.json,1012861,1299225,58,Man
95,787842,DepthScenes,duration_manipulation_targetAtFixation,jsons/VE125_randls_8_rotated.json,http://54.235.29.9/FacialAge/BNav_EC2/DepthDuration/v2_depth_duration_MTurk/v2_DepthDuration_HTML.html#218,218,1366,625,1366,768,8-29-2022,14-35-22,96,depth_duration_stimuli/001167_2014-06-17_15-38-07_260595134347_rgbf000108-resize_0/001167_2014-06-17_15-38-07_260595134347_rgbf000108-resize_0-target.png,125,1.8505,1.0,2893,123,meters,jsons/VE125_randls_8_rotated.json,1012861,1299225,58,Man
96,787842,DepthScenes,duration_manipulation_targetAtFixation,jsons/VE125_randls_8_rotated.json,http://54.235.29.9/FacialAge/BNav_EC2/DepthDuration/v2_depth_duration_MTurk/v2_DepthDuration_HTML.html#218,218,1366,625,1366,768,8-29-2022,14-35-22,97,depth_duration_stimuli/001100_2014-06-15_17-46-26_260595134347_rgbf000225-resize_2/001100_2014-06-15_17-46-26_260595134347_rgbf000225-resize_2-target.png,125,2.24,4.0,3218,125,meters,jsons/VE125_randls_8_rotated.json,1012861,1299225,58,Man
97,787842,DepthScenes,duration_manipulation_targetAtFixation,jsons/VE125_randls_8_rotated.json,http://54.235.29.9/FacialAge/BNav_EC2/DepthDuration/v2_depth_duration_MTurk/v2_DepthDuration_HTML.html#218,218,1366,625,1366,768,8-29-2022,14-35-22,98,depth_duration_stimuli/002784_2014-06-22_19-26-30_094959634447_rgbf000083-resize_3/002784_2014-06-22_19-26-30_094959634447_rgbf000083-resize_3-target.png,125,1.8046666666667,2.0,3468,125,meters,jsons/VE125_randls_8_rotated.json,1012861,1299225,58,Man
98,787842,DepthScenes,duration_manipulation_targetAtFixation,jsons/VE125_randls_8_rotated.json,http://54.235.29.9/FacialAge/BNav_EC2/DepthDuration/v2_depth_duration_MTurk/v2_DepthDuration_HTML.html#218,218,1366,625,1366,768,8-29-2022,14-35-22,99,depth_duration_stimuli/001222_2014-06-17_16-24-06_260595134347_rgbf000073-resize_0/001222_2014-06-17_16-24-06_260595134347_rgbf000073-resize-original.jpg,125,1.4385,0.0,4021,128,meters,jsons/VE125_randls_8_rotated.json,1012861,1299225,58,Man
99,787842,DepthScenes,duration_manipulation_targetAtFixation,jsons/VE125_randls_8_rotated.json,http://54.235.29.9/FacialAge/BNav_EC2/DepthDuration/v2_depth_duration_MTurk/v2_DepthDuration_HTML.html#218,218,1366,625,1366,768,8-29-2022,14-35-22,100,depth_duration_stimuli/000927_2014-06-09_16-32-30_260595134347_rgbf000123-resize_3/000927_2014-06-09_16-32-30_260595134347_rgbf000123-resize_3-target.png,125,2.6785,4.0,3563,125,meters,jsons/VE125_randls_8_rotated.json,1012861,1299225,58,Man
100,787842,DepthScenes,duration_manipulation_targetAtFixation,jsons/VE125_randls_8_rotated.json,http://54.235.29.9/FacialAge/BNav_EC2/DepthDuration/v2_depth_duration_MTurk/v2_DepthDuration_HTML.html#218,218,1366,625,1366,768,8-29-2022,14-35-22,101,depth_duration_stimuli/001110_2014-06-15_17-25-28_260595134347_rgbf000150-resize_1/001110_2014-06-15_17-25-28_260595134347_rgbf000150-resize_1-target.png,125,1.7115,1.0,5610,132,meters,jsons/VE125_randls_8_rotated.json,1012861,1299225,58,Man
101,787842,DepthScenes,duration_manipulation_targetAtFixation,jsons/VE125_randls_8_rotated.json,http://54.235.29.9/FacialAge/BNav_EC2/DepthDuration/v2_depth_duration_MTurk/v2_DepthDuration_HTML.html#218,218,1366,625,1366,768,8-29-2022,14-35-22,102,depth_duration_stimuli/003079_2014-06-15_15-18-20_094959634447_rgbf000152-resize_8/003079_2014-06-15_15-18-20_094959634447_rgbf000152-resize_8-target.png,125,2.8775,1.0,5842,125,meters,jsons/VE125_randls_8_rotated.json,1012861,1299225,58,Man
102,787842,DepthScenes,duration_manipulation_targetAtFixation,jsons/VE125_randls_8_rotated.json,http://54.235.29.9/FacialAge/BNav_EC2/DepthDuration/v2_depth_duration_MTurk/v2_DepthDuration_HTML.html#218,218,1366,625,1366,768,8-29-2022,14-35-22,103,depth_duration_stimuli/000506_2014-06-08_23-21-00_260595134347_rgbf000070-resize_7/000506_2014-06-08_23-21-00_260595134347_rgbf000070-resize_7-target.png,125,4.0585,4.0,4194,125,meters,jsons/VE125_randls_8_rotated.json,1012861,1299225,58,Man
103,787842,DepthScenes,duration_manipulation_targetAtFixation,jsons/VE125_randls_8_rotated.json,http://54.235.29.9/FacialAge/BNav_EC2/DepthDuration/v2_depth_duration_MTurk/v2_DepthDuration_HTML.html#218,218,1366,625,1366,768,8-29-2022,14-35-22,104,depth_duration_stimuli/001450_2014-06-19_17-02-03_260595134347_rgbf000203-resize_4/001450_2014-06-19_17-02-03_260595134347_rgbf000203-resize_4-target.png,125,4.0106666666667,2.0,3123,125,meters,jsons/VE125_randls_8_rotated.json,1012861,1299225,58,Man
104,787842,DepthScenes,duration_manipulation_targetAtFixation,jsons/VE125_randls_8_rotated.json,http://54.235.29.9/FacialAge/BNav_EC2/DepthDuration/v2_depth_duration_MTurk/v2_DepthDuration_HTML.html#218,218,1366,625,1366,768,8-29-2022,14-35-22,105,depth_duration_stimuli/001449_2014-06-19_17-01-27_260595134347_rgbf000116-resize_2/001449_2014-06-19_17-01-27_260595134347_rgbf000116-resize_2-target.png,125,3.452,1.0,3238,115,meters,jsons/VE125_randls_8_rotated.json,1012861,1299225,58,Man
105,787842,DepthScenes,duration_manipulation_targetAtFixation,jsons/VE125_randls_8_rotated.json,http://54.235.29.9/FacialAge/BNav_EC2/DepthDuration/v2_depth_duration_MTurk/v2_DepthDuration_HTML.html#218,218,1366,625,1366,768,8-29-2022,14-35-22,106,depth_duration_stimuli/002639_2014-06-24_14-51-37_094959634447_rgbf000074-resize_4/002639_2014-06-24_14-51-37_094959634447_rgbf000074-resize_4-target.png,125,4.0375,2.0,3791,125,meters,jsons/VE125_randls_8_rotated.json,1012861,1299225,58,Man
106,787842,DepthScenes,duration_manipulation_targetAtFixation,jsons/VE125_randls_8_rotated.json,http://54.235.29.9/FacialAge/BNav_EC2/DepthDuration/v2_depth_duration_MTurk/v2_DepthDuration_HTML.html#218,218,1366,625,1366,768,8-29-2022,14-35-22,107,depth_duration_stimuli/003292_2014-05-14_21-53-49_094959634447_rgbf000100-resize_2/003292_2014-05-14_21-53-49_094959634447_rgbf000100-resize_2-target.png,125,3.4815,2.0,6436,125,meters,jsons/VE125_randls_8_rotated.json,1012861,1299225,58,Man
107,787842,DepthScenes,duration_manipulation_targetAtFixation,jsons/VE125_randls_8_rotated.json,http://54.235.29.9/FacialAge/BNav_EC2/DepthDuration/v2_depth_duration_MTurk/v2_DepthDuration_HTML.html#218,218,1366,625,1366,768,8-29-2022,14-35-22,108,depth_duration_stimuli/000866_2014-06-09_20-45-42_260595134347_rgbf000139-resize_1/000866_2014-06-09_20-45-42_260595134347_rgbf000139-resize_1-target.png,125,3.2155,2.0,6257,125,meters,jsons/VE125_randls_8_rotated.json,1012861,1299225,58,Man
108,787842,DepthScenes,duration_manipulation_targetAtFixation,jsons/VE125_randls_8_rotated.json,http://54.235.29.9/FacialAge/BNav_EC2/DepthDuration/v2_depth_duration_MTurk/v2_DepthDuration_HTML.html#218,218,1366,625,1366,768,8-29-2022,14-35-22,109,depth_duration_stimuli/002989_2014-06-15_12-25-03_094959634447_rgbf000150-resize_3/002989_2014-06-15_12-25-03_094959634447_rgbf000150-resize_3-target.png,125,4.1975,2.0,7341,125,meters,jsons/VE125_randls_8_rotated.json,1012861,1299225,58,Man
109,787842,DepthScenes,duration_manipulation_targetAtFixation,jsons/VE125_randls_8_rotated.json,http://54.235.29.9/FacialAge/BNav_EC2/DepthDuration/v2_depth_duration_MTurk/v2_DepthDuration_HTML.html#218,218,1366,625,1366,768,8-29-2022,14-35-22,110,depth_duration_stimuli/001584_2014-06-20_11-07-43_260595134347_rgbf000002-resize_1/001584_2014-06-20_11-07-43_260595134347_rgbf000002-resize_1-target.png,125,3.53,2.0,5755,124,meters,jsons/VE125_randls_8_rotated.json,1012861,1299225,58,Man
110,787842,DepthScenes,duration_manipulation_targetAtFixation,jsons/VE125_randls_8_rotated.json,http://54.235.29.9/FacialAge/BNav_EC2/DepthDuration/v2_depth_duration_MTurk/v2_DepthDuration_HTML.html#218,218,1366,625,1366,768,8-29-2022,14-35-22,111,depth_duration_stimuli/003621_2014-05-23_18-06-08_094959634447_rgbf000101-resize_1/003621_2014-05-23_18-06-08_094959634447_rgbf000101-resize_1-target.png,125,3.9835,1.0,2542,100,meters,jsons/VE125_randls_8_rotated.json,1012861,1299225,58,Man
111,787842,DepthScenes,duration_manipulation_targetAtFixation,jsons/VE125_randls_8_rotated.json,http://54.235.29.9/FacialAge/BNav_EC2/DepthDuration/v2_depth_duration_MTurk/v2_DepthDuration_HTML.html#218,218,1366,625,1366,768,8-29-2022,14-35-22,112,depth_duration_stimuli/002678_2014-06-13_16-15-32_094959634447_rgbf000151-resize_6/002678_2014-06-13_16-15-32_094959634447_rgbf000151-resize_6-target.png,125,2.1830000000000003,3.0,5074,125,meters,jsons/VE125_randls_8_rotated.json,1012861,1299225,58,Man
112,787842,DepthScenes,duration_manipulation_targetAtFixation,jsons/VE125_randls_8_rotated.json,http://54.235.29.9/FacialAge/BNav_EC2/DepthDuration/v2_depth_duration_MTurk/v2_DepthDuration_HTML.html#218,218,1366,625,1366,768,8-29-2022,14-35-22,113,depth_duration_stimuli/000368_2014-06-09_15-53-01_260595134347_rgbf000155-resize_2/000368_2014-06-09_15-53-01_260595134347_rgbf000155-resize_2-target.png,125,2.4859999999999998,0.0,2755,125,meters,jsons/VE125_randls_8_rotated.json,1012861,1299225,58,Man
113,787842,DepthScenes,duration_manipulation_targetAtFixation,jsons/VE125_randls_8_rotated.json,http://54.235.29.9/FacialAge/BNav_EC2/DepthDuration/v2_depth_duration_MTurk/v2_DepthDuration_HTML.html#218,218,1366,625,1366,768,8-29-2022,14-35-22,114,depth_duration_stimuli/002568_2014-06-24_13-59-21_094959634447_rgbf000062-resize_4/002568_2014-06-24_13-59-21_094959634447_rgbf000062-resize_4-target.png,125,3.015,4.0,3607,123,meters,jsons/VE125_randls_8_rotated.json,1012861,1299225,58,Man
114,787842,DepthScenes,duration_manipulation_targetAtFixation,jsons/VE125_randls_8_rotated.json,http://54.235.29.9/FacialAge/BNav_EC2/DepthDuration/v2_depth_duration_MTurk/v2_DepthDuration_HTML.html#218,218,1366,625,1366,768,8-29-2022,14-35-22,115,depth_duration_stimuli/003492_2014-05-21_15-50-55_094959634447_rgbf000828-resize_1/003492_2014-05-21_15-50-55_094959634447_rgbf000828-resize_1-target.png,125,4.06875,2.0,6204,116,meters,jsons/VE125_randls_8_rotated.json,1012861,1299225,58,Man
115,787842,DepthScenes,duration_manipulation_targetAtFixation,jsons/VE125_randls_8_rotated.json,http://54.235.29.9/FacialAge/BNav_EC2/DepthDuration/v2_depth_duration_MTurk/v2_DepthDuration_HTML.html#218,218,1366,625,1366,768,8-29-2022,14-35-22,116,depth_duration_stimuli/003338_2014-05-20_11-01-23_094959634447_rgbf000051-resize_6/003338_2014-05-20_11-01-23_094959634447_rgbf000051-resize_6-target.png,125,1.693,3.0,3332,125,meters,jsons/VE125_randls_8_rotated.json,1012861,1299225,58,Man
116,787842,DepthScenes,duration_manipulation_targetAtFixation,jsons/VE125_randls_8_rotated.json,http://54.235.29.9/FacialAge/BNav_EC2/DepthDuration/v2_depth_duration_MTurk/v2_DepthDuration_HTML.html#218,218,1366,625,1366,768,8-29-2022,14-35-22,117,depth_duration_stimuli/002509_2014-06-24_13-19-22_094959634447_rgbf000077-resize_0/002509_2014-06-24_13-19-22_094959634447_rgbf000077-resize_0-target.png,125,1.3065,2.0,6812,126,meters,jsons/VE125_randls_8_rotated.json,1012861,1299225,58,Man
117,787842,DepthScenes,duration_manipulation_targetAtFixation,jsons/VE125_randls_8_rotated.json,http://54.235.29.9/FacialAge/BNav_EC2/DepthDuration/v2_depth_duration_MTurk/v2_DepthDuration_HTML.html#218,218,1366,625,1366,768,8-29-2022,14-35-22,118,depth_duration_stimuli/000749_2014-06-08_21-55-06_260595134347_rgbf000070-resize_2/000749_2014-06-08_21-55-06_260595134347_rgbf000070-resize_2-target.png,125,2.331,2.0,6001,127,meters,jsons/VE125_randls_8_rotated.json,1012861,1299225,58,Man
118,787842,DepthScenes,duration_manipulation_targetAtFixation,jsons/VE125_randls_8_rotated.json,http://54.235.29.9/FacialAge/BNav_EC2/DepthDuration/v2_depth_duration_MTurk/v2_DepthDuration_HTML.html#218,218,1366,625,1366,768,8-29-2022,14-35-22,119,depth_duration_stimuli/002788_2014-06-22_19-36-03_094959634447_rgbf000088-resize_2/002788_2014-06-22_19-36-03_094959634447_rgbf000088-resize_2-target.png,125,1.6465,2.0,3309,124,meters,jsons/VE125_randls_8_rotated.json,1012861,1299225,58,Man
119,787842,DepthScenes,duration_manipulation_targetAtFixation,jsons/VE125_randls_8_rotated.json,http://54.235.29.9/FacialAge/BNav_EC2/DepthDuration/v2_depth_duration_MTurk/v2_DepthDuration_HTML.html#218,218,1366,625,1366,768,8-29-2022,14-35-22,120,depth_duration_stimuli/000787_2014-06-08_22-33-53_260595134347_rgbf000175-resize_1/000787_2014-06-08_22-33-53_260595134347_rgbf000175-resize-original.jpg,125,4.784,0.0,3313,125,meters,jsons/VE125_randls_8_rotated.json,1012861,1299225,58,Man
120,787842,DepthScenes,duration_manipulation_targetAtFixation,jsons/VE125_randls_8_rotated.json,http://54.235.29.9/FacialAge/BNav_EC2/DepthDuration/v2_depth_duration_MTurk/v2_DepthDuration_HTML.html#218,218,1366,625,1366,768,8-29-2022,14-35-22,121,depth_duration_stimuli/000409_2014-06-04_19-23-33_260595134347_rgbf000067-resize_0/000409_2014-06-04_19-23-33_260595134347_rgbf000067-resize_0-target.png,125,3.7335,1.0,3664,125,meters,jsons/VE125_randls_8_rotated.json,1012861,1299225,58,Man
121,787842,DepthScenes,duration_manipulation_targetAtFixation,jsons/VE125_randls_8_rotated.json,http://54.235.29.9/FacialAge/BNav_EC2/DepthDuration/v2_depth_duration_MTurk/v2_DepthDuration_HTML.html#218,218,1366,625,1366,768,8-29-2022,14-35-22,122,depth_duration_stimuli/002663_2014-06-13_15-50-26_094959634447_rgbf000075-resize_1/002663_2014-06-13_15-50-26_094959634447_rgbf000075-resize_1-target.png,125,4.7495,2.0,3670,126,meters,jsons/VE125_randls_8_rotated.json,1012861,1299225,58,Man
122,787842,DepthScenes,duration_manipulation_targetAtFixation,jsons/VE125_randls_8_rotated.json,http://54.235.29.9/FacialAge/BNav_EC2/DepthDuration/v2_depth_duration_MTurk/v2_DepthDuration_HTML.html#218,218,1366,625,1366,768,8-29-2022,14-35-22,123,depth_duration_stimuli/002414_2014-06-28_20-24-58_260595134347_rgbf000067-resize_4/002414_2014-06-28_20-24-58_260595134347_rgbf000067-resize_4-target.png,125,4.363,1.0,4261,126,meters,jsons/VE125_randls_8_rotated.json,1012861,1299225,58,Man
123,787842,DepthScenes,duration_manipulation_targetAtFixation,jsons/VE125_randls_8_rotated.json,http://54.235.29.9/FacialAge/BNav_EC2/DepthDuration/v2_depth_duration_MTurk/v2_DepthDuration_HTML.html#218,218,1366,625,1366,768,8-29-2022,14-35-22,124,depth_duration_stimuli/000773_2014-06-08_22-24-54_260595134347_rgbf000093-resize_1/000773_2014-06-08_22-24-54_260595134347_rgbf000093-resize_1-target.png,125,4.973,3.0,3084,125,meters,jsons/VE125_randls_8_rotated.json,1012861,1299225,58,Man
124,787842,DepthScenes,duration_manipulation_targetAtFixation,jsons/VE125_randls_8_rotated.json,http://54.235.29.9/FacialAge/BNav_EC2/DepthDuration/v2_depth_duration_MTurk/v2_DepthDuration_HTML.html#218,218,1366,625,1366,768,8-29-2022,14-35-22,125,depth_duration_stimuli/000742_2014-06-08_18-48-09_260595134347_rgbf000164-resize_4/000742_2014-06-08_18-48-09_260595134347_rgbf000164-resize_4-target.png,125,4.632,2.0,4864,124,meters,jsons/VE125_randls_8_rotated.json,1012861,1299225,58,Man
125,787842,DepthScenes,duration_manipulation_targetAtFixation,jsons/VE125_randls_8_rotated.json,http://54.235.29.9/FacialAge/BNav_EC2/DepthDuration/v2_depth_duration_MTurk/v2_DepthDuration_HTML.html#218,218,1366,625,1366,768,8-29-2022,14-35-22,126,depth_duration_stimuli/001066_2014-06-08_22-03-20_260595134347_rgbf000066-resize_4/001066_2014-06-08_22-03-20_260595134347_rgbf000066-resize_4-target.png,125,4.2330000000000005,5.0,4246,127,meters,jsons/VE125_randls_8_rotated.json,1012861,1299225,58,Man
126,787842,DepthScenes,duration_manipulation_targetAtFixation,jsons/VE125_randls_8_rotated.json,http://54.235.29.9/FacialAge/BNav_EC2/DepthDuration/v2_depth_duration_MTurk/v2_DepthDuration_HTML.html#218,218,1366,625,1366,768,8-29-2022,14-35-22,127,depth_duration_stimuli/000457_2014-06-08_16-52-43_260595134347_rgbf000199-resize_1/000457_2014-06-08_16-52-43_260595134347_rgbf000199-resize_1-target.png,125,3.6489999999999996,4.0,8228,122,meters,jsons/VE125_randls_8_rotated.json,1012861,1299225,58,Man
127,787842,DepthScenes,duration_manipulation_targetAtFixation,jsons/VE125_randls_8_rotated.json,http://54.235.29.9/FacialAge/BNav_EC2/DepthDuration/v2_depth_duration_MTurk/v2_DepthDuration_HTML.html#218,218,1366,625,1366,768,8-29-2022,14-35-22,128,depth_duration_stimuli/000929_2014-06-09_16-33-19_260595134347_rgbf000139-resize_0/000929_2014-06-09_16-33-19_260595134347_rgbf000139-resize_0-target.png,125,2.8680000000000003,5.0,3329,124,meters,jsons/VE125_randls_8_rotated.json,1012861,1299225,58,Man
128,787842,DepthScenes,duration_manipulation_targetAtFixation,jsons/VE125_randls_8_rotated.json,http://54.235.29.9/FacialAge/BNav_EC2/DepthDuration/v2_depth_duration_MTurk/v2_DepthDuration_HTML.html#218,218,1366,625,1366,768,8-29-2022,14-35-22,129,depth_duration_stimuli/003081_2014-06-15_15-19-16_094959634447_rgbf000150-resize_1/003081_2014-06-15_15-19-16_094959634447_rgbf000150-resize_1-target.png,125,3.9125,2.0,4740,125,meters,jsons/VE125_randls_8_rotated.json,1012861,1299225,58,Man
129,787842,DepthScenes,duration_manipulation_targetAtFixation,jsons/VE125_randls_8_rotated.json,http://54.235.29.9/FacialAge/BNav_EC2/DepthDuration/v2_depth_duration_MTurk/v2_DepthDuration_HTML.html#218,218,1366,625,1366,768,8-29-2022,14-35-22,130,depth_duration_stimuli/001417_2014-06-19_16-25-36_260595134347_rgbf000115-resize_5/001417_2014-06-19_16-25-36_260595134347_rgbf000115-resize_5-target.png,125,4.6255,2.0,3988,125,meters,jsons/VE125_randls_8_rotated.json,1012861,1299225,58,Man
130,787842,DepthScenes,duration_manipulation_targetAtFixation,jsons/VE125_randls_8_rotated.json,http://54.235.29.9/FacialAge/BNav_EC2/DepthDuration/v2_depth_duration_MTurk/v2_DepthDuration_HTML.html#218,218,1366,625,1366,768,8-29-2022,14-35-22,131,depth_duration_stimuli/003129_2014-05-12_10-48-10_094959634447_rgbf000100-resize_0/003129_2014-05-12_10-48-10_094959634447_rgbf000100-resize_0-target.png,125,4.9305,7.0,6899,124,meters,jsons/VE125_randls_8_rotated.json,1012861,1299225,58,Man
131,787842,DepthScenes,duration_manipulation_targetAtFixation,jsons/VE125_randls_8_rotated.json,http://54.235.29.9/FacialAge/BNav_EC2/DepthDuration/v2_depth_duration_MTurk/v2_DepthDuration_HTML.html#218,218,1366,625,1366,768,8-29-2022,14-35-22,132,depth_duration_stimuli/000414_2014-06-04_19-49-13_260595134347_rgbf000044-resize_0/000414_2014-06-04_19-49-13_260595134347_rgbf000044-resize_0-target.png,125,4.329,3.0,6442,124,meters,jsons/VE125_randls_8_rotated.json,1012861,1299225,58,Man
132,787842,DepthScenes,duration_manipulation_targetAtFixation,jsons/VE125_randls_8_rotated.json,http://54.235.29.9/FacialAge/BNav_EC2/DepthDuration/v2_depth_duration_MTurk/v2_DepthDuration_HTML.html#218,218,1366,625,1366,768,8-29-2022,14-35-22,133,depth_duration_stimuli/001392_2014-06-19_16-07-59_260595134347_rgbf000046-resize_1/001392_2014-06-19_16-07-59_260595134347_rgbf000046-resize_1-target.png,125,4.135,3.0,8457,98,meters,jsons/VE125_randls_8_rotated.json,1012861,1299225,58,Man
133,787842,DepthScenes,duration_manipulation_targetAtFixation,jsons/VE125_randls_8_rotated.json,http://54.235.29.9/FacialAge/BNav_EC2/DepthDuration/v2_depth_duration_MTurk/v2_DepthDuration_HTML.html#218,218,1366,625,1366,768,8-29-2022,14-35-22,134,depth_duration_stimuli/001570_2014-06-20_17-21-09_260595134347_rgbf000135-resize_4/001570_2014-06-20_17-21-09_260595134347_rgbf000135-resize_4-target.png,125,4.467,4.0,2907,126,meters,jsons/VE125_randls_8_rotated.json,1012861,1299225,58,Man
134,787842,DepthScenes,duration_manipulation_targetAtFixation,jsons/VE125_randls_8_rotated.json,http://54.235.29.9/FacialAge/BNav_EC2/DepthDuration/v2_depth_duration_MTurk/v2_DepthDuration_HTML.html#218,218,1366,625,1366,768,8-29-2022,14-35-22,135,depth_duration_stimuli/000375_2014-06-08_11-17-29_260595134347_rgbf000133-resize_2/000375_2014-06-08_11-17-29_260595134347_rgbf000133-resize-original.jpg,125,4.718,0.0,5836,125,meters,jsons/VE125_randls_8_rotated.json,1012861,1299225,58,Man
135,787842,DepthScenes,duration_manipulation_targetAtFixation,jsons/VE125_randls_8_rotated.json,http://54.235.29.9/FacialAge/BNav_EC2/DepthDuration/v2_depth_duration_MTurk/v2_DepthDuration_HTML.html#218,218,1366,625,1366,768,8-29-2022,14-35-22,136,depth_duration_stimuli/002209_2014-06-28_18-36-10_260595134347_rgbf000051-resize_1/002209_2014-06-28_18-36-10_260595134347_rgbf000051-resize_1-target.png,125,2.057,4.0,6144,125,meters,jsons/VE125_randls_8_rotated.json,1012861,1299225,58,Man
136,787842,DepthScenes,duration_manipulation_targetAtFixation,jsons/VE125_randls_8_rotated.json,http://54.235.29.9/FacialAge/BNav_EC2/DepthDuration/v2_depth_duration_MTurk/v2_DepthDuration_HTML.html#218,218,1366,625,1366,768,8-29-2022,14-35-22,137,depth_duration_stimuli/002763_2014-06-22_19-13-10_094959634447_rgbf000075-resize_4/002763_2014-06-22_19-13-10_094959634447_rgbf000075-resize_4-target.png,125,1.68375,2.0,2979,125,meters,jsons/VE125_randls_8_rotated.json,1012861,1299225,58,Man
137,787842,DepthScenes,duration_manipulation_targetAtFixation,jsons/VE125_randls_8_rotated.json,http://54.235.29.9/FacialAge/BNav_EC2/DepthDuration/v2_depth_duration_MTurk/v2_DepthDuration_HTML.html#218,218,1366,625,1366,768,8-29-2022,14-35-22,138,depth_duration_stimuli/003495_2014-05-21_16-01-51_094959634447_rgbf000100-resize_3/003495_2014-05-21_16-01-51_094959634447_rgbf000100-resize_3-target.png,125,1.6255,4.0,5347,125,meters,jsons/VE125_randls_8_rotated.json,1012861,1299225,58,Man
138,787842,DepthScenes,duration_manipulation_targetAtFixation,jsons/VE125_randls_8_rotated.json,http://54.235.29.9/FacialAge/BNav_EC2/DepthDuration/v2_depth_duration_MTurk/v2_DepthDuration_HTML.html#218,218,1366,625,1366,768,8-29-2022,14-35-22,139,depth_duration_stimuli/001244_2014-06-17_16-47-45_260595134347_rgbf000030-resize_4/001244_2014-06-17_16-47-45_260595134347_rgbf000030-resize_4-target.png,125,2.0425,5.0,3667,125,meters,jsons/VE125_randls_8_rotated.json,1012861,1299225,58,Man
139,787842,DepthScenes,duration_manipulation_targetAtFixation,jsons/VE125_randls_8_rotated.json,http://54.235.29.9/FacialAge/BNav_EC2/DepthDuration/v2_depth_duration_MTurk/v2_DepthDuration_HTML.html#218,218,1366,625,1366,768,8-29-2022,14-35-22,140,depth_duration_stimuli/000191_2014-05-12_17-07-38_260595134347_rgbf000199-resize_0/000191_2014-05-12_17-07-38_260595134347_rgbf000199-resize_0-target.png,125,3.7995,5.0,5427,123,meters,jsons/VE125_randls_8_rotated.json,1012861,1299225,58,Man
140,787842,DepthScenes,duration_manipulation_targetAtFixation,jsons/VE125_randls_8_rotated.json,http://54.235.29.9/FacialAge/BNav_EC2/DepthDuration/v2_depth_duration_MTurk/v2_DepthDuration_HTML.html#218,218,1366,625,1366,768,8-29-2022,14-35-22,141,depth_duration_stimuli/000493_2014-06-09_21-01-18_260595134347_rgbf000196-resize_3/000493_2014-06-09_21-01-18_260595134347_rgbf000196-resize_3-target.png,125,3.44,4.0,3266,128,meters,jsons/VE125_randls_8_rotated.json,1012861,1299225,58,Man
141,787842,DepthScenes,duration_manipulation_targetAtFixation,jsons/VE125_randls_8_rotated.json,http://54.235.29.9/FacialAge/BNav_EC2/DepthDuration/v2_depth_duration_MTurk/v2_DepthDuration_HTML.html#218,218,1366,625,1366,768,8-29-2022,14-35-22,142,depth_duration_stimuli/000137_2014-05-20_17-04-49_260595134347_rgbf000120-resize_1/000137_2014-05-20_17-04-49_260595134347_rgbf000120-resize_1-target.png,125,3.786,2.0,7421,125,meters,jsons/VE125_randls_8_rotated.json,1012861,1299225,58,Man
142,787842,DepthScenes,duration_manipulation_targetAtFixation,jsons/VE125_randls_8_rotated.json,http://54.235.29.9/FacialAge/BNav_EC2/DepthDuration/v2_depth_duration_MTurk/v2_DepthDuration_HTML.html#218,218,1366,625,1366,768,8-29-2022,14-35-22,143,depth_duration_stimuli/000736_2014-06-08_18-24-15_260595134347_rgbf000206-resize_3/000736_2014-06-08_18-24-15_260595134347_rgbf000206-resize_3-target.png,125,3.515,3.0,5529,125,meters,jsons/VE125_randls_8_rotated.json,1012861,1299225,58,Man
143,787842,DepthScenes,duration_manipulation_targetAtFixation,jsons/VE125_randls_8_rotated.json,http://54.235.29.9/FacialAge/BNav_EC2/DepthDuration/v2_depth_duration_MTurk/v2_DepthDuration_HTML.html#218,218,1366,625,1366,768,8-29-2022,14-35-22,144,depth_duration_stimuli/001032_2014-06-08_13-23-17_260595134347_rgbf000021-resize_3/001032_2014-06-08_13-23-17_260595134347_rgbf000021-resize_3-target.png,125,3.2725,2.0,6964,125,meters,jsons/VE125_randls_8_rotated.json,1012861,1299225,58,Man
144,787842,DepthScenes,duration_manipulation_targetAtFixation,jsons/VE125_randls_8_rotated.json,http://54.235.29.9/FacialAge/BNav_EC2/DepthDuration/v2_depth_duration_MTurk/v2_DepthDuration_HTML.html#218,218,1366,625,1366,768,8-29-2022,14-35-22,145,depth_duration_stimuli/001059_2014-06-08_21-53-27_260595134347_rgbf000061-resize_4/001059_2014-06-08_21-53-27_260595134347_rgbf000061-resize_4-target.png,125,2.4185,3.0,6541,124,meters,jsons/VE125_randls_8_rotated.json,1012861,1299225,58,Man
145,787842,DepthScenes,duration_manipulation_targetAtFixation,jsons/VE125_randls_8_rotated.json,http://54.235.29.9/FacialAge/BNav_EC2/DepthDuration/v2_depth_duration_MTurk/v2_DepthDuration_HTML.html#218,218,1366,625,1366,768,8-29-2022,14-35-22,146,depth_duration_stimuli/001132_2014-06-17_14-48-54_260595134347_rgbf000100-resize_2/001132_2014-06-17_14-48-54_260595134347_rgbf000100-resize_2-target.png,125,3.753,4.0,5404,125,meters,jsons/VE125_randls_8_rotated.json,1012861,1299225,58,Man
146,787842,DepthScenes,duration_manipulation_targetAtFixation,jsons/VE125_randls_8_rotated.json,http://54.235.29.9/FacialAge/BNav_EC2/DepthDuration/v2_depth_duration_MTurk/v2_DepthDuration_HTML.html#218,218,1366,625,1366,768,8-29-2022,14-35-22,147,depth_duration_stimuli/001133_2014-06-17_14-49-16_260595134347_rgbf000100-resize_0/001133_2014-06-17_14-49-16_260595134347_rgbf000100-resize_0-target.png,125,4.2115,2.0,4619,124,meters,jsons/VE125_randls_8_rotated.json,1012861,1299225,58,Man
147,787842,DepthScenes,duration_manipulation_targetAtFixation,jsons/VE125_randls_8_rotated.json,http://54.235.29.9/FacialAge/BNav_EC2/DepthDuration/v2_depth_duration_MTurk/v2_DepthDuration_HTML.html#218,218,1366,625,1366,768,8-29-2022,14-35-22,148,depth_duration_stimuli/002758_2014-06-22_19-11-20_094959634447_rgbf000128-resize_1/002758_2014-06-22_19-11-20_094959634447_rgbf000128-resize_1-target.png,125,2.555,3.0,5467,125,meters,jsons/VE125_randls_8_rotated.json,1012861,1299225,58,Man
148,787842,DepthScenes,duration_manipulation_targetAtFixation,jsons/VE125_randls_8_rotated.json,http://54.235.29.9/FacialAge/BNav_EC2/DepthDuration/v2_depth_duration_MTurk/v2_DepthDuration_HTML.html#218,218,1366,625,1366,768,8-29-2022,14-35-22,149,depth_duration_stimuli/002630_2014-06-24_14-47-50_094959634447_rgbf000055-resize_1/002630_2014-06-24_14-47-50_094959634447_rgbf000055-resize_1-target.png,125,3.0095,4.0,2883,125,meters,jsons/VE125_randls_8_rotated.json,1012861,1299225,58,Man
149,787842,DepthScenes,duration_manipulation_targetAtFixation,jsons/VE125_randls_8_rotated.json,http://54.235.29.9/FacialAge/BNav_EC2/DepthDuration/v2_depth_duration_MTurk/v2_DepthDuration_HTML.html#218,218,1366,625,1366,768,8-29-2022,14-35-22,150,depth_duration_stimuli/001650_2014-06-20_12-09-00_260595134347_rgbf000087-resize_3/001650_2014-06-20_12-09-00_260595134347_rgbf000087-resize_3-target.png,125,1.9505,4.0,6019,123,meters,jsons/VE125_randls_8_rotated.json,1012861,1299225,58,Man
150,787842,DepthScenes,duration_manipulation_targetAtFixation,jsons/VE125_randls_8_rotated.json,http://54.235.29.9/FacialAge/BNav_EC2/DepthDuration/v2_depth_duration_MTurk/v2_DepthDuration_HTML.html#218,218,1366,625,1366,768,8-29-2022,14-35-22,151,depth_duration_stimuli/000682_2014-06-08_23-14-58_260595134347_rgbf000041-resize_5/000682_2014-06-08_23-14-58_260595134347_rgbf000041-resize_5-target.png,125,2.7239999999999998,2.0,4640,121,meters,jsons/VE125_randls_8_rotated.json,1012861,1299225,58,Man
151,787842,DepthScenes,duration_manipulation_targetAtFixation,jsons/VE125_randls_8_rotated.json,http://54.235.29.9/FacialAge/BNav_EC2/DepthDuration/v2_depth_duration_MTurk/v2_DepthDuration_HTML.html#218,218,1366,625,1366,768,8-29-2022,14-35-22,152,depth_duration_stimuli/000569_2014-06-09_22-51-47_260595134347_rgbf000141-resize_3/000569_2014-06-09_22-51-47_260595134347_rgbf000141-resize-original.jpg,125,4.512,2.0,4756,125,meters,jsons/VE125_randls_8_rotated.json,1012861,1299225,58,Man
152,787842,DepthScenes,duration_manipulation_targetAtFixation,jsons/VE125_randls_8_rotated.json,http://54.235.29.9/FacialAge/BNav_EC2/DepthDuration/v2_depth_duration_MTurk/v2_DepthDuration_HTML.html#218,218,1366,625,1366,768,8-29-2022,14-35-22,153,depth_duration_stimuli/003010_2014-06-15_12-54-35_094959634447_rgbf000112-resize_0/003010_2014-06-15_12-54-35_094959634447_rgbf000112-resize_0-target.png,125,3.1185,2.0,8597,125,meters,jsons/VE125_randls_8_rotated.json,1012861,1299225,58,Man
153,787842,DepthScenes,duration_manipulation_targetAtFixation,jsons/VE125_randls_8_rotated.json,http://54.235.29.9/FacialAge/BNav_EC2/DepthDuration/v2_depth_duration_MTurk/v2_DepthDuration_HTML.html#218,218,1366,625,1366,768,8-29-2022,14-35-22,154,depth_duration_stimuli/001810_2014-06-26_20-51-35_260595134347_rgbf000040-resize_3/001810_2014-06-26_20-51-35_260595134347_rgbf000040-resize_3-target.png,125,2.2525,2.0,13539,125,meters,jsons/VE125_randls_8_rotated.json,1012861,1299225,58,Man
154,787842,DepthScenes,duration_manipulation_targetAtFixation,jsons/VE125_randls_8_rotated.json,http://54.235.29.9/FacialAge/BNav_EC2/DepthDuration/v2_depth_duration_MTurk/v2_DepthDuration_HTML.html#218,218,1366,625,1366,768,8-29-2022,14-35-22,155,depth_duration_stimuli/000483_2014-06-09_20-41-45_260595134347_rgbf000116-resize_4/000483_2014-06-09_20-41-45_260595134347_rgbf000116-resize_4-target.png,125,1.337,4.0,4843,125,meters,jsons/VE125_randls_8_rotated.json,1012861,1299225,58,Man
155,787842,DepthScenes,duration_manipulation_targetAtFixation,jsons/VE125_randls_8_rotated.json,http://54.235.29.9/FacialAge/BNav_EC2/DepthDuration/v2_depth_duration_MTurk/v2_DepthDuration_HTML.html#218,218,1366,625,1366,768,8-29-2022,14-35-22,156,depth_duration_stimuli/000469_2014-06-09_19-42-10_260595134347_rgbf000081-resize_1/000469_2014-06-09_19-42-10_260595134347_rgbf000081-resize_1-target.png,125,1.652,2.0,13105,125,meters,jsons/VE125_randls_8_rotated.json,1012861,1299225,58,Man
156,787842,DepthScenes,duration_manipulation_targetAtFixation,jsons/VE125_randls_8_rotated.json,http://54.235.29.9/FacialAge/BNav_EC2/DepthDuration/v2_depth_duration_MTurk/v2_DepthDuration_HTML.html#218,218,1366,625,1366,768,8-29-2022,14-35-22,157,depth_duration_stimuli/000943_2014-06-09_19-31-07_260595134347_rgbf000128-resize_1/000943_2014-06-09_19-31-07_260595134347_rgbf000128-resize_1-target.png,125,1.9765,2.0,10724,125,meters,jsons/VE125_randls_8_rotated.json,1012861,1299225,58,Man
157,787842,DepthScenes,duration_manipulation_targetAtFixation,jsons/VE125_randls_8_rotated.json,http://54.235.29.9/FacialAge/BNav_EC2/DepthDuration/v2_depth_duration_MTurk/v2_DepthDuration_HTML.html#218,218,1366,625,1366,768,8-29-2022,14-35-22,158,depth_duration_stimuli/003070_2014-06-15_14-58-27_094959634447_rgbf000150-resize_3/003070_2014-06-15_14-58-27_094959634447_rgbf000150-resize_3-target.png,125,2.9415,4.0,3474,122,meters,jsons/VE125_randls_8_rotated.json,1012861,1299225,58,Man
158,787842,DepthScenes,duration_manipulation_targetAtFixation,jsons/VE125_randls_8_rotated.json,http://54.235.29.9/FacialAge/BNav_EC2/DepthDuration/v2_depth_duration_MTurk/v2_DepthDuration_HTML.html#218,218,1366,625,1366,768,8-29-2022,14-35-22,159,depth_duration_stimuli/001214_2014-06-17_16-13-55_260595134347_rgbf000111-resize_0/001214_2014-06-17_16-13-55_260595134347_rgbf000111-resize_0-target.png,125,2.6505,1.0,5058,133,meters,jsons/VE125_randls_8_rotated.json,1012861,1299225,58,Man
159,787842,DepthScenes,duration_manipulation_targetAtFixation,jsons/VE125_randls_8_rotated.json,http://54.235.29.9/FacialAge/BNav_EC2/DepthDuration/v2_depth_duration_MTurk/v2_DepthDuration_HTML.html#218,218,1366,625,1366,768,8-29-2022,14-35-22,160,depth_duration_stimuli/000810_2014-06-08_17-20-01_260595134347_rgbf000105-resize_0/000810_2014-06-08_17-20-01_260595134347_rgbf000105-resize_0-target.png,125,1.4865,2.0,15403,125,meters,jsons/VE125_randls_8_rotated.json,1012861,1299225,58,Man
160,787842,DepthScenes,duration_manipulation_targetAtFixation,jsons/VE125_randls_8_rotated.json,http://54.235.29.9/FacialAge/BNav_EC2/DepthDuration/v2_depth_duration_MTurk/v2_DepthDuration_HTML.html#218,218,1366,625,1366,768,8-29-2022,14-35-22,161,depth_duration_stimuli/003490_2014-05-21_15-50-11_094959634447_rgbf000101-resize_3/003490_2014-05-21_15-50-11_094959634447_rgbf000101-resize_3-target.png,125,3.6445,2.0,21849,124,meters,jsons/VE125_randls_8_rotated.json,1012861,1299225,58,Man
161,787842,DepthScenes,duration_manipulation_targetAtFixation,jsons/VE125_randls_8_rotated.json,http://54.235.29.9/FacialAge/BNav_EC2/DepthDuration/v2_depth_duration_MTurk/v2_DepthDuration_HTML.html#218,218,1366,625,1366,768,8-29-2022,14-35-22,162,depth_duration_stimuli/001175_2014-06-17_15-45-55_260595134347_rgbf000129-resize_4/001175_2014-06-17_15-45-55_260595134347_rgbf000129-resize_4-target.png,125,4.255,2.0,8614,125,meters,jsons/VE125_randls_8_rotated.json,1012861,1299225,58,Man
162,787842,DepthScenes,duration_manipulation_targetAtFixation,jsons/VE125_randls_8_rotated.json,http://54.235.29.9/FacialAge/BNav_EC2/DepthDuration/v2_depth_duration_MTurk/v2_DepthDuration_HTML.html#218,218,1366,625,1366,768,8-29-2022,14-35-22,163,depth_duration_stimuli/001235_2014-06-17_16-37-36_260595134347_rgbf000084-resize_4/001235_2014-06-17_16-37-36_260595134347_rgbf000084-resize_4-target.png,125,3.6605,3.0,3979,124,meters,jsons/VE125_randls_8_rotated.json,1012861,1299225,58,Man
163,787842,DepthScenes,duration_manipulation_targetAtFixation,jsons/VE125_randls_8_rotated.json,http://54.235.29.9/FacialAge/BNav_EC2/DepthDuration/v2_depth_duration_MTurk/v2_DepthDuration_HTML.html#218,218,1366,625,1366,768,8-29-2022,14-35-22,164,depth_duration_stimuli/000788_2014-06-08_22-34-36_260595134347_rgbf000131-resize_1/000788_2014-06-08_22-34-36_260595134347_rgbf000131-resize_1-target.png,125,3.359,4.0,2935,134,meters,jsons/VE125_randls_8_rotated.json,1012861,1299225,58,Man
