,subjID,experimentName,versionName,sequenceName,url,selected_row,windowWidth,windowHeight,screenWidth,screenHeight,startDate,startTime,trial,stimulus,duration,actual_depth,depth_estimate,trial_RT,log_sceneDuration,unitSelection,seq_filepath,experimentTime,totalTime,age,gender
0,789736,DepthScenes,duration_manipulation_targetAtFixation,jsons/VE125_randls_2_rotated.json,http://54.235.29.9/FacialAge/BNav_EC2/DepthDuration/v2_depth_duration_MTurk/v2_DepthDuration_HTML.html#42,42,1364,625,1364,768,8-29-2022,12-22-24,1,depth_duration_stimuli/002209_2014-06-28_18-36-10_260595134347_rgbf000051-resize_1/002209_2014-06-28_18-36-10_260595134347_rgbf000051-resize_1-target.png,125,2.057,10,3610,124,feet,jsons/VE125_randls_2_rotated.json,1003267,1167715,27,Woman
1,789736,DepthScenes,duration_manipulation_targetAtFixation,jsons/VE125_randls_2_rotated.json,http://54.235.29.9/FacialAge/BNav_EC2/DepthDuration/v2_depth_duration_MTurk/v2_DepthDuration_HTML.html#42,42,1364,625,1364,768,8-29-2022,12-22-24,2,depth_duration_stimuli/002763_2014-06-22_19-13-10_094959634447_rgbf000075-resize_4/002763_2014-06-22_19-13-10_094959634447_rgbf000075-resize_4-target.png,125,1.68375,15,4788,126,feet,jsons/VE125_randls_2_rotated.json,1003267,1167715,27,Woman
2,789736,DepthScenes,duration_manipulation_targetAtFixation,jsons/VE125_randls_2_rotated.json,http://54.235.29.9/FacialAge/BNav_EC2/DepthDuration/v2_depth_duration_MTurk/v2_DepthDuration_HTML.html#42,42,1364,625,1364,768,8-29-2022,12-22-24,3,depth_duration_stimuli/000780_2014-06-08_22-28-29_260595134347_rgbf000126-resize_1/000780_2014-06-08_22-28-29_260595134347_rgbf000126-resize_1-target.png,125,3.3825,5,4779,126,feet,jsons/VE125_randls_2_rotated.json,1003267,1167715,27,Woman
3,789736,DepthScenes,duration_manipulation_targetAtFixation,jsons/VE125_randls_2_rotated.json,http://54.235.29.9/FacialAge/BNav_EC2/DepthDuration/v2_depth_duration_MTurk/v2_DepthDuration_HTML.html#42,42,1364,625,1364,768,8-29-2022,12-22-24,4,depth_duration_stimuli/002445_2014-06-28_20-32-16_260595134347_rgbf000029-resize_4/002445_2014-06-28_20-32-16_260595134347_rgbf000029-resize_4-target.png,125,2.5315,10,3727,116,feet,jsons/VE125_randls_2_rotated.json,1003267,1167715,27,Woman
4,789736,DepthScenes,duration_manipulation_targetAtFixation,jsons/VE125_randls_2_rotated.json,http://54.235.29.9/FacialAge/BNav_EC2/DepthDuration/v2_depth_duration_MTurk/v2_DepthDuration_HTML.html#42,42,1364,625,1364,768,8-29-2022,12-22-24,5,depth_duration_stimuli/002805_2014-06-22_19-54-03_094959634447_rgbf000079-resize_1/002805_2014-06-22_19-54-03_094959634447_rgbf000079-resize_1-target.png,125,3.1439999999999997,4,5157,126,feet,jsons/VE125_randls_2_rotated.json,1003267,1167715,27,Woman
5,789736,DepthScenes,duration_manipulation_targetAtFixation,jsons/VE125_randls_2_rotated.json,http://54.235.29.9/FacialAge/BNav_EC2/DepthDuration/v2_depth_duration_MTurk/v2_DepthDuration_HTML.html#42,42,1364,625,1364,768,8-29-2022,12-22-24,6,depth_duration_stimuli/000906_2014-06-08_13-35-43_260595134347_rgbf000155-resize_1/000906_2014-06-08_13-35-43_260595134347_rgbf000155-resize_1-target.png,125,2.8489999999999998,12,4857,126,feet,jsons/VE125_randls_2_rotated.json,1003267,1167715,27,Woman
6,789736,DepthScenes,duration_manipulation_targetAtFixation,jsons/VE125_randls_2_rotated.json,http://54.235.29.9/FacialAge/BNav_EC2/DepthDuration/v2_depth_duration_MTurk/v2_DepthDuration_HTML.html#42,42,1364,625,1364,768,8-29-2022,12-22-24,7,depth_duration_stimuli/000556_2014-06-09_22-42-56_260595134347_rgbf000214-resize_1/000556_2014-06-09_22-42-56_260595134347_rgbf000214-resize_1-target.png,125,4.8415,10,5062,97,feet,jsons/VE125_randls_2_rotated.json,1003267,1167715,27,Woman
7,789736,DepthScenes,duration_manipulation_targetAtFixation,jsons/VE125_randls_2_rotated.json,http://54.235.29.9/FacialAge/BNav_EC2/DepthDuration/v2_depth_duration_MTurk/v2_DepthDuration_HTML.html#42,42,1364,625,1364,768,8-29-2022,12-22-24,8,depth_duration_stimuli/001158_2014-06-17_15-32-16_260595134347_rgbf000138-resize_2/001158_2014-06-17_15-32-16_260595134347_rgbf000138-resize_2-target.png,125,4.5315,12,3725,129,feet,jsons/VE125_randls_2_rotated.json,1003267,1167715,27,Woman
8,789736,DepthScenes,duration_manipulation_targetAtFixation,jsons/VE125_randls_2_rotated.json,http://54.235.29.9/FacialAge/BNav_EC2/DepthDuration/v2_depth_duration_MTurk/v2_DepthDuration_HTML.html#42,42,1364,625,1364,768,8-29-2022,12-22-24,9,depth_duration_stimuli/002444_2014-06-28_20-32-08_260595134347_rgbf000027-resize_0/002444_2014-06-28_20-32-08_260595134347_rgbf000027-resize_0-target.png,125,4.388999999999999,40,4956,125,feet,jsons/VE125_randls_2_rotated.json,1003267,1167715,27,Woman
9,789736,DepthScenes,duration_manipulation_targetAtFixation,jsons/VE125_randls_2_rotated.json,http://54.235.29.9/FacialAge/BNav_EC2/DepthDuration/v2_depth_duration_MTurk/v2_DepthDuration_HTML.html#42,42,1364,625,1364,768,8-29-2022,12-22-24,10,depth_duration_stimuli/000436_2014-06-09_22-25-11_260595134347_rgbf000137-resize_1/000436_2014-06-09_22-25-11_260595134347_rgbf000137-resize_1-target.png,125,4.0705,0,2867,124,feet,jsons/VE125_randls_2_rotated.json,1003267,1167715,27,Woman
10,789736,DepthScenes,duration_manipulation_targetAtFixation,jsons/VE125_randls_2_rotated.json,http://54.235.29.9/FacialAge/BNav_EC2/DepthDuration/v2_depth_duration_MTurk/v2_DepthDuration_HTML.html#42,42,1364,625,1364,768,8-29-2022,12-22-24,11,depth_duration_stimuli/002953_2014-06-08_17-32-18_094959634447_rgbf000059-resize_5/002953_2014-06-08_17-32-18_094959634447_rgbf000059-resize_5-target.png,125,1.551,5,5010,134,feet,jsons/VE125_randls_2_rotated.json,1003267,1167715,27,Woman
11,789736,DepthScenes,duration_manipulation_targetAtFixation,jsons/VE125_randls_2_rotated.json,http://54.235.29.9/FacialAge/BNav_EC2/DepthDuration/v2_depth_duration_MTurk/v2_DepthDuration_HTML.html#42,42,1364,625,1364,768,8-29-2022,12-22-24,12,depth_duration_stimuli/000878_2014-06-08_22-52-45_260595134347_rgbf000045-resize_2/000878_2014-06-08_22-52-45_260595134347_rgbf000045-resize_2-target.png,125,2.092,10,3978,130,feet,jsons/VE125_randls_2_rotated.json,1003267,1167715,27,Woman
12,789736,DepthScenes,duration_manipulation_targetAtFixation,jsons/VE125_randls_2_rotated.json,http://54.235.29.9/FacialAge/BNav_EC2/DepthDuration/v2_depth_duration_MTurk/v2_DepthDuration_HTML.html#42,42,1364,625,1364,768,8-29-2022,12-22-24,13,depth_duration_stimuli/001516_2014-06-20_16-25-09_260595134347_rgbf000076-resize_2/001516_2014-06-20_16-25-09_260595134347_rgbf000076-resize_2-target.png,125,1.7445,10,5380,125,feet,jsons/VE125_randls_2_rotated.json,1003267,1167715,27,Woman
13,789736,DepthScenes,duration_manipulation_targetAtFixation,jsons/VE125_randls_2_rotated.json,http://54.235.29.9/FacialAge/BNav_EC2/DepthDuration/v2_depth_duration_MTurk/v2_DepthDuration_HTML.html#42,42,1364,625,1364,768,8-29-2022,12-22-24,14,depth_duration_stimuli/002118_2014-06-25_20-32-08_260595134347_rgbf000078-resize_1/002118_2014-06-25_20-32-08_260595134347_rgbf000078-resize_1-target.png,125,2.6460000000000004,15,4366,125,feet,jsons/VE125_randls_2_rotated.json,1003267,1167715,27,Woman
14,789736,DepthScenes,duration_manipulation_targetAtFixation,jsons/VE125_randls_2_rotated.json,http://54.235.29.9/FacialAge/BNav_EC2/DepthDuration/v2_depth_duration_MTurk/v2_DepthDuration_HTML.html#42,42,1364,625,1364,768,8-29-2022,12-22-24,15,depth_duration_stimuli/003083_2014-06-15_15-21-03_094959634447_rgbf000063-resize_1/003083_2014-06-15_15-21-03_094959634447_rgbf000063-resize_1-target.png,125,4.1405,10,3724,126,feet,jsons/VE125_randls_2_rotated.json,1003267,1167715,27,Woman
15,789736,DepthScenes,duration_manipulation_targetAtFixation,jsons/VE125_randls_2_rotated.json,http://54.235.29.9/FacialAge/BNav_EC2/DepthDuration/v2_depth_duration_MTurk/v2_DepthDuration_HTML.html#42,42,1364,625,1364,768,8-29-2022,12-22-24,16,depth_duration_stimuli/000486_2014-06-09_20-47-20_260595134347_rgbf000143-resize_2/000486_2014-06-09_20-47-20_260595134347_rgbf000143-resize_2-target.png,125,4.8325,10,3235,102,feet,jsons/VE125_randls_2_rotated.json,1003267,1167715,27,Woman
16,789736,DepthScenes,duration_manipulation_targetAtFixation,jsons/VE125_randls_2_rotated.json,http://54.235.29.9/FacialAge/BNav_EC2/DepthDuration/v2_depth_duration_MTurk/v2_DepthDuration_HTML.html#42,42,1364,625,1364,768,8-29-2022,12-22-24,17,depth_duration_stimuli/000691_2014-06-08_13-08-50_260595134347_rgbf000132-resize_3/000691_2014-06-08_13-08-50_260595134347_rgbf000132-resize_3-target.png,125,4.1530000000000005,3,3917,124,feet,jsons/VE125_randls_2_rotated.json,1003267,1167715,27,Woman
17,789736,DepthScenes,duration_manipulation_targetAtFixation,jsons/VE125_randls_2_rotated.json,http://54.235.29.9/FacialAge/BNav_EC2/DepthDuration/v2_depth_duration_MTurk/v2_DepthDuration_HTML.html#42,42,1364,625,1364,768,8-29-2022,12-22-24,18,depth_duration_stimuli/002213_2014-06-28_18-37-58_260595134347_rgbf000055-resize_1/002213_2014-06-28_18-37-58_260595134347_rgbf000055-resize_1-target.png,125,3.62,15,3582,125,feet,jsons/VE125_randls_2_rotated.json,1003267,1167715,27,Woman
18,789736,DepthScenes,duration_manipulation_targetAtFixation,jsons/VE125_randls_2_rotated.json,http://54.235.29.9/FacialAge/BNav_EC2/DepthDuration/v2_depth_duration_MTurk/v2_DepthDuration_HTML.html#42,42,1364,625,1364,768,8-29-2022,12-22-24,19,depth_duration_stimuli/001498_2014-06-19_17-45-14_260595134347_rgbf000129-resize_4/001498_2014-06-19_17-45-14_260595134347_rgbf000129-resize-original.jpg,125,1.4075,100,3892,124,feet,jsons/VE125_randls_2_rotated.json,1003267,1167715,27,Woman
19,789736,DepthScenes,duration_manipulation_targetAtFixation,jsons/VE125_randls_2_rotated.json,http://54.235.29.9/FacialAge/BNav_EC2/DepthDuration/v2_depth_duration_MTurk/v2_DepthDuration_HTML.html#42,42,1364,625,1364,768,8-29-2022,12-22-24,20,depth_duration_stimuli/003129_2014-05-12_10-48-10_094959634447_rgbf000100-resize_0/003129_2014-05-12_10-48-10_094959634447_rgbf000100-resize_0-target.png,125,4.9305,2,5777,119,feet,jsons/VE125_randls_2_rotated.json,1003267,1167715,27,Woman
20,789736,DepthScenes,duration_manipulation_targetAtFixation,jsons/VE125_randls_2_rotated.json,http://54.235.29.9/FacialAge/BNav_EC2/DepthDuration/v2_depth_duration_MTurk/v2_DepthDuration_HTML.html#42,42,1364,625,1364,768,8-29-2022,12-22-24,21,depth_duration_stimuli/000414_2014-06-04_19-49-13_260595134347_rgbf000044-resize_0/000414_2014-06-04_19-49-13_260595134347_rgbf000044-resize_0-target.png,125,4.329,5,40679,130,feet,jsons/VE125_randls_2_rotated.json,1003267,1167715,27,Woman
21,789736,DepthScenes,duration_manipulation_targetAtFixation,jsons/VE125_randls_2_rotated.json,http://54.235.29.9/FacialAge/BNav_EC2/DepthDuration/v2_depth_duration_MTurk/v2_DepthDuration_HTML.html#42,42,1364,625,1364,768,8-29-2022,12-22-24,22,depth_duration_stimuli/002103_2014-06-25_20-00-40_260595134347_rgbf000049-resize_0/002103_2014-06-25_20-00-40_260595134347_rgbf000049-resize_0-target.png,125,4.105,5,3953,125,feet,jsons/VE125_randls_2_rotated.json,1003267,1167715,27,Woman
22,789736,DepthScenes,duration_manipulation_targetAtFixation,jsons/VE125_randls_2_rotated.json,http://54.235.29.9/FacialAge/BNav_EC2/DepthDuration/v2_depth_duration_MTurk/v2_DepthDuration_HTML.html#42,42,1364,625,1364,768,8-29-2022,12-22-24,23,depth_duration_stimuli/002039_2014-06-24_20-22-38_260595134347_rgbf000084-resize_1/002039_2014-06-24_20-22-38_260595134347_rgbf000084-resize_1-target.png,125,4.408,4,2887,125,feet,jsons/VE125_randls_2_rotated.json,1003267,1167715,27,Woman
23,789736,DepthScenes,duration_manipulation_targetAtFixation,jsons/VE125_randls_2_rotated.json,http://54.235.29.9/FacialAge/BNav_EC2/DepthDuration/v2_depth_duration_MTurk/v2_DepthDuration_HTML.html#42,42,1364,625,1364,768,8-29-2022,12-22-24,24,depth_duration_stimuli/002414_2014-06-28_20-24-58_260595134347_rgbf000067-resize_4/002414_2014-06-28_20-24-58_260595134347_rgbf000067-resize_4-target.png,125,4.363,4,3955,124,feet,jsons/VE125_randls_2_rotated.json,1003267,1167715,27,Woman
24,789736,DepthScenes,duration_manipulation_targetAtFixation,jsons/VE125_randls_2_rotated.json,http://54.235.29.9/FacialAge/BNav_EC2/DepthDuration/v2_depth_duration_MTurk/v2_DepthDuration_HTML.html#42,42,1364,625,1364,768,8-29-2022,12-22-24,25,depth_duration_stimuli/000773_2014-06-08_22-24-54_260595134347_rgbf000093-resize_1/000773_2014-06-08_22-24-54_260595134347_rgbf000093-resize_1-target.png,125,4.973,10,3994,124,feet,jsons/VE125_randls_2_rotated.json,1003267,1167715,27,Woman
25,789736,DepthScenes,duration_manipulation_targetAtFixation,jsons/VE125_randls_2_rotated.json,http://54.235.29.9/FacialAge/BNav_EC2/DepthDuration/v2_depth_duration_MTurk/v2_DepthDuration_HTML.html#42,42,1364,625,1364,768,8-29-2022,12-22-24,26,depth_duration_stimuli/003010_2014-06-15_12-54-35_094959634447_rgbf000112-resize_0/003010_2014-06-15_12-54-35_094959634447_rgbf000112-resize_0-target.png,125,3.1185,10,5171,125,feet,jsons/VE125_randls_2_rotated.json,1003267,1167715,27,Woman
26,789736,DepthScenes,duration_manipulation_targetAtFixation,jsons/VE125_randls_2_rotated.json,http://54.235.29.9/FacialAge/BNav_EC2/DepthDuration/v2_depth_duration_MTurk/v2_DepthDuration_HTML.html#42,42,1364,625,1364,768,8-29-2022,12-22-24,27,depth_duration_stimuli/001810_2014-06-26_20-51-35_260595134347_rgbf000040-resize_3/001810_2014-06-26_20-51-35_260595134347_rgbf000040-resize_3-target.png,125,2.2525,10,3788,125,feet,jsons/VE125_randls_2_rotated.json,1003267,1167715,27,Woman
27,789736,DepthScenes,duration_manipulation_targetAtFixation,jsons/VE125_randls_2_rotated.json,http://54.235.29.9/FacialAge/BNav_EC2/DepthDuration/v2_depth_duration_MTurk/v2_DepthDuration_HTML.html#42,42,1364,625,1364,768,8-29-2022,12-22-24,28,depth_duration_stimuli/001100_2014-06-15_17-46-26_260595134347_rgbf000225-resize_2/001100_2014-06-15_17-46-26_260595134347_rgbf000225-resize_2-target.png,125,2.24,10,45878,129,feet,jsons/VE125_randls_2_rotated.json,1003267,1167715,27,Woman
28,789736,DepthScenes,duration_manipulation_targetAtFixation,jsons/VE125_randls_2_rotated.json,http://54.235.29.9/FacialAge/BNav_EC2/DepthDuration/v2_depth_duration_MTurk/v2_DepthDuration_HTML.html#42,42,1364,625,1364,768,8-29-2022,12-22-24,29,depth_duration_stimuli/002784_2014-06-22_19-26-30_094959634447_rgbf000083-resize_3/002784_2014-06-22_19-26-30_094959634447_rgbf000083-resize_3-target.png,125,1.8046666666667,5,3332,124,feet,jsons/VE125_randls_2_rotated.json,1003267,1167715,27,Woman
29,789736,DepthScenes,duration_manipulation_targetAtFixation,jsons/VE125_randls_2_rotated.json,http://54.235.29.9/FacialAge/BNav_EC2/DepthDuration/v2_depth_duration_MTurk/v2_DepthDuration_HTML.html#42,42,1364,625,1364,768,8-29-2022,12-22-24,30,depth_duration_stimuli/002072_2014-06-24_21-48-06_260595134347_rgbf000115-resize_0/002072_2014-06-24_21-48-06_260595134347_rgbf000115-resize-original.jpg,125,4.702,5,3858,125,feet,jsons/VE125_randls_2_rotated.json,1003267,1167715,27,Woman
30,789736,DepthScenes,duration_manipulation_targetAtFixation,jsons/VE125_randls_2_rotated.json,http://54.235.29.9/FacialAge/BNav_EC2/DepthDuration/v2_depth_duration_MTurk/v2_DepthDuration_HTML.html#42,42,1364,625,1364,768,8-29-2022,12-22-24,31,depth_duration_stimuli/001392_2014-06-19_16-07-59_260595134347_rgbf000046-resize_1/001392_2014-06-19_16-07-59_260595134347_rgbf000046-resize_1-target.png,125,4.135,10,4214,126,feet,jsons/VE125_randls_2_rotated.json,1003267,1167715,27,Woman
31,789736,DepthScenes,duration_manipulation_targetAtFixation,jsons/VE125_randls_2_rotated.json,http://54.235.29.9/FacialAge/BNav_EC2/DepthDuration/v2_depth_duration_MTurk/v2_DepthDuration_HTML.html#42,42,1364,625,1364,768,8-29-2022,12-22-24,32,depth_duration_stimuli/001570_2014-06-20_17-21-09_260595134347_rgbf000135-resize_4/001570_2014-06-20_17-21-09_260595134347_rgbf000135-resize_4-target.png,125,4.467,5,3931,135,feet,jsons/VE125_randls_2_rotated.json,1003267,1167715,27,Woman
32,789736,DepthScenes,duration_manipulation_targetAtFixation,jsons/VE125_randls_2_rotated.json,http://54.235.29.9/FacialAge/BNav_EC2/DepthDuration/v2_depth_duration_MTurk/v2_DepthDuration_HTML.html#42,42,1364,625,1364,768,8-29-2022,12-22-24,33,depth_duration_stimuli/001052_2014-06-08_18-24-54_260595134347_rgbf000130-resize_1/001052_2014-06-08_18-24-54_260595134347_rgbf000130-resize_1-target.png,125,4.1045,2,3940,125,feet,jsons/VE125_randls_2_rotated.json,1003267,1167715,27,Woman
33,789736,DepthScenes,duration_manipulation_targetAtFixation,jsons/VE125_randls_2_rotated.json,http://54.235.29.9/FacialAge/BNav_EC2/DepthDuration/v2_depth_duration_MTurk/v2_DepthDuration_HTML.html#42,42,1364,625,1364,768,8-29-2022,12-22-24,34,depth_duration_stimuli/002988_2014-06-15_12-24-20_094959634447_rgbf000150-resize_1/002988_2014-06-15_12-24-20_094959634447_rgbf000150-resize_1-target.png,125,4.7669999999999995,4,3636,120,feet,jsons/VE125_randls_2_rotated.json,1003267,1167715,27,Woman
34,789736,DepthScenes,duration_manipulation_targetAtFixation,jsons/VE125_randls_2_rotated.json,http://54.235.29.9/FacialAge/BNav_EC2/DepthDuration/v2_depth_duration_MTurk/v2_DepthDuration_HTML.html#42,42,1364,625,1364,768,8-29-2022,12-22-24,35,depth_duration_stimuli/000665_2014-06-09_20-42-35_260595134347_rgbf000110-resize_1/000665_2014-06-09_20-42-35_260595134347_rgbf000110-resize_1-target.png,125,3.057,255,4444,114,feet,jsons/VE125_randls_2_rotated.json,1003267,1167715,27,Woman
35,789736,DepthScenes,duration_manipulation_targetAtFixation,jsons/VE125_randls_2_rotated.json,http://54.235.29.9/FacialAge/BNav_EC2/DepthDuration/v2_depth_duration_MTurk/v2_DepthDuration_HTML.html#42,42,1364,625,1364,768,8-29-2022,12-22-24,36,depth_duration_stimuli/001150_2014-06-17_15-27-34_260595134347_rgbf000108-resize_2/001150_2014-06-17_15-27-34_260595134347_rgbf000108-resize_2-target.png,125,4.0325,55,3086,130,feet,jsons/VE125_randls_2_rotated.json,1003267,1167715,27,Woman
36,789736,DepthScenes,duration_manipulation_targetAtFixation,jsons/VE125_randls_2_rotated.json,http://54.235.29.9/FacialAge/BNav_EC2/DepthDuration/v2_depth_duration_MTurk/v2_DepthDuration_HTML.html#42,42,1364,625,1364,768,8-29-2022,12-22-24,37,depth_duration_stimuli/000137_2014-05-20_17-04-49_260595134347_rgbf000120-resize_1/000137_2014-05-20_17-04-49_260595134347_rgbf000120-resize_1-target.png,125,3.786,45,3241,122,feet,jsons/VE125_randls_2_rotated.json,1003267,1167715,27,Woman
37,789736,DepthScenes,duration_manipulation_targetAtFixation,jsons/VE125_randls_2_rotated.json,http://54.235.29.9/FacialAge/BNav_EC2/DepthDuration/v2_depth_duration_MTurk/v2_DepthDuration_HTML.html#42,42,1364,625,1364,768,8-29-2022,12-22-24,38,depth_duration_stimuli/000736_2014-06-08_18-24-15_260595134347_rgbf000206-resize_3/000736_2014-06-08_18-24-15_260595134347_rgbf000206-resize_3-target.png,125,3.515,58,6895,127,feet,jsons/VE125_randls_2_rotated.json,1003267,1167715,27,Woman
38,789736,DepthScenes,duration_manipulation_targetAtFixation,jsons/VE125_randls_2_rotated.json,http://54.235.29.9/FacialAge/BNav_EC2/DepthDuration/v2_depth_duration_MTurk/v2_DepthDuration_HTML.html#42,42,1364,625,1364,768,8-29-2022,12-22-24,39,depth_duration_stimuli/001235_2014-06-17_16-37-36_260595134347_rgbf000084-resize_4/001235_2014-06-17_16-37-36_260595134347_rgbf000084-resize_4-target.png,125,3.6605,25,3429,125,feet,jsons/VE125_randls_2_rotated.json,1003267,1167715,27,Woman
39,789736,DepthScenes,duration_manipulation_targetAtFixation,jsons/VE125_randls_2_rotated.json,http://54.235.29.9/FacialAge/BNav_EC2/DepthDuration/v2_depth_duration_MTurk/v2_DepthDuration_HTML.html#42,42,1364,625,1364,768,8-29-2022,12-22-24,40,depth_duration_stimuli/000788_2014-06-08_22-34-36_260595134347_rgbf000131-resize_1/000788_2014-06-08_22-34-36_260595134347_rgbf000131-resize_1-target.png,125,3.359,25,3426,111,feet,jsons/VE125_randls_2_rotated.json,1003267,1167715,27,Woman
40,789736,DepthScenes,duration_manipulation_targetAtFixation,jsons/VE125_randls_2_rotated.json,http://54.235.29.9/FacialAge/BNav_EC2/DepthDuration/v2_depth_duration_MTurk/v2_DepthDuration_HTML.html#42,42,1364,625,1364,768,8-29-2022,12-22-24,41,depth_duration_stimuli/002995_2014-06-15_12-31-26_094959634447_rgbf000150-resize_1/002995_2014-06-15_12-31-26_094959634447_rgbf000150-resize_1-target.png,125,3.8360000000000003,25,3541,134,feet,jsons/VE125_randls_2_rotated.json,1003267,1167715,27,Woman
41,789736,DepthScenes,duration_manipulation_targetAtFixation,jsons/VE125_randls_2_rotated.json,http://54.235.29.9/FacialAge/BNav_EC2/DepthDuration/v2_depth_duration_MTurk/v2_DepthDuration_HTML.html#42,42,1364,625,1364,768,8-29-2022,12-22-24,42,depth_duration_stimuli/002748_2014-06-22_19-07-22_094959634447_rgbf000078-resize_1/002748_2014-06-22_19-07-22_094959634447_rgbf000078-resize_1-target.png,125,4.6705,26,4179,131,feet,jsons/VE125_randls_2_rotated.json,1003267,1167715,27,Woman
42,789736,DepthScenes,duration_manipulation_targetAtFixation,jsons/VE125_randls_2_rotated.json,http://54.235.29.9/FacialAge/BNav_EC2/DepthDuration/v2_depth_duration_MTurk/v2_DepthDuration_HTML.html#42,42,1364,625,1364,768,8-29-2022,12-22-24,43,depth_duration_stimuli/000854_2014-06-09_19-43-13_260595134347_rgbf000066-resize_0/000854_2014-06-09_19-43-13_260595134347_rgbf000066-resize_0-target.png,125,3.068,20,5383,125,feet,jsons/VE125_randls_2_rotated.json,1003267,1167715,27,Woman
43,789736,DepthScenes,duration_manipulation_targetAtFixation,jsons/VE125_randls_2_rotated.json,http://54.235.29.9/FacialAge/BNav_EC2/DepthDuration/v2_depth_duration_MTurk/v2_DepthDuration_HTML.html#42,42,1364,625,1364,768,8-29-2022,12-22-24,44,depth_duration_stimuli/000758_2014-06-08_22-05-08_260595134347_rgbf000085-resize_0/000758_2014-06-08_22-05-08_260595134347_rgbf000085-resize_0-target.png,125,3.3810000000000002,20,4774,121,feet,jsons/VE125_randls_2_rotated.json,1003267,1167715,27,Woman
44,789736,DepthScenes,duration_manipulation_targetAtFixation,jsons/VE125_randls_2_rotated.json,http://54.235.29.9/FacialAge/BNav_EC2/DepthDuration/v2_depth_duration_MTurk/v2_DepthDuration_HTML.html#42,42,1364,625,1364,768,8-29-2022,12-22-24,45,depth_duration_stimuli/001584_2014-06-20_11-07-43_260595134347_rgbf000002-resize_1/001584_2014-06-20_11-07-43_260595134347_rgbf000002-resize_1-target.png,125,3.53,25,4494,129,feet,jsons/VE125_randls_2_rotated.json,1003267,1167715,27,Woman
45,789736,DepthScenes,duration_manipulation_targetAtFixation,jsons/VE125_randls_2_rotated.json,http://54.235.29.9/FacialAge/BNav_EC2/DepthDuration/v2_depth_duration_MTurk/v2_DepthDuration_HTML.html#42,42,1364,625,1364,768,8-29-2022,12-22-24,46,depth_duration_stimuli/003621_2014-05-23_18-06-08_094959634447_rgbf000101-resize_1/003621_2014-05-23_18-06-08_094959634447_rgbf000101-resize_1-target.png,125,3.9835,24,3196,125,feet,jsons/VE125_randls_2_rotated.json,1003267,1167715,27,Woman
46,789736,DepthScenes,duration_manipulation_targetAtFixation,jsons/VE125_randls_2_rotated.json,http://54.235.29.9/FacialAge/BNav_EC2/DepthDuration/v2_depth_duration_MTurk/v2_DepthDuration_HTML.html#42,42,1364,625,1364,768,8-29-2022,12-22-24,47,depth_duration_stimuli/000409_2014-06-04_19-23-33_260595134347_rgbf000067-resize_0/000409_2014-06-04_19-23-33_260595134347_rgbf000067-resize_0-target.png,125,3.7335,25,4246,122,feet,jsons/VE125_randls_2_rotated.json,1003267,1167715,27,Woman
47,789736,DepthScenes,duration_manipulation_targetAtFixation,jsons/VE125_randls_2_rotated.json,http://54.235.29.9/FacialAge/BNav_EC2/DepthDuration/v2_depth_duration_MTurk/v2_DepthDuration_HTML.html#42,42,1364,625,1364,768,8-29-2022,12-22-24,48,depth_duration_stimuli/002663_2014-06-13_15-50-26_094959634447_rgbf000075-resize_1/002663_2014-06-13_15-50-26_094959634447_rgbf000075-resize_1-target.png,125,4.7495,250,3158,128,feet,jsons/VE125_randls_2_rotated.json,1003267,1167715,27,Woman
48,789736,DepthScenes,duration_manipulation_targetAtFixation,jsons/VE125_randls_2_rotated.json,http://54.235.29.9/FacialAge/BNav_EC2/DepthDuration/v2_depth_duration_MTurk/v2_DepthDuration_HTML.html#42,42,1364,625,1364,768,8-29-2022,12-22-24,49,depth_duration_stimuli/001170_2014-06-17_15-43-44_260595134347_rgbf000096-resize_6/001170_2014-06-17_15-43-44_260595134347_rgbf000096-resize-original.jpg,125,1.1909999999999998,20,4026,119,feet,jsons/VE125_randls_2_rotated.json,1003267,1167715,27,Woman
49,789736,DepthScenes,duration_manipulation_targetAtFixation,jsons/VE125_randls_2_rotated.json,http://54.235.29.9/FacialAge/BNav_EC2/DepthDuration/v2_depth_duration_MTurk/v2_DepthDuration_HTML.html#42,42,1364,625,1364,768,8-29-2022,12-22-24,50,depth_duration_stimuli/003079_2014-06-15_15-18-20_094959634447_rgbf000152-resize_8/003079_2014-06-15_15-18-20_094959634447_rgbf000152-resize_8-target.png,125,2.8775,14,4393,124,feet,jsons/VE125_randls_2_rotated.json,1003267,1167715,27,Woman
50,789736,DepthScenes,duration_manipulation_targetAtFixation,jsons/VE125_randls_2_rotated.json,http://54.235.29.9/FacialAge/BNav_EC2/DepthDuration/v2_depth_duration_MTurk/v2_DepthDuration_HTML.html#42,42,1364,625,1364,768,8-29-2022,12-22-24,51,depth_duration_stimuli/000506_2014-06-08_23-21-00_260595134347_rgbf000070-resize_7/000506_2014-06-08_23-21-00_260595134347_rgbf000070-resize_7-target.png,125,4.0585,15,4092,125,feet,jsons/VE125_randls_2_rotated.json,1003267,1167715,27,Woman
51,789736,DepthScenes,duration_manipulation_targetAtFixation,jsons/VE125_randls_2_rotated.json,http://54.235.29.9/FacialAge/BNav_EC2/DepthDuration/v2_depth_duration_MTurk/v2_DepthDuration_HTML.html#42,42,1364,625,1364,768,8-29-2022,12-22-24,52,depth_duration_stimuli/001617_2014-06-20_11-35-32_260595134347_rgbf000066-resize_1/001617_2014-06-20_11-35-32_260595134347_rgbf000066-resize_1-target.png,125,3.7910000000000004,25,3611,125,feet,jsons/VE125_randls_2_rotated.json,1003267,1167715,27,Woman
52,789736,DepthScenes,duration_manipulation_targetAtFixation,jsons/VE125_randls_2_rotated.json,http://54.235.29.9/FacialAge/BNav_EC2/DepthDuration/v2_depth_duration_MTurk/v2_DepthDuration_HTML.html#42,42,1364,625,1364,768,8-29-2022,12-22-24,53,depth_duration_stimuli/001806_2014-06-26_20-50-20_260595134347_rgbf000091-resize_1/001806_2014-06-26_20-50-20_260595134347_rgbf000091-resize_1-target.png,125,2.7305,25,23455,125,feet,jsons/VE125_randls_2_rotated.json,1003267,1167715,27,Woman
53,789736,DepthScenes,duration_manipulation_targetAtFixation,jsons/VE125_randls_2_rotated.json,http://54.235.29.9/FacialAge/BNav_EC2/DepthDuration/v2_depth_duration_MTurk/v2_DepthDuration_HTML.html#42,42,1364,625,1364,768,8-29-2022,12-22-24,54,depth_duration_stimuli/000709_2014-06-08_13-51-55_260595134347_rgbf000068-resize_3/000709_2014-06-08_13-51-55_260595134347_rgbf000068-resize_3-target.png,125,1.8030000000000002,1,4032,124,feet,jsons/VE125_randls_2_rotated.json,1003267,1167715,27,Woman
54,789736,DepthScenes,duration_manipulation_targetAtFixation,jsons/VE125_randls_2_rotated.json,http://54.235.29.9/FacialAge/BNav_EC2/DepthDuration/v2_depth_duration_MTurk/v2_DepthDuration_HTML.html#42,42,1364,625,1364,768,8-29-2022,12-22-24,55,depth_duration_stimuli/002057_2014-06-24_21-00-13_260595134347_rgbf000120-resize_1/002057_2014-06-24_21-00-13_260595134347_rgbf000120-resize_1-target.png,125,2.967,7,3016,124,feet,jsons/VE125_randls_2_rotated.json,1003267,1167715,27,Woman
55,789736,DepthScenes,duration_manipulation_targetAtFixation,jsons/VE125_randls_2_rotated.json,http://54.235.29.9/FacialAge/BNav_EC2/DepthDuration/v2_depth_duration_MTurk/v2_DepthDuration_HTML.html#42,42,1364,625,1364,768,8-29-2022,12-22-24,56,depth_duration_stimuli/001032_2014-06-08_13-23-17_260595134347_rgbf000021-resize_3/001032_2014-06-08_13-23-17_260595134347_rgbf000021-resize_3-target.png,125,3.2725,8,3533,126,feet,jsons/VE125_randls_2_rotated.json,1003267,1167715,27,Woman
56,789736,DepthScenes,duration_manipulation_targetAtFixation,jsons/VE125_randls_2_rotated.json,http://54.235.29.9/FacialAge/BNav_EC2/DepthDuration/v2_depth_duration_MTurk/v2_DepthDuration_HTML.html#42,42,1364,625,1364,768,8-29-2022,12-22-24,57,depth_duration_stimuli/001059_2014-06-08_21-53-27_260595134347_rgbf000061-resize_4/001059_2014-06-08_21-53-27_260595134347_rgbf000061-resize_4-target.png,125,2.4185,10,3401,125,feet,jsons/VE125_randls_2_rotated.json,1003267,1167715,27,Woman
57,789736,DepthScenes,duration_manipulation_targetAtFixation,jsons/VE125_randls_2_rotated.json,http://54.235.29.9/FacialAge/BNav_EC2/DepthDuration/v2_depth_duration_MTurk/v2_DepthDuration_HTML.html#42,42,1364,625,1364,768,8-29-2022,12-22-24,58,depth_duration_stimuli/001094_2014-06-15_17-36-00_260595134347_rgbf000205-resize_0/001094_2014-06-15_17-36-00_260595134347_rgbf000205-resize_0-target.png,125,4.2175,45,4068,131,feet,jsons/VE125_randls_2_rotated.json,1003267,1167715,27,Woman
58,789736,DepthScenes,duration_manipulation_targetAtFixation,jsons/VE125_randls_2_rotated.json,http://54.235.29.9/FacialAge/BNav_EC2/DepthDuration/v2_depth_duration_MTurk/v2_DepthDuration_HTML.html#42,42,1364,625,1364,768,8-29-2022,12-22-24,59,depth_duration_stimuli/000692_2014-06-08_13-09-42_260595134347_rgbf000199-resize_2/000692_2014-06-08_13-09-42_260595134347_rgbf000199-resize_2-target.png,125,3.661,7,10302,125,feet,jsons/VE125_randls_2_rotated.json,1003267,1167715,27,Woman
59,789736,DepthScenes,duration_manipulation_targetAtFixation,jsons/VE125_randls_2_rotated.json,http://54.235.29.9/FacialAge/BNav_EC2/DepthDuration/v2_depth_duration_MTurk/v2_DepthDuration_HTML.html#42,42,1364,625,1364,768,8-29-2022,12-22-24,60,depth_duration_stimuli/002344_2014-06-28_20-06-29_260595134347_rgbf000030-resize_1/002344_2014-06-28_20-06-29_260595134347_rgbf000030-resize_1-target.png,125,1.5795,2,3581,125,feet,jsons/VE125_randls_2_rotated.json,1003267,1167715,27,Woman
60,789736,DepthScenes,duration_manipulation_targetAtFixation,jsons/VE125_randls_2_rotated.json,http://54.235.29.9/FacialAge/BNav_EC2/DepthDuration/v2_depth_duration_MTurk/v2_DepthDuration_HTML.html#42,42,1364,625,1364,768,8-29-2022,12-22-24,61,depth_duration_stimuli/002725_2014-06-22_11-47-51_094959634447_rgbf000070-resize_1/002725_2014-06-22_11-47-51_094959634447_rgbf000070-resize_1-target.png,125,2.195,20,3731,113,feet,jsons/VE125_randls_2_rotated.json,1003267,1167715,27,Woman
61,789736,DepthScenes,duration_manipulation_targetAtFixation,jsons/VE125_randls_2_rotated.json,http://54.235.29.9/FacialAge/BNav_EC2/DepthDuration/v2_depth_duration_MTurk/v2_DepthDuration_HTML.html#42,42,1364,625,1364,768,8-29-2022,12-22-24,62,depth_duration_stimuli/000635_2014-06-08_16-38-42_260595134347_rgbf000106-resize_1/000635_2014-06-08_16-38-42_260595134347_rgbf000106-resize_1-target.png,125,2.074,21,4083,118,feet,jsons/VE125_randls_2_rotated.json,1003267,1167715,27,Woman
62,789736,DepthScenes,duration_manipulation_targetAtFixation,jsons/VE125_randls_2_rotated.json,http://54.235.29.9/FacialAge/BNav_EC2/DepthDuration/v2_depth_duration_MTurk/v2_DepthDuration_HTML.html#42,42,1364,625,1364,768,8-29-2022,12-22-24,63,depth_duration_stimuli/002279_2014-06-28_18-55-32_260595134347_rgbf000040-resize_5/002279_2014-06-28_18-55-32_260595134347_rgbf000040-resize_5-target.png,125,1.5043333333333,2,3452,123,feet,jsons/VE125_randls_2_rotated.json,1003267,1167715,27,Woman
63,789736,DepthScenes,duration_manipulation_targetAtFixation,jsons/VE125_randls_2_rotated.json,http://54.235.29.9/FacialAge/BNav_EC2/DepthDuration/v2_depth_duration_MTurk/v2_DepthDuration_HTML.html#42,42,1364,625,1364,768,8-29-2022,12-22-24,64,depth_duration_stimuli/001828_2014-06-26_21-40-03_260595134347_rgbf000024-resize_0/001828_2014-06-26_21-40-03_260595134347_rgbf000024-resize_0-target.png,125,4.8260000000000005,15,4301,106,feet,jsons/VE125_randls_2_rotated.json,1003267,1167715,27,Woman
64,789736,DepthScenes,duration_manipulation_targetAtFixation,jsons/VE125_randls_2_rotated.json,http://54.235.29.9/FacialAge/BNav_EC2/DepthDuration/v2_depth_duration_MTurk/v2_DepthDuration_HTML.html#42,42,1364,625,1364,768,8-29-2022,12-22-24,65,depth_duration_stimuli/000009_2014-05-26_14-32-05_260595134347_rgbf000034-resize_3/000009_2014-05-26_14-32-05_260595134347_rgbf000034-resize_3-target.png,125,3.8715,25,3826,124,feet,jsons/VE125_randls_2_rotated.json,1003267,1167715,27,Woman
65,789736,DepthScenes,duration_manipulation_targetAtFixation,jsons/VE125_randls_2_rotated.json,http://54.235.29.9/FacialAge/BNav_EC2/DepthDuration/v2_depth_duration_MTurk/v2_DepthDuration_HTML.html#42,42,1364,625,1364,768,8-29-2022,12-22-24,66,depth_duration_stimuli/001540_2014-06-20_17-01-05_260595134347_rgbf000086-resize_2/001540_2014-06-20_17-01-05_260595134347_rgbf000086-resize-original.jpg,125,1.459,15,4572,124,feet,jsons/VE125_randls_2_rotated.json,1003267,1167715,27,Woman
66,789736,DepthScenes,duration_manipulation_targetAtFixation,jsons/VE125_randls_2_rotated.json,http://54.235.29.9/FacialAge/BNav_EC2/DepthDuration/v2_depth_duration_MTurk/v2_DepthDuration_HTML.html#42,42,1364,625,1364,768,8-29-2022,12-22-24,67,depth_duration_stimuli/003228_2014-05-14_13-42-35_094959634447_rgbf000101-resize_1/003228_2014-05-14_13-42-35_094959634447_rgbf000101-resize_1-target.png,125,1.9680000000000002,10,3891,125,feet,jsons/VE125_randls_2_rotated.json,1003267,1167715,27,Woman
67,789736,DepthScenes,duration_manipulation_targetAtFixation,jsons/VE125_randls_2_rotated.json,http://54.235.29.9/FacialAge/BNav_EC2/DepthDuration/v2_depth_duration_MTurk/v2_DepthDuration_HTML.html#42,42,1364,625,1364,768,8-29-2022,12-22-24,68,depth_duration_stimuli/002600_2014-06-24_14-27-04_094959634447_rgbf000074-resize_2/002600_2014-06-24_14-27-04_094959634447_rgbf000074-resize_2-target.png,125,2.7575,14,3223,131,feet,jsons/VE125_randls_2_rotated.json,1003267,1167715,27,Woman
68,789736,DepthScenes,duration_manipulation_targetAtFixation,jsons/VE125_randls_2_rotated.json,http://54.235.29.9/FacialAge/BNav_EC2/DepthDuration/v2_depth_duration_MTurk/v2_DepthDuration_HTML.html#42,42,1364,625,1364,768,8-29-2022,12-22-24,69,depth_duration_stimuli/003490_2014-05-21_15-50-11_094959634447_rgbf000101-resize_3/003490_2014-05-21_15-50-11_094959634447_rgbf000101-resize_3-target.png,125,3.6445,15,3570,126,feet,jsons/VE125_randls_2_rotated.json,1003267,1167715,27,Woman
69,789736,DepthScenes,duration_manipulation_targetAtFixation,jsons/VE125_randls_2_rotated.json,http://54.235.29.9/FacialAge/BNav_EC2/DepthDuration/v2_depth_duration_MTurk/v2_DepthDuration_HTML.html#42,42,1364,625,1364,768,8-29-2022,12-22-24,70,depth_duration_stimuli/001175_2014-06-17_15-45-55_260595134347_rgbf000129-resize_4/001175_2014-06-17_15-45-55_260595134347_rgbf000129-resize_4-target.png,125,4.255,20,3326,122,feet,jsons/VE125_randls_2_rotated.json,1003267,1167715,27,Woman
70,789736,DepthScenes,duration_manipulation_targetAtFixation,jsons/VE125_randls_2_rotated.json,http://54.235.29.9/FacialAge/BNav_EC2/DepthDuration/v2_depth_duration_MTurk/v2_DepthDuration_HTML.html#42,42,1364,625,1364,768,8-29-2022,12-22-24,71,depth_duration_stimuli/000749_2014-06-08_21-55-06_260595134347_rgbf000070-resize_2/000749_2014-06-08_21-55-06_260595134347_rgbf000070-resize_2-target.png,125,2.331,20,3520,126,feet,jsons/VE125_randls_2_rotated.json,1003267,1167715,27,Woman
71,789736,DepthScenes,duration_manipulation_targetAtFixation,jsons/VE125_randls_2_rotated.json,http://54.235.29.9/FacialAge/BNav_EC2/DepthDuration/v2_depth_duration_MTurk/v2_DepthDuration_HTML.html#42,42,1364,625,1364,768,8-29-2022,12-22-24,72,depth_duration_stimuli/002788_2014-06-22_19-36-03_094959634447_rgbf000088-resize_2/002788_2014-06-22_19-36-03_094959634447_rgbf000088-resize_2-target.png,125,1.6465,14,3316,124,feet,jsons/VE125_randls_2_rotated.json,1003267,1167715,27,Woman
72,789736,DepthScenes,duration_manipulation_targetAtFixation,jsons/VE125_randls_2_rotated.json,http://54.235.29.9/FacialAge/BNav_EC2/DepthDuration/v2_depth_duration_MTurk/v2_DepthDuration_HTML.html#42,42,1364,625,1364,768,8-29-2022,12-22-24,73,depth_duration_stimuli/002199_2014-06-28_18-33-56_260595134347_rgbf000074-resize_0/002199_2014-06-28_18-33-56_260595134347_rgbf000074-resize_0-target.png,125,1.996,10,3134,124,feet,jsons/VE125_randls_2_rotated.json,1003267,1167715,27,Woman
73,789736,DepthScenes,duration_manipulation_targetAtFixation,jsons/VE125_randls_2_rotated.json,http://54.235.29.9/FacialAge/BNav_EC2/DepthDuration/v2_depth_duration_MTurk/v2_DepthDuration_HTML.html#42,42,1364,625,1364,768,8-29-2022,12-22-24,74,depth_duration_stimuli/001056_2014-06-08_18-46-44_260595134347_rgbf000068-resize_0/001056_2014-06-08_18-46-44_260595134347_rgbf000068-resize_0-target.png,125,2.6625,10,2785,125,feet,jsons/VE125_randls_2_rotated.json,1003267,1167715,27,Woman
74,789736,DepthScenes,duration_manipulation_targetAtFixation,jsons/VE125_randls_2_rotated.json,http://54.235.29.9/FacialAge/BNav_EC2/DepthDuration/v2_depth_duration_MTurk/v2_DepthDuration_HTML.html#42,42,1364,625,1364,768,8-29-2022,12-22-24,75,depth_duration_stimuli/001571_2014-06-20_17-21-32_260595134347_rgbf000089-resize_1/001571_2014-06-20_17-21-32_260595134347_rgbf000089-resize_1-target.png,125,1.86,2,2937,127,feet,jsons/VE125_randls_2_rotated.json,1003267,1167715,27,Woman
75,789736,DepthScenes,duration_manipulation_targetAtFixation,jsons/VE125_randls_2_rotated.json,http://54.235.29.9/FacialAge/BNav_EC2/DepthDuration/v2_depth_duration_MTurk/v2_DepthDuration_HTML.html#42,42,1364,625,1364,768,8-29-2022,12-22-24,76,depth_duration_stimuli/002272_2014-06-28_18-53-56_260595134347_rgbf000067-resize_2/002272_2014-06-28_18-53-56_260595134347_rgbf000067-resize_2-target.png,125,1.138,4,2325,124,feet,jsons/VE125_randls_2_rotated.json,1003267,1167715,27,Woman
76,789736,DepthScenes,duration_manipulation_targetAtFixation,jsons/VE125_randls_2_rotated.json,http://54.235.29.9/FacialAge/BNav_EC2/DepthDuration/v2_depth_duration_MTurk/v2_DepthDuration_HTML.html#42,42,1364,625,1364,768,8-29-2022,12-22-24,77,depth_duration_stimuli/003587_2014-05-23_16-48-02_094959634447_rgbf002384-resize_2/003587_2014-05-23_16-48-02_094959634447_rgbf002384-resize_2-target.png,125,1.357,3,2156,126,feet,jsons/VE125_randls_2_rotated.json,1003267,1167715,27,Woman
77,789736,DepthScenes,duration_manipulation_targetAtFixation,jsons/VE125_randls_2_rotated.json,http://54.235.29.9/FacialAge/BNav_EC2/DepthDuration/v2_depth_duration_MTurk/v2_DepthDuration_HTML.html#42,42,1364,625,1364,768,8-29-2022,12-22-24,78,depth_duration_stimuli/001167_2014-06-17_15-38-07_260595134347_rgbf000108-resize_0/001167_2014-06-17_15-38-07_260595134347_rgbf000108-resize_0-target.png,125,1.8505,1,2873,127,feet,jsons/VE125_randls_2_rotated.json,1003267,1167715,27,Woman
78,789736,DepthScenes,duration_manipulation_targetAtFixation,jsons/VE125_randls_2_rotated.json,http://54.235.29.9/FacialAge/BNav_EC2/DepthDuration/v2_depth_duration_MTurk/v2_DepthDuration_HTML.html#42,42,1364,625,1364,768,8-29-2022,12-22-24,79,depth_duration_stimuli/001650_2014-06-20_12-09-00_260595134347_rgbf000087-resize_3/001650_2014-06-20_12-09-00_260595134347_rgbf000087-resize_3-target.png,125,1.9505,2,3251,124,feet,jsons/VE125_randls_2_rotated.json,1003267,1167715,27,Woman
79,789736,DepthScenes,duration_manipulation_targetAtFixation,jsons/VE125_randls_2_rotated.json,http://54.235.29.9/FacialAge/BNav_EC2/DepthDuration/v2_depth_duration_MTurk/v2_DepthDuration_HTML.html#42,42,1364,625,1364,768,8-29-2022,12-22-24,80,depth_duration_stimuli/000682_2014-06-08_23-14-58_260595134347_rgbf000041-resize_5/000682_2014-06-08_23-14-58_260595134347_rgbf000041-resize_5-target.png,125,2.7239999999999998,4,13949,125,feet,jsons/VE125_randls_2_rotated.json,1003267,1167715,27,Woman
80,789736,DepthScenes,duration_manipulation_targetAtFixation,jsons/VE125_randls_2_rotated.json,http://54.235.29.9/FacialAge/BNav_EC2/DepthDuration/v2_depth_duration_MTurk/v2_DepthDuration_HTML.html#42,42,1364,625,1364,768,8-29-2022,12-22-24,81,depth_duration_stimuli/002323_2014-06-28_20-01-54_260595134347_rgbf000051-resize_4/002323_2014-06-28_20-01-54_260595134347_rgbf000051-resize_4-target.png,125,3.7310000000000003,20,7107,126,feet,jsons/VE125_randls_2_rotated.json,1003267,1167715,27,Woman
81,789736,DepthScenes,duration_manipulation_targetAtFixation,jsons/VE125_randls_2_rotated.json,http://54.235.29.9/FacialAge/BNav_EC2/DepthDuration/v2_depth_duration_MTurk/v2_DepthDuration_HTML.html#42,42,1364,625,1364,768,8-29-2022,12-22-24,82,depth_duration_stimuli/000917_2014-06-09_22-45-29_260595134347_rgbf000149-resize_3/000917_2014-06-09_22-45-29_260595134347_rgbf000149-resize_3-target.png,125,4.1865,20,3629,125,feet,jsons/VE125_randls_2_rotated.json,1003267,1167715,27,Woman
82,789736,DepthScenes,duration_manipulation_targetAtFixation,jsons/VE125_randls_2_rotated.json,http://54.235.29.9/FacialAge/BNav_EC2/DepthDuration/v2_depth_duration_MTurk/v2_DepthDuration_HTML.html#42,42,1364,625,1364,768,8-29-2022,12-22-24,83,depth_duration_stimuli/001447_2014-06-19_17-00-32_260595134347_rgbf000082-resize_5/001447_2014-06-19_17-00-32_260595134347_rgbf000082-resize_5-target.png,125,4.13775,14,3860,125,feet,jsons/VE125_randls_2_rotated.json,1003267,1167715,27,Woman
83,789736,DepthScenes,duration_manipulation_targetAtFixation,jsons/VE125_randls_2_rotated.json,http://54.235.29.9/FacialAge/BNav_EC2/DepthDuration/v2_depth_duration_MTurk/v2_DepthDuration_HTML.html#42,42,1364,625,1364,768,8-29-2022,12-22-24,84,depth_duration_stimuli/000447_2014-06-08_16-15-46_260595134347_rgbf000130-resize_1/000447_2014-06-08_16-15-46_260595134347_rgbf000130-resize_1-target.png,125,4.479,0,2675,125,feet,jsons/VE125_randls_2_rotated.json,1003267,1167715,27,Woman
84,789736,DepthScenes,duration_manipulation_targetAtFixation,jsons/VE125_randls_2_rotated.json,http://54.235.29.9/FacialAge/BNav_EC2/DepthDuration/v2_depth_duration_MTurk/v2_DepthDuration_HTML.html#42,42,1364,625,1364,768,8-29-2022,12-22-24,85,depth_duration_stimuli/002425_2014-06-28_20-27-29_260595134347_rgbf000031-resize_8/002425_2014-06-28_20-27-29_260595134347_rgbf000031-resize_8-target.png,125,3.8960000000000004,5,3745,132,feet,jsons/VE125_randls_2_rotated.json,1003267,1167715,27,Woman
85,789736,DepthScenes,duration_manipulation_targetAtFixation,jsons/VE125_randls_2_rotated.json,http://54.235.29.9/FacialAge/BNav_EC2/DepthDuration/v2_depth_duration_MTurk/v2_DepthDuration_HTML.html#42,42,1364,625,1364,768,8-29-2022,12-22-24,86,depth_duration_stimuli/000642_2014-06-08_16-59-25_260595134347_rgbf000098-resize_2/000642_2014-06-08_16-59-25_260595134347_rgbf000098-resize_2-target.png,125,2.8815,20,3916,123,feet,jsons/VE125_randls_2_rotated.json,1003267,1167715,27,Woman
86,789736,DepthScenes,duration_manipulation_targetAtFixation,jsons/VE125_randls_2_rotated.json,http://54.235.29.9/FacialAge/BNav_EC2/DepthDuration/v2_depth_duration_MTurk/v2_DepthDuration_HTML.html#42,42,1364,625,1364,768,8-29-2022,12-22-24,87,depth_duration_stimuli/000103_2014-05-14_22-01-17_260595134347_rgbf000152-resize_5/000103_2014-05-14_22-01-17_260595134347_rgbf000152-resize_5-target.png,125,1.993,2,5500,117,feet,jsons/VE125_randls_2_rotated.json,1003267,1167715,27,Woman
87,789736,DepthScenes,duration_manipulation_targetAtFixation,jsons/VE125_randls_2_rotated.json,http://54.235.29.9/FacialAge/BNav_EC2/DepthDuration/v2_depth_duration_MTurk/v2_DepthDuration_HTML.html#42,42,1364,625,1364,768,8-29-2022,12-22-24,88,depth_duration_stimuli/001555_2014-06-20_17-12-10_260595134347_rgbf000065-resize_4/001555_2014-06-20_17-12-10_260595134347_rgbf000065-resize_4-target.png,125,1.633,10,4098,124,feet,jsons/VE125_randls_2_rotated.json,1003267,1167715,27,Woman
88,789736,DepthScenes,duration_manipulation_targetAtFixation,jsons/VE125_randls_2_rotated.json,http://54.235.29.9/FacialAge/BNav_EC2/DepthDuration/v2_depth_duration_MTurk/v2_DepthDuration_HTML.html#42,42,1364,625,1364,768,8-29-2022,12-22-24,89,depth_duration_stimuli/003048_2014-06-15_13-49-43_094959634447_rgbf000150-resize_1/003048_2014-06-15_13-49-43_094959634447_rgbf000150-resize_1-target.png,125,4.0035,15,4477,126,feet,jsons/VE125_randls_2_rotated.json,1003267,1167715,27,Woman
89,789736,DepthScenes,duration_manipulation_targetAtFixation,jsons/VE125_randls_2_rotated.json,http://54.235.29.9/FacialAge/BNav_EC2/DepthDuration/v2_depth_duration_MTurk/v2_DepthDuration_HTML.html#42,42,1364,625,1364,768,8-29-2022,12-22-24,90,depth_duration_stimuli/002043_2014-06-24_20-29-38_260595134347_rgbf000039-resize_4/002043_2014-06-24_20-29-38_260595134347_rgbf000039-resize_4-target.png,125,2.8435,20,4097,132,feet,jsons/VE125_randls_2_rotated.json,1003267,1167715,27,Woman
90,789736,DepthScenes,duration_manipulation_targetAtFixation,jsons/VE125_randls_2_rotated.json,http://54.235.29.9/FacialAge/BNav_EC2/DepthDuration/v2_depth_duration_MTurk/v2_DepthDuration_HTML.html#42,42,1364,625,1364,768,8-29-2022,12-22-24,91,depth_duration_stimuli/002758_2014-06-22_19-11-20_094959634447_rgbf000128-resize_1/002758_2014-06-22_19-11-20_094959634447_rgbf000128-resize_1-target.png,125,2.555,20,5673,130,feet,jsons/VE125_randls_2_rotated.json,1003267,1167715,27,Woman
91,789736,DepthScenes,duration_manipulation_targetAtFixation,jsons/VE125_randls_2_rotated.json,http://54.235.29.9/FacialAge/BNav_EC2/DepthDuration/v2_depth_duration_MTurk/v2_DepthDuration_HTML.html#42,42,1364,625,1364,768,8-29-2022,12-22-24,92,depth_duration_stimuli/002630_2014-06-24_14-47-50_094959634447_rgbf000055-resize_1/002630_2014-06-24_14-47-50_094959634447_rgbf000055-resize_1-target.png,125,3.0095,0,3348,131,feet,jsons/VE125_randls_2_rotated.json,1003267,1167715,27,Woman
92,789736,DepthScenes,duration_manipulation_targetAtFixation,jsons/VE125_randls_2_rotated.json,http://54.235.29.9/FacialAge/BNav_EC2/DepthDuration/v2_depth_duration_MTurk/v2_DepthDuration_HTML.html#42,42,1364,625,1364,768,8-29-2022,12-22-24,93,depth_duration_stimuli/003495_2014-05-21_16-01-51_094959634447_rgbf000100-resize_3/003495_2014-05-21_16-01-51_094959634447_rgbf000100-resize_3-target.png,125,1.6255,12,5136,133,feet,jsons/VE125_randls_2_rotated.json,1003267,1167715,27,Woman
93,789736,DepthScenes,duration_manipulation_targetAtFixation,jsons/VE125_randls_2_rotated.json,http://54.235.29.9/FacialAge/BNav_EC2/DepthDuration/v2_depth_duration_MTurk/v2_DepthDuration_HTML.html#42,42,1364,625,1364,768,8-29-2022,12-22-24,94,depth_duration_stimuli/001244_2014-06-17_16-47-45_260595134347_rgbf000030-resize_4/001244_2014-06-17_16-47-45_260595134347_rgbf000030-resize_4-target.png,125,2.0425,20,4253,123,feet,jsons/VE125_randls_2_rotated.json,1003267,1167715,27,Woman
94,789736,DepthScenes,duration_manipulation_targetAtFixation,jsons/VE125_randls_2_rotated.json,http://54.235.29.9/FacialAge/BNav_EC2/DepthDuration/v2_depth_duration_MTurk/v2_DepthDuration_HTML.html#42,42,1364,625,1364,768,8-29-2022,12-22-24,95,depth_duration_stimuli/002639_2014-06-24_14-51-37_094959634447_rgbf000074-resize_4/002639_2014-06-24_14-51-37_094959634447_rgbf000074-resize_4-target.png,125,4.0375,20,4782,126,feet,jsons/VE125_randls_2_rotated.json,1003267,1167715,27,Woman
95,789736,DepthScenes,duration_manipulation_targetAtFixation,jsons/VE125_randls_2_rotated.json,http://54.235.29.9/FacialAge/BNav_EC2/DepthDuration/v2_depth_duration_MTurk/v2_DepthDuration_HTML.html#42,42,1364,625,1364,768,8-29-2022,12-22-24,96,depth_duration_stimuli/003292_2014-05-14_21-53-49_094959634447_rgbf000100-resize_2/003292_2014-05-14_21-53-49_094959634447_rgbf000100-resize_2-target.png,125,3.4815,20,4519,124,feet,jsons/VE125_randls_2_rotated.json,1003267,1167715,27,Woman
96,789736,DepthScenes,duration_manipulation_targetAtFixation,jsons/VE125_randls_2_rotated.json,http://54.235.29.9/FacialAge/BNav_EC2/DepthDuration/v2_depth_duration_MTurk/v2_DepthDuration_HTML.html#42,42,1364,625,1364,768,8-29-2022,12-22-24,97,depth_duration_stimuli/000457_2014-06-08_16-52-43_260595134347_rgbf000199-resize_1/000457_2014-06-08_16-52-43_260595134347_rgbf000199-resize_1-target.png,125,3.6489999999999996,12,4971,107,feet,jsons/VE125_randls_2_rotated.json,1003267,1167715,27,Woman
97,789736,DepthScenes,duration_manipulation_targetAtFixation,jsons/VE125_randls_2_rotated.json,http://54.235.29.9/FacialAge/BNav_EC2/DepthDuration/v2_depth_duration_MTurk/v2_DepthDuration_HTML.html#42,42,1364,625,1364,768,8-29-2022,12-22-24,98,depth_duration_stimuli/000929_2014-06-09_16-33-19_260595134347_rgbf000139-resize_0/000929_2014-06-09_16-33-19_260595134347_rgbf000139-resize_0-target.png,125,2.8680000000000003,12,3368,130,feet,jsons/VE125_randls_2_rotated.json,1003267,1167715,27,Woman
98,789736,DepthScenes,duration_manipulation_targetAtFixation,jsons/VE125_randls_2_rotated.json,http://54.235.29.9/FacialAge/BNav_EC2/DepthDuration/v2_depth_duration_MTurk/v2_DepthDuration_HTML.html#42,42,1364,625,1364,768,8-29-2022,12-22-24,99,depth_duration_stimuli/001222_2014-06-17_16-24-06_260595134347_rgbf000073-resize_0/001222_2014-06-17_16-24-06_260595134347_rgbf000073-resize-original.jpg,125,1.4385,5,4872,124,feet,jsons/VE125_randls_2_rotated.json,1003267,1167715,27,Woman
99,789736,DepthScenes,duration_manipulation_targetAtFixation,jsons/VE125_randls_2_rotated.json,http://54.235.29.9/FacialAge/BNav_EC2/DepthDuration/v2_depth_duration_MTurk/v2_DepthDuration_HTML.html#42,42,1364,625,1364,768,8-29-2022,12-22-24,100,depth_duration_stimuli/003338_2014-05-20_11-01-23_094959634447_rgbf000051-resize_6/003338_2014-05-20_11-01-23_094959634447_rgbf000051-resize_6-target.png,125,1.693,3,5055,125,feet,jsons/VE125_randls_2_rotated.json,1003267,1167715,27,Woman
100,789736,DepthScenes,duration_manipulation_targetAtFixation,jsons/VE125_randls_2_rotated.json,http://54.235.29.9/FacialAge/BNav_EC2/DepthDuration/v2_depth_duration_MTurk/v2_DepthDuration_HTML.html#42,42,1364,625,1364,768,8-29-2022,12-22-24,101,depth_duration_stimuli/002509_2014-06-24_13-19-22_094959634447_rgbf000077-resize_0/002509_2014-06-24_13-19-22_094959634447_rgbf000077-resize_0-target.png,125,1.3065,2,3678,127,feet,jsons/VE125_randls_2_rotated.json,1003267,1167715,27,Woman
101,789736,DepthScenes,duration_manipulation_targetAtFixation,jsons/VE125_randls_2_rotated.json,http://54.235.29.9/FacialAge/BNav_EC2/DepthDuration/v2_depth_duration_MTurk/v2_DepthDuration_HTML.html#42,42,1364,625,1364,768,8-29-2022,12-22-24,102,depth_duration_stimuli/002750_2014-06-22_19-08-03_094959634447_rgbf000094-resize_4/002750_2014-06-22_19-08-03_094959634447_rgbf000094-resize_4-target.png,125,2.354,5,4288,124,feet,jsons/VE125_randls_2_rotated.json,1003267,1167715,27,Woman
102,789736,DepthScenes,duration_manipulation_targetAtFixation,jsons/VE125_randls_2_rotated.json,http://54.235.29.9/FacialAge/BNav_EC2/DepthDuration/v2_depth_duration_MTurk/v2_DepthDuration_HTML.html#42,42,1364,625,1364,768,8-29-2022,12-22-24,103,depth_duration_stimuli/002549_2014-06-24_13-41-39_094959634447_rgbf000022-resize_3/002549_2014-06-24_13-41-39_094959634447_rgbf000022-resize_3-target.png,125,1.476,20,2954,125,feet,jsons/VE125_randls_2_rotated.json,1003267,1167715,27,Woman
103,789736,DepthScenes,duration_manipulation_targetAtFixation,jsons/VE125_randls_2_rotated.json,http://54.235.29.9/FacialAge/BNav_EC2/DepthDuration/v2_depth_duration_MTurk/v2_DepthDuration_HTML.html#42,42,1364,625,1364,768,8-29-2022,12-22-24,104,depth_duration_stimuli/000483_2014-06-09_20-41-45_260595134347_rgbf000116-resize_4/000483_2014-06-09_20-41-45_260595134347_rgbf000116-resize_4-target.png,125,1.337,8,4029,125,feet,jsons/VE125_randls_2_rotated.json,1003267,1167715,27,Woman
104,789736,DepthScenes,duration_manipulation_targetAtFixation,jsons/VE125_randls_2_rotated.json,http://54.235.29.9/FacialAge/BNav_EC2/DepthDuration/v2_depth_duration_MTurk/v2_DepthDuration_HTML.html#42,42,1364,625,1364,768,8-29-2022,12-22-24,105,depth_duration_stimuli/000469_2014-06-09_19-42-10_260595134347_rgbf000081-resize_1/000469_2014-06-09_19-42-10_260595134347_rgbf000081-resize_1-target.png,125,1.652,18,4709,125,feet,jsons/VE125_randls_2_rotated.json,1003267,1167715,27,Woman
105,789736,DepthScenes,duration_manipulation_targetAtFixation,jsons/VE125_randls_2_rotated.json,http://54.235.29.9/FacialAge/BNav_EC2/DepthDuration/v2_depth_duration_MTurk/v2_DepthDuration_HTML.html#42,42,1364,625,1364,768,8-29-2022,12-22-24,106,depth_duration_stimuli/002949_2014-06-26_15-57-42_094959634447_rgbf000079-resize_1/002949_2014-06-26_15-57-42_094959634447_rgbf000079-resize_1-target.png,125,1.8915,10,4666,125,feet,jsons/VE125_randls_2_rotated.json,1003267,1167715,27,Woman
106,789736,DepthScenes,duration_manipulation_targetAtFixation,jsons/VE125_randls_2_rotated.json,http://54.235.29.9/FacialAge/BNav_EC2/DepthDuration/v2_depth_duration_MTurk/v2_DepthDuration_HTML.html#42,42,1364,625,1364,768,8-29-2022,12-22-24,107,depth_duration_stimuli/000522_2014-06-08_13-35-06_260595134347_rgbf000244-resize_1/000522_2014-06-08_13-35-06_260595134347_rgbf000244-resize_1-target.png,125,2.3715,15,3649,125,feet,jsons/VE125_randls_2_rotated.json,1003267,1167715,27,Woman
107,789736,DepthScenes,duration_manipulation_targetAtFixation,jsons/VE125_randls_2_rotated.json,http://54.235.29.9/FacialAge/BNav_EC2/DepthDuration/v2_depth_duration_MTurk/v2_DepthDuration_HTML.html#42,42,1364,625,1364,768,8-29-2022,12-22-24,108,depth_duration_stimuli/003081_2014-06-15_15-19-16_094959634447_rgbf000150-resize_1/003081_2014-06-15_15-19-16_094959634447_rgbf000150-resize_1-target.png,125,3.9125,30,5320,124,feet,jsons/VE125_randls_2_rotated.json,1003267,1167715,27,Woman
108,789736,DepthScenes,duration_manipulation_targetAtFixation,jsons/VE125_randls_2_rotated.json,http://54.235.29.9/FacialAge/BNav_EC2/DepthDuration/v2_depth_duration_MTurk/v2_DepthDuration_HTML.html#42,42,1364,625,1364,768,8-29-2022,12-22-24,109,depth_duration_stimuli/001417_2014-06-19_16-25-36_260595134347_rgbf000115-resize_5/001417_2014-06-19_16-25-36_260595134347_rgbf000115-resize_5-target.png,125,4.6255,0,3384,130,feet,jsons/VE125_randls_2_rotated.json,1003267,1167715,27,Woman
109,789736,DepthScenes,duration_manipulation_targetAtFixation,jsons/VE125_randls_2_rotated.json,http://54.235.29.9/FacialAge/BNav_EC2/DepthDuration/v2_depth_duration_MTurk/v2_DepthDuration_HTML.html#42,42,1364,625,1364,768,8-29-2022,12-22-24,110,depth_duration_stimuli/001132_2014-06-17_14-48-54_260595134347_rgbf000100-resize_2/001132_2014-06-17_14-48-54_260595134347_rgbf000100-resize_2-target.png,125,3.753,12,3783,124,feet,jsons/VE125_randls_2_rotated.json,1003267,1167715,27,Woman
110,789736,DepthScenes,duration_manipulation_targetAtFixation,jsons/VE125_randls_2_rotated.json,http://54.235.29.9/FacialAge/BNav_EC2/DepthDuration/v2_depth_duration_MTurk/v2_DepthDuration_HTML.html#42,42,1364,625,1364,768,8-29-2022,12-22-24,111,depth_duration_stimuli/001133_2014-06-17_14-49-16_260595134347_rgbf000100-resize_0/001133_2014-06-17_14-49-16_260595134347_rgbf000100-resize_0-target.png,125,4.2115,22,2227,125,feet,jsons/VE125_randls_2_rotated.json,1003267,1167715,27,Woman
111,789736,DepthScenes,duration_manipulation_targetAtFixation,jsons/VE125_randls_2_rotated.json,http://54.235.29.9/FacialAge/BNav_EC2/DepthDuration/v2_depth_duration_MTurk/v2_DepthDuration_HTML.html#42,42,1364,625,1364,768,8-29-2022,12-22-24,112,depth_duration_stimuli/000742_2014-06-08_18-48-09_260595134347_rgbf000164-resize_4/000742_2014-06-08_18-48-09_260595134347_rgbf000164-resize_4-target.png,125,4.632,25,3420,124,feet,jsons/VE125_randls_2_rotated.json,1003267,1167715,27,Woman
112,789736,DepthScenes,duration_manipulation_targetAtFixation,jsons/VE125_randls_2_rotated.json,http://54.235.29.9/FacialAge/BNav_EC2/DepthDuration/v2_depth_duration_MTurk/v2_DepthDuration_HTML.html#42,42,1364,625,1364,768,8-29-2022,12-22-24,113,depth_duration_stimuli/001066_2014-06-08_22-03-20_260595134347_rgbf000066-resize_4/001066_2014-06-08_22-03-20_260595134347_rgbf000066-resize_4-target.png,125,4.2330000000000005,24,3387,126,feet,jsons/VE125_randls_2_rotated.json,1003267,1167715,27,Woman
113,789736,DepthScenes,duration_manipulation_targetAtFixation,jsons/VE125_randls_2_rotated.json,http://54.235.29.9/FacialAge/BNav_EC2/DepthDuration/v2_depth_duration_MTurk/v2_DepthDuration_HTML.html#42,42,1364,625,1364,768,8-29-2022,12-22-24,114,depth_duration_stimuli/002136_2014-06-25_21-18-03_260595134347_rgbf000109-resize_3/002136_2014-06-25_21-18-03_260595134347_rgbf000109-resize_3-target.png,125,1.9569999999999999,20,4458,124,feet,jsons/VE125_randls_2_rotated.json,1003267,1167715,27,Woman
114,789736,DepthScenes,duration_manipulation_targetAtFixation,jsons/VE125_randls_2_rotated.json,http://54.235.29.9/FacialAge/BNav_EC2/DepthDuration/v2_depth_duration_MTurk/v2_DepthDuration_HTML.html#42,42,1364,625,1364,768,8-29-2022,12-22-24,115,depth_duration_stimuli/002964_2014-06-08_17-46-11_094959634447_rgbf000091-resize_4/002964_2014-06-08_17-46-11_094959634447_rgbf000091-resize_4-target.png,125,1.6909999999999998,14,6015,124,feet,jsons/VE125_randls_2_rotated.json,1003267,1167715,27,Woman
115,789736,DepthScenes,duration_manipulation_targetAtFixation,jsons/VE125_randls_2_rotated.json,http://54.235.29.9/FacialAge/BNav_EC2/DepthDuration/v2_depth_duration_MTurk/v2_DepthDuration_HTML.html#42,42,1364,625,1364,768,8-29-2022,12-22-24,116,depth_duration_stimuli/001136_2014-06-17_15-19-41_260595134347_rgbf000076-resize_3/001136_2014-06-17_15-19-41_260595134347_rgbf000076-resize_3-target.png,125,1.8655,10,15687,121,feet,jsons/VE125_randls_2_rotated.json,1003267,1167715,27,Woman
116,789736,DepthScenes,duration_manipulation_targetAtFixation,jsons/VE125_randls_2_rotated.json,http://54.235.29.9/FacialAge/BNav_EC2/DepthDuration/v2_depth_duration_MTurk/v2_DepthDuration_HTML.html#42,42,1364,625,1364,768,8-29-2022,12-22-24,117,depth_duration_stimuli/001164_2014-06-17_15-35-46_260595134347_rgbf000085-resize_3/001164_2014-06-17_15-35-46_260595134347_rgbf000085-resize_3-target.png,125,2.354,12,3039,124,feet,jsons/VE125_randls_2_rotated.json,1003267,1167715,27,Woman
117,789736,DepthScenes,duration_manipulation_targetAtFixation,jsons/VE125_randls_2_rotated.json,http://54.235.29.9/FacialAge/BNav_EC2/DepthDuration/v2_depth_duration_MTurk/v2_DepthDuration_HTML.html#42,42,1364,625,1364,768,8-29-2022,12-22-24,118,depth_duration_stimuli/002568_2014-06-24_13-59-21_094959634447_rgbf000062-resize_4/002568_2014-06-24_13-59-21_094959634447_rgbf000062-resize_4-target.png,125,3.015,5,3819,124,feet,jsons/VE125_randls_2_rotated.json,1003267,1167715,27,Woman
118,789736,DepthScenes,duration_manipulation_targetAtFixation,jsons/VE125_randls_2_rotated.json,http://54.235.29.9/FacialAge/BNav_EC2/DepthDuration/v2_depth_duration_MTurk/v2_DepthDuration_HTML.html#42,42,1364,625,1364,768,8-29-2022,12-22-24,119,depth_duration_stimuli/003492_2014-05-21_15-50-55_094959634447_rgbf000828-resize_1/003492_2014-05-21_15-50-55_094959634447_rgbf000828-resize_1-target.png,125,4.06875,5,2562,131,feet,jsons/VE125_randls_2_rotated.json,1003267,1167715,27,Woman
119,789736,DepthScenes,duration_manipulation_targetAtFixation,jsons/VE125_randls_2_rotated.json,http://54.235.29.9/FacialAge/BNav_EC2/DepthDuration/v2_depth_duration_MTurk/v2_DepthDuration_HTML.html#42,42,1364,625,1364,768,8-29-2022,12-22-24,120,depth_duration_stimuli/000787_2014-06-08_22-33-53_260595134347_rgbf000175-resize_1/000787_2014-06-08_22-33-53_260595134347_rgbf000175-resize-original.jpg,125,4.784,20,3818,102,feet,jsons/VE125_randls_2_rotated.json,1003267,1167715,27,Woman
120,789736,DepthScenes,duration_manipulation_targetAtFixation,jsons/VE125_randls_2_rotated.json,http://54.235.29.9/FacialAge/BNav_EC2/DepthDuration/v2_depth_duration_MTurk/v2_DepthDuration_HTML.html#42,42,1364,625,1364,768,8-29-2022,12-22-24,121,depth_duration_stimuli/002467_2014-06-28_20-38-07_260595134347_rgbf000026-resize_2/002467_2014-06-28_20-38-07_260595134347_rgbf000026-resize_2-target.png,125,4.742,5,4412,123,feet,jsons/VE125_randls_2_rotated.json,1003267,1167715,27,Woman
121,789736,DepthScenes,duration_manipulation_targetAtFixation,jsons/VE125_randls_2_rotated.json,http://54.235.29.9/FacialAge/BNav_EC2/DepthDuration/v2_depth_duration_MTurk/v2_DepthDuration_HTML.html#42,42,1364,625,1364,768,8-29-2022,12-22-24,122,depth_duration_stimuli/002570_2014-06-24_13-59-54_094959634447_rgbf000059-resize_0/002570_2014-06-24_13-59-54_094959634447_rgbf000059-resize_0-target.png,125,4.037,4,2681,125,feet,jsons/VE125_randls_2_rotated.json,1003267,1167715,27,Woman
122,789736,DepthScenes,duration_manipulation_targetAtFixation,jsons/VE125_randls_2_rotated.json,http://54.235.29.9/FacialAge/BNav_EC2/DepthDuration/v2_depth_duration_MTurk/v2_DepthDuration_HTML.html#42,42,1364,625,1364,768,8-29-2022,12-22-24,123,depth_duration_stimuli/000866_2014-06-09_20-45-42_260595134347_rgbf000139-resize_1/000866_2014-06-09_20-45-42_260595134347_rgbf000139-resize_1-target.png,125,3.2155,6,4038,124,feet,jsons/VE125_randls_2_rotated.json,1003267,1167715,27,Woman
123,789736,DepthScenes,duration_manipulation_targetAtFixation,jsons/VE125_randls_2_rotated.json,http://54.235.29.9/FacialAge/BNav_EC2/DepthDuration/v2_depth_duration_MTurk/v2_DepthDuration_HTML.html#42,42,1364,625,1364,768,8-29-2022,12-22-24,124,depth_duration_stimuli/002989_2014-06-15_12-25-03_094959634447_rgbf000150-resize_3/002989_2014-06-15_12-25-03_094959634447_rgbf000150-resize_3-target.png,125,4.1975,20,5488,127,feet,jsons/VE125_randls_2_rotated.json,1003267,1167715,27,Woman
124,789736,DepthScenes,duration_manipulation_targetAtFixation,jsons/VE125_randls_2_rotated.json,http://54.235.29.9/FacialAge/BNav_EC2/DepthDuration/v2_depth_duration_MTurk/v2_DepthDuration_HTML.html#42,42,1364,625,1364,768,8-29-2022,12-22-24,125,depth_duration_stimuli/002678_2014-06-13_16-15-32_094959634447_rgbf000151-resize_6/002678_2014-06-13_16-15-32_094959634447_rgbf000151-resize_6-target.png,125,2.1830000000000003,23,4027,124,feet,jsons/VE125_randls_2_rotated.json,1003267,1167715,27,Woman
125,789736,DepthScenes,duration_manipulation_targetAtFixation,jsons/VE125_randls_2_rotated.json,http://54.235.29.9/FacialAge/BNav_EC2/DepthDuration/v2_depth_duration_MTurk/v2_DepthDuration_HTML.html#42,42,1364,625,1364,768,8-29-2022,12-22-24,126,depth_duration_stimuli/000368_2014-06-09_15-53-01_260595134347_rgbf000155-resize_2/000368_2014-06-09_15-53-01_260595134347_rgbf000155-resize_2-target.png,125,2.4859999999999998,14,9169,125,feet,jsons/VE125_randls_2_rotated.json,1003267,1167715,27,Woman
126,789736,DepthScenes,duration_manipulation_targetAtFixation,jsons/VE125_randls_2_rotated.json,http://54.235.29.9/FacialAge/BNav_EC2/DepthDuration/v2_depth_duration_MTurk/v2_DepthDuration_HTML.html#42,42,1364,625,1364,768,8-29-2022,12-22-24,127,depth_duration_stimuli/000502_2014-06-08_23-02-32_260595134347_rgbf000063-resize_4/000502_2014-06-08_23-02-32_260595134347_rgbf000063-resize_4-target.png,125,2.431,15,3818,123,feet,jsons/VE125_randls_2_rotated.json,1003267,1167715,27,Woman
127,789736,DepthScenes,duration_manipulation_targetAtFixation,jsons/VE125_randls_2_rotated.json,http://54.235.29.9/FacialAge/BNav_EC2/DepthDuration/v2_depth_duration_MTurk/v2_DepthDuration_HTML.html#42,42,1364,625,1364,768,8-29-2022,12-22-24,128,depth_duration_stimuli/001199_2014-06-17_16-03-48_260595134347_rgbf000077-resize_0/001199_2014-06-17_16-03-48_260595134347_rgbf000077-resize_0-target.png,125,3.4375,10,3210,127,feet,jsons/VE125_randls_2_rotated.json,1003267,1167715,27,Woman
128,789736,DepthScenes,duration_manipulation_targetAtFixation,jsons/VE125_randls_2_rotated.json,http://54.235.29.9/FacialAge/BNav_EC2/DepthDuration/v2_depth_duration_MTurk/v2_DepthDuration_HTML.html#42,42,1364,625,1364,768,8-29-2022,12-22-24,129,depth_duration_stimuli/000943_2014-06-09_19-31-07_260595134347_rgbf000128-resize_1/000943_2014-06-09_19-31-07_260595134347_rgbf000128-resize_1-target.png,125,1.9765,5,3794,126,feet,jsons/VE125_randls_2_rotated.json,1003267,1167715,27,Woman
129,789736,DepthScenes,duration_manipulation_targetAtFixation,jsons/VE125_randls_2_rotated.json,http://54.235.29.9/FacialAge/BNav_EC2/DepthDuration/v2_depth_duration_MTurk/v2_DepthDuration_HTML.html#42,42,1364,625,1364,768,8-29-2022,12-22-24,130,depth_duration_stimuli/003070_2014-06-15_14-58-27_094959634447_rgbf000150-resize_3/003070_2014-06-15_14-58-27_094959634447_rgbf000150-resize_3-target.png,125,2.9415,4,3848,126,feet,jsons/VE125_randls_2_rotated.json,1003267,1167715,27,Woman
130,789736,DepthScenes,duration_manipulation_targetAtFixation,jsons/VE125_randls_2_rotated.json,http://54.235.29.9/FacialAge/BNav_EC2/DepthDuration/v2_depth_duration_MTurk/v2_DepthDuration_HTML.html#42,42,1364,625,1364,768,8-29-2022,12-22-24,131,depth_duration_stimuli/000191_2014-05-12_17-07-38_260595134347_rgbf000199-resize_0/000191_2014-05-12_17-07-38_260595134347_rgbf000199-resize_0-target.png,125,3.7995,20,6072,125,feet,jsons/VE125_randls_2_rotated.json,1003267,1167715,27,Woman
131,789736,DepthScenes,duration_manipulation_targetAtFixation,jsons/VE125_randls_2_rotated.json,http://54.235.29.9/FacialAge/BNav_EC2/DepthDuration/v2_depth_duration_MTurk/v2_DepthDuration_HTML.html#42,42,1364,625,1364,768,8-29-2022,12-22-24,132,depth_duration_stimuli/000493_2014-06-09_21-01-18_260595134347_rgbf000196-resize_3/000493_2014-06-09_21-01-18_260595134347_rgbf000196-resize_3-target.png,125,3.44,4,6485,126,feet,jsons/VE125_randls_2_rotated.json,1003267,1167715,27,Woman
132,789736,DepthScenes,duration_manipulation_targetAtFixation,jsons/VE125_randls_2_rotated.json,http://54.235.29.9/FacialAge/BNav_EC2/DepthDuration/v2_depth_duration_MTurk/v2_DepthDuration_HTML.html#42,42,1364,625,1364,768,8-29-2022,12-22-24,133,depth_duration_stimuli/001214_2014-06-17_16-13-55_260595134347_rgbf000111-resize_0/001214_2014-06-17_16-13-55_260595134347_rgbf000111-resize_0-target.png,125,2.6505,10,4878,125,feet,jsons/VE125_randls_2_rotated.json,1003267,1167715,27,Woman
133,789736,DepthScenes,duration_manipulation_targetAtFixation,jsons/VE125_randls_2_rotated.json,http://54.235.29.9/FacialAge/BNav_EC2/DepthDuration/v2_depth_duration_MTurk/v2_DepthDuration_HTML.html#42,42,1364,625,1364,768,8-29-2022,12-22-24,134,depth_duration_stimuli/000810_2014-06-08_17-20-01_260595134347_rgbf000105-resize_0/000810_2014-06-08_17-20-01_260595134347_rgbf000105-resize_0-target.png,125,1.4865,0,2977,140,feet,jsons/VE125_randls_2_rotated.json,1003267,1167715,27,Woman
134,789736,DepthScenes,duration_manipulation_targetAtFixation,jsons/VE125_randls_2_rotated.json,http://54.235.29.9/FacialAge/BNav_EC2/DepthDuration/v2_depth_duration_MTurk/v2_DepthDuration_HTML.html#42,42,1364,625,1364,768,8-29-2022,12-22-24,135,depth_duration_stimuli/000375_2014-06-08_11-17-29_260595134347_rgbf000133-resize_2/000375_2014-06-08_11-17-29_260595134347_rgbf000133-resize-original.jpg,125,4.718,2,4098,126,feet,jsons/VE125_randls_2_rotated.json,1003267,1167715,27,Woman
135,789736,DepthScenes,duration_manipulation_targetAtFixation,jsons/VE125_randls_2_rotated.json,http://54.235.29.9/FacialAge/BNav_EC2/DepthDuration/v2_depth_duration_MTurk/v2_DepthDuration_HTML.html#42,42,1364,625,1364,768,8-29-2022,12-22-24,136,depth_duration_stimuli/001815_2014-06-26_20-52-55_260595134347_rgbf000020-resize_0/001815_2014-06-26_20-52-55_260595134347_rgbf000020-resize_0-target.png,125,3.3865,4,2955,101,feet,jsons/VE125_randls_2_rotated.json,1003267,1167715,27,Woman
136,789736,DepthScenes,duration_manipulation_targetAtFixation,jsons/VE125_randls_2_rotated.json,http://54.235.29.9/FacialAge/BNav_EC2/DepthDuration/v2_depth_duration_MTurk/v2_DepthDuration_HTML.html#42,42,1364,625,1364,768,8-29-2022,12-22-24,137,depth_duration_stimuli/001808_2014-06-26_20-50-58_260595134347_rgbf000029-resize_1/001808_2014-06-26_20-50-58_260595134347_rgbf000029-resize_1-target.png,125,4.249,5,3859,140,feet,jsons/VE125_randls_2_rotated.json,1003267,1167715,27,Woman
137,789736,DepthScenes,duration_manipulation_targetAtFixation,jsons/VE125_randls_2_rotated.json,http://54.235.29.9/FacialAge/BNav_EC2/DepthDuration/v2_depth_duration_MTurk/v2_DepthDuration_HTML.html#42,42,1364,625,1364,768,8-29-2022,12-22-24,138,depth_duration_stimuli/002545_2014-06-24_13-38-53_094959634447_rgbf000080-resize_4/002545_2014-06-24_13-38-53_094959634447_rgbf000080-resize_4-target.png,125,1.9205,5,3134,125,feet,jsons/VE125_randls_2_rotated.json,1003267,1167715,27,Woman
138,789736,DepthScenes,duration_manipulation_targetAtFixation,jsons/VE125_randls_2_rotated.json,http://54.235.29.9/FacialAge/BNav_EC2/DepthDuration/v2_depth_duration_MTurk/v2_DepthDuration_HTML.html#42,42,1364,625,1364,768,8-29-2022,12-22-24,139,depth_duration_stimuli/001092_2014-06-15_17-34-58_260595134347_rgbf000171-resize_3/001092_2014-06-15_17-34-58_260595134347_rgbf000171-resize_3-target.png,125,2.6935,9,1840,126,feet,jsons/VE125_randls_2_rotated.json,1003267,1167715,27,Woman
139,789736,DepthScenes,duration_manipulation_targetAtFixation,jsons/VE125_randls_2_rotated.json,http://54.235.29.9/FacialAge/BNav_EC2/DepthDuration/v2_depth_duration_MTurk/v2_DepthDuration_HTML.html#42,42,1364,625,1364,768,8-29-2022,12-22-24,140,depth_duration_stimuli/003423_2014-05-21_10-23-26_094959634447_rgbf002665-resize_2/003423_2014-05-21_10-23-26_094959634447_rgbf002665-resize_2-target.png,125,3.2575,14,3339,132,feet,jsons/VE125_randls_2_rotated.json,1003267,1167715,27,Woman
140,789736,DepthScenes,duration_manipulation_targetAtFixation,jsons/VE125_randls_2_rotated.json,http://54.235.29.9/FacialAge/BNav_EC2/DepthDuration/v2_depth_duration_MTurk/v2_DepthDuration_HTML.html#42,42,1364,625,1364,768,8-29-2022,12-22-24,141,depth_duration_stimuli/002905_2014-06-03_18-04-43_094959634447_rgbf000151-resize_2/002905_2014-06-03_18-04-43_094959634447_rgbf000151-resize_2-target.png,125,2.0295,15,3468,125,feet,jsons/VE125_randls_2_rotated.json,1003267,1167715,27,Woman
141,789736,DepthScenes,duration_manipulation_targetAtFixation,jsons/VE125_randls_2_rotated.json,http://54.235.29.9/FacialAge/BNav_EC2/DepthDuration/v2_depth_duration_MTurk/v2_DepthDuration_HTML.html#42,42,1364,625,1364,768,8-29-2022,12-22-24,142,depth_duration_stimuli/000677_2014-06-08_23-10-32_260595134347_rgbf000158-resize_6/000677_2014-06-08_23-10-32_260595134347_rgbf000158-resize_6-target.png,125,3.556,14,3616,126,feet,jsons/VE125_randls_2_rotated.json,1003267,1167715,27,Woman
142,789736,DepthScenes,duration_manipulation_targetAtFixation,jsons/VE125_randls_2_rotated.json,http://54.235.29.9/FacialAge/BNav_EC2/DepthDuration/v2_depth_duration_MTurk/v2_DepthDuration_HTML.html#42,42,1364,625,1364,768,8-29-2022,12-22-24,143,depth_duration_stimuli/001029_2014-06-08_13-17-57_260595134347_rgbf000065-resize_1/001029_2014-06-08_13-17-57_260595134347_rgbf000065-resize_1-target.png,125,3.0835,10,2764,125,feet,jsons/VE125_randls_2_rotated.json,1003267,1167715,27,Woman
143,789736,DepthScenes,duration_manipulation_targetAtFixation,jsons/VE125_randls_2_rotated.json,http://54.235.29.9/FacialAge/BNav_EC2/DepthDuration/v2_depth_duration_MTurk/v2_DepthDuration_HTML.html#42,42,1364,625,1364,768,8-29-2022,12-22-24,144,depth_duration_stimuli/001450_2014-06-19_17-02-03_260595134347_rgbf000203-resize_4/001450_2014-06-19_17-02-03_260595134347_rgbf000203-resize_4-target.png,125,4.0106666666667,5,2631,125,feet,jsons/VE125_randls_2_rotated.json,1003267,1167715,27,Woman
144,789736,DepthScenes,duration_manipulation_targetAtFixation,jsons/VE125_randls_2_rotated.json,http://54.235.29.9/FacialAge/BNav_EC2/DepthDuration/v2_depth_duration_MTurk/v2_DepthDuration_HTML.html#42,42,1364,625,1364,768,8-29-2022,12-22-24,145,depth_duration_stimuli/001449_2014-06-19_17-01-27_260595134347_rgbf000116-resize_2/001449_2014-06-19_17-01-27_260595134347_rgbf000116-resize_2-target.png,125,3.452,14,2304,151,feet,jsons/VE125_randls_2_rotated.json,1003267,1167715,27,Woman
145,789736,DepthScenes,duration_manipulation_targetAtFixation,jsons/VE125_randls_2_rotated.json,http://54.235.29.9/FacialAge/BNav_EC2/DepthDuration/v2_depth_duration_MTurk/v2_DepthDuration_HTML.html#42,42,1364,625,1364,768,8-29-2022,12-22-24,146,depth_duration_stimuli/002875_2014-06-01_15-19-00_094959634447_rgbf000151-resize_1/002875_2014-06-01_15-19-00_094959634447_rgbf000151-resize_1-target.png,125,1.9675,15,2615,124,feet,jsons/VE125_randls_2_rotated.json,1003267,1167715,27,Woman
146,789736,DepthScenes,duration_manipulation_targetAtFixation,jsons/VE125_randls_2_rotated.json,http://54.235.29.9/FacialAge/BNav_EC2/DepthDuration/v2_depth_duration_MTurk/v2_DepthDuration_HTML.html#42,42,1364,625,1364,768,8-29-2022,12-22-24,147,depth_duration_stimuli/001011_2014-06-08_23-18-54_260595134347_rgbf000044-resize_4/001011_2014-06-08_23-18-54_260595134347_rgbf000044-resize_4-target.png,125,2.4730000000000003,17,4530,126,feet,jsons/VE125_randls_2_rotated.json,1003267,1167715,27,Woman
147,789736,DepthScenes,duration_manipulation_targetAtFixation,jsons/VE125_randls_2_rotated.json,http://54.235.29.9/FacialAge/BNav_EC2/DepthDuration/v2_depth_duration_MTurk/v2_DepthDuration_HTML.html#42,42,1364,625,1364,768,8-29-2022,12-22-24,148,depth_duration_stimuli/000927_2014-06-09_16-32-30_260595134347_rgbf000123-resize_3/000927_2014-06-09_16-32-30_260595134347_rgbf000123-resize_3-target.png,125,2.6785,20,3834,124,feet,jsons/VE125_randls_2_rotated.json,1003267,1167715,27,Woman
148,789736,DepthScenes,duration_manipulation_targetAtFixation,jsons/VE125_randls_2_rotated.json,http://54.235.29.9/FacialAge/BNav_EC2/DepthDuration/v2_depth_duration_MTurk/v2_DepthDuration_HTML.html#42,42,1364,625,1364,768,8-29-2022,12-22-24,149,depth_duration_stimuli/001110_2014-06-15_17-25-28_260595134347_rgbf000150-resize_1/001110_2014-06-15_17-25-28_260595134347_rgbf000150-resize_1-target.png,125,1.7115,10,27665,124,feet,jsons/VE125_randls_2_rotated.json,1003267,1167715,27,Woman
149,789736,DepthScenes,duration_manipulation_targetAtFixation,jsons/VE125_randls_2_rotated.json,http://54.235.29.9/FacialAge/BNav_EC2/DepthDuration/v2_depth_duration_MTurk/v2_DepthDuration_HTML.html#42,42,1364,625,1364,768,8-29-2022,12-22-24,150,depth_duration_stimuli/000549_2014-06-08_22-10-24_260595134347_rgbf000247-resize_3/000549_2014-06-08_22-10-24_260595134347_rgbf000247-resize_3-target.png,125,1.841,20,5185,123,feet,jsons/VE125_randls_2_rotated.json,1003267,1167715,27,Woman
150,789736,DepthScenes,duration_manipulation_targetAtFixation,jsons/VE125_randls_2_rotated.json,http://54.235.29.9/FacialAge/BNav_EC2/DepthDuration/v2_depth_duration_MTurk/v2_DepthDuration_HTML.html#42,42,1364,625,1364,768,8-29-2022,12-22-24,151,depth_duration_stimuli/001055_2014-06-08_18-45-35_260595134347_rgbf000111-resize_4/001055_2014-06-08_18-45-35_260595134347_rgbf000111-resize_4-target.png,125,2.4290000000000003,10,90054,127,feet,jsons/VE125_randls_2_rotated.json,1003267,1167715,27,Woman
151,789736,DepthScenes,duration_manipulation_targetAtFixation,jsons/VE125_randls_2_rotated.json,http://54.235.29.9/FacialAge/BNav_EC2/DepthDuration/v2_depth_duration_MTurk/v2_DepthDuration_HTML.html#42,42,1364,625,1364,768,8-29-2022,12-22-24,152,depth_duration_stimuli/000569_2014-06-09_22-51-47_260595134347_rgbf000141-resize_3/000569_2014-06-09_22-51-47_260595134347_rgbf000141-resize-original.jpg,125,4.512,5,3756,126,feet,jsons/VE125_randls_2_rotated.json,1003267,1167715,27,Woman
152,789736,DepthScenes,duration_manipulation_targetAtFixation,jsons/VE125_randls_2_rotated.json,http://54.235.29.9/FacialAge/BNav_EC2/DepthDuration/v2_depth_duration_MTurk/v2_DepthDuration_HTML.html#42,42,1364,625,1364,768,8-29-2022,12-22-24,153,depth_duration_stimuli/000734_2014-06-08_17-39-11_260595134347_rgbf000128-resize_2/000734_2014-06-08_17-39-11_260595134347_rgbf000128-resize_2-target.png,125,4.098,10,3899,126,feet,jsons/VE125_randls_2_rotated.json,1003267,1167715,27,Woman
153,789736,DepthScenes,duration_manipulation_targetAtFixation,jsons/VE125_randls_2_rotated.json,http://54.235.29.9/FacialAge/BNav_EC2/DepthDuration/v2_depth_duration_MTurk/v2_DepthDuration_HTML.html#42,42,1364,625,1364,768,8-29-2022,12-22-24,154,depth_duration_stimuli/000739_2014-06-08_18-45-58_260595134347_rgbf000068-resize_1/000739_2014-06-08_18-45-58_260595134347_rgbf000068-resize_1-target.png,125,3.534,15,4130,125,feet,jsons/VE125_randls_2_rotated.json,1003267,1167715,27,Woman
154,789736,DepthScenes,duration_manipulation_targetAtFixation,jsons/VE125_randls_2_rotated.json,http://54.235.29.9/FacialAge/BNav_EC2/DepthDuration/v2_depth_duration_MTurk/v2_DepthDuration_HTML.html#42,42,1364,625,1364,768,8-29-2022,12-22-24,155,depth_duration_stimuli/002637_2014-06-24_14-51-13_094959634447_rgbf000066-resize_4/002637_2014-06-24_14-51-13_094959634447_rgbf000066-resize_4-target.png,125,1.9955,12,4448,127,feet,jsons/VE125_randls_2_rotated.json,1003267,1167715,27,Woman
155,789736,DepthScenes,duration_manipulation_targetAtFixation,jsons/VE125_randls_2_rotated.json,http://54.235.29.9/FacialAge/BNav_EC2/DepthDuration/v2_depth_duration_MTurk/v2_DepthDuration_HTML.html#42,42,1364,625,1364,768,8-29-2022,12-22-24,156,depth_duration_stimuli/003534_2014-05-22_15-06-10_094959634447_rgbf000102-resize_4/003534_2014-05-22_15-06-10_094959634447_rgbf000102-resize_4-target.png,125,1.426,0,2933,125,feet,jsons/VE125_randls_2_rotated.json,1003267,1167715,27,Woman
156,789736,DepthScenes,duration_manipulation_targetAtFixation,jsons/VE125_randls_2_rotated.json,http://54.235.29.9/FacialAge/BNav_EC2/DepthDuration/v2_depth_duration_MTurk/v2_DepthDuration_HTML.html#42,42,1364,625,1364,768,8-29-2022,12-22-24,157,depth_duration_stimuli/002660_2014-06-13_15-44-18_094959634447_rgbf001878-resize_2/002660_2014-06-13_15-44-18_094959634447_rgbf001878-resize_2-target.png,125,3.576,10,3316,135,feet,jsons/VE125_randls_2_rotated.json,1003267,1167715,27,Woman
157,789736,DepthScenes,duration_manipulation_targetAtFixation,jsons/VE125_randls_2_rotated.json,http://54.235.29.9/FacialAge/BNav_EC2/DepthDuration/v2_depth_duration_MTurk/v2_DepthDuration_HTML.html#42,42,1364,625,1364,768,8-29-2022,12-22-24,158,depth_duration_stimuli/002153_2014-06-25_21-27-18_260595134347_rgbf000038-resize_5/002153_2014-06-25_21-27-18_260595134347_rgbf000038-resize_5-target.png,125,2.505,14,3540,124,feet,jsons/VE125_randls_2_rotated.json,1003267,1167715,27,Woman
158,789736,DepthScenes,duration_manipulation_targetAtFixation,jsons/VE125_randls_2_rotated.json,http://54.235.29.9/FacialAge/BNav_EC2/DepthDuration/v2_depth_duration_MTurk/v2_DepthDuration_HTML.html#42,42,1364,625,1364,768,8-29-2022,12-22-24,159,depth_duration_stimuli/002340_2014-06-28_20-05-46_260595134347_rgbf000113-resize_0/002340_2014-06-28_20-05-46_260595134347_rgbf000113-resize_0-target.png,125,2.4735,10,5264,124,feet,jsons/VE125_randls_2_rotated.json,1003267,1167715,27,Woman
159,789736,DepthScenes,duration_manipulation_targetAtFixation,jsons/VE125_randls_2_rotated.json,http://54.235.29.9/FacialAge/BNav_EC2/DepthDuration/v2_depth_duration_MTurk/v2_DepthDuration_HTML.html#42,42,1364,625,1364,768,8-29-2022,12-22-24,160,depth_duration_stimuli/001016_2014-06-09_16-16-10_260595134347_rgbf000112-resize_5/001016_2014-06-09_16-16-10_260595134347_rgbf000112-resize_5-target.png,125,1.6565,10,38294,163,feet,jsons/VE125_randls_2_rotated.json,1003267,1167715,27,Woman
160,789736,DepthScenes,duration_manipulation_targetAtFixation,jsons/VE125_randls_2_rotated.json,http://54.235.29.9/FacialAge/BNav_EC2/DepthDuration/v2_depth_duration_MTurk/v2_DepthDuration_HTML.html#42,42,1364,625,1364,768,8-29-2022,12-22-24,161,depth_duration_stimuli/000109_2014-05-14_23-41-52_260595134347_rgbf000035-resize_9/000109_2014-05-14_23-41-52_260595134347_rgbf000035-resize_9-target.png,125,1.3545,14,4537,124,feet,jsons/VE125_randls_2_rotated.json,1003267,1167715,27,Woman
161,789736,DepthScenes,duration_manipulation_targetAtFixation,jsons/VE125_randls_2_rotated.json,http://54.235.29.9/FacialAge/BNav_EC2/DepthDuration/v2_depth_duration_MTurk/v2_DepthDuration_HTML.html#42,42,1364,625,1364,768,8-29-2022,12-22-24,162,depth_duration_stimuli/000470_2014-06-09_19-42-40_260595134347_rgbf000094-resize_1/000470_2014-06-09_19-42-40_260595134347_rgbf000094-resize_1-target.png,125,1.831,12,2810,125,feet,jsons/VE125_randls_2_rotated.json,1003267,1167715,27,Woman
162,789736,DepthScenes,duration_manipulation_targetAtFixation,jsons/VE125_randls_2_rotated.json,http://54.235.29.9/FacialAge/BNav_EC2/DepthDuration/v2_depth_duration_MTurk/v2_DepthDuration_HTML.html#42,42,1364,625,1364,768,8-29-2022,12-22-24,163,depth_duration_stimuli/002657_2014-06-13_15-29-54_094959634447_rgbf000150-resize_1/002657_2014-06-13_15-29-54_094959634447_rgbf000150-resize_1-target.png,125,4.919,10,2918,130,feet,jsons/VE125_randls_2_rotated.json,1003267,1167715,27,Woman
163,789736,DepthScenes,duration_manipulation_targetAtFixation,jsons/VE125_randls_2_rotated.json,http://54.235.29.9/FacialAge/BNav_EC2/DepthDuration/v2_depth_duration_MTurk/v2_DepthDuration_HTML.html#42,42,1364,625,1364,768,8-29-2022,12-22-24,164,depth_duration_stimuli/002375_2014-06-28_20-13-44_260595134347_rgbf000032-resize_1/002375_2014-06-28_20-13-44_260595134347_rgbf000032-resize_1-target.png,125,4.0175,14,3391,125,feet,jsons/VE125_randls_2_rotated.json,1003267,1167715,27,Woman
