,subjID,experimentName,versionName,sequenceName,url,selected_row,windowWidth,windowHeight,screenWidth,screenHeight,startDate,startTime,trial,stimulus,duration,actual_depth,depth_estimate,trial_RT,log_sceneDuration,unitSelection,seq_filepath,experimentTime,totalTime,age,gender
0,789991,DepthScenes,duration_manipulation_targetAtFixation,jsons/v1_VE250_randls_74_rotated.json,http://54.235.29.9/FacialAge/BNav_EC2/DepthDuration/v2_depth_duration_MTurk/v2_DepthDuration_HTML.html#140,140,1366,657,1366,768,8-20-2022,19-3-31,1,depth_duration_stimuli/000691_2014-06-08_13-08-50_260595134347_rgbf000132-resize_3/000691_2014-06-08_13-08-50_260595134347_rgbf000132-resize_3-target.png,250,4.1530000000000005,5.0,3580,255,meters,jsons/v1_VE250_randls_74_rotated.json,707905,1054797,31,Man
1,789991,DepthScenes,duration_manipulation_targetAtFixation,jsons/v1_VE250_randls_74_rotated.json,http://54.235.29.9/FacialAge/BNav_EC2/DepthDuration/v2_depth_duration_MTurk/v2_DepthDuration_HTML.html#140,140,1366,657,1366,768,8-20-2022,19-3-31,2,depth_duration_stimuli/002213_2014-06-28_18-37-58_260595134347_rgbf000055-resize_1/002213_2014-06-28_18-37-58_260595134347_rgbf000055-resize_1-target.png,250,3.62,6.0,4424,248,meters,jsons/v1_VE250_randls_74_rotated.json,707905,1054797,31,Man
2,789991,DepthScenes,duration_manipulation_targetAtFixation,jsons/v1_VE250_randls_74_rotated.json,http://54.235.29.9/FacialAge/BNav_EC2/DepthDuration/v2_depth_duration_MTurk/v2_DepthDuration_HTML.html#140,140,1366,657,1366,768,8-20-2022,19-3-31,3,depth_duration_stimuli/002568_2014-06-24_13-59-21_094959634447_rgbf000062-resize_4/002568_2014-06-24_13-59-21_094959634447_rgbf000062-resize_4-target.png,250,3.015,1.0,6275,248,meters,jsons/v1_VE250_randls_74_rotated.json,707905,1054797,31,Man
3,789991,DepthScenes,duration_manipulation_targetAtFixation,jsons/v1_VE250_randls_74_rotated.json,http://54.235.29.9/FacialAge/BNav_EC2/DepthDuration/v2_depth_duration_MTurk/v2_DepthDuration_HTML.html#140,140,1366,657,1366,768,8-20-2022,19-3-31,4,depth_duration_stimuli/003492_2014-05-21_15-50-55_094959634447_rgbf000828-resize_1/003492_2014-05-21_15-50-55_094959634447_rgbf000828-resize_1-target.png,250,4.06875,2.0,3319,249,meters,jsons/v1_VE250_randls_74_rotated.json,707905,1054797,31,Man
4,789991,DepthScenes,duration_manipulation_targetAtFixation,jsons/v1_VE250_randls_74_rotated.json,http://54.235.29.9/FacialAge/BNav_EC2/DepthDuration/v2_depth_duration_MTurk/v2_DepthDuration_HTML.html#140,140,1366,657,1366,768,8-20-2022,19-3-31,5,depth_duration_stimuli/000549_2014-06-08_22-10-24_260595134347_rgbf000247-resize_3/000549_2014-06-08_22-10-24_260595134347_rgbf000247-resize_3-target.png,250,1.841,1.0,4408,250,meters,jsons/v1_VE250_randls_74_rotated.json,707905,1054797,31,Man
5,789991,DepthScenes,duration_manipulation_targetAtFixation,jsons/v1_VE250_randls_74_rotated.json,http://54.235.29.9/FacialAge/BNav_EC2/DepthDuration/v2_depth_duration_MTurk/v2_DepthDuration_HTML.html#140,140,1366,657,1366,768,8-20-2022,19-3-31,6,depth_duration_stimuli/001055_2014-06-08_18-45-35_260595134347_rgbf000111-resize_4/001055_2014-06-08_18-45-35_260595134347_rgbf000111-resize_4-target.png,250,2.4290000000000003,0.5,7277,250,meters,jsons/v1_VE250_randls_74_rotated.json,707905,1054797,31,Man
6,789991,DepthScenes,duration_manipulation_targetAtFixation,jsons/v1_VE250_randls_74_rotated.json,http://54.235.29.9/FacialAge/BNav_EC2/DepthDuration/v2_depth_duration_MTurk/v2_DepthDuration_HTML.html#140,140,1366,657,1366,768,8-20-2022,19-3-31,7,depth_duration_stimuli/003129_2014-05-12_10-48-10_094959634447_rgbf000100-resize_0/003129_2014-05-12_10-48-10_094959634447_rgbf000100-resize_0-target.png,250,4.9305,0.5,5830,250,meters,jsons/v1_VE250_randls_74_rotated.json,707905,1054797,31,Man
7,789991,DepthScenes,duration_manipulation_targetAtFixation,jsons/v1_VE250_randls_74_rotated.json,http://54.235.29.9/FacialAge/BNav_EC2/DepthDuration/v2_depth_duration_MTurk/v2_DepthDuration_HTML.html#140,140,1366,657,1366,768,8-20-2022,19-3-31,8,depth_duration_stimuli/000414_2014-06-04_19-49-13_260595134347_rgbf000044-resize_0/000414_2014-06-04_19-49-13_260595134347_rgbf000044-resize_0-target.png,250,4.329,1.0,3007,249,meters,jsons/v1_VE250_randls_74_rotated.json,707905,1054797,31,Man
8,789991,DepthScenes,duration_manipulation_targetAtFixation,jsons/v1_VE250_randls_74_rotated.json,http://54.235.29.9/FacialAge/BNav_EC2/DepthDuration/v2_depth_duration_MTurk/v2_DepthDuration_HTML.html#140,140,1366,657,1366,768,8-20-2022,19-3-31,9,depth_duration_stimuli/001132_2014-06-17_14-48-54_260595134347_rgbf000100-resize_2/001132_2014-06-17_14-48-54_260595134347_rgbf000100-resize_2-target.png,250,3.753,1.0,2976,250,meters,jsons/v1_VE250_randls_74_rotated.json,707905,1054797,31,Man
9,789991,DepthScenes,duration_manipulation_targetAtFixation,jsons/v1_VE250_randls_74_rotated.json,http://54.235.29.9/FacialAge/BNav_EC2/DepthDuration/v2_depth_duration_MTurk/v2_DepthDuration_HTML.html#140,140,1366,657,1366,768,8-20-2022,19-3-31,10,depth_duration_stimuli/001133_2014-06-17_14-49-16_260595134347_rgbf000100-resize_0/001133_2014-06-17_14-49-16_260595134347_rgbf000100-resize_0-target.png,250,4.2115,1.0,9714,249,meters,jsons/v1_VE250_randls_74_rotated.json,707905,1054797,31,Man
10,789991,DepthScenes,duration_manipulation_targetAtFixation,jsons/v1_VE250_randls_74_rotated.json,http://54.235.29.9/FacialAge/BNav_EC2/DepthDuration/v2_depth_duration_MTurk/v2_DepthDuration_HTML.html#140,140,1366,657,1366,768,8-20-2022,19-3-31,11,depth_duration_stimuli/002545_2014-06-24_13-38-53_094959634447_rgbf000080-resize_4/002545_2014-06-24_13-38-53_094959634447_rgbf000080-resize_4-target.png,250,1.9205,0.7,6550,251,meters,jsons/v1_VE250_randls_74_rotated.json,707905,1054797,31,Man
11,789991,DepthScenes,duration_manipulation_targetAtFixation,jsons/v1_VE250_randls_74_rotated.json,http://54.235.29.9/FacialAge/BNav_EC2/DepthDuration/v2_depth_duration_MTurk/v2_DepthDuration_HTML.html#140,140,1366,657,1366,768,8-20-2022,19-3-31,12,depth_duration_stimuli/001092_2014-06-15_17-34-58_260595134347_rgbf000171-resize_3/001092_2014-06-15_17-34-58_260595134347_rgbf000171-resize_3-target.png,250,2.6935,1.0,3159,221,meters,jsons/v1_VE250_randls_74_rotated.json,707905,1054797,31,Man
12,789991,DepthScenes,duration_manipulation_targetAtFixation,jsons/v1_VE250_randls_74_rotated.json,http://54.235.29.9/FacialAge/BNav_EC2/DepthDuration/v2_depth_duration_MTurk/v2_DepthDuration_HTML.html#140,140,1366,657,1366,768,8-20-2022,19-3-31,13,depth_duration_stimuli/000635_2014-06-08_16-38-42_260595134347_rgbf000106-resize_1/000635_2014-06-08_16-38-42_260595134347_rgbf000106-resize_1-target.png,250,2.074,1.0,3121,249,meters,jsons/v1_VE250_randls_74_rotated.json,707905,1054797,31,Man
13,789991,DepthScenes,duration_manipulation_targetAtFixation,jsons/v1_VE250_randls_74_rotated.json,http://54.235.29.9/FacialAge/BNav_EC2/DepthDuration/v2_depth_duration_MTurk/v2_DepthDuration_HTML.html#140,140,1366,657,1366,768,8-20-2022,19-3-31,14,depth_duration_stimuli/002279_2014-06-28_18-55-32_260595134347_rgbf000040-resize_5/002279_2014-06-28_18-55-32_260595134347_rgbf000040-resize_5-target.png,250,1.5043333333333,1.0,2945,248,meters,jsons/v1_VE250_randls_74_rotated.json,707905,1054797,31,Man
14,789991,DepthScenes,duration_manipulation_targetAtFixation,jsons/v1_VE250_randls_74_rotated.json,http://54.235.29.9/FacialAge/BNav_EC2/DepthDuration/v2_depth_duration_MTurk/v2_DepthDuration_HTML.html#140,140,1366,657,1366,768,8-20-2022,19-3-31,15,depth_duration_stimuli/003495_2014-05-21_16-01-51_094959634447_rgbf000100-resize_3/003495_2014-05-21_16-01-51_094959634447_rgbf000100-resize_3-target.png,250,1.6255,0.5,4227,250,meters,jsons/v1_VE250_randls_74_rotated.json,707905,1054797,31,Man
15,789991,DepthScenes,duration_manipulation_targetAtFixation,jsons/v1_VE250_randls_74_rotated.json,http://54.235.29.9/FacialAge/BNav_EC2/DepthDuration/v2_depth_duration_MTurk/v2_DepthDuration_HTML.html#140,140,1366,657,1366,768,8-20-2022,19-3-31,16,depth_duration_stimuli/001244_2014-06-17_16-47-45_260595134347_rgbf000030-resize_4/001244_2014-06-17_16-47-45_260595134347_rgbf000030-resize_4-target.png,250,2.0425,1.0,3228,226,meters,jsons/v1_VE250_randls_74_rotated.json,707905,1054797,31,Man
16,789991,DepthScenes,duration_manipulation_targetAtFixation,jsons/v1_VE250_randls_74_rotated.json,http://54.235.29.9/FacialAge/BNav_EC2/DepthDuration/v2_depth_duration_MTurk/v2_DepthDuration_HTML.html#140,140,1366,657,1366,768,8-20-2022,19-3-31,17,depth_duration_stimuli/001136_2014-06-17_15-19-41_260595134347_rgbf000076-resize_3/001136_2014-06-17_15-19-41_260595134347_rgbf000076-resize_3-target.png,250,1.8655,0.5,7942,343,meters,jsons/v1_VE250_randls_74_rotated.json,707905,1054797,31,Man
17,789991,DepthScenes,duration_manipulation_targetAtFixation,jsons/v1_VE250_randls_74_rotated.json,http://54.235.29.9/FacialAge/BNav_EC2/DepthDuration/v2_depth_duration_MTurk/v2_DepthDuration_HTML.html#140,140,1366,657,1366,768,8-20-2022,19-3-31,18,depth_duration_stimuli/001164_2014-06-17_15-35-46_260595134347_rgbf000085-resize_3/001164_2014-06-17_15-35-46_260595134347_rgbf000085-resize_3-target.png,250,2.354,1.0,4497,248,meters,jsons/v1_VE250_randls_74_rotated.json,707905,1054797,31,Man
18,789991,DepthScenes,duration_manipulation_targetAtFixation,jsons/v1_VE250_randls_74_rotated.json,http://54.235.29.9/FacialAge/BNav_EC2/DepthDuration/v2_depth_duration_MTurk/v2_DepthDuration_HTML.html#140,140,1366,657,1366,768,8-20-2022,19-3-31,19,depth_duration_stimuli/001498_2014-06-19_17-45-14_260595134347_rgbf000129-resize_4/001498_2014-06-19_17-45-14_260595134347_rgbf000129-resize-original.jpg,250,1.4075,1.0,2977,250,meters,jsons/v1_VE250_randls_74_rotated.json,707905,1054797,31,Man
19,789991,DepthScenes,duration_manipulation_targetAtFixation,jsons/v1_VE250_randls_74_rotated.json,http://54.235.29.9/FacialAge/BNav_EC2/DepthDuration/v2_depth_duration_MTurk/v2_DepthDuration_HTML.html#140,140,1366,657,1366,768,8-20-2022,19-3-31,20,depth_duration_stimuli/002344_2014-06-28_20-06-29_260595134347_rgbf000030-resize_1/002344_2014-06-28_20-06-29_260595134347_rgbf000030-resize_1-target.png,250,1.5795,0.5,4456,277,meters,jsons/v1_VE250_randls_74_rotated.json,707905,1054797,31,Man
20,789991,DepthScenes,duration_manipulation_targetAtFixation,jsons/v1_VE250_randls_74_rotated.json,http://54.235.29.9/FacialAge/BNav_EC2/DepthDuration/v2_depth_duration_MTurk/v2_DepthDuration_HTML.html#140,140,1366,657,1366,768,8-20-2022,19-3-31,21,depth_duration_stimuli/002725_2014-06-22_11-47-51_094959634447_rgbf000070-resize_1/002725_2014-06-22_11-47-51_094959634447_rgbf000070-resize_1-target.png,250,2.195,0.5,4998,247,meters,jsons/v1_VE250_randls_74_rotated.json,707905,1054797,31,Man
21,789991,DepthScenes,duration_manipulation_targetAtFixation,jsons/v1_VE250_randls_74_rotated.json,http://54.235.29.9/FacialAge/BNav_EC2/DepthDuration/v2_depth_duration_MTurk/v2_DepthDuration_HTML.html#140,140,1366,657,1366,768,8-20-2022,19-3-31,22,depth_duration_stimuli/002323_2014-06-28_20-01-54_260595134347_rgbf000051-resize_4/002323_2014-06-28_20-01-54_260595134347_rgbf000051-resize_4-target.png,250,3.7310000000000003,0.3,4602,254,meters,jsons/v1_VE250_randls_74_rotated.json,707905,1054797,31,Man
22,789991,DepthScenes,duration_manipulation_targetAtFixation,jsons/v1_VE250_randls_74_rotated.json,http://54.235.29.9/FacialAge/BNav_EC2/DepthDuration/v2_depth_duration_MTurk/v2_DepthDuration_HTML.html#140,140,1366,657,1366,768,8-20-2022,19-3-31,23,depth_duration_stimuli/000917_2014-06-09_22-45-29_260595134347_rgbf000149-resize_3/000917_2014-06-09_22-45-29_260595134347_rgbf000149-resize_3-target.png,250,4.1865,1.0,3472,250,meters,jsons/v1_VE250_randls_74_rotated.json,707905,1054797,31,Man
23,789991,DepthScenes,duration_manipulation_targetAtFixation,jsons/v1_VE250_randls_74_rotated.json,http://54.235.29.9/FacialAge/BNav_EC2/DepthDuration/v2_depth_duration_MTurk/v2_DepthDuration_HTML.html#140,140,1366,657,1366,768,8-20-2022,19-3-31,24,depth_duration_stimuli/002949_2014-06-26_15-57-42_094959634447_rgbf000079-resize_1/002949_2014-06-26_15-57-42_094959634447_rgbf000079-resize_1-target.png,250,1.8915,0.7,3607,268,meters,jsons/v1_VE250_randls_74_rotated.json,707905,1054797,31,Man
24,789991,DepthScenes,duration_manipulation_targetAtFixation,jsons/v1_VE250_randls_74_rotated.json,http://54.235.29.9/FacialAge/BNav_EC2/DepthDuration/v2_depth_duration_MTurk/v2_DepthDuration_HTML.html#140,140,1366,657,1366,768,8-20-2022,19-3-31,25,depth_duration_stimuli/000522_2014-06-08_13-35-06_260595134347_rgbf000244-resize_1/000522_2014-06-08_13-35-06_260595134347_rgbf000244-resize_1-target.png,250,2.3715,0.5,3951,249,meters,jsons/v1_VE250_randls_74_rotated.json,707905,1054797,31,Man
25,789991,DepthScenes,duration_manipulation_targetAtFixation,jsons/v1_VE250_randls_74_rotated.json,http://54.235.29.9/FacialAge/BNav_EC2/DepthDuration/v2_depth_duration_MTurk/v2_DepthDuration_HTML.html#140,140,1366,657,1366,768,8-20-2022,19-3-31,26,depth_duration_stimuli/000556_2014-06-09_22-42-56_260595134347_rgbf000214-resize_1/000556_2014-06-09_22-42-56_260595134347_rgbf000214-resize_1-target.png,250,4.8415,1.0,2643,249,meters,jsons/v1_VE250_randls_74_rotated.json,707905,1054797,31,Man
26,789991,DepthScenes,duration_manipulation_targetAtFixation,jsons/v1_VE250_randls_74_rotated.json,http://54.235.29.9/FacialAge/BNav_EC2/DepthDuration/v2_depth_duration_MTurk/v2_DepthDuration_HTML.html#140,140,1366,657,1366,768,8-20-2022,19-3-31,27,depth_duration_stimuli/001158_2014-06-17_15-32-16_260595134347_rgbf000138-resize_2/001158_2014-06-17_15-32-16_260595134347_rgbf000138-resize_2-target.png,250,4.5315,1.0,2818,250,meters,jsons/v1_VE250_randls_74_rotated.json,707905,1054797,31,Man
27,789991,DepthScenes,duration_manipulation_targetAtFixation,jsons/v1_VE250_randls_74_rotated.json,http://54.235.29.9/FacialAge/BNav_EC2/DepthDuration/v2_depth_duration_MTurk/v2_DepthDuration_HTML.html#140,140,1366,657,1366,768,8-20-2022,19-3-31,28,depth_duration_stimuli/001815_2014-06-26_20-52-55_260595134347_rgbf000020-resize_0/001815_2014-06-26_20-52-55_260595134347_rgbf000020-resize_0-target.png,250,3.3865,1.0,2191,250,meters,jsons/v1_VE250_randls_74_rotated.json,707905,1054797,31,Man
28,789991,DepthScenes,duration_manipulation_targetAtFixation,jsons/v1_VE250_randls_74_rotated.json,http://54.235.29.9/FacialAge/BNav_EC2/DepthDuration/v2_depth_duration_MTurk/v2_DepthDuration_HTML.html#140,140,1366,657,1366,768,8-20-2022,19-3-31,29,depth_duration_stimuli/001808_2014-06-26_20-50-58_260595134347_rgbf000029-resize_1/001808_2014-06-26_20-50-58_260595134347_rgbf000029-resize_1-target.png,250,4.249,2.0,2834,265,meters,jsons/v1_VE250_randls_74_rotated.json,707905,1054797,31,Man
29,789991,DepthScenes,duration_manipulation_targetAtFixation,jsons/v1_VE250_randls_74_rotated.json,http://54.235.29.9/FacialAge/BNav_EC2/DepthDuration/v2_depth_duration_MTurk/v2_DepthDuration_HTML.html#140,140,1366,657,1366,768,8-20-2022,19-3-31,30,depth_duration_stimuli/002072_2014-06-24_21-48-06_260595134347_rgbf000115-resize_0/002072_2014-06-24_21-48-06_260595134347_rgbf000115-resize-original.jpg,250,4.702,1.0,2470,248,meters,jsons/v1_VE250_randls_74_rotated.json,707905,1054797,31,Man
30,789991,DepthScenes,duration_manipulation_targetAtFixation,jsons/v1_VE250_randls_74_rotated.json,http://54.235.29.9/FacialAge/BNav_EC2/DepthDuration/v2_depth_duration_MTurk/v2_DepthDuration_HTML.html#140,140,1366,657,1366,768,8-20-2022,19-3-31,31,depth_duration_stimuli/002678_2014-06-13_16-15-32_094959634447_rgbf000151-resize_6/002678_2014-06-13_16-15-32_094959634447_rgbf000151-resize_6-target.png,250,2.1830000000000003,2.0,3762,242,meters,jsons/v1_VE250_randls_74_rotated.json,707905,1054797,31,Man
31,789991,DepthScenes,duration_manipulation_targetAtFixation,jsons/v1_VE250_randls_74_rotated.json,http://54.235.29.9/FacialAge/BNav_EC2/DepthDuration/v2_depth_duration_MTurk/v2_DepthDuration_HTML.html#140,140,1366,657,1366,768,8-20-2022,19-3-31,32,depth_duration_stimuli/000368_2014-06-09_15-53-01_260595134347_rgbf000155-resize_2/000368_2014-06-09_15-53-01_260595134347_rgbf000155-resize_2-target.png,250,2.4859999999999998,0.5,4672,247,meters,jsons/v1_VE250_randls_74_rotated.json,707905,1054797,31,Man
32,789991,DepthScenes,duration_manipulation_targetAtFixation,jsons/v1_VE250_randls_74_rotated.json,http://54.235.29.9/FacialAge/BNav_EC2/DepthDuration/v2_depth_duration_MTurk/v2_DepthDuration_HTML.html#140,140,1366,657,1366,768,8-20-2022,19-3-31,33,depth_duration_stimuli/002414_2014-06-28_20-24-58_260595134347_rgbf000067-resize_4/002414_2014-06-28_20-24-58_260595134347_rgbf000067-resize_4-target.png,250,4.363,1.0,2821,254,meters,jsons/v1_VE250_randls_74_rotated.json,707905,1054797,31,Man
33,789991,DepthScenes,duration_manipulation_targetAtFixation,jsons/v1_VE250_randls_74_rotated.json,http://54.235.29.9/FacialAge/BNav_EC2/DepthDuration/v2_depth_duration_MTurk/v2_DepthDuration_HTML.html#140,140,1366,657,1366,768,8-20-2022,19-3-31,34,depth_duration_stimuli/000773_2014-06-08_22-24-54_260595134347_rgbf000093-resize_1/000773_2014-06-08_22-24-54_260595134347_rgbf000093-resize_1-target.png,250,4.973,1.0,2369,249,meters,jsons/v1_VE250_randls_74_rotated.json,707905,1054797,31,Man
34,789991,DepthScenes,duration_manipulation_targetAtFixation,jsons/v1_VE250_randls_74_rotated.json,http://54.235.29.9/FacialAge/BNav_EC2/DepthDuration/v2_depth_duration_MTurk/v2_DepthDuration_HTML.html#140,140,1366,657,1366,768,8-20-2022,19-3-31,35,depth_duration_stimuli/001214_2014-06-17_16-13-55_260595134347_rgbf000111-resize_0/001214_2014-06-17_16-13-55_260595134347_rgbf000111-resize_0-target.png,250,2.6505,1.0,3039,248,meters,jsons/v1_VE250_randls_74_rotated.json,707905,1054797,31,Man
35,789991,DepthScenes,duration_manipulation_targetAtFixation,jsons/v1_VE250_randls_74_rotated.json,http://54.235.29.9/FacialAge/BNav_EC2/DepthDuration/v2_depth_duration_MTurk/v2_DepthDuration_HTML.html#140,140,1366,657,1366,768,8-20-2022,19-3-31,36,depth_duration_stimuli/000810_2014-06-08_17-20-01_260595134347_rgbf000105-resize_0/000810_2014-06-08_17-20-01_260595134347_rgbf000105-resize_0-target.png,250,1.4865,1.0,2156,249,meters,jsons/v1_VE250_randls_74_rotated.json,707905,1054797,31,Man
36,789991,DepthScenes,duration_manipulation_targetAtFixation,jsons/v1_VE250_randls_74_rotated.json,http://54.235.29.9/FacialAge/BNav_EC2/DepthDuration/v2_depth_duration_MTurk/v2_DepthDuration_HTML.html#140,140,1366,657,1366,768,8-20-2022,19-3-31,37,depth_duration_stimuli/002444_2014-06-28_20-32-08_260595134347_rgbf000027-resize_0/002444_2014-06-28_20-32-08_260595134347_rgbf000027-resize_0-target.png,250,4.388999999999999,1.0,4022,252,meters,jsons/v1_VE250_randls_74_rotated.json,707905,1054797,31,Man
37,789991,DepthScenes,duration_manipulation_targetAtFixation,jsons/v1_VE250_randls_74_rotated.json,http://54.235.29.9/FacialAge/BNav_EC2/DepthDuration/v2_depth_duration_MTurk/v2_DepthDuration_HTML.html#140,140,1366,657,1366,768,8-20-2022,19-3-31,38,depth_duration_stimuli/000436_2014-06-09_22-25-11_260595134347_rgbf000137-resize_1/000436_2014-06-09_22-25-11_260595134347_rgbf000137-resize_1-target.png,250,4.0705,0.5,4607,250,meters,jsons/v1_VE250_randls_74_rotated.json,707905,1054797,31,Man
38,789991,DepthScenes,duration_manipulation_targetAtFixation,jsons/v1_VE250_randls_74_rotated.json,http://54.235.29.9/FacialAge/BNav_EC2/DepthDuration/v2_depth_duration_MTurk/v2_DepthDuration_HTML.html#140,140,1366,657,1366,768,8-20-2022,19-3-31,39,depth_duration_stimuli/001516_2014-06-20_16-25-09_260595134347_rgbf000076-resize_2/001516_2014-06-20_16-25-09_260595134347_rgbf000076-resize_2-target.png,250,1.7445,2.0,2879,248,meters,jsons/v1_VE250_randls_74_rotated.json,707905,1054797,31,Man
39,789991,DepthScenes,duration_manipulation_targetAtFixation,jsons/v1_VE250_randls_74_rotated.json,http://54.235.29.9/FacialAge/BNav_EC2/DepthDuration/v2_depth_duration_MTurk/v2_DepthDuration_HTML.html#140,140,1366,657,1366,768,8-20-2022,19-3-31,40,depth_duration_stimuli/002118_2014-06-25_20-32-08_260595134347_rgbf000078-resize_1/002118_2014-06-25_20-32-08_260595134347_rgbf000078-resize_1-target.png,250,2.6460000000000004,1.0,3654,250,meters,jsons/v1_VE250_randls_74_rotated.json,707905,1054797,31,Man
40,789991,DepthScenes,duration_manipulation_targetAtFixation,jsons/v1_VE250_randls_74_rotated.json,http://54.235.29.9/FacialAge/BNav_EC2/DepthDuration/v2_depth_duration_MTurk/v2_DepthDuration_HTML.html#140,140,1366,657,1366,768,8-20-2022,19-3-31,41,depth_duration_stimuli/003423_2014-05-21_10-23-26_094959634447_rgbf002665-resize_2/003423_2014-05-21_10-23-26_094959634447_rgbf002665-resize_2-target.png,250,3.2575,1.0,3669,249,meters,jsons/v1_VE250_randls_74_rotated.json,707905,1054797,31,Man
41,789991,DepthScenes,duration_manipulation_targetAtFixation,jsons/v1_VE250_randls_74_rotated.json,http://54.235.29.9/FacialAge/BNav_EC2/DepthDuration/v2_depth_duration_MTurk/v2_DepthDuration_HTML.html#140,140,1366,657,1366,768,8-20-2022,19-3-31,42,depth_duration_stimuli/002905_2014-06-03_18-04-43_094959634447_rgbf000151-resize_2/002905_2014-06-03_18-04-43_094959634447_rgbf000151-resize_2-target.png,250,2.0295,1.0,3388,249,meters,jsons/v1_VE250_randls_74_rotated.json,707905,1054797,31,Man
42,789991,DepthScenes,duration_manipulation_targetAtFixation,jsons/v1_VE250_randls_74_rotated.json,http://54.235.29.9/FacialAge/BNav_EC2/DepthDuration/v2_depth_duration_MTurk/v2_DepthDuration_HTML.html#140,140,1366,657,1366,768,8-20-2022,19-3-31,43,depth_duration_stimuli/002209_2014-06-28_18-36-10_260595134347_rgbf000051-resize_1/002209_2014-06-28_18-36-10_260595134347_rgbf000051-resize_1-target.png,250,2.057,1.0,3037,237,meters,jsons/v1_VE250_randls_74_rotated.json,707905,1054797,31,Man
43,789991,DepthScenes,duration_manipulation_targetAtFixation,jsons/v1_VE250_randls_74_rotated.json,http://54.235.29.9/FacialAge/BNav_EC2/DepthDuration/v2_depth_duration_MTurk/v2_DepthDuration_HTML.html#140,140,1366,657,1366,768,8-20-2022,19-3-31,44,depth_duration_stimuli/002763_2014-06-22_19-13-10_094959634447_rgbf000075-resize_4/002763_2014-06-22_19-13-10_094959634447_rgbf000075-resize_4-target.png,250,1.68375,2.0,5815,248,meters,jsons/v1_VE250_randls_74_rotated.json,707905,1054797,31,Man
44,789991,DepthScenes,duration_manipulation_targetAtFixation,jsons/v1_VE250_randls_74_rotated.json,http://54.235.29.9/FacialAge/BNav_EC2/DepthDuration/v2_depth_duration_MTurk/v2_DepthDuration_HTML.html#140,140,1366,657,1366,768,8-20-2022,19-3-31,45,depth_duration_stimuli/002425_2014-06-28_20-27-29_260595134347_rgbf000031-resize_8/002425_2014-06-28_20-27-29_260595134347_rgbf000031-resize_8-target.png,250,3.8960000000000004,2.0,2918,250,meters,jsons/v1_VE250_randls_74_rotated.json,707905,1054797,31,Man
45,789991,DepthScenes,duration_manipulation_targetAtFixation,jsons/v1_VE250_randls_74_rotated.json,http://54.235.29.9/FacialAge/BNav_EC2/DepthDuration/v2_depth_duration_MTurk/v2_DepthDuration_HTML.html#140,140,1366,657,1366,768,8-20-2022,19-3-31,46,depth_duration_stimuli/000642_2014-06-08_16-59-25_260595134347_rgbf000098-resize_2/000642_2014-06-08_16-59-25_260595134347_rgbf000098-resize_2-target.png,250,2.8815,2.0,2505,250,meters,jsons/v1_VE250_randls_74_rotated.json,707905,1054797,31,Man
46,789991,DepthScenes,duration_manipulation_targetAtFixation,jsons/v1_VE250_randls_74_rotated.json,http://54.235.29.9/FacialAge/BNav_EC2/DepthDuration/v2_depth_duration_MTurk/v2_DepthDuration_HTML.html#140,140,1366,657,1366,768,8-20-2022,19-3-31,47,depth_duration_stimuli/001828_2014-06-26_21-40-03_260595134347_rgbf000024-resize_0/001828_2014-06-26_21-40-03_260595134347_rgbf000024-resize_0-target.png,250,4.8260000000000005,2.0,2422,266,meters,jsons/v1_VE250_randls_74_rotated.json,707905,1054797,31,Man
47,789991,DepthScenes,duration_manipulation_targetAtFixation,jsons/v1_VE250_randls_74_rotated.json,http://54.235.29.9/FacialAge/BNav_EC2/DepthDuration/v2_depth_duration_MTurk/v2_DepthDuration_HTML.html#140,140,1366,657,1366,768,8-20-2022,19-3-31,48,depth_duration_stimuli/000009_2014-05-26_14-32-05_260595134347_rgbf000034-resize_3/000009_2014-05-26_14-32-05_260595134347_rgbf000034-resize_3-target.png,250,3.8715,3.0,3032,249,meters,jsons/v1_VE250_randls_74_rotated.json,707905,1054797,31,Man
48,789991,DepthScenes,duration_manipulation_targetAtFixation,jsons/v1_VE250_randls_74_rotated.json,http://54.235.29.9/FacialAge/BNav_EC2/DepthDuration/v2_depth_duration_MTurk/v2_DepthDuration_HTML.html#140,140,1366,657,1366,768,8-20-2022,19-3-31,49,depth_duration_stimuli/001170_2014-06-17_15-43-44_260595134347_rgbf000096-resize_6/001170_2014-06-17_15-43-44_260595134347_rgbf000096-resize-original.jpg,250,1.1909999999999998,0.0,4751,250,meters,jsons/v1_VE250_randls_74_rotated.json,707905,1054797,31,Man
49,789991,DepthScenes,duration_manipulation_targetAtFixation,jsons/v1_VE250_randls_74_rotated.json,http://54.235.29.9/FacialAge/BNav_EC2/DepthDuration/v2_depth_duration_MTurk/v2_DepthDuration_HTML.html#140,140,1366,657,1366,768,8-20-2022,19-3-31,50,depth_duration_stimuli/000109_2014-05-14_23-41-52_260595134347_rgbf000035-resize_9/000109_2014-05-14_23-41-52_260595134347_rgbf000035-resize_9-target.png,250,1.3545,1.0,3193,253,meters,jsons/v1_VE250_randls_74_rotated.json,707905,1054797,31,Man
50,789991,DepthScenes,duration_manipulation_targetAtFixation,jsons/v1_VE250_randls_74_rotated.json,http://54.235.29.9/FacialAge/BNav_EC2/DepthDuration/v2_depth_duration_MTurk/v2_DepthDuration_HTML.html#140,140,1366,657,1366,768,8-20-2022,19-3-31,51,depth_duration_stimuli/000470_2014-06-09_19-42-40_260595134347_rgbf000094-resize_1/000470_2014-06-09_19-42-40_260595134347_rgbf000094-resize_1-target.png,250,1.831,1.0,2525,265,meters,jsons/v1_VE250_randls_74_rotated.json,707905,1054797,31,Man
51,789991,DepthScenes,duration_manipulation_targetAtFixation,jsons/v1_VE250_randls_74_rotated.json,http://54.235.29.9/FacialAge/BNav_EC2/DepthDuration/v2_depth_duration_MTurk/v2_DepthDuration_HTML.html#140,140,1366,657,1366,768,8-20-2022,19-3-31,52,depth_duration_stimuli/000483_2014-06-09_20-41-45_260595134347_rgbf000116-resize_4/000483_2014-06-09_20-41-45_260595134347_rgbf000116-resize_4-target.png,250,1.337,2.0,3331,246,meters,jsons/v1_VE250_randls_74_rotated.json,707905,1054797,31,Man
52,789991,DepthScenes,duration_manipulation_targetAtFixation,jsons/v1_VE250_randls_74_rotated.json,http://54.235.29.9/FacialAge/BNav_EC2/DepthDuration/v2_depth_duration_MTurk/v2_DepthDuration_HTML.html#140,140,1366,657,1366,768,8-20-2022,19-3-31,53,depth_duration_stimuli/000469_2014-06-09_19-42-10_260595134347_rgbf000081-resize_1/000469_2014-06-09_19-42-10_260595134347_rgbf000081-resize_1-target.png,250,1.652,1.0,2797,253,meters,jsons/v1_VE250_randls_74_rotated.json,707905,1054797,31,Man
53,789991,DepthScenes,duration_manipulation_targetAtFixation,jsons/v1_VE250_randls_74_rotated.json,http://54.235.29.9/FacialAge/BNav_EC2/DepthDuration/v2_depth_duration_MTurk/v2_DepthDuration_HTML.html#140,140,1366,657,1366,768,8-20-2022,19-3-31,54,depth_duration_stimuli/001094_2014-06-15_17-36-00_260595134347_rgbf000205-resize_0/001094_2014-06-15_17-36-00_260595134347_rgbf000205-resize_0-target.png,250,4.2175,2.0,2886,249,meters,jsons/v1_VE250_randls_74_rotated.json,707905,1054797,31,Man
54,789991,DepthScenes,duration_manipulation_targetAtFixation,jsons/v1_VE250_randls_74_rotated.json,http://54.235.29.9/FacialAge/BNav_EC2/DepthDuration/v2_depth_duration_MTurk/v2_DepthDuration_HTML.html#140,140,1366,657,1366,768,8-20-2022,19-3-31,55,depth_duration_stimuli/000692_2014-06-08_13-09-42_260595134347_rgbf000199-resize_2/000692_2014-06-08_13-09-42_260595134347_rgbf000199-resize_2-target.png,250,3.661,1.0,2139,250,meters,jsons/v1_VE250_randls_74_rotated.json,707905,1054797,31,Man
55,789991,DepthScenes,duration_manipulation_targetAtFixation,jsons/v1_VE250_randls_74_rotated.json,http://54.235.29.9/FacialAge/BNav_EC2/DepthDuration/v2_depth_duration_MTurk/v2_DepthDuration_HTML.html#140,140,1366,657,1366,768,8-20-2022,19-3-31,56,depth_duration_stimuli/002199_2014-06-28_18-33-56_260595134347_rgbf000074-resize_0/002199_2014-06-28_18-33-56_260595134347_rgbf000074-resize_0-target.png,250,1.996,1.0,2155,250,meters,jsons/v1_VE250_randls_74_rotated.json,707905,1054797,31,Man
56,789991,DepthScenes,duration_manipulation_targetAtFixation,jsons/v1_VE250_randls_74_rotated.json,http://54.235.29.9/FacialAge/BNav_EC2/DepthDuration/v2_depth_duration_MTurk/v2_DepthDuration_HTML.html#140,140,1366,657,1366,768,8-20-2022,19-3-31,57,depth_duration_stimuli/001056_2014-06-08_18-46-44_260595134347_rgbf000068-resize_0/001056_2014-06-08_18-46-44_260595134347_rgbf000068-resize_0-target.png,250,2.6625,1.0,2863,249,meters,jsons/v1_VE250_randls_74_rotated.json,707905,1054797,31,Man
57,789991,DepthScenes,duration_manipulation_targetAtFixation,jsons/v1_VE250_randls_74_rotated.json,http://54.235.29.9/FacialAge/BNav_EC2/DepthDuration/v2_depth_duration_MTurk/v2_DepthDuration_HTML.html#140,140,1366,657,1366,768,8-20-2022,19-3-31,58,depth_duration_stimuli/001235_2014-06-17_16-37-36_260595134347_rgbf000084-resize_4/001235_2014-06-17_16-37-36_260595134347_rgbf000084-resize_4-target.png,250,3.6605,1.0,2246,180,meters,jsons/v1_VE250_randls_74_rotated.json,707905,1054797,31,Man
58,789991,DepthScenes,duration_manipulation_targetAtFixation,jsons/v1_VE250_randls_74_rotated.json,http://54.235.29.9/FacialAge/BNav_EC2/DepthDuration/v2_depth_duration_MTurk/v2_DepthDuration_HTML.html#140,140,1366,657,1366,768,8-20-2022,19-3-31,59,depth_duration_stimuli/000788_2014-06-08_22-34-36_260595134347_rgbf000131-resize_1/000788_2014-06-08_22-34-36_260595134347_rgbf000131-resize_1-target.png,250,3.359,1.0,3233,247,meters,jsons/v1_VE250_randls_74_rotated.json,707905,1054797,31,Man
59,789991,DepthScenes,duration_manipulation_targetAtFixation,jsons/v1_VE250_randls_74_rotated.json,http://54.235.29.9/FacialAge/BNav_EC2/DepthDuration/v2_depth_duration_MTurk/v2_DepthDuration_HTML.html#140,140,1366,657,1366,768,8-20-2022,19-3-31,60,depth_duration_stimuli/002136_2014-06-25_21-18-03_260595134347_rgbf000109-resize_3/002136_2014-06-25_21-18-03_260595134347_rgbf000109-resize_3-target.png,250,1.9569999999999999,0.5,5054,249,meters,jsons/v1_VE250_randls_74_rotated.json,707905,1054797,31,Man
60,789991,DepthScenes,duration_manipulation_targetAtFixation,jsons/v1_VE250_randls_74_rotated.json,http://54.235.29.9/FacialAge/BNav_EC2/DepthDuration/v2_depth_duration_MTurk/v2_DepthDuration_HTML.html#140,140,1366,657,1366,768,8-20-2022,19-3-31,61,depth_duration_stimuli/002964_2014-06-08_17-46-11_094959634447_rgbf000091-resize_4/002964_2014-06-08_17-46-11_094959634447_rgbf000091-resize_4-target.png,250,1.6909999999999998,1.0,10509,362,meters,jsons/v1_VE250_randls_74_rotated.json,707905,1054797,31,Man
61,789991,DepthScenes,duration_manipulation_targetAtFixation,jsons/v1_VE250_randls_74_rotated.json,http://54.235.29.9/FacialAge/BNav_EC2/DepthDuration/v2_depth_duration_MTurk/v2_DepthDuration_HTML.html#140,140,1366,657,1366,768,8-20-2022,19-3-31,62,depth_duration_stimuli/001052_2014-06-08_18-24-54_260595134347_rgbf000130-resize_1/001052_2014-06-08_18-24-54_260595134347_rgbf000130-resize_1-target.png,250,4.1045,3.0,2660,313,meters,jsons/v1_VE250_randls_74_rotated.json,707905,1054797,31,Man
62,789991,DepthScenes,duration_manipulation_targetAtFixation,jsons/v1_VE250_randls_74_rotated.json,http://54.235.29.9/FacialAge/BNav_EC2/DepthDuration/v2_depth_duration_MTurk/v2_DepthDuration_HTML.html#140,140,1366,657,1366,768,8-20-2022,19-3-31,63,depth_duration_stimuli/002988_2014-06-15_12-24-20_094959634447_rgbf000150-resize_1/002988_2014-06-15_12-24-20_094959634447_rgbf000150-resize_1-target.png,250,4.7669999999999995,1.0,2772,234,meters,jsons/v1_VE250_randls_74_rotated.json,707905,1054797,31,Man
63,789991,DepthScenes,duration_manipulation_targetAtFixation,jsons/v1_VE250_randls_74_rotated.json,http://54.235.29.9/FacialAge/BNav_EC2/DepthDuration/v2_depth_duration_MTurk/v2_DepthDuration_HTML.html#140,140,1366,657,1366,768,8-20-2022,19-3-31,64,depth_duration_stimuli/001450_2014-06-19_17-02-03_260595134347_rgbf000203-resize_4/001450_2014-06-19_17-02-03_260595134347_rgbf000203-resize_4-target.png,250,4.0106666666667,1.0,3449,248,meters,jsons/v1_VE250_randls_74_rotated.json,707905,1054797,31,Man
64,789991,DepthScenes,duration_manipulation_targetAtFixation,jsons/v1_VE250_randls_74_rotated.json,http://54.235.29.9/FacialAge/BNav_EC2/DepthDuration/v2_depth_duration_MTurk/v2_DepthDuration_HTML.html#140,140,1366,657,1366,768,8-20-2022,19-3-31,65,depth_duration_stimuli/001449_2014-06-19_17-01-27_260595134347_rgbf000116-resize_2/001449_2014-06-19_17-01-27_260595134347_rgbf000116-resize_2-target.png,250,3.452,1.0,2434,247,meters,jsons/v1_VE250_randls_74_rotated.json,707905,1054797,31,Man
65,789991,DepthScenes,duration_manipulation_targetAtFixation,jsons/v1_VE250_randls_74_rotated.json,http://54.235.29.9/FacialAge/BNav_EC2/DepthDuration/v2_depth_duration_MTurk/v2_DepthDuration_HTML.html#140,140,1366,657,1366,768,8-20-2022,19-3-31,66,depth_duration_stimuli/001540_2014-06-20_17-01-05_260595134347_rgbf000086-resize_2/001540_2014-06-20_17-01-05_260595134347_rgbf000086-resize-original.jpg,250,1.459,0.0,3303,249,meters,jsons/v1_VE250_randls_74_rotated.json,707905,1054797,31,Man
66,789991,DepthScenes,duration_manipulation_targetAtFixation,jsons/v1_VE250_randls_74_rotated.json,http://54.235.29.9/FacialAge/BNav_EC2/DepthDuration/v2_depth_duration_MTurk/v2_DepthDuration_HTML.html#140,140,1366,657,1366,768,8-20-2022,19-3-31,67,depth_duration_stimuli/002639_2014-06-24_14-51-37_094959634447_rgbf000074-resize_4/002639_2014-06-24_14-51-37_094959634447_rgbf000074-resize_4-target.png,250,4.0375,1.0,2522,249,meters,jsons/v1_VE250_randls_74_rotated.json,707905,1054797,31,Man
67,789991,DepthScenes,duration_manipulation_targetAtFixation,jsons/v1_VE250_randls_74_rotated.json,http://54.235.29.9/FacialAge/BNav_EC2/DepthDuration/v2_depth_duration_MTurk/v2_DepthDuration_HTML.html#140,140,1366,657,1366,768,8-20-2022,19-3-31,68,depth_duration_stimuli/003292_2014-05-14_21-53-49_094959634447_rgbf000100-resize_2/003292_2014-05-14_21-53-49_094959634447_rgbf000100-resize_2-target.png,250,3.4815,1.0,2069,248,meters,jsons/v1_VE250_randls_74_rotated.json,707905,1054797,31,Man
68,789991,DepthScenes,duration_manipulation_targetAtFixation,jsons/v1_VE250_randls_74_rotated.json,http://54.235.29.9/FacialAge/BNav_EC2/DepthDuration/v2_depth_duration_MTurk/v2_DepthDuration_HTML.html#140,140,1366,657,1366,768,8-20-2022,19-3-31,69,depth_duration_stimuli/002467_2014-06-28_20-38-07_260595134347_rgbf000026-resize_2/002467_2014-06-28_20-38-07_260595134347_rgbf000026-resize_2-target.png,250,4.742,1.0,2057,249,meters,jsons/v1_VE250_randls_74_rotated.json,707905,1054797,31,Man
69,789991,DepthScenes,duration_manipulation_targetAtFixation,jsons/v1_VE250_randls_74_rotated.json,http://54.235.29.9/FacialAge/BNav_EC2/DepthDuration/v2_depth_duration_MTurk/v2_DepthDuration_HTML.html#140,140,1366,657,1366,768,8-20-2022,19-3-31,70,depth_duration_stimuli/002570_2014-06-24_13-59-54_094959634447_rgbf000059-resize_0/002570_2014-06-24_13-59-54_094959634447_rgbf000059-resize_0-target.png,250,4.037,1.0,2108,250,meters,jsons/v1_VE250_randls_74_rotated.json,707905,1054797,31,Man
70,789991,DepthScenes,duration_manipulation_targetAtFixation,jsons/v1_VE250_randls_74_rotated.json,http://54.235.29.9/FacialAge/BNav_EC2/DepthDuration/v2_depth_duration_MTurk/v2_DepthDuration_HTML.html#140,140,1366,657,1366,768,8-20-2022,19-3-31,71,depth_duration_stimuli/000780_2014-06-08_22-28-29_260595134347_rgbf000126-resize_1/000780_2014-06-08_22-28-29_260595134347_rgbf000126-resize_1-target.png,250,3.3825,2.0,2475,248,meters,jsons/v1_VE250_randls_74_rotated.json,707905,1054797,31,Man
71,789991,DepthScenes,duration_manipulation_targetAtFixation,jsons/v1_VE250_randls_74_rotated.json,http://54.235.29.9/FacialAge/BNav_EC2/DepthDuration/v2_depth_duration_MTurk/v2_DepthDuration_HTML.html#140,140,1366,657,1366,768,8-20-2022,19-3-31,72,depth_duration_stimuli/002445_2014-06-28_20-32-16_260595134347_rgbf000029-resize_4/002445_2014-06-28_20-32-16_260595134347_rgbf000029-resize_4-target.png,250,2.5315,2.0,2318,299,meters,jsons/v1_VE250_randls_74_rotated.json,707905,1054797,31,Man
72,789991,DepthScenes,duration_manipulation_targetAtFixation,jsons/v1_VE250_randls_74_rotated.json,http://54.235.29.9/FacialAge/BNav_EC2/DepthDuration/v2_depth_duration_MTurk/v2_DepthDuration_HTML.html#140,140,1366,657,1366,768,8-20-2022,19-3-31,73,depth_duration_stimuli/001447_2014-06-19_17-00-32_260595134347_rgbf000082-resize_5/001447_2014-06-19_17-00-32_260595134347_rgbf000082-resize_5-target.png,250,4.13775,1.0,2523,272,meters,jsons/v1_VE250_randls_74_rotated.json,707905,1054797,31,Man
73,789991,DepthScenes,duration_manipulation_targetAtFixation,jsons/v1_VE250_randls_74_rotated.json,http://54.235.29.9/FacialAge/BNav_EC2/DepthDuration/v2_depth_duration_MTurk/v2_DepthDuration_HTML.html#140,140,1366,657,1366,768,8-20-2022,19-3-31,74,depth_duration_stimuli/000447_2014-06-08_16-15-46_260595134347_rgbf000130-resize_1/000447_2014-06-08_16-15-46_260595134347_rgbf000130-resize_1-target.png,250,4.479,1.0,2433,250,meters,jsons/v1_VE250_randls_74_rotated.json,707905,1054797,31,Man
74,789991,DepthScenes,duration_manipulation_targetAtFixation,jsons/v1_VE250_randls_74_rotated.json,http://54.235.29.9/FacialAge/BNav_EC2/DepthDuration/v2_depth_duration_MTurk/v2_DepthDuration_HTML.html#140,140,1366,657,1366,768,8-20-2022,19-3-31,75,depth_duration_stimuli/000103_2014-05-14_22-01-17_260595134347_rgbf000152-resize_5/000103_2014-05-14_22-01-17_260595134347_rgbf000152-resize_5-target.png,250,1.993,2.0,2285,250,meters,jsons/v1_VE250_randls_74_rotated.json,707905,1054797,31,Man
75,789991,DepthScenes,duration_manipulation_targetAtFixation,jsons/v1_VE250_randls_74_rotated.json,http://54.235.29.9/FacialAge/BNav_EC2/DepthDuration/v2_depth_duration_MTurk/v2_DepthDuration_HTML.html#140,140,1366,657,1366,768,8-20-2022,19-3-31,76,depth_duration_stimuli/001555_2014-06-20_17-12-10_260595134347_rgbf000065-resize_4/001555_2014-06-20_17-12-10_260595134347_rgbf000065-resize_4-target.png,250,1.633,1.0,2547,250,meters,jsons/v1_VE250_randls_74_rotated.json,707905,1054797,31,Man
76,789991,DepthScenes,duration_manipulation_targetAtFixation,jsons/v1_VE250_randls_74_rotated.json,http://54.235.29.9/FacialAge/BNav_EC2/DepthDuration/v2_depth_duration_MTurk/v2_DepthDuration_HTML.html#140,140,1366,657,1366,768,8-20-2022,19-3-31,77,depth_duration_stimuli/001100_2014-06-15_17-46-26_260595134347_rgbf000225-resize_2/001100_2014-06-15_17-46-26_260595134347_rgbf000225-resize_2-target.png,250,2.24,1.0,2247,247,meters,jsons/v1_VE250_randls_74_rotated.json,707905,1054797,31,Man
77,789991,DepthScenes,duration_manipulation_targetAtFixation,jsons/v1_VE250_randls_74_rotated.json,http://54.235.29.9/FacialAge/BNav_EC2/DepthDuration/v2_depth_duration_MTurk/v2_DepthDuration_HTML.html#140,140,1366,657,1366,768,8-20-2022,19-3-31,78,depth_duration_stimuli/002784_2014-06-22_19-26-30_094959634447_rgbf000083-resize_3/002784_2014-06-22_19-26-30_094959634447_rgbf000083-resize_3-target.png,250,1.8046666666667,1.0,2562,249,meters,jsons/v1_VE250_randls_74_rotated.json,707905,1054797,31,Man
78,789991,DepthScenes,duration_manipulation_targetAtFixation,jsons/v1_VE250_randls_74_rotated.json,http://54.235.29.9/FacialAge/BNav_EC2/DepthDuration/v2_depth_duration_MTurk/v2_DepthDuration_HTML.html#140,140,1366,657,1366,768,8-20-2022,19-3-31,79,depth_duration_stimuli/001032_2014-06-08_13-23-17_260595134347_rgbf000021-resize_3/001032_2014-06-08_13-23-17_260595134347_rgbf000021-resize_3-target.png,250,3.2725,1.0,81904,249,meters,jsons/v1_VE250_randls_74_rotated.json,707905,1054797,31,Man
79,789991,DepthScenes,duration_manipulation_targetAtFixation,jsons/v1_VE250_randls_74_rotated.json,http://54.235.29.9/FacialAge/BNav_EC2/DepthDuration/v2_depth_duration_MTurk/v2_DepthDuration_HTML.html#140,140,1366,657,1366,768,8-20-2022,19-3-31,80,depth_duration_stimuli/001059_2014-06-08_21-53-27_260595134347_rgbf000061-resize_4/001059_2014-06-08_21-53-27_260595134347_rgbf000061-resize_4-target.png,250,2.4185,1.0,3367,250,meters,jsons/v1_VE250_randls_74_rotated.json,707905,1054797,31,Man
80,789991,DepthScenes,duration_manipulation_targetAtFixation,jsons/v1_VE250_randls_74_rotated.json,http://54.235.29.9/FacialAge/BNav_EC2/DepthDuration/v2_depth_duration_MTurk/v2_DepthDuration_HTML.html#140,140,1366,657,1366,768,8-20-2022,19-3-31,81,depth_duration_stimuli/002805_2014-06-22_19-54-03_094959634447_rgbf000079-resize_1/002805_2014-06-22_19-54-03_094959634447_rgbf000079-resize_1-target.png,250,3.1439999999999997,1.0,3958,0,meters,jsons/v1_VE250_randls_74_rotated.json,707905,1054797,31,Man
81,789991,DepthScenes,duration_manipulation_targetAtFixation,jsons/v1_VE250_randls_74_rotated.json,http://54.235.29.9/FacialAge/BNav_EC2/DepthDuration/v2_depth_duration_MTurk/v2_DepthDuration_HTML.html#140,140,1366,657,1366,768,8-20-2022,19-3-31,82,depth_duration_stimuli/000906_2014-06-08_13-35-43_260595134347_rgbf000155-resize_1/000906_2014-06-08_13-35-43_260595134347_rgbf000155-resize_1-target.png,250,2.8489999999999998,1.0,3895,251,meters,jsons/v1_VE250_randls_74_rotated.json,707905,1054797,31,Man
82,789991,DepthScenes,duration_manipulation_targetAtFixation,jsons/v1_VE250_randls_74_rotated.json,http://54.235.29.9/FacialAge/BNav_EC2/DepthDuration/v2_depth_duration_MTurk/v2_DepthDuration_HTML.html#140,140,1366,657,1366,768,8-20-2022,19-3-31,83,depth_duration_stimuli/000927_2014-06-09_16-32-30_260595134347_rgbf000123-resize_3/000927_2014-06-09_16-32-30_260595134347_rgbf000123-resize_3-target.png,250,2.6785,1.0,7727,230,meters,jsons/v1_VE250_randls_74_rotated.json,707905,1054797,31,Man
83,789991,DepthScenes,duration_manipulation_targetAtFixation,jsons/v1_VE250_randls_74_rotated.json,http://54.235.29.9/FacialAge/BNav_EC2/DepthDuration/v2_depth_duration_MTurk/v2_DepthDuration_HTML.html#140,140,1366,657,1366,768,8-20-2022,19-3-31,84,depth_duration_stimuli/001110_2014-06-15_17-25-28_260595134347_rgbf000150-resize_1/001110_2014-06-15_17-25-28_260595134347_rgbf000150-resize_1-target.png,250,1.7115,1.0,2950,248,meters,jsons/v1_VE250_randls_74_rotated.json,707905,1054797,31,Man
84,789991,DepthScenes,duration_manipulation_targetAtFixation,jsons/v1_VE250_randls_74_rotated.json,http://54.235.29.9/FacialAge/BNav_EC2/DepthDuration/v2_depth_duration_MTurk/v2_DepthDuration_HTML.html#140,140,1366,657,1366,768,8-20-2022,19-3-31,85,depth_duration_stimuli/002103_2014-06-25_20-00-40_260595134347_rgbf000049-resize_0/002103_2014-06-25_20-00-40_260595134347_rgbf000049-resize_0-target.png,250,4.105,1.0,4104,226,meters,jsons/v1_VE250_randls_74_rotated.json,707905,1054797,31,Man
85,789991,DepthScenes,duration_manipulation_targetAtFixation,jsons/v1_VE250_randls_74_rotated.json,http://54.235.29.9/FacialAge/BNav_EC2/DepthDuration/v2_depth_duration_MTurk/v2_DepthDuration_HTML.html#140,140,1366,657,1366,768,8-20-2022,19-3-31,86,depth_duration_stimuli/002039_2014-06-24_20-22-38_260595134347_rgbf000084-resize_1/002039_2014-06-24_20-22-38_260595134347_rgbf000084-resize_1-target.png,250,4.408,1.0,2769,250,meters,jsons/v1_VE250_randls_74_rotated.json,707905,1054797,31,Man
86,789991,DepthScenes,duration_manipulation_targetAtFixation,jsons/v1_VE250_randls_74_rotated.json,http://54.235.29.9/FacialAge/BNav_EC2/DepthDuration/v2_depth_duration_MTurk/v2_DepthDuration_HTML.html#140,140,1366,657,1366,768,8-20-2022,19-3-31,87,depth_duration_stimuli/003338_2014-05-20_11-01-23_094959634447_rgbf000051-resize_6/003338_2014-05-20_11-01-23_094959634447_rgbf000051-resize_6-target.png,250,1.693,1.0,2357,250,meters,jsons/v1_VE250_randls_74_rotated.json,707905,1054797,31,Man
87,789991,DepthScenes,duration_manipulation_targetAtFixation,jsons/v1_VE250_randls_74_rotated.json,http://54.235.29.9/FacialAge/BNav_EC2/DepthDuration/v2_depth_duration_MTurk/v2_DepthDuration_HTML.html#140,140,1366,657,1366,768,8-20-2022,19-3-31,88,depth_duration_stimuli/002509_2014-06-24_13-19-22_094959634447_rgbf000077-resize_0/002509_2014-06-24_13-19-22_094959634447_rgbf000077-resize_0-target.png,250,1.3065,1.0,2147,250,meters,jsons/v1_VE250_randls_74_rotated.json,707905,1054797,31,Man
88,789991,DepthScenes,duration_manipulation_targetAtFixation,jsons/v1_VE250_randls_74_rotated.json,http://54.235.29.9/FacialAge/BNav_EC2/DepthDuration/v2_depth_duration_MTurk/v2_DepthDuration_HTML.html#140,140,1366,657,1366,768,8-20-2022,19-3-31,89,depth_duration_stimuli/002995_2014-06-15_12-31-26_094959634447_rgbf000150-resize_1/002995_2014-06-15_12-31-26_094959634447_rgbf000150-resize_1-target.png,250,3.8360000000000003,1.0,2787,243,meters,jsons/v1_VE250_randls_74_rotated.json,707905,1054797,31,Man
89,789991,DepthScenes,duration_manipulation_targetAtFixation,jsons/v1_VE250_randls_74_rotated.json,http://54.235.29.9/FacialAge/BNav_EC2/DepthDuration/v2_depth_duration_MTurk/v2_DepthDuration_HTML.html#140,140,1366,657,1366,768,8-20-2022,19-3-31,90,depth_duration_stimuli/002748_2014-06-22_19-07-22_094959634447_rgbf000078-resize_1/002748_2014-06-22_19-07-22_094959634447_rgbf000078-resize_1-target.png,250,4.6705,1.0,2625,250,meters,jsons/v1_VE250_randls_74_rotated.json,707905,1054797,31,Man
90,789991,DepthScenes,duration_manipulation_targetAtFixation,jsons/v1_VE250_randls_74_rotated.json,http://54.235.29.9/FacialAge/BNav_EC2/DepthDuration/v2_depth_duration_MTurk/v2_DepthDuration_HTML.html#140,140,1366,657,1366,768,8-20-2022,19-3-31,91,depth_duration_stimuli/001571_2014-06-20_17-21-32_260595134347_rgbf000089-resize_1/001571_2014-06-20_17-21-32_260595134347_rgbf000089-resize_1-target.png,250,1.86,1.0,2307,250,meters,jsons/v1_VE250_randls_74_rotated.json,707905,1054797,31,Man
91,789991,DepthScenes,duration_manipulation_targetAtFixation,jsons/v1_VE250_randls_74_rotated.json,http://54.235.29.9/FacialAge/BNav_EC2/DepthDuration/v2_depth_duration_MTurk/v2_DepthDuration_HTML.html#140,140,1366,657,1366,768,8-20-2022,19-3-31,92,depth_duration_stimuli/002272_2014-06-28_18-53-56_260595134347_rgbf000067-resize_2/002272_2014-06-28_18-53-56_260595134347_rgbf000067-resize_2-target.png,250,1.138,1.0,2871,250,meters,jsons/v1_VE250_randls_74_rotated.json,707905,1054797,31,Man
92,789991,DepthScenes,duration_manipulation_targetAtFixation,jsons/v1_VE250_randls_74_rotated.json,http://54.235.29.9/FacialAge/BNav_EC2/DepthDuration/v2_depth_duration_MTurk/v2_DepthDuration_HTML.html#140,140,1366,657,1366,768,8-20-2022,19-3-31,93,depth_duration_stimuli/003048_2014-06-15_13-49-43_094959634447_rgbf000150-resize_1/003048_2014-06-15_13-49-43_094959634447_rgbf000150-resize_1-target.png,250,4.0035,2.0,2683,255,meters,jsons/v1_VE250_randls_74_rotated.json,707905,1054797,31,Man
93,789991,DepthScenes,duration_manipulation_targetAtFixation,jsons/v1_VE250_randls_74_rotated.json,http://54.235.29.9/FacialAge/BNav_EC2/DepthDuration/v2_depth_duration_MTurk/v2_DepthDuration_HTML.html#140,140,1366,657,1366,768,8-20-2022,19-3-31,94,depth_duration_stimuli/002043_2014-06-24_20-29-38_260595134347_rgbf000039-resize_4/002043_2014-06-24_20-29-38_260595134347_rgbf000039-resize_4-target.png,250,2.8435,1.0,2357,250,meters,jsons/v1_VE250_randls_74_rotated.json,707905,1054797,31,Man
94,789991,DepthScenes,duration_manipulation_targetAtFixation,jsons/v1_VE250_randls_74_rotated.json,http://54.235.29.9/FacialAge/BNav_EC2/DepthDuration/v2_depth_duration_MTurk/v2_DepthDuration_HTML.html#140,140,1366,657,1366,768,8-20-2022,19-3-31,95,depth_duration_stimuli/000409_2014-06-04_19-23-33_260595134347_rgbf000067-resize_0/000409_2014-06-04_19-23-33_260595134347_rgbf000067-resize_0-target.png,250,3.7335,1.0,3312,250,meters,jsons/v1_VE250_randls_74_rotated.json,707905,1054797,31,Man
95,789991,DepthScenes,duration_manipulation_targetAtFixation,jsons/v1_VE250_randls_74_rotated.json,http://54.235.29.9/FacialAge/BNav_EC2/DepthDuration/v2_depth_duration_MTurk/v2_DepthDuration_HTML.html#140,140,1366,657,1366,768,8-20-2022,19-3-31,96,depth_duration_stimuli/002663_2014-06-13_15-50-26_094959634447_rgbf000075-resize_1/002663_2014-06-13_15-50-26_094959634447_rgbf000075-resize_1-target.png,250,4.7495,1.0,2312,250,meters,jsons/v1_VE250_randls_74_rotated.json,707905,1054797,31,Man
96,789991,DepthScenes,duration_manipulation_targetAtFixation,jsons/v1_VE250_randls_74_rotated.json,http://54.235.29.9/FacialAge/BNav_EC2/DepthDuration/v2_depth_duration_MTurk/v2_DepthDuration_HTML.html#140,140,1366,657,1366,768,8-20-2022,19-3-31,97,depth_duration_stimuli/003587_2014-05-23_16-48-02_094959634447_rgbf002384-resize_2/003587_2014-05-23_16-48-02_094959634447_rgbf002384-resize_2-target.png,250,1.357,1.0,2363,248,meters,jsons/v1_VE250_randls_74_rotated.json,707905,1054797,31,Man
97,789991,DepthScenes,duration_manipulation_targetAtFixation,jsons/v1_VE250_randls_74_rotated.json,http://54.235.29.9/FacialAge/BNav_EC2/DepthDuration/v2_depth_duration_MTurk/v2_DepthDuration_HTML.html#140,140,1366,657,1366,768,8-20-2022,19-3-31,98,depth_duration_stimuli/001167_2014-06-17_15-38-07_260595134347_rgbf000108-resize_0/001167_2014-06-17_15-38-07_260595134347_rgbf000108-resize_0-target.png,250,1.8505,1.0,3201,247,meters,jsons/v1_VE250_randls_74_rotated.json,707905,1054797,31,Man
98,789991,DepthScenes,duration_manipulation_targetAtFixation,jsons/v1_VE250_randls_74_rotated.json,http://54.235.29.9/FacialAge/BNav_EC2/DepthDuration/v2_depth_duration_MTurk/v2_DepthDuration_HTML.html#140,140,1366,657,1366,768,8-20-2022,19-3-31,99,depth_duration_stimuli/001222_2014-06-17_16-24-06_260595134347_rgbf000073-resize_0/001222_2014-06-17_16-24-06_260595134347_rgbf000073-resize-original.jpg,250,1.4385,0.0,3267,250,meters,jsons/v1_VE250_randls_74_rotated.json,707905,1054797,31,Man
99,789991,DepthScenes,duration_manipulation_targetAtFixation,jsons/v1_VE250_randls_74_rotated.json,http://54.235.29.9/FacialAge/BNav_EC2/DepthDuration/v2_depth_duration_MTurk/v2_DepthDuration_HTML.html#140,140,1366,657,1366,768,8-20-2022,19-3-31,100,depth_duration_stimuli/001617_2014-06-20_11-35-32_260595134347_rgbf000066-resize_1/001617_2014-06-20_11-35-32_260595134347_rgbf000066-resize_1-target.png,250,3.7910000000000004,1.0,2982,249,meters,jsons/v1_VE250_randls_74_rotated.json,707905,1054797,31,Man
100,789991,DepthScenes,duration_manipulation_targetAtFixation,jsons/v1_VE250_randls_74_rotated.json,http://54.235.29.9/FacialAge/BNav_EC2/DepthDuration/v2_depth_duration_MTurk/v2_DepthDuration_HTML.html#140,140,1366,657,1366,768,8-20-2022,19-3-31,101,depth_duration_stimuli/001806_2014-06-26_20-50-20_260595134347_rgbf000091-resize_1/001806_2014-06-26_20-50-20_260595134347_rgbf000091-resize_1-target.png,250,2.7305,0.5,4404,254,meters,jsons/v1_VE250_randls_74_rotated.json,707905,1054797,31,Man
101,789991,DepthScenes,duration_manipulation_targetAtFixation,jsons/v1_VE250_randls_74_rotated.json,http://54.235.29.9/FacialAge/BNav_EC2/DepthDuration/v2_depth_duration_MTurk/v2_DepthDuration_HTML.html#140,140,1366,657,1366,768,8-20-2022,19-3-31,102,depth_duration_stimuli/000502_2014-06-08_23-02-32_260595134347_rgbf000063-resize_4/000502_2014-06-08_23-02-32_260595134347_rgbf000063-resize_4-target.png,250,2.431,0.6,4851,249,meters,jsons/v1_VE250_randls_74_rotated.json,707905,1054797,31,Man
102,789991,DepthScenes,duration_manipulation_targetAtFixation,jsons/v1_VE250_randls_74_rotated.json,http://54.235.29.9/FacialAge/BNav_EC2/DepthDuration/v2_depth_duration_MTurk/v2_DepthDuration_HTML.html#140,140,1366,657,1366,768,8-20-2022,19-3-31,103,depth_duration_stimuli/001199_2014-06-17_16-03-48_260595134347_rgbf000077-resize_0/001199_2014-06-17_16-03-48_260595134347_rgbf000077-resize_0-target.png,250,3.4375,1.0,2609,253,meters,jsons/v1_VE250_randls_74_rotated.json,707905,1054797,31,Man
103,789991,DepthScenes,duration_manipulation_targetAtFixation,jsons/v1_VE250_randls_74_rotated.json,http://54.235.29.9/FacialAge/BNav_EC2/DepthDuration/v2_depth_duration_MTurk/v2_DepthDuration_HTML.html#140,140,1366,657,1366,768,8-20-2022,19-3-31,104,depth_duration_stimuli/000854_2014-06-09_19-43-13_260595134347_rgbf000066-resize_0/000854_2014-06-09_19-43-13_260595134347_rgbf000066-resize_0-target.png,250,3.068,1.0,2581,247,meters,jsons/v1_VE250_randls_74_rotated.json,707905,1054797,31,Man
104,789991,DepthScenes,duration_manipulation_targetAtFixation,jsons/v1_VE250_randls_74_rotated.json,http://54.235.29.9/FacialAge/BNav_EC2/DepthDuration/v2_depth_duration_MTurk/v2_DepthDuration_HTML.html#140,140,1366,657,1366,768,8-20-2022,19-3-31,105,depth_duration_stimuli/000758_2014-06-08_22-05-08_260595134347_rgbf000085-resize_0/000758_2014-06-08_22-05-08_260595134347_rgbf000085-resize_0-target.png,250,3.3810000000000002,1.0,2120,250,meters,jsons/v1_VE250_randls_74_rotated.json,707905,1054797,31,Man
105,789991,DepthScenes,duration_manipulation_targetAtFixation,jsons/v1_VE250_randls_74_rotated.json,http://54.235.29.9/FacialAge/BNav_EC2/DepthDuration/v2_depth_duration_MTurk/v2_DepthDuration_HTML.html#140,140,1366,657,1366,768,8-20-2022,19-3-31,106,depth_duration_stimuli/002875_2014-06-01_15-19-00_094959634447_rgbf000151-resize_1/002875_2014-06-01_15-19-00_094959634447_rgbf000151-resize_1-target.png,250,1.9675,1.0,2620,249,meters,jsons/v1_VE250_randls_74_rotated.json,707905,1054797,31,Man
106,789991,DepthScenes,duration_manipulation_targetAtFixation,jsons/v1_VE250_randls_74_rotated.json,http://54.235.29.9/FacialAge/BNav_EC2/DepthDuration/v2_depth_duration_MTurk/v2_DepthDuration_HTML.html#140,140,1366,657,1366,768,8-20-2022,19-3-31,107,depth_duration_stimuli/001011_2014-06-08_23-18-54_260595134347_rgbf000044-resize_4/001011_2014-06-08_23-18-54_260595134347_rgbf000044-resize_4-target.png,250,2.4730000000000003,1.0,2434,262,meters,jsons/v1_VE250_randls_74_rotated.json,707905,1054797,31,Man
107,789991,DepthScenes,duration_manipulation_targetAtFixation,jsons/v1_VE250_randls_74_rotated.json,http://54.235.29.9/FacialAge/BNav_EC2/DepthDuration/v2_depth_duration_MTurk/v2_DepthDuration_HTML.html#140,140,1366,657,1366,768,8-20-2022,19-3-31,108,depth_duration_stimuli/002340_2014-06-28_20-05-46_260595134347_rgbf000113-resize_0/002340_2014-06-28_20-05-46_260595134347_rgbf000113-resize_0-target.png,250,2.4735,1.5,11614,330,meters,jsons/v1_VE250_randls_74_rotated.json,707905,1054797,31,Man
108,789991,DepthScenes,duration_manipulation_targetAtFixation,jsons/v1_VE250_randls_74_rotated.json,http://54.235.29.9/FacialAge/BNav_EC2/DepthDuration/v2_depth_duration_MTurk/v2_DepthDuration_HTML.html#140,140,1366,657,1366,768,8-20-2022,19-3-31,109,depth_duration_stimuli/001016_2014-06-09_16-16-10_260595134347_rgbf000112-resize_5/001016_2014-06-09_16-16-10_260595134347_rgbf000112-resize_5-target.png,250,1.6565,1.0,2575,242,meters,jsons/v1_VE250_randls_74_rotated.json,707905,1054797,31,Man
109,789991,DepthScenes,duration_manipulation_targetAtFixation,jsons/v1_VE250_randls_74_rotated.json,http://54.235.29.9/FacialAge/BNav_EC2/DepthDuration/v2_depth_duration_MTurk/v2_DepthDuration_HTML.html#140,140,1366,657,1366,768,8-20-2022,19-3-31,110,depth_duration_stimuli/002657_2014-06-13_15-29-54_094959634447_rgbf000150-resize_1/002657_2014-06-13_15-29-54_094959634447_rgbf000150-resize_1-target.png,250,4.919,1.0,2610,248,meters,jsons/v1_VE250_randls_74_rotated.json,707905,1054797,31,Man
110,789991,DepthScenes,duration_manipulation_targetAtFixation,jsons/v1_VE250_randls_74_rotated.json,http://54.235.29.9/FacialAge/BNav_EC2/DepthDuration/v2_depth_duration_MTurk/v2_DepthDuration_HTML.html#140,140,1366,657,1366,768,8-20-2022,19-3-31,111,depth_duration_stimuli/002375_2014-06-28_20-13-44_260595134347_rgbf000032-resize_1/002375_2014-06-28_20-13-44_260595134347_rgbf000032-resize_1-target.png,250,4.0175,1.0,2186,249,meters,jsons/v1_VE250_randls_74_rotated.json,707905,1054797,31,Man
111,789991,DepthScenes,duration_manipulation_targetAtFixation,jsons/v1_VE250_randls_74_rotated.json,http://54.235.29.9/FacialAge/BNav_EC2/DepthDuration/v2_depth_duration_MTurk/v2_DepthDuration_HTML.html#140,140,1366,657,1366,768,8-20-2022,19-3-31,112,depth_duration_stimuli/002953_2014-06-08_17-32-18_094959634447_rgbf000059-resize_5/002953_2014-06-08_17-32-18_094959634447_rgbf000059-resize_5-target.png,250,1.551,1.0,2259,210,meters,jsons/v1_VE250_randls_74_rotated.json,707905,1054797,31,Man
112,789991,DepthScenes,duration_manipulation_targetAtFixation,jsons/v1_VE250_randls_74_rotated.json,http://54.235.29.9/FacialAge/BNav_EC2/DepthDuration/v2_depth_duration_MTurk/v2_DepthDuration_HTML.html#140,140,1366,657,1366,768,8-20-2022,19-3-31,113,depth_duration_stimuli/000878_2014-06-08_22-52-45_260595134347_rgbf000045-resize_2/000878_2014-06-08_22-52-45_260595134347_rgbf000045-resize_2-target.png,250,2.092,2.0,3497,251,meters,jsons/v1_VE250_randls_74_rotated.json,707905,1054797,31,Man
113,789991,DepthScenes,duration_manipulation_targetAtFixation,jsons/v1_VE250_randls_74_rotated.json,http://54.235.29.9/FacialAge/BNav_EC2/DepthDuration/v2_depth_duration_MTurk/v2_DepthDuration_HTML.html#140,140,1366,657,1366,768,8-20-2022,19-3-31,114,depth_duration_stimuli/000137_2014-05-20_17-04-49_260595134347_rgbf000120-resize_1/000137_2014-05-20_17-04-49_260595134347_rgbf000120-resize_1-target.png,250,3.786,1.0,2550,250,meters,jsons/v1_VE250_randls_74_rotated.json,707905,1054797,31,Man
114,789991,DepthScenes,duration_manipulation_targetAtFixation,jsons/v1_VE250_randls_74_rotated.json,http://54.235.29.9/FacialAge/BNav_EC2/DepthDuration/v2_depth_duration_MTurk/v2_DepthDuration_HTML.html#140,140,1366,657,1366,768,8-20-2022,19-3-31,115,depth_duration_stimuli/000736_2014-06-08_18-24-15_260595134347_rgbf000206-resize_3/000736_2014-06-08_18-24-15_260595134347_rgbf000206-resize_3-target.png,250,3.515,1.0,3049,244,meters,jsons/v1_VE250_randls_74_rotated.json,707905,1054797,31,Man
115,789991,DepthScenes,duration_manipulation_targetAtFixation,jsons/v1_VE250_randls_74_rotated.json,http://54.235.29.9/FacialAge/BNav_EC2/DepthDuration/v2_depth_duration_MTurk/v2_DepthDuration_HTML.html#140,140,1366,657,1366,768,8-20-2022,19-3-31,116,depth_duration_stimuli/000709_2014-06-08_13-51-55_260595134347_rgbf000068-resize_3/000709_2014-06-08_13-51-55_260595134347_rgbf000068-resize_3-target.png,250,1.8030000000000002,2.0,3009,250,meters,jsons/v1_VE250_randls_74_rotated.json,707905,1054797,31,Man
116,789991,DepthScenes,duration_manipulation_targetAtFixation,jsons/v1_VE250_randls_74_rotated.json,http://54.235.29.9/FacialAge/BNav_EC2/DepthDuration/v2_depth_duration_MTurk/v2_DepthDuration_HTML.html#140,140,1366,657,1366,768,8-20-2022,19-3-31,117,depth_duration_stimuli/002057_2014-06-24_21-00-13_260595134347_rgbf000120-resize_1/002057_2014-06-24_21-00-13_260595134347_rgbf000120-resize_1-target.png,250,2.967,1.0,3076,249,meters,jsons/v1_VE250_randls_74_rotated.json,707905,1054797,31,Man
117,789991,DepthScenes,duration_manipulation_targetAtFixation,jsons/v1_VE250_randls_74_rotated.json,http://54.235.29.9/FacialAge/BNav_EC2/DepthDuration/v2_depth_duration_MTurk/v2_DepthDuration_HTML.html#140,140,1366,657,1366,768,8-20-2022,19-3-31,118,depth_duration_stimuli/000665_2014-06-09_20-42-35_260595134347_rgbf000110-resize_1/000665_2014-06-09_20-42-35_260595134347_rgbf000110-resize_1-target.png,250,3.057,1.0,2521,292,meters,jsons/v1_VE250_randls_74_rotated.json,707905,1054797,31,Man
118,789991,DepthScenes,duration_manipulation_targetAtFixation,jsons/v1_VE250_randls_74_rotated.json,http://54.235.29.9/FacialAge/BNav_EC2/DepthDuration/v2_depth_duration_MTurk/v2_DepthDuration_HTML.html#140,140,1366,657,1366,768,8-20-2022,19-3-31,119,depth_duration_stimuli/001150_2014-06-17_15-27-34_260595134347_rgbf000108-resize_2/001150_2014-06-17_15-27-34_260595134347_rgbf000108-resize_2-target.png,250,4.0325,1.0,2529,259,meters,jsons/v1_VE250_randls_74_rotated.json,707905,1054797,31,Man
119,789991,DepthScenes,duration_manipulation_targetAtFixation,jsons/v1_VE250_randls_74_rotated.json,http://54.235.29.9/FacialAge/BNav_EC2/DepthDuration/v2_depth_duration_MTurk/v2_DepthDuration_HTML.html#140,140,1366,657,1366,768,8-20-2022,19-3-31,120,depth_duration_stimuli/000787_2014-06-08_22-33-53_260595134347_rgbf000175-resize_1/000787_2014-06-08_22-33-53_260595134347_rgbf000175-resize-original.jpg,250,4.784,0.0,3252,239,meters,jsons/v1_VE250_randls_74_rotated.json,707905,1054797,31,Man
120,789991,DepthScenes,duration_manipulation_targetAtFixation,jsons/v1_VE250_randls_74_rotated.json,http://54.235.29.9/FacialAge/BNav_EC2/DepthDuration/v2_depth_duration_MTurk/v2_DepthDuration_HTML.html#140,140,1366,657,1366,768,8-20-2022,19-3-31,121,depth_duration_stimuli/003490_2014-05-21_15-50-11_094959634447_rgbf000101-resize_3/003490_2014-05-21_15-50-11_094959634447_rgbf000101-resize_3-target.png,250,3.6445,1.0,3154,160,meters,jsons/v1_VE250_randls_74_rotated.json,707905,1054797,31,Man
121,789991,DepthScenes,duration_manipulation_targetAtFixation,jsons/v1_VE250_randls_74_rotated.json,http://54.235.29.9/FacialAge/BNav_EC2/DepthDuration/v2_depth_duration_MTurk/v2_DepthDuration_HTML.html#140,140,1366,657,1366,768,8-20-2022,19-3-31,122,depth_duration_stimuli/001175_2014-06-17_15-45-55_260595134347_rgbf000129-resize_4/001175_2014-06-17_15-45-55_260595134347_rgbf000129-resize_4-target.png,250,4.255,1.0,2119,271,meters,jsons/v1_VE250_randls_74_rotated.json,707905,1054797,31,Man
122,789991,DepthScenes,duration_manipulation_targetAtFixation,jsons/v1_VE250_randls_74_rotated.json,http://54.235.29.9/FacialAge/BNav_EC2/DepthDuration/v2_depth_duration_MTurk/v2_DepthDuration_HTML.html#140,140,1366,657,1366,768,8-20-2022,19-3-31,123,depth_duration_stimuli/000742_2014-06-08_18-48-09_260595134347_rgbf000164-resize_4/000742_2014-06-08_18-48-09_260595134347_rgbf000164-resize_4-target.png,250,4.632,1.0,2180,244,meters,jsons/v1_VE250_randls_74_rotated.json,707905,1054797,31,Man
123,789991,DepthScenes,duration_manipulation_targetAtFixation,jsons/v1_VE250_randls_74_rotated.json,http://54.235.29.9/FacialAge/BNav_EC2/DepthDuration/v2_depth_duration_MTurk/v2_DepthDuration_HTML.html#140,140,1366,657,1366,768,8-20-2022,19-3-31,124,depth_duration_stimuli/001066_2014-06-08_22-03-20_260595134347_rgbf000066-resize_4/001066_2014-06-08_22-03-20_260595134347_rgbf000066-resize_4-target.png,250,4.2330000000000005,1.0,2512,221,meters,jsons/v1_VE250_randls_74_rotated.json,707905,1054797,31,Man
124,789991,DepthScenes,duration_manipulation_targetAtFixation,jsons/v1_VE250_randls_74_rotated.json,http://54.235.29.9/FacialAge/BNav_EC2/DepthDuration/v2_depth_duration_MTurk/v2_DepthDuration_HTML.html#140,140,1366,657,1366,768,8-20-2022,19-3-31,125,depth_duration_stimuli/000677_2014-06-08_23-10-32_260595134347_rgbf000158-resize_6/000677_2014-06-08_23-10-32_260595134347_rgbf000158-resize_6-target.png,250,3.556,1.0,2148,269,meters,jsons/v1_VE250_randls_74_rotated.json,707905,1054797,31,Man
125,789991,DepthScenes,duration_manipulation_targetAtFixation,jsons/v1_VE250_randls_74_rotated.json,http://54.235.29.9/FacialAge/BNav_EC2/DepthDuration/v2_depth_duration_MTurk/v2_DepthDuration_HTML.html#140,140,1366,657,1366,768,8-20-2022,19-3-31,126,depth_duration_stimuli/001029_2014-06-08_13-17-57_260595134347_rgbf000065-resize_1/001029_2014-06-08_13-17-57_260595134347_rgbf000065-resize_1-target.png,250,3.0835,1.0,2639,245,meters,jsons/v1_VE250_randls_74_rotated.json,707905,1054797,31,Man
126,789991,DepthScenes,duration_manipulation_targetAtFixation,jsons/v1_VE250_randls_74_rotated.json,http://54.235.29.9/FacialAge/BNav_EC2/DepthDuration/v2_depth_duration_MTurk/v2_DepthDuration_HTML.html#140,140,1366,657,1366,768,8-20-2022,19-3-31,127,depth_duration_stimuli/003083_2014-06-15_15-21-03_094959634447_rgbf000063-resize_1/003083_2014-06-15_15-21-03_094959634447_rgbf000063-resize_1-target.png,250,4.1405,1.0,3089,201,meters,jsons/v1_VE250_randls_74_rotated.json,707905,1054797,31,Man
127,789991,DepthScenes,duration_manipulation_targetAtFixation,jsons/v1_VE250_randls_74_rotated.json,http://54.235.29.9/FacialAge/BNav_EC2/DepthDuration/v2_depth_duration_MTurk/v2_DepthDuration_HTML.html#140,140,1366,657,1366,768,8-20-2022,19-3-31,128,depth_duration_stimuli/000486_2014-06-09_20-47-20_260595134347_rgbf000143-resize_2/000486_2014-06-09_20-47-20_260595134347_rgbf000143-resize_2-target.png,250,4.8325,1.0,2189,249,meters,jsons/v1_VE250_randls_74_rotated.json,707905,1054797,31,Man
128,789991,DepthScenes,duration_manipulation_targetAtFixation,jsons/v1_VE250_randls_74_rotated.json,http://54.235.29.9/FacialAge/BNav_EC2/DepthDuration/v2_depth_duration_MTurk/v2_DepthDuration_HTML.html#140,140,1366,657,1366,768,8-20-2022,19-3-31,129,depth_duration_stimuli/003228_2014-05-14_13-42-35_094959634447_rgbf000101-resize_1/003228_2014-05-14_13-42-35_094959634447_rgbf000101-resize_1-target.png,250,1.9680000000000002,0.5,4628,240,meters,jsons/v1_VE250_randls_74_rotated.json,707905,1054797,31,Man
129,789991,DepthScenes,duration_manipulation_targetAtFixation,jsons/v1_VE250_randls_74_rotated.json,http://54.235.29.9/FacialAge/BNav_EC2/DepthDuration/v2_depth_duration_MTurk/v2_DepthDuration_HTML.html#140,140,1366,657,1366,768,8-20-2022,19-3-31,130,depth_duration_stimuli/002600_2014-06-24_14-27-04_094959634447_rgbf000074-resize_2/002600_2014-06-24_14-27-04_094959634447_rgbf000074-resize_2-target.png,250,2.7575,0.3,4076,314,meters,jsons/v1_VE250_randls_74_rotated.json,707905,1054797,31,Man
130,789991,DepthScenes,duration_manipulation_targetAtFixation,jsons/v1_VE250_randls_74_rotated.json,http://54.235.29.9/FacialAge/BNav_EC2/DepthDuration/v2_depth_duration_MTurk/v2_DepthDuration_HTML.html#140,140,1366,657,1366,768,8-20-2022,19-3-31,131,depth_duration_stimuli/000734_2014-06-08_17-39-11_260595134347_rgbf000128-resize_2/000734_2014-06-08_17-39-11_260595134347_rgbf000128-resize_2-target.png,250,4.098,1.0,2518,215,meters,jsons/v1_VE250_randls_74_rotated.json,707905,1054797,31,Man
131,789991,DepthScenes,duration_manipulation_targetAtFixation,jsons/v1_VE250_randls_74_rotated.json,http://54.235.29.9/FacialAge/BNav_EC2/DepthDuration/v2_depth_duration_MTurk/v2_DepthDuration_HTML.html#140,140,1366,657,1366,768,8-20-2022,19-3-31,132,depth_duration_stimuli/000739_2014-06-08_18-45-58_260595134347_rgbf000068-resize_1/000739_2014-06-08_18-45-58_260595134347_rgbf000068-resize_1-target.png,250,3.534,1.0,2504,250,meters,jsons/v1_VE250_randls_74_rotated.json,707905,1054797,31,Man
132,789991,DepthScenes,duration_manipulation_targetAtFixation,jsons/v1_VE250_randls_74_rotated.json,http://54.235.29.9/FacialAge/BNav_EC2/DepthDuration/v2_depth_duration_MTurk/v2_DepthDuration_HTML.html#140,140,1366,657,1366,768,8-20-2022,19-3-31,133,depth_duration_stimuli/003010_2014-06-15_12-54-35_094959634447_rgbf000112-resize_0/003010_2014-06-15_12-54-35_094959634447_rgbf000112-resize_0-target.png,250,3.1185,1.0,2520,250,meters,jsons/v1_VE250_randls_74_rotated.json,707905,1054797,31,Man
133,789991,DepthScenes,duration_manipulation_targetAtFixation,jsons/v1_VE250_randls_74_rotated.json,http://54.235.29.9/FacialAge/BNav_EC2/DepthDuration/v2_depth_duration_MTurk/v2_DepthDuration_HTML.html#140,140,1366,657,1366,768,8-20-2022,19-3-31,134,depth_duration_stimuli/001810_2014-06-26_20-51-35_260595134347_rgbf000040-resize_3/001810_2014-06-26_20-51-35_260595134347_rgbf000040-resize_3-target.png,250,2.2525,1.0,3242,271,meters,jsons/v1_VE250_randls_74_rotated.json,707905,1054797,31,Man
134,789991,DepthScenes,duration_manipulation_targetAtFixation,jsons/v1_VE250_randls_74_rotated.json,http://54.235.29.9/FacialAge/BNav_EC2/DepthDuration/v2_depth_duration_MTurk/v2_DepthDuration_HTML.html#140,140,1366,657,1366,768,8-20-2022,19-3-31,135,depth_duration_stimuli/000375_2014-06-08_11-17-29_260595134347_rgbf000133-resize_2/000375_2014-06-08_11-17-29_260595134347_rgbf000133-resize-original.jpg,250,4.718,0.0,2947,251,meters,jsons/v1_VE250_randls_74_rotated.json,707905,1054797,31,Man
135,789991,DepthScenes,duration_manipulation_targetAtFixation,jsons/v1_VE250_randls_74_rotated.json,http://54.235.29.9/FacialAge/BNav_EC2/DepthDuration/v2_depth_duration_MTurk/v2_DepthDuration_HTML.html#140,140,1366,657,1366,768,8-20-2022,19-3-31,136,depth_duration_stimuli/001584_2014-06-20_11-07-43_260595134347_rgbf000002-resize_1/001584_2014-06-20_11-07-43_260595134347_rgbf000002-resize_1-target.png,250,3.53,2.0,2580,250,meters,jsons/v1_VE250_randls_74_rotated.json,707905,1054797,31,Man
136,789991,DepthScenes,duration_manipulation_targetAtFixation,jsons/v1_VE250_randls_74_rotated.json,http://54.235.29.9/FacialAge/BNav_EC2/DepthDuration/v2_depth_duration_MTurk/v2_DepthDuration_HTML.html#140,140,1366,657,1366,768,8-20-2022,19-3-31,137,depth_duration_stimuli/003621_2014-05-23_18-06-08_094959634447_rgbf000101-resize_1/003621_2014-05-23_18-06-08_094959634447_rgbf000101-resize_1-target.png,250,3.9835,1.0,2220,264,meters,jsons/v1_VE250_randls_74_rotated.json,707905,1054797,31,Man
137,789991,DepthScenes,duration_manipulation_targetAtFixation,jsons/v1_VE250_randls_74_rotated.json,http://54.235.29.9/FacialAge/BNav_EC2/DepthDuration/v2_depth_duration_MTurk/v2_DepthDuration_HTML.html#140,140,1366,657,1366,768,8-20-2022,19-3-31,138,depth_duration_stimuli/001392_2014-06-19_16-07-59_260595134347_rgbf000046-resize_1/001392_2014-06-19_16-07-59_260595134347_rgbf000046-resize_1-target.png,250,4.135,1.0,3115,249,meters,jsons/v1_VE250_randls_74_rotated.json,707905,1054797,31,Man
138,789991,DepthScenes,duration_manipulation_targetAtFixation,jsons/v1_VE250_randls_74_rotated.json,http://54.235.29.9/FacialAge/BNav_EC2/DepthDuration/v2_depth_duration_MTurk/v2_DepthDuration_HTML.html#140,140,1366,657,1366,768,8-20-2022,19-3-31,139,depth_duration_stimuli/001570_2014-06-20_17-21-09_260595134347_rgbf000135-resize_4/001570_2014-06-20_17-21-09_260595134347_rgbf000135-resize_4-target.png,250,4.467,0.0,4994,225,meters,jsons/v1_VE250_randls_74_rotated.json,707905,1054797,31,Man
139,789991,DepthScenes,duration_manipulation_targetAtFixation,jsons/v1_VE250_randls_74_rotated.json,http://54.235.29.9/FacialAge/BNav_EC2/DepthDuration/v2_depth_duration_MTurk/v2_DepthDuration_HTML.html#140,140,1366,657,1366,768,8-20-2022,19-3-31,140,depth_duration_stimuli/003081_2014-06-15_15-19-16_094959634447_rgbf000150-resize_1/003081_2014-06-15_15-19-16_094959634447_rgbf000150-resize_1-target.png,250,3.9125,1.0,3071,248,meters,jsons/v1_VE250_randls_74_rotated.json,707905,1054797,31,Man
140,789991,DepthScenes,duration_manipulation_targetAtFixation,jsons/v1_VE250_randls_74_rotated.json,http://54.235.29.9/FacialAge/BNav_EC2/DepthDuration/v2_depth_duration_MTurk/v2_DepthDuration_HTML.html#140,140,1366,657,1366,768,8-20-2022,19-3-31,141,depth_duration_stimuli/001417_2014-06-19_16-25-36_260595134347_rgbf000115-resize_5/001417_2014-06-19_16-25-36_260595134347_rgbf000115-resize_5-target.png,250,4.6255,1.0,2216,273,meters,jsons/v1_VE250_randls_74_rotated.json,707905,1054797,31,Man
141,789991,DepthScenes,duration_manipulation_targetAtFixation,jsons/v1_VE250_randls_74_rotated.json,http://54.235.29.9/FacialAge/BNav_EC2/DepthDuration/v2_depth_duration_MTurk/v2_DepthDuration_HTML.html#140,140,1366,657,1366,768,8-20-2022,19-3-31,142,depth_duration_stimuli/001650_2014-06-20_12-09-00_260595134347_rgbf000087-resize_3/001650_2014-06-20_12-09-00_260595134347_rgbf000087-resize_3-target.png,250,1.9505,1.0,2407,249,meters,jsons/v1_VE250_randls_74_rotated.json,707905,1054797,31,Man
142,789991,DepthScenes,duration_manipulation_targetAtFixation,jsons/v1_VE250_randls_74_rotated.json,http://54.235.29.9/FacialAge/BNav_EC2/DepthDuration/v2_depth_duration_MTurk/v2_DepthDuration_HTML.html#140,140,1366,657,1366,768,8-20-2022,19-3-31,143,depth_duration_stimuli/000682_2014-06-08_23-14-58_260595134347_rgbf000041-resize_5/000682_2014-06-08_23-14-58_260595134347_rgbf000041-resize_5-target.png,250,2.7239999999999998,1.0,2245,249,meters,jsons/v1_VE250_randls_74_rotated.json,707905,1054797,31,Man
143,789991,DepthScenes,duration_manipulation_targetAtFixation,jsons/v1_VE250_randls_74_rotated.json,http://54.235.29.9/FacialAge/BNav_EC2/DepthDuration/v2_depth_duration_MTurk/v2_DepthDuration_HTML.html#140,140,1366,657,1366,768,8-20-2022,19-3-31,144,depth_duration_stimuli/000943_2014-06-09_19-31-07_260595134347_rgbf000128-resize_1/000943_2014-06-09_19-31-07_260595134347_rgbf000128-resize_1-target.png,250,1.9765,1.0,2279,249,meters,jsons/v1_VE250_randls_74_rotated.json,707905,1054797,31,Man
144,789991,DepthScenes,duration_manipulation_targetAtFixation,jsons/v1_VE250_randls_74_rotated.json,http://54.235.29.9/FacialAge/BNav_EC2/DepthDuration/v2_depth_duration_MTurk/v2_DepthDuration_HTML.html#140,140,1366,657,1366,768,8-20-2022,19-3-31,145,depth_duration_stimuli/003070_2014-06-15_14-58-27_094959634447_rgbf000150-resize_3/003070_2014-06-15_14-58-27_094959634447_rgbf000150-resize_3-target.png,250,2.9415,0.0,4589,250,meters,jsons/v1_VE250_randls_74_rotated.json,707905,1054797,31,Man
145,789991,DepthScenes,duration_manipulation_targetAtFixation,jsons/v1_VE250_randls_74_rotated.json,http://54.235.29.9/FacialAge/BNav_EC2/DepthDuration/v2_depth_duration_MTurk/v2_DepthDuration_HTML.html#140,140,1366,657,1366,768,8-20-2022,19-3-31,146,depth_duration_stimuli/000866_2014-06-09_20-45-42_260595134347_rgbf000139-resize_1/000866_2014-06-09_20-45-42_260595134347_rgbf000139-resize_1-target.png,250,3.2155,2.0,2592,251,meters,jsons/v1_VE250_randls_74_rotated.json,707905,1054797,31,Man
146,789991,DepthScenes,duration_manipulation_targetAtFixation,jsons/v1_VE250_randls_74_rotated.json,http://54.235.29.9/FacialAge/BNav_EC2/DepthDuration/v2_depth_duration_MTurk/v2_DepthDuration_HTML.html#140,140,1366,657,1366,768,8-20-2022,19-3-31,147,depth_duration_stimuli/002989_2014-06-15_12-25-03_094959634447_rgbf000150-resize_3/002989_2014-06-15_12-25-03_094959634447_rgbf000150-resize_3-target.png,250,4.1975,2.0,3720,250,meters,jsons/v1_VE250_randls_74_rotated.json,707905,1054797,31,Man
147,789991,DepthScenes,duration_manipulation_targetAtFixation,jsons/v1_VE250_randls_74_rotated.json,http://54.235.29.9/FacialAge/BNav_EC2/DepthDuration/v2_depth_duration_MTurk/v2_DepthDuration_HTML.html#140,140,1366,657,1366,768,8-20-2022,19-3-31,148,depth_duration_stimuli/002750_2014-06-22_19-08-03_094959634447_rgbf000094-resize_4/002750_2014-06-22_19-08-03_094959634447_rgbf000094-resize_4-target.png,250,2.354,1.0,2059,199,meters,jsons/v1_VE250_randls_74_rotated.json,707905,1054797,31,Man
148,789991,DepthScenes,duration_manipulation_targetAtFixation,jsons/v1_VE250_randls_74_rotated.json,http://54.235.29.9/FacialAge/BNav_EC2/DepthDuration/v2_depth_duration_MTurk/v2_DepthDuration_HTML.html#140,140,1366,657,1366,768,8-20-2022,19-3-31,149,depth_duration_stimuli/002549_2014-06-24_13-41-39_094959634447_rgbf000022-resize_3/002549_2014-06-24_13-41-39_094959634447_rgbf000022-resize_3-target.png,250,1.476,1.0,3844,267,meters,jsons/v1_VE250_randls_74_rotated.json,707905,1054797,31,Man
149,789991,DepthScenes,duration_manipulation_targetAtFixation,jsons/v1_VE250_randls_74_rotated.json,http://54.235.29.9/FacialAge/BNav_EC2/DepthDuration/v2_depth_duration_MTurk/v2_DepthDuration_HTML.html#140,140,1366,657,1366,768,8-20-2022,19-3-31,150,depth_duration_stimuli/003079_2014-06-15_15-18-20_094959634447_rgbf000152-resize_8/003079_2014-06-15_15-18-20_094959634447_rgbf000152-resize_8-target.png,250,2.8775,1.0,3740,235,meters,jsons/v1_VE250_randls_74_rotated.json,707905,1054797,31,Man
150,789991,DepthScenes,duration_manipulation_targetAtFixation,jsons/v1_VE250_randls_74_rotated.json,http://54.235.29.9/FacialAge/BNav_EC2/DepthDuration/v2_depth_duration_MTurk/v2_DepthDuration_HTML.html#140,140,1366,657,1366,768,8-20-2022,19-3-31,151,depth_duration_stimuli/000506_2014-06-08_23-21-00_260595134347_rgbf000070-resize_7/000506_2014-06-08_23-21-00_260595134347_rgbf000070-resize_7-target.png,250,4.0585,1.0,2293,250,meters,jsons/v1_VE250_randls_74_rotated.json,707905,1054797,31,Man
151,789991,DepthScenes,duration_manipulation_targetAtFixation,jsons/v1_VE250_randls_74_rotated.json,http://54.235.29.9/FacialAge/BNav_EC2/DepthDuration/v2_depth_duration_MTurk/v2_DepthDuration_HTML.html#140,140,1366,657,1366,768,8-20-2022,19-3-31,152,depth_duration_stimuli/000569_2014-06-09_22-51-47_260595134347_rgbf000141-resize_3/000569_2014-06-09_22-51-47_260595134347_rgbf000141-resize-original.jpg,250,4.512,0.0,3537,250,meters,jsons/v1_VE250_randls_74_rotated.json,707905,1054797,31,Man
152,789991,DepthScenes,duration_manipulation_targetAtFixation,jsons/v1_VE250_randls_74_rotated.json,http://54.235.29.9/FacialAge/BNav_EC2/DepthDuration/v2_depth_duration_MTurk/v2_DepthDuration_HTML.html#140,140,1366,657,1366,768,8-20-2022,19-3-31,153,depth_duration_stimuli/002660_2014-06-13_15-44-18_094959634447_rgbf001878-resize_2/002660_2014-06-13_15-44-18_094959634447_rgbf001878-resize_2-target.png,250,3.576,1.0,4159,249,meters,jsons/v1_VE250_randls_74_rotated.json,707905,1054797,31,Man
153,789991,DepthScenes,duration_manipulation_targetAtFixation,jsons/v1_VE250_randls_74_rotated.json,http://54.235.29.9/FacialAge/BNav_EC2/DepthDuration/v2_depth_duration_MTurk/v2_DepthDuration_HTML.html#140,140,1366,657,1366,768,8-20-2022,19-3-31,154,depth_duration_stimuli/002153_2014-06-25_21-27-18_260595134347_rgbf000038-resize_5/002153_2014-06-25_21-27-18_260595134347_rgbf000038-resize_5-target.png,250,2.505,1.0,2165,250,meters,jsons/v1_VE250_randls_74_rotated.json,707905,1054797,31,Man
154,789991,DepthScenes,duration_manipulation_targetAtFixation,jsons/v1_VE250_randls_74_rotated.json,http://54.235.29.9/FacialAge/BNav_EC2/DepthDuration/v2_depth_duration_MTurk/v2_DepthDuration_HTML.html#140,140,1366,657,1366,768,8-20-2022,19-3-31,155,depth_duration_stimuli/000749_2014-06-08_21-55-06_260595134347_rgbf000070-resize_2/000749_2014-06-08_21-55-06_260595134347_rgbf000070-resize_2-target.png,250,2.331,1.0,2248,250,meters,jsons/v1_VE250_randls_74_rotated.json,707905,1054797,31,Man
155,789991,DepthScenes,duration_manipulation_targetAtFixation,jsons/v1_VE250_randls_74_rotated.json,http://54.235.29.9/FacialAge/BNav_EC2/DepthDuration/v2_depth_duration_MTurk/v2_DepthDuration_HTML.html#140,140,1366,657,1366,768,8-20-2022,19-3-31,156,depth_duration_stimuli/002788_2014-06-22_19-36-03_094959634447_rgbf000088-resize_2/002788_2014-06-22_19-36-03_094959634447_rgbf000088-resize_2-target.png,250,1.6465,1.0,2218,249,meters,jsons/v1_VE250_randls_74_rotated.json,707905,1054797,31,Man
156,789991,DepthScenes,duration_manipulation_targetAtFixation,jsons/v1_VE250_randls_74_rotated.json,http://54.235.29.9/FacialAge/BNav_EC2/DepthDuration/v2_depth_duration_MTurk/v2_DepthDuration_HTML.html#140,140,1366,657,1366,768,8-20-2022,19-3-31,157,depth_duration_stimuli/000457_2014-06-08_16-52-43_260595134347_rgbf000199-resize_1/000457_2014-06-08_16-52-43_260595134347_rgbf000199-resize_1-target.png,250,3.6489999999999996,2.0,2680,223,meters,jsons/v1_VE250_randls_74_rotated.json,707905,1054797,31,Man
157,789991,DepthScenes,duration_manipulation_targetAtFixation,jsons/v1_VE250_randls_74_rotated.json,http://54.235.29.9/FacialAge/BNav_EC2/DepthDuration/v2_depth_duration_MTurk/v2_DepthDuration_HTML.html#140,140,1366,657,1366,768,8-20-2022,19-3-31,158,depth_duration_stimuli/000929_2014-06-09_16-33-19_260595134347_rgbf000139-resize_0/000929_2014-06-09_16-33-19_260595134347_rgbf000139-resize_0-target.png,250,2.8680000000000003,1.0,2587,251,meters,jsons/v1_VE250_randls_74_rotated.json,707905,1054797,31,Man
158,789991,DepthScenes,duration_manipulation_targetAtFixation,jsons/v1_VE250_randls_74_rotated.json,http://54.235.29.9/FacialAge/BNav_EC2/DepthDuration/v2_depth_duration_MTurk/v2_DepthDuration_HTML.html#140,140,1366,657,1366,768,8-20-2022,19-3-31,159,depth_duration_stimuli/002637_2014-06-24_14-51-13_094959634447_rgbf000066-resize_4/002637_2014-06-24_14-51-13_094959634447_rgbf000066-resize_4-target.png,250,1.9955,1.0,2189,250,meters,jsons/v1_VE250_randls_74_rotated.json,707905,1054797,31,Man
159,789991,DepthScenes,duration_manipulation_targetAtFixation,jsons/v1_VE250_randls_74_rotated.json,http://54.235.29.9/FacialAge/BNav_EC2/DepthDuration/v2_depth_duration_MTurk/v2_DepthDuration_HTML.html#140,140,1366,657,1366,768,8-20-2022,19-3-31,160,depth_duration_stimuli/003534_2014-05-22_15-06-10_094959634447_rgbf000102-resize_4/003534_2014-05-22_15-06-10_094959634447_rgbf000102-resize_4-target.png,250,1.426,0.3,4125,264,meters,jsons/v1_VE250_randls_74_rotated.json,707905,1054797,31,Man
160,789991,DepthScenes,duration_manipulation_targetAtFixation,jsons/v1_VE250_randls_74_rotated.json,http://54.235.29.9/FacialAge/BNav_EC2/DepthDuration/v2_depth_duration_MTurk/v2_DepthDuration_HTML.html#140,140,1366,657,1366,768,8-20-2022,19-3-31,161,depth_duration_stimuli/000191_2014-05-12_17-07-38_260595134347_rgbf000199-resize_0/000191_2014-05-12_17-07-38_260595134347_rgbf000199-resize_0-target.png,250,3.7995,3.0,2668,250,meters,jsons/v1_VE250_randls_74_rotated.json,707905,1054797,31,Man
161,789991,DepthScenes,duration_manipulation_targetAtFixation,jsons/v1_VE250_randls_74_rotated.json,http://54.235.29.9/FacialAge/BNav_EC2/DepthDuration/v2_depth_duration_MTurk/v2_DepthDuration_HTML.html#140,140,1366,657,1366,768,8-20-2022,19-3-31,162,depth_duration_stimuli/000493_2014-06-09_21-01-18_260595134347_rgbf000196-resize_3/000493_2014-06-09_21-01-18_260595134347_rgbf000196-resize_3-target.png,250,3.44,2.0,2662,260,meters,jsons/v1_VE250_randls_74_rotated.json,707905,1054797,31,Man
162,789991,DepthScenes,duration_manipulation_targetAtFixation,jsons/v1_VE250_randls_74_rotated.json,http://54.235.29.9/FacialAge/BNav_EC2/DepthDuration/v2_depth_duration_MTurk/v2_DepthDuration_HTML.html#140,140,1366,657,1366,768,8-20-2022,19-3-31,163,depth_duration_stimuli/002758_2014-06-22_19-11-20_094959634447_rgbf000128-resize_1/002758_2014-06-22_19-11-20_094959634447_rgbf000128-resize_1-target.png,250,2.555,2.0,2656,303,meters,jsons/v1_VE250_randls_74_rotated.json,707905,1054797,31,Man
163,789991,DepthScenes,duration_manipulation_targetAtFixation,jsons/v1_VE250_randls_74_rotated.json,http://54.235.29.9/FacialAge/BNav_EC2/DepthDuration/v2_depth_duration_MTurk/v2_DepthDuration_HTML.html#140,140,1366,657,1366,768,8-20-2022,19-3-31,164,depth_duration_stimuli/002630_2014-06-24_14-47-50_094959634447_rgbf000055-resize_1/002630_2014-06-24_14-47-50_094959634447_rgbf000055-resize_1-target.png,250,3.0095,4.0,2706,236,meters,jsons/v1_VE250_randls_74_rotated.json,707905,1054797,31,Man
