,subjID,experimentName,versionName,sequenceName,url,selected_row,windowWidth,windowHeight,screenWidth,screenHeight,startDate,startTime,trial,stimulus,duration,actual_depth,depth_estimate,trial_RT,log_sceneDuration,unitSelection,seq_filepath,experimentTime,totalTime,age,gender
0,790950,DepthScenes,duration_manipulation_targetAtFixation,jsons/v1_VE250_randls_16_rotated.json,http://54.235.29.9/FacialAge/BNav_EC2/DepthDuration/v2_depth_duration_MTurk/v2_DepthDuration_HTML.html#404,404,1280,632,1920,1080,9-18-2022,11-17-1,1,depth_duration_stimuli/002344_2014-06-28_20-06-29_260595134347_rgbf000030-resize_1/002344_2014-06-28_20-06-29_260595134347_rgbf000030-resize_1-target.png,250,1.5795,1.5,4863,250,feet,jsons/v1_VE250_randls_16_rotated.json,940074,1135873,47,Man
1,790950,DepthScenes,duration_manipulation_targetAtFixation,jsons/v1_VE250_randls_16_rotated.json,http://54.235.29.9/FacialAge/BNav_EC2/DepthDuration/v2_depth_duration_MTurk/v2_DepthDuration_HTML.html#404,404,1280,632,1920,1080,9-18-2022,11-17-1,2,depth_duration_stimuli/002725_2014-06-22_11-47-51_094959634447_rgbf000070-resize_1/002725_2014-06-22_11-47-51_094959634447_rgbf000070-resize_1-target.png,250,2.195,3.0,4566,250,feet,jsons/v1_VE250_randls_16_rotated.json,940074,1135873,47,Man
2,790950,DepthScenes,duration_manipulation_targetAtFixation,jsons/v1_VE250_randls_16_rotated.json,http://54.235.29.9/FacialAge/BNav_EC2/DepthDuration/v2_depth_duration_MTurk/v2_DepthDuration_HTML.html#404,404,1280,632,1920,1080,9-18-2022,11-17-1,3,depth_duration_stimuli/001584_2014-06-20_11-07-43_260595134347_rgbf000002-resize_1/001584_2014-06-20_11-07-43_260595134347_rgbf000002-resize_1-target.png,250,3.53,2.75,4974,249,feet,jsons/v1_VE250_randls_16_rotated.json,940074,1135873,47,Man
3,790950,DepthScenes,duration_manipulation_targetAtFixation,jsons/v1_VE250_randls_16_rotated.json,http://54.235.29.9/FacialAge/BNav_EC2/DepthDuration/v2_depth_duration_MTurk/v2_DepthDuration_HTML.html#404,404,1280,632,1920,1080,9-18-2022,11-17-1,4,depth_duration_stimuli/003621_2014-05-23_18-06-08_094959634447_rgbf000101-resize_1/003621_2014-05-23_18-06-08_094959634447_rgbf000101-resize_1-target.png,250,3.9835,6.0,6638,250,feet,jsons/v1_VE250_randls_16_rotated.json,940074,1135873,47,Man
4,790950,DepthScenes,duration_manipulation_targetAtFixation,jsons/v1_VE250_randls_16_rotated.json,http://54.235.29.9/FacialAge/BNav_EC2/DepthDuration/v2_depth_duration_MTurk/v2_DepthDuration_HTML.html#404,404,1280,632,1920,1080,9-18-2022,11-17-1,5,depth_duration_stimuli/002750_2014-06-22_19-08-03_094959634447_rgbf000094-resize_4/002750_2014-06-22_19-08-03_094959634447_rgbf000094-resize_4-target.png,250,2.354,4.5,5984,250,feet,jsons/v1_VE250_randls_16_rotated.json,940074,1135873,47,Man
5,790950,DepthScenes,duration_manipulation_targetAtFixation,jsons/v1_VE250_randls_16_rotated.json,http://54.235.29.9/FacialAge/BNav_EC2/DepthDuration/v2_depth_duration_MTurk/v2_DepthDuration_HTML.html#404,404,1280,632,1920,1080,9-18-2022,11-17-1,6,depth_duration_stimuli/002549_2014-06-24_13-41-39_094959634447_rgbf000022-resize_3/002549_2014-06-24_13-41-39_094959634447_rgbf000022-resize_3-target.png,250,1.476,1.75,9750,249,feet,jsons/v1_VE250_randls_16_rotated.json,940074,1135873,47,Man
6,790950,DepthScenes,duration_manipulation_targetAtFixation,jsons/v1_VE250_randls_16_rotated.json,http://54.235.29.9/FacialAge/BNav_EC2/DepthDuration/v2_depth_duration_MTurk/v2_DepthDuration_HTML.html#404,404,1280,632,1920,1080,9-18-2022,11-17-1,7,depth_duration_stimuli/003083_2014-06-15_15-21-03_094959634447_rgbf000063-resize_1/003083_2014-06-15_15-21-03_094959634447_rgbf000063-resize_1-target.png,250,4.1405,11.0,7839,249,feet,jsons/v1_VE250_randls_16_rotated.json,940074,1135873,47,Man
7,790950,DepthScenes,duration_manipulation_targetAtFixation,jsons/v1_VE250_randls_16_rotated.json,http://54.235.29.9/FacialAge/BNav_EC2/DepthDuration/v2_depth_duration_MTurk/v2_DepthDuration_HTML.html#404,404,1280,632,1920,1080,9-18-2022,11-17-1,8,depth_duration_stimuli/000486_2014-06-09_20-47-20_260595134347_rgbf000143-resize_2/000486_2014-06-09_20-47-20_260595134347_rgbf000143-resize_2-target.png,250,4.8325,7.0,20104,250,feet,jsons/v1_VE250_randls_16_rotated.json,940074,1135873,47,Man
8,790950,DepthScenes,duration_manipulation_targetAtFixation,jsons/v1_VE250_randls_16_rotated.json,http://54.235.29.9/FacialAge/BNav_EC2/DepthDuration/v2_depth_duration_MTurk/v2_DepthDuration_HTML.html#404,404,1280,632,1920,1080,9-18-2022,11-17-1,9,depth_duration_stimuli/002414_2014-06-28_20-24-58_260595134347_rgbf000067-resize_4/002414_2014-06-28_20-24-58_260595134347_rgbf000067-resize_4-target.png,250,4.363,8.0,20143,250,feet,jsons/v1_VE250_randls_16_rotated.json,940074,1135873,47,Man
9,790950,DepthScenes,duration_manipulation_targetAtFixation,jsons/v1_VE250_randls_16_rotated.json,http://54.235.29.9/FacialAge/BNav_EC2/DepthDuration/v2_depth_duration_MTurk/v2_DepthDuration_HTML.html#404,404,1280,632,1920,1080,9-18-2022,11-17-1,10,depth_duration_stimuli/000773_2014-06-08_22-24-54_260595134347_rgbf000093-resize_1/000773_2014-06-08_22-24-54_260595134347_rgbf000093-resize_1-target.png,250,4.973,5.5,10273,250,feet,jsons/v1_VE250_randls_16_rotated.json,940074,1135873,47,Man
10,790950,DepthScenes,duration_manipulation_targetAtFixation,jsons/v1_VE250_randls_16_rotated.json,http://54.235.29.9/FacialAge/BNav_EC2/DepthDuration/v2_depth_duration_MTurk/v2_DepthDuration_HTML.html#404,404,1280,632,1920,1080,9-18-2022,11-17-1,11,depth_duration_stimuli/000780_2014-06-08_22-28-29_260595134347_rgbf000126-resize_1/000780_2014-06-08_22-28-29_260595134347_rgbf000126-resize_1-target.png,250,3.3825,6.0,3769,249,feet,jsons/v1_VE250_randls_16_rotated.json,940074,1135873,47,Man
11,790950,DepthScenes,duration_manipulation_targetAtFixation,jsons/v1_VE250_randls_16_rotated.json,http://54.235.29.9/FacialAge/BNav_EC2/DepthDuration/v2_depth_duration_MTurk/v2_DepthDuration_HTML.html#404,404,1280,632,1920,1080,9-18-2022,11-17-1,12,depth_duration_stimuli/002445_2014-06-28_20-32-16_260595134347_rgbf000029-resize_4/002445_2014-06-28_20-32-16_260595134347_rgbf000029-resize_4-target.png,250,2.5315,2.0,8617,250,feet,jsons/v1_VE250_randls_16_rotated.json,940074,1135873,47,Man
12,790950,DepthScenes,duration_manipulation_targetAtFixation,jsons/v1_VE250_randls_16_rotated.json,http://54.235.29.9/FacialAge/BNav_EC2/DepthDuration/v2_depth_duration_MTurk/v2_DepthDuration_HTML.html#404,404,1280,632,1920,1080,9-18-2022,11-17-1,13,depth_duration_stimuli/001094_2014-06-15_17-36-00_260595134347_rgbf000205-resize_0/001094_2014-06-15_17-36-00_260595134347_rgbf000205-resize_0-target.png,250,4.2175,7.5,8201,250,feet,jsons/v1_VE250_randls_16_rotated.json,940074,1135873,47,Man
13,790950,DepthScenes,duration_manipulation_targetAtFixation,jsons/v1_VE250_randls_16_rotated.json,http://54.235.29.9/FacialAge/BNav_EC2/DepthDuration/v2_depth_duration_MTurk/v2_DepthDuration_HTML.html#404,404,1280,632,1920,1080,9-18-2022,11-17-1,14,depth_duration_stimuli/000692_2014-06-08_13-09-42_260595134347_rgbf000199-resize_2/000692_2014-06-08_13-09-42_260595134347_rgbf000199-resize_2-target.png,250,3.661,10.0,9624,250,feet,jsons/v1_VE250_randls_16_rotated.json,940074,1135873,47,Man
14,790950,DepthScenes,duration_manipulation_targetAtFixation,jsons/v1_VE250_randls_16_rotated.json,http://54.235.29.9/FacialAge/BNav_EC2/DepthDuration/v2_depth_duration_MTurk/v2_DepthDuration_HTML.html#404,404,1280,632,1920,1080,9-18-2022,11-17-1,15,depth_duration_stimuli/003423_2014-05-21_10-23-26_094959634447_rgbf002665-resize_2/003423_2014-05-21_10-23-26_094959634447_rgbf002665-resize_2-target.png,250,3.2575,8.0,7147,250,feet,jsons/v1_VE250_randls_16_rotated.json,940074,1135873,47,Man
15,790950,DepthScenes,duration_manipulation_targetAtFixation,jsons/v1_VE250_randls_16_rotated.json,http://54.235.29.9/FacialAge/BNav_EC2/DepthDuration/v2_depth_duration_MTurk/v2_DepthDuration_HTML.html#404,404,1280,632,1920,1080,9-18-2022,11-17-1,16,depth_duration_stimuli/002905_2014-06-03_18-04-43_094959634447_rgbf000151-resize_2/002905_2014-06-03_18-04-43_094959634447_rgbf000151-resize_2-target.png,250,2.0295,3.0,5119,250,feet,jsons/v1_VE250_randls_16_rotated.json,940074,1135873,47,Man
16,790950,DepthScenes,duration_manipulation_targetAtFixation,jsons/v1_VE250_randls_16_rotated.json,http://54.235.29.9/FacialAge/BNav_EC2/DepthDuration/v2_depth_duration_MTurk/v2_DepthDuration_HTML.html#404,404,1280,632,1920,1080,9-18-2022,11-17-1,17,depth_duration_stimuli/003081_2014-06-15_15-19-16_094959634447_rgbf000150-resize_1/003081_2014-06-15_15-19-16_094959634447_rgbf000150-resize_1-target.png,250,3.9125,6.5,6348,250,feet,jsons/v1_VE250_randls_16_rotated.json,940074,1135873,47,Man
17,790950,DepthScenes,duration_manipulation_targetAtFixation,jsons/v1_VE250_randls_16_rotated.json,http://54.235.29.9/FacialAge/BNav_EC2/DepthDuration/v2_depth_duration_MTurk/v2_DepthDuration_HTML.html#404,404,1280,632,1920,1080,9-18-2022,11-17-1,18,depth_duration_stimuli/001417_2014-06-19_16-25-36_260595134347_rgbf000115-resize_5/001417_2014-06-19_16-25-36_260595134347_rgbf000115-resize_5-target.png,250,4.6255,7.0,5296,250,feet,jsons/v1_VE250_randls_16_rotated.json,940074,1135873,47,Man
18,790950,DepthScenes,duration_manipulation_targetAtFixation,jsons/v1_VE250_randls_16_rotated.json,http://54.235.29.9/FacialAge/BNav_EC2/DepthDuration/v2_depth_duration_MTurk/v2_DepthDuration_HTML.html#404,404,1280,632,1920,1080,9-18-2022,11-17-1,19,depth_duration_stimuli/001498_2014-06-19_17-45-14_260595134347_rgbf000129-resize_4/001498_2014-06-19_17-45-14_260595134347_rgbf000129-resize-original.jpg,250,1.4075,0.0,6262,250,feet,jsons/v1_VE250_randls_16_rotated.json,940074,1135873,47,Man
19,790950,DepthScenes,duration_manipulation_targetAtFixation,jsons/v1_VE250_randls_16_rotated.json,http://54.235.29.9/FacialAge/BNav_EC2/DepthDuration/v2_depth_duration_MTurk/v2_DepthDuration_HTML.html#404,404,1280,632,1920,1080,9-18-2022,11-17-1,20,depth_duration_stimuli/001235_2014-06-17_16-37-36_260595134347_rgbf000084-resize_4/001235_2014-06-17_16-37-36_260595134347_rgbf000084-resize_4-target.png,250,3.6605,5.0,2576,249,feet,jsons/v1_VE250_randls_16_rotated.json,940074,1135873,47,Man
20,790950,DepthScenes,duration_manipulation_targetAtFixation,jsons/v1_VE250_randls_16_rotated.json,http://54.235.29.9/FacialAge/BNav_EC2/DepthDuration/v2_depth_duration_MTurk/v2_DepthDuration_HTML.html#404,404,1280,632,1920,1080,9-18-2022,11-17-1,21,depth_duration_stimuli/000788_2014-06-08_22-34-36_260595134347_rgbf000131-resize_1/000788_2014-06-08_22-34-36_260595134347_rgbf000131-resize_1-target.png,250,3.359,6.0,4987,248,feet,jsons/v1_VE250_randls_16_rotated.json,940074,1135873,47,Man
21,790950,DepthScenes,duration_manipulation_targetAtFixation,jsons/v1_VE250_randls_16_rotated.json,http://54.235.29.9/FacialAge/BNav_EC2/DepthDuration/v2_depth_duration_MTurk/v2_DepthDuration_HTML.html#404,404,1280,632,1920,1080,9-18-2022,11-17-1,22,depth_duration_stimuli/003228_2014-05-14_13-42-35_094959634447_rgbf000101-resize_1/003228_2014-05-14_13-42-35_094959634447_rgbf000101-resize_1-target.png,250,1.9680000000000002,1.5,5953,249,feet,jsons/v1_VE250_randls_16_rotated.json,940074,1135873,47,Man
22,790950,DepthScenes,duration_manipulation_targetAtFixation,jsons/v1_VE250_randls_16_rotated.json,http://54.235.29.9/FacialAge/BNav_EC2/DepthDuration/v2_depth_duration_MTurk/v2_DepthDuration_HTML.html#404,404,1280,632,1920,1080,9-18-2022,11-17-1,23,depth_duration_stimuli/002600_2014-06-24_14-27-04_094959634447_rgbf000074-resize_2/002600_2014-06-24_14-27-04_094959634447_rgbf000074-resize_2-target.png,250,2.7575,4.0,6650,250,feet,jsons/v1_VE250_randls_16_rotated.json,940074,1135873,47,Man
23,790950,DepthScenes,duration_manipulation_targetAtFixation,jsons/v1_VE250_randls_16_rotated.json,http://54.235.29.9/FacialAge/BNav_EC2/DepthDuration/v2_depth_duration_MTurk/v2_DepthDuration_HTML.html#404,404,1280,632,1920,1080,9-18-2022,11-17-1,24,depth_duration_stimuli/001516_2014-06-20_16-25-09_260595134347_rgbf000076-resize_2/001516_2014-06-20_16-25-09_260595134347_rgbf000076-resize_2-target.png,250,1.7445,1.5,5308,250,feet,jsons/v1_VE250_randls_16_rotated.json,940074,1135873,47,Man
24,790950,DepthScenes,duration_manipulation_targetAtFixation,jsons/v1_VE250_randls_16_rotated.json,http://54.235.29.9/FacialAge/BNav_EC2/DepthDuration/v2_depth_duration_MTurk/v2_DepthDuration_HTML.html#404,404,1280,632,1920,1080,9-18-2022,11-17-1,25,depth_duration_stimuli/002118_2014-06-25_20-32-08_260595134347_rgbf000078-resize_1/002118_2014-06-25_20-32-08_260595134347_rgbf000078-resize_1-target.png,250,2.6460000000000004,3.5,5030,249,feet,jsons/v1_VE250_randls_16_rotated.json,940074,1135873,47,Man
25,790950,DepthScenes,duration_manipulation_targetAtFixation,jsons/v1_VE250_randls_16_rotated.json,http://54.235.29.9/FacialAge/BNav_EC2/DepthDuration/v2_depth_duration_MTurk/v2_DepthDuration_HTML.html#404,404,1280,632,1920,1080,9-18-2022,11-17-1,26,depth_duration_stimuli/002805_2014-06-22_19-54-03_094959634447_rgbf000079-resize_1/002805_2014-06-22_19-54-03_094959634447_rgbf000079-resize_1-target.png,250,3.1439999999999997,6.0,8936,250,feet,jsons/v1_VE250_randls_16_rotated.json,940074,1135873,47,Man
26,790950,DepthScenes,duration_manipulation_targetAtFixation,jsons/v1_VE250_randls_16_rotated.json,http://54.235.29.9/FacialAge/BNav_EC2/DepthDuration/v2_depth_duration_MTurk/v2_DepthDuration_HTML.html#404,404,1280,632,1920,1080,9-18-2022,11-17-1,27,depth_duration_stimuli/000906_2014-06-08_13-35-43_260595134347_rgbf000155-resize_1/000906_2014-06-08_13-35-43_260595134347_rgbf000155-resize_1-target.png,250,2.8489999999999998,5.0,3548,250,feet,jsons/v1_VE250_randls_16_rotated.json,940074,1135873,47,Man
27,790950,DepthScenes,duration_manipulation_targetAtFixation,jsons/v1_VE250_randls_16_rotated.json,http://54.235.29.9/FacialAge/BNav_EC2/DepthDuration/v2_depth_duration_MTurk/v2_DepthDuration_HTML.html#404,404,1280,632,1920,1080,9-18-2022,11-17-1,28,depth_duration_stimuli/002758_2014-06-22_19-11-20_094959634447_rgbf000128-resize_1/002758_2014-06-22_19-11-20_094959634447_rgbf000128-resize_1-target.png,250,2.555,2.0,3006,249,feet,jsons/v1_VE250_randls_16_rotated.json,940074,1135873,47,Man
28,790950,DepthScenes,duration_manipulation_targetAtFixation,jsons/v1_VE250_randls_16_rotated.json,http://54.235.29.9/FacialAge/BNav_EC2/DepthDuration/v2_depth_duration_MTurk/v2_DepthDuration_HTML.html#404,404,1280,632,1920,1080,9-18-2022,11-17-1,29,depth_duration_stimuli/002630_2014-06-24_14-47-50_094959634447_rgbf000055-resize_1/002630_2014-06-24_14-47-50_094959634447_rgbf000055-resize_1-target.png,250,3.0095,4.5,5308,250,feet,jsons/v1_VE250_randls_16_rotated.json,940074,1135873,47,Man
29,790950,DepthScenes,duration_manipulation_targetAtFixation,jsons/v1_VE250_randls_16_rotated.json,http://54.235.29.9/FacialAge/BNav_EC2/DepthDuration/v2_depth_duration_MTurk/v2_DepthDuration_HTML.html#404,404,1280,632,1920,1080,9-18-2022,11-17-1,30,depth_duration_stimuli/002072_2014-06-24_21-48-06_260595134347_rgbf000115-resize_0/002072_2014-06-24_21-48-06_260595134347_rgbf000115-resize-original.jpg,250,4.702,0.0,3665,250,feet,jsons/v1_VE250_randls_16_rotated.json,940074,1135873,47,Man
30,790950,DepthScenes,duration_manipulation_targetAtFixation,jsons/v1_VE250_randls_16_rotated.json,http://54.235.29.9/FacialAge/BNav_EC2/DepthDuration/v2_depth_duration_MTurk/v2_DepthDuration_HTML.html#404,404,1280,632,1920,1080,9-18-2022,11-17-1,31,depth_duration_stimuli/003338_2014-05-20_11-01-23_094959634447_rgbf000051-resize_6/003338_2014-05-20_11-01-23_094959634447_rgbf000051-resize_6-target.png,250,1.693,2.0,8001,249,feet,jsons/v1_VE250_randls_16_rotated.json,940074,1135873,47,Man
31,790950,DepthScenes,duration_manipulation_targetAtFixation,jsons/v1_VE250_randls_16_rotated.json,http://54.235.29.9/FacialAge/BNav_EC2/DepthDuration/v2_depth_duration_MTurk/v2_DepthDuration_HTML.html#404,404,1280,632,1920,1080,9-18-2022,11-17-1,32,depth_duration_stimuli/002509_2014-06-24_13-19-22_094959634447_rgbf000077-resize_0/002509_2014-06-24_13-19-22_094959634447_rgbf000077-resize_0-target.png,250,1.3065,1.0,3305,250,feet,jsons/v1_VE250_randls_16_rotated.json,940074,1135873,47,Man
32,790950,DepthScenes,duration_manipulation_targetAtFixation,jsons/v1_VE250_randls_16_rotated.json,http://54.235.29.9/FacialAge/BNav_EC2/DepthDuration/v2_depth_duration_MTurk/v2_DepthDuration_HTML.html#404,404,1280,632,1920,1080,9-18-2022,11-17-1,33,depth_duration_stimuli/002199_2014-06-28_18-33-56_260595134347_rgbf000074-resize_0/002199_2014-06-28_18-33-56_260595134347_rgbf000074-resize_0-target.png,250,1.996,1.25,5368,250,feet,jsons/v1_VE250_randls_16_rotated.json,940074,1135873,47,Man
33,790950,DepthScenes,duration_manipulation_targetAtFixation,jsons/v1_VE250_randls_16_rotated.json,http://54.235.29.9/FacialAge/BNav_EC2/DepthDuration/v2_depth_duration_MTurk/v2_DepthDuration_HTML.html#404,404,1280,632,1920,1080,9-18-2022,11-17-1,34,depth_duration_stimuli/001056_2014-06-08_18-46-44_260595134347_rgbf000068-resize_0/001056_2014-06-08_18-46-44_260595134347_rgbf000068-resize_0-target.png,250,2.6625,3.5,4647,250,feet,jsons/v1_VE250_randls_16_rotated.json,940074,1135873,47,Man
34,790950,DepthScenes,duration_manipulation_targetAtFixation,jsons/v1_VE250_randls_16_rotated.json,http://54.235.29.9/FacialAge/BNav_EC2/DepthDuration/v2_depth_duration_MTurk/v2_DepthDuration_HTML.html#404,404,1280,632,1920,1080,9-18-2022,11-17-1,35,depth_duration_stimuli/001100_2014-06-15_17-46-26_260595134347_rgbf000225-resize_2/001100_2014-06-15_17-46-26_260595134347_rgbf000225-resize_2-target.png,250,2.24,2.0,8435,249,feet,jsons/v1_VE250_randls_16_rotated.json,940074,1135873,47,Man
35,790950,DepthScenes,duration_manipulation_targetAtFixation,jsons/v1_VE250_randls_16_rotated.json,http://54.235.29.9/FacialAge/BNav_EC2/DepthDuration/v2_depth_duration_MTurk/v2_DepthDuration_HTML.html#404,404,1280,632,1920,1080,9-18-2022,11-17-1,36,depth_duration_stimuli/002784_2014-06-22_19-26-30_094959634447_rgbf000083-resize_3/002784_2014-06-22_19-26-30_094959634447_rgbf000083-resize_3-target.png,250,1.8046666666667,2.0,4948,250,feet,jsons/v1_VE250_randls_16_rotated.json,940074,1135873,47,Man
36,790950,DepthScenes,duration_manipulation_targetAtFixation,jsons/v1_VE250_randls_16_rotated.json,http://54.235.29.9/FacialAge/BNav_EC2/DepthDuration/v2_depth_duration_MTurk/v2_DepthDuration_HTML.html#404,404,1280,632,1920,1080,9-18-2022,11-17-1,37,depth_duration_stimuli/002875_2014-06-01_15-19-00_094959634447_rgbf000151-resize_1/002875_2014-06-01_15-19-00_094959634447_rgbf000151-resize_1-target.png,250,1.9675,4.0,5845,249,feet,jsons/v1_VE250_randls_16_rotated.json,940074,1135873,47,Man
37,790950,DepthScenes,duration_manipulation_targetAtFixation,jsons/v1_VE250_randls_16_rotated.json,http://54.235.29.9/FacialAge/BNav_EC2/DepthDuration/v2_depth_duration_MTurk/v2_DepthDuration_HTML.html#404,404,1280,632,1920,1080,9-18-2022,11-17-1,38,depth_duration_stimuli/001011_2014-06-08_23-18-54_260595134347_rgbf000044-resize_4/001011_2014-06-08_23-18-54_260595134347_rgbf000044-resize_4-target.png,250,2.4730000000000003,5.5,5306,249,feet,jsons/v1_VE250_randls_16_rotated.json,940074,1135873,47,Man
38,790950,DepthScenes,duration_manipulation_targetAtFixation,jsons/v1_VE250_randls_16_rotated.json,http://54.235.29.9/FacialAge/BNav_EC2/DepthDuration/v2_depth_duration_MTurk/v2_DepthDuration_HTML.html#404,404,1280,632,1920,1080,9-18-2022,11-17-1,39,depth_duration_stimuli/000549_2014-06-08_22-10-24_260595134347_rgbf000247-resize_3/000549_2014-06-08_22-10-24_260595134347_rgbf000247-resize_3-target.png,250,1.841,1.0,2879,249,feet,jsons/v1_VE250_randls_16_rotated.json,940074,1135873,47,Man
39,790950,DepthScenes,duration_manipulation_targetAtFixation,jsons/v1_VE250_randls_16_rotated.json,http://54.235.29.9/FacialAge/BNav_EC2/DepthDuration/v2_depth_duration_MTurk/v2_DepthDuration_HTML.html#404,404,1280,632,1920,1080,9-18-2022,11-17-1,40,depth_duration_stimuli/001055_2014-06-08_18-45-35_260595134347_rgbf000111-resize_4/001055_2014-06-08_18-45-35_260595134347_rgbf000111-resize_4-target.png,250,2.4290000000000003,4.5,4947,250,feet,jsons/v1_VE250_randls_16_rotated.json,940074,1135873,47,Man
40,790950,DepthScenes,duration_manipulation_targetAtFixation,jsons/v1_VE250_randls_16_rotated.json,http://54.235.29.9/FacialAge/BNav_EC2/DepthDuration/v2_depth_duration_MTurk/v2_DepthDuration_HTML.html#404,404,1280,632,1920,1080,9-18-2022,11-17-1,41,depth_duration_stimuli/002136_2014-06-25_21-18-03_260595134347_rgbf000109-resize_3/002136_2014-06-25_21-18-03_260595134347_rgbf000109-resize_3-target.png,250,1.9569999999999999,3.0,2543,250,feet,jsons/v1_VE250_randls_16_rotated.json,940074,1135873,47,Man
41,790950,DepthScenes,duration_manipulation_targetAtFixation,jsons/v1_VE250_randls_16_rotated.json,http://54.235.29.9/FacialAge/BNav_EC2/DepthDuration/v2_depth_duration_MTurk/v2_DepthDuration_HTML.html#404,404,1280,632,1920,1080,9-18-2022,11-17-1,42,depth_duration_stimuli/002964_2014-06-08_17-46-11_094959634447_rgbf000091-resize_4/002964_2014-06-08_17-46-11_094959634447_rgbf000091-resize_4-target.png,250,1.6909999999999998,1.5,6955,249,feet,jsons/v1_VE250_randls_16_rotated.json,940074,1135873,47,Man
42,790950,DepthScenes,duration_manipulation_targetAtFixation,jsons/v1_VE250_randls_16_rotated.json,http://54.235.29.9/FacialAge/BNav_EC2/DepthDuration/v2_depth_duration_MTurk/v2_DepthDuration_HTML.html#404,404,1280,632,1920,1080,9-18-2022,11-17-1,43,depth_duration_stimuli/002545_2014-06-24_13-38-53_094959634447_rgbf000080-resize_4/002545_2014-06-24_13-38-53_094959634447_rgbf000080-resize_4-target.png,250,1.9205,3.0,5952,249,feet,jsons/v1_VE250_randls_16_rotated.json,940074,1135873,47,Man
43,790950,DepthScenes,duration_manipulation_targetAtFixation,jsons/v1_VE250_randls_16_rotated.json,http://54.235.29.9/FacialAge/BNav_EC2/DepthDuration/v2_depth_duration_MTurk/v2_DepthDuration_HTML.html#404,404,1280,632,1920,1080,9-18-2022,11-17-1,44,depth_duration_stimuli/001092_2014-06-15_17-34-58_260595134347_rgbf000171-resize_3/001092_2014-06-15_17-34-58_260595134347_rgbf000171-resize_3-target.png,250,2.6935,3.0,4626,249,feet,jsons/v1_VE250_randls_16_rotated.json,940074,1135873,47,Man
44,790950,DepthScenes,duration_manipulation_targetAtFixation,jsons/v1_VE250_randls_16_rotated.json,http://54.235.29.9/FacialAge/BNav_EC2/DepthDuration/v2_depth_duration_MTurk/v2_DepthDuration_HTML.html#404,404,1280,632,1920,1080,9-18-2022,11-17-1,45,depth_duration_stimuli/000742_2014-06-08_18-48-09_260595134347_rgbf000164-resize_4/000742_2014-06-08_18-48-09_260595134347_rgbf000164-resize_4-target.png,250,4.632,6.0,4711,249,feet,jsons/v1_VE250_randls_16_rotated.json,940074,1135873,47,Man
45,790950,DepthScenes,duration_manipulation_targetAtFixation,jsons/v1_VE250_randls_16_rotated.json,http://54.235.29.9/FacialAge/BNav_EC2/DepthDuration/v2_depth_duration_MTurk/v2_DepthDuration_HTML.html#404,404,1280,632,1920,1080,9-18-2022,11-17-1,46,depth_duration_stimuli/001066_2014-06-08_22-03-20_260595134347_rgbf000066-resize_4/001066_2014-06-08_22-03-20_260595134347_rgbf000066-resize_4-target.png,250,4.2330000000000005,5.0,3477,250,feet,jsons/v1_VE250_randls_16_rotated.json,940074,1135873,47,Man
46,790950,DepthScenes,duration_manipulation_targetAtFixation,jsons/v1_VE250_randls_16_rotated.json,http://54.235.29.9/FacialAge/BNav_EC2/DepthDuration/v2_depth_duration_MTurk/v2_DepthDuration_HTML.html#404,404,1280,632,1920,1080,9-18-2022,11-17-1,47,depth_duration_stimuli/002660_2014-06-13_15-44-18_094959634447_rgbf001878-resize_2/002660_2014-06-13_15-44-18_094959634447_rgbf001878-resize_2-target.png,250,3.576,7.0,4152,250,feet,jsons/v1_VE250_randls_16_rotated.json,940074,1135873,47,Man
47,790950,DepthScenes,duration_manipulation_targetAtFixation,jsons/v1_VE250_randls_16_rotated.json,http://54.235.29.9/FacialAge/BNav_EC2/DepthDuration/v2_depth_duration_MTurk/v2_DepthDuration_HTML.html#404,404,1280,632,1920,1080,9-18-2022,11-17-1,48,depth_duration_stimuli/002153_2014-06-25_21-27-18_260595134347_rgbf000038-resize_5/002153_2014-06-25_21-27-18_260595134347_rgbf000038-resize_5-target.png,250,2.505,5.0,4731,250,feet,jsons/v1_VE250_randls_16_rotated.json,940074,1135873,47,Man
48,790950,DepthScenes,duration_manipulation_targetAtFixation,jsons/v1_VE250_randls_16_rotated.json,http://54.235.29.9/FacialAge/BNav_EC2/DepthDuration/v2_depth_duration_MTurk/v2_DepthDuration_HTML.html#404,404,1280,632,1920,1080,9-18-2022,11-17-1,49,depth_duration_stimuli/001170_2014-06-17_15-43-44_260595134347_rgbf000096-resize_6/001170_2014-06-17_15-43-44_260595134347_rgbf000096-resize-original.jpg,250,1.1909999999999998,0.0,3595,250,feet,jsons/v1_VE250_randls_16_rotated.json,940074,1135873,47,Man
49,790950,DepthScenes,duration_manipulation_targetAtFixation,jsons/v1_VE250_randls_16_rotated.json,http://54.235.29.9/FacialAge/BNav_EC2/DepthDuration/v2_depth_duration_MTurk/v2_DepthDuration_HTML.html#404,404,1280,632,1920,1080,9-18-2022,11-17-1,50,depth_duration_stimuli/002637_2014-06-24_14-51-13_094959634447_rgbf000066-resize_4/002637_2014-06-24_14-51-13_094959634447_rgbf000066-resize_4-target.png,250,1.9955,4.0,8527,250,feet,jsons/v1_VE250_randls_16_rotated.json,940074,1135873,47,Man
50,790950,DepthScenes,duration_manipulation_targetAtFixation,jsons/v1_VE250_randls_16_rotated.json,http://54.235.29.9/FacialAge/BNav_EC2/DepthDuration/v2_depth_duration_MTurk/v2_DepthDuration_HTML.html#404,404,1280,632,1920,1080,9-18-2022,11-17-1,51,depth_duration_stimuli/003534_2014-05-22_15-06-10_094959634447_rgbf000102-resize_4/003534_2014-05-22_15-06-10_094959634447_rgbf000102-resize_4-target.png,250,1.426,1.0,3478,250,feet,jsons/v1_VE250_randls_16_rotated.json,940074,1135873,47,Man
51,790950,DepthScenes,duration_manipulation_targetAtFixation,jsons/v1_VE250_randls_16_rotated.json,http://54.235.29.9/FacialAge/BNav_EC2/DepthDuration/v2_depth_duration_MTurk/v2_DepthDuration_HTML.html#404,404,1280,632,1920,1080,9-18-2022,11-17-1,52,depth_duration_stimuli/003048_2014-06-15_13-49-43_094959634447_rgbf000150-resize_1/003048_2014-06-15_13-49-43_094959634447_rgbf000150-resize_1-target.png,250,4.0035,7.0,5564,249,feet,jsons/v1_VE250_randls_16_rotated.json,940074,1135873,47,Man
52,790950,DepthScenes,duration_manipulation_targetAtFixation,jsons/v1_VE250_randls_16_rotated.json,http://54.235.29.9/FacialAge/BNav_EC2/DepthDuration/v2_depth_duration_MTurk/v2_DepthDuration_HTML.html#404,404,1280,632,1920,1080,9-18-2022,11-17-1,53,depth_duration_stimuli/002043_2014-06-24_20-29-38_260595134347_rgbf000039-resize_4/002043_2014-06-24_20-29-38_260595134347_rgbf000039-resize_4-target.png,250,2.8435,5.0,4441,250,feet,jsons/v1_VE250_randls_16_rotated.json,940074,1135873,47,Man
53,790950,DepthScenes,duration_manipulation_targetAtFixation,jsons/v1_VE250_randls_16_rotated.json,http://54.235.29.9/FacialAge/BNav_EC2/DepthDuration/v2_depth_duration_MTurk/v2_DepthDuration_HTML.html#404,404,1280,632,1920,1080,9-18-2022,11-17-1,54,depth_duration_stimuli/000734_2014-06-08_17-39-11_260595134347_rgbf000128-resize_2/000734_2014-06-08_17-39-11_260595134347_rgbf000128-resize_2-target.png,250,4.098,4.5,8171,250,feet,jsons/v1_VE250_randls_16_rotated.json,940074,1135873,47,Man
54,790950,DepthScenes,duration_manipulation_targetAtFixation,jsons/v1_VE250_randls_16_rotated.json,http://54.235.29.9/FacialAge/BNav_EC2/DepthDuration/v2_depth_duration_MTurk/v2_DepthDuration_HTML.html#404,404,1280,632,1920,1080,9-18-2022,11-17-1,55,depth_duration_stimuli/000739_2014-06-08_18-45-58_260595134347_rgbf000068-resize_1/000739_2014-06-08_18-45-58_260595134347_rgbf000068-resize_1-target.png,250,3.534,5.0,4559,249,feet,jsons/v1_VE250_randls_16_rotated.json,940074,1135873,47,Man
55,790950,DepthScenes,duration_manipulation_targetAtFixation,jsons/v1_VE250_randls_16_rotated.json,http://54.235.29.9/FacialAge/BNav_EC2/DepthDuration/v2_depth_duration_MTurk/v2_DepthDuration_HTML.html#404,404,1280,632,1920,1080,9-18-2022,11-17-1,56,depth_duration_stimuli/000635_2014-06-08_16-38-42_260595134347_rgbf000106-resize_1/000635_2014-06-08_16-38-42_260595134347_rgbf000106-resize_1-target.png,250,2.074,2.5,5318,249,feet,jsons/v1_VE250_randls_16_rotated.json,940074,1135873,47,Man
56,790950,DepthScenes,duration_manipulation_targetAtFixation,jsons/v1_VE250_randls_16_rotated.json,http://54.235.29.9/FacialAge/BNav_EC2/DepthDuration/v2_depth_duration_MTurk/v2_DepthDuration_HTML.html#404,404,1280,632,1920,1080,9-18-2022,11-17-1,57,depth_duration_stimuli/002279_2014-06-28_18-55-32_260595134347_rgbf000040-resize_5/002279_2014-06-28_18-55-32_260595134347_rgbf000040-resize_5-target.png,250,1.5043333333333,1.0,2686,249,feet,jsons/v1_VE250_randls_16_rotated.json,940074,1135873,47,Man
57,790950,DepthScenes,duration_manipulation_targetAtFixation,jsons/v1_VE250_randls_16_rotated.json,http://54.235.29.9/FacialAge/BNav_EC2/DepthDuration/v2_depth_duration_MTurk/v2_DepthDuration_HTML.html#404,404,1280,632,1920,1080,9-18-2022,11-17-1,58,depth_duration_stimuli/000866_2014-06-09_20-45-42_260595134347_rgbf000139-resize_1/000866_2014-06-09_20-45-42_260595134347_rgbf000139-resize_1-target.png,250,3.2155,3.5,7958,250,feet,jsons/v1_VE250_randls_16_rotated.json,940074,1135873,47,Man
58,790950,DepthScenes,duration_manipulation_targetAtFixation,jsons/v1_VE250_randls_16_rotated.json,http://54.235.29.9/FacialAge/BNav_EC2/DepthDuration/v2_depth_duration_MTurk/v2_DepthDuration_HTML.html#404,404,1280,632,1920,1080,9-18-2022,11-17-1,59,depth_duration_stimuli/002989_2014-06-15_12-25-03_094959634447_rgbf000150-resize_3/002989_2014-06-15_12-25-03_094959634447_rgbf000150-resize_3-target.png,250,4.1975,8.0,4946,249,feet,jsons/v1_VE250_randls_16_rotated.json,940074,1135873,47,Man
59,790950,DepthScenes,duration_manipulation_targetAtFixation,jsons/v1_VE250_randls_16_rotated.json,http://54.235.29.9/FacialAge/BNav_EC2/DepthDuration/v2_depth_duration_MTurk/v2_DepthDuration_HTML.html#404,404,1280,632,1920,1080,9-18-2022,11-17-1,60,depth_duration_stimuli/000457_2014-06-08_16-52-43_260595134347_rgbf000199-resize_1/000457_2014-06-08_16-52-43_260595134347_rgbf000199-resize_1-target.png,250,3.6489999999999996,5.0,6106,249,feet,jsons/v1_VE250_randls_16_rotated.json,940074,1135873,47,Man
60,790950,DepthScenes,duration_manipulation_targetAtFixation,jsons/v1_VE250_randls_16_rotated.json,http://54.235.29.9/FacialAge/BNav_EC2/DepthDuration/v2_depth_duration_MTurk/v2_DepthDuration_HTML.html#404,404,1280,632,1920,1080,9-18-2022,11-17-1,61,depth_duration_stimuli/000929_2014-06-09_16-33-19_260595134347_rgbf000139-resize_0/000929_2014-06-09_16-33-19_260595134347_rgbf000139-resize_0-target.png,250,2.8680000000000003,4.0,6329,250,feet,jsons/v1_VE250_randls_16_rotated.json,940074,1135873,47,Man
61,790950,DepthScenes,duration_manipulation_targetAtFixation,jsons/v1_VE250_randls_16_rotated.json,http://54.235.29.9/FacialAge/BNav_EC2/DepthDuration/v2_depth_duration_MTurk/v2_DepthDuration_HTML.html#404,404,1280,632,1920,1080,9-18-2022,11-17-1,62,depth_duration_stimuli/001617_2014-06-20_11-35-32_260595134347_rgbf000066-resize_1/001617_2014-06-20_11-35-32_260595134347_rgbf000066-resize_1-target.png,250,3.7910000000000004,5.0,5455,249,feet,jsons/v1_VE250_randls_16_rotated.json,940074,1135873,47,Man
62,790950,DepthScenes,duration_manipulation_targetAtFixation,jsons/v1_VE250_randls_16_rotated.json,http://54.235.29.9/FacialAge/BNav_EC2/DepthDuration/v2_depth_duration_MTurk/v2_DepthDuration_HTML.html#404,404,1280,632,1920,1080,9-18-2022,11-17-1,63,depth_duration_stimuli/001806_2014-06-26_20-50-20_260595134347_rgbf000091-resize_1/001806_2014-06-26_20-50-20_260595134347_rgbf000091-resize_1-target.png,250,2.7305,2.5,5042,249,feet,jsons/v1_VE250_randls_16_rotated.json,940074,1135873,47,Man
63,790950,DepthScenes,duration_manipulation_targetAtFixation,jsons/v1_VE250_randls_16_rotated.json,http://54.235.29.9/FacialAge/BNav_EC2/DepthDuration/v2_depth_duration_MTurk/v2_DepthDuration_HTML.html#404,404,1280,632,1920,1080,9-18-2022,11-17-1,64,depth_duration_stimuli/000109_2014-05-14_23-41-52_260595134347_rgbf000035-resize_9/000109_2014-05-14_23-41-52_260595134347_rgbf000035-resize_9-target.png,250,1.3545,1.5,7619,250,feet,jsons/v1_VE250_randls_16_rotated.json,940074,1135873,47,Man
64,790950,DepthScenes,duration_manipulation_targetAtFixation,jsons/v1_VE250_randls_16_rotated.json,http://54.235.29.9/FacialAge/BNav_EC2/DepthDuration/v2_depth_duration_MTurk/v2_DepthDuration_HTML.html#404,404,1280,632,1920,1080,9-18-2022,11-17-1,65,depth_duration_stimuli/000470_2014-06-09_19-42-40_260595134347_rgbf000094-resize_1/000470_2014-06-09_19-42-40_260595134347_rgbf000094-resize_1-target.png,250,1.831,1.5,4900,250,feet,jsons/v1_VE250_randls_16_rotated.json,940074,1135873,47,Man
65,790950,DepthScenes,duration_manipulation_targetAtFixation,jsons/v1_VE250_randls_16_rotated.json,http://54.235.29.9/FacialAge/BNav_EC2/DepthDuration/v2_depth_duration_MTurk/v2_DepthDuration_HTML.html#404,404,1280,632,1920,1080,9-18-2022,11-17-1,66,depth_duration_stimuli/001540_2014-06-20_17-01-05_260595134347_rgbf000086-resize_2/001540_2014-06-20_17-01-05_260595134347_rgbf000086-resize-original.jpg,250,1.459,0.0,3285,250,feet,jsons/v1_VE250_randls_16_rotated.json,940074,1135873,47,Man
66,790950,DepthScenes,duration_manipulation_targetAtFixation,jsons/v1_VE250_randls_16_rotated.json,http://54.235.29.9/FacialAge/BNav_EC2/DepthDuration/v2_depth_duration_MTurk/v2_DepthDuration_HTML.html#404,404,1280,632,1920,1080,9-18-2022,11-17-1,67,depth_duration_stimuli/001052_2014-06-08_18-24-54_260595134347_rgbf000130-resize_1/001052_2014-06-08_18-24-54_260595134347_rgbf000130-resize_1-target.png,250,4.1045,6.0,4854,250,feet,jsons/v1_VE250_randls_16_rotated.json,940074,1135873,47,Man
67,790950,DepthScenes,duration_manipulation_targetAtFixation,jsons/v1_VE250_randls_16_rotated.json,http://54.235.29.9/FacialAge/BNav_EC2/DepthDuration/v2_depth_duration_MTurk/v2_DepthDuration_HTML.html#404,404,1280,632,1920,1080,9-18-2022,11-17-1,68,depth_duration_stimuli/002988_2014-06-15_12-24-20_094959634447_rgbf000150-resize_1/002988_2014-06-15_12-24-20_094959634447_rgbf000150-resize_1-target.png,250,4.7669999999999995,6.0,6638,249,feet,jsons/v1_VE250_randls_16_rotated.json,940074,1135873,47,Man
68,790950,DepthScenes,duration_manipulation_targetAtFixation,jsons/v1_VE250_randls_16_rotated.json,http://54.235.29.9/FacialAge/BNav_EC2/DepthDuration/v2_depth_duration_MTurk/v2_DepthDuration_HTML.html#404,404,1280,632,1920,1080,9-18-2022,11-17-1,69,depth_duration_stimuli/002103_2014-06-25_20-00-40_260595134347_rgbf000049-resize_0/002103_2014-06-25_20-00-40_260595134347_rgbf000049-resize_0-target.png,250,4.105,8.0,4623,250,feet,jsons/v1_VE250_randls_16_rotated.json,940074,1135873,47,Man
69,790950,DepthScenes,duration_manipulation_targetAtFixation,jsons/v1_VE250_randls_16_rotated.json,http://54.235.29.9/FacialAge/BNav_EC2/DepthDuration/v2_depth_duration_MTurk/v2_DepthDuration_HTML.html#404,404,1280,632,1920,1080,9-18-2022,11-17-1,70,depth_duration_stimuli/002039_2014-06-24_20-22-38_260595134347_rgbf000084-resize_1/002039_2014-06-24_20-22-38_260595134347_rgbf000084-resize_1-target.png,250,4.408,9.0,6120,250,feet,jsons/v1_VE250_randls_16_rotated.json,940074,1135873,47,Man
70,790950,DepthScenes,duration_manipulation_targetAtFixation,jsons/v1_VE250_randls_16_rotated.json,http://54.235.29.9/FacialAge/BNav_EC2/DepthDuration/v2_depth_duration_MTurk/v2_DepthDuration_HTML.html#404,404,1280,632,1920,1080,9-18-2022,11-17-1,71,depth_duration_stimuli/003495_2014-05-21_16-01-51_094959634447_rgbf000100-resize_3/003495_2014-05-21_16-01-51_094959634447_rgbf000100-resize_3-target.png,250,1.6255,1.25,5867,250,feet,jsons/v1_VE250_randls_16_rotated.json,940074,1135873,47,Man
71,790950,DepthScenes,duration_manipulation_targetAtFixation,jsons/v1_VE250_randls_16_rotated.json,http://54.235.29.9/FacialAge/BNav_EC2/DepthDuration/v2_depth_duration_MTurk/v2_DepthDuration_HTML.html#404,404,1280,632,1920,1080,9-18-2022,11-17-1,72,depth_duration_stimuli/001244_2014-06-17_16-47-45_260595134347_rgbf000030-resize_4/001244_2014-06-17_16-47-45_260595134347_rgbf000030-resize_4-target.png,250,2.0425,1.0,3287,249,feet,jsons/v1_VE250_randls_16_rotated.json,940074,1135873,47,Man
72,790950,DepthScenes,duration_manipulation_targetAtFixation,jsons/v1_VE250_randls_16_rotated.json,http://54.235.29.9/FacialAge/BNav_EC2/DepthDuration/v2_depth_duration_MTurk/v2_DepthDuration_HTML.html#404,404,1280,632,1920,1080,9-18-2022,11-17-1,73,depth_duration_stimuli/002678_2014-06-13_16-15-32_094959634447_rgbf000151-resize_6/002678_2014-06-13_16-15-32_094959634447_rgbf000151-resize_6-target.png,250,2.1830000000000003,5.0,4667,249,feet,jsons/v1_VE250_randls_16_rotated.json,940074,1135873,47,Man
73,790950,DepthScenes,duration_manipulation_targetAtFixation,jsons/v1_VE250_randls_16_rotated.json,http://54.235.29.9/FacialAge/BNav_EC2/DepthDuration/v2_depth_duration_MTurk/v2_DepthDuration_HTML.html#404,404,1280,632,1920,1080,9-18-2022,11-17-1,74,depth_duration_stimuli/000368_2014-06-09_15-53-01_260595134347_rgbf000155-resize_2/000368_2014-06-09_15-53-01_260595134347_rgbf000155-resize_2-target.png,250,2.4859999999999998,3.0,2009,249,feet,jsons/v1_VE250_randls_16_rotated.json,940074,1135873,47,Man
74,790950,DepthScenes,duration_manipulation_targetAtFixation,jsons/v1_VE250_randls_16_rotated.json,http://54.235.29.9/FacialAge/BNav_EC2/DepthDuration/v2_depth_duration_MTurk/v2_DepthDuration_HTML.html#404,404,1280,632,1920,1080,9-18-2022,11-17-1,75,depth_duration_stimuli/000502_2014-06-08_23-02-32_260595134347_rgbf000063-resize_4/000502_2014-06-08_23-02-32_260595134347_rgbf000063-resize_4-target.png,250,2.431,2.5,4499,250,feet,jsons/v1_VE250_randls_16_rotated.json,940074,1135873,47,Man
75,790950,DepthScenes,duration_manipulation_targetAtFixation,jsons/v1_VE250_randls_16_rotated.json,http://54.235.29.9/FacialAge/BNav_EC2/DepthDuration/v2_depth_duration_MTurk/v2_DepthDuration_HTML.html#404,404,1280,632,1920,1080,9-18-2022,11-17-1,76,depth_duration_stimuli/001199_2014-06-17_16-03-48_260595134347_rgbf000077-resize_0/001199_2014-06-17_16-03-48_260595134347_rgbf000077-resize_0-target.png,250,3.4375,8.0,4938,249,feet,jsons/v1_VE250_randls_16_rotated.json,940074,1135873,47,Man
76,790950,DepthScenes,duration_manipulation_targetAtFixation,jsons/v1_VE250_randls_16_rotated.json,http://54.235.29.9/FacialAge/BNav_EC2/DepthDuration/v2_depth_duration_MTurk/v2_DepthDuration_HTML.html#404,404,1280,632,1920,1080,9-18-2022,11-17-1,77,depth_duration_stimuli/001447_2014-06-19_17-00-32_260595134347_rgbf000082-resize_5/001447_2014-06-19_17-00-32_260595134347_rgbf000082-resize_5-target.png,250,4.13775,3.0,3143,250,feet,jsons/v1_VE250_randls_16_rotated.json,940074,1135873,47,Man
77,790950,DepthScenes,duration_manipulation_targetAtFixation,jsons/v1_VE250_randls_16_rotated.json,http://54.235.29.9/FacialAge/BNav_EC2/DepthDuration/v2_depth_duration_MTurk/v2_DepthDuration_HTML.html#404,404,1280,632,1920,1080,9-18-2022,11-17-1,78,depth_duration_stimuli/000447_2014-06-08_16-15-46_260595134347_rgbf000130-resize_1/000447_2014-06-08_16-15-46_260595134347_rgbf000130-resize_1-target.png,250,4.479,9.0,4243,249,feet,jsons/v1_VE250_randls_16_rotated.json,940074,1135873,47,Man
78,790950,DepthScenes,duration_manipulation_targetAtFixation,jsons/v1_VE250_randls_16_rotated.json,http://54.235.29.9/FacialAge/BNav_EC2/DepthDuration/v2_depth_duration_MTurk/v2_DepthDuration_HTML.html#404,404,1280,632,1920,1080,9-18-2022,11-17-1,79,depth_duration_stimuli/001392_2014-06-19_16-07-59_260595134347_rgbf000046-resize_1/001392_2014-06-19_16-07-59_260595134347_rgbf000046-resize_1-target.png,250,4.135,7.0,3990,249,feet,jsons/v1_VE250_randls_16_rotated.json,940074,1135873,47,Man
79,790950,DepthScenes,duration_manipulation_targetAtFixation,jsons/v1_VE250_randls_16_rotated.json,http://54.235.29.9/FacialAge/BNav_EC2/DepthDuration/v2_depth_duration_MTurk/v2_DepthDuration_HTML.html#404,404,1280,632,1920,1080,9-18-2022,11-17-1,80,depth_duration_stimuli/001570_2014-06-20_17-21-09_260595134347_rgbf000135-resize_4/001570_2014-06-20_17-21-09_260595134347_rgbf000135-resize_4-target.png,250,4.467,6.0,4474,250,feet,jsons/v1_VE250_randls_16_rotated.json,940074,1135873,47,Man
80,790950,DepthScenes,duration_manipulation_targetAtFixation,jsons/v1_VE250_randls_16_rotated.json,http://54.235.29.9/FacialAge/BNav_EC2/DepthDuration/v2_depth_duration_MTurk/v2_DepthDuration_HTML.html#404,404,1280,632,1920,1080,9-18-2022,11-17-1,81,depth_duration_stimuli/001650_2014-06-20_12-09-00_260595134347_rgbf000087-resize_3/001650_2014-06-20_12-09-00_260595134347_rgbf000087-resize_3-target.png,250,1.9505,1.5,11074,250,feet,jsons/v1_VE250_randls_16_rotated.json,940074,1135873,47,Man
81,790950,DepthScenes,duration_manipulation_targetAtFixation,jsons/v1_VE250_randls_16_rotated.json,http://54.235.29.9/FacialAge/BNav_EC2/DepthDuration/v2_depth_duration_MTurk/v2_DepthDuration_HTML.html#404,404,1280,632,1920,1080,9-18-2022,11-17-1,82,depth_duration_stimuli/000682_2014-06-08_23-14-58_260595134347_rgbf000041-resize_5/000682_2014-06-08_23-14-58_260595134347_rgbf000041-resize_5-target.png,250,2.7239999999999998,2.5,4480,249,feet,jsons/v1_VE250_randls_16_rotated.json,940074,1135873,47,Man
82,790950,DepthScenes,duration_manipulation_targetAtFixation,jsons/v1_VE250_randls_16_rotated.json,http://54.235.29.9/FacialAge/BNav_EC2/DepthDuration/v2_depth_duration_MTurk/v2_DepthDuration_HTML.html#404,404,1280,632,1920,1080,9-18-2022,11-17-1,83,depth_duration_stimuli/002568_2014-06-24_13-59-21_094959634447_rgbf000062-resize_4/002568_2014-06-24_13-59-21_094959634447_rgbf000062-resize_4-target.png,250,3.015,6.0,5141,250,feet,jsons/v1_VE250_randls_16_rotated.json,940074,1135873,47,Man
83,790950,DepthScenes,duration_manipulation_targetAtFixation,jsons/v1_VE250_randls_16_rotated.json,http://54.235.29.9/FacialAge/BNav_EC2/DepthDuration/v2_depth_duration_MTurk/v2_DepthDuration_HTML.html#404,404,1280,632,1920,1080,9-18-2022,11-17-1,84,depth_duration_stimuli/003492_2014-05-21_15-50-55_094959634447_rgbf000828-resize_1/003492_2014-05-21_15-50-55_094959634447_rgbf000828-resize_1-target.png,250,4.06875,7.0,3481,250,feet,jsons/v1_VE250_randls_16_rotated.json,940074,1135873,47,Man
84,790950,DepthScenes,duration_manipulation_targetAtFixation,jsons/v1_VE250_randls_16_rotated.json,http://54.235.29.9/FacialAge/BNav_EC2/DepthDuration/v2_depth_duration_MTurk/v2_DepthDuration_HTML.html#404,404,1280,632,1920,1080,9-18-2022,11-17-1,85,depth_duration_stimuli/002953_2014-06-08_17-32-18_094959634447_rgbf000059-resize_5/002953_2014-06-08_17-32-18_094959634447_rgbf000059-resize_5-target.png,250,1.551,1.0,2266,250,feet,jsons/v1_VE250_randls_16_rotated.json,940074,1135873,47,Man
85,790950,DepthScenes,duration_manipulation_targetAtFixation,jsons/v1_VE250_randls_16_rotated.json,http://54.235.29.9/FacialAge/BNav_EC2/DepthDuration/v2_depth_duration_MTurk/v2_DepthDuration_HTML.html#404,404,1280,632,1920,1080,9-18-2022,11-17-1,86,depth_duration_stimuli/000878_2014-06-08_22-52-45_260595134347_rgbf000045-resize_2/000878_2014-06-08_22-52-45_260595134347_rgbf000045-resize_2-target.png,250,2.092,3.0,7011,250,feet,jsons/v1_VE250_randls_16_rotated.json,940074,1135873,47,Man
86,790950,DepthScenes,duration_manipulation_targetAtFixation,jsons/v1_VE250_randls_16_rotated.json,http://54.235.29.9/FacialAge/BNav_EC2/DepthDuration/v2_depth_duration_MTurk/v2_DepthDuration_HTML.html#404,404,1280,632,1920,1080,9-18-2022,11-17-1,87,depth_duration_stimuli/000191_2014-05-12_17-07-38_260595134347_rgbf000199-resize_0/000191_2014-05-12_17-07-38_260595134347_rgbf000199-resize_0-target.png,250,3.7995,7.0,4511,250,feet,jsons/v1_VE250_randls_16_rotated.json,940074,1135873,47,Man
87,790950,DepthScenes,duration_manipulation_targetAtFixation,jsons/v1_VE250_randls_16_rotated.json,http://54.235.29.9/FacialAge/BNav_EC2/DepthDuration/v2_depth_duration_MTurk/v2_DepthDuration_HTML.html#404,404,1280,632,1920,1080,9-18-2022,11-17-1,88,depth_duration_stimuli/000493_2014-06-09_21-01-18_260595134347_rgbf000196-resize_3/000493_2014-06-09_21-01-18_260595134347_rgbf000196-resize_3-target.png,250,3.44,5.5,5450,250,feet,jsons/v1_VE250_randls_16_rotated.json,940074,1135873,47,Man
88,790950,DepthScenes,duration_manipulation_targetAtFixation,jsons/v1_VE250_randls_16_rotated.json,http://54.235.29.9/FacialAge/BNav_EC2/DepthDuration/v2_depth_duration_MTurk/v2_DepthDuration_HTML.html#404,404,1280,632,1920,1080,9-18-2022,11-17-1,89,depth_duration_stimuli/002949_2014-06-26_15-57-42_094959634447_rgbf000079-resize_1/002949_2014-06-26_15-57-42_094959634447_rgbf000079-resize_1-target.png,250,1.8915,2.0,4309,250,feet,jsons/v1_VE250_randls_16_rotated.json,940074,1135873,47,Man
89,790950,DepthScenes,duration_manipulation_targetAtFixation,jsons/v1_VE250_randls_16_rotated.json,http://54.235.29.9/FacialAge/BNav_EC2/DepthDuration/v2_depth_duration_MTurk/v2_DepthDuration_HTML.html#404,404,1280,632,1920,1080,9-18-2022,11-17-1,90,depth_duration_stimuli/000522_2014-06-08_13-35-06_260595134347_rgbf000244-resize_1/000522_2014-06-08_13-35-06_260595134347_rgbf000244-resize_1-target.png,250,2.3715,1.0,2300,250,feet,jsons/v1_VE250_randls_16_rotated.json,940074,1135873,47,Man
90,790950,DepthScenes,duration_manipulation_targetAtFixation,jsons/v1_VE250_randls_16_rotated.json,http://54.235.29.9/FacialAge/BNav_EC2/DepthDuration/v2_depth_duration_MTurk/v2_DepthDuration_HTML.html#404,404,1280,632,1920,1080,9-18-2022,11-17-1,91,depth_duration_stimuli/003587_2014-05-23_16-48-02_094959634447_rgbf002384-resize_2/003587_2014-05-23_16-48-02_094959634447_rgbf002384-resize_2-target.png,250,1.357,1.0,4332,249,feet,jsons/v1_VE250_randls_16_rotated.json,940074,1135873,47,Man
91,790950,DepthScenes,duration_manipulation_targetAtFixation,jsons/v1_VE250_randls_16_rotated.json,http://54.235.29.9/FacialAge/BNav_EC2/DepthDuration/v2_depth_duration_MTurk/v2_DepthDuration_HTML.html#404,404,1280,632,1920,1080,9-18-2022,11-17-1,92,depth_duration_stimuli/001167_2014-06-17_15-38-07_260595134347_rgbf000108-resize_0/001167_2014-06-17_15-38-07_260595134347_rgbf000108-resize_0-target.png,250,1.8505,2.0,2071,249,feet,jsons/v1_VE250_randls_16_rotated.json,940074,1135873,47,Man
92,790950,DepthScenes,duration_manipulation_targetAtFixation,jsons/v1_VE250_randls_16_rotated.json,http://54.235.29.9/FacialAge/BNav_EC2/DepthDuration/v2_depth_duration_MTurk/v2_DepthDuration_HTML.html#404,404,1280,632,1920,1080,9-18-2022,11-17-1,93,depth_duration_stimuli/000556_2014-06-09_22-42-56_260595134347_rgbf000214-resize_1/000556_2014-06-09_22-42-56_260595134347_rgbf000214-resize_1-target.png,250,4.8415,7.0,12438,250,feet,jsons/v1_VE250_randls_16_rotated.json,940074,1135873,47,Man
93,790950,DepthScenes,duration_manipulation_targetAtFixation,jsons/v1_VE250_randls_16_rotated.json,http://54.235.29.9/FacialAge/BNav_EC2/DepthDuration/v2_depth_duration_MTurk/v2_DepthDuration_HTML.html#404,404,1280,632,1920,1080,9-18-2022,11-17-1,94,depth_duration_stimuli/001158_2014-06-17_15-32-16_260595134347_rgbf000138-resize_2/001158_2014-06-17_15-32-16_260595134347_rgbf000138-resize_2-target.png,250,4.5315,9.0,4921,250,feet,jsons/v1_VE250_randls_16_rotated.json,940074,1135873,47,Man
94,790950,DepthScenes,duration_manipulation_targetAtFixation,jsons/v1_VE250_randls_16_rotated.json,http://54.235.29.9/FacialAge/BNav_EC2/DepthDuration/v2_depth_duration_MTurk/v2_DepthDuration_HTML.html#404,404,1280,632,1920,1080,9-18-2022,11-17-1,95,depth_duration_stimuli/003129_2014-05-12_10-48-10_094959634447_rgbf000100-resize_0/003129_2014-05-12_10-48-10_094959634447_rgbf000100-resize_0-target.png,250,4.9305,7.0,5524,249,feet,jsons/v1_VE250_randls_16_rotated.json,940074,1135873,47,Man
95,790950,DepthScenes,duration_manipulation_targetAtFixation,jsons/v1_VE250_randls_16_rotated.json,http://54.235.29.9/FacialAge/BNav_EC2/DepthDuration/v2_depth_duration_MTurk/v2_DepthDuration_HTML.html#404,404,1280,632,1920,1080,9-18-2022,11-17-1,96,depth_duration_stimuli/000414_2014-06-04_19-49-13_260595134347_rgbf000044-resize_0/000414_2014-06-04_19-49-13_260595134347_rgbf000044-resize_0-target.png,250,4.329,8.0,4450,249,feet,jsons/v1_VE250_randls_16_rotated.json,940074,1135873,47,Man
96,790950,DepthScenes,duration_manipulation_targetAtFixation,jsons/v1_VE250_randls_16_rotated.json,http://54.235.29.9/FacialAge/BNav_EC2/DepthDuration/v2_depth_duration_MTurk/v2_DepthDuration_HTML.html#404,404,1280,632,1920,1080,9-18-2022,11-17-1,97,depth_duration_stimuli/001136_2014-06-17_15-19-41_260595134347_rgbf000076-resize_3/001136_2014-06-17_15-19-41_260595134347_rgbf000076-resize_3-target.png,250,1.8655,2.5,5584,249,feet,jsons/v1_VE250_randls_16_rotated.json,940074,1135873,47,Man
97,790950,DepthScenes,duration_manipulation_targetAtFixation,jsons/v1_VE250_randls_16_rotated.json,http://54.235.29.9/FacialAge/BNav_EC2/DepthDuration/v2_depth_duration_MTurk/v2_DepthDuration_HTML.html#404,404,1280,632,1920,1080,9-18-2022,11-17-1,98,depth_duration_stimuli/001164_2014-06-17_15-35-46_260595134347_rgbf000085-resize_3/001164_2014-06-17_15-35-46_260595134347_rgbf000085-resize_3-target.png,250,2.354,4.0,2120,249,feet,jsons/v1_VE250_randls_16_rotated.json,940074,1135873,47,Man
98,790950,DepthScenes,duration_manipulation_targetAtFixation,jsons/v1_VE250_randls_16_rotated.json,http://54.235.29.9/FacialAge/BNav_EC2/DepthDuration/v2_depth_duration_MTurk/v2_DepthDuration_HTML.html#404,404,1280,632,1920,1080,9-18-2022,11-17-1,99,depth_duration_stimuli/001222_2014-06-17_16-24-06_260595134347_rgbf000073-resize_0/001222_2014-06-17_16-24-06_260595134347_rgbf000073-resize-original.jpg,250,1.4385,0.0,3090,249,feet,jsons/v1_VE250_randls_16_rotated.json,940074,1135873,47,Man
99,790950,DepthScenes,duration_manipulation_targetAtFixation,jsons/v1_VE250_randls_16_rotated.json,http://54.235.29.9/FacialAge/BNav_EC2/DepthDuration/v2_depth_duration_MTurk/v2_DepthDuration_HTML.html#404,404,1280,632,1920,1080,9-18-2022,11-17-1,100,depth_duration_stimuli/000943_2014-06-09_19-31-07_260595134347_rgbf000128-resize_1/000943_2014-06-09_19-31-07_260595134347_rgbf000128-resize_1-target.png,250,1.9765,3.0,4350,250,feet,jsons/v1_VE250_randls_16_rotated.json,940074,1135873,47,Man
100,790950,DepthScenes,duration_manipulation_targetAtFixation,jsons/v1_VE250_randls_16_rotated.json,http://54.235.29.9/FacialAge/BNav_EC2/DepthDuration/v2_depth_duration_MTurk/v2_DepthDuration_HTML.html#404,404,1280,632,1920,1080,9-18-2022,11-17-1,101,depth_duration_stimuli/003070_2014-06-15_14-58-27_094959634447_rgbf000150-resize_3/003070_2014-06-15_14-58-27_094959634447_rgbf000150-resize_3-target.png,250,2.9415,6.5,4655,250,feet,jsons/v1_VE250_randls_16_rotated.json,940074,1135873,47,Man
101,790950,DepthScenes,duration_manipulation_targetAtFixation,jsons/v1_VE250_randls_16_rotated.json,http://54.235.29.9/FacialAge/BNav_EC2/DepthDuration/v2_depth_duration_MTurk/v2_DepthDuration_HTML.html#404,404,1280,632,1920,1080,9-18-2022,11-17-1,102,depth_duration_stimuli/002444_2014-06-28_20-32-08_260595134347_rgbf000027-resize_0/002444_2014-06-28_20-32-08_260595134347_rgbf000027-resize_0-target.png,250,4.388999999999999,10.0,4482,250,feet,jsons/v1_VE250_randls_16_rotated.json,940074,1135873,47,Man
102,790950,DepthScenes,duration_manipulation_targetAtFixation,jsons/v1_VE250_randls_16_rotated.json,http://54.235.29.9/FacialAge/BNav_EC2/DepthDuration/v2_depth_duration_MTurk/v2_DepthDuration_HTML.html#404,404,1280,632,1920,1080,9-18-2022,11-17-1,103,depth_duration_stimuli/000436_2014-06-09_22-25-11_260595134347_rgbf000137-resize_1/000436_2014-06-09_22-25-11_260595134347_rgbf000137-resize_1-target.png,250,4.0705,9.5,7647,250,feet,jsons/v1_VE250_randls_16_rotated.json,940074,1135873,47,Man
103,790950,DepthScenes,duration_manipulation_targetAtFixation,jsons/v1_VE250_randls_16_rotated.json,http://54.235.29.9/FacialAge/BNav_EC2/DepthDuration/v2_depth_duration_MTurk/v2_DepthDuration_HTML.html#404,404,1280,632,1920,1080,9-18-2022,11-17-1,104,depth_duration_stimuli/003490_2014-05-21_15-50-11_094959634447_rgbf000101-resize_3/003490_2014-05-21_15-50-11_094959634447_rgbf000101-resize_3-target.png,250,3.6445,7.0,3900,249,feet,jsons/v1_VE250_randls_16_rotated.json,940074,1135873,47,Man
104,790950,DepthScenes,duration_manipulation_targetAtFixation,jsons/v1_VE250_randls_16_rotated.json,http://54.235.29.9/FacialAge/BNav_EC2/DepthDuration/v2_depth_duration_MTurk/v2_DepthDuration_HTML.html#404,404,1280,632,1920,1080,9-18-2022,11-17-1,105,depth_duration_stimuli/001175_2014-06-17_15-45-55_260595134347_rgbf000129-resize_4/001175_2014-06-17_15-45-55_260595134347_rgbf000129-resize_4-target.png,250,4.255,12.0,4457,250,feet,jsons/v1_VE250_randls_16_rotated.json,940074,1135873,47,Man
105,790950,DepthScenes,duration_manipulation_targetAtFixation,jsons/v1_VE250_randls_16_rotated.json,http://54.235.29.9/FacialAge/BNav_EC2/DepthDuration/v2_depth_duration_MTurk/v2_DepthDuration_HTML.html#404,404,1280,632,1920,1080,9-18-2022,11-17-1,106,depth_duration_stimuli/002323_2014-06-28_20-01-54_260595134347_rgbf000051-resize_4/002323_2014-06-28_20-01-54_260595134347_rgbf000051-resize_4-target.png,250,3.7310000000000003,6.0,4501,250,feet,jsons/v1_VE250_randls_16_rotated.json,940074,1135873,47,Man
106,790950,DepthScenes,duration_manipulation_targetAtFixation,jsons/v1_VE250_randls_16_rotated.json,http://54.235.29.9/FacialAge/BNav_EC2/DepthDuration/v2_depth_duration_MTurk/v2_DepthDuration_HTML.html#404,404,1280,632,1920,1080,9-18-2022,11-17-1,107,depth_duration_stimuli/000917_2014-06-09_22-45-29_260595134347_rgbf000149-resize_3/000917_2014-06-09_22-45-29_260595134347_rgbf000149-resize_3-target.png,250,4.1865,8.0,3749,250,feet,jsons/v1_VE250_randls_16_rotated.json,940074,1135873,47,Man
107,790950,DepthScenes,duration_manipulation_targetAtFixation,jsons/v1_VE250_randls_16_rotated.json,http://54.235.29.9/FacialAge/BNav_EC2/DepthDuration/v2_depth_duration_MTurk/v2_DepthDuration_HTML.html#404,404,1280,632,1920,1080,9-18-2022,11-17-1,108,depth_duration_stimuli/000709_2014-06-08_13-51-55_260595134347_rgbf000068-resize_3/000709_2014-06-08_13-51-55_260595134347_rgbf000068-resize_3-target.png,250,1.8030000000000002,3.0,3078,250,feet,jsons/v1_VE250_randls_16_rotated.json,940074,1135873,47,Man
108,790950,DepthScenes,duration_manipulation_targetAtFixation,jsons/v1_VE250_randls_16_rotated.json,http://54.235.29.9/FacialAge/BNav_EC2/DepthDuration/v2_depth_duration_MTurk/v2_DepthDuration_HTML.html#404,404,1280,632,1920,1080,9-18-2022,11-17-1,109,depth_duration_stimuli/002057_2014-06-24_21-00-13_260595134347_rgbf000120-resize_1/002057_2014-06-24_21-00-13_260595134347_rgbf000120-resize_1-target.png,250,2.967,7.0,7094,250,feet,jsons/v1_VE250_randls_16_rotated.json,940074,1135873,47,Man
109,790950,DepthScenes,duration_manipulation_targetAtFixation,jsons/v1_VE250_randls_16_rotated.json,http://54.235.29.9/FacialAge/BNav_EC2/DepthDuration/v2_depth_duration_MTurk/v2_DepthDuration_HTML.html#404,404,1280,632,1920,1080,9-18-2022,11-17-1,110,depth_duration_stimuli/001815_2014-06-26_20-52-55_260595134347_rgbf000020-resize_0/001815_2014-06-26_20-52-55_260595134347_rgbf000020-resize_0-target.png,250,3.3865,6.0,5204,250,feet,jsons/v1_VE250_randls_16_rotated.json,940074,1135873,47,Man
110,790950,DepthScenes,duration_manipulation_targetAtFixation,jsons/v1_VE250_randls_16_rotated.json,http://54.235.29.9/FacialAge/BNav_EC2/DepthDuration/v2_depth_duration_MTurk/v2_DepthDuration_HTML.html#404,404,1280,632,1920,1080,9-18-2022,11-17-1,111,depth_duration_stimuli/001808_2014-06-26_20-50-58_260595134347_rgbf000029-resize_1/001808_2014-06-26_20-50-58_260595134347_rgbf000029-resize_1-target.png,250,4.249,8.0,4427,250,feet,jsons/v1_VE250_randls_16_rotated.json,940074,1135873,47,Man
111,790950,DepthScenes,duration_manipulation_targetAtFixation,jsons/v1_VE250_randls_16_rotated.json,http://54.235.29.9/FacialAge/BNav_EC2/DepthDuration/v2_depth_duration_MTurk/v2_DepthDuration_HTML.html#404,404,1280,632,1920,1080,9-18-2022,11-17-1,112,depth_duration_stimuli/002209_2014-06-28_18-36-10_260595134347_rgbf000051-resize_1/002209_2014-06-28_18-36-10_260595134347_rgbf000051-resize_1-target.png,250,2.057,2.5,3944,249,feet,jsons/v1_VE250_randls_16_rotated.json,940074,1135873,47,Man
112,790950,DepthScenes,duration_manipulation_targetAtFixation,jsons/v1_VE250_randls_16_rotated.json,http://54.235.29.9/FacialAge/BNav_EC2/DepthDuration/v2_depth_duration_MTurk/v2_DepthDuration_HTML.html#404,404,1280,632,1920,1080,9-18-2022,11-17-1,113,depth_duration_stimuli/002763_2014-06-22_19-13-10_094959634447_rgbf000075-resize_4/002763_2014-06-22_19-13-10_094959634447_rgbf000075-resize_4-target.png,250,1.68375,4.0,4914,249,feet,jsons/v1_VE250_randls_16_rotated.json,940074,1135873,47,Man
113,790950,DepthScenes,duration_manipulation_targetAtFixation,jsons/v1_VE250_randls_16_rotated.json,http://54.235.29.9/FacialAge/BNav_EC2/DepthDuration/v2_depth_duration_MTurk/v2_DepthDuration_HTML.html#404,404,1280,632,1920,1080,9-18-2022,11-17-1,114,depth_duration_stimuli/002639_2014-06-24_14-51-37_094959634447_rgbf000074-resize_4/002639_2014-06-24_14-51-37_094959634447_rgbf000074-resize_4-target.png,250,4.0375,8.5,4506,249,feet,jsons/v1_VE250_randls_16_rotated.json,940074,1135873,47,Man
114,790950,DepthScenes,duration_manipulation_targetAtFixation,jsons/v1_VE250_randls_16_rotated.json,http://54.235.29.9/FacialAge/BNav_EC2/DepthDuration/v2_depth_duration_MTurk/v2_DepthDuration_HTML.html#404,404,1280,632,1920,1080,9-18-2022,11-17-1,115,depth_duration_stimuli/003292_2014-05-14_21-53-49_094959634447_rgbf000100-resize_2/003292_2014-05-14_21-53-49_094959634447_rgbf000100-resize_2-target.png,250,3.4815,6.0,4457,250,feet,jsons/v1_VE250_randls_16_rotated.json,940074,1135873,47,Man
115,790950,DepthScenes,duration_manipulation_targetAtFixation,jsons/v1_VE250_randls_16_rotated.json,http://54.235.29.9/FacialAge/BNav_EC2/DepthDuration/v2_depth_duration_MTurk/v2_DepthDuration_HTML.html#404,404,1280,632,1920,1080,9-18-2022,11-17-1,116,depth_duration_stimuli/001214_2014-06-17_16-13-55_260595134347_rgbf000111-resize_0/001214_2014-06-17_16-13-55_260595134347_rgbf000111-resize_0-target.png,250,2.6505,5.0,2497,250,feet,jsons/v1_VE250_randls_16_rotated.json,940074,1135873,47,Man
116,790950,DepthScenes,duration_manipulation_targetAtFixation,jsons/v1_VE250_randls_16_rotated.json,http://54.235.29.9/FacialAge/BNav_EC2/DepthDuration/v2_depth_duration_MTurk/v2_DepthDuration_HTML.html#404,404,1280,632,1920,1080,9-18-2022,11-17-1,117,depth_duration_stimuli/000810_2014-06-08_17-20-01_260595134347_rgbf000105-resize_0/000810_2014-06-08_17-20-01_260595134347_rgbf000105-resize_0-target.png,250,1.4865,2.5,5754,250,feet,jsons/v1_VE250_randls_16_rotated.json,940074,1135873,47,Man
117,790950,DepthScenes,duration_manipulation_targetAtFixation,jsons/v1_VE250_randls_16_rotated.json,http://54.235.29.9/FacialAge/BNav_EC2/DepthDuration/v2_depth_duration_MTurk/v2_DepthDuration_HTML.html#404,404,1280,632,1920,1080,9-18-2022,11-17-1,118,depth_duration_stimuli/000677_2014-06-08_23-10-32_260595134347_rgbf000158-resize_6/000677_2014-06-08_23-10-32_260595134347_rgbf000158-resize_6-target.png,250,3.556,6.0,2952,249,feet,jsons/v1_VE250_randls_16_rotated.json,940074,1135873,47,Man
118,790950,DepthScenes,duration_manipulation_targetAtFixation,jsons/v1_VE250_randls_16_rotated.json,http://54.235.29.9/FacialAge/BNav_EC2/DepthDuration/v2_depth_duration_MTurk/v2_DepthDuration_HTML.html#404,404,1280,632,1920,1080,9-18-2022,11-17-1,119,depth_duration_stimuli/001029_2014-06-08_13-17-57_260595134347_rgbf000065-resize_1/001029_2014-06-08_13-17-57_260595134347_rgbf000065-resize_1-target.png,250,3.0835,5.0,6912,250,feet,jsons/v1_VE250_randls_16_rotated.json,940074,1135873,47,Man
119,790950,DepthScenes,duration_manipulation_targetAtFixation,jsons/v1_VE250_randls_16_rotated.json,http://54.235.29.9/FacialAge/BNav_EC2/DepthDuration/v2_depth_duration_MTurk/v2_DepthDuration_HTML.html#404,404,1280,632,1920,1080,9-18-2022,11-17-1,120,depth_duration_stimuli/000787_2014-06-08_22-33-53_260595134347_rgbf000175-resize_1/000787_2014-06-08_22-33-53_260595134347_rgbf000175-resize-original.jpg,250,4.784,0.0,3397,249,feet,jsons/v1_VE250_randls_16_rotated.json,940074,1135873,47,Man
120,790950,DepthScenes,duration_manipulation_targetAtFixation,jsons/v1_VE250_randls_16_rotated.json,http://54.235.29.9/FacialAge/BNav_EC2/DepthDuration/v2_depth_duration_MTurk/v2_DepthDuration_HTML.html#404,404,1280,632,1920,1080,9-18-2022,11-17-1,121,depth_duration_stimuli/002657_2014-06-13_15-29-54_094959634447_rgbf000150-resize_1/002657_2014-06-13_15-29-54_094959634447_rgbf000150-resize_1-target.png,250,4.919,7.5,6335,249,feet,jsons/v1_VE250_randls_16_rotated.json,940074,1135873,47,Man
121,790950,DepthScenes,duration_manipulation_targetAtFixation,jsons/v1_VE250_randls_16_rotated.json,http://54.235.29.9/FacialAge/BNav_EC2/DepthDuration/v2_depth_duration_MTurk/v2_DepthDuration_HTML.html#404,404,1280,632,1920,1080,9-18-2022,11-17-1,122,depth_duration_stimuli/002375_2014-06-28_20-13-44_260595134347_rgbf000032-resize_1/002375_2014-06-28_20-13-44_260595134347_rgbf000032-resize_1-target.png,250,4.0175,3.5,6090,249,feet,jsons/v1_VE250_randls_16_rotated.json,940074,1135873,47,Man
122,790950,DepthScenes,duration_manipulation_targetAtFixation,jsons/v1_VE250_randls_16_rotated.json,http://54.235.29.9/FacialAge/BNav_EC2/DepthDuration/v2_depth_duration_MTurk/v2_DepthDuration_HTML.html#404,404,1280,632,1920,1080,9-18-2022,11-17-1,123,depth_duration_stimuli/000749_2014-06-08_21-55-06_260595134347_rgbf000070-resize_2/000749_2014-06-08_21-55-06_260595134347_rgbf000070-resize_2-target.png,250,2.331,5.0,2018,250,feet,jsons/v1_VE250_randls_16_rotated.json,940074,1135873,47,Man
123,790950,DepthScenes,duration_manipulation_targetAtFixation,jsons/v1_VE250_randls_16_rotated.json,http://54.235.29.9/FacialAge/BNav_EC2/DepthDuration/v2_depth_duration_MTurk/v2_DepthDuration_HTML.html#404,404,1280,632,1920,1080,9-18-2022,11-17-1,124,depth_duration_stimuli/002788_2014-06-22_19-36-03_094959634447_rgbf000088-resize_2/002788_2014-06-22_19-36-03_094959634447_rgbf000088-resize_2-target.png,250,1.6465,4.0,2206,249,feet,jsons/v1_VE250_randls_16_rotated.json,940074,1135873,47,Man
124,790950,DepthScenes,duration_manipulation_targetAtFixation,jsons/v1_VE250_randls_16_rotated.json,http://54.235.29.9/FacialAge/BNav_EC2/DepthDuration/v2_depth_duration_MTurk/v2_DepthDuration_HTML.html#404,404,1280,632,1920,1080,9-18-2022,11-17-1,125,depth_duration_stimuli/001032_2014-06-08_13-23-17_260595134347_rgbf000021-resize_3/001032_2014-06-08_13-23-17_260595134347_rgbf000021-resize_3-target.png,250,3.2725,6.5,5638,249,feet,jsons/v1_VE250_randls_16_rotated.json,940074,1135873,47,Man
125,790950,DepthScenes,duration_manipulation_targetAtFixation,jsons/v1_VE250_randls_16_rotated.json,http://54.235.29.9/FacialAge/BNav_EC2/DepthDuration/v2_depth_duration_MTurk/v2_DepthDuration_HTML.html#404,404,1280,632,1920,1080,9-18-2022,11-17-1,126,depth_duration_stimuli/001059_2014-06-08_21-53-27_260595134347_rgbf000061-resize_4/001059_2014-06-08_21-53-27_260595134347_rgbf000061-resize_4-target.png,250,2.4185,5.0,1956,250,feet,jsons/v1_VE250_randls_16_rotated.json,940074,1135873,47,Man
126,790950,DepthScenes,duration_manipulation_targetAtFixation,jsons/v1_VE250_randls_16_rotated.json,http://54.235.29.9/FacialAge/BNav_EC2/DepthDuration/v2_depth_duration_MTurk/v2_DepthDuration_HTML.html#404,404,1280,632,1920,1080,9-18-2022,11-17-1,127,depth_duration_stimuli/001450_2014-06-19_17-02-03_260595134347_rgbf000203-resize_4/001450_2014-06-19_17-02-03_260595134347_rgbf000203-resize_4-target.png,250,4.0106666666667,9.0,5191,249,feet,jsons/v1_VE250_randls_16_rotated.json,940074,1135873,47,Man
127,790950,DepthScenes,duration_manipulation_targetAtFixation,jsons/v1_VE250_randls_16_rotated.json,http://54.235.29.9/FacialAge/BNav_EC2/DepthDuration/v2_depth_duration_MTurk/v2_DepthDuration_HTML.html#404,404,1280,632,1920,1080,9-18-2022,11-17-1,128,depth_duration_stimuli/001449_2014-06-19_17-01-27_260595134347_rgbf000116-resize_2/001449_2014-06-19_17-01-27_260595134347_rgbf000116-resize_2-target.png,250,3.452,5.0,4119,250,feet,jsons/v1_VE250_randls_16_rotated.json,940074,1135873,47,Man
128,790950,DepthScenes,duration_manipulation_targetAtFixation,jsons/v1_VE250_randls_16_rotated.json,http://54.235.29.9/FacialAge/BNav_EC2/DepthDuration/v2_depth_duration_MTurk/v2_DepthDuration_HTML.html#404,404,1280,632,1920,1080,9-18-2022,11-17-1,129,depth_duration_stimuli/001571_2014-06-20_17-21-32_260595134347_rgbf000089-resize_1/001571_2014-06-20_17-21-32_260595134347_rgbf000089-resize_1-target.png,250,1.86,2.5,5478,250,feet,jsons/v1_VE250_randls_16_rotated.json,940074,1135873,47,Man
129,790950,DepthScenes,duration_manipulation_targetAtFixation,jsons/v1_VE250_randls_16_rotated.json,http://54.235.29.9/FacialAge/BNav_EC2/DepthDuration/v2_depth_duration_MTurk/v2_DepthDuration_HTML.html#404,404,1280,632,1920,1080,9-18-2022,11-17-1,130,depth_duration_stimuli/002272_2014-06-28_18-53-56_260595134347_rgbf000067-resize_2/002272_2014-06-28_18-53-56_260595134347_rgbf000067-resize_2-target.png,250,1.138,1.0,3501,249,feet,jsons/v1_VE250_randls_16_rotated.json,940074,1135873,47,Man
130,790950,DepthScenes,duration_manipulation_targetAtFixation,jsons/v1_VE250_randls_16_rotated.json,http://54.235.29.9/FacialAge/BNav_EC2/DepthDuration/v2_depth_duration_MTurk/v2_DepthDuration_HTML.html#404,404,1280,632,1920,1080,9-18-2022,11-17-1,131,depth_duration_stimuli/001132_2014-06-17_14-48-54_260595134347_rgbf000100-resize_2/001132_2014-06-17_14-48-54_260595134347_rgbf000100-resize_2-target.png,250,3.753,5.0,8191,250,feet,jsons/v1_VE250_randls_16_rotated.json,940074,1135873,47,Man
131,790950,DepthScenes,duration_manipulation_targetAtFixation,jsons/v1_VE250_randls_16_rotated.json,http://54.235.29.9/FacialAge/BNav_EC2/DepthDuration/v2_depth_duration_MTurk/v2_DepthDuration_HTML.html#404,404,1280,632,1920,1080,9-18-2022,11-17-1,132,depth_duration_stimuli/001133_2014-06-17_14-49-16_260595134347_rgbf000100-resize_0/001133_2014-06-17_14-49-16_260595134347_rgbf000100-resize_0-target.png,250,4.2115,8.5,4301,249,feet,jsons/v1_VE250_randls_16_rotated.json,940074,1135873,47,Man
132,790950,DepthScenes,duration_manipulation_targetAtFixation,jsons/v1_VE250_randls_16_rotated.json,http://54.235.29.9/FacialAge/BNav_EC2/DepthDuration/v2_depth_duration_MTurk/v2_DepthDuration_HTML.html#404,404,1280,632,1920,1080,9-18-2022,11-17-1,133,depth_duration_stimuli/002467_2014-06-28_20-38-07_260595134347_rgbf000026-resize_2/002467_2014-06-28_20-38-07_260595134347_rgbf000026-resize_2-target.png,250,4.742,10.0,3941,249,feet,jsons/v1_VE250_randls_16_rotated.json,940074,1135873,47,Man
133,790950,DepthScenes,duration_manipulation_targetAtFixation,jsons/v1_VE250_randls_16_rotated.json,http://54.235.29.9/FacialAge/BNav_EC2/DepthDuration/v2_depth_duration_MTurk/v2_DepthDuration_HTML.html#404,404,1280,632,1920,1080,9-18-2022,11-17-1,134,depth_duration_stimuli/002570_2014-06-24_13-59-54_094959634447_rgbf000059-resize_0/002570_2014-06-24_13-59-54_094959634447_rgbf000059-resize_0-target.png,250,4.037,7.0,3518,249,feet,jsons/v1_VE250_randls_16_rotated.json,940074,1135873,47,Man
134,790950,DepthScenes,duration_manipulation_targetAtFixation,jsons/v1_VE250_randls_16_rotated.json,http://54.235.29.9/FacialAge/BNav_EC2/DepthDuration/v2_depth_duration_MTurk/v2_DepthDuration_HTML.html#404,404,1280,632,1920,1080,9-18-2022,11-17-1,135,depth_duration_stimuli/000375_2014-06-08_11-17-29_260595134347_rgbf000133-resize_2/000375_2014-06-08_11-17-29_260595134347_rgbf000133-resize-original.jpg,250,4.718,0.0,3092,250,feet,jsons/v1_VE250_randls_16_rotated.json,940074,1135873,47,Man
135,790950,DepthScenes,duration_manipulation_targetAtFixation,jsons/v1_VE250_randls_16_rotated.json,http://54.235.29.9/FacialAge/BNav_EC2/DepthDuration/v2_depth_duration_MTurk/v2_DepthDuration_HTML.html#404,404,1280,632,1920,1080,9-18-2022,11-17-1,136,depth_duration_stimuli/000137_2014-05-20_17-04-49_260595134347_rgbf000120-resize_1/000137_2014-05-20_17-04-49_260595134347_rgbf000120-resize_1-target.png,250,3.786,6.0,2650,249,feet,jsons/v1_VE250_randls_16_rotated.json,940074,1135873,47,Man
136,790950,DepthScenes,duration_manipulation_targetAtFixation,jsons/v1_VE250_randls_16_rotated.json,http://54.235.29.9/FacialAge/BNav_EC2/DepthDuration/v2_depth_duration_MTurk/v2_DepthDuration_HTML.html#404,404,1280,632,1920,1080,9-18-2022,11-17-1,137,depth_duration_stimuli/000736_2014-06-08_18-24-15_260595134347_rgbf000206-resize_3/000736_2014-06-08_18-24-15_260595134347_rgbf000206-resize_3-target.png,250,3.515,6.0,3500,250,feet,jsons/v1_VE250_randls_16_rotated.json,940074,1135873,47,Man
137,790950,DepthScenes,duration_manipulation_targetAtFixation,jsons/v1_VE250_randls_16_rotated.json,http://54.235.29.9/FacialAge/BNav_EC2/DepthDuration/v2_depth_duration_MTurk/v2_DepthDuration_HTML.html#404,404,1280,632,1920,1080,9-18-2022,11-17-1,138,depth_duration_stimuli/002340_2014-06-28_20-05-46_260595134347_rgbf000113-resize_0/002340_2014-06-28_20-05-46_260595134347_rgbf000113-resize_0-target.png,250,2.4735,5.0,1926,250,feet,jsons/v1_VE250_randls_16_rotated.json,940074,1135873,47,Man
138,790950,DepthScenes,duration_manipulation_targetAtFixation,jsons/v1_VE250_randls_16_rotated.json,http://54.235.29.9/FacialAge/BNav_EC2/DepthDuration/v2_depth_duration_MTurk/v2_DepthDuration_HTML.html#404,404,1280,632,1920,1080,9-18-2022,11-17-1,139,depth_duration_stimuli/001016_2014-06-09_16-16-10_260595134347_rgbf000112-resize_5/001016_2014-06-09_16-16-10_260595134347_rgbf000112-resize_5-target.png,250,1.6565,2.5,3685,249,feet,jsons/v1_VE250_randls_16_rotated.json,940074,1135873,47,Man
139,790950,DepthScenes,duration_manipulation_targetAtFixation,jsons/v1_VE250_randls_16_rotated.json,http://54.235.29.9/FacialAge/BNav_EC2/DepthDuration/v2_depth_duration_MTurk/v2_DepthDuration_HTML.html#404,404,1280,632,1920,1080,9-18-2022,11-17-1,140,depth_duration_stimuli/000103_2014-05-14_22-01-17_260595134347_rgbf000152-resize_5/000103_2014-05-14_22-01-17_260595134347_rgbf000152-resize_5-target.png,250,1.993,6.0,6753,250,feet,jsons/v1_VE250_randls_16_rotated.json,940074,1135873,47,Man
140,790950,DepthScenes,duration_manipulation_targetAtFixation,jsons/v1_VE250_randls_16_rotated.json,http://54.235.29.9/FacialAge/BNav_EC2/DepthDuration/v2_depth_duration_MTurk/v2_DepthDuration_HTML.html#404,404,1280,632,1920,1080,9-18-2022,11-17-1,141,depth_duration_stimuli/001555_2014-06-20_17-12-10_260595134347_rgbf000065-resize_4/001555_2014-06-20_17-12-10_260595134347_rgbf000065-resize_4-target.png,250,1.633,1.25,4014,250,feet,jsons/v1_VE250_randls_16_rotated.json,940074,1135873,47,Man
141,790950,DepthScenes,duration_manipulation_targetAtFixation,jsons/v1_VE250_randls_16_rotated.json,http://54.235.29.9/FacialAge/BNav_EC2/DepthDuration/v2_depth_duration_MTurk/v2_DepthDuration_HTML.html#404,404,1280,632,1920,1080,9-18-2022,11-17-1,142,depth_duration_stimuli/000665_2014-06-09_20-42-35_260595134347_rgbf000110-resize_1/000665_2014-06-09_20-42-35_260595134347_rgbf000110-resize_1-target.png,250,3.057,4.0,2071,250,feet,jsons/v1_VE250_randls_16_rotated.json,940074,1135873,47,Man
142,790950,DepthScenes,duration_manipulation_targetAtFixation,jsons/v1_VE250_randls_16_rotated.json,http://54.235.29.9/FacialAge/BNav_EC2/DepthDuration/v2_depth_duration_MTurk/v2_DepthDuration_HTML.html#404,404,1280,632,1920,1080,9-18-2022,11-17-1,143,depth_duration_stimuli/001150_2014-06-17_15-27-34_260595134347_rgbf000108-resize_2/001150_2014-06-17_15-27-34_260595134347_rgbf000108-resize_2-target.png,250,4.0325,6.0,3600,250,feet,jsons/v1_VE250_randls_16_rotated.json,940074,1135873,47,Man
143,790950,DepthScenes,duration_manipulation_targetAtFixation,jsons/v1_VE250_randls_16_rotated.json,http://54.235.29.9/FacialAge/BNav_EC2/DepthDuration/v2_depth_duration_MTurk/v2_DepthDuration_HTML.html#404,404,1280,632,1920,1080,9-18-2022,11-17-1,144,depth_duration_stimuli/000483_2014-06-09_20-41-45_260595134347_rgbf000116-resize_4/000483_2014-06-09_20-41-45_260595134347_rgbf000116-resize_4-target.png,250,1.337,1.5,6165,249,feet,jsons/v1_VE250_randls_16_rotated.json,940074,1135873,47,Man
144,790950,DepthScenes,duration_manipulation_targetAtFixation,jsons/v1_VE250_randls_16_rotated.json,http://54.235.29.9/FacialAge/BNav_EC2/DepthDuration/v2_depth_duration_MTurk/v2_DepthDuration_HTML.html#404,404,1280,632,1920,1080,9-18-2022,11-17-1,145,depth_duration_stimuli/000469_2014-06-09_19-42-10_260595134347_rgbf000081-resize_1/000469_2014-06-09_19-42-10_260595134347_rgbf000081-resize_1-target.png,250,1.652,1.0,2468,249,feet,jsons/v1_VE250_randls_16_rotated.json,940074,1135873,47,Man
145,790950,DepthScenes,duration_manipulation_targetAtFixation,jsons/v1_VE250_randls_16_rotated.json,http://54.235.29.9/FacialAge/BNav_EC2/DepthDuration/v2_depth_duration_MTurk/v2_DepthDuration_HTML.html#404,404,1280,632,1920,1080,9-18-2022,11-17-1,146,depth_duration_stimuli/002425_2014-06-28_20-27-29_260595134347_rgbf000031-resize_8/002425_2014-06-28_20-27-29_260595134347_rgbf000031-resize_8-target.png,250,3.8960000000000004,7.0,4213,249,feet,jsons/v1_VE250_randls_16_rotated.json,940074,1135873,47,Man
146,790950,DepthScenes,duration_manipulation_targetAtFixation,jsons/v1_VE250_randls_16_rotated.json,http://54.235.29.9/FacialAge/BNav_EC2/DepthDuration/v2_depth_duration_MTurk/v2_DepthDuration_HTML.html#404,404,1280,632,1920,1080,9-18-2022,11-17-1,147,depth_duration_stimuli/000642_2014-06-08_16-59-25_260595134347_rgbf000098-resize_2/000642_2014-06-08_16-59-25_260595134347_rgbf000098-resize_2-target.png,250,2.8815,6.0,2488,249,feet,jsons/v1_VE250_randls_16_rotated.json,940074,1135873,47,Man
147,790950,DepthScenes,duration_manipulation_targetAtFixation,jsons/v1_VE250_randls_16_rotated.json,http://54.235.29.9/FacialAge/BNav_EC2/DepthDuration/v2_depth_duration_MTurk/v2_DepthDuration_HTML.html#404,404,1280,632,1920,1080,9-18-2022,11-17-1,148,depth_duration_stimuli/003010_2014-06-15_12-54-35_094959634447_rgbf000112-resize_0/003010_2014-06-15_12-54-35_094959634447_rgbf000112-resize_0-target.png,250,3.1185,6.0,3339,249,feet,jsons/v1_VE250_randls_16_rotated.json,940074,1135873,47,Man
148,790950,DepthScenes,duration_manipulation_targetAtFixation,jsons/v1_VE250_randls_16_rotated.json,http://54.235.29.9/FacialAge/BNav_EC2/DepthDuration/v2_depth_duration_MTurk/v2_DepthDuration_HTML.html#404,404,1280,632,1920,1080,9-18-2022,11-17-1,149,depth_duration_stimuli/001810_2014-06-26_20-51-35_260595134347_rgbf000040-resize_3/001810_2014-06-26_20-51-35_260595134347_rgbf000040-resize_3-target.png,250,2.2525,5.0,2001,250,feet,jsons/v1_VE250_randls_16_rotated.json,940074,1135873,47,Man
149,790950,DepthScenes,duration_manipulation_targetAtFixation,jsons/v1_VE250_randls_16_rotated.json,http://54.235.29.9/FacialAge/BNav_EC2/DepthDuration/v2_depth_duration_MTurk/v2_DepthDuration_HTML.html#404,404,1280,632,1920,1080,9-18-2022,11-17-1,150,depth_duration_stimuli/000927_2014-06-09_16-32-30_260595134347_rgbf000123-resize_3/000927_2014-06-09_16-32-30_260595134347_rgbf000123-resize_3-target.png,250,2.6785,5.0,3643,249,feet,jsons/v1_VE250_randls_16_rotated.json,940074,1135873,47,Man
150,790950,DepthScenes,duration_manipulation_targetAtFixation,jsons/v1_VE250_randls_16_rotated.json,http://54.235.29.9/FacialAge/BNav_EC2/DepthDuration/v2_depth_duration_MTurk/v2_DepthDuration_HTML.html#404,404,1280,632,1920,1080,9-18-2022,11-17-1,151,depth_duration_stimuli/001110_2014-06-15_17-25-28_260595134347_rgbf000150-resize_1/001110_2014-06-15_17-25-28_260595134347_rgbf000150-resize_1-target.png,250,1.7115,2.5,4167,250,feet,jsons/v1_VE250_randls_16_rotated.json,940074,1135873,47,Man
151,790950,DepthScenes,duration_manipulation_targetAtFixation,jsons/v1_VE250_randls_16_rotated.json,http://54.235.29.9/FacialAge/BNav_EC2/DepthDuration/v2_depth_duration_MTurk/v2_DepthDuration_HTML.html#404,404,1280,632,1920,1080,9-18-2022,11-17-1,152,depth_duration_stimuli/000569_2014-06-09_22-51-47_260595134347_rgbf000141-resize_3/000569_2014-06-09_22-51-47_260595134347_rgbf000141-resize-original.jpg,250,4.512,0.0,2975,250,feet,jsons/v1_VE250_randls_16_rotated.json,940074,1135873,47,Man
152,790950,DepthScenes,duration_manipulation_targetAtFixation,jsons/v1_VE250_randls_16_rotated.json,http://54.235.29.9/FacialAge/BNav_EC2/DepthDuration/v2_depth_duration_MTurk/v2_DepthDuration_HTML.html#404,404,1280,632,1920,1080,9-18-2022,11-17-1,153,depth_duration_stimuli/003079_2014-06-15_15-18-20_094959634447_rgbf000152-resize_8/003079_2014-06-15_15-18-20_094959634447_rgbf000152-resize_8-target.png,250,2.8775,7.0,5383,249,feet,jsons/v1_VE250_randls_16_rotated.json,940074,1135873,47,Man
153,790950,DepthScenes,duration_manipulation_targetAtFixation,jsons/v1_VE250_randls_16_rotated.json,http://54.235.29.9/FacialAge/BNav_EC2/DepthDuration/v2_depth_duration_MTurk/v2_DepthDuration_HTML.html#404,404,1280,632,1920,1080,9-18-2022,11-17-1,154,depth_duration_stimuli/000506_2014-06-08_23-21-00_260595134347_rgbf000070-resize_7/000506_2014-06-08_23-21-00_260595134347_rgbf000070-resize_7-target.png,250,4.0585,6.25,6355,249,feet,jsons/v1_VE250_randls_16_rotated.json,940074,1135873,47,Man
154,790950,DepthScenes,duration_manipulation_targetAtFixation,jsons/v1_VE250_randls_16_rotated.json,http://54.235.29.9/FacialAge/BNav_EC2/DepthDuration/v2_depth_duration_MTurk/v2_DepthDuration_HTML.html#404,404,1280,632,1920,1080,9-18-2022,11-17-1,155,depth_duration_stimuli/000691_2014-06-08_13-08-50_260595134347_rgbf000132-resize_3/000691_2014-06-08_13-08-50_260595134347_rgbf000132-resize_3-target.png,250,4.1530000000000005,7.0,11725,249,feet,jsons/v1_VE250_randls_16_rotated.json,940074,1135873,47,Man
155,790950,DepthScenes,duration_manipulation_targetAtFixation,jsons/v1_VE250_randls_16_rotated.json,http://54.235.29.9/FacialAge/BNav_EC2/DepthDuration/v2_depth_duration_MTurk/v2_DepthDuration_HTML.html#404,404,1280,632,1920,1080,9-18-2022,11-17-1,156,depth_duration_stimuli/002213_2014-06-28_18-37-58_260595134347_rgbf000055-resize_1/002213_2014-06-28_18-37-58_260595134347_rgbf000055-resize_1-target.png,250,3.62,8.0,4330,250,feet,jsons/v1_VE250_randls_16_rotated.json,940074,1135873,47,Man
156,790950,DepthScenes,duration_manipulation_targetAtFixation,jsons/v1_VE250_randls_16_rotated.json,http://54.235.29.9/FacialAge/BNav_EC2/DepthDuration/v2_depth_duration_MTurk/v2_DepthDuration_HTML.html#404,404,1280,632,1920,1080,9-18-2022,11-17-1,157,depth_duration_stimuli/001828_2014-06-26_21-40-03_260595134347_rgbf000024-resize_0/001828_2014-06-26_21-40-03_260595134347_rgbf000024-resize_0-target.png,250,4.8260000000000005,6.0,3350,250,feet,jsons/v1_VE250_randls_16_rotated.json,940074,1135873,47,Man
157,790950,DepthScenes,duration_manipulation_targetAtFixation,jsons/v1_VE250_randls_16_rotated.json,http://54.235.29.9/FacialAge/BNav_EC2/DepthDuration/v2_depth_duration_MTurk/v2_DepthDuration_HTML.html#404,404,1280,632,1920,1080,9-18-2022,11-17-1,158,depth_duration_stimuli/000009_2014-05-26_14-32-05_260595134347_rgbf000034-resize_3/000009_2014-05-26_14-32-05_260595134347_rgbf000034-resize_3-target.png,250,3.8715,9.5,9199,250,feet,jsons/v1_VE250_randls_16_rotated.json,940074,1135873,47,Man
158,790950,DepthScenes,duration_manipulation_targetAtFixation,jsons/v1_VE250_randls_16_rotated.json,http://54.235.29.9/FacialAge/BNav_EC2/DepthDuration/v2_depth_duration_MTurk/v2_DepthDuration_HTML.html#404,404,1280,632,1920,1080,9-18-2022,11-17-1,159,depth_duration_stimuli/000854_2014-06-09_19-43-13_260595134347_rgbf000066-resize_0/000854_2014-06-09_19-43-13_260595134347_rgbf000066-resize_0-target.png,250,3.068,2.5,7092,249,feet,jsons/v1_VE250_randls_16_rotated.json,940074,1135873,47,Man
159,790950,DepthScenes,duration_manipulation_targetAtFixation,jsons/v1_VE250_randls_16_rotated.json,http://54.235.29.9/FacialAge/BNav_EC2/DepthDuration/v2_depth_duration_MTurk/v2_DepthDuration_HTML.html#404,404,1280,632,1920,1080,9-18-2022,11-17-1,160,depth_duration_stimuli/000758_2014-06-08_22-05-08_260595134347_rgbf000085-resize_0/000758_2014-06-08_22-05-08_260595134347_rgbf000085-resize_0-target.png,250,3.3810000000000002,7.5,7222,249,feet,jsons/v1_VE250_randls_16_rotated.json,940074,1135873,47,Man
160,790950,DepthScenes,duration_manipulation_targetAtFixation,jsons/v1_VE250_randls_16_rotated.json,http://54.235.29.9/FacialAge/BNav_EC2/DepthDuration/v2_depth_duration_MTurk/v2_DepthDuration_HTML.html#404,404,1280,632,1920,1080,9-18-2022,11-17-1,161,depth_duration_stimuli/000409_2014-06-04_19-23-33_260595134347_rgbf000067-resize_0/000409_2014-06-04_19-23-33_260595134347_rgbf000067-resize_0-target.png,250,3.7335,6.5,5368,250,feet,jsons/v1_VE250_randls_16_rotated.json,940074,1135873,47,Man
161,790950,DepthScenes,duration_manipulation_targetAtFixation,jsons/v1_VE250_randls_16_rotated.json,http://54.235.29.9/FacialAge/BNav_EC2/DepthDuration/v2_depth_duration_MTurk/v2_DepthDuration_HTML.html#404,404,1280,632,1920,1080,9-18-2022,11-17-1,162,depth_duration_stimuli/002663_2014-06-13_15-50-26_094959634447_rgbf000075-resize_1/002663_2014-06-13_15-50-26_094959634447_rgbf000075-resize_1-target.png,250,4.7495,9.0,3808,250,feet,jsons/v1_VE250_randls_16_rotated.json,940074,1135873,47,Man
162,790950,DepthScenes,duration_manipulation_targetAtFixation,jsons/v1_VE250_randls_16_rotated.json,http://54.235.29.9/FacialAge/BNav_EC2/DepthDuration/v2_depth_duration_MTurk/v2_DepthDuration_HTML.html#404,404,1280,632,1920,1080,9-18-2022,11-17-1,163,depth_duration_stimuli/002995_2014-06-15_12-31-26_094959634447_rgbf000150-resize_1/002995_2014-06-15_12-31-26_094959634447_rgbf000150-resize_1-target.png,250,3.8360000000000003,7.75,7220,249,feet,jsons/v1_VE250_randls_16_rotated.json,940074,1135873,47,Man
163,790950,DepthScenes,duration_manipulation_targetAtFixation,jsons/v1_VE250_randls_16_rotated.json,http://54.235.29.9/FacialAge/BNav_EC2/DepthDuration/v2_depth_duration_MTurk/v2_DepthDuration_HTML.html#404,404,1280,632,1920,1080,9-18-2022,11-17-1,164,depth_duration_stimuli/002748_2014-06-22_19-07-22_094959634447_rgbf000078-resize_1/002748_2014-06-22_19-07-22_094959634447_rgbf000078-resize_1-target.png,250,4.6705,13.0,7568,250,feet,jsons/v1_VE250_randls_16_rotated.json,940074,1135873,47,Man
