,subjID,experimentName,versionName,sequenceName,url,selected_row,windowWidth,windowHeight,screenWidth,screenHeight,startDate,startTime,trial,stimulus,duration,actual_depth,depth_estimate,trial_RT,log_sceneDuration,unitSelection,seq_filepath,experimentTime,totalTime,age,gender
0,791313,DepthScenes,duration_manipulation_targetAtFixation,jsons/VE125_randls_12.json,http://54.235.29.9/FacialAge/BNav_EC2/DepthDuration/v2_depth_duration_MTurk/v2_DepthDuration_HTML.html#65,65,1536,714,1536,864,8-21-2022,10-20-16,1,depth_duration_stimuli/001150_2014-06-17_15-27-34_260595134347_rgbf000108-resize_2/001150_2014-06-17_15-27-34_260595134347_rgbf000108-resize_2-target.png,125,4.0325,8,4311,124,feet,jsons/VE125_randls_12.json,1166767,1354990,28,Woman
1,791313,DepthScenes,duration_manipulation_targetAtFixation,jsons/VE125_randls_12.json,http://54.235.29.9/FacialAge/BNav_EC2/DepthDuration/v2_depth_duration_MTurk/v2_DepthDuration_HTML.html#65,65,1536,714,1536,864,8-21-2022,10-20-16,2,depth_duration_stimuli/000665_2014-06-09_20-42-35_260595134347_rgbf000110-resize_1/000665_2014-06-09_20-42-35_260595134347_rgbf000110-resize_1-target.png,125,3.057,6,5738,123,feet,jsons/VE125_randls_12.json,1166767,1354990,28,Woman
2,791313,DepthScenes,duration_manipulation_targetAtFixation,jsons/VE125_randls_12.json,http://54.235.29.9/FacialAge/BNav_EC2/DepthDuration/v2_depth_duration_MTurk/v2_DepthDuration_HTML.html#65,65,1536,714,1536,864,8-21-2022,10-20-16,3,depth_duration_stimuli/001810_2014-06-26_20-51-35_260595134347_rgbf000040-resize_3/001810_2014-06-26_20-51-35_260595134347_rgbf000040-resize_3-target.png,125,2.2525,5,5725,125,feet,jsons/VE125_randls_12.json,1166767,1354990,28,Woman
3,791313,DepthScenes,duration_manipulation_targetAtFixation,jsons/VE125_randls_12.json,http://54.235.29.9/FacialAge/BNav_EC2/DepthDuration/v2_depth_duration_MTurk/v2_DepthDuration_HTML.html#65,65,1536,714,1536,864,8-21-2022,10-20-16,4,depth_duration_stimuli/003010_2014-06-15_12-54-35_094959634447_rgbf000112-resize_0/003010_2014-06-15_12-54-35_094959634447_rgbf000112-resize_0-target.png,125,3.1185,12,5593,124,feet,jsons/VE125_randls_12.json,1166767,1354990,28,Woman
4,791313,DepthScenes,duration_manipulation_targetAtFixation,jsons/VE125_randls_12.json,http://54.235.29.9/FacialAge/BNav_EC2/DepthDuration/v2_depth_duration_MTurk/v2_DepthDuration_HTML.html#65,65,1536,714,1536,864,8-21-2022,10-20-16,5,depth_duration_stimuli/001164_2014-06-17_15-35-46_260595134347_rgbf000085-resize_3/001164_2014-06-17_15-35-46_260595134347_rgbf000085-resize_3-target.png,125,2.354,10,4857,124,feet,jsons/VE125_randls_12.json,1166767,1354990,28,Woman
5,791313,DepthScenes,duration_manipulation_targetAtFixation,jsons/VE125_randls_12.json,http://54.235.29.9/FacialAge/BNav_EC2/DepthDuration/v2_depth_duration_MTurk/v2_DepthDuration_HTML.html#65,65,1536,714,1536,864,8-21-2022,10-20-16,6,depth_duration_stimuli/001136_2014-06-17_15-19-41_260595134347_rgbf000076-resize_3/001136_2014-06-17_15-19-41_260595134347_rgbf000076-resize_3-target.png,125,1.8655,5,4638,128,feet,jsons/VE125_randls_12.json,1166767,1354990,28,Woman
6,791313,DepthScenes,duration_manipulation_targetAtFixation,jsons/VE125_randls_12.json,http://54.235.29.9/FacialAge/BNav_EC2/DepthDuration/v2_depth_duration_MTurk/v2_DepthDuration_HTML.html#65,65,1536,714,1536,864,8-21-2022,10-20-16,7,depth_duration_stimuli/002788_2014-06-22_19-36-03_094959634447_rgbf000088-resize_2/002788_2014-06-22_19-36-03_094959634447_rgbf000088-resize_2-target.png,125,1.6465,4,4873,124,feet,jsons/VE125_randls_12.json,1166767,1354990,28,Woman
7,791313,DepthScenes,duration_manipulation_targetAtFixation,jsons/VE125_randls_12.json,http://54.235.29.9/FacialAge/BNav_EC2/DepthDuration/v2_depth_duration_MTurk/v2_DepthDuration_HTML.html#65,65,1536,714,1536,864,8-21-2022,10-20-16,8,depth_duration_stimuli/000749_2014-06-08_21-55-06_260595134347_rgbf000070-resize_2/000749_2014-06-08_21-55-06_260595134347_rgbf000070-resize_2-target.png,125,2.331,5,4227,125,feet,jsons/VE125_randls_12.json,1166767,1354990,28,Woman
8,791313,DepthScenes,duration_manipulation_targetAtFixation,jsons/VE125_randls_12.json,http://54.235.29.9/FacialAge/BNav_EC2/DepthDuration/v2_depth_duration_MTurk/v2_DepthDuration_HTML.html#65,65,1536,714,1536,864,8-21-2022,10-20-16,9,depth_duration_stimuli/002043_2014-06-24_20-29-38_260595134347_rgbf000039-resize_4/002043_2014-06-24_20-29-38_260595134347_rgbf000039-resize_4-target.png,125,2.8435,8,4860,133,feet,jsons/VE125_randls_12.json,1166767,1354990,28,Woman
9,791313,DepthScenes,duration_manipulation_targetAtFixation,jsons/VE125_randls_12.json,http://54.235.29.9/FacialAge/BNav_EC2/DepthDuration/v2_depth_duration_MTurk/v2_DepthDuration_HTML.html#65,65,1536,714,1536,864,8-21-2022,10-20-16,10,depth_duration_stimuli/003048_2014-06-15_13-49-43_094959634447_rgbf000150-resize_1/003048_2014-06-15_13-49-43_094959634447_rgbf000150-resize_1-target.png,125,4.0035,12,4201,125,feet,jsons/VE125_randls_12.json,1166767,1354990,28,Woman
10,791313,DepthScenes,duration_manipulation_targetAtFixation,jsons/VE125_randls_12.json,http://54.235.29.9/FacialAge/BNav_EC2/DepthDuration/v2_depth_duration_MTurk/v2_DepthDuration_HTML.html#65,65,1536,714,1536,864,8-21-2022,10-20-16,11,depth_duration_stimuli/000917_2014-06-09_22-45-29_260595134347_rgbf000149-resize_3/000917_2014-06-09_22-45-29_260595134347_rgbf000149-resize_3-target.png,125,4.1865,10,4802,126,feet,jsons/VE125_randls_12.json,1166767,1354990,28,Woman
11,791313,DepthScenes,duration_manipulation_targetAtFixation,jsons/VE125_randls_12.json,http://54.235.29.9/FacialAge/BNav_EC2/DepthDuration/v2_depth_duration_MTurk/v2_DepthDuration_HTML.html#65,65,1536,714,1536,864,8-21-2022,10-20-16,12,depth_duration_stimuli/002323_2014-06-28_20-01-54_260595134347_rgbf000051-resize_4/002323_2014-06-28_20-01-54_260595134347_rgbf000051-resize_4-target.png,125,3.7310000000000003,14,4371,130,feet,jsons/VE125_randls_12.json,1166767,1354990,28,Woman
12,791313,DepthScenes,duration_manipulation_targetAtFixation,jsons/VE125_randls_12.json,http://54.235.29.9/FacialAge/BNav_EC2/DepthDuration/v2_depth_duration_MTurk/v2_DepthDuration_HTML.html#65,65,1536,714,1536,864,8-21-2022,10-20-16,13,depth_duration_stimuli/000569_2014-06-09_22-51-47_260595134347_rgbf000141-resize_3/000569_2014-06-09_22-51-47_260595134347_rgbf000141-resize-original.jpg,125,4.512,0,4038,125,feet,jsons/VE125_randls_12.json,1166767,1354990,28,Woman
13,791313,DepthScenes,duration_manipulation_targetAtFixation,jsons/VE125_randls_12.json,http://54.235.29.9/FacialAge/BNav_EC2/DepthDuration/v2_depth_duration_MTurk/v2_DepthDuration_HTML.html#65,65,1536,714,1536,864,8-21-2022,10-20-16,14,depth_duration_stimuli/000878_2014-06-08_22-52-45_260595134347_rgbf000045-resize_2/000878_2014-06-08_22-52-45_260595134347_rgbf000045-resize_2-target.png,125,2.092,5,4677,126,feet,jsons/VE125_randls_12.json,1166767,1354990,28,Woman
14,791313,DepthScenes,duration_manipulation_targetAtFixation,jsons/VE125_randls_12.json,http://54.235.29.9/FacialAge/BNav_EC2/DepthDuration/v2_depth_duration_MTurk/v2_DepthDuration_HTML.html#65,65,1536,714,1536,864,8-21-2022,10-20-16,15,depth_duration_stimuli/002953_2014-06-08_17-32-18_094959634447_rgbf000059-resize_5/002953_2014-06-08_17-32-18_094959634447_rgbf000059-resize_5-target.png,125,1.551,3,3906,125,feet,jsons/VE125_randls_12.json,1166767,1354990,28,Woman
15,791313,DepthScenes,duration_manipulation_targetAtFixation,jsons/VE125_randls_12.json,http://54.235.29.9/FacialAge/BNav_EC2/DepthDuration/v2_depth_duration_MTurk/v2_DepthDuration_HTML.html#65,65,1536,714,1536,864,8-21-2022,10-20-16,16,depth_duration_stimuli/000486_2014-06-09_20-47-20_260595134347_rgbf000143-resize_2/000486_2014-06-09_20-47-20_260595134347_rgbf000143-resize_2-target.png,125,4.8325,7,4608,125,feet,jsons/VE125_randls_12.json,1166767,1354990,28,Woman
16,791313,DepthScenes,duration_manipulation_targetAtFixation,jsons/VE125_randls_12.json,http://54.235.29.9/FacialAge/BNav_EC2/DepthDuration/v2_depth_duration_MTurk/v2_DepthDuration_HTML.html#65,65,1536,714,1536,864,8-21-2022,10-20-16,17,depth_duration_stimuli/003083_2014-06-15_15-21-03_094959634447_rgbf000063-resize_1/003083_2014-06-15_15-21-03_094959634447_rgbf000063-resize_1-target.png,125,4.1405,10,4843,125,feet,jsons/VE125_randls_12.json,1166767,1354990,28,Woman
17,791313,DepthScenes,duration_manipulation_targetAtFixation,jsons/VE125_randls_12.json,http://54.235.29.9/FacialAge/BNav_EC2/DepthDuration/v2_depth_duration_MTurk/v2_DepthDuration_HTML.html#65,65,1536,714,1536,864,8-21-2022,10-20-16,18,depth_duration_stimuli/001244_2014-06-17_16-47-45_260595134347_rgbf000030-resize_4/001244_2014-06-17_16-47-45_260595134347_rgbf000030-resize_4-target.png,125,2.0425,6,4302,124,feet,jsons/VE125_randls_12.json,1166767,1354990,28,Woman
18,791313,DepthScenes,duration_manipulation_targetAtFixation,jsons/VE125_randls_12.json,http://54.235.29.9/FacialAge/BNav_EC2/DepthDuration/v2_depth_duration_MTurk/v2_DepthDuration_HTML.html#65,65,1536,714,1536,864,8-21-2022,10-20-16,19,depth_duration_stimuli/003495_2014-05-21_16-01-51_094959634447_rgbf000100-resize_3/003495_2014-05-21_16-01-51_094959634447_rgbf000100-resize_3-target.png,125,1.6255,2,5968,125,feet,jsons/VE125_randls_12.json,1166767,1354990,28,Woman
19,791313,DepthScenes,duration_manipulation_targetAtFixation,jsons/VE125_randls_12.json,http://54.235.29.9/FacialAge/BNav_EC2/DepthDuration/v2_depth_duration_MTurk/v2_DepthDuration_HTML.html#65,65,1536,714,1536,864,8-21-2022,10-20-16,20,depth_duration_stimuli/000692_2014-06-08_13-09-42_260595134347_rgbf000199-resize_2/000692_2014-06-08_13-09-42_260595134347_rgbf000199-resize_2-target.png,125,3.661,14,4257,125,feet,jsons/VE125_randls_12.json,1166767,1354990,28,Woman
20,791313,DepthScenes,duration_manipulation_targetAtFixation,jsons/VE125_randls_12.json,http://54.235.29.9/FacialAge/BNav_EC2/DepthDuration/v2_depth_duration_MTurk/v2_DepthDuration_HTML.html#65,65,1536,714,1536,864,8-21-2022,10-20-16,21,depth_duration_stimuli/001094_2014-06-15_17-36-00_260595134347_rgbf000205-resize_0/001094_2014-06-15_17-36-00_260595134347_rgbf000205-resize_0-target.png,125,4.2175,8,4708,125,feet,jsons/VE125_randls_12.json,1166767,1354990,28,Woman
21,791313,DepthScenes,duration_manipulation_targetAtFixation,jsons/VE125_randls_12.json,http://54.235.29.9/FacialAge/BNav_EC2/DepthDuration/v2_depth_duration_MTurk/v2_DepthDuration_HTML.html#65,65,1536,714,1536,864,8-21-2022,10-20-16,22,depth_duration_stimuli/002279_2014-06-28_18-55-32_260595134347_rgbf000040-resize_5/002279_2014-06-28_18-55-32_260595134347_rgbf000040-resize_5-target.png,125,1.5043333333333,2,4782,128,feet,jsons/VE125_randls_12.json,1166767,1354990,28,Woman
22,791313,DepthScenes,duration_manipulation_targetAtFixation,jsons/VE125_randls_12.json,http://54.235.29.9/FacialAge/BNav_EC2/DepthDuration/v2_depth_duration_MTurk/v2_DepthDuration_HTML.html#65,65,1536,714,1536,864,8-21-2022,10-20-16,23,depth_duration_stimuli/000635_2014-06-08_16-38-42_260595134347_rgbf000106-resize_1/000635_2014-06-08_16-38-42_260595134347_rgbf000106-resize_1-target.png,125,2.074,4,3933,123,feet,jsons/VE125_randls_12.json,1166767,1354990,28,Woman
23,791313,DepthScenes,duration_manipulation_targetAtFixation,jsons/VE125_randls_12.json,http://54.235.29.9/FacialAge/BNav_EC2/DepthDuration/v2_depth_duration_MTurk/v2_DepthDuration_HTML.html#65,65,1536,714,1536,864,8-21-2022,10-20-16,24,depth_duration_stimuli/000810_2014-06-08_17-20-01_260595134347_rgbf000105-resize_0/000810_2014-06-08_17-20-01_260595134347_rgbf000105-resize_0-target.png,125,1.4865,3,4614,123,feet,jsons/VE125_randls_12.json,1166767,1354990,28,Woman
24,791313,DepthScenes,duration_manipulation_targetAtFixation,jsons/VE125_randls_12.json,http://54.235.29.9/FacialAge/BNav_EC2/DepthDuration/v2_depth_duration_MTurk/v2_DepthDuration_HTML.html#65,65,1536,714,1536,864,8-21-2022,10-20-16,25,depth_duration_stimuli/001214_2014-06-17_16-13-55_260595134347_rgbf000111-resize_0/001214_2014-06-17_16-13-55_260595134347_rgbf000111-resize_0-target.png,125,2.6505,3,3950,124,feet,jsons/VE125_randls_12.json,1166767,1354990,28,Woman
25,791313,DepthScenes,duration_manipulation_targetAtFixation,jsons/VE125_randls_12.json,http://54.235.29.9/FacialAge/BNav_EC2/DepthDuration/v2_depth_duration_MTurk/v2_DepthDuration_HTML.html#65,65,1536,714,1536,864,8-21-2022,10-20-16,26,depth_duration_stimuli/000506_2014-06-08_23-21-00_260595134347_rgbf000070-resize_7/000506_2014-06-08_23-21-00_260595134347_rgbf000070-resize_7-target.png,125,4.0585,8,4009,138,feet,jsons/VE125_randls_12.json,1166767,1354990,28,Woman
26,791313,DepthScenes,duration_manipulation_targetAtFixation,jsons/VE125_randls_12.json,http://54.235.29.9/FacialAge/BNav_EC2/DepthDuration/v2_depth_duration_MTurk/v2_DepthDuration_HTML.html#65,65,1536,714,1536,864,8-21-2022,10-20-16,27,depth_duration_stimuli/003079_2014-06-15_15-18-20_094959634447_rgbf000152-resize_8/003079_2014-06-15_15-18-20_094959634447_rgbf000152-resize_8-target.png,125,2.8775,4,5414,125,feet,jsons/VE125_randls_12.json,1166767,1354990,28,Woman
27,791313,DepthScenes,duration_manipulation_targetAtFixation,jsons/VE125_randls_12.json,http://54.235.29.9/FacialAge/BNav_EC2/DepthDuration/v2_depth_duration_MTurk/v2_DepthDuration_HTML.html#65,65,1536,714,1536,864,8-21-2022,10-20-16,28,depth_duration_stimuli/002039_2014-06-24_20-22-38_260595134347_rgbf000084-resize_1/002039_2014-06-24_20-22-38_260595134347_rgbf000084-resize_1-target.png,125,4.408,4,3693,126,feet,jsons/VE125_randls_12.json,1166767,1354990,28,Woman
28,791313,DepthScenes,duration_manipulation_targetAtFixation,jsons/VE125_randls_12.json,http://54.235.29.9/FacialAge/BNav_EC2/DepthDuration/v2_depth_duration_MTurk/v2_DepthDuration_HTML.html#65,65,1536,714,1536,864,8-21-2022,10-20-16,29,depth_duration_stimuli/002103_2014-06-25_20-00-40_260595134347_rgbf000049-resize_0/002103_2014-06-25_20-00-40_260595134347_rgbf000049-resize_0-target.png,125,4.105,3,3525,129,feet,jsons/VE125_randls_12.json,1166767,1354990,28,Woman
29,791313,DepthScenes,duration_manipulation_targetAtFixation,jsons/VE125_randls_12.json,http://54.235.29.9/FacialAge/BNav_EC2/DepthDuration/v2_depth_duration_MTurk/v2_DepthDuration_HTML.html#65,65,1536,714,1536,864,8-21-2022,10-20-16,30,depth_duration_stimuli/000375_2014-06-08_11-17-29_260595134347_rgbf000133-resize_2/000375_2014-06-08_11-17-29_260595134347_rgbf000133-resize-original.jpg,125,4.718,0,4010,136,feet,jsons/VE125_randls_12.json,1166767,1354990,28,Woman
30,791313,DepthScenes,duration_manipulation_targetAtFixation,jsons/VE125_randls_12.json,http://54.235.29.9/FacialAge/BNav_EC2/DepthDuration/v2_depth_duration_MTurk/v2_DepthDuration_HTML.html#65,65,1536,714,1536,864,8-21-2022,10-20-16,31,depth_duration_stimuli/001555_2014-06-20_17-12-10_260595134347_rgbf000065-resize_4/001555_2014-06-20_17-12-10_260595134347_rgbf000065-resize_4-target.png,125,1.633,3,3870,126,feet,jsons/VE125_randls_12.json,1166767,1354990,28,Woman
31,791313,DepthScenes,duration_manipulation_targetAtFixation,jsons/VE125_randls_12.json,http://54.235.29.9/FacialAge/BNav_EC2/DepthDuration/v2_depth_duration_MTurk/v2_DepthDuration_HTML.html#65,65,1536,714,1536,864,8-21-2022,10-20-16,32,depth_duration_stimuli/000103_2014-05-14_22-01-17_260595134347_rgbf000152-resize_5/000103_2014-05-14_22-01-17_260595134347_rgbf000152-resize_5-target.png,125,1.993,8,5163,125,feet,jsons/VE125_randls_12.json,1166767,1354990,28,Woman
32,791313,DepthScenes,duration_manipulation_targetAtFixation,jsons/VE125_randls_12.json,http://54.235.29.9/FacialAge/BNav_EC2/DepthDuration/v2_depth_duration_MTurk/v2_DepthDuration_HTML.html#65,65,1536,714,1536,864,8-21-2022,10-20-16,33,depth_duration_stimuli/002213_2014-06-28_18-37-58_260595134347_rgbf000055-resize_1/002213_2014-06-28_18-37-58_260595134347_rgbf000055-resize_1-target.png,125,3.62,12,4076,125,feet,jsons/VE125_randls_12.json,1166767,1354990,28,Woman
33,791313,DepthScenes,duration_manipulation_targetAtFixation,jsons/VE125_randls_12.json,http://54.235.29.9/FacialAge/BNav_EC2/DepthDuration/v2_depth_duration_MTurk/v2_DepthDuration_HTML.html#65,65,1536,714,1536,864,8-21-2022,10-20-16,34,depth_duration_stimuli/000691_2014-06-08_13-08-50_260595134347_rgbf000132-resize_3/000691_2014-06-08_13-08-50_260595134347_rgbf000132-resize_3-target.png,125,4.1530000000000005,8,3591,128,feet,jsons/VE125_randls_12.json,1166767,1354990,28,Woman
34,791313,DepthScenes,duration_manipulation_targetAtFixation,jsons/VE125_randls_12.json,http://54.235.29.9/FacialAge/BNav_EC2/DepthDuration/v2_depth_duration_MTurk/v2_DepthDuration_HTML.html#65,65,1536,714,1536,864,8-21-2022,10-20-16,35,depth_duration_stimuli/001016_2014-06-09_16-16-10_260595134347_rgbf000112-resize_5/001016_2014-06-09_16-16-10_260595134347_rgbf000112-resize_5-target.png,125,1.6565,4,3483,137,feet,jsons/VE125_randls_12.json,1166767,1354990,28,Woman
35,791313,DepthScenes,duration_manipulation_targetAtFixation,jsons/VE125_randls_12.json,http://54.235.29.9/FacialAge/BNav_EC2/DepthDuration/v2_depth_duration_MTurk/v2_DepthDuration_HTML.html#65,65,1536,714,1536,864,8-21-2022,10-20-16,36,depth_duration_stimuli/002340_2014-06-28_20-05-46_260595134347_rgbf000113-resize_0/002340_2014-06-28_20-05-46_260595134347_rgbf000113-resize_0-target.png,125,2.4735,5,4000,127,feet,jsons/VE125_randls_12.json,1166767,1354990,28,Woman
36,791313,DepthScenes,duration_manipulation_targetAtFixation,jsons/VE125_randls_12.json,http://54.235.29.9/FacialAge/BNav_EC2/DepthDuration/v2_depth_duration_MTurk/v2_DepthDuration_HTML.html#65,65,1536,714,1536,864,8-21-2022,10-20-16,37,depth_duration_stimuli/000493_2014-06-09_21-01-18_260595134347_rgbf000196-resize_3/000493_2014-06-09_21-01-18_260595134347_rgbf000196-resize_3-target.png,125,3.44,8,4007,126,feet,jsons/VE125_randls_12.json,1166767,1354990,28,Woman
37,791313,DepthScenes,duration_manipulation_targetAtFixation,jsons/VE125_randls_12.json,http://54.235.29.9/FacialAge/BNav_EC2/DepthDuration/v2_depth_duration_MTurk/v2_DepthDuration_HTML.html#65,65,1536,714,1536,864,8-21-2022,10-20-16,38,depth_duration_stimuli/000191_2014-05-12_17-07-38_260595134347_rgbf000199-resize_0/000191_2014-05-12_17-07-38_260595134347_rgbf000199-resize_0-target.png,125,3.7995,10,6584,125,feet,jsons/VE125_randls_12.json,1166767,1354990,28,Woman
38,791313,DepthScenes,duration_manipulation_targetAtFixation,jsons/VE125_randls_12.json,http://54.235.29.9/FacialAge/BNav_EC2/DepthDuration/v2_depth_duration_MTurk/v2_DepthDuration_HTML.html#65,65,1536,714,1536,864,8-21-2022,10-20-16,39,depth_duration_stimuli/002057_2014-06-24_21-00-13_260595134347_rgbf000120-resize_1/002057_2014-06-24_21-00-13_260595134347_rgbf000120-resize_1-target.png,125,2.967,8,4296,124,feet,jsons/VE125_randls_12.json,1166767,1354990,28,Woman
39,791313,DepthScenes,duration_manipulation_targetAtFixation,jsons/VE125_randls_12.json,http://54.235.29.9/FacialAge/BNav_EC2/DepthDuration/v2_depth_duration_MTurk/v2_DepthDuration_HTML.html#65,65,1536,714,1536,864,8-21-2022,10-20-16,40,depth_duration_stimuli/000709_2014-06-08_13-51-55_260595134347_rgbf000068-resize_3/000709_2014-06-08_13-51-55_260595134347_rgbf000068-resize_3-target.png,125,1.8030000000000002,3,4631,124,feet,jsons/VE125_randls_12.json,1166767,1354990,28,Woman
40,791313,DepthScenes,duration_manipulation_targetAtFixation,jsons/VE125_randls_12.json,http://54.235.29.9/FacialAge/BNav_EC2/DepthDuration/v2_depth_duration_MTurk/v2_DepthDuration_HTML.html#65,65,1536,714,1536,864,8-21-2022,10-20-16,41,depth_duration_stimuli/002153_2014-06-25_21-27-18_260595134347_rgbf000038-resize_5/002153_2014-06-25_21-27-18_260595134347_rgbf000038-resize_5-target.png,125,2.505,4,6952,131,feet,jsons/VE125_randls_12.json,1166767,1354990,28,Woman
41,791313,DepthScenes,duration_manipulation_targetAtFixation,jsons/VE125_randls_12.json,http://54.235.29.9/FacialAge/BNav_EC2/DepthDuration/v2_depth_duration_MTurk/v2_DepthDuration_HTML.html#65,65,1536,714,1536,864,8-21-2022,10-20-16,42,depth_duration_stimuli/002660_2014-06-13_15-44-18_094959634447_rgbf001878-resize_2/002660_2014-06-13_15-44-18_094959634447_rgbf001878-resize_2-target.png,125,3.576,5,4308,124,feet,jsons/VE125_randls_12.json,1166767,1354990,28,Woman
42,791313,DepthScenes,duration_manipulation_targetAtFixation,jsons/VE125_randls_12.json,http://54.235.29.9/FacialAge/BNav_EC2/DepthDuration/v2_depth_duration_MTurk/v2_DepthDuration_HTML.html#65,65,1536,714,1536,864,8-21-2022,10-20-16,43,depth_duration_stimuli/000758_2014-06-08_22-05-08_260595134347_rgbf000085-resize_0/000758_2014-06-08_22-05-08_260595134347_rgbf000085-resize_0-target.png,125,3.3810000000000002,8,4709,125,feet,jsons/VE125_randls_12.json,1166767,1354990,28,Woman
43,791313,DepthScenes,duration_manipulation_targetAtFixation,jsons/VE125_randls_12.json,http://54.235.29.9/FacialAge/BNav_EC2/DepthDuration/v2_depth_duration_MTurk/v2_DepthDuration_HTML.html#65,65,1536,714,1536,864,8-21-2022,10-20-16,44,depth_duration_stimuli/000854_2014-06-09_19-43-13_260595134347_rgbf000066-resize_0/000854_2014-06-09_19-43-13_260595134347_rgbf000066-resize_0-target.png,125,3.068,3,4265,111,feet,jsons/VE125_randls_12.json,1166767,1354990,28,Woman
44,791313,DepthScenes,duration_manipulation_targetAtFixation,jsons/VE125_randls_12.json,http://54.235.29.9/FacialAge/BNav_EC2/DepthDuration/v2_depth_duration_MTurk/v2_DepthDuration_HTML.html#65,65,1536,714,1536,864,8-21-2022,10-20-16,45,depth_duration_stimuli/000787_2014-06-08_22-33-53_260595134347_rgbf000175-resize_1/000787_2014-06-08_22-33-53_260595134347_rgbf000175-resize-original.jpg,125,4.784,0,3960,125,feet,jsons/VE125_randls_12.json,1166767,1354990,28,Woman
45,791313,DepthScenes,duration_manipulation_targetAtFixation,jsons/VE125_randls_12.json,http://54.235.29.9/FacialAge/BNav_EC2/DepthDuration/v2_depth_duration_MTurk/v2_DepthDuration_HTML.html#65,65,1536,714,1536,864,8-21-2022,10-20-16,46,depth_duration_stimuli/000470_2014-06-09_19-42-40_260595134347_rgbf000094-resize_1/000470_2014-06-09_19-42-40_260595134347_rgbf000094-resize_1-target.png,125,1.831,2,5959,130,feet,jsons/VE125_randls_12.json,1166767,1354990,28,Woman
46,791313,DepthScenes,duration_manipulation_targetAtFixation,jsons/VE125_randls_12.json,http://54.235.29.9/FacialAge/BNav_EC2/DepthDuration/v2_depth_duration_MTurk/v2_DepthDuration_HTML.html#65,65,1536,714,1536,864,8-21-2022,10-20-16,47,depth_duration_stimuli/000109_2014-05-14_23-41-52_260595134347_rgbf000035-resize_9/000109_2014-05-14_23-41-52_260595134347_rgbf000035-resize_9-target.png,125,1.3545,1,3585,125,feet,jsons/VE125_randls_12.json,1166767,1354990,28,Woman
47,791313,DepthScenes,duration_manipulation_targetAtFixation,jsons/VE125_randls_12.json,http://54.235.29.9/FacialAge/BNav_EC2/DepthDuration/v2_depth_duration_MTurk/v2_DepthDuration_HTML.html#65,65,1536,714,1536,864,8-21-2022,10-20-16,48,depth_duration_stimuli/000414_2014-06-04_19-49-13_260595134347_rgbf000044-resize_0/000414_2014-06-04_19-49-13_260595134347_rgbf000044-resize_0-target.png,125,4.329,6,6188,127,feet,jsons/VE125_randls_12.json,1166767,1354990,28,Woman
48,791313,DepthScenes,duration_manipulation_targetAtFixation,jsons/VE125_randls_12.json,http://54.235.29.9/FacialAge/BNav_EC2/DepthDuration/v2_depth_duration_MTurk/v2_DepthDuration_HTML.html#65,65,1536,714,1536,864,8-21-2022,10-20-16,49,depth_duration_stimuli/003129_2014-05-12_10-48-10_094959634447_rgbf000100-resize_0/003129_2014-05-12_10-48-10_094959634447_rgbf000100-resize_0-target.png,125,4.9305,4,4460,110,feet,jsons/VE125_randls_12.json,1166767,1354990,28,Woman
49,791313,DepthScenes,duration_manipulation_targetAtFixation,jsons/VE125_randls_12.json,http://54.235.29.9/FacialAge/BNav_EC2/DepthDuration/v2_depth_duration_MTurk/v2_DepthDuration_HTML.html#65,65,1536,714,1536,864,8-21-2022,10-20-16,50,depth_duration_stimuli/002989_2014-06-15_12-25-03_094959634447_rgbf000150-resize_3/002989_2014-06-15_12-25-03_094959634447_rgbf000150-resize_3-target.png,125,4.1975,5,5755,125,feet,jsons/VE125_randls_12.json,1166767,1354990,28,Woman
50,791313,DepthScenes,duration_manipulation_targetAtFixation,jsons/VE125_randls_12.json,http://54.235.29.9/FacialAge/BNav_EC2/DepthDuration/v2_depth_duration_MTurk/v2_DepthDuration_HTML.html#65,65,1536,714,1536,864,8-21-2022,10-20-16,51,depth_duration_stimuli/000866_2014-06-09_20-45-42_260595134347_rgbf000139-resize_1/000866_2014-06-09_20-45-42_260595134347_rgbf000139-resize_1-target.png,125,3.2155,4,4677,128,feet,jsons/VE125_randls_12.json,1166767,1354990,28,Woman
51,791313,DepthScenes,duration_manipulation_targetAtFixation,jsons/VE125_randls_12.json,http://54.235.29.9/FacialAge/BNav_EC2/DepthDuration/v2_depth_duration_MTurk/v2_DepthDuration_HTML.html#65,65,1536,714,1536,864,8-21-2022,10-20-16,52,depth_duration_stimuli/002964_2014-06-08_17-46-11_094959634447_rgbf000091-resize_4/002964_2014-06-08_17-46-11_094959634447_rgbf000091-resize_4-target.png,125,1.6909999999999998,1,514911,124,feet,jsons/VE125_randls_12.json,1166767,1354990,28,Woman
52,791313,DepthScenes,duration_manipulation_targetAtFixation,jsons/VE125_randls_12.json,http://54.235.29.9/FacialAge/BNav_EC2/DepthDuration/v2_depth_duration_MTurk/v2_DepthDuration_HTML.html#65,65,1536,714,1536,864,8-21-2022,10-20-16,53,depth_duration_stimuli/002136_2014-06-25_21-18-03_260595134347_rgbf000109-resize_3/002136_2014-06-25_21-18-03_260595134347_rgbf000109-resize_3-target.png,125,1.9569999999999999,3,4961,125,feet,jsons/VE125_randls_12.json,1166767,1354990,28,Woman
53,791313,DepthScenes,duration_manipulation_targetAtFixation,jsons/VE125_randls_12.json,http://54.235.29.9/FacialAge/BNav_EC2/DepthDuration/v2_depth_duration_MTurk/v2_DepthDuration_HTML.html#65,65,1536,714,1536,864,8-21-2022,10-20-16,54,depth_duration_stimuli/000436_2014-06-09_22-25-11_260595134347_rgbf000137-resize_1/000436_2014-06-09_22-25-11_260595134347_rgbf000137-resize_1-target.png,125,4.0705,8,5501,132,feet,jsons/VE125_randls_12.json,1166767,1354990,28,Woman
54,791313,DepthScenes,duration_manipulation_targetAtFixation,jsons/VE125_randls_12.json,http://54.235.29.9/FacialAge/BNav_EC2/DepthDuration/v2_depth_duration_MTurk/v2_DepthDuration_HTML.html#65,65,1536,714,1536,864,8-21-2022,10-20-16,55,depth_duration_stimuli/002444_2014-06-28_20-32-08_260595134347_rgbf000027-resize_0/002444_2014-06-28_20-32-08_260595134347_rgbf000027-resize_0-target.png,125,4.388999999999999,11,4589,126,feet,jsons/VE125_randls_12.json,1166767,1354990,28,Woman
55,791313,DepthScenes,duration_manipulation_targetAtFixation,jsons/VE125_randls_12.json,http://54.235.29.9/FacialAge/BNav_EC2/DepthDuration/v2_depth_duration_MTurk/v2_DepthDuration_HTML.html#65,65,1536,714,1536,864,8-21-2022,10-20-16,56,depth_duration_stimuli/001806_2014-06-26_20-50-20_260595134347_rgbf000091-resize_1/001806_2014-06-26_20-50-20_260595134347_rgbf000091-resize_1-target.png,125,2.7305,3,3499,110,feet,jsons/VE125_randls_12.json,1166767,1354990,28,Woman
56,791313,DepthScenes,duration_manipulation_targetAtFixation,jsons/VE125_randls_12.json,http://54.235.29.9/FacialAge/BNav_EC2/DepthDuration/v2_depth_duration_MTurk/v2_DepthDuration_HTML.html#65,65,1536,714,1536,864,8-21-2022,10-20-16,57,depth_duration_stimuli/001617_2014-06-20_11-35-32_260595134347_rgbf000066-resize_1/001617_2014-06-20_11-35-32_260595134347_rgbf000066-resize_1-target.png,125,3.7910000000000004,10,3990,124,feet,jsons/VE125_randls_12.json,1166767,1354990,28,Woman
57,791313,DepthScenes,duration_manipulation_targetAtFixation,jsons/VE125_randls_12.json,http://54.235.29.9/FacialAge/BNav_EC2/DepthDuration/v2_depth_duration_MTurk/v2_DepthDuration_HTML.html#65,65,1536,714,1536,864,8-21-2022,10-20-16,58,depth_duration_stimuli/003534_2014-05-22_15-06-10_094959634447_rgbf000102-resize_4/003534_2014-05-22_15-06-10_094959634447_rgbf000102-resize_4-target.png,125,1.426,2,4264,125,feet,jsons/VE125_randls_12.json,1166767,1354990,28,Woman
58,791313,DepthScenes,duration_manipulation_targetAtFixation,jsons/VE125_randls_12.json,http://54.235.29.9/FacialAge/BNav_EC2/DepthDuration/v2_depth_duration_MTurk/v2_DepthDuration_HTML.html#65,65,1536,714,1536,864,8-21-2022,10-20-16,59,depth_duration_stimuli/002637_2014-06-24_14-51-13_094959634447_rgbf000066-resize_4/002637_2014-06-24_14-51-13_094959634447_rgbf000066-resize_4-target.png,125,1.9955,4,3539,122,feet,jsons/VE125_randls_12.json,1166767,1354990,28,Woman
59,791313,DepthScenes,duration_manipulation_targetAtFixation,jsons/VE125_randls_12.json,http://54.235.29.9/FacialAge/BNav_EC2/DepthDuration/v2_depth_duration_MTurk/v2_DepthDuration_HTML.html#65,65,1536,714,1536,864,8-21-2022,10-20-16,60,depth_duration_stimuli/001417_2014-06-19_16-25-36_260595134347_rgbf000115-resize_5/001417_2014-06-19_16-25-36_260595134347_rgbf000115-resize_5-target.png,125,4.6255,4,4319,124,feet,jsons/VE125_randls_12.json,1166767,1354990,28,Woman
60,791313,DepthScenes,duration_manipulation_targetAtFixation,jsons/VE125_randls_12.json,http://54.235.29.9/FacialAge/BNav_EC2/DepthDuration/v2_depth_duration_MTurk/v2_DepthDuration_HTML.html#65,65,1536,714,1536,864,8-21-2022,10-20-16,61,depth_duration_stimuli/003081_2014-06-15_15-19-16_094959634447_rgbf000150-resize_1/003081_2014-06-15_15-19-16_094959634447_rgbf000150-resize_1-target.png,125,3.9125,10,3970,123,feet,jsons/VE125_randls_12.json,1166767,1354990,28,Woman
61,791313,DepthScenes,duration_manipulation_targetAtFixation,jsons/VE125_randls_12.json,http://54.235.29.9/FacialAge/BNav_EC2/DepthDuration/v2_depth_duration_MTurk/v2_DepthDuration_HTML.html#65,65,1536,714,1536,864,8-21-2022,10-20-16,62,depth_duration_stimuli/001066_2014-06-08_22-03-20_260595134347_rgbf000066-resize_4/001066_2014-06-08_22-03-20_260595134347_rgbf000066-resize_4-target.png,125,4.2330000000000005,12,3685,132,feet,jsons/VE125_randls_12.json,1166767,1354990,28,Woman
62,791313,DepthScenes,duration_manipulation_targetAtFixation,jsons/VE125_randls_12.json,http://54.235.29.9/FacialAge/BNav_EC2/DepthDuration/v2_depth_duration_MTurk/v2_DepthDuration_HTML.html#65,65,1536,714,1536,864,8-21-2022,10-20-16,63,depth_duration_stimuli/000742_2014-06-08_18-48-09_260595134347_rgbf000164-resize_4/000742_2014-06-08_18-48-09_260595134347_rgbf000164-resize_4-target.png,125,4.632,12,3869,126,feet,jsons/VE125_randls_12.json,1166767,1354990,28,Woman
63,791313,DepthScenes,duration_manipulation_targetAtFixation,jsons/VE125_randls_12.json,http://54.235.29.9/FacialAge/BNav_EC2/DepthDuration/v2_depth_duration_MTurk/v2_DepthDuration_HTML.html#65,65,1536,714,1536,864,8-21-2022,10-20-16,64,depth_duration_stimuli/000906_2014-06-08_13-35-43_260595134347_rgbf000155-resize_1/000906_2014-06-08_13-35-43_260595134347_rgbf000155-resize_1-target.png,125,2.8489999999999998,11,3543,127,feet,jsons/VE125_randls_12.json,1166767,1354990,28,Woman
64,791313,DepthScenes,duration_manipulation_targetAtFixation,jsons/VE125_randls_12.json,http://54.235.29.9/FacialAge/BNav_EC2/DepthDuration/v2_depth_duration_MTurk/v2_DepthDuration_HTML.html#65,65,1536,714,1536,864,8-21-2022,10-20-16,65,depth_duration_stimuli/002805_2014-06-22_19-54-03_094959634447_rgbf000079-resize_1/002805_2014-06-22_19-54-03_094959634447_rgbf000079-resize_1-target.png,125,3.1439999999999997,6,3177,125,feet,jsons/VE125_randls_12.json,1166767,1354990,28,Woman
65,791313,DepthScenes,duration_manipulation_targetAtFixation,jsons/VE125_randls_12.json,http://54.235.29.9/FacialAge/BNav_EC2/DepthDuration/v2_depth_duration_MTurk/v2_DepthDuration_HTML.html#65,65,1536,714,1536,864,8-21-2022,10-20-16,66,depth_duration_stimuli/001222_2014-06-17_16-24-06_260595134347_rgbf000073-resize_0/001222_2014-06-17_16-24-06_260595134347_rgbf000073-resize-original.jpg,125,1.4385,0,2771,115,feet,jsons/VE125_randls_12.json,1166767,1354990,28,Woman
66,791313,DepthScenes,duration_manipulation_targetAtFixation,jsons/VE125_randls_12.json,http://54.235.29.9/FacialAge/BNav_EC2/DepthDuration/v2_depth_duration_MTurk/v2_DepthDuration_HTML.html#65,65,1536,714,1536,864,8-21-2022,10-20-16,67,depth_duration_stimuli/001570_2014-06-20_17-21-09_260595134347_rgbf000135-resize_4/001570_2014-06-20_17-21-09_260595134347_rgbf000135-resize_4-target.png,125,4.467,6,3287,127,feet,jsons/VE125_randls_12.json,1166767,1354990,28,Woman
67,791313,DepthScenes,duration_manipulation_targetAtFixation,jsons/VE125_randls_12.json,http://54.235.29.9/FacialAge/BNav_EC2/DepthDuration/v2_depth_duration_MTurk/v2_DepthDuration_HTML.html#65,65,1536,714,1536,864,8-21-2022,10-20-16,68,depth_duration_stimuli/001392_2014-06-19_16-07-59_260595134347_rgbf000046-resize_1/001392_2014-06-19_16-07-59_260595134347_rgbf000046-resize_1-target.png,125,4.135,7,3359,113,feet,jsons/VE125_randls_12.json,1166767,1354990,28,Woman
68,791313,DepthScenes,duration_manipulation_targetAtFixation,jsons/VE125_randls_12.json,http://54.235.29.9/FacialAge/BNav_EC2/DepthDuration/v2_depth_duration_MTurk/v2_DepthDuration_HTML.html#65,65,1536,714,1536,864,8-21-2022,10-20-16,69,depth_duration_stimuli/001011_2014-06-08_23-18-54_260595134347_rgbf000044-resize_4/001011_2014-06-08_23-18-54_260595134347_rgbf000044-resize_4-target.png,125,2.4730000000000003,5,3218,123,feet,jsons/VE125_randls_12.json,1166767,1354990,28,Woman
69,791313,DepthScenes,duration_manipulation_targetAtFixation,jsons/VE125_randls_12.json,http://54.235.29.9/FacialAge/BNav_EC2/DepthDuration/v2_depth_duration_MTurk/v2_DepthDuration_HTML.html#65,65,1536,714,1536,864,8-21-2022,10-20-16,70,depth_duration_stimuli/002875_2014-06-01_15-19-00_094959634447_rgbf000151-resize_1/002875_2014-06-01_15-19-00_094959634447_rgbf000151-resize_1-target.png,125,1.9675,1,3808,126,feet,jsons/VE125_randls_12.json,1166767,1354990,28,Woman
70,791313,DepthScenes,duration_manipulation_targetAtFixation,jsons/VE125_randls_12.json,http://54.235.29.9/FacialAge/BNav_EC2/DepthDuration/v2_depth_duration_MTurk/v2_DepthDuration_HTML.html#65,65,1536,714,1536,864,8-21-2022,10-20-16,71,depth_duration_stimuli/000368_2014-06-09_15-53-01_260595134347_rgbf000155-resize_2/000368_2014-06-09_15-53-01_260595134347_rgbf000155-resize_2-target.png,125,2.4859999999999998,3,3568,125,feet,jsons/VE125_randls_12.json,1166767,1354990,28,Woman
71,791313,DepthScenes,duration_manipulation_targetAtFixation,jsons/VE125_randls_12.json,http://54.235.29.9/FacialAge/BNav_EC2/DepthDuration/v2_depth_duration_MTurk/v2_DepthDuration_HTML.html#65,65,1536,714,1536,864,8-21-2022,10-20-16,72,depth_duration_stimuli/002678_2014-06-13_16-15-32_094959634447_rgbf000151-resize_6/002678_2014-06-13_16-15-32_094959634447_rgbf000151-resize_6-target.png,125,2.1830000000000003,4,2633,124,feet,jsons/VE125_randls_12.json,1166767,1354990,28,Woman
72,791313,DepthScenes,duration_manipulation_targetAtFixation,jsons/VE125_randls_12.json,http://54.235.29.9/FacialAge/BNav_EC2/DepthDuration/v2_depth_duration_MTurk/v2_DepthDuration_HTML.html#65,65,1536,714,1536,864,8-21-2022,10-20-16,73,depth_duration_stimuli/002549_2014-06-24_13-41-39_094959634447_rgbf000022-resize_3/002549_2014-06-24_13-41-39_094959634447_rgbf000022-resize_3-target.png,125,1.476,2,2683,125,feet,jsons/VE125_randls_12.json,1166767,1354990,28,Woman
73,791313,DepthScenes,duration_manipulation_targetAtFixation,jsons/VE125_randls_12.json,http://54.235.29.9/FacialAge/BNav_EC2/DepthDuration/v2_depth_duration_MTurk/v2_DepthDuration_HTML.html#65,65,1536,714,1536,864,8-21-2022,10-20-16,74,depth_duration_stimuli/002750_2014-06-22_19-08-03_094959634447_rgbf000094-resize_4/002750_2014-06-22_19-08-03_094959634447_rgbf000094-resize_4-target.png,125,2.354,3,3060,126,feet,jsons/VE125_randls_12.json,1166767,1354990,28,Woman
74,791313,DepthScenes,duration_manipulation_targetAtFixation,jsons/VE125_randls_12.json,http://54.235.29.9/FacialAge/BNav_EC2/DepthDuration/v2_depth_duration_MTurk/v2_DepthDuration_HTML.html#65,65,1536,714,1536,864,8-21-2022,10-20-16,75,depth_duration_stimuli/001167_2014-06-17_15-38-07_260595134347_rgbf000108-resize_0/001167_2014-06-17_15-38-07_260595134347_rgbf000108-resize_0-target.png,125,1.8505,2,2307,139,feet,jsons/VE125_randls_12.json,1166767,1354990,28,Woman
75,791313,DepthScenes,duration_manipulation_targetAtFixation,jsons/VE125_randls_12.json,http://54.235.29.9/FacialAge/BNav_EC2/DepthDuration/v2_depth_duration_MTurk/v2_DepthDuration_HTML.html#65,65,1536,714,1536,864,8-21-2022,10-20-16,76,depth_duration_stimuli/003587_2014-05-23_16-48-02_094959634447_rgbf002384-resize_2/003587_2014-05-23_16-48-02_094959634447_rgbf002384-resize_2-target.png,125,1.357,2,3517,124,feet,jsons/VE125_randls_12.json,1166767,1354990,28,Woman
76,791313,DepthScenes,duration_manipulation_targetAtFixation,jsons/VE125_randls_12.json,http://54.235.29.9/FacialAge/BNav_EC2/DepthDuration/v2_depth_duration_MTurk/v2_DepthDuration_HTML.html#65,65,1536,714,1536,864,8-21-2022,10-20-16,77,depth_duration_stimuli/002725_2014-06-22_11-47-51_094959634447_rgbf000070-resize_1/002725_2014-06-22_11-47-51_094959634447_rgbf000070-resize_1-target.png,125,2.195,3,3284,111,feet,jsons/VE125_randls_12.json,1166767,1354990,28,Woman
77,791313,DepthScenes,duration_manipulation_targetAtFixation,jsons/VE125_randls_12.json,http://54.235.29.9/FacialAge/BNav_EC2/DepthDuration/v2_depth_duration_MTurk/v2_DepthDuration_HTML.html#65,65,1536,714,1536,864,8-21-2022,10-20-16,78,depth_duration_stimuli/002344_2014-06-28_20-06-29_260595134347_rgbf000030-resize_1/002344_2014-06-28_20-06-29_260595134347_rgbf000030-resize_1-target.png,125,1.5795,2,2269,125,feet,jsons/VE125_randls_12.json,1166767,1354990,28,Woman
78,791313,DepthScenes,duration_manipulation_targetAtFixation,jsons/VE125_randls_12.json,http://54.235.29.9/FacialAge/BNav_EC2/DepthDuration/v2_depth_duration_MTurk/v2_DepthDuration_HTML.html#65,65,1536,714,1536,864,8-21-2022,10-20-16,79,depth_duration_stimuli/001029_2014-06-08_13-17-57_260595134347_rgbf000065-resize_1/001029_2014-06-08_13-17-57_260595134347_rgbf000065-resize_1-target.png,125,3.0835,3,2271,126,feet,jsons/VE125_randls_12.json,1166767,1354990,28,Woman
79,791313,DepthScenes,duration_manipulation_targetAtFixation,jsons/VE125_randls_12.json,http://54.235.29.9/FacialAge/BNav_EC2/DepthDuration/v2_depth_duration_MTurk/v2_DepthDuration_HTML.html#65,65,1536,714,1536,864,8-21-2022,10-20-16,80,depth_duration_stimuli/000677_2014-06-08_23-10-32_260595134347_rgbf000158-resize_6/000677_2014-06-08_23-10-32_260595134347_rgbf000158-resize_6-target.png,125,3.556,3,2480,124,feet,jsons/VE125_randls_12.json,1166767,1354990,28,Woman
80,791313,DepthScenes,duration_manipulation_targetAtFixation,jsons/VE125_randls_12.json,http://54.235.29.9/FacialAge/BNav_EC2/DepthDuration/v2_depth_duration_MTurk/v2_DepthDuration_HTML.html#65,65,1536,714,1536,864,8-21-2022,10-20-16,81,depth_duration_stimuli/002663_2014-06-13_15-50-26_094959634447_rgbf000075-resize_1/002663_2014-06-13_15-50-26_094959634447_rgbf000075-resize_1-target.png,125,4.7495,3,2241,125,feet,jsons/VE125_randls_12.json,1166767,1354990,28,Woman
81,791313,DepthScenes,duration_manipulation_targetAtFixation,jsons/VE125_randls_12.json,http://54.235.29.9/FacialAge/BNav_EC2/DepthDuration/v2_depth_duration_MTurk/v2_DepthDuration_HTML.html#65,65,1536,714,1536,864,8-21-2022,10-20-16,82,depth_duration_stimuli/000409_2014-06-04_19-23-33_260595134347_rgbf000067-resize_0/000409_2014-06-04_19-23-33_260595134347_rgbf000067-resize_0-target.png,125,3.7335,5,2996,125,feet,jsons/VE125_randls_12.json,1166767,1354990,28,Woman
82,791313,DepthScenes,duration_manipulation_targetAtFixation,jsons/VE125_randls_12.json,http://54.235.29.9/FacialAge/BNav_EC2/DepthDuration/v2_depth_duration_MTurk/v2_DepthDuration_HTML.html#65,65,1536,714,1536,864,8-21-2022,10-20-16,83,depth_duration_stimuli/001056_2014-06-08_18-46-44_260595134347_rgbf000068-resize_0/001056_2014-06-08_18-46-44_260595134347_rgbf000068-resize_0-target.png,125,2.6625,4,4046,123,feet,jsons/VE125_randls_12.json,1166767,1354990,28,Woman
83,791313,DepthScenes,duration_manipulation_targetAtFixation,jsons/VE125_randls_12.json,http://54.235.29.9/FacialAge/BNav_EC2/DepthDuration/v2_depth_duration_MTurk/v2_DepthDuration_HTML.html#65,65,1536,714,1536,864,8-21-2022,10-20-16,84,depth_duration_stimuli/002199_2014-06-28_18-33-56_260595134347_rgbf000074-resize_0/002199_2014-06-28_18-33-56_260595134347_rgbf000074-resize_0-target.png,125,1.996,2,2250,124,feet,jsons/VE125_randls_12.json,1166767,1354990,28,Woman
84,791313,DepthScenes,duration_manipulation_targetAtFixation,jsons/VE125_randls_12.json,http://54.235.29.9/FacialAge/BNav_EC2/DepthDuration/v2_depth_duration_MTurk/v2_DepthDuration_HTML.html#65,65,1536,714,1536,864,8-21-2022,10-20-16,85,depth_duration_stimuli/003292_2014-05-14_21-53-49_094959634447_rgbf000100-resize_2/003292_2014-05-14_21-53-49_094959634447_rgbf000100-resize_2-target.png,125,3.4815,4,2159,126,feet,jsons/VE125_randls_12.json,1166767,1354990,28,Woman
85,791313,DepthScenes,duration_manipulation_targetAtFixation,jsons/VE125_randls_12.json,http://54.235.29.9/FacialAge/BNav_EC2/DepthDuration/v2_depth_duration_MTurk/v2_DepthDuration_HTML.html#65,65,1536,714,1536,864,8-21-2022,10-20-16,86,depth_duration_stimuli/002639_2014-06-24_14-51-37_094959634447_rgbf000074-resize_4/002639_2014-06-24_14-51-37_094959634447_rgbf000074-resize_4-target.png,125,4.0375,7,2538,113,feet,jsons/VE125_randls_12.json,1166767,1354990,28,Woman
86,791313,DepthScenes,duration_manipulation_targetAtFixation,jsons/VE125_randls_12.json,http://54.235.29.9/FacialAge/BNav_EC2/DepthDuration/v2_depth_duration_MTurk/v2_DepthDuration_HTML.html#65,65,1536,714,1536,864,8-21-2022,10-20-16,87,depth_duration_stimuli/002988_2014-06-15_12-24-20_094959634447_rgbf000150-resize_1/002988_2014-06-15_12-24-20_094959634447_rgbf000150-resize_1-target.png,125,4.7669999999999995,7,3512,126,feet,jsons/VE125_randls_12.json,1166767,1354990,28,Woman
87,791313,DepthScenes,duration_manipulation_targetAtFixation,jsons/VE125_randls_12.json,http://54.235.29.9/FacialAge/BNav_EC2/DepthDuration/v2_depth_duration_MTurk/v2_DepthDuration_HTML.html#65,65,1536,714,1536,864,8-21-2022,10-20-16,88,depth_duration_stimuli/001052_2014-06-08_18-24-54_260595134347_rgbf000130-resize_1/001052_2014-06-08_18-24-54_260595134347_rgbf000130-resize_1-target.png,125,4.1045,8,2365,136,feet,jsons/VE125_randls_12.json,1166767,1354990,28,Woman
88,791313,DepthScenes,duration_manipulation_targetAtFixation,jsons/VE125_randls_12.json,http://54.235.29.9/FacialAge/BNav_EC2/DepthDuration/v2_depth_duration_MTurk/v2_DepthDuration_HTML.html#65,65,1536,714,1536,864,8-21-2022,10-20-16,89,depth_duration_stimuli/002784_2014-06-22_19-26-30_094959634447_rgbf000083-resize_3/002784_2014-06-22_19-26-30_094959634447_rgbf000083-resize_3-target.png,125,1.8046666666667,2,2865,126,feet,jsons/VE125_randls_12.json,1166767,1354990,28,Woman
89,791313,DepthScenes,duration_manipulation_targetAtFixation,jsons/VE125_randls_12.json,http://54.235.29.9/FacialAge/BNav_EC2/DepthDuration/v2_depth_duration_MTurk/v2_DepthDuration_HTML.html#65,65,1536,714,1536,864,8-21-2022,10-20-16,90,depth_duration_stimuli/001100_2014-06-15_17-46-26_260595134347_rgbf000225-resize_2/001100_2014-06-15_17-46-26_260595134347_rgbf000225-resize_2-target.png,125,2.24,2,2107,124,feet,jsons/VE125_randls_12.json,1166767,1354990,28,Woman
90,791313,DepthScenes,duration_manipulation_targetAtFixation,jsons/VE125_randls_12.json,http://54.235.29.9/FacialAge/BNav_EC2/DepthDuration/v2_depth_duration_MTurk/v2_DepthDuration_HTML.html#65,65,1536,714,1536,864,8-21-2022,10-20-16,91,depth_duration_stimuli/001449_2014-06-19_17-01-27_260595134347_rgbf000116-resize_2/001449_2014-06-19_17-01-27_260595134347_rgbf000116-resize_2-target.png,125,3.452,4,3672,114,feet,jsons/VE125_randls_12.json,1166767,1354990,28,Woman
91,791313,DepthScenes,duration_manipulation_targetAtFixation,jsons/VE125_randls_12.json,http://54.235.29.9/FacialAge/BNav_EC2/DepthDuration/v2_depth_duration_MTurk/v2_DepthDuration_HTML.html#65,65,1536,714,1536,864,8-21-2022,10-20-16,92,depth_duration_stimuli/001450_2014-06-19_17-02-03_260595134347_rgbf000203-resize_4/001450_2014-06-19_17-02-03_260595134347_rgbf000203-resize_4-target.png,125,4.0106666666667,6,3714,126,feet,jsons/VE125_randls_12.json,1166767,1354990,28,Woman
92,791313,DepthScenes,duration_manipulation_targetAtFixation,jsons/VE125_randls_12.json,http://54.235.29.9/FacialAge/BNav_EC2/DepthDuration/v2_depth_duration_MTurk/v2_DepthDuration_HTML.html#65,65,1536,714,1536,864,8-21-2022,10-20-16,93,depth_duration_stimuli/003492_2014-05-21_15-50-55_094959634447_rgbf000828-resize_1/003492_2014-05-21_15-50-55_094959634447_rgbf000828-resize_1-target.png,125,4.06875,9,2828,126,feet,jsons/VE125_randls_12.json,1166767,1354990,28,Woman
93,791313,DepthScenes,duration_manipulation_targetAtFixation,jsons/VE125_randls_12.json,http://54.235.29.9/FacialAge/BNav_EC2/DepthDuration/v2_depth_duration_MTurk/v2_DepthDuration_HTML.html#65,65,1536,714,1536,864,8-21-2022,10-20-16,94,depth_duration_stimuli/002568_2014-06-24_13-59-21_094959634447_rgbf000062-resize_4/002568_2014-06-24_13-59-21_094959634447_rgbf000062-resize_4-target.png,125,3.015,6,2573,140,feet,jsons/VE125_randls_12.json,1166767,1354990,28,Woman
94,791313,DepthScenes,duration_manipulation_targetAtFixation,jsons/VE125_randls_12.json,http://54.235.29.9/FacialAge/BNav_EC2/DepthDuration/v2_depth_duration_MTurk/v2_DepthDuration_HTML.html#65,65,1536,714,1536,864,8-21-2022,10-20-16,95,depth_duration_stimuli/001092_2014-06-15_17-34-58_260595134347_rgbf000171-resize_3/001092_2014-06-15_17-34-58_260595134347_rgbf000171-resize_3-target.png,125,2.6935,4,1973,109,feet,jsons/VE125_randls_12.json,1166767,1354990,28,Woman
95,791313,DepthScenes,duration_manipulation_targetAtFixation,jsons/VE125_randls_12.json,http://54.235.29.9/FacialAge/BNav_EC2/DepthDuration/v2_depth_duration_MTurk/v2_DepthDuration_HTML.html#65,65,1536,714,1536,864,8-21-2022,10-20-16,96,depth_duration_stimuli/002545_2014-06-24_13-38-53_094959634447_rgbf000080-resize_4/002545_2014-06-24_13-38-53_094959634447_rgbf000080-resize_4-target.png,125,1.9205,5,3020,125,feet,jsons/VE125_randls_12.json,1166767,1354990,28,Woman
96,791313,DepthScenes,duration_manipulation_targetAtFixation,jsons/VE125_randls_12.json,http://54.235.29.9/FacialAge/BNav_EC2/DepthDuration/v2_depth_duration_MTurk/v2_DepthDuration_HTML.html#65,65,1536,714,1536,864,8-21-2022,10-20-16,97,depth_duration_stimuli/002763_2014-06-22_19-13-10_094959634447_rgbf000075-resize_4/002763_2014-06-22_19-13-10_094959634447_rgbf000075-resize_4-target.png,125,1.68375,3,2169,127,feet,jsons/VE125_randls_12.json,1166767,1354990,28,Woman
97,791313,DepthScenes,duration_manipulation_targetAtFixation,jsons/VE125_randls_12.json,http://54.235.29.9/FacialAge/BNav_EC2/DepthDuration/v2_depth_duration_MTurk/v2_DepthDuration_HTML.html#65,65,1536,714,1536,864,8-21-2022,10-20-16,98,depth_duration_stimuli/002209_2014-06-28_18-36-10_260595134347_rgbf000051-resize_1/002209_2014-06-28_18-36-10_260595134347_rgbf000051-resize_1-target.png,125,2.057,4,2508,125,feet,jsons/VE125_randls_12.json,1166767,1354990,28,Woman
98,791313,DepthScenes,duration_manipulation_targetAtFixation,jsons/VE125_randls_12.json,http://54.235.29.9/FacialAge/BNav_EC2/DepthDuration/v2_depth_duration_MTurk/v2_DepthDuration_HTML.html#65,65,1536,714,1536,864,8-21-2022,10-20-16,99,depth_duration_stimuli/001540_2014-06-20_17-01-05_260595134347_rgbf000086-resize_2/001540_2014-06-20_17-01-05_260595134347_rgbf000086-resize-original.jpg,125,1.459,0,2410,126,feet,jsons/VE125_randls_12.json,1166767,1354990,28,Woman
99,791313,DepthScenes,duration_manipulation_targetAtFixation,jsons/VE125_randls_12.json,http://54.235.29.9/FacialAge/BNav_EC2/DepthDuration/v2_depth_duration_MTurk/v2_DepthDuration_HTML.html#65,65,1536,714,1536,864,8-21-2022,10-20-16,100,depth_duration_stimuli/002748_2014-06-22_19-07-22_094959634447_rgbf000078-resize_1/002748_2014-06-22_19-07-22_094959634447_rgbf000078-resize_1-target.png,125,4.6705,6,2222,126,feet,jsons/VE125_randls_12.json,1166767,1354990,28,Woman
100,791313,DepthScenes,duration_manipulation_targetAtFixation,jsons/VE125_randls_12.json,http://54.235.29.9/FacialAge/BNav_EC2/DepthDuration/v2_depth_duration_MTurk/v2_DepthDuration_HTML.html#65,65,1536,714,1536,864,8-21-2022,10-20-16,101,depth_duration_stimuli/002995_2014-06-15_12-31-26_094959634447_rgbf000150-resize_1/002995_2014-06-15_12-31-26_094959634447_rgbf000150-resize_1-target.png,125,3.8360000000000003,3,2187,110,feet,jsons/VE125_randls_12.json,1166767,1354990,28,Woman
101,791313,DepthScenes,duration_manipulation_targetAtFixation,jsons/VE125_randls_12.json,http://54.235.29.9/FacialAge/BNav_EC2/DepthDuration/v2_depth_duration_MTurk/v2_DepthDuration_HTML.html#65,65,1536,714,1536,864,8-21-2022,10-20-16,102,depth_duration_stimuli/002570_2014-06-24_13-59-54_094959634447_rgbf000059-resize_0/002570_2014-06-24_13-59-54_094959634447_rgbf000059-resize_0-target.png,125,4.037,2,2038,125,feet,jsons/VE125_randls_12.json,1166767,1354990,28,Woman
102,791313,DepthScenes,duration_manipulation_targetAtFixation,jsons/VE125_randls_12.json,http://54.235.29.9/FacialAge/BNav_EC2/DepthDuration/v2_depth_duration_MTurk/v2_DepthDuration_HTML.html#65,65,1536,714,1536,864,8-21-2022,10-20-16,103,depth_duration_stimuli/002467_2014-06-28_20-38-07_260595134347_rgbf000026-resize_2/002467_2014-06-28_20-38-07_260595134347_rgbf000026-resize_2-target.png,125,4.742,5,2843,123,feet,jsons/VE125_randls_12.json,1166767,1354990,28,Woman
103,791313,DepthScenes,duration_manipulation_targetAtFixation,jsons/VE125_randls_12.json,http://54.235.29.9/FacialAge/BNav_EC2/DepthDuration/v2_depth_duration_MTurk/v2_DepthDuration_HTML.html#65,65,1536,714,1536,864,8-21-2022,10-20-16,104,depth_duration_stimuli/001055_2014-06-08_18-45-35_260595134347_rgbf000111-resize_4/001055_2014-06-08_18-45-35_260595134347_rgbf000111-resize_4-target.png,125,2.4290000000000003,4,2525,124,feet,jsons/VE125_randls_12.json,1166767,1354990,28,Woman
104,791313,DepthScenes,duration_manipulation_targetAtFixation,jsons/VE125_randls_12.json,http://54.235.29.9/FacialAge/BNav_EC2/DepthDuration/v2_depth_duration_MTurk/v2_DepthDuration_HTML.html#65,65,1536,714,1536,864,8-21-2022,10-20-16,105,depth_duration_stimuli/000549_2014-06-08_22-10-24_260595134347_rgbf000247-resize_3/000549_2014-06-08_22-10-24_260595134347_rgbf000247-resize_3-target.png,125,1.841,2,3659,125,feet,jsons/VE125_randls_12.json,1166767,1354990,28,Woman
105,791313,DepthScenes,duration_manipulation_targetAtFixation,jsons/VE125_randls_12.json,http://54.235.29.9/FacialAge/BNav_EC2/DepthDuration/v2_depth_duration_MTurk/v2_DepthDuration_HTML.html#65,65,1536,714,1536,864,8-21-2022,10-20-16,106,depth_duration_stimuli/000682_2014-06-08_23-14-58_260595134347_rgbf000041-resize_5/000682_2014-06-08_23-14-58_260595134347_rgbf000041-resize_5-target.png,125,2.7239999999999998,3,2739,128,feet,jsons/VE125_randls_12.json,1166767,1354990,28,Woman
106,791313,DepthScenes,duration_manipulation_targetAtFixation,jsons/VE125_randls_12.json,http://54.235.29.9/FacialAge/BNav_EC2/DepthDuration/v2_depth_duration_MTurk/v2_DepthDuration_HTML.html#65,65,1536,714,1536,864,8-21-2022,10-20-16,107,depth_duration_stimuli/001650_2014-06-20_12-09-00_260595134347_rgbf000087-resize_3/001650_2014-06-20_12-09-00_260595134347_rgbf000087-resize_3-target.png,125,1.9505,1,2871,125,feet,jsons/VE125_randls_12.json,1166767,1354990,28,Woman
107,791313,DepthScenes,duration_manipulation_targetAtFixation,jsons/VE125_randls_12.json,http://54.235.29.9/FacialAge/BNav_EC2/DepthDuration/v2_depth_duration_MTurk/v2_DepthDuration_HTML.html#65,65,1536,714,1536,864,8-21-2022,10-20-16,108,depth_duration_stimuli/000773_2014-06-08_22-24-54_260595134347_rgbf000093-resize_1/000773_2014-06-08_22-24-54_260595134347_rgbf000093-resize_1-target.png,125,4.973,5,2076,125,feet,jsons/VE125_randls_12.json,1166767,1354990,28,Woman
108,791313,DepthScenes,duration_manipulation_targetAtFixation,jsons/VE125_randls_12.json,http://54.235.29.9/FacialAge/BNav_EC2/DepthDuration/v2_depth_duration_MTurk/v2_DepthDuration_HTML.html#65,65,1536,714,1536,864,8-21-2022,10-20-16,109,depth_duration_stimuli/002414_2014-06-28_20-24-58_260595134347_rgbf000067-resize_4/002414_2014-06-28_20-24-58_260595134347_rgbf000067-resize_4-target.png,125,4.363,5,2462,125,feet,jsons/VE125_randls_12.json,1166767,1354990,28,Woman
109,791313,DepthScenes,duration_manipulation_targetAtFixation,jsons/VE125_randls_12.json,http://54.235.29.9/FacialAge/BNav_EC2/DepthDuration/v2_depth_duration_MTurk/v2_DepthDuration_HTML.html#65,65,1536,714,1536,864,8-21-2022,10-20-16,110,depth_duration_stimuli/002375_2014-06-28_20-13-44_260595134347_rgbf000032-resize_1/002375_2014-06-28_20-13-44_260595134347_rgbf000032-resize_1-target.png,125,4.0175,3,2443,112,feet,jsons/VE125_randls_12.json,1166767,1354990,28,Woman
110,791313,DepthScenes,duration_manipulation_targetAtFixation,jsons/VE125_randls_12.json,http://54.235.29.9/FacialAge/BNav_EC2/DepthDuration/v2_depth_duration_MTurk/v2_DepthDuration_HTML.html#65,65,1536,714,1536,864,8-21-2022,10-20-16,111,depth_duration_stimuli/002657_2014-06-13_15-29-54_094959634447_rgbf000150-resize_1/002657_2014-06-13_15-29-54_094959634447_rgbf000150-resize_1-target.png,125,4.919,5,2657,126,feet,jsons/VE125_randls_12.json,1166767,1354990,28,Woman
111,791313,DepthScenes,duration_manipulation_targetAtFixation,jsons/VE125_randls_12.json,http://54.235.29.9/FacialAge/BNav_EC2/DepthDuration/v2_depth_duration_MTurk/v2_DepthDuration_HTML.html#65,65,1536,714,1536,864,8-21-2022,10-20-16,112,depth_duration_stimuli/002905_2014-06-03_18-04-43_094959634447_rgbf000151-resize_2/002905_2014-06-03_18-04-43_094959634447_rgbf000151-resize_2-target.png,125,2.0295,4,2781,113,feet,jsons/VE125_randls_12.json,1166767,1354990,28,Woman
112,791313,DepthScenes,duration_manipulation_targetAtFixation,jsons/VE125_randls_12.json,http://54.235.29.9/FacialAge/BNav_EC2/DepthDuration/v2_depth_duration_MTurk/v2_DepthDuration_HTML.html#65,65,1536,714,1536,864,8-21-2022,10-20-16,113,depth_duration_stimuli/003423_2014-05-21_10-23-26_094959634447_rgbf002665-resize_2/003423_2014-05-21_10-23-26_094959634447_rgbf002665-resize_2-target.png,125,3.2575,9,3670,125,feet,jsons/VE125_randls_12.json,1166767,1354990,28,Woman
113,791313,DepthScenes,duration_manipulation_targetAtFixation,jsons/VE125_randls_12.json,http://54.235.29.9/FacialAge/BNav_EC2/DepthDuration/v2_depth_duration_MTurk/v2_DepthDuration_HTML.html#65,65,1536,714,1536,864,8-21-2022,10-20-16,114,depth_duration_stimuli/002509_2014-06-24_13-19-22_094959634447_rgbf000077-resize_0/002509_2014-06-24_13-19-22_094959634447_rgbf000077-resize_0-target.png,125,1.3065,2,2027,132,feet,jsons/VE125_randls_12.json,1166767,1354990,28,Woman
114,791313,DepthScenes,duration_manipulation_targetAtFixation,jsons/VE125_randls_12.json,http://54.235.29.9/FacialAge/BNav_EC2/DepthDuration/v2_depth_duration_MTurk/v2_DepthDuration_HTML.html#65,65,1536,714,1536,864,8-21-2022,10-20-16,115,depth_duration_stimuli/003338_2014-05-20_11-01-23_094959634447_rgbf000051-resize_6/003338_2014-05-20_11-01-23_094959634447_rgbf000051-resize_6-target.png,125,1.693,3,4032,125,feet,jsons/VE125_randls_12.json,1166767,1354990,28,Woman
115,791313,DepthScenes,duration_manipulation_targetAtFixation,jsons/VE125_randls_12.json,http://54.235.29.9/FacialAge/BNav_EC2/DepthDuration/v2_depth_duration_MTurk/v2_DepthDuration_HTML.html#65,65,1536,714,1536,864,8-21-2022,10-20-16,116,depth_duration_stimuli/001170_2014-06-17_15-43-44_260595134347_rgbf000096-resize_6/001170_2014-06-17_15-43-44_260595134347_rgbf000096-resize-original.jpg,125,1.1909999999999998,0,2299,118,feet,jsons/VE125_randls_12.json,1166767,1354990,28,Woman
116,791313,DepthScenes,duration_manipulation_targetAtFixation,jsons/VE125_randls_12.json,http://54.235.29.9/FacialAge/BNav_EC2/DepthDuration/v2_depth_duration_MTurk/v2_DepthDuration_HTML.html#65,65,1536,714,1536,864,8-21-2022,10-20-16,117,depth_duration_stimuli/000736_2014-06-08_18-24-15_260595134347_rgbf000206-resize_3/000736_2014-06-08_18-24-15_260595134347_rgbf000206-resize_3-target.png,125,3.515,4,2451,124,feet,jsons/VE125_randls_12.json,1166767,1354990,28,Woman
117,791313,DepthScenes,duration_manipulation_targetAtFixation,jsons/VE125_randls_12.json,http://54.235.29.9/FacialAge/BNav_EC2/DepthDuration/v2_depth_duration_MTurk/v2_DepthDuration_HTML.html#65,65,1536,714,1536,864,8-21-2022,10-20-16,118,depth_duration_stimuli/000137_2014-05-20_17-04-49_260595134347_rgbf000120-resize_1/000137_2014-05-20_17-04-49_260595134347_rgbf000120-resize_1-target.png,125,3.786,5,2871,127,feet,jsons/VE125_randls_12.json,1166767,1354990,28,Woman
118,791313,DepthScenes,duration_manipulation_targetAtFixation,jsons/VE125_randls_12.json,http://54.235.29.9/FacialAge/BNav_EC2/DepthDuration/v2_depth_duration_MTurk/v2_DepthDuration_HTML.html#65,65,1536,714,1536,864,8-21-2022,10-20-16,119,depth_duration_stimuli/002630_2014-06-24_14-47-50_094959634447_rgbf000055-resize_1/002630_2014-06-24_14-47-50_094959634447_rgbf000055-resize_1-target.png,125,3.0095,7,3007,128,feet,jsons/VE125_randls_12.json,1166767,1354990,28,Woman
119,791313,DepthScenes,duration_manipulation_targetAtFixation,jsons/VE125_randls_12.json,http://54.235.29.9/FacialAge/BNav_EC2/DepthDuration/v2_depth_duration_MTurk/v2_DepthDuration_HTML.html#65,65,1536,714,1536,864,8-21-2022,10-20-16,120,depth_duration_stimuli/002758_2014-06-22_19-11-20_094959634447_rgbf000128-resize_1/002758_2014-06-22_19-11-20_094959634447_rgbf000128-resize_1-target.png,125,2.555,4,2815,122,feet,jsons/VE125_randls_12.json,1166767,1354990,28,Woman
120,791313,DepthScenes,duration_manipulation_targetAtFixation,jsons/VE125_randls_12.json,http://54.235.29.9/FacialAge/BNav_EC2/DepthDuration/v2_depth_duration_MTurk/v2_DepthDuration_HTML.html#65,65,1536,714,1536,864,8-21-2022,10-20-16,121,depth_duration_stimuli/002118_2014-06-25_20-32-08_260595134347_rgbf000078-resize_1/002118_2014-06-25_20-32-08_260595134347_rgbf000078-resize_1-target.png,125,2.6460000000000004,5,2423,125,feet,jsons/VE125_randls_12.json,1166767,1354990,28,Woman
121,791313,DepthScenes,duration_manipulation_targetAtFixation,jsons/VE125_randls_12.json,http://54.235.29.9/FacialAge/BNav_EC2/DepthDuration/v2_depth_duration_MTurk/v2_DepthDuration_HTML.html#65,65,1536,714,1536,864,8-21-2022,10-20-16,122,depth_duration_stimuli/001516_2014-06-20_16-25-09_260595134347_rgbf000076-resize_2/001516_2014-06-20_16-25-09_260595134347_rgbf000076-resize_2-target.png,125,1.7445,2,2231,125,feet,jsons/VE125_randls_12.json,1166767,1354990,28,Woman
122,791313,DepthScenes,duration_manipulation_targetAtFixation,jsons/VE125_randls_12.json,http://54.235.29.9/FacialAge/BNav_EC2/DepthDuration/v2_depth_duration_MTurk/v2_DepthDuration_HTML.html#65,65,1536,714,1536,864,8-21-2022,10-20-16,123,depth_duration_stimuli/001175_2014-06-17_15-45-55_260595134347_rgbf000129-resize_4/001175_2014-06-17_15-45-55_260595134347_rgbf000129-resize_4-target.png,125,4.255,5,2915,118,feet,jsons/VE125_randls_12.json,1166767,1354990,28,Woman
123,791313,DepthScenes,duration_manipulation_targetAtFixation,jsons/VE125_randls_12.json,http://54.235.29.9/FacialAge/BNav_EC2/DepthDuration/v2_depth_duration_MTurk/v2_DepthDuration_HTML.html#65,65,1536,714,1536,864,8-21-2022,10-20-16,124,depth_duration_stimuli/003490_2014-05-21_15-50-11_094959634447_rgbf000101-resize_3/003490_2014-05-21_15-50-11_094959634447_rgbf000101-resize_3-target.png,125,3.6445,5,2341,124,feet,jsons/VE125_randls_12.json,1166767,1354990,28,Woman
124,791313,DepthScenes,duration_manipulation_targetAtFixation,jsons/VE125_randls_12.json,http://54.235.29.9/FacialAge/BNav_EC2/DepthDuration/v2_depth_duration_MTurk/v2_DepthDuration_HTML.html#65,65,1536,714,1536,864,8-21-2022,10-20-16,125,depth_duration_stimuli/001133_2014-06-17_14-49-16_260595134347_rgbf000100-resize_0/001133_2014-06-17_14-49-16_260595134347_rgbf000100-resize_0-target.png,125,4.2115,5,4711,139,feet,jsons/VE125_randls_12.json,1166767,1354990,28,Woman
125,791313,DepthScenes,duration_manipulation_targetAtFixation,jsons/VE125_randls_12.json,http://54.235.29.9/FacialAge/BNav_EC2/DepthDuration/v2_depth_duration_MTurk/v2_DepthDuration_HTML.html#65,65,1536,714,1536,864,8-21-2022,10-20-16,126,depth_duration_stimuli/001132_2014-06-17_14-48-54_260595134347_rgbf000100-resize_2/001132_2014-06-17_14-48-54_260595134347_rgbf000100-resize_2-target.png,125,3.753,5,2567,109,feet,jsons/VE125_randls_12.json,1166767,1354990,28,Woman
126,791313,DepthScenes,duration_manipulation_targetAtFixation,jsons/VE125_randls_12.json,http://54.235.29.9/FacialAge/BNav_EC2/DepthDuration/v2_depth_duration_MTurk/v2_DepthDuration_HTML.html#65,65,1536,714,1536,864,8-21-2022,10-20-16,127,depth_duration_stimuli/003621_2014-05-23_18-06-08_094959634447_rgbf000101-resize_1/003621_2014-05-23_18-06-08_094959634447_rgbf000101-resize_1-target.png,125,3.9835,7,2419,110,feet,jsons/VE125_randls_12.json,1166767,1354990,28,Woman
127,791313,DepthScenes,duration_manipulation_targetAtFixation,jsons/VE125_randls_12.json,http://54.235.29.9/FacialAge/BNav_EC2/DepthDuration/v2_depth_duration_MTurk/v2_DepthDuration_HTML.html#65,65,1536,714,1536,864,8-21-2022,10-20-16,128,depth_duration_stimuli/001584_2014-06-20_11-07-43_260595134347_rgbf000002-resize_1/001584_2014-06-20_11-07-43_260595134347_rgbf000002-resize_1-target.png,125,3.53,5,2807,125,feet,jsons/VE125_randls_12.json,1166767,1354990,28,Woman
128,791313,DepthScenes,duration_manipulation_targetAtFixation,jsons/VE125_randls_12.json,http://54.235.29.9/FacialAge/BNav_EC2/DepthDuration/v2_depth_duration_MTurk/v2_DepthDuration_HTML.html#65,65,1536,714,1536,864,8-21-2022,10-20-16,129,depth_duration_stimuli/000522_2014-06-08_13-35-06_260595134347_rgbf000244-resize_1/000522_2014-06-08_13-35-06_260595134347_rgbf000244-resize_1-target.png,125,2.3715,2,2219,126,feet,jsons/VE125_randls_12.json,1166767,1354990,28,Woman
129,791313,DepthScenes,duration_manipulation_targetAtFixation,jsons/VE125_randls_12.json,http://54.235.29.9/FacialAge/BNav_EC2/DepthDuration/v2_depth_duration_MTurk/v2_DepthDuration_HTML.html#65,65,1536,714,1536,864,8-21-2022,10-20-16,130,depth_duration_stimuli/002949_2014-06-26_15-57-42_094959634447_rgbf000079-resize_1/002949_2014-06-26_15-57-42_094959634447_rgbf000079-resize_1-target.png,125,1.8915,3,2027,127,feet,jsons/VE125_randls_12.json,1166767,1354990,28,Woman
130,791313,DepthScenes,duration_manipulation_targetAtFixation,jsons/VE125_randls_12.json,http://54.235.29.9/FacialAge/BNav_EC2/DepthDuration/v2_depth_duration_MTurk/v2_DepthDuration_HTML.html#65,65,1536,714,1536,864,8-21-2022,10-20-16,131,depth_duration_stimuli/002600_2014-06-24_14-27-04_094959634447_rgbf000074-resize_2/002600_2014-06-24_14-27-04_094959634447_rgbf000074-resize_2-target.png,125,2.7575,4,4765,126,feet,jsons/VE125_randls_12.json,1166767,1354990,28,Woman
131,791313,DepthScenes,duration_manipulation_targetAtFixation,jsons/VE125_randls_12.json,http://54.235.29.9/FacialAge/BNav_EC2/DepthDuration/v2_depth_duration_MTurk/v2_DepthDuration_HTML.html#65,65,1536,714,1536,864,8-21-2022,10-20-16,132,depth_duration_stimuli/003228_2014-05-14_13-42-35_094959634447_rgbf000101-resize_1/003228_2014-05-14_13-42-35_094959634447_rgbf000101-resize_1-target.png,125,1.9680000000000002,3,2023,124,feet,jsons/VE125_randls_12.json,1166767,1354990,28,Woman
132,791313,DepthScenes,duration_manipulation_targetAtFixation,jsons/VE125_randls_12.json,http://54.235.29.9/FacialAge/BNav_EC2/DepthDuration/v2_depth_duration_MTurk/v2_DepthDuration_HTML.html#65,65,1536,714,1536,864,8-21-2022,10-20-16,133,depth_duration_stimuli/000009_2014-05-26_14-32-05_260595134347_rgbf000034-resize_3/000009_2014-05-26_14-32-05_260595134347_rgbf000034-resize_3-target.png,125,3.8715,8,2771,126,feet,jsons/VE125_randls_12.json,1166767,1354990,28,Woman
133,791313,DepthScenes,duration_manipulation_targetAtFixation,jsons/VE125_randls_12.json,http://54.235.29.9/FacialAge/BNav_EC2/DepthDuration/v2_depth_duration_MTurk/v2_DepthDuration_HTML.html#65,65,1536,714,1536,864,8-21-2022,10-20-16,134,depth_duration_stimuli/001828_2014-06-26_21-40-03_260595134347_rgbf000024-resize_0/001828_2014-06-26_21-40-03_260595134347_rgbf000024-resize_0-target.png,125,4.8260000000000005,5,2514,124,feet,jsons/VE125_randls_12.json,1166767,1354990,28,Woman
134,791313,DepthScenes,duration_manipulation_targetAtFixation,jsons/VE125_randls_12.json,http://54.235.29.9/FacialAge/BNav_EC2/DepthDuration/v2_depth_duration_MTurk/v2_DepthDuration_HTML.html#65,65,1536,714,1536,864,8-21-2022,10-20-16,135,depth_duration_stimuli/002072_2014-06-24_21-48-06_260595134347_rgbf000115-resize_0/002072_2014-06-24_21-48-06_260595134347_rgbf000115-resize-original.jpg,125,4.702,0,4099,127,feet,jsons/VE125_randls_12.json,1166767,1354990,28,Woman
135,791313,DepthScenes,duration_manipulation_targetAtFixation,jsons/VE125_randls_12.json,http://54.235.29.9/FacialAge/BNav_EC2/DepthDuration/v2_depth_duration_MTurk/v2_DepthDuration_HTML.html#65,65,1536,714,1536,864,8-21-2022,10-20-16,136,depth_duration_stimuli/003070_2014-06-15_14-58-27_094959634447_rgbf000150-resize_3/003070_2014-06-15_14-58-27_094959634447_rgbf000150-resize_3-target.png,125,2.9415,5,2278,112,feet,jsons/VE125_randls_12.json,1166767,1354990,28,Woman
136,791313,DepthScenes,duration_manipulation_targetAtFixation,jsons/VE125_randls_12.json,http://54.235.29.9/FacialAge/BNav_EC2/DepthDuration/v2_depth_duration_MTurk/v2_DepthDuration_HTML.html#65,65,1536,714,1536,864,8-21-2022,10-20-16,137,depth_duration_stimuli/000943_2014-06-09_19-31-07_260595134347_rgbf000128-resize_1/000943_2014-06-09_19-31-07_260595134347_rgbf000128-resize_1-target.png,125,1.9765,3,2554,127,feet,jsons/VE125_randls_12.json,1166767,1354990,28,Woman
137,791313,DepthScenes,duration_manipulation_targetAtFixation,jsons/VE125_randls_12.json,http://54.235.29.9/FacialAge/BNav_EC2/DepthDuration/v2_depth_duration_MTurk/v2_DepthDuration_HTML.html#65,65,1536,714,1536,864,8-21-2022,10-20-16,138,depth_duration_stimuli/001199_2014-06-17_16-03-48_260595134347_rgbf000077-resize_0/001199_2014-06-17_16-03-48_260595134347_rgbf000077-resize_0-target.png,125,3.4375,7,2547,127,feet,jsons/VE125_randls_12.json,1166767,1354990,28,Woman
138,791313,DepthScenes,duration_manipulation_targetAtFixation,jsons/VE125_randls_12.json,http://54.235.29.9/FacialAge/BNav_EC2/DepthDuration/v2_depth_duration_MTurk/v2_DepthDuration_HTML.html#65,65,1536,714,1536,864,8-21-2022,10-20-16,139,depth_duration_stimuli/000502_2014-06-08_23-02-32_260595134347_rgbf000063-resize_4/000502_2014-06-08_23-02-32_260595134347_rgbf000063-resize_4-target.png,125,2.431,5,3609,138,feet,jsons/VE125_randls_12.json,1166767,1354990,28,Woman
139,791313,DepthScenes,duration_manipulation_targetAtFixation,jsons/VE125_randls_12.json,http://54.235.29.9/FacialAge/BNav_EC2/DepthDuration/v2_depth_duration_MTurk/v2_DepthDuration_HTML.html#65,65,1536,714,1536,864,8-21-2022,10-20-16,140,depth_duration_stimuli/002272_2014-06-28_18-53-56_260595134347_rgbf000067-resize_2/002272_2014-06-28_18-53-56_260595134347_rgbf000067-resize_2-target.png,125,1.138,3,3643,124,feet,jsons/VE125_randls_12.json,1166767,1354990,28,Woman
140,791313,DepthScenes,duration_manipulation_targetAtFixation,jsons/VE125_randls_12.json,http://54.235.29.9/FacialAge/BNav_EC2/DepthDuration/v2_depth_duration_MTurk/v2_DepthDuration_HTML.html#65,65,1536,714,1536,864,8-21-2022,10-20-16,141,depth_duration_stimuli/001571_2014-06-20_17-21-32_260595134347_rgbf000089-resize_1/001571_2014-06-20_17-21-32_260595134347_rgbf000089-resize_1-target.png,125,1.86,3,3050,111,feet,jsons/VE125_randls_12.json,1166767,1354990,28,Woman
141,791313,DepthScenes,duration_manipulation_targetAtFixation,jsons/VE125_randls_12.json,http://54.235.29.9/FacialAge/BNav_EC2/DepthDuration/v2_depth_duration_MTurk/v2_DepthDuration_HTML.html#65,65,1536,714,1536,864,8-21-2022,10-20-16,142,depth_duration_stimuli/002445_2014-06-28_20-32-16_260595134347_rgbf000029-resize_4/002445_2014-06-28_20-32-16_260595134347_rgbf000029-resize_4-target.png,125,2.5315,4,2261,121,feet,jsons/VE125_randls_12.json,1166767,1354990,28,Woman
142,791313,DepthScenes,duration_manipulation_targetAtFixation,jsons/VE125_randls_12.json,http://54.235.29.9/FacialAge/BNav_EC2/DepthDuration/v2_depth_duration_MTurk/v2_DepthDuration_HTML.html#65,65,1536,714,1536,864,8-21-2022,10-20-16,143,depth_duration_stimuli/000780_2014-06-08_22-28-29_260595134347_rgbf000126-resize_1/000780_2014-06-08_22-28-29_260595134347_rgbf000126-resize_1-target.png,125,3.3825,4,2933,125,feet,jsons/VE125_randls_12.json,1166767,1354990,28,Woman
143,791313,DepthScenes,duration_manipulation_targetAtFixation,jsons/VE125_randls_12.json,http://54.235.29.9/FacialAge/BNav_EC2/DepthDuration/v2_depth_duration_MTurk/v2_DepthDuration_HTML.html#65,65,1536,714,1536,864,8-21-2022,10-20-16,144,depth_duration_stimuli/000642_2014-06-08_16-59-25_260595134347_rgbf000098-resize_2/000642_2014-06-08_16-59-25_260595134347_rgbf000098-resize_2-target.png,125,2.8815,4,2140,111,feet,jsons/VE125_randls_12.json,1166767,1354990,28,Woman
144,791313,DepthScenes,duration_manipulation_targetAtFixation,jsons/VE125_randls_12.json,http://54.235.29.9/FacialAge/BNav_EC2/DepthDuration/v2_depth_duration_MTurk/v2_DepthDuration_HTML.html#65,65,1536,714,1536,864,8-21-2022,10-20-16,145,depth_duration_stimuli/002425_2014-06-28_20-27-29_260595134347_rgbf000031-resize_8/002425_2014-06-28_20-27-29_260595134347_rgbf000031-resize_8-target.png,125,3.8960000000000004,6,6024,110,feet,jsons/VE125_randls_12.json,1166767,1354990,28,Woman
145,791313,DepthScenes,duration_manipulation_targetAtFixation,jsons/VE125_randls_12.json,http://54.235.29.9/FacialAge/BNav_EC2/DepthDuration/v2_depth_duration_MTurk/v2_DepthDuration_HTML.html#65,65,1536,714,1536,864,8-21-2022,10-20-16,146,depth_duration_stimuli/001498_2014-06-19_17-45-14_260595134347_rgbf000129-resize_4/001498_2014-06-19_17-45-14_260595134347_rgbf000129-resize-original.jpg,125,1.4075,0,2578,133,feet,jsons/VE125_randls_12.json,1166767,1354990,28,Woman
146,791313,DepthScenes,duration_manipulation_targetAtFixation,jsons/VE125_randls_12.json,http://54.235.29.9/FacialAge/BNav_EC2/DepthDuration/v2_depth_duration_MTurk/v2_DepthDuration_HTML.html#65,65,1536,714,1536,864,8-21-2022,10-20-16,147,depth_duration_stimuli/000929_2014-06-09_16-33-19_260595134347_rgbf000139-resize_0/000929_2014-06-09_16-33-19_260595134347_rgbf000139-resize_0-target.png,125,2.8680000000000003,4,3194,124,feet,jsons/VE125_randls_12.json,1166767,1354990,28,Woman
147,791313,DepthScenes,duration_manipulation_targetAtFixation,jsons/VE125_randls_12.json,http://54.235.29.9/FacialAge/BNav_EC2/DepthDuration/v2_depth_duration_MTurk/v2_DepthDuration_HTML.html#65,65,1536,714,1536,864,8-21-2022,10-20-16,148,depth_duration_stimuli/000457_2014-06-08_16-52-43_260595134347_rgbf000199-resize_1/000457_2014-06-08_16-52-43_260595134347_rgbf000199-resize_1-target.png,125,3.6489999999999996,5,3185,118,feet,jsons/VE125_randls_12.json,1166767,1354990,28,Woman
148,791313,DepthScenes,duration_manipulation_targetAtFixation,jsons/VE125_randls_12.json,http://54.235.29.9/FacialAge/BNav_EC2/DepthDuration/v2_depth_duration_MTurk/v2_DepthDuration_HTML.html#65,65,1536,714,1536,864,8-21-2022,10-20-16,149,depth_duration_stimuli/001158_2014-06-17_15-32-16_260595134347_rgbf000138-resize_2/001158_2014-06-17_15-32-16_260595134347_rgbf000138-resize_2-target.png,125,4.5315,6,3345,128,feet,jsons/VE125_randls_12.json,1166767,1354990,28,Woman
149,791313,DepthScenes,duration_manipulation_targetAtFixation,jsons/VE125_randls_12.json,http://54.235.29.9/FacialAge/BNav_EC2/DepthDuration/v2_depth_duration_MTurk/v2_DepthDuration_HTML.html#65,65,1536,714,1536,864,8-21-2022,10-20-16,150,depth_duration_stimuli/000556_2014-06-09_22-42-56_260595134347_rgbf000214-resize_1/000556_2014-06-09_22-42-56_260595134347_rgbf000214-resize_1-target.png,125,4.8415,7,3238,124,feet,jsons/VE125_randls_12.json,1166767,1354990,28,Woman
150,791313,DepthScenes,duration_manipulation_targetAtFixation,jsons/VE125_randls_12.json,http://54.235.29.9/FacialAge/BNav_EC2/DepthDuration/v2_depth_duration_MTurk/v2_DepthDuration_HTML.html#65,65,1536,714,1536,864,8-21-2022,10-20-16,151,depth_duration_stimuli/000447_2014-06-08_16-15-46_260595134347_rgbf000130-resize_1/000447_2014-06-08_16-15-46_260595134347_rgbf000130-resize_1-target.png,125,4.479,7,2664,125,feet,jsons/VE125_randls_12.json,1166767,1354990,28,Woman
151,791313,DepthScenes,duration_manipulation_targetAtFixation,jsons/VE125_randls_12.json,http://54.235.29.9/FacialAge/BNav_EC2/DepthDuration/v2_depth_duration_MTurk/v2_DepthDuration_HTML.html#65,65,1536,714,1536,864,8-21-2022,10-20-16,152,depth_duration_stimuli/001447_2014-06-19_17-00-32_260595134347_rgbf000082-resize_5/001447_2014-06-19_17-00-32_260595134347_rgbf000082-resize_5-target.png,125,4.13775,7,2403,126,feet,jsons/VE125_randls_12.json,1166767,1354990,28,Woman
152,791313,DepthScenes,duration_manipulation_targetAtFixation,jsons/VE125_randls_12.json,http://54.235.29.9/FacialAge/BNav_EC2/DepthDuration/v2_depth_duration_MTurk/v2_DepthDuration_HTML.html#65,65,1536,714,1536,864,8-21-2022,10-20-16,153,depth_duration_stimuli/001059_2014-06-08_21-53-27_260595134347_rgbf000061-resize_4/001059_2014-06-08_21-53-27_260595134347_rgbf000061-resize_4-target.png,125,2.4185,7,2220,125,feet,jsons/VE125_randls_12.json,1166767,1354990,28,Woman
153,791313,DepthScenes,duration_manipulation_targetAtFixation,jsons/VE125_randls_12.json,http://54.235.29.9/FacialAge/BNav_EC2/DepthDuration/v2_depth_duration_MTurk/v2_DepthDuration_HTML.html#65,65,1536,714,1536,864,8-21-2022,10-20-16,154,depth_duration_stimuli/001032_2014-06-08_13-23-17_260595134347_rgbf000021-resize_3/001032_2014-06-08_13-23-17_260595134347_rgbf000021-resize_3-target.png,125,3.2725,6,2299,127,feet,jsons/VE125_randls_12.json,1166767,1354990,28,Woman
154,791313,DepthScenes,duration_manipulation_targetAtFixation,jsons/VE125_randls_12.json,http://54.235.29.9/FacialAge/BNav_EC2/DepthDuration/v2_depth_duration_MTurk/v2_DepthDuration_HTML.html#65,65,1536,714,1536,864,8-21-2022,10-20-16,155,depth_duration_stimuli/000739_2014-06-08_18-45-58_260595134347_rgbf000068-resize_1/000739_2014-06-08_18-45-58_260595134347_rgbf000068-resize_1-target.png,125,3.534,7,2221,119,feet,jsons/VE125_randls_12.json,1166767,1354990,28,Woman
155,791313,DepthScenes,duration_manipulation_targetAtFixation,jsons/VE125_randls_12.json,http://54.235.29.9/FacialAge/BNav_EC2/DepthDuration/v2_depth_duration_MTurk/v2_DepthDuration_HTML.html#65,65,1536,714,1536,864,8-21-2022,10-20-16,156,depth_duration_stimuli/000734_2014-06-08_17-39-11_260595134347_rgbf000128-resize_2/000734_2014-06-08_17-39-11_260595134347_rgbf000128-resize_2-target.png,125,4.098,7,2189,129,feet,jsons/VE125_randls_12.json,1166767,1354990,28,Woman
156,791313,DepthScenes,duration_manipulation_targetAtFixation,jsons/VE125_randls_12.json,http://54.235.29.9/FacialAge/BNav_EC2/DepthDuration/v2_depth_duration_MTurk/v2_DepthDuration_HTML.html#65,65,1536,714,1536,864,8-21-2022,10-20-16,157,depth_duration_stimuli/001808_2014-06-26_20-50-58_260595134347_rgbf000029-resize_1/001808_2014-06-26_20-50-58_260595134347_rgbf000029-resize_1-target.png,125,4.249,8,2295,114,feet,jsons/VE125_randls_12.json,1166767,1354990,28,Woman
157,791313,DepthScenes,duration_manipulation_targetAtFixation,jsons/VE125_randls_12.json,http://54.235.29.9/FacialAge/BNav_EC2/DepthDuration/v2_depth_duration_MTurk/v2_DepthDuration_HTML.html#65,65,1536,714,1536,864,8-21-2022,10-20-16,158,depth_duration_stimuli/001815_2014-06-26_20-52-55_260595134347_rgbf000020-resize_0/001815_2014-06-26_20-52-55_260595134347_rgbf000020-resize_0-target.png,125,3.3865,8,2115,117,feet,jsons/VE125_randls_12.json,1166767,1354990,28,Woman
158,791313,DepthScenes,duration_manipulation_targetAtFixation,jsons/VE125_randls_12.json,http://54.235.29.9/FacialAge/BNav_EC2/DepthDuration/v2_depth_duration_MTurk/v2_DepthDuration_HTML.html#65,65,1536,714,1536,864,8-21-2022,10-20-16,159,depth_duration_stimuli/000469_2014-06-09_19-42-10_260595134347_rgbf000081-resize_1/000469_2014-06-09_19-42-10_260595134347_rgbf000081-resize_1-target.png,125,1.652,4,3455,128,feet,jsons/VE125_randls_12.json,1166767,1354990,28,Woman
159,791313,DepthScenes,duration_manipulation_targetAtFixation,jsons/VE125_randls_12.json,http://54.235.29.9/FacialAge/BNav_EC2/DepthDuration/v2_depth_duration_MTurk/v2_DepthDuration_HTML.html#65,65,1536,714,1536,864,8-21-2022,10-20-16,160,depth_duration_stimuli/000483_2014-06-09_20-41-45_260595134347_rgbf000116-resize_4/000483_2014-06-09_20-41-45_260595134347_rgbf000116-resize_4-target.png,125,1.337,4,3797,128,feet,jsons/VE125_randls_12.json,1166767,1354990,28,Woman
160,791313,DepthScenes,duration_manipulation_targetAtFixation,jsons/VE125_randls_12.json,http://54.235.29.9/FacialAge/BNav_EC2/DepthDuration/v2_depth_duration_MTurk/v2_DepthDuration_HTML.html#65,65,1536,714,1536,864,8-21-2022,10-20-16,161,depth_duration_stimuli/001110_2014-06-15_17-25-28_260595134347_rgbf000150-resize_1/001110_2014-06-15_17-25-28_260595134347_rgbf000150-resize_1-target.png,125,1.7115,2,2556,111,feet,jsons/VE125_randls_12.json,1166767,1354990,28,Woman
161,791313,DepthScenes,duration_manipulation_targetAtFixation,jsons/VE125_randls_12.json,http://54.235.29.9/FacialAge/BNav_EC2/DepthDuration/v2_depth_duration_MTurk/v2_DepthDuration_HTML.html#65,65,1536,714,1536,864,8-21-2022,10-20-16,162,depth_duration_stimuli/000927_2014-06-09_16-32-30_260595134347_rgbf000123-resize_3/000927_2014-06-09_16-32-30_260595134347_rgbf000123-resize_3-target.png,125,2.6785,4,3145,127,feet,jsons/VE125_randls_12.json,1166767,1354990,28,Woman
162,791313,DepthScenes,duration_manipulation_targetAtFixation,jsons/VE125_randls_12.json,http://54.235.29.9/FacialAge/BNav_EC2/DepthDuration/v2_depth_duration_MTurk/v2_DepthDuration_HTML.html#65,65,1536,714,1536,864,8-21-2022,10-20-16,163,depth_duration_stimuli/000788_2014-06-08_22-34-36_260595134347_rgbf000131-resize_1/000788_2014-06-08_22-34-36_260595134347_rgbf000131-resize_1-target.png,125,3.359,9,3544,129,feet,jsons/VE125_randls_12.json,1166767,1354990,28,Woman
163,791313,DepthScenes,duration_manipulation_targetAtFixation,jsons/VE125_randls_12.json,http://54.235.29.9/FacialAge/BNav_EC2/DepthDuration/v2_depth_duration_MTurk/v2_DepthDuration_HTML.html#65,65,1536,714,1536,864,8-21-2022,10-20-16,164,depth_duration_stimuli/001235_2014-06-17_16-37-36_260595134347_rgbf000084-resize_4/001235_2014-06-17_16-37-36_260595134347_rgbf000084-resize_4-target.png,125,3.6605,4,2289,120,feet,jsons/VE125_randls_12.json,1166767,1354990,28,Woman
