,subjID,experimentName,versionName,sequenceName,url,selected_row,windowWidth,windowHeight,screenWidth,screenHeight,startDate,startTime,trial,stimulus,duration,actual_depth,depth_estimate,trial_RT,log_sceneDuration,unitSelection,seq_filepath,experimentTime,totalTime,age,gender
0,791774,DepthScenes,duration_manipulation_targetAtFixation,jsons/v1_VE1000_randls_15.json,http://54.235.29.9/FacialAge/BNav_EC2/DepthDuration/v2_depth_duration_MTurk/v2_DepthDuration_HTML.html#380,380,1536,722,1536,864,9-3-2022,9-9-23,1,depth_duration_stimuli/002964_2014-06-08_17-46-11_094959634447_rgbf000091-resize_4/002964_2014-06-08_17-46-11_094959634447_rgbf000091-resize_4-target.png,1000,1.6909999999999998,0.2,4872,999,meters,jsons/v1_VE1000_randls_15.json,919121,1268573,1957,Woman
1,791774,DepthScenes,duration_manipulation_targetAtFixation,jsons/v1_VE1000_randls_15.json,http://54.235.29.9/FacialAge/BNav_EC2/DepthDuration/v2_depth_duration_MTurk/v2_DepthDuration_HTML.html#380,380,1536,722,1536,864,9-3-2022,9-9-23,2,depth_duration_stimuli/002136_2014-06-25_21-18-03_260595134347_rgbf000109-resize_3/002136_2014-06-25_21-18-03_260595134347_rgbf000109-resize_3-target.png,1000,1.9569999999999999,0.3,4881,1001,meters,jsons/v1_VE1000_randls_15.json,919121,1268573,1957,Woman
2,791774,DepthScenes,duration_manipulation_targetAtFixation,jsons/v1_VE1000_randls_15.json,http://54.235.29.9/FacialAge/BNav_EC2/DepthDuration/v2_depth_duration_MTurk/v2_DepthDuration_HTML.html#380,380,1536,722,1536,864,9-3-2022,9-9-23,3,depth_duration_stimuli/002272_2014-06-28_18-53-56_260595134347_rgbf000067-resize_2/002272_2014-06-28_18-53-56_260595134347_rgbf000067-resize_2-target.png,1000,1.138,0.3,4724,1019,meters,jsons/v1_VE1000_randls_15.json,919121,1268573,1957,Woman
3,791774,DepthScenes,duration_manipulation_targetAtFixation,jsons/v1_VE1000_randls_15.json,http://54.235.29.9/FacialAge/BNav_EC2/DepthDuration/v2_depth_duration_MTurk/v2_DepthDuration_HTML.html#380,380,1536,722,1536,864,9-3-2022,9-9-23,4,depth_duration_stimuli/001571_2014-06-20_17-21-32_260595134347_rgbf000089-resize_1/001571_2014-06-20_17-21-32_260595134347_rgbf000089-resize_1-target.png,1000,1.86,0.4,4649,992,meters,jsons/v1_VE1000_randls_15.json,919121,1268573,1957,Woman
4,791774,DepthScenes,duration_manipulation_targetAtFixation,jsons/v1_VE1000_randls_15.json,http://54.235.29.9/FacialAge/BNav_EC2/DepthDuration/v2_depth_duration_MTurk/v2_DepthDuration_HTML.html#380,380,1536,722,1536,864,9-3-2022,9-9-23,5,depth_duration_stimuli/002988_2014-06-15_12-24-20_094959634447_rgbf000150-resize_1/002988_2014-06-15_12-24-20_094959634447_rgbf000150-resize_1-target.png,1000,4.7669999999999995,0.4,5267,1001,meters,jsons/v1_VE1000_randls_15.json,919121,1268573,1957,Woman
5,791774,DepthScenes,duration_manipulation_targetAtFixation,jsons/v1_VE1000_randls_15.json,http://54.235.29.9/FacialAge/BNav_EC2/DepthDuration/v2_depth_duration_MTurk/v2_DepthDuration_HTML.html#380,380,1536,722,1536,864,9-3-2022,9-9-23,6,depth_duration_stimuli/001052_2014-06-08_18-24-54_260595134347_rgbf000130-resize_1/001052_2014-06-08_18-24-54_260595134347_rgbf000130-resize_1-target.png,1000,4.1045,0.1,4939,1009,meters,jsons/v1_VE1000_randls_15.json,919121,1268573,1957,Woman
6,791774,DepthScenes,duration_manipulation_targetAtFixation,jsons/v1_VE1000_randls_15.json,http://54.235.29.9/FacialAge/BNav_EC2/DepthDuration/v2_depth_duration_MTurk/v2_DepthDuration_HTML.html#380,380,1536,722,1536,864,9-3-2022,9-9-23,7,depth_duration_stimuli/001110_2014-06-15_17-25-28_260595134347_rgbf000150-resize_1/001110_2014-06-15_17-25-28_260595134347_rgbf000150-resize_1-target.png,1000,1.7115,0.1,4574,995,meters,jsons/v1_VE1000_randls_15.json,919121,1268573,1957,Woman
7,791774,DepthScenes,duration_manipulation_targetAtFixation,jsons/v1_VE1000_randls_15.json,http://54.235.29.9/FacialAge/BNav_EC2/DepthDuration/v2_depth_duration_MTurk/v2_DepthDuration_HTML.html#380,380,1536,722,1536,864,9-3-2022,9-9-23,8,depth_duration_stimuli/000927_2014-06-09_16-32-30_260595134347_rgbf000123-resize_3/000927_2014-06-09_16-32-30_260595134347_rgbf000123-resize_3-target.png,1000,2.6785,0.2,4253,951,meters,jsons/v1_VE1000_randls_15.json,919121,1268573,1957,Woman
8,791774,DepthScenes,duration_manipulation_targetAtFixation,jsons/v1_VE1000_randls_15.json,http://54.235.29.9/FacialAge/BNav_EC2/DepthDuration/v2_depth_duration_MTurk/v2_DepthDuration_HTML.html#380,380,1536,722,1536,864,9-3-2022,9-9-23,9,depth_duration_stimuli/002748_2014-06-22_19-07-22_094959634447_rgbf000078-resize_1/002748_2014-06-22_19-07-22_094959634447_rgbf000078-resize_1-target.png,1000,4.6705,0.1,5631,999,meters,jsons/v1_VE1000_randls_15.json,919121,1268573,1957,Woman
9,791774,DepthScenes,duration_manipulation_targetAtFixation,jsons/v1_VE1000_randls_15.json,http://54.235.29.9/FacialAge/BNav_EC2/DepthDuration/v2_depth_duration_MTurk/v2_DepthDuration_HTML.html#380,380,1536,722,1536,864,9-3-2022,9-9-23,10,depth_duration_stimuli/002995_2014-06-15_12-31-26_094959634447_rgbf000150-resize_1/002995_2014-06-15_12-31-26_094959634447_rgbf000150-resize_1-target.png,1000,3.8360000000000003,0.12,5516,996,meters,jsons/v1_VE1000_randls_15.json,919121,1268573,1957,Woman
10,791774,DepthScenes,duration_manipulation_targetAtFixation,jsons/v1_VE1000_randls_15.json,http://54.235.29.9/FacialAge/BNav_EC2/DepthDuration/v2_depth_duration_MTurk/v2_DepthDuration_HTML.html#380,380,1536,722,1536,864,9-3-2022,9-9-23,11,depth_duration_stimuli/000773_2014-06-08_22-24-54_260595134347_rgbf000093-resize_1/000773_2014-06-08_22-24-54_260595134347_rgbf000093-resize_1-target.png,1000,4.973,0.5,7280,983,meters,jsons/v1_VE1000_randls_15.json,919121,1268573,1957,Woman
11,791774,DepthScenes,duration_manipulation_targetAtFixation,jsons/v1_VE1000_randls_15.json,http://54.235.29.9/FacialAge/BNav_EC2/DepthDuration/v2_depth_duration_MTurk/v2_DepthDuration_HTML.html#380,380,1536,722,1536,864,9-3-2022,9-9-23,12,depth_duration_stimuli/002414_2014-06-28_20-24-58_260595134347_rgbf000067-resize_4/002414_2014-06-28_20-24-58_260595134347_rgbf000067-resize_4-target.png,1000,4.363,0.5,4934,987,meters,jsons/v1_VE1000_randls_15.json,919121,1268573,1957,Woman
12,791774,DepthScenes,duration_manipulation_targetAtFixation,jsons/v1_VE1000_randls_15.json,http://54.235.29.9/FacialAge/BNav_EC2/DepthDuration/v2_depth_duration_MTurk/v2_DepthDuration_HTML.html#380,380,1536,722,1536,864,9-3-2022,9-9-23,13,depth_duration_stimuli/000569_2014-06-09_22-51-47_260595134347_rgbf000141-resize_3/000569_2014-06-09_22-51-47_260595134347_rgbf000141-resize-original.jpg,1000,4.512,0.0,4328,995,meters,jsons/v1_VE1000_randls_15.json,919121,1268573,1957,Woman
13,791774,DepthScenes,duration_manipulation_targetAtFixation,jsons/v1_VE1000_randls_15.json,http://54.235.29.9/FacialAge/BNav_EC2/DepthDuration/v2_depth_duration_MTurk/v2_DepthDuration_HTML.html#380,380,1536,722,1536,864,9-3-2022,9-9-23,14,depth_duration_stimuli/002279_2014-06-28_18-55-32_260595134347_rgbf000040-resize_5/002279_2014-06-28_18-55-32_260595134347_rgbf000040-resize_5-target.png,1000,1.5043333333333,0.1,4775,1085,meters,jsons/v1_VE1000_randls_15.json,919121,1268573,1957,Woman
14,791774,DepthScenes,duration_manipulation_targetAtFixation,jsons/v1_VE1000_randls_15.json,http://54.235.29.9/FacialAge/BNav_EC2/DepthDuration/v2_depth_duration_MTurk/v2_DepthDuration_HTML.html#380,380,1536,722,1536,864,9-3-2022,9-9-23,15,depth_duration_stimuli/000635_2014-06-08_16-38-42_260595134347_rgbf000106-resize_1/000635_2014-06-08_16-38-42_260595134347_rgbf000106-resize_1-target.png,1000,2.074,0.5,4691,990,meters,jsons/v1_VE1000_randls_15.json,919121,1268573,1957,Woman
15,791774,DepthScenes,duration_manipulation_targetAtFixation,jsons/v1_VE1000_randls_15.json,http://54.235.29.9/FacialAge/BNav_EC2/DepthDuration/v2_depth_duration_MTurk/v2_DepthDuration_HTML.html#380,380,1536,722,1536,864,9-3-2022,9-9-23,16,depth_duration_stimuli/001417_2014-06-19_16-25-36_260595134347_rgbf000115-resize_5/001417_2014-06-19_16-25-36_260595134347_rgbf000115-resize_5-target.png,1000,4.6255,0.5,4595,1004,meters,jsons/v1_VE1000_randls_15.json,919121,1268573,1957,Woman
16,791774,DepthScenes,duration_manipulation_targetAtFixation,jsons/v1_VE1000_randls_15.json,http://54.235.29.9/FacialAge/BNav_EC2/DepthDuration/v2_depth_duration_MTurk/v2_DepthDuration_HTML.html#380,380,1536,722,1536,864,9-3-2022,9-9-23,17,depth_duration_stimuli/003081_2014-06-15_15-19-16_094959634447_rgbf000150-resize_1/003081_2014-06-15_15-19-16_094959634447_rgbf000150-resize_1-target.png,1000,3.9125,0.2,5251,999,meters,jsons/v1_VE1000_randls_15.json,919121,1268573,1957,Woman
17,791774,DepthScenes,duration_manipulation_targetAtFixation,jsons/v1_VE1000_randls_15.json,http://54.235.29.9/FacialAge/BNav_EC2/DepthDuration/v2_depth_duration_MTurk/v2_DepthDuration_HTML.html#380,380,1536,722,1536,864,9-3-2022,9-9-23,18,depth_duration_stimuli/003492_2014-05-21_15-50-55_094959634447_rgbf000828-resize_1/003492_2014-05-21_15-50-55_094959634447_rgbf000828-resize_1-target.png,1000,4.06875,0.2,4708,1003,meters,jsons/v1_VE1000_randls_15.json,919121,1268573,1957,Woman
18,791774,DepthScenes,duration_manipulation_targetAtFixation,jsons/v1_VE1000_randls_15.json,http://54.235.29.9/FacialAge/BNav_EC2/DepthDuration/v2_depth_duration_MTurk/v2_DepthDuration_HTML.html#380,380,1536,722,1536,864,9-3-2022,9-9-23,19,depth_duration_stimuli/002568_2014-06-24_13-59-21_094959634447_rgbf000062-resize_4/002568_2014-06-24_13-59-21_094959634447_rgbf000062-resize_4-target.png,1000,3.015,0.2,4028,999,meters,jsons/v1_VE1000_randls_15.json,919121,1268573,1957,Woman
19,791774,DepthScenes,duration_manipulation_targetAtFixation,jsons/v1_VE1000_randls_15.json,http://54.235.29.9/FacialAge/BNav_EC2/DepthDuration/v2_depth_duration_MTurk/v2_DepthDuration_HTML.html#380,380,1536,722,1536,864,9-3-2022,9-9-23,20,depth_duration_stimuli/002989_2014-06-15_12-25-03_094959634447_rgbf000150-resize_3/002989_2014-06-15_12-25-03_094959634447_rgbf000150-resize_3-target.png,1000,4.1975,0.5,4560,1002,meters,jsons/v1_VE1000_randls_15.json,919121,1268573,1957,Woman
20,791774,DepthScenes,duration_manipulation_targetAtFixation,jsons/v1_VE1000_randls_15.json,http://54.235.29.9/FacialAge/BNav_EC2/DepthDuration/v2_depth_duration_MTurk/v2_DepthDuration_HTML.html#380,380,1536,722,1536,864,9-3-2022,9-9-23,21,depth_duration_stimuli/000866_2014-06-09_20-45-42_260595134347_rgbf000139-resize_1/000866_2014-06-09_20-45-42_260595134347_rgbf000139-resize_1-target.png,1000,3.2155,0.4,4317,1002,meters,jsons/v1_VE1000_randls_15.json,919121,1268573,1957,Woman
21,791774,DepthScenes,duration_manipulation_targetAtFixation,jsons/v1_VE1000_randls_15.json,http://54.235.29.9/FacialAge/BNav_EC2/DepthDuration/v2_depth_duration_MTurk/v2_DepthDuration_HTML.html#380,380,1536,722,1536,864,9-3-2022,9-9-23,22,depth_duration_stimuli/001810_2014-06-26_20-51-35_260595134347_rgbf000040-resize_3/001810_2014-06-26_20-51-35_260595134347_rgbf000040-resize_3-target.png,1000,2.2525,0.2,5565,998,meters,jsons/v1_VE1000_randls_15.json,919121,1268573,1957,Woman
22,791774,DepthScenes,duration_manipulation_targetAtFixation,jsons/v1_VE1000_randls_15.json,http://54.235.29.9/FacialAge/BNav_EC2/DepthDuration/v2_depth_duration_MTurk/v2_DepthDuration_HTML.html#380,380,1536,722,1536,864,9-3-2022,9-9-23,23,depth_duration_stimuli/003010_2014-06-15_12-54-35_094959634447_rgbf000112-resize_0/003010_2014-06-15_12-54-35_094959634447_rgbf000112-resize_0-target.png,1000,3.1185,0.6,4930,877,meters,jsons/v1_VE1000_randls_15.json,919121,1268573,1957,Woman
23,791774,DepthScenes,duration_manipulation_targetAtFixation,jsons/v1_VE1000_randls_15.json,http://54.235.29.9/FacialAge/BNav_EC2/DepthDuration/v2_depth_duration_MTurk/v2_DepthDuration_HTML.html#380,380,1536,722,1536,864,9-3-2022,9-9-23,24,depth_duration_stimuli/000486_2014-06-09_20-47-20_260595134347_rgbf000143-resize_2/000486_2014-06-09_20-47-20_260595134347_rgbf000143-resize_2-target.png,1000,4.8325,0.5,5473,996,meters,jsons/v1_VE1000_randls_15.json,919121,1268573,1957,Woman
24,791774,DepthScenes,duration_manipulation_targetAtFixation,jsons/v1_VE1000_randls_15.json,http://54.235.29.9/FacialAge/BNav_EC2/DepthDuration/v2_depth_duration_MTurk/v2_DepthDuration_HTML.html#380,380,1536,722,1536,864,9-3-2022,9-9-23,25,depth_duration_stimuli/003083_2014-06-15_15-21-03_094959634447_rgbf000063-resize_1/003083_2014-06-15_15-21-03_094959634447_rgbf000063-resize_1-target.png,1000,4.1405,0.5,4909,1026,meters,jsons/v1_VE1000_randls_15.json,919121,1268573,1957,Woman
25,791774,DepthScenes,duration_manipulation_targetAtFixation,jsons/v1_VE1000_randls_15.json,http://54.235.29.9/FacialAge/BNav_EC2/DepthDuration/v2_depth_duration_MTurk/v2_DepthDuration_HTML.html#380,380,1536,722,1536,864,9-3-2022,9-9-23,26,depth_duration_stimuli/002375_2014-06-28_20-13-44_260595134347_rgbf000032-resize_1/002375_2014-06-28_20-13-44_260595134347_rgbf000032-resize_1-target.png,1000,4.0175,0.4,4544,1004,meters,jsons/v1_VE1000_randls_15.json,919121,1268573,1957,Woman
26,791774,DepthScenes,duration_manipulation_targetAtFixation,jsons/v1_VE1000_randls_15.json,http://54.235.29.9/FacialAge/BNav_EC2/DepthDuration/v2_depth_duration_MTurk/v2_DepthDuration_HTML.html#380,380,1536,722,1536,864,9-3-2022,9-9-23,27,depth_duration_stimuli/002657_2014-06-13_15-29-54_094959634447_rgbf000150-resize_1/002657_2014-06-13_15-29-54_094959634447_rgbf000150-resize_1-target.png,1000,4.919,0.5,4180,1008,meters,jsons/v1_VE1000_randls_15.json,919121,1268573,1957,Woman
27,791774,DepthScenes,duration_manipulation_targetAtFixation,jsons/v1_VE1000_randls_15.json,http://54.235.29.9/FacialAge/BNav_EC2/DepthDuration/v2_depth_duration_MTurk/v2_DepthDuration_HTML.html#380,380,1536,722,1536,864,9-3-2022,9-9-23,28,depth_duration_stimuli/001199_2014-06-17_16-03-48_260595134347_rgbf000077-resize_0/001199_2014-06-17_16-03-48_260595134347_rgbf000077-resize_0-target.png,1000,3.4375,0.2,4475,998,meters,jsons/v1_VE1000_randls_15.json,919121,1268573,1957,Woman
28,791774,DepthScenes,duration_manipulation_targetAtFixation,jsons/v1_VE1000_randls_15.json,http://54.235.29.9/FacialAge/BNav_EC2/DepthDuration/v2_depth_duration_MTurk/v2_DepthDuration_HTML.html#380,380,1536,722,1536,864,9-3-2022,9-9-23,29,depth_duration_stimuli/000502_2014-06-08_23-02-32_260595134347_rgbf000063-resize_4/000502_2014-06-08_23-02-32_260595134347_rgbf000063-resize_4-target.png,1000,2.431,0.2,4374,1009,meters,jsons/v1_VE1000_randls_15.json,919121,1268573,1957,Woman
29,791774,DepthScenes,duration_manipulation_targetAtFixation,jsons/v1_VE1000_randls_15.json,http://54.235.29.9/FacialAge/BNav_EC2/DepthDuration/v2_depth_duration_MTurk/v2_DepthDuration_HTML.html#380,380,1536,722,1536,864,9-3-2022,9-9-23,30,depth_duration_stimuli/000375_2014-06-08_11-17-29_260595134347_rgbf000133-resize_2/000375_2014-06-08_11-17-29_260595134347_rgbf000133-resize-original.jpg,1000,4.718,0.0,3871,997,meters,jsons/v1_VE1000_randls_15.json,919121,1268573,1957,Woman
30,791774,DepthScenes,duration_manipulation_targetAtFixation,jsons/v1_VE1000_randls_15.json,http://54.235.29.9/FacialAge/BNav_EC2/DepthDuration/v2_depth_duration_MTurk/v2_DepthDuration_HTML.html#380,380,1536,722,1536,864,9-3-2022,9-9-23,31,depth_duration_stimuli/001066_2014-06-08_22-03-20_260595134347_rgbf000066-resize_4/001066_2014-06-08_22-03-20_260595134347_rgbf000066-resize_4-target.png,1000,4.2330000000000005,0.2,4836,996,meters,jsons/v1_VE1000_randls_15.json,919121,1268573,1957,Woman
31,791774,DepthScenes,duration_manipulation_targetAtFixation,jsons/v1_VE1000_randls_15.json,http://54.235.29.9/FacialAge/BNav_EC2/DepthDuration/v2_depth_duration_MTurk/v2_DepthDuration_HTML.html#380,380,1536,722,1536,864,9-3-2022,9-9-23,32,depth_duration_stimuli/000742_2014-06-08_18-48-09_260595134347_rgbf000164-resize_4/000742_2014-06-08_18-48-09_260595134347_rgbf000164-resize_4-target.png,1000,4.632,0.6,4139,1011,meters,jsons/v1_VE1000_randls_15.json,919121,1268573,1957,Woman
32,791774,DepthScenes,duration_manipulation_targetAtFixation,jsons/v1_VE1000_randls_15.json,http://54.235.29.9/FacialAge/BNav_EC2/DepthDuration/v2_depth_duration_MTurk/v2_DepthDuration_HTML.html#380,380,1536,722,1536,864,9-3-2022,9-9-23,33,depth_duration_stimuli/001806_2014-06-26_20-50-20_260595134347_rgbf000091-resize_1/001806_2014-06-26_20-50-20_260595134347_rgbf000091-resize_1-target.png,1000,2.7305,0.2,4478,991,meters,jsons/v1_VE1000_randls_15.json,919121,1268573,1957,Woman
33,791774,DepthScenes,duration_manipulation_targetAtFixation,jsons/v1_VE1000_randls_15.json,http://54.235.29.9/FacialAge/BNav_EC2/DepthDuration/v2_depth_duration_MTurk/v2_DepthDuration_HTML.html#380,380,1536,722,1536,864,9-3-2022,9-9-23,34,depth_duration_stimuli/001617_2014-06-20_11-35-32_260595134347_rgbf000066-resize_1/001617_2014-06-20_11-35-32_260595134347_rgbf000066-resize_1-target.png,1000,3.7910000000000004,0.2,4001,990,meters,jsons/v1_VE1000_randls_15.json,919121,1268573,1957,Woman
34,791774,DepthScenes,duration_manipulation_targetAtFixation,jsons/v1_VE1000_randls_15.json,http://54.235.29.9/FacialAge/BNav_EC2/DepthDuration/v2_depth_duration_MTurk/v2_DepthDuration_HTML.html#380,380,1536,722,1536,864,9-3-2022,9-9-23,35,depth_duration_stimuli/002763_2014-06-22_19-13-10_094959634447_rgbf000075-resize_4/002763_2014-06-22_19-13-10_094959634447_rgbf000075-resize_4-target.png,1000,1.68375,0.5,4520,987,meters,jsons/v1_VE1000_randls_15.json,919121,1268573,1957,Woman
35,791774,DepthScenes,duration_manipulation_targetAtFixation,jsons/v1_VE1000_randls_15.json,http://54.235.29.9/FacialAge/BNav_EC2/DepthDuration/v2_depth_duration_MTurk/v2_DepthDuration_HTML.html#380,380,1536,722,1536,864,9-3-2022,9-9-23,36,depth_duration_stimuli/002209_2014-06-28_18-36-10_260595134347_rgbf000051-resize_1/002209_2014-06-28_18-36-10_260595134347_rgbf000051-resize_1-target.png,1000,2.057,0.3,7227,989,meters,jsons/v1_VE1000_randls_15.json,919121,1268573,1957,Woman
36,791774,DepthScenes,duration_manipulation_targetAtFixation,jsons/v1_VE1000_randls_15.json,http://54.235.29.9/FacialAge/BNav_EC2/DepthDuration/v2_depth_duration_MTurk/v2_DepthDuration_HTML.html#380,380,1536,722,1536,864,9-3-2022,9-9-23,37,depth_duration_stimuli/002905_2014-06-03_18-04-43_094959634447_rgbf000151-resize_2/002905_2014-06-03_18-04-43_094959634447_rgbf000151-resize_2-target.png,1000,2.0295,0.2,5265,1005,meters,jsons/v1_VE1000_randls_15.json,919121,1268573,1957,Woman
37,791774,DepthScenes,duration_manipulation_targetAtFixation,jsons/v1_VE1000_randls_15.json,http://54.235.29.9/FacialAge/BNav_EC2/DepthDuration/v2_depth_duration_MTurk/v2_DepthDuration_HTML.html#380,380,1536,722,1536,864,9-3-2022,9-9-23,38,depth_duration_stimuli/003423_2014-05-21_10-23-26_094959634447_rgbf002665-resize_2/003423_2014-05-21_10-23-26_094959634447_rgbf002665-resize_2-target.png,1000,3.2575,0.6,4403,993,meters,jsons/v1_VE1000_randls_15.json,919121,1268573,1957,Woman
38,791774,DepthScenes,duration_manipulation_targetAtFixation,jsons/v1_VE1000_randls_15.json,http://54.235.29.9/FacialAge/BNav_EC2/DepthDuration/v2_depth_duration_MTurk/v2_DepthDuration_HTML.html#380,380,1536,722,1536,864,9-3-2022,9-9-23,39,depth_duration_stimuli/001011_2014-06-08_23-18-54_260595134347_rgbf000044-resize_4/001011_2014-06-08_23-18-54_260595134347_rgbf000044-resize_4-target.png,1000,2.4730000000000003,0.3,4959,1000,meters,jsons/v1_VE1000_randls_15.json,919121,1268573,1957,Woman
39,791774,DepthScenes,duration_manipulation_targetAtFixation,jsons/v1_VE1000_randls_15.json,http://54.235.29.9/FacialAge/BNav_EC2/DepthDuration/v2_depth_duration_MTurk/v2_DepthDuration_HTML.html#380,380,1536,722,1536,864,9-3-2022,9-9-23,40,depth_duration_stimuli/002875_2014-06-01_15-19-00_094959634447_rgbf000151-resize_1/002875_2014-06-01_15-19-00_094959634447_rgbf000151-resize_1-target.png,1000,1.9675,0.4,4342,1001,meters,jsons/v1_VE1000_randls_15.json,919121,1268573,1957,Woman
40,791774,DepthScenes,duration_manipulation_targetAtFixation,jsons/v1_VE1000_randls_15.json,http://54.235.29.9/FacialAge/BNav_EC2/DepthDuration/v2_depth_duration_MTurk/v2_DepthDuration_HTML.html#380,380,1536,722,1536,864,9-3-2022,9-9-23,41,depth_duration_stimuli/000414_2014-06-04_19-49-13_260595134347_rgbf000044-resize_0/000414_2014-06-04_19-49-13_260595134347_rgbf000044-resize_0-target.png,1000,4.329,0.1,9747,983,meters,jsons/v1_VE1000_randls_15.json,919121,1268573,1957,Woman
41,791774,DepthScenes,duration_manipulation_targetAtFixation,jsons/v1_VE1000_randls_15.json,http://54.235.29.9/FacialAge/BNav_EC2/DepthDuration/v2_depth_duration_MTurk/v2_DepthDuration_HTML.html#380,380,1536,722,1536,864,9-3-2022,9-9-23,42,depth_duration_stimuli/003129_2014-05-12_10-48-10_094959634447_rgbf000100-resize_0/003129_2014-05-12_10-48-10_094959634447_rgbf000100-resize_0-target.png,1000,4.9305,0.3,4499,985,meters,jsons/v1_VE1000_randls_15.json,919121,1268573,1957,Woman
42,791774,DepthScenes,duration_manipulation_targetAtFixation,jsons/v1_VE1000_randls_15.json,http://54.235.29.9/FacialAge/BNav_EC2/DepthDuration/v2_depth_duration_MTurk/v2_DepthDuration_HTML.html#380,380,1536,722,1536,864,9-3-2022,9-9-23,43,depth_duration_stimuli/000506_2014-06-08_23-21-00_260595134347_rgbf000070-resize_7/000506_2014-06-08_23-21-00_260595134347_rgbf000070-resize_7-target.png,1000,4.0585,0.9,5260,993,meters,jsons/v1_VE1000_randls_15.json,919121,1268573,1957,Woman
43,791774,DepthScenes,duration_manipulation_targetAtFixation,jsons/v1_VE1000_randls_15.json,http://54.235.29.9/FacialAge/BNav_EC2/DepthDuration/v2_depth_duration_MTurk/v2_DepthDuration_HTML.html#380,380,1536,722,1536,864,9-3-2022,9-9-23,44,depth_duration_stimuli/003079_2014-06-15_15-18-20_094959634447_rgbf000152-resize_8/003079_2014-06-15_15-18-20_094959634447_rgbf000152-resize_8-target.png,1000,2.8775,0.15,5705,999,meters,jsons/v1_VE1000_randls_15.json,919121,1268573,1957,Woman
44,791774,DepthScenes,duration_manipulation_targetAtFixation,jsons/v1_VE1000_randls_15.json,http://54.235.29.9/FacialAge/BNav_EC2/DepthDuration/v2_depth_duration_MTurk/v2_DepthDuration_HTML.html#380,380,1536,722,1536,864,9-3-2022,9-9-23,45,depth_duration_stimuli/000787_2014-06-08_22-33-53_260595134347_rgbf000175-resize_1/000787_2014-06-08_22-33-53_260595134347_rgbf000175-resize-original.jpg,1000,4.784,0.0,4176,1003,meters,jsons/v1_VE1000_randls_15.json,919121,1268573,1957,Woman
45,791774,DepthScenes,duration_manipulation_targetAtFixation,jsons/v1_VE1000_randls_15.json,http://54.235.29.9/FacialAge/BNav_EC2/DepthDuration/v2_depth_duration_MTurk/v2_DepthDuration_HTML.html#380,380,1536,722,1536,864,9-3-2022,9-9-23,46,depth_duration_stimuli/001016_2014-06-09_16-16-10_260595134347_rgbf000112-resize_5/001016_2014-06-09_16-16-10_260595134347_rgbf000112-resize_5-target.png,1000,1.6565,0.3,4552,983,meters,jsons/v1_VE1000_randls_15.json,919121,1268573,1957,Woman
46,791774,DepthScenes,duration_manipulation_targetAtFixation,jsons/v1_VE1000_randls_15.json,http://54.235.29.9/FacialAge/BNav_EC2/DepthDuration/v2_depth_duration_MTurk/v2_DepthDuration_HTML.html#380,380,1536,722,1536,864,9-3-2022,9-9-23,47,depth_duration_stimuli/002340_2014-06-28_20-05-46_260595134347_rgbf000113-resize_0/002340_2014-06-28_20-05-46_260595134347_rgbf000113-resize_0-target.png,1000,2.4735,0.8,8347,1175,meters,jsons/v1_VE1000_randls_15.json,919121,1268573,1957,Woman
47,791774,DepthScenes,duration_manipulation_targetAtFixation,jsons/v1_VE1000_randls_15.json,http://54.235.29.9/FacialAge/BNav_EC2/DepthDuration/v2_depth_duration_MTurk/v2_DepthDuration_HTML.html#380,380,1536,722,1536,864,9-3-2022,9-9-23,48,depth_duration_stimuli/000368_2014-06-09_15-53-01_260595134347_rgbf000155-resize_2/000368_2014-06-09_15-53-01_260595134347_rgbf000155-resize_2-target.png,1000,2.4859999999999998,0.3,4256,852,meters,jsons/v1_VE1000_randls_15.json,919121,1268573,1957,Woman
48,791774,DepthScenes,duration_manipulation_targetAtFixation,jsons/v1_VE1000_randls_15.json,http://54.235.29.9/FacialAge/BNav_EC2/DepthDuration/v2_depth_duration_MTurk/v2_DepthDuration_HTML.html#380,380,1536,722,1536,864,9-3-2022,9-9-23,49,depth_duration_stimuli/002678_2014-06-13_16-15-32_094959634447_rgbf000151-resize_6/002678_2014-06-13_16-15-32_094959634447_rgbf000151-resize_6-target.png,1000,2.1830000000000003,0.5,4680,998,meters,jsons/v1_VE1000_randls_15.json,919121,1268573,1957,Woman
49,791774,DepthScenes,duration_manipulation_targetAtFixation,jsons/v1_VE1000_randls_15.json,http://54.235.29.9/FacialAge/BNav_EC2/DepthDuration/v2_depth_duration_MTurk/v2_DepthDuration_HTML.html#380,380,1536,722,1536,864,9-3-2022,9-9-23,50,depth_duration_stimuli/000917_2014-06-09_22-45-29_260595134347_rgbf000149-resize_3/000917_2014-06-09_22-45-29_260595134347_rgbf000149-resize_3-target.png,1000,4.1865,0.3,5089,1001,meters,jsons/v1_VE1000_randls_15.json,919121,1268573,1957,Woman
50,791774,DepthScenes,duration_manipulation_targetAtFixation,jsons/v1_VE1000_randls_15.json,http://54.235.29.9/FacialAge/BNav_EC2/DepthDuration/v2_depth_duration_MTurk/v2_DepthDuration_HTML.html#380,380,1536,722,1536,864,9-3-2022,9-9-23,51,depth_duration_stimuli/002323_2014-06-28_20-01-54_260595134347_rgbf000051-resize_4/002323_2014-06-28_20-01-54_260595134347_rgbf000051-resize_4-target.png,1000,3.7310000000000003,0.0,4831,861,meters,jsons/v1_VE1000_randls_15.json,919121,1268573,1957,Woman
51,791774,DepthScenes,duration_manipulation_targetAtFixation,jsons/v1_VE1000_randls_15.json,http://54.235.29.9/FacialAge/BNav_EC2/DepthDuration/v2_depth_duration_MTurk/v2_DepthDuration_HTML.html#380,380,1536,722,1536,864,9-3-2022,9-9-23,52,depth_duration_stimuli/001150_2014-06-17_15-27-34_260595134347_rgbf000108-resize_2/001150_2014-06-17_15-27-34_260595134347_rgbf000108-resize_2-target.png,1000,4.0325,0.3,4544,988,meters,jsons/v1_VE1000_randls_15.json,919121,1268573,1957,Woman
52,791774,DepthScenes,duration_manipulation_targetAtFixation,jsons/v1_VE1000_randls_15.json,http://54.235.29.9/FacialAge/BNav_EC2/DepthDuration/v2_depth_duration_MTurk/v2_DepthDuration_HTML.html#380,380,1536,722,1536,864,9-3-2022,9-9-23,53,depth_duration_stimuli/000665_2014-06-09_20-42-35_260595134347_rgbf000110-resize_1/000665_2014-06-09_20-42-35_260595134347_rgbf000110-resize_1-target.png,1000,3.057,0.3,4818,985,meters,jsons/v1_VE1000_randls_15.json,919121,1268573,1957,Woman
53,791774,DepthScenes,duration_manipulation_targetAtFixation,jsons/v1_VE1000_randls_15.json,http://54.235.29.9/FacialAge/BNav_EC2/DepthDuration/v2_depth_duration_MTurk/v2_DepthDuration_HTML.html#380,380,1536,722,1536,864,9-3-2022,9-9-23,54,depth_duration_stimuli/001244_2014-06-17_16-47-45_260595134347_rgbf000030-resize_4/001244_2014-06-17_16-47-45_260595134347_rgbf000030-resize_4-target.png,1000,2.0425,0.2,4384,997,meters,jsons/v1_VE1000_randls_15.json,919121,1268573,1957,Woman
54,791774,DepthScenes,duration_manipulation_targetAtFixation,jsons/v1_VE1000_randls_15.json,http://54.235.29.9/FacialAge/BNav_EC2/DepthDuration/v2_depth_duration_MTurk/v2_DepthDuration_HTML.html#380,380,1536,722,1536,864,9-3-2022,9-9-23,55,depth_duration_stimuli/003495_2014-05-21_16-01-51_094959634447_rgbf000100-resize_3/003495_2014-05-21_16-01-51_094959634447_rgbf000100-resize_3-target.png,1000,1.6255,0.2,4388,999,meters,jsons/v1_VE1000_randls_15.json,919121,1268573,1957,Woman
55,791774,DepthScenes,duration_manipulation_targetAtFixation,jsons/v1_VE1000_randls_15.json,http://54.235.29.9/FacialAge/BNav_EC2/DepthDuration/v2_depth_duration_MTurk/v2_DepthDuration_HTML.html#380,380,1536,722,1536,864,9-3-2022,9-9-23,56,depth_duration_stimuli/003534_2014-05-22_15-06-10_094959634447_rgbf000102-resize_4/003534_2014-05-22_15-06-10_094959634447_rgbf000102-resize_4-target.png,1000,1.426,0.3,4469,1013,meters,jsons/v1_VE1000_randls_15.json,919121,1268573,1957,Woman
56,791774,DepthScenes,duration_manipulation_targetAtFixation,jsons/v1_VE1000_randls_15.json,http://54.235.29.9/FacialAge/BNav_EC2/DepthDuration/v2_depth_duration_MTurk/v2_DepthDuration_HTML.html#380,380,1536,722,1536,864,9-3-2022,9-9-23,57,depth_duration_stimuli/002637_2014-06-24_14-51-13_094959634447_rgbf000066-resize_4/002637_2014-06-24_14-51-13_094959634447_rgbf000066-resize_4-target.png,1000,1.9955,0.5,4398,984,meters,jsons/v1_VE1000_randls_15.json,919121,1268573,1957,Woman
57,791774,DepthScenes,duration_manipulation_targetAtFixation,jsons/v1_VE1000_randls_15.json,http://54.235.29.9/FacialAge/BNav_EC2/DepthDuration/v2_depth_duration_MTurk/v2_DepthDuration_HTML.html#380,380,1536,722,1536,864,9-3-2022,9-9-23,58,depth_duration_stimuli/003621_2014-05-23_18-06-08_094959634447_rgbf000101-resize_1/003621_2014-05-23_18-06-08_094959634447_rgbf000101-resize_1-target.png,1000,3.9835,0.8,4747,999,meters,jsons/v1_VE1000_randls_15.json,919121,1268573,1957,Woman
58,791774,DepthScenes,duration_manipulation_targetAtFixation,jsons/v1_VE1000_randls_15.json,http://54.235.29.9/FacialAge/BNav_EC2/DepthDuration/v2_depth_duration_MTurk/v2_DepthDuration_HTML.html#380,380,1536,722,1536,864,9-3-2022,9-9-23,59,depth_duration_stimuli/001584_2014-06-20_11-07-43_260595134347_rgbf000002-resize_1/001584_2014-06-20_11-07-43_260595134347_rgbf000002-resize_1-target.png,1000,3.53,0.2,5314,1010,meters,jsons/v1_VE1000_randls_15.json,919121,1268573,1957,Woman
59,791774,DepthScenes,duration_manipulation_targetAtFixation,jsons/v1_VE1000_randls_15.json,http://54.235.29.9/FacialAge/BNav_EC2/DepthDuration/v2_depth_duration_MTurk/v2_DepthDuration_HTML.html#380,380,1536,722,1536,864,9-3-2022,9-9-23,60,depth_duration_stimuli/000522_2014-06-08_13-35-06_260595134347_rgbf000244-resize_1/000522_2014-06-08_13-35-06_260595134347_rgbf000244-resize_1-target.png,1000,2.3715,0.4,5200,990,meters,jsons/v1_VE1000_randls_15.json,919121,1268573,1957,Woman
60,791774,DepthScenes,duration_manipulation_targetAtFixation,jsons/v1_VE1000_randls_15.json,http://54.235.29.9/FacialAge/BNav_EC2/DepthDuration/v2_depth_duration_MTurk/v2_DepthDuration_HTML.html#380,380,1536,722,1536,864,9-3-2022,9-9-23,61,depth_duration_stimuli/002949_2014-06-26_15-57-42_094959634447_rgbf000079-resize_1/002949_2014-06-26_15-57-42_094959634447_rgbf000079-resize_1-target.png,1000,1.8915,0.2,5371,984,meters,jsons/v1_VE1000_randls_15.json,919121,1268573,1957,Woman
61,791774,DepthScenes,duration_manipulation_targetAtFixation,jsons/v1_VE1000_randls_15.json,http://54.235.29.9/FacialAge/BNav_EC2/DepthDuration/v2_depth_duration_MTurk/v2_DepthDuration_HTML.html#380,380,1536,722,1536,864,9-3-2022,9-9-23,62,depth_duration_stimuli/001055_2014-06-08_18-45-35_260595134347_rgbf000111-resize_4/001055_2014-06-08_18-45-35_260595134347_rgbf000111-resize_4-target.png,1000,2.4290000000000003,0.3,4804,1009,meters,jsons/v1_VE1000_randls_15.json,919121,1268573,1957,Woman
62,791774,DepthScenes,duration_manipulation_targetAtFixation,jsons/v1_VE1000_randls_15.json,http://54.235.29.9/FacialAge/BNav_EC2/DepthDuration/v2_depth_duration_MTurk/v2_DepthDuration_HTML.html#380,380,1536,722,1536,864,9-3-2022,9-9-23,63,depth_duration_stimuli/000549_2014-06-08_22-10-24_260595134347_rgbf000247-resize_3/000549_2014-06-08_22-10-24_260595134347_rgbf000247-resize_3-target.png,1000,1.841,0.2,4173,1011,meters,jsons/v1_VE1000_randls_15.json,919121,1268573,1957,Woman
63,791774,DepthScenes,duration_manipulation_targetAtFixation,jsons/v1_VE1000_randls_15.json,http://54.235.29.9/FacialAge/BNav_EC2/DepthDuration/v2_depth_duration_MTurk/v2_DepthDuration_HTML.html#380,380,1536,722,1536,864,9-3-2022,9-9-23,64,depth_duration_stimuli/001808_2014-06-26_20-50-58_260595134347_rgbf000029-resize_1/001808_2014-06-26_20-50-58_260595134347_rgbf000029-resize_1-target.png,1000,4.249,0.9,10303,1009,meters,jsons/v1_VE1000_randls_15.json,919121,1268573,1957,Woman
64,791774,DepthScenes,duration_manipulation_targetAtFixation,jsons/v1_VE1000_randls_15.json,http://54.235.29.9/FacialAge/BNav_EC2/DepthDuration/v2_depth_duration_MTurk/v2_DepthDuration_HTML.html#380,380,1536,722,1536,864,9-3-2022,9-9-23,65,depth_duration_stimuli/001815_2014-06-26_20-52-55_260595134347_rgbf000020-resize_0/001815_2014-06-26_20-52-55_260595134347_rgbf000020-resize_0-target.png,1000,3.3865,0.2,11554,1001,meters,jsons/v1_VE1000_randls_15.json,919121,1268573,1957,Woman
65,791774,DepthScenes,duration_manipulation_targetAtFixation,jsons/v1_VE1000_randls_15.json,http://54.235.29.9/FacialAge/BNav_EC2/DepthDuration/v2_depth_duration_MTurk/v2_DepthDuration_HTML.html#380,380,1536,722,1536,864,9-3-2022,9-9-23,66,depth_duration_stimuli/001222_2014-06-17_16-24-06_260595134347_rgbf000073-resize_0/001222_2014-06-17_16-24-06_260595134347_rgbf000073-resize-original.jpg,1000,1.4385,0.0,5018,999,meters,jsons/v1_VE1000_randls_15.json,919121,1268573,1957,Woman
66,791774,DepthScenes,duration_manipulation_targetAtFixation,jsons/v1_VE1000_randls_15.json,http://54.235.29.9/FacialAge/BNav_EC2/DepthDuration/v2_depth_duration_MTurk/v2_DepthDuration_HTML.html#380,380,1536,722,1536,864,9-3-2022,9-9-23,67,depth_duration_stimuli/002153_2014-06-25_21-27-18_260595134347_rgbf000038-resize_5/002153_2014-06-25_21-27-18_260595134347_rgbf000038-resize_5-target.png,1000,2.505,0.2,4394,1012,meters,jsons/v1_VE1000_randls_15.json,919121,1268573,1957,Woman
67,791774,DepthScenes,duration_manipulation_targetAtFixation,jsons/v1_VE1000_randls_15.json,http://54.235.29.9/FacialAge/BNav_EC2/DepthDuration/v2_depth_duration_MTurk/v2_DepthDuration_HTML.html#380,380,1536,722,1536,864,9-3-2022,9-9-23,68,depth_duration_stimuli/002660_2014-06-13_15-44-18_094959634447_rgbf001878-resize_2/002660_2014-06-13_15-44-18_094959634447_rgbf001878-resize_2-target.png,1000,3.576,0.3,4911,991,meters,jsons/v1_VE1000_randls_15.json,919121,1268573,1957,Woman
68,791774,DepthScenes,duration_manipulation_targetAtFixation,jsons/v1_VE1000_randls_15.json,http://54.235.29.9/FacialAge/BNav_EC2/DepthDuration/v2_depth_duration_MTurk/v2_DepthDuration_HTML.html#380,380,1536,722,1536,864,9-3-2022,9-9-23,69,depth_duration_stimuli/002509_2014-06-24_13-19-22_094959634447_rgbf000077-resize_0/002509_2014-06-24_13-19-22_094959634447_rgbf000077-resize_0-target.png,1000,1.3065,0.4,7037,988,meters,jsons/v1_VE1000_randls_15.json,919121,1268573,1957,Woman
69,791774,DepthScenes,duration_manipulation_targetAtFixation,jsons/v1_VE1000_randls_15.json,http://54.235.29.9/FacialAge/BNav_EC2/DepthDuration/v2_depth_duration_MTurk/v2_DepthDuration_HTML.html#380,380,1536,722,1536,864,9-3-2022,9-9-23,70,depth_duration_stimuli/003338_2014-05-20_11-01-23_094959634447_rgbf000051-resize_6/003338_2014-05-20_11-01-23_094959634447_rgbf000051-resize_6-target.png,1000,1.693,0.2,8151,981,meters,jsons/v1_VE1000_randls_15.json,919121,1268573,1957,Woman
70,791774,DepthScenes,duration_manipulation_targetAtFixation,jsons/v1_VE1000_randls_15.json,http://54.235.29.9/FacialAge/BNav_EC2/DepthDuration/v2_depth_duration_MTurk/v2_DepthDuration_HTML.html#380,380,1536,722,1536,864,9-3-2022,9-9-23,71,depth_duration_stimuli/003070_2014-06-15_14-58-27_094959634447_rgbf000150-resize_3/003070_2014-06-15_14-58-27_094959634447_rgbf000150-resize_3-target.png,1000,2.9415,0.5,5069,985,meters,jsons/v1_VE1000_randls_15.json,919121,1268573,1957,Woman
71,791774,DepthScenes,duration_manipulation_targetAtFixation,jsons/v1_VE1000_randls_15.json,http://54.235.29.9/FacialAge/BNav_EC2/DepthDuration/v2_depth_duration_MTurk/v2_DepthDuration_HTML.html#380,380,1536,722,1536,864,9-3-2022,9-9-23,72,depth_duration_stimuli/000943_2014-06-09_19-31-07_260595134347_rgbf000128-resize_1/000943_2014-06-09_19-31-07_260595134347_rgbf000128-resize_1-target.png,1000,1.9765,0.5,4297,1008,meters,jsons/v1_VE1000_randls_15.json,919121,1268573,1957,Woman
72,791774,DepthScenes,duration_manipulation_targetAtFixation,jsons/v1_VE1000_randls_15.json,http://54.235.29.9/FacialAge/BNav_EC2/DepthDuration/v2_depth_duration_MTurk/v2_DepthDuration_HTML.html#380,380,1536,722,1536,864,9-3-2022,9-9-23,73,depth_duration_stimuli/001555_2014-06-20_17-12-10_260595134347_rgbf000065-resize_4/001555_2014-06-20_17-12-10_260595134347_rgbf000065-resize_4-target.png,1000,1.633,0.4,5035,987,meters,jsons/v1_VE1000_randls_15.json,919121,1268573,1957,Woman
73,791774,DepthScenes,duration_manipulation_targetAtFixation,jsons/v1_VE1000_randls_15.json,http://54.235.29.9/FacialAge/BNav_EC2/DepthDuration/v2_depth_duration_MTurk/v2_DepthDuration_HTML.html#380,380,1536,722,1536,864,9-3-2022,9-9-23,74,depth_duration_stimuli/000103_2014-05-14_22-01-17_260595134347_rgbf000152-resize_5/000103_2014-05-14_22-01-17_260595134347_rgbf000152-resize_5-target.png,1000,1.993,0.2,4917,996,meters,jsons/v1_VE1000_randls_15.json,919121,1268573,1957,Woman
74,791774,DepthScenes,duration_manipulation_targetAtFixation,jsons/v1_VE1000_randls_15.json,http://54.235.29.9/FacialAge/BNav_EC2/DepthDuration/v2_depth_duration_MTurk/v2_DepthDuration_HTML.html#380,380,1536,722,1536,864,9-3-2022,9-9-23,75,depth_duration_stimuli/000009_2014-05-26_14-32-05_260595134347_rgbf000034-resize_3/000009_2014-05-26_14-32-05_260595134347_rgbf000034-resize_3-target.png,1000,3.8715,0.1,4565,949,meters,jsons/v1_VE1000_randls_15.json,919121,1268573,1957,Woman
75,791774,DepthScenes,duration_manipulation_targetAtFixation,jsons/v1_VE1000_randls_15.json,http://54.235.29.9/FacialAge/BNav_EC2/DepthDuration/v2_depth_duration_MTurk/v2_DepthDuration_HTML.html#380,380,1536,722,1536,864,9-3-2022,9-9-23,76,depth_duration_stimuli/001828_2014-06-26_21-40-03_260595134347_rgbf000024-resize_0/001828_2014-06-26_21-40-03_260595134347_rgbf000024-resize_0-target.png,1000,4.8260000000000005,0.2,6285,1003,meters,jsons/v1_VE1000_randls_15.json,919121,1268573,1957,Woman
76,791774,DepthScenes,duration_manipulation_targetAtFixation,jsons/v1_VE1000_randls_15.json,http://54.235.29.9/FacialAge/BNav_EC2/DepthDuration/v2_depth_duration_MTurk/v2_DepthDuration_HTML.html#380,380,1536,722,1536,864,9-3-2022,9-9-23,77,depth_duration_stimuli/000642_2014-06-08_16-59-25_260595134347_rgbf000098-resize_2/000642_2014-06-08_16-59-25_260595134347_rgbf000098-resize_2-target.png,1000,2.8815,0.2,4921,914,meters,jsons/v1_VE1000_randls_15.json,919121,1268573,1957,Woman
77,791774,DepthScenes,duration_manipulation_targetAtFixation,jsons/v1_VE1000_randls_15.json,http://54.235.29.9/FacialAge/BNav_EC2/DepthDuration/v2_depth_duration_MTurk/v2_DepthDuration_HTML.html#380,380,1536,722,1536,864,9-3-2022,9-9-23,78,depth_duration_stimuli/002425_2014-06-28_20-27-29_260595134347_rgbf000031-resize_8/002425_2014-06-28_20-27-29_260595134347_rgbf000031-resize_8-target.png,1000,3.8960000000000004,0.2,9139,1007,meters,jsons/v1_VE1000_randls_15.json,919121,1268573,1957,Woman
78,791774,DepthScenes,duration_manipulation_targetAtFixation,jsons/v1_VE1000_randls_15.json,http://54.235.29.9/FacialAge/BNav_EC2/DepthDuration/v2_depth_duration_MTurk/v2_DepthDuration_HTML.html#380,380,1536,722,1536,864,9-3-2022,9-9-23,79,depth_duration_stimuli/002630_2014-06-24_14-47-50_094959634447_rgbf000055-resize_1/002630_2014-06-24_14-47-50_094959634447_rgbf000055-resize_1-target.png,1000,3.0095,0.2,9064,1003,meters,jsons/v1_VE1000_randls_15.json,919121,1268573,1957,Woman
79,791774,DepthScenes,duration_manipulation_targetAtFixation,jsons/v1_VE1000_randls_15.json,http://54.235.29.9/FacialAge/BNav_EC2/DepthDuration/v2_depth_duration_MTurk/v2_DepthDuration_HTML.html#380,380,1536,722,1536,864,9-3-2022,9-9-23,80,depth_duration_stimuli/002758_2014-06-22_19-11-20_094959634447_rgbf000128-resize_1/002758_2014-06-22_19-11-20_094959634447_rgbf000128-resize_1-target.png,1000,2.555,0.3,6404,1001,meters,jsons/v1_VE1000_randls_15.json,919121,1268573,1957,Woman
80,791774,DepthScenes,duration_manipulation_targetAtFixation,jsons/v1_VE1000_randls_15.json,http://54.235.29.9/FacialAge/BNav_EC2/DepthDuration/v2_depth_duration_MTurk/v2_DepthDuration_HTML.html#380,380,1536,722,1536,864,9-3-2022,9-9-23,81,depth_duration_stimuli/001158_2014-06-17_15-32-16_260595134347_rgbf000138-resize_2/001158_2014-06-17_15-32-16_260595134347_rgbf000138-resize_2-target.png,1000,4.5315,0.8,5292,1006,meters,jsons/v1_VE1000_randls_15.json,919121,1268573,1957,Woman
81,791774,DepthScenes,duration_manipulation_targetAtFixation,jsons/v1_VE1000_randls_15.json,http://54.235.29.9/FacialAge/BNav_EC2/DepthDuration/v2_depth_duration_MTurk/v2_DepthDuration_HTML.html#380,380,1536,722,1536,864,9-3-2022,9-9-23,82,depth_duration_stimuli/000556_2014-06-09_22-42-56_260595134347_rgbf000214-resize_1/000556_2014-06-09_22-42-56_260595134347_rgbf000214-resize_1-target.png,1000,4.8415,0.0,4748,1012,meters,jsons/v1_VE1000_randls_15.json,919121,1268573,1957,Woman
82,791774,DepthScenes,duration_manipulation_targetAtFixation,jsons/v1_VE1000_randls_15.json,http://54.235.29.9/FacialAge/BNav_EC2/DepthDuration/v2_depth_duration_MTurk/v2_DepthDuration_HTML.html#380,380,1536,722,1536,864,9-3-2022,9-9-23,83,depth_duration_stimuli/001167_2014-06-17_15-38-07_260595134347_rgbf000108-resize_0/001167_2014-06-17_15-38-07_260595134347_rgbf000108-resize_0-target.png,1000,1.8505,0.2,4466,997,meters,jsons/v1_VE1000_randls_15.json,919121,1268573,1957,Woman
83,791774,DepthScenes,duration_manipulation_targetAtFixation,jsons/v1_VE1000_randls_15.json,http://54.235.29.9/FacialAge/BNav_EC2/DepthDuration/v2_depth_duration_MTurk/v2_DepthDuration_HTML.html#380,380,1536,722,1536,864,9-3-2022,9-9-23,84,depth_duration_stimuli/003587_2014-05-23_16-48-02_094959634447_rgbf002384-resize_2/003587_2014-05-23_16-48-02_094959634447_rgbf002384-resize_2-target.png,1000,1.357,0.2,4126,1000,meters,jsons/v1_VE1000_randls_15.json,919121,1268573,1957,Woman
84,791774,DepthScenes,duration_manipulation_targetAtFixation,jsons/v1_VE1000_randls_15.json,http://54.235.29.9/FacialAge/BNav_EC2/DepthDuration/v2_depth_duration_MTurk/v2_DepthDuration_HTML.html#380,380,1536,722,1536,864,9-3-2022,9-9-23,85,depth_duration_stimuli/002725_2014-06-22_11-47-51_094959634447_rgbf000070-resize_1/002725_2014-06-22_11-47-51_094959634447_rgbf000070-resize_1-target.png,1000,2.195,0.3,4898,999,meters,jsons/v1_VE1000_randls_15.json,919121,1268573,1957,Woman
85,791774,DepthScenes,duration_manipulation_targetAtFixation,jsons/v1_VE1000_randls_15.json,http://54.235.29.9/FacialAge/BNav_EC2/DepthDuration/v2_depth_duration_MTurk/v2_DepthDuration_HTML.html#380,380,1536,722,1536,864,9-3-2022,9-9-23,86,depth_duration_stimuli/002344_2014-06-28_20-06-29_260595134347_rgbf000030-resize_1/002344_2014-06-28_20-06-29_260595134347_rgbf000030-resize_1-target.png,1000,1.5795,0.4,4485,995,meters,jsons/v1_VE1000_randls_15.json,919121,1268573,1957,Woman
86,791774,DepthScenes,duration_manipulation_targetAtFixation,jsons/v1_VE1000_randls_15.json,http://54.235.29.9/FacialAge/BNav_EC2/DepthDuration/v2_depth_duration_MTurk/v2_DepthDuration_HTML.html#380,380,1536,722,1536,864,9-3-2022,9-9-23,87,depth_duration_stimuli/000736_2014-06-08_18-24-15_260595134347_rgbf000206-resize_3/000736_2014-06-08_18-24-15_260595134347_rgbf000206-resize_3-target.png,1000,3.515,0.5,4416,985,meters,jsons/v1_VE1000_randls_15.json,919121,1268573,1957,Woman
87,791774,DepthScenes,duration_manipulation_targetAtFixation,jsons/v1_VE1000_randls_15.json,http://54.235.29.9/FacialAge/BNav_EC2/DepthDuration/v2_depth_duration_MTurk/v2_DepthDuration_HTML.html#380,380,1536,722,1536,864,9-3-2022,9-9-23,88,depth_duration_stimuli/000137_2014-05-20_17-04-49_260595134347_rgbf000120-resize_1/000137_2014-05-20_17-04-49_260595134347_rgbf000120-resize_1-target.png,1000,3.786,0.1,4607,986,meters,jsons/v1_VE1000_randls_15.json,919121,1268573,1957,Woman
88,791774,DepthScenes,duration_manipulation_targetAtFixation,jsons/v1_VE1000_randls_15.json,http://54.235.29.9/FacialAge/BNav_EC2/DepthDuration/v2_depth_duration_MTurk/v2_DepthDuration_HTML.html#380,380,1536,722,1536,864,9-3-2022,9-9-23,89,depth_duration_stimuli/000436_2014-06-09_22-25-11_260595134347_rgbf000137-resize_1/000436_2014-06-09_22-25-11_260595134347_rgbf000137-resize_1-target.png,1000,4.0705,0.5,4923,1002,meters,jsons/v1_VE1000_randls_15.json,919121,1268573,1957,Woman
89,791774,DepthScenes,duration_manipulation_targetAtFixation,jsons/v1_VE1000_randls_15.json,http://54.235.29.9/FacialAge/BNav_EC2/DepthDuration/v2_depth_duration_MTurk/v2_DepthDuration_HTML.html#380,380,1536,722,1536,864,9-3-2022,9-9-23,90,depth_duration_stimuli/002444_2014-06-28_20-32-08_260595134347_rgbf000027-resize_0/002444_2014-06-28_20-32-08_260595134347_rgbf000027-resize_0-target.png,1000,4.388999999999999,0.5,5540,1002,meters,jsons/v1_VE1000_randls_15.json,919121,1268573,1957,Woman
90,791774,DepthScenes,duration_manipulation_targetAtFixation,jsons/v1_VE1000_randls_15.json,http://54.235.29.9/FacialAge/BNav_EC2/DepthDuration/v2_depth_duration_MTurk/v2_DepthDuration_HTML.html#380,380,1536,722,1536,864,9-3-2022,9-9-23,91,depth_duration_stimuli/002600_2014-06-24_14-27-04_094959634447_rgbf000074-resize_2/002600_2014-06-24_14-27-04_094959634447_rgbf000074-resize_2-target.png,1000,2.7575,0.3,4515,1008,meters,jsons/v1_VE1000_randls_15.json,919121,1268573,1957,Woman
91,791774,DepthScenes,duration_manipulation_targetAtFixation,jsons/v1_VE1000_randls_15.json,http://54.235.29.9/FacialAge/BNav_EC2/DepthDuration/v2_depth_duration_MTurk/v2_DepthDuration_HTML.html#380,380,1536,722,1536,864,9-3-2022,9-9-23,92,depth_duration_stimuli/003228_2014-05-14_13-42-35_094959634447_rgbf000101-resize_1/003228_2014-05-14_13-42-35_094959634447_rgbf000101-resize_1-target.png,1000,1.9680000000000002,0.3,4185,1005,meters,jsons/v1_VE1000_randls_15.json,919121,1268573,1957,Woman
92,791774,DepthScenes,duration_manipulation_targetAtFixation,jsons/v1_VE1000_randls_15.json,http://54.235.29.9/FacialAge/BNav_EC2/DepthDuration/v2_depth_duration_MTurk/v2_DepthDuration_HTML.html#380,380,1536,722,1536,864,9-3-2022,9-9-23,93,depth_duration_stimuli/000682_2014-06-08_23-14-58_260595134347_rgbf000041-resize_5/000682_2014-06-08_23-14-58_260595134347_rgbf000041-resize_5-target.png,1000,2.7239999999999998,0.3,4775,994,meters,jsons/v1_VE1000_randls_15.json,919121,1268573,1957,Woman
93,791774,DepthScenes,duration_manipulation_targetAtFixation,jsons/v1_VE1000_randls_15.json,http://54.235.29.9/FacialAge/BNav_EC2/DepthDuration/v2_depth_duration_MTurk/v2_DepthDuration_HTML.html#380,380,1536,722,1536,864,9-3-2022,9-9-23,94,depth_duration_stimuli/001650_2014-06-20_12-09-00_260595134347_rgbf000087-resize_3/001650_2014-06-20_12-09-00_260595134347_rgbf000087-resize_3-target.png,1000,1.9505,0.2,5302,993,meters,jsons/v1_VE1000_randls_15.json,919121,1268573,1957,Woman
94,791774,DepthScenes,duration_manipulation_targetAtFixation,jsons/v1_VE1000_randls_15.json,http://54.235.29.9/FacialAge/BNav_EC2/DepthDuration/v2_depth_duration_MTurk/v2_DepthDuration_HTML.html#380,380,1536,722,1536,864,9-3-2022,9-9-23,95,depth_duration_stimuli/002445_2014-06-28_20-32-16_260595134347_rgbf000029-resize_4/002445_2014-06-28_20-32-16_260595134347_rgbf000029-resize_4-target.png,1000,2.5315,0.2,4034,898,meters,jsons/v1_VE1000_randls_15.json,919121,1268573,1957,Woman
95,791774,DepthScenes,duration_manipulation_targetAtFixation,jsons/v1_VE1000_randls_15.json,http://54.235.29.9/FacialAge/BNav_EC2/DepthDuration/v2_depth_duration_MTurk/v2_DepthDuration_HTML.html#380,380,1536,722,1536,864,9-3-2022,9-9-23,96,depth_duration_stimuli/000780_2014-06-08_22-28-29_260595134347_rgbf000126-resize_1/000780_2014-06-08_22-28-29_260595134347_rgbf000126-resize_1-target.png,1000,3.3825,0.8,6133,998,meters,jsons/v1_VE1000_randls_15.json,919121,1268573,1957,Woman
96,791774,DepthScenes,duration_manipulation_targetAtFixation,jsons/v1_VE1000_randls_15.json,http://54.235.29.9/FacialAge/BNav_EC2/DepthDuration/v2_depth_duration_MTurk/v2_DepthDuration_HTML.html#380,380,1536,722,1536,864,9-3-2022,9-9-23,97,depth_duration_stimuli/000788_2014-06-08_22-34-36_260595134347_rgbf000131-resize_1/000788_2014-06-08_22-34-36_260595134347_rgbf000131-resize_1-target.png,1000,3.359,0.6,4971,1041,meters,jsons/v1_VE1000_randls_15.json,919121,1268573,1957,Woman
97,791774,DepthScenes,duration_manipulation_targetAtFixation,jsons/v1_VE1000_randls_15.json,http://54.235.29.9/FacialAge/BNav_EC2/DepthDuration/v2_depth_duration_MTurk/v2_DepthDuration_HTML.html#380,380,1536,722,1536,864,9-3-2022,9-9-23,98,depth_duration_stimuli/001235_2014-06-17_16-37-36_260595134347_rgbf000084-resize_4/001235_2014-06-17_16-37-36_260595134347_rgbf000084-resize_4-target.png,1000,3.6605,0.6,4561,998,meters,jsons/v1_VE1000_randls_15.json,919121,1268573,1957,Woman
98,791774,DepthScenes,duration_manipulation_targetAtFixation,jsons/v1_VE1000_randls_15.json,http://54.235.29.9/FacialAge/BNav_EC2/DepthDuration/v2_depth_duration_MTurk/v2_DepthDuration_HTML.html#380,380,1536,722,1536,864,9-3-2022,9-9-23,99,depth_duration_stimuli/001540_2014-06-20_17-01-05_260595134347_rgbf000086-resize_2/001540_2014-06-20_17-01-05_260595134347_rgbf000086-resize-original.jpg,1000,1.459,0.0,3906,1012,meters,jsons/v1_VE1000_randls_15.json,919121,1268573,1957,Woman
99,791774,DepthScenes,duration_manipulation_targetAtFixation,jsons/v1_VE1000_randls_15.json,http://54.235.29.9/FacialAge/BNav_EC2/DepthDuration/v2_depth_duration_MTurk/v2_DepthDuration_HTML.html#380,380,1536,722,1536,864,9-3-2022,9-9-23,100,depth_duration_stimuli/000692_2014-06-08_13-09-42_260595134347_rgbf000199-resize_2/000692_2014-06-08_13-09-42_260595134347_rgbf000199-resize_2-target.png,1000,3.661,0.4,4654,994,meters,jsons/v1_VE1000_randls_15.json,919121,1268573,1957,Woman
100,791774,DepthScenes,duration_manipulation_targetAtFixation,jsons/v1_VE1000_randls_15.json,http://54.235.29.9/FacialAge/BNav_EC2/DepthDuration/v2_depth_duration_MTurk/v2_DepthDuration_HTML.html#380,380,1536,722,1536,864,9-3-2022,9-9-23,101,depth_duration_stimuli/001094_2014-06-15_17-36-00_260595134347_rgbf000205-resize_0/001094_2014-06-15_17-36-00_260595134347_rgbf000205-resize_0-target.png,1000,4.2175,0.6,5866,987,meters,jsons/v1_VE1000_randls_15.json,919121,1268573,1957,Woman
101,791774,DepthScenes,duration_manipulation_targetAtFixation,jsons/v1_VE1000_randls_15.json,http://54.235.29.9/FacialAge/BNav_EC2/DepthDuration/v2_depth_duration_MTurk/v2_DepthDuration_HTML.html#380,380,1536,722,1536,864,9-3-2022,9-9-23,102,depth_duration_stimuli/000810_2014-06-08_17-20-01_260595134347_rgbf000105-resize_0/000810_2014-06-08_17-20-01_260595134347_rgbf000105-resize_0-target.png,1000,1.4865,0.5,10358,994,meters,jsons/v1_VE1000_randls_15.json,919121,1268573,1957,Woman
102,791774,DepthScenes,duration_manipulation_targetAtFixation,jsons/v1_VE1000_randls_15.json,http://54.235.29.9/FacialAge/BNav_EC2/DepthDuration/v2_depth_duration_MTurk/v2_DepthDuration_HTML.html#380,380,1536,722,1536,864,9-3-2022,9-9-23,103,depth_duration_stimuli/001214_2014-06-17_16-13-55_260595134347_rgbf000111-resize_0/001214_2014-06-17_16-13-55_260595134347_rgbf000111-resize_0-target.png,1000,2.6505,0.6,4392,1006,meters,jsons/v1_VE1000_randls_15.json,919121,1268573,1957,Woman
103,791774,DepthScenes,duration_manipulation_targetAtFixation,jsons/v1_VE1000_randls_15.json,http://54.235.29.9/FacialAge/BNav_EC2/DepthDuration/v2_depth_duration_MTurk/v2_DepthDuration_HTML.html#380,380,1536,722,1536,864,9-3-2022,9-9-23,104,depth_duration_stimuli/003292_2014-05-14_21-53-49_094959634447_rgbf000100-resize_2/003292_2014-05-14_21-53-49_094959634447_rgbf000100-resize_2-target.png,1000,3.4815,0.6,7227,999,meters,jsons/v1_VE1000_randls_15.json,919121,1268573,1957,Woman
104,791774,DepthScenes,duration_manipulation_targetAtFixation,jsons/v1_VE1000_randls_15.json,http://54.235.29.9/FacialAge/BNav_EC2/DepthDuration/v2_depth_duration_MTurk/v2_DepthDuration_HTML.html#380,380,1536,722,1536,864,9-3-2022,9-9-23,105,depth_duration_stimuli/002639_2014-06-24_14-51-37_094959634447_rgbf000074-resize_4/002639_2014-06-24_14-51-37_094959634447_rgbf000074-resize_4-target.png,1000,4.0375,0.4,4670,998,meters,jsons/v1_VE1000_randls_15.json,919121,1268573,1957,Woman
105,791774,DepthScenes,duration_manipulation_targetAtFixation,jsons/v1_VE1000_randls_15.json,http://54.235.29.9/FacialAge/BNav_EC2/DepthDuration/v2_depth_duration_MTurk/v2_DepthDuration_HTML.html#380,380,1536,722,1536,864,9-3-2022,9-9-23,106,depth_duration_stimuli/002118_2014-06-25_20-32-08_260595134347_rgbf000078-resize_1/002118_2014-06-25_20-32-08_260595134347_rgbf000078-resize_1-target.png,1000,2.6460000000000004,0.4,4893,998,meters,jsons/v1_VE1000_randls_15.json,919121,1268573,1957,Woman
106,791774,DepthScenes,duration_manipulation_targetAtFixation,jsons/v1_VE1000_randls_15.json,http://54.235.29.9/FacialAge/BNav_EC2/DepthDuration/v2_depth_duration_MTurk/v2_DepthDuration_HTML.html#380,380,1536,722,1536,864,9-3-2022,9-9-23,107,depth_duration_stimuli/001516_2014-06-20_16-25-09_260595134347_rgbf000076-resize_2/001516_2014-06-20_16-25-09_260595134347_rgbf000076-resize_2-target.png,1000,1.7445,0.5,4357,769,meters,jsons/v1_VE1000_randls_15.json,919121,1268573,1957,Woman
107,791774,DepthScenes,duration_manipulation_targetAtFixation,jsons/v1_VE1000_randls_15.json,http://54.235.29.9/FacialAge/BNav_EC2/DepthDuration/v2_depth_duration_MTurk/v2_DepthDuration_HTML.html#380,380,1536,722,1536,864,9-3-2022,9-9-23,108,depth_duration_stimuli/000469_2014-06-09_19-42-10_260595134347_rgbf000081-resize_1/000469_2014-06-09_19-42-10_260595134347_rgbf000081-resize_1-target.png,1000,1.652,0.3,4696,992,meters,jsons/v1_VE1000_randls_15.json,919121,1268573,1957,Woman
108,791774,DepthScenes,duration_manipulation_targetAtFixation,jsons/v1_VE1000_randls_15.json,http://54.235.29.9/FacialAge/BNav_EC2/DepthDuration/v2_depth_duration_MTurk/v2_DepthDuration_HTML.html#380,380,1536,722,1536,864,9-3-2022,9-9-23,109,depth_duration_stimuli/000483_2014-06-09_20-41-45_260595134347_rgbf000116-resize_4/000483_2014-06-09_20-41-45_260595134347_rgbf000116-resize_4-target.png,1000,1.337,0.2,4186,981,meters,jsons/v1_VE1000_randls_15.json,919121,1268573,1957,Woman
109,791774,DepthScenes,duration_manipulation_targetAtFixation,jsons/v1_VE1000_randls_15.json,http://54.235.29.9/FacialAge/BNav_EC2/DepthDuration/v2_depth_duration_MTurk/v2_DepthDuration_HTML.html#380,380,1536,722,1536,864,9-3-2022,9-9-23,110,depth_duration_stimuli/001056_2014-06-08_18-46-44_260595134347_rgbf000068-resize_0/001056_2014-06-08_18-46-44_260595134347_rgbf000068-resize_0-target.png,1000,2.6625,0.2,4406,1002,meters,jsons/v1_VE1000_randls_15.json,919121,1268573,1957,Woman
110,791774,DepthScenes,duration_manipulation_targetAtFixation,jsons/v1_VE1000_randls_15.json,http://54.235.29.9/FacialAge/BNav_EC2/DepthDuration/v2_depth_duration_MTurk/v2_DepthDuration_HTML.html#380,380,1536,722,1536,864,9-3-2022,9-9-23,111,depth_duration_stimuli/002199_2014-06-28_18-33-56_260595134347_rgbf000074-resize_0/002199_2014-06-28_18-33-56_260595134347_rgbf000074-resize_0-target.png,1000,1.996,0.2,4538,1001,meters,jsons/v1_VE1000_randls_15.json,919121,1268573,1957,Woman
111,791774,DepthScenes,duration_manipulation_targetAtFixation,jsons/v1_VE1000_randls_15.json,http://54.235.29.9/FacialAge/BNav_EC2/DepthDuration/v2_depth_duration_MTurk/v2_DepthDuration_HTML.html#380,380,1536,722,1536,864,9-3-2022,9-9-23,112,depth_duration_stimuli/000470_2014-06-09_19-42-40_260595134347_rgbf000094-resize_1/000470_2014-06-09_19-42-40_260595134347_rgbf000094-resize_1-target.png,1000,1.831,0.2,5016,996,meters,jsons/v1_VE1000_randls_15.json,919121,1268573,1957,Woman
112,791774,DepthScenes,duration_manipulation_targetAtFixation,jsons/v1_VE1000_randls_15.json,http://54.235.29.9/FacialAge/BNav_EC2/DepthDuration/v2_depth_duration_MTurk/v2_DepthDuration_HTML.html#380,380,1536,722,1536,864,9-3-2022,9-9-23,113,depth_duration_stimuli/000109_2014-05-14_23-41-52_260595134347_rgbf000035-resize_9/000109_2014-05-14_23-41-52_260595134347_rgbf000035-resize_9-target.png,1000,1.3545,0.5,4309,1003,meters,jsons/v1_VE1000_randls_15.json,919121,1268573,1957,Woman
113,791774,DepthScenes,duration_manipulation_targetAtFixation,jsons/v1_VE1000_randls_15.json,http://54.235.29.9/FacialAge/BNav_EC2/DepthDuration/v2_depth_duration_MTurk/v2_DepthDuration_HTML.html#380,380,1536,722,1536,864,9-3-2022,9-9-23,114,depth_duration_stimuli/001059_2014-06-08_21-53-27_260595134347_rgbf000061-resize_4/001059_2014-06-08_21-53-27_260595134347_rgbf000061-resize_4-target.png,1000,2.4185,0.3,4788,986,meters,jsons/v1_VE1000_randls_15.json,919121,1268573,1957,Woman
114,791774,DepthScenes,duration_manipulation_targetAtFixation,jsons/v1_VE1000_randls_15.json,http://54.235.29.9/FacialAge/BNav_EC2/DepthDuration/v2_depth_duration_MTurk/v2_DepthDuration_HTML.html#380,380,1536,722,1536,864,9-3-2022,9-9-23,115,depth_duration_stimuli/001032_2014-06-08_13-23-17_260595134347_rgbf000021-resize_3/001032_2014-06-08_13-23-17_260595134347_rgbf000021-resize_3-target.png,1000,3.2725,0.2,4174,940,meters,jsons/v1_VE1000_randls_15.json,919121,1268573,1957,Woman
115,791774,DepthScenes,duration_manipulation_targetAtFixation,jsons/v1_VE1000_randls_15.json,http://54.235.29.9/FacialAge/BNav_EC2/DepthDuration/v2_depth_duration_MTurk/v2_DepthDuration_HTML.html#380,380,1536,722,1536,864,9-3-2022,9-9-23,116,depth_duration_stimuli/001170_2014-06-17_15-43-44_260595134347_rgbf000096-resize_6/001170_2014-06-17_15-43-44_260595134347_rgbf000096-resize-original.jpg,1000,1.1909999999999998,0.0,4027,989,meters,jsons/v1_VE1000_randls_15.json,919121,1268573,1957,Woman
116,791774,DepthScenes,duration_manipulation_targetAtFixation,jsons/v1_VE1000_randls_15.json,http://54.235.29.9/FacialAge/BNav_EC2/DepthDuration/v2_depth_duration_MTurk/v2_DepthDuration_HTML.html#380,380,1536,722,1536,864,9-3-2022,9-9-23,117,depth_duration_stimuli/002549_2014-06-24_13-41-39_094959634447_rgbf000022-resize_3/002549_2014-06-24_13-41-39_094959634447_rgbf000022-resize_3-target.png,1000,1.476,0.5,4741,1001,meters,jsons/v1_VE1000_randls_15.json,919121,1268573,1957,Woman
117,791774,DepthScenes,duration_manipulation_targetAtFixation,jsons/v1_VE1000_randls_15.json,http://54.235.29.9/FacialAge/BNav_EC2/DepthDuration/v2_depth_duration_MTurk/v2_DepthDuration_HTML.html#380,380,1536,722,1536,864,9-3-2022,9-9-23,118,depth_duration_stimuli/002750_2014-06-22_19-08-03_094959634447_rgbf000094-resize_4/002750_2014-06-22_19-08-03_094959634447_rgbf000094-resize_4-target.png,1000,2.354,0.6,5071,1003,meters,jsons/v1_VE1000_randls_15.json,919121,1268573,1957,Woman
118,791774,DepthScenes,duration_manipulation_targetAtFixation,jsons/v1_VE1000_randls_15.json,http://54.235.29.9/FacialAge/BNav_EC2/DepthDuration/v2_depth_duration_MTurk/v2_DepthDuration_HTML.html#380,380,1536,722,1536,864,9-3-2022,9-9-23,119,depth_duration_stimuli/001092_2014-06-15_17-34-58_260595134347_rgbf000171-resize_3/001092_2014-06-15_17-34-58_260595134347_rgbf000171-resize_3-target.png,1000,2.6935,0.6,5030,993,meters,jsons/v1_VE1000_randls_15.json,919121,1268573,1957,Woman
119,791774,DepthScenes,duration_manipulation_targetAtFixation,jsons/v1_VE1000_randls_15.json,http://54.235.29.9/FacialAge/BNav_EC2/DepthDuration/v2_depth_duration_MTurk/v2_DepthDuration_HTML.html#380,380,1536,722,1536,864,9-3-2022,9-9-23,120,depth_duration_stimuli/002545_2014-06-24_13-38-53_094959634447_rgbf000080-resize_4/002545_2014-06-24_13-38-53_094959634447_rgbf000080-resize_4-target.png,1000,1.9205,0.3,4711,995,meters,jsons/v1_VE1000_randls_15.json,919121,1268573,1957,Woman
120,791774,DepthScenes,duration_manipulation_targetAtFixation,jsons/v1_VE1000_randls_15.json,http://54.235.29.9/FacialAge/BNav_EC2/DepthDuration/v2_depth_duration_MTurk/v2_DepthDuration_HTML.html#380,380,1536,722,1536,864,9-3-2022,9-9-23,121,depth_duration_stimuli/001164_2014-06-17_15-35-46_260595134347_rgbf000085-resize_3/001164_2014-06-17_15-35-46_260595134347_rgbf000085-resize_3-target.png,1000,2.354,0.6,4100,1005,meters,jsons/v1_VE1000_randls_15.json,919121,1268573,1957,Woman
121,791774,DepthScenes,duration_manipulation_targetAtFixation,jsons/v1_VE1000_randls_15.json,http://54.235.29.9/FacialAge/BNav_EC2/DepthDuration/v2_depth_duration_MTurk/v2_DepthDuration_HTML.html#380,380,1536,722,1536,864,9-3-2022,9-9-23,122,depth_duration_stimuli/001136_2014-06-17_15-19-41_260595134347_rgbf000076-resize_3/001136_2014-06-17_15-19-41_260595134347_rgbf000076-resize_3-target.png,1000,1.8655,0.5,3988,1008,meters,jsons/v1_VE1000_randls_15.json,919121,1268573,1957,Woman
122,791774,DepthScenes,duration_manipulation_targetAtFixation,jsons/v1_VE1000_randls_15.json,http://54.235.29.9/FacialAge/BNav_EC2/DepthDuration/v2_depth_duration_MTurk/v2_DepthDuration_HTML.html#380,380,1536,722,1536,864,9-3-2022,9-9-23,123,depth_duration_stimuli/002043_2014-06-24_20-29-38_260595134347_rgbf000039-resize_4/002043_2014-06-24_20-29-38_260595134347_rgbf000039-resize_4-target.png,1000,2.8435,0.5,5024,1004,meters,jsons/v1_VE1000_randls_15.json,919121,1268573,1957,Woman
123,791774,DepthScenes,duration_manipulation_targetAtFixation,jsons/v1_VE1000_randls_15.json,http://54.235.29.9/FacialAge/BNav_EC2/DepthDuration/v2_depth_duration_MTurk/v2_DepthDuration_HTML.html#380,380,1536,722,1536,864,9-3-2022,9-9-23,124,depth_duration_stimuli/003048_2014-06-15_13-49-43_094959634447_rgbf000150-resize_1/003048_2014-06-15_13-49-43_094959634447_rgbf000150-resize_1-target.png,1000,4.0035,0.6,4160,985,meters,jsons/v1_VE1000_randls_15.json,919121,1268573,1957,Woman
124,791774,DepthScenes,duration_manipulation_targetAtFixation,jsons/v1_VE1000_randls_15.json,http://54.235.29.9/FacialAge/BNav_EC2/DepthDuration/v2_depth_duration_MTurk/v2_DepthDuration_HTML.html#380,380,1536,722,1536,864,9-3-2022,9-9-23,125,depth_duration_stimuli/002039_2014-06-24_20-22-38_260595134347_rgbf000084-resize_1/002039_2014-06-24_20-22-38_260595134347_rgbf000084-resize_1-target.png,1000,4.408,0.2,5983,991,meters,jsons/v1_VE1000_randls_15.json,919121,1268573,1957,Woman
125,791774,DepthScenes,duration_manipulation_targetAtFixation,jsons/v1_VE1000_randls_15.json,http://54.235.29.9/FacialAge/BNav_EC2/DepthDuration/v2_depth_duration_MTurk/v2_DepthDuration_HTML.html#380,380,1536,722,1536,864,9-3-2022,9-9-23,126,depth_duration_stimuli/002103_2014-06-25_20-00-40_260595134347_rgbf000049-resize_0/002103_2014-06-25_20-00-40_260595134347_rgbf000049-resize_0-target.png,1000,4.105,0.5,4221,1006,meters,jsons/v1_VE1000_randls_15.json,919121,1268573,1957,Woman
126,791774,DepthScenes,duration_manipulation_targetAtFixation,jsons/v1_VE1000_randls_15.json,http://54.235.29.9/FacialAge/BNav_EC2/DepthDuration/v2_depth_duration_MTurk/v2_DepthDuration_HTML.html#380,380,1536,722,1536,864,9-3-2022,9-9-23,127,depth_duration_stimuli/002213_2014-06-28_18-37-58_260595134347_rgbf000055-resize_1/002213_2014-06-28_18-37-58_260595134347_rgbf000055-resize_1-target.png,1000,3.62,0.5,4365,1012,meters,jsons/v1_VE1000_randls_15.json,919121,1268573,1957,Woman
127,791774,DepthScenes,duration_manipulation_targetAtFixation,jsons/v1_VE1000_randls_15.json,http://54.235.29.9/FacialAge/BNav_EC2/DepthDuration/v2_depth_duration_MTurk/v2_DepthDuration_HTML.html#380,380,1536,722,1536,864,9-3-2022,9-9-23,128,depth_duration_stimuli/000691_2014-06-08_13-08-50_260595134347_rgbf000132-resize_3/000691_2014-06-08_13-08-50_260595134347_rgbf000132-resize_3-target.png,1000,4.1530000000000005,0.3,8006,1005,meters,jsons/v1_VE1000_randls_15.json,919121,1268573,1957,Woman
128,791774,DepthScenes,duration_manipulation_targetAtFixation,jsons/v1_VE1000_randls_15.json,http://54.235.29.9/FacialAge/BNav_EC2/DepthDuration/v2_depth_duration_MTurk/v2_DepthDuration_HTML.html#380,380,1536,722,1536,864,9-3-2022,9-9-23,129,depth_duration_stimuli/000493_2014-06-09_21-01-18_260595134347_rgbf000196-resize_3/000493_2014-06-09_21-01-18_260595134347_rgbf000196-resize_3-target.png,1000,3.44,0.5,4235,1008,meters,jsons/v1_VE1000_randls_15.json,919121,1268573,1957,Woman
129,791774,DepthScenes,duration_manipulation_targetAtFixation,jsons/v1_VE1000_randls_15.json,http://54.235.29.9/FacialAge/BNav_EC2/DepthDuration/v2_depth_duration_MTurk/v2_DepthDuration_HTML.html#380,380,1536,722,1536,864,9-3-2022,9-9-23,130,depth_duration_stimuli/000191_2014-05-12_17-07-38_260595134347_rgbf000199-resize_0/000191_2014-05-12_17-07-38_260595134347_rgbf000199-resize_0-target.png,1000,3.7995,0.6,4800,1004,meters,jsons/v1_VE1000_randls_15.json,919121,1268573,1957,Woman
130,791774,DepthScenes,duration_manipulation_targetAtFixation,jsons/v1_VE1000_randls_15.json,http://54.235.29.9/FacialAge/BNav_EC2/DepthDuration/v2_depth_duration_MTurk/v2_DepthDuration_HTML.html#380,380,1536,722,1536,864,9-3-2022,9-9-23,131,depth_duration_stimuli/000447_2014-06-08_16-15-46_260595134347_rgbf000130-resize_1/000447_2014-06-08_16-15-46_260595134347_rgbf000130-resize_1-target.png,1000,4.479,0.6,5045,998,meters,jsons/v1_VE1000_randls_15.json,919121,1268573,1957,Woman
131,791774,DepthScenes,duration_manipulation_targetAtFixation,jsons/v1_VE1000_randls_15.json,http://54.235.29.9/FacialAge/BNav_EC2/DepthDuration/v2_depth_duration_MTurk/v2_DepthDuration_HTML.html#380,380,1536,722,1536,864,9-3-2022,9-9-23,132,depth_duration_stimuli/001447_2014-06-19_17-00-32_260595134347_rgbf000082-resize_5/001447_2014-06-19_17-00-32_260595134347_rgbf000082-resize_5-target.png,1000,4.13775,0.5,4237,987,meters,jsons/v1_VE1000_randls_15.json,919121,1268573,1957,Woman
132,791774,DepthScenes,duration_manipulation_targetAtFixation,jsons/v1_VE1000_randls_15.json,http://54.235.29.9/FacialAge/BNav_EC2/DepthDuration/v2_depth_duration_MTurk/v2_DepthDuration_HTML.html#380,380,1536,722,1536,864,9-3-2022,9-9-23,133,depth_duration_stimuli/001133_2014-06-17_14-49-16_260595134347_rgbf000100-resize_0/001133_2014-06-17_14-49-16_260595134347_rgbf000100-resize_0-target.png,1000,4.2115,0.3,4509,1005,meters,jsons/v1_VE1000_randls_15.json,919121,1268573,1957,Woman
133,791774,DepthScenes,duration_manipulation_targetAtFixation,jsons/v1_VE1000_randls_15.json,http://54.235.29.9/FacialAge/BNav_EC2/DepthDuration/v2_depth_duration_MTurk/v2_DepthDuration_HTML.html#380,380,1536,722,1536,864,9-3-2022,9-9-23,134,depth_duration_stimuli/001132_2014-06-17_14-48-54_260595134347_rgbf000100-resize_2/001132_2014-06-17_14-48-54_260595134347_rgbf000100-resize_2-target.png,1000,3.753,0.5,4927,993,meters,jsons/v1_VE1000_randls_15.json,919121,1268573,1957,Woman
134,791774,DepthScenes,duration_manipulation_targetAtFixation,jsons/v1_VE1000_randls_15.json,http://54.235.29.9/FacialAge/BNav_EC2/DepthDuration/v2_depth_duration_MTurk/v2_DepthDuration_HTML.html#380,380,1536,722,1536,864,9-3-2022,9-9-23,135,depth_duration_stimuli/002072_2014-06-24_21-48-06_260595134347_rgbf000115-resize_0/002072_2014-06-24_21-48-06_260595134347_rgbf000115-resize-original.jpg,1000,4.702,0.0,4310,990,meters,jsons/v1_VE1000_randls_15.json,919121,1268573,1957,Woman
135,791774,DepthScenes,duration_manipulation_targetAtFixation,jsons/v1_VE1000_randls_15.json,http://54.235.29.9/FacialAge/BNav_EC2/DepthDuration/v2_depth_duration_MTurk/v2_DepthDuration_HTML.html#380,380,1536,722,1536,864,9-3-2022,9-9-23,136,depth_duration_stimuli/000758_2014-06-08_22-05-08_260595134347_rgbf000085-resize_0/000758_2014-06-08_22-05-08_260595134347_rgbf000085-resize_0-target.png,1000,3.3810000000000002,0.2,4864,1000,meters,jsons/v1_VE1000_randls_15.json,919121,1268573,1957,Woman
136,791774,DepthScenes,duration_manipulation_targetAtFixation,jsons/v1_VE1000_randls_15.json,http://54.235.29.9/FacialAge/BNav_EC2/DepthDuration/v2_depth_duration_MTurk/v2_DepthDuration_HTML.html#380,380,1536,722,1536,864,9-3-2022,9-9-23,137,depth_duration_stimuli/000854_2014-06-09_19-43-13_260595134347_rgbf000066-resize_0/000854_2014-06-09_19-43-13_260595134347_rgbf000066-resize_0-target.png,1000,3.068,0.3,5599,978,meters,jsons/v1_VE1000_randls_15.json,919121,1268573,1957,Woman
137,791774,DepthScenes,duration_manipulation_targetAtFixation,jsons/v1_VE1000_randls_15.json,http://54.235.29.9/FacialAge/BNav_EC2/DepthDuration/v2_depth_duration_MTurk/v2_DepthDuration_HTML.html#380,380,1536,722,1536,864,9-3-2022,9-9-23,138,depth_duration_stimuli/000878_2014-06-08_22-52-45_260595134347_rgbf000045-resize_2/000878_2014-06-08_22-52-45_260595134347_rgbf000045-resize_2-target.png,1000,2.092,0.3,4540,1001,meters,jsons/v1_VE1000_randls_15.json,919121,1268573,1957,Woman
138,791774,DepthScenes,duration_manipulation_targetAtFixation,jsons/v1_VE1000_randls_15.json,http://54.235.29.9/FacialAge/BNav_EC2/DepthDuration/v2_depth_duration_MTurk/v2_DepthDuration_HTML.html#380,380,1536,722,1536,864,9-3-2022,9-9-23,139,depth_duration_stimuli/002953_2014-06-08_17-32-18_094959634447_rgbf000059-resize_5/002953_2014-06-08_17-32-18_094959634447_rgbf000059-resize_5-target.png,1000,1.551,0.2,5905,1002,meters,jsons/v1_VE1000_randls_15.json,919121,1268573,1957,Woman
139,791774,DepthScenes,duration_manipulation_targetAtFixation,jsons/v1_VE1000_randls_15.json,http://54.235.29.9/FacialAge/BNav_EC2/DepthDuration/v2_depth_duration_MTurk/v2_DepthDuration_HTML.html#380,380,1536,722,1536,864,9-3-2022,9-9-23,140,depth_duration_stimuli/001449_2014-06-19_17-01-27_260595134347_rgbf000116-resize_2/001449_2014-06-19_17-01-27_260595134347_rgbf000116-resize_2-target.png,1000,3.452,0.6,5113,992,meters,jsons/v1_VE1000_randls_15.json,919121,1268573,1957,Woman
140,791774,DepthScenes,duration_manipulation_targetAtFixation,jsons/v1_VE1000_randls_15.json,http://54.235.29.9/FacialAge/BNav_EC2/DepthDuration/v2_depth_duration_MTurk/v2_DepthDuration_HTML.html#380,380,1536,722,1536,864,9-3-2022,9-9-23,141,depth_duration_stimuli/001450_2014-06-19_17-02-03_260595134347_rgbf000203-resize_4/001450_2014-06-19_17-02-03_260595134347_rgbf000203-resize_4-target.png,1000,4.0106666666667,0.5,7401,993,meters,jsons/v1_VE1000_randls_15.json,919121,1268573,1957,Woman
141,791774,DepthScenes,duration_manipulation_targetAtFixation,jsons/v1_VE1000_randls_15.json,http://54.235.29.9/FacialAge/BNav_EC2/DepthDuration/v2_depth_duration_MTurk/v2_DepthDuration_HTML.html#380,380,1536,722,1536,864,9-3-2022,9-9-23,142,depth_duration_stimuli/002570_2014-06-24_13-59-54_094959634447_rgbf000059-resize_0/002570_2014-06-24_13-59-54_094959634447_rgbf000059-resize_0-target.png,1000,4.037,0.5,5070,992,meters,jsons/v1_VE1000_randls_15.json,919121,1268573,1957,Woman
142,791774,DepthScenes,duration_manipulation_targetAtFixation,jsons/v1_VE1000_randls_15.json,http://54.235.29.9/FacialAge/BNav_EC2/DepthDuration/v2_depth_duration_MTurk/v2_DepthDuration_HTML.html#380,380,1536,722,1536,864,9-3-2022,9-9-23,143,depth_duration_stimuli/002467_2014-06-28_20-38-07_260595134347_rgbf000026-resize_2/002467_2014-06-28_20-38-07_260595134347_rgbf000026-resize_2-target.png,1000,4.742,5.0,4369,993,meters,jsons/v1_VE1000_randls_15.json,919121,1268573,1957,Woman
143,791774,DepthScenes,duration_manipulation_targetAtFixation,jsons/v1_VE1000_randls_15.json,http://54.235.29.9/FacialAge/BNav_EC2/DepthDuration/v2_depth_duration_MTurk/v2_DepthDuration_HTML.html#380,380,1536,722,1536,864,9-3-2022,9-9-23,144,depth_duration_stimuli/000929_2014-06-09_16-33-19_260595134347_rgbf000139-resize_0/000929_2014-06-09_16-33-19_260595134347_rgbf000139-resize_0-target.png,1000,2.8680000000000003,0.4,4689,991,meters,jsons/v1_VE1000_randls_15.json,919121,1268573,1957,Woman
144,791774,DepthScenes,duration_manipulation_targetAtFixation,jsons/v1_VE1000_randls_15.json,http://54.235.29.9/FacialAge/BNav_EC2/DepthDuration/v2_depth_duration_MTurk/v2_DepthDuration_HTML.html#380,380,1536,722,1536,864,9-3-2022,9-9-23,145,depth_duration_stimuli/000457_2014-06-08_16-52-43_260595134347_rgbf000199-resize_1/000457_2014-06-08_16-52-43_260595134347_rgbf000199-resize_1-target.png,1000,3.6489999999999996,0.6,4648,1007,meters,jsons/v1_VE1000_randls_15.json,919121,1268573,1957,Woman
145,791774,DepthScenes,duration_manipulation_targetAtFixation,jsons/v1_VE1000_randls_15.json,http://54.235.29.9/FacialAge/BNav_EC2/DepthDuration/v2_depth_duration_MTurk/v2_DepthDuration_HTML.html#380,380,1536,722,1536,864,9-3-2022,9-9-23,146,depth_duration_stimuli/001498_2014-06-19_17-45-14_260595134347_rgbf000129-resize_4/001498_2014-06-19_17-45-14_260595134347_rgbf000129-resize-original.jpg,1000,1.4075,0.0,4508,926,meters,jsons/v1_VE1000_randls_15.json,919121,1268573,1957,Woman
146,791774,DepthScenes,duration_manipulation_targetAtFixation,jsons/v1_VE1000_randls_15.json,http://54.235.29.9/FacialAge/BNav_EC2/DepthDuration/v2_depth_duration_MTurk/v2_DepthDuration_HTML.html#380,380,1536,722,1536,864,9-3-2022,9-9-23,147,depth_duration_stimuli/001029_2014-06-08_13-17-57_260595134347_rgbf000065-resize_1/001029_2014-06-08_13-17-57_260595134347_rgbf000065-resize_1-target.png,1000,3.0835,0.9,4672,1000,meters,jsons/v1_VE1000_randls_15.json,919121,1268573,1957,Woman
147,791774,DepthScenes,duration_manipulation_targetAtFixation,jsons/v1_VE1000_randls_15.json,http://54.235.29.9/FacialAge/BNav_EC2/DepthDuration/v2_depth_duration_MTurk/v2_DepthDuration_HTML.html#380,380,1536,722,1536,864,9-3-2022,9-9-23,148,depth_duration_stimuli/000677_2014-06-08_23-10-32_260595134347_rgbf000158-resize_6/000677_2014-06-08_23-10-32_260595134347_rgbf000158-resize_6-target.png,1000,3.556,0.5,4369,994,meters,jsons/v1_VE1000_randls_15.json,919121,1268573,1957,Woman
148,791774,DepthScenes,duration_manipulation_targetAtFixation,jsons/v1_VE1000_randls_15.json,http://54.235.29.9/FacialAge/BNav_EC2/DepthDuration/v2_depth_duration_MTurk/v2_DepthDuration_HTML.html#380,380,1536,722,1536,864,9-3-2022,9-9-23,149,depth_duration_stimuli/002788_2014-06-22_19-36-03_094959634447_rgbf000088-resize_2/002788_2014-06-22_19-36-03_094959634447_rgbf000088-resize_2-target.png,1000,1.6465,0.6,4791,989,meters,jsons/v1_VE1000_randls_15.json,919121,1268573,1957,Woman
149,791774,DepthScenes,duration_manipulation_targetAtFixation,jsons/v1_VE1000_randls_15.json,http://54.235.29.9/FacialAge/BNav_EC2/DepthDuration/v2_depth_duration_MTurk/v2_DepthDuration_HTML.html#380,380,1536,722,1536,864,9-3-2022,9-9-23,150,depth_duration_stimuli/000749_2014-06-08_21-55-06_260595134347_rgbf000070-resize_2/000749_2014-06-08_21-55-06_260595134347_rgbf000070-resize_2-target.png,1000,2.331,0.8,5150,987,meters,jsons/v1_VE1000_randls_15.json,919121,1268573,1957,Woman
150,791774,DepthScenes,duration_manipulation_targetAtFixation,jsons/v1_VE1000_randls_15.json,http://54.235.29.9/FacialAge/BNav_EC2/DepthDuration/v2_depth_duration_MTurk/v2_DepthDuration_HTML.html#380,380,1536,722,1536,864,9-3-2022,9-9-23,151,depth_duration_stimuli/000739_2014-06-08_18-45-58_260595134347_rgbf000068-resize_1/000739_2014-06-08_18-45-58_260595134347_rgbf000068-resize_1-target.png,1000,3.534,0.9,4482,989,meters,jsons/v1_VE1000_randls_15.json,919121,1268573,1957,Woman
151,791774,DepthScenes,duration_manipulation_targetAtFixation,jsons/v1_VE1000_randls_15.json,http://54.235.29.9/FacialAge/BNav_EC2/DepthDuration/v2_depth_duration_MTurk/v2_DepthDuration_HTML.html#380,380,1536,722,1536,864,9-3-2022,9-9-23,152,depth_duration_stimuli/000734_2014-06-08_17-39-11_260595134347_rgbf000128-resize_2/000734_2014-06-08_17-39-11_260595134347_rgbf000128-resize_2-target.png,1000,4.098,0.8,7294,993,meters,jsons/v1_VE1000_randls_15.json,919121,1268573,1957,Woman
152,791774,DepthScenes,duration_manipulation_targetAtFixation,jsons/v1_VE1000_randls_15.json,http://54.235.29.9/FacialAge/BNav_EC2/DepthDuration/v2_depth_duration_MTurk/v2_DepthDuration_HTML.html#380,380,1536,722,1536,864,9-3-2022,9-9-23,153,depth_duration_stimuli/002784_2014-06-22_19-26-30_094959634447_rgbf000083-resize_3/002784_2014-06-22_19-26-30_094959634447_rgbf000083-resize_3-target.png,1000,1.8046666666667,0.6,4604,1054,meters,jsons/v1_VE1000_randls_15.json,919121,1268573,1957,Woman
153,791774,DepthScenes,duration_manipulation_targetAtFixation,jsons/v1_VE1000_randls_15.json,http://54.235.29.9/FacialAge/BNav_EC2/DepthDuration/v2_depth_duration_MTurk/v2_DepthDuration_HTML.html#380,380,1536,722,1536,864,9-3-2022,9-9-23,154,depth_duration_stimuli/001100_2014-06-15_17-46-26_260595134347_rgbf000225-resize_2/001100_2014-06-15_17-46-26_260595134347_rgbf000225-resize_2-target.png,1000,2.24,0.6,4471,1002,meters,jsons/v1_VE1000_randls_15.json,919121,1268573,1957,Woman
154,791774,DepthScenes,duration_manipulation_targetAtFixation,jsons/v1_VE1000_randls_15.json,http://54.235.29.9/FacialAge/BNav_EC2/DepthDuration/v2_depth_duration_MTurk/v2_DepthDuration_HTML.html#380,380,1536,722,1536,864,9-3-2022,9-9-23,155,depth_duration_stimuli/001570_2014-06-20_17-21-09_260595134347_rgbf000135-resize_4/001570_2014-06-20_17-21-09_260595134347_rgbf000135-resize_4-target.png,1000,4.467,0.2,4340,1011,meters,jsons/v1_VE1000_randls_15.json,919121,1268573,1957,Woman
155,791774,DepthScenes,duration_manipulation_targetAtFixation,jsons/v1_VE1000_randls_15.json,http://54.235.29.9/FacialAge/BNav_EC2/DepthDuration/v2_depth_duration_MTurk/v2_DepthDuration_HTML.html#380,380,1536,722,1536,864,9-3-2022,9-9-23,156,depth_duration_stimuli/001392_2014-06-19_16-07-59_260595134347_rgbf000046-resize_1/001392_2014-06-19_16-07-59_260595134347_rgbf000046-resize_1-target.png,1000,4.135,0.4,4387,990,meters,jsons/v1_VE1000_randls_15.json,919121,1268573,1957,Woman
156,791774,DepthScenes,duration_manipulation_targetAtFixation,jsons/v1_VE1000_randls_15.json,http://54.235.29.9/FacialAge/BNav_EC2/DepthDuration/v2_depth_duration_MTurk/v2_DepthDuration_HTML.html#380,380,1536,722,1536,864,9-3-2022,9-9-23,157,depth_duration_stimuli/000906_2014-06-08_13-35-43_260595134347_rgbf000155-resize_1/000906_2014-06-08_13-35-43_260595134347_rgbf000155-resize_1-target.png,1000,2.8489999999999998,0.0,3773,992,meters,jsons/v1_VE1000_randls_15.json,919121,1268573,1957,Woman
157,791774,DepthScenes,duration_manipulation_targetAtFixation,jsons/v1_VE1000_randls_15.json,http://54.235.29.9/FacialAge/BNav_EC2/DepthDuration/v2_depth_duration_MTurk/v2_DepthDuration_HTML.html#380,380,1536,722,1536,864,9-3-2022,9-9-23,158,depth_duration_stimuli/002805_2014-06-22_19-54-03_094959634447_rgbf000079-resize_1/002805_2014-06-22_19-54-03_094959634447_rgbf000079-resize_1-target.png,1000,3.1439999999999997,0.2,4455,1001,meters,jsons/v1_VE1000_randls_15.json,919121,1268573,1957,Woman
158,791774,DepthScenes,duration_manipulation_targetAtFixation,jsons/v1_VE1000_randls_15.json,http://54.235.29.9/FacialAge/BNav_EC2/DepthDuration/v2_depth_duration_MTurk/v2_DepthDuration_HTML.html#380,380,1536,722,1536,864,9-3-2022,9-9-23,159,depth_duration_stimuli/001175_2014-06-17_15-45-55_260595134347_rgbf000129-resize_4/001175_2014-06-17_15-45-55_260595134347_rgbf000129-resize_4-target.png,1000,4.255,0.5,6001,986,meters,jsons/v1_VE1000_randls_15.json,919121,1268573,1957,Woman
159,791774,DepthScenes,duration_manipulation_targetAtFixation,jsons/v1_VE1000_randls_15.json,http://54.235.29.9/FacialAge/BNav_EC2/DepthDuration/v2_depth_duration_MTurk/v2_DepthDuration_HTML.html#380,380,1536,722,1536,864,9-3-2022,9-9-23,160,depth_duration_stimuli/003490_2014-05-21_15-50-11_094959634447_rgbf000101-resize_3/003490_2014-05-21_15-50-11_094959634447_rgbf000101-resize_3-target.png,1000,3.6445,0.6,4882,1012,meters,jsons/v1_VE1000_randls_15.json,919121,1268573,1957,Woman
160,791774,DepthScenes,duration_manipulation_targetAtFixation,jsons/v1_VE1000_randls_15.json,http://54.235.29.9/FacialAge/BNav_EC2/DepthDuration/v2_depth_duration_MTurk/v2_DepthDuration_HTML.html#380,380,1536,722,1536,864,9-3-2022,9-9-23,161,depth_duration_stimuli/002057_2014-06-24_21-00-13_260595134347_rgbf000120-resize_1/002057_2014-06-24_21-00-13_260595134347_rgbf000120-resize_1-target.png,1000,2.967,0.3,5574,1000,meters,jsons/v1_VE1000_randls_15.json,919121,1268573,1957,Woman
161,791774,DepthScenes,duration_manipulation_targetAtFixation,jsons/v1_VE1000_randls_15.json,http://54.235.29.9/FacialAge/BNav_EC2/DepthDuration/v2_depth_duration_MTurk/v2_DepthDuration_HTML.html#380,380,1536,722,1536,864,9-3-2022,9-9-23,162,depth_duration_stimuli/000709_2014-06-08_13-51-55_260595134347_rgbf000068-resize_3/000709_2014-06-08_13-51-55_260595134347_rgbf000068-resize_3-target.png,1000,1.8030000000000002,0.5,4480,1002,meters,jsons/v1_VE1000_randls_15.json,919121,1268573,1957,Woman
162,791774,DepthScenes,duration_manipulation_targetAtFixation,jsons/v1_VE1000_randls_15.json,http://54.235.29.9/FacialAge/BNav_EC2/DepthDuration/v2_depth_duration_MTurk/v2_DepthDuration_HTML.html#380,380,1536,722,1536,864,9-3-2022,9-9-23,163,depth_duration_stimuli/002663_2014-06-13_15-50-26_094959634447_rgbf000075-resize_1/002663_2014-06-13_15-50-26_094959634447_rgbf000075-resize_1-target.png,1000,4.7495,0.5,5103,1000,meters,jsons/v1_VE1000_randls_15.json,919121,1268573,1957,Woman
163,791774,DepthScenes,duration_manipulation_targetAtFixation,jsons/v1_VE1000_randls_15.json,http://54.235.29.9/FacialAge/BNav_EC2/DepthDuration/v2_depth_duration_MTurk/v2_DepthDuration_HTML.html#380,380,1536,722,1536,864,9-3-2022,9-9-23,164,depth_duration_stimuli/000409_2014-06-04_19-23-33_260595134347_rgbf000067-resize_0/000409_2014-06-04_19-23-33_260595134347_rgbf000067-resize_0-target.png,1000,3.7335,0.4,5345,989,meters,jsons/v1_VE1000_randls_15.json,919121,1268573,1957,Woman
