,subjID,experimentName,versionName,sequenceName,url,selected_row,windowWidth,windowHeight,screenWidth,screenHeight,startDate,startTime,trial,stimulus,duration,actual_depth,depth_estimate,trial_RT,log_sceneDuration,unitSelection,seq_filepath,experimentTime,totalTime,age,gender
0,793228,DepthScenes,duration_manipulation_targetAtFixation,jsons/v1_VE1000_randls_16.json,http://54.235.29.9/FacialAge/BNav_EC2/DepthDuration/v2_depth_duration_MTurk/v2_DepthDuration_HTML.html#95,95,1276,647,1280,800,8-29-2022,9-40-38,1,depth_duration_stimuli/002748_2014-06-22_19-07-22_094959634447_rgbf000078-resize_1/002748_2014-06-22_19-07-22_094959634447_rgbf000078-resize_1-target.png,1000,4.6705,9,29675,1011,feet,jsons/v1_VE1000_randls_16.json,880231,1022425,48,Woman
1,793228,DepthScenes,duration_manipulation_targetAtFixation,jsons/v1_VE1000_randls_16.json,http://54.235.29.9/FacialAge/BNav_EC2/DepthDuration/v2_depth_duration_MTurk/v2_DepthDuration_HTML.html#95,95,1276,647,1280,800,8-29-2022,9-40-38,2,depth_duration_stimuli/002995_2014-06-15_12-31-26_094959634447_rgbf000150-resize_1/002995_2014-06-15_12-31-26_094959634447_rgbf000150-resize_1-target.png,1000,3.8360000000000003,5,6440,999,feet,jsons/v1_VE1000_randls_16.json,880231,1022425,48,Woman
2,793228,DepthScenes,duration_manipulation_targetAtFixation,jsons/v1_VE1000_randls_16.json,http://54.235.29.9/FacialAge/BNav_EC2/DepthDuration/v2_depth_duration_MTurk/v2_DepthDuration_HTML.html#95,95,1276,647,1280,800,8-29-2022,9-40-38,3,depth_duration_stimuli/002663_2014-06-13_15-50-26_094959634447_rgbf000075-resize_1/002663_2014-06-13_15-50-26_094959634447_rgbf000075-resize_1-target.png,1000,4.7495,5,4627,1000,feet,jsons/v1_VE1000_randls_16.json,880231,1022425,48,Woman
3,793228,DepthScenes,duration_manipulation_targetAtFixation,jsons/v1_VE1000_randls_16.json,http://54.235.29.9/FacialAge/BNav_EC2/DepthDuration/v2_depth_duration_MTurk/v2_DepthDuration_HTML.html#95,95,1276,647,1280,800,8-29-2022,9-40-38,4,depth_duration_stimuli/000409_2014-06-04_19-23-33_260595134347_rgbf000067-resize_0/000409_2014-06-04_19-23-33_260595134347_rgbf000067-resize_0-target.png,1000,3.7335,7,4255,1011,feet,jsons/v1_VE1000_randls_16.json,880231,1022425,48,Woman
4,793228,DepthScenes,duration_manipulation_targetAtFixation,jsons/v1_VE1000_randls_16.json,http://54.235.29.9/FacialAge/BNav_EC2/DepthDuration/v2_depth_duration_MTurk/v2_DepthDuration_HTML.html#95,95,1276,647,1280,800,8-29-2022,9-40-38,5,depth_duration_stimuli/000758_2014-06-08_22-05-08_260595134347_rgbf000085-resize_0/000758_2014-06-08_22-05-08_260595134347_rgbf000085-resize_0-target.png,1000,3.3810000000000002,7,5606,997,feet,jsons/v1_VE1000_randls_16.json,880231,1022425,48,Woman
5,793228,DepthScenes,duration_manipulation_targetAtFixation,jsons/v1_VE1000_randls_16.json,http://54.235.29.9/FacialAge/BNav_EC2/DepthDuration/v2_depth_duration_MTurk/v2_DepthDuration_HTML.html#95,95,1276,647,1280,800,8-29-2022,9-40-38,6,depth_duration_stimuli/000854_2014-06-09_19-43-13_260595134347_rgbf000066-resize_0/000854_2014-06-09_19-43-13_260595134347_rgbf000066-resize_0-target.png,1000,3.068,5,2867,960,feet,jsons/v1_VE1000_randls_16.json,880231,1022425,48,Woman
6,793228,DepthScenes,duration_manipulation_targetAtFixation,jsons/v1_VE1000_randls_16.json,http://54.235.29.9/FacialAge/BNav_EC2/DepthDuration/v2_depth_duration_MTurk/v2_DepthDuration_HTML.html#95,95,1276,647,1280,800,8-29-2022,9-40-38,7,depth_duration_stimuli/000009_2014-05-26_14-32-05_260595134347_rgbf000034-resize_3/000009_2014-05-26_14-32-05_260595134347_rgbf000034-resize_3-target.png,1000,3.8715,8,6404,1005,feet,jsons/v1_VE1000_randls_16.json,880231,1022425,48,Woman
7,793228,DepthScenes,duration_manipulation_targetAtFixation,jsons/v1_VE1000_randls_16.json,http://54.235.29.9/FacialAge/BNav_EC2/DepthDuration/v2_depth_duration_MTurk/v2_DepthDuration_HTML.html#95,95,1276,647,1280,800,8-29-2022,9-40-38,8,depth_duration_stimuli/001828_2014-06-26_21-40-03_260595134347_rgbf000024-resize_0/001828_2014-06-26_21-40-03_260595134347_rgbf000024-resize_0-target.png,1000,4.8260000000000005,4,3527,996,feet,jsons/v1_VE1000_randls_16.json,880231,1022425,48,Woman
8,793228,DepthScenes,duration_manipulation_targetAtFixation,jsons/v1_VE1000_randls_16.json,http://54.235.29.9/FacialAge/BNav_EC2/DepthDuration/v2_depth_duration_MTurk/v2_DepthDuration_HTML.html#95,95,1276,647,1280,800,8-29-2022,9-40-38,9,depth_duration_stimuli/002213_2014-06-28_18-37-58_260595134347_rgbf000055-resize_1/002213_2014-06-28_18-37-58_260595134347_rgbf000055-resize_1-target.png,1000,3.62,71,8903,1001,feet,jsons/v1_VE1000_randls_16.json,880231,1022425,48,Woman
9,793228,DepthScenes,duration_manipulation_targetAtFixation,jsons/v1_VE1000_randls_16.json,http://54.235.29.9/FacialAge/BNav_EC2/DepthDuration/v2_depth_duration_MTurk/v2_DepthDuration_HTML.html#95,95,1276,647,1280,800,8-29-2022,9-40-38,10,depth_duration_stimuli/000691_2014-06-08_13-08-50_260595134347_rgbf000132-resize_3/000691_2014-06-08_13-08-50_260595134347_rgbf000132-resize_3-target.png,1000,4.1530000000000005,4,8361,1011,feet,jsons/v1_VE1000_randls_16.json,880231,1022425,48,Woman
10,793228,DepthScenes,duration_manipulation_targetAtFixation,jsons/v1_VE1000_randls_16.json,http://54.235.29.9/FacialAge/BNav_EC2/DepthDuration/v2_depth_duration_MTurk/v2_DepthDuration_HTML.html#95,95,1276,647,1280,800,8-29-2022,9-40-38,11,depth_duration_stimuli/000506_2014-06-08_23-21-00_260595134347_rgbf000070-resize_7/000506_2014-06-08_23-21-00_260595134347_rgbf000070-resize_7-target.png,1000,4.0585,8,6794,997,feet,jsons/v1_VE1000_randls_16.json,880231,1022425,48,Woman
11,793228,DepthScenes,duration_manipulation_targetAtFixation,jsons/v1_VE1000_randls_16.json,http://54.235.29.9/FacialAge/BNav_EC2/DepthDuration/v2_depth_duration_MTurk/v2_DepthDuration_HTML.html#95,95,1276,647,1280,800,8-29-2022,9-40-38,12,depth_duration_stimuli/003079_2014-06-15_15-18-20_094959634447_rgbf000152-resize_8/003079_2014-06-15_15-18-20_094959634447_rgbf000152-resize_8-target.png,1000,2.8775,3,5409,997,feet,jsons/v1_VE1000_randls_16.json,880231,1022425,48,Woman
12,793228,DepthScenes,duration_manipulation_targetAtFixation,jsons/v1_VE1000_randls_16.json,http://54.235.29.9/FacialAge/BNav_EC2/DepthDuration/v2_depth_duration_MTurk/v2_DepthDuration_HTML.html#95,95,1276,647,1280,800,8-29-2022,9-40-38,13,depth_duration_stimuli/000569_2014-06-09_22-51-47_260595134347_rgbf000141-resize_3/000569_2014-06-09_22-51-47_260595134347_rgbf000141-resize-original.jpg,1000,4.512,2,7266,997,feet,jsons/v1_VE1000_randls_16.json,880231,1022425,48,Woman
13,793228,DepthScenes,duration_manipulation_targetAtFixation,jsons/v1_VE1000_randls_16.json,http://54.235.29.9/FacialAge/BNav_EC2/DepthDuration/v2_depth_duration_MTurk/v2_DepthDuration_HTML.html#95,95,1276,647,1280,800,8-29-2022,9-40-38,14,depth_duration_stimuli/001110_2014-06-15_17-25-28_260595134347_rgbf000150-resize_1/001110_2014-06-15_17-25-28_260595134347_rgbf000150-resize_1-target.png,1000,1.7115,4,8559,997,feet,jsons/v1_VE1000_randls_16.json,880231,1022425,48,Woman
14,793228,DepthScenes,duration_manipulation_targetAtFixation,jsons/v1_VE1000_randls_16.json,http://54.235.29.9/FacialAge/BNav_EC2/DepthDuration/v2_depth_duration_MTurk/v2_DepthDuration_HTML.html#95,95,1276,647,1280,800,8-29-2022,9-40-38,15,depth_duration_stimuli/000927_2014-06-09_16-32-30_260595134347_rgbf000123-resize_3/000927_2014-06-09_16-32-30_260595134347_rgbf000123-resize_3-target.png,1000,2.6785,7,3737,1019,feet,jsons/v1_VE1000_randls_16.json,880231,1022425,48,Woman
15,793228,DepthScenes,duration_manipulation_targetAtFixation,jsons/v1_VE1000_randls_16.json,http://54.235.29.9/FacialAge/BNav_EC2/DepthDuration/v2_depth_duration_MTurk/v2_DepthDuration_HTML.html#95,95,1276,647,1280,800,8-29-2022,9-40-38,16,depth_duration_stimuli/001810_2014-06-26_20-51-35_260595134347_rgbf000040-resize_3/001810_2014-06-26_20-51-35_260595134347_rgbf000040-resize_3-target.png,1000,2.2525,8,4315,1007,feet,jsons/v1_VE1000_randls_16.json,880231,1022425,48,Woman
16,793228,DepthScenes,duration_manipulation_targetAtFixation,jsons/v1_VE1000_randls_16.json,http://54.235.29.9/FacialAge/BNav_EC2/DepthDuration/v2_depth_duration_MTurk/v2_DepthDuration_HTML.html#95,95,1276,647,1280,800,8-29-2022,9-40-38,17,depth_duration_stimuli/003010_2014-06-15_12-54-35_094959634447_rgbf000112-resize_0/003010_2014-06-15_12-54-35_094959634447_rgbf000112-resize_0-target.png,1000,3.1185,8,2952,1000,feet,jsons/v1_VE1000_randls_16.json,880231,1022425,48,Woman
17,793228,DepthScenes,duration_manipulation_targetAtFixation,jsons/v1_VE1000_randls_16.json,http://54.235.29.9/FacialAge/BNav_EC2/DepthDuration/v2_depth_duration_MTurk/v2_DepthDuration_HTML.html#95,95,1276,647,1280,800,8-29-2022,9-40-38,18,depth_duration_stimuli/000642_2014-06-08_16-59-25_260595134347_rgbf000098-resize_2/000642_2014-06-08_16-59-25_260595134347_rgbf000098-resize_2-target.png,1000,2.8815,222,12114,1000,feet,jsons/v1_VE1000_randls_16.json,880231,1022425,48,Woman
18,793228,DepthScenes,duration_manipulation_targetAtFixation,jsons/v1_VE1000_randls_16.json,http://54.235.29.9/FacialAge/BNav_EC2/DepthDuration/v2_depth_duration_MTurk/v2_DepthDuration_HTML.html#95,95,1276,647,1280,800,8-29-2022,9-40-38,19,depth_duration_stimuli/002425_2014-06-28_20-27-29_260595134347_rgbf000031-resize_8/002425_2014-06-28_20-27-29_260595134347_rgbf000031-resize_8-target.png,1000,3.8960000000000004,6,4561,1004,feet,jsons/v1_VE1000_randls_16.json,880231,1022425,48,Woman
19,793228,DepthScenes,duration_manipulation_targetAtFixation,jsons/v1_VE1000_randls_16.json,http://54.235.29.9/FacialAge/BNav_EC2/DepthDuration/v2_depth_duration_MTurk/v2_DepthDuration_HTML.html#95,95,1276,647,1280,800,8-29-2022,9-40-38,20,depth_duration_stimuli/000469_2014-06-09_19-42-10_260595134347_rgbf000081-resize_1/000469_2014-06-09_19-42-10_260595134347_rgbf000081-resize_1-target.png,1000,1.652,8,3014,995,feet,jsons/v1_VE1000_randls_16.json,880231,1022425,48,Woman
20,793228,DepthScenes,duration_manipulation_targetAtFixation,jsons/v1_VE1000_randls_16.json,http://54.235.29.9/FacialAge/BNav_EC2/DepthDuration/v2_depth_duration_MTurk/v2_DepthDuration_HTML.html#95,95,1276,647,1280,800,8-29-2022,9-40-38,21,depth_duration_stimuli/000483_2014-06-09_20-41-45_260595134347_rgbf000116-resize_4/000483_2014-06-09_20-41-45_260595134347_rgbf000116-resize_4-target.png,1000,1.337,9,9602,999,feet,jsons/v1_VE1000_randls_16.json,880231,1022425,48,Woman
21,793228,DepthScenes,duration_manipulation_targetAtFixation,jsons/v1_VE1000_randls_16.json,http://54.235.29.9/FacialAge/BNav_EC2/DepthDuration/v2_depth_duration_MTurk/v2_DepthDuration_HTML.html#95,95,1276,647,1280,800,8-29-2022,9-40-38,22,depth_duration_stimuli/001150_2014-06-17_15-27-34_260595134347_rgbf000108-resize_2/001150_2014-06-17_15-27-34_260595134347_rgbf000108-resize_2-target.png,1000,4.0325,4,4593,998,feet,jsons/v1_VE1000_randls_16.json,880231,1022425,48,Woman
22,793228,DepthScenes,duration_manipulation_targetAtFixation,jsons/v1_VE1000_randls_16.json,http://54.235.29.9/FacialAge/BNav_EC2/DepthDuration/v2_depth_duration_MTurk/v2_DepthDuration_HTML.html#95,95,1276,647,1280,800,8-29-2022,9-40-38,23,depth_duration_stimuli/000665_2014-06-09_20-42-35_260595134347_rgbf000110-resize_1/000665_2014-06-09_20-42-35_260595134347_rgbf000110-resize_1-target.png,1000,3.057,4,4138,1025,feet,jsons/v1_VE1000_randls_16.json,880231,1022425,48,Woman
23,793228,DepthScenes,duration_manipulation_targetAtFixation,jsons/v1_VE1000_randls_16.json,http://54.235.29.9/FacialAge/BNav_EC2/DepthDuration/v2_depth_duration_MTurk/v2_DepthDuration_HTML.html#95,95,1276,647,1280,800,8-29-2022,9-40-38,24,depth_duration_stimuli/001555_2014-06-20_17-12-10_260595134347_rgbf000065-resize_4/001555_2014-06-20_17-12-10_260595134347_rgbf000065-resize_4-target.png,1000,1.633,1,7093,998,feet,jsons/v1_VE1000_randls_16.json,880231,1022425,48,Woman
24,793228,DepthScenes,duration_manipulation_targetAtFixation,jsons/v1_VE1000_randls_16.json,http://54.235.29.9/FacialAge/BNav_EC2/DepthDuration/v2_depth_duration_MTurk/v2_DepthDuration_HTML.html#95,95,1276,647,1280,800,8-29-2022,9-40-38,25,depth_duration_stimuli/000103_2014-05-14_22-01-17_260595134347_rgbf000152-resize_5/000103_2014-05-14_22-01-17_260595134347_rgbf000152-resize_5-target.png,1000,1.993,2,2797,994,feet,jsons/v1_VE1000_randls_16.json,880231,1022425,48,Woman
25,793228,DepthScenes,duration_manipulation_targetAtFixation,jsons/v1_VE1000_randls_16.json,http://54.235.29.9/FacialAge/BNav_EC2/DepthDuration/v2_depth_duration_MTurk/v2_DepthDuration_HTML.html#95,95,1276,647,1280,800,8-29-2022,9-40-38,26,depth_duration_stimuli/001016_2014-06-09_16-16-10_260595134347_rgbf000112-resize_5/001016_2014-06-09_16-16-10_260595134347_rgbf000112-resize_5-target.png,1000,1.6565,2,3831,1011,feet,jsons/v1_VE1000_randls_16.json,880231,1022425,48,Woman
26,793228,DepthScenes,duration_manipulation_targetAtFixation,jsons/v1_VE1000_randls_16.json,http://54.235.29.9/FacialAge/BNav_EC2/DepthDuration/v2_depth_duration_MTurk/v2_DepthDuration_HTML.html#95,95,1276,647,1280,800,8-29-2022,9-40-38,27,depth_duration_stimuli/002340_2014-06-28_20-05-46_260595134347_rgbf000113-resize_0/002340_2014-06-28_20-05-46_260595134347_rgbf000113-resize_0-target.png,1000,2.4735,2,2857,1009,feet,jsons/v1_VE1000_randls_16.json,880231,1022425,48,Woman
27,793228,DepthScenes,duration_manipulation_targetAtFixation,jsons/v1_VE1000_randls_16.json,http://54.235.29.9/FacialAge/BNav_EC2/DepthDuration/v2_depth_duration_MTurk/v2_DepthDuration_HTML.html#95,95,1276,647,1280,800,8-29-2022,9-40-38,28,depth_duration_stimuli/000736_2014-06-08_18-24-15_260595134347_rgbf000206-resize_3/000736_2014-06-08_18-24-15_260595134347_rgbf000206-resize_3-target.png,1000,3.515,2,3048,1000,feet,jsons/v1_VE1000_randls_16.json,880231,1022425,48,Woman
28,793228,DepthScenes,duration_manipulation_targetAtFixation,jsons/v1_VE1000_randls_16.json,http://54.235.29.9/FacialAge/BNav_EC2/DepthDuration/v2_depth_duration_MTurk/v2_DepthDuration_HTML.html#95,95,1276,647,1280,800,8-29-2022,9-40-38,29,depth_duration_stimuli/000137_2014-05-20_17-04-49_260595134347_rgbf000120-resize_1/000137_2014-05-20_17-04-49_260595134347_rgbf000120-resize_1-target.png,1000,3.786,6,2857,973,feet,jsons/v1_VE1000_randls_16.json,880231,1022425,48,Woman
29,793228,DepthScenes,duration_manipulation_targetAtFixation,jsons/v1_VE1000_randls_16.json,http://54.235.29.9/FacialAge/BNav_EC2/DepthDuration/v2_depth_duration_MTurk/v2_DepthDuration_HTML.html#95,95,1276,647,1280,800,8-29-2022,9-40-38,30,depth_duration_stimuli/000375_2014-06-08_11-17-29_260595134347_rgbf000133-resize_2/000375_2014-06-08_11-17-29_260595134347_rgbf000133-resize-original.jpg,1000,4.718,6,2969,1045,feet,jsons/v1_VE1000_randls_16.json,880231,1022425,48,Woman
30,793228,DepthScenes,duration_manipulation_targetAtFixation,jsons/v1_VE1000_randls_16.json,http://54.235.29.9/FacialAge/BNav_EC2/DepthDuration/v2_depth_duration_MTurk/v2_DepthDuration_HTML.html#95,95,1276,647,1280,800,8-29-2022,9-40-38,31,depth_duration_stimuli/002570_2014-06-24_13-59-54_094959634447_rgbf000059-resize_0/002570_2014-06-24_13-59-54_094959634447_rgbf000059-resize_0-target.png,1000,4.037,8,4450,997,feet,jsons/v1_VE1000_randls_16.json,880231,1022425,48,Woman
31,793228,DepthScenes,duration_manipulation_targetAtFixation,jsons/v1_VE1000_randls_16.json,http://54.235.29.9/FacialAge/BNav_EC2/DepthDuration/v2_depth_duration_MTurk/v2_DepthDuration_HTML.html#95,95,1276,647,1280,800,8-29-2022,9-40-38,32,depth_duration_stimuli/002467_2014-06-28_20-38-07_260595134347_rgbf000026-resize_2/002467_2014-06-28_20-38-07_260595134347_rgbf000026-resize_2-target.png,1000,4.742,8,3625,951,feet,jsons/v1_VE1000_randls_16.json,880231,1022425,48,Woman
32,793228,DepthScenes,duration_manipulation_targetAtFixation,jsons/v1_VE1000_randls_16.json,http://54.235.29.9/FacialAge/BNav_EC2/DepthDuration/v2_depth_duration_MTurk/v2_DepthDuration_HTML.html#95,95,1276,647,1280,800,8-29-2022,9-40-38,33,depth_duration_stimuli/001133_2014-06-17_14-49-16_260595134347_rgbf000100-resize_0/001133_2014-06-17_14-49-16_260595134347_rgbf000100-resize_0-target.png,1000,4.2115,8,6771,1000,feet,jsons/v1_VE1000_randls_16.json,880231,1022425,48,Woman
33,793228,DepthScenes,duration_manipulation_targetAtFixation,jsons/v1_VE1000_randls_16.json,http://54.235.29.9/FacialAge/BNav_EC2/DepthDuration/v2_depth_duration_MTurk/v2_DepthDuration_HTML.html#95,95,1276,647,1280,800,8-29-2022,9-40-38,34,depth_duration_stimuli/001132_2014-06-17_14-48-54_260595134347_rgbf000100-resize_2/001132_2014-06-17_14-48-54_260595134347_rgbf000100-resize_2-target.png,1000,3.753,7,4531,1004,feet,jsons/v1_VE1000_randls_16.json,880231,1022425,48,Woman
34,793228,DepthScenes,duration_manipulation_targetAtFixation,jsons/v1_VE1000_randls_16.json,http://54.235.29.9/FacialAge/BNav_EC2/DepthDuration/v2_depth_duration_MTurk/v2_DepthDuration_HTML.html#95,95,1276,647,1280,800,8-29-2022,9-40-38,35,depth_duration_stimuli/002272_2014-06-28_18-53-56_260595134347_rgbf000067-resize_2/002272_2014-06-28_18-53-56_260595134347_rgbf000067-resize_2-target.png,1000,1.138,7,5757,977,feet,jsons/v1_VE1000_randls_16.json,880231,1022425,48,Woman
35,793228,DepthScenes,duration_manipulation_targetAtFixation,jsons/v1_VE1000_randls_16.json,http://54.235.29.9/FacialAge/BNav_EC2/DepthDuration/v2_depth_duration_MTurk/v2_DepthDuration_HTML.html#95,95,1276,647,1280,800,8-29-2022,9-40-38,36,depth_duration_stimuli/001571_2014-06-20_17-21-32_260595134347_rgbf000089-resize_1/001571_2014-06-20_17-21-32_260595134347_rgbf000089-resize_1-target.png,1000,1.86,7,4449,997,feet,jsons/v1_VE1000_randls_16.json,880231,1022425,48,Woman
36,793228,DepthScenes,duration_manipulation_targetAtFixation,jsons/v1_VE1000_randls_16.json,http://54.235.29.9/FacialAge/BNav_EC2/DepthDuration/v2_depth_duration_MTurk/v2_DepthDuration_HTML.html#95,95,1276,647,1280,800,8-29-2022,9-40-38,37,depth_duration_stimuli/001449_2014-06-19_17-01-27_260595134347_rgbf000116-resize_2/001449_2014-06-19_17-01-27_260595134347_rgbf000116-resize_2-target.png,1000,3.452,4,3857,997,feet,jsons/v1_VE1000_randls_16.json,880231,1022425,48,Woman
37,793228,DepthScenes,duration_manipulation_targetAtFixation,jsons/v1_VE1000_randls_16.json,http://54.235.29.9/FacialAge/BNav_EC2/DepthDuration/v2_depth_duration_MTurk/v2_DepthDuration_HTML.html#95,95,1276,647,1280,800,8-29-2022,9-40-38,38,depth_duration_stimuli/001450_2014-06-19_17-02-03_260595134347_rgbf000203-resize_4/001450_2014-06-19_17-02-03_260595134347_rgbf000203-resize_4-target.png,1000,4.0106666666667,9,6595,988,feet,jsons/v1_VE1000_randls_16.json,880231,1022425,48,Woman
38,793228,DepthScenes,duration_manipulation_targetAtFixation,jsons/v1_VE1000_randls_16.json,http://54.235.29.9/FacialAge/BNav_EC2/DepthDuration/v2_depth_duration_MTurk/v2_DepthDuration_HTML.html#95,95,1276,647,1280,800,8-29-2022,9-40-38,39,depth_duration_stimuli/001059_2014-06-08_21-53-27_260595134347_rgbf000061-resize_4/001059_2014-06-08_21-53-27_260595134347_rgbf000061-resize_4-target.png,1000,2.4185,7,11567,999,feet,jsons/v1_VE1000_randls_16.json,880231,1022425,48,Woman
39,793228,DepthScenes,duration_manipulation_targetAtFixation,jsons/v1_VE1000_randls_16.json,http://54.235.29.9/FacialAge/BNav_EC2/DepthDuration/v2_depth_duration_MTurk/v2_DepthDuration_HTML.html#95,95,1276,647,1280,800,8-29-2022,9-40-38,40,depth_duration_stimuli/001032_2014-06-08_13-23-17_260595134347_rgbf000021-resize_3/001032_2014-06-08_13-23-17_260595134347_rgbf000021-resize_3-target.png,1000,3.2725,4,4490,998,feet,jsons/v1_VE1000_randls_16.json,880231,1022425,48,Woman
40,793228,DepthScenes,duration_manipulation_targetAtFixation,jsons/v1_VE1000_randls_16.json,http://54.235.29.9/FacialAge/BNav_EC2/DepthDuration/v2_depth_duration_MTurk/v2_DepthDuration_HTML.html#95,95,1276,647,1280,800,8-29-2022,9-40-38,41,depth_duration_stimuli/002788_2014-06-22_19-36-03_094959634447_rgbf000088-resize_2/002788_2014-06-22_19-36-03_094959634447_rgbf000088-resize_2-target.png,1000,1.6465,4,3729,984,feet,jsons/v1_VE1000_randls_16.json,880231,1022425,48,Woman
41,793228,DepthScenes,duration_manipulation_targetAtFixation,jsons/v1_VE1000_randls_16.json,http://54.235.29.9/FacialAge/BNav_EC2/DepthDuration/v2_depth_duration_MTurk/v2_DepthDuration_HTML.html#95,95,1276,647,1280,800,8-29-2022,9-40-38,42,depth_duration_stimuli/000749_2014-06-08_21-55-06_260595134347_rgbf000070-resize_2/000749_2014-06-08_21-55-06_260595134347_rgbf000070-resize_2-target.png,1000,2.331,7,5555,999,feet,jsons/v1_VE1000_randls_16.json,880231,1022425,48,Woman
42,793228,DepthScenes,duration_manipulation_targetAtFixation,jsons/v1_VE1000_randls_16.json,http://54.235.29.9/FacialAge/BNav_EC2/DepthDuration/v2_depth_duration_MTurk/v2_DepthDuration_HTML.html#95,95,1276,647,1280,800,8-29-2022,9-40-38,43,depth_duration_stimuli/002375_2014-06-28_20-13-44_260595134347_rgbf000032-resize_1/002375_2014-06-28_20-13-44_260595134347_rgbf000032-resize_1-target.png,1000,4.0175,9,28595,1003,feet,jsons/v1_VE1000_randls_16.json,880231,1022425,48,Woman
43,793228,DepthScenes,duration_manipulation_targetAtFixation,jsons/v1_VE1000_randls_16.json,http://54.235.29.9/FacialAge/BNav_EC2/DepthDuration/v2_depth_duration_MTurk/v2_DepthDuration_HTML.html#95,95,1276,647,1280,800,8-29-2022,9-40-38,44,depth_duration_stimuli/002657_2014-06-13_15-29-54_094959634447_rgbf000150-resize_1/002657_2014-06-13_15-29-54_094959634447_rgbf000150-resize_1-target.png,1000,4.919,3,4226,997,feet,jsons/v1_VE1000_randls_16.json,880231,1022425,48,Woman
44,793228,DepthScenes,duration_manipulation_targetAtFixation,jsons/v1_VE1000_randls_16.json,http://54.235.29.9/FacialAge/BNav_EC2/DepthDuration/v2_depth_duration_MTurk/v2_DepthDuration_HTML.html#95,95,1276,647,1280,800,8-29-2022,9-40-38,45,depth_duration_stimuli/000787_2014-06-08_22-33-53_260595134347_rgbf000175-resize_1/000787_2014-06-08_22-33-53_260595134347_rgbf000175-resize-original.jpg,1000,4.784,7,7639,1006,feet,jsons/v1_VE1000_randls_16.json,880231,1022425,48,Woman
45,793228,DepthScenes,duration_manipulation_targetAtFixation,jsons/v1_VE1000_randls_16.json,http://54.235.29.9/FacialAge/BNav_EC2/DepthDuration/v2_depth_duration_MTurk/v2_DepthDuration_HTML.html#95,95,1276,647,1280,800,8-29-2022,9-40-38,46,depth_duration_stimuli/001029_2014-06-08_13-17-57_260595134347_rgbf000065-resize_1/001029_2014-06-08_13-17-57_260595134347_rgbf000065-resize_1-target.png,1000,3.0835,4,8135,1010,feet,jsons/v1_VE1000_randls_16.json,880231,1022425,48,Woman
46,793228,DepthScenes,duration_manipulation_targetAtFixation,jsons/v1_VE1000_randls_16.json,http://54.235.29.9/FacialAge/BNav_EC2/DepthDuration/v2_depth_duration_MTurk/v2_DepthDuration_HTML.html#95,95,1276,647,1280,800,8-29-2022,9-40-38,47,depth_duration_stimuli/000677_2014-06-08_23-10-32_260595134347_rgbf000158-resize_6/000677_2014-06-08_23-10-32_260595134347_rgbf000158-resize_6-target.png,1000,3.556,3,3262,1001,feet,jsons/v1_VE1000_randls_16.json,880231,1022425,48,Woman
47,793228,DepthScenes,duration_manipulation_targetAtFixation,jsons/v1_VE1000_randls_16.json,http://54.235.29.9/FacialAge/BNav_EC2/DepthDuration/v2_depth_duration_MTurk/v2_DepthDuration_HTML.html#95,95,1276,647,1280,800,8-29-2022,9-40-38,48,depth_duration_stimuli/000810_2014-06-08_17-20-01_260595134347_rgbf000105-resize_0/000810_2014-06-08_17-20-01_260595134347_rgbf000105-resize_0-target.png,1000,1.4865,5,3018,1000,feet,jsons/v1_VE1000_randls_16.json,880231,1022425,48,Woman
48,793228,DepthScenes,duration_manipulation_targetAtFixation,jsons/v1_VE1000_randls_16.json,http://54.235.29.9/FacialAge/BNav_EC2/DepthDuration/v2_depth_duration_MTurk/v2_DepthDuration_HTML.html#95,95,1276,647,1280,800,8-29-2022,9-40-38,49,depth_duration_stimuli/001214_2014-06-17_16-13-55_260595134347_rgbf000111-resize_0/001214_2014-06-17_16-13-55_260595134347_rgbf000111-resize_0-target.png,1000,2.6505,6,3141,997,feet,jsons/v1_VE1000_randls_16.json,880231,1022425,48,Woman
49,793228,DepthScenes,duration_manipulation_targetAtFixation,jsons/v1_VE1000_randls_16.json,http://54.235.29.9/FacialAge/BNav_EC2/DepthDuration/v2_depth_duration_MTurk/v2_DepthDuration_HTML.html#95,95,1276,647,1280,800,8-29-2022,9-40-38,50,depth_duration_stimuli/003292_2014-05-14_21-53-49_094959634447_rgbf000100-resize_2/003292_2014-05-14_21-53-49_094959634447_rgbf000100-resize_2-target.png,1000,3.4815,1,3022,992,feet,jsons/v1_VE1000_randls_16.json,880231,1022425,48,Woman
50,793228,DepthScenes,duration_manipulation_targetAtFixation,jsons/v1_VE1000_randls_16.json,http://54.235.29.9/FacialAge/BNav_EC2/DepthDuration/v2_depth_duration_MTurk/v2_DepthDuration_HTML.html#95,95,1276,647,1280,800,8-29-2022,9-40-38,51,depth_duration_stimuli/002639_2014-06-24_14-51-37_094959634447_rgbf000074-resize_4/002639_2014-06-24_14-51-37_094959634447_rgbf000074-resize_4-target.png,1000,4.0375,2,5827,999,feet,jsons/v1_VE1000_randls_16.json,880231,1022425,48,Woman
51,793228,DepthScenes,duration_manipulation_targetAtFixation,jsons/v1_VE1000_randls_16.json,http://54.235.29.9/FacialAge/BNav_EC2/DepthDuration/v2_depth_duration_MTurk/v2_DepthDuration_HTML.html#95,95,1276,647,1280,800,8-29-2022,9-40-38,52,depth_duration_stimuli/002763_2014-06-22_19-13-10_094959634447_rgbf000075-resize_4/002763_2014-06-22_19-13-10_094959634447_rgbf000075-resize_4-target.png,1000,1.68375,7,3647,1001,feet,jsons/v1_VE1000_randls_16.json,880231,1022425,48,Woman
52,793228,DepthScenes,duration_manipulation_targetAtFixation,jsons/v1_VE1000_randls_16.json,http://54.235.29.9/FacialAge/BNav_EC2/DepthDuration/v2_depth_duration_MTurk/v2_DepthDuration_HTML.html#95,95,1276,647,1280,800,8-29-2022,9-40-38,53,depth_duration_stimuli/002209_2014-06-28_18-36-10_260595134347_rgbf000051-resize_1/002209_2014-06-28_18-36-10_260595134347_rgbf000051-resize_1-target.png,1000,2.057,4,2905,998,feet,jsons/v1_VE1000_randls_16.json,880231,1022425,48,Woman
53,793228,DepthScenes,duration_manipulation_targetAtFixation,jsons/v1_VE1000_randls_16.json,http://54.235.29.9/FacialAge/BNav_EC2/DepthDuration/v2_depth_duration_MTurk/v2_DepthDuration_HTML.html#95,95,1276,647,1280,800,8-29-2022,9-40-38,54,depth_duration_stimuli/001808_2014-06-26_20-50-58_260595134347_rgbf000029-resize_1/001808_2014-06-26_20-50-58_260595134347_rgbf000029-resize_1-target.png,1000,4.249,3,3051,1012,feet,jsons/v1_VE1000_randls_16.json,880231,1022425,48,Woman
54,793228,DepthScenes,duration_manipulation_targetAtFixation,jsons/v1_VE1000_randls_16.json,http://54.235.29.9/FacialAge/BNav_EC2/DepthDuration/v2_depth_duration_MTurk/v2_DepthDuration_HTML.html#95,95,1276,647,1280,800,8-29-2022,9-40-38,55,depth_duration_stimuli/001815_2014-06-26_20-52-55_260595134347_rgbf000020-resize_0/001815_2014-06-26_20-52-55_260595134347_rgbf000020-resize_0-target.png,1000,3.3865,2,3514,1010,feet,jsons/v1_VE1000_randls_16.json,880231,1022425,48,Woman
55,793228,DepthScenes,duration_manipulation_targetAtFixation,jsons/v1_VE1000_randls_16.json,http://54.235.29.9/FacialAge/BNav_EC2/DepthDuration/v2_depth_duration_MTurk/v2_DepthDuration_HTML.html#95,95,1276,647,1280,800,8-29-2022,9-40-38,56,depth_duration_stimuli/002057_2014-06-24_21-00-13_260595134347_rgbf000120-resize_1/002057_2014-06-24_21-00-13_260595134347_rgbf000120-resize_1-target.png,1000,2.967,6,4963,992,feet,jsons/v1_VE1000_randls_16.json,880231,1022425,48,Woman
56,793228,DepthScenes,duration_manipulation_targetAtFixation,jsons/v1_VE1000_randls_16.json,http://54.235.29.9/FacialAge/BNav_EC2/DepthDuration/v2_depth_duration_MTurk/v2_DepthDuration_HTML.html#95,95,1276,647,1280,800,8-29-2022,9-40-38,57,depth_duration_stimuli/000709_2014-06-08_13-51-55_260595134347_rgbf000068-resize_3/000709_2014-06-08_13-51-55_260595134347_rgbf000068-resize_3-target.png,1000,1.8030000000000002,7,4302,999,feet,jsons/v1_VE1000_randls_16.json,880231,1022425,48,Woman
57,793228,DepthScenes,duration_manipulation_targetAtFixation,jsons/v1_VE1000_randls_16.json,http://54.235.29.9/FacialAge/BNav_EC2/DepthDuration/v2_depth_duration_MTurk/v2_DepthDuration_HTML.html#95,95,1276,647,1280,800,8-29-2022,9-40-38,58,depth_duration_stimuli/000917_2014-06-09_22-45-29_260595134347_rgbf000149-resize_3/000917_2014-06-09_22-45-29_260595134347_rgbf000149-resize_3-target.png,1000,4.1865,1,4618,999,feet,jsons/v1_VE1000_randls_16.json,880231,1022425,48,Woman
58,793228,DepthScenes,duration_manipulation_targetAtFixation,jsons/v1_VE1000_randls_16.json,http://54.235.29.9/FacialAge/BNav_EC2/DepthDuration/v2_depth_duration_MTurk/v2_DepthDuration_HTML.html#95,95,1276,647,1280,800,8-29-2022,9-40-38,59,depth_duration_stimuli/002323_2014-06-28_20-01-54_260595134347_rgbf000051-resize_4/002323_2014-06-28_20-01-54_260595134347_rgbf000051-resize_4-target.png,1000,3.7310000000000003,2,2848,1005,feet,jsons/v1_VE1000_randls_16.json,880231,1022425,48,Woman
59,793228,DepthScenes,duration_manipulation_targetAtFixation,jsons/v1_VE1000_randls_16.json,http://54.235.29.9/FacialAge/BNav_EC2/DepthDuration/v2_depth_duration_MTurk/v2_DepthDuration_HTML.html#95,95,1276,647,1280,800,8-29-2022,9-40-38,60,depth_duration_stimuli/001175_2014-06-17_15-45-55_260595134347_rgbf000129-resize_4/001175_2014-06-17_15-45-55_260595134347_rgbf000129-resize_4-target.png,1000,4.255,3,3782,995,feet,jsons/v1_VE1000_randls_16.json,880231,1022425,48,Woman
60,793228,DepthScenes,duration_manipulation_targetAtFixation,jsons/v1_VE1000_randls_16.json,http://54.235.29.9/FacialAge/BNav_EC2/DepthDuration/v2_depth_duration_MTurk/v2_DepthDuration_HTML.html#95,95,1276,647,1280,800,8-29-2022,9-40-38,61,depth_duration_stimuli/003490_2014-05-21_15-50-11_094959634447_rgbf000101-resize_3/003490_2014-05-21_15-50-11_094959634447_rgbf000101-resize_3-target.png,1000,3.6445,4,2785,990,feet,jsons/v1_VE1000_randls_16.json,880231,1022425,48,Woman
61,793228,DepthScenes,duration_manipulation_targetAtFixation,jsons/v1_VE1000_randls_16.json,http://54.235.29.9/FacialAge/BNav_EC2/DepthDuration/v2_depth_duration_MTurk/v2_DepthDuration_HTML.html#95,95,1276,647,1280,800,8-29-2022,9-40-38,62,depth_duration_stimuli/000436_2014-06-09_22-25-11_260595134347_rgbf000137-resize_1/000436_2014-06-09_22-25-11_260595134347_rgbf000137-resize_1-target.png,1000,4.0705,5,3696,1001,feet,jsons/v1_VE1000_randls_16.json,880231,1022425,48,Woman
62,793228,DepthScenes,duration_manipulation_targetAtFixation,jsons/v1_VE1000_randls_16.json,http://54.235.29.9/FacialAge/BNav_EC2/DepthDuration/v2_depth_duration_MTurk/v2_DepthDuration_HTML.html#95,95,1276,647,1280,800,8-29-2022,9-40-38,63,depth_duration_stimuli/002444_2014-06-28_20-32-08_260595134347_rgbf000027-resize_0/002444_2014-06-28_20-32-08_260595134347_rgbf000027-resize_0-target.png,1000,4.388999999999999,6,3283,1001,feet,jsons/v1_VE1000_randls_16.json,880231,1022425,48,Woman
63,793228,DepthScenes,duration_manipulation_targetAtFixation,jsons/v1_VE1000_randls_16.json,http://54.235.29.9/FacialAge/BNav_EC2/DepthDuration/v2_depth_duration_MTurk/v2_DepthDuration_HTML.html#95,95,1276,647,1280,800,8-29-2022,9-40-38,64,depth_duration_stimuli/003070_2014-06-15_14-58-27_094959634447_rgbf000150-resize_3/003070_2014-06-15_14-58-27_094959634447_rgbf000150-resize_3-target.png,1000,2.9415,66,3520,981,feet,jsons/v1_VE1000_randls_16.json,880231,1022425,48,Woman
64,793228,DepthScenes,duration_manipulation_targetAtFixation,jsons/v1_VE1000_randls_16.json,http://54.235.29.9/FacialAge/BNav_EC2/DepthDuration/v2_depth_duration_MTurk/v2_DepthDuration_HTML.html#95,95,1276,647,1280,800,8-29-2022,9-40-38,65,depth_duration_stimuli/000943_2014-06-09_19-31-07_260595134347_rgbf000128-resize_1/000943_2014-06-09_19-31-07_260595134347_rgbf000128-resize_1-target.png,1000,1.9765,5,4302,998,feet,jsons/v1_VE1000_randls_16.json,880231,1022425,48,Woman
65,793228,DepthScenes,duration_manipulation_targetAtFixation,jsons/v1_VE1000_randls_16.json,http://54.235.29.9/FacialAge/BNav_EC2/DepthDuration/v2_depth_duration_MTurk/v2_DepthDuration_HTML.html#95,95,1276,647,1280,800,8-29-2022,9-40-38,66,depth_duration_stimuli/001222_2014-06-17_16-24-06_260595134347_rgbf000073-resize_0/001222_2014-06-17_16-24-06_260595134347_rgbf000073-resize-original.jpg,1000,1.4385,4,3770,999,feet,jsons/v1_VE1000_randls_16.json,880231,1022425,48,Woman
66,793228,DepthScenes,duration_manipulation_targetAtFixation,jsons/v1_VE1000_randls_16.json,http://54.235.29.9/FacialAge/BNav_EC2/DepthDuration/v2_depth_duration_MTurk/v2_DepthDuration_HTML.html#95,95,1276,647,1280,800,8-29-2022,9-40-38,67,depth_duration_stimuli/001164_2014-06-17_15-35-46_260595134347_rgbf000085-resize_3/001164_2014-06-17_15-35-46_260595134347_rgbf000085-resize_3-target.png,1000,2.354,5,3301,998,feet,jsons/v1_VE1000_randls_16.json,880231,1022425,48,Woman
67,793228,DepthScenes,duration_manipulation_targetAtFixation,jsons/v1_VE1000_randls_16.json,http://54.235.29.9/FacialAge/BNav_EC2/DepthDuration/v2_depth_duration_MTurk/v2_DepthDuration_HTML.html#95,95,1276,647,1280,800,8-29-2022,9-40-38,68,depth_duration_stimuli/001136_2014-06-17_15-19-41_260595134347_rgbf000076-resize_3/001136_2014-06-17_15-19-41_260595134347_rgbf000076-resize_3-target.png,1000,1.8655,4,2806,997,feet,jsons/v1_VE1000_randls_16.json,880231,1022425,48,Woman
68,793228,DepthScenes,duration_manipulation_targetAtFixation,jsons/v1_VE1000_randls_16.json,http://54.235.29.9/FacialAge/BNav_EC2/DepthDuration/v2_depth_duration_MTurk/v2_DepthDuration_HTML.html#95,95,1276,647,1280,800,8-29-2022,9-40-38,69,depth_duration_stimuli/000414_2014-06-04_19-49-13_260595134347_rgbf000044-resize_0/000414_2014-06-04_19-49-13_260595134347_rgbf000044-resize_0-target.png,1000,4.329,3,4387,1005,feet,jsons/v1_VE1000_randls_16.json,880231,1022425,48,Woman
69,793228,DepthScenes,duration_manipulation_targetAtFixation,jsons/v1_VE1000_randls_16.json,http://54.235.29.9/FacialAge/BNav_EC2/DepthDuration/v2_depth_duration_MTurk/v2_DepthDuration_HTML.html#95,95,1276,647,1280,800,8-29-2022,9-40-38,70,depth_duration_stimuli/003129_2014-05-12_10-48-10_094959634447_rgbf000100-resize_0/003129_2014-05-12_10-48-10_094959634447_rgbf000100-resize_0-target.png,1000,4.9305,2,3570,989,feet,jsons/v1_VE1000_randls_16.json,880231,1022425,48,Woman
70,793228,DepthScenes,duration_manipulation_targetAtFixation,jsons/v1_VE1000_randls_16.json,http://54.235.29.9/FacialAge/BNav_EC2/DepthDuration/v2_depth_duration_MTurk/v2_DepthDuration_HTML.html#95,95,1276,647,1280,800,8-29-2022,9-40-38,71,depth_duration_stimuli/001158_2014-06-17_15-32-16_260595134347_rgbf000138-resize_2/001158_2014-06-17_15-32-16_260595134347_rgbf000138-resize_2-target.png,1000,4.5315,1,5625,996,feet,jsons/v1_VE1000_randls_16.json,880231,1022425,48,Woman
71,793228,DepthScenes,duration_manipulation_targetAtFixation,jsons/v1_VE1000_randls_16.json,http://54.235.29.9/FacialAge/BNav_EC2/DepthDuration/v2_depth_duration_MTurk/v2_DepthDuration_HTML.html#95,95,1276,647,1280,800,8-29-2022,9-40-38,72,depth_duration_stimuli/000556_2014-06-09_22-42-56_260595134347_rgbf000214-resize_1/000556_2014-06-09_22-42-56_260595134347_rgbf000214-resize_1-target.png,1000,4.8415,2,4590,998,feet,jsons/v1_VE1000_randls_16.json,880231,1022425,48,Woman
72,793228,DepthScenes,duration_manipulation_targetAtFixation,jsons/v1_VE1000_randls_16.json,http://54.235.29.9/FacialAge/BNav_EC2/DepthDuration/v2_depth_duration_MTurk/v2_DepthDuration_HTML.html#95,95,1276,647,1280,800,8-29-2022,9-40-38,73,depth_duration_stimuli/001167_2014-06-17_15-38-07_260595134347_rgbf000108-resize_0/001167_2014-06-17_15-38-07_260595134347_rgbf000108-resize_0-target.png,1000,1.8505,3,2856,1000,feet,jsons/v1_VE1000_randls_16.json,880231,1022425,48,Woman
73,793228,DepthScenes,duration_manipulation_targetAtFixation,jsons/v1_VE1000_randls_16.json,http://54.235.29.9/FacialAge/BNav_EC2/DepthDuration/v2_depth_duration_MTurk/v2_DepthDuration_HTML.html#95,95,1276,647,1280,800,8-29-2022,9-40-38,74,depth_duration_stimuli/003587_2014-05-23_16-48-02_094959634447_rgbf002384-resize_2/003587_2014-05-23_16-48-02_094959634447_rgbf002384-resize_2-target.png,1000,1.357,1,3462,998,feet,jsons/v1_VE1000_randls_16.json,880231,1022425,48,Woman
74,793228,DepthScenes,duration_manipulation_targetAtFixation,jsons/v1_VE1000_randls_16.json,http://54.235.29.9/FacialAge/BNav_EC2/DepthDuration/v2_depth_duration_MTurk/v2_DepthDuration_HTML.html#95,95,1276,647,1280,800,8-29-2022,9-40-38,75,depth_duration_stimuli/000522_2014-06-08_13-35-06_260595134347_rgbf000244-resize_1/000522_2014-06-08_13-35-06_260595134347_rgbf000244-resize_1-target.png,1000,2.3715,1,3209,999,feet,jsons/v1_VE1000_randls_16.json,880231,1022425,48,Woman
75,793228,DepthScenes,duration_manipulation_targetAtFixation,jsons/v1_VE1000_randls_16.json,http://54.235.29.9/FacialAge/BNav_EC2/DepthDuration/v2_depth_duration_MTurk/v2_DepthDuration_HTML.html#95,95,1276,647,1280,800,8-29-2022,9-40-38,76,depth_duration_stimuli/002949_2014-06-26_15-57-42_094959634447_rgbf000079-resize_1/002949_2014-06-26_15-57-42_094959634447_rgbf000079-resize_1-target.png,1000,1.8915,2,2612,993,feet,jsons/v1_VE1000_randls_16.json,880231,1022425,48,Woman
76,793228,DepthScenes,duration_manipulation_targetAtFixation,jsons/v1_VE1000_randls_16.json,http://54.235.29.9/FacialAge/BNav_EC2/DepthDuration/v2_depth_duration_MTurk/v2_DepthDuration_HTML.html#95,95,1276,647,1280,800,8-29-2022,9-40-38,77,depth_duration_stimuli/000493_2014-06-09_21-01-18_260595134347_rgbf000196-resize_3/000493_2014-06-09_21-01-18_260595134347_rgbf000196-resize_3-target.png,1000,3.44,1,2870,993,feet,jsons/v1_VE1000_randls_16.json,880231,1022425,48,Woman
77,793228,DepthScenes,duration_manipulation_targetAtFixation,jsons/v1_VE1000_randls_16.json,http://54.235.29.9/FacialAge/BNav_EC2/DepthDuration/v2_depth_duration_MTurk/v2_DepthDuration_HTML.html#95,95,1276,647,1280,800,8-29-2022,9-40-38,78,depth_duration_stimuli/000191_2014-05-12_17-07-38_260595134347_rgbf000199-resize_0/000191_2014-05-12_17-07-38_260595134347_rgbf000199-resize_0-target.png,1000,3.7995,1,4450,1014,feet,jsons/v1_VE1000_randls_16.json,880231,1022425,48,Woman
78,793228,DepthScenes,duration_manipulation_targetAtFixation,jsons/v1_VE1000_randls_16.json,http://54.235.29.9/FacialAge/BNav_EC2/DepthDuration/v2_depth_duration_MTurk/v2_DepthDuration_HTML.html#95,95,1276,647,1280,800,8-29-2022,9-40-38,79,depth_duration_stimuli/000878_2014-06-08_22-52-45_260595134347_rgbf000045-resize_2/000878_2014-06-08_22-52-45_260595134347_rgbf000045-resize_2-target.png,1000,2.092,3,3907,998,feet,jsons/v1_VE1000_randls_16.json,880231,1022425,48,Woman
79,793228,DepthScenes,duration_manipulation_targetAtFixation,jsons/v1_VE1000_randls_16.json,http://54.235.29.9/FacialAge/BNav_EC2/DepthDuration/v2_depth_duration_MTurk/v2_DepthDuration_HTML.html#95,95,1276,647,1280,800,8-29-2022,9-40-38,80,depth_duration_stimuli/002953_2014-06-08_17-32-18_094959634447_rgbf000059-resize_5/002953_2014-06-08_17-32-18_094959634447_rgbf000059-resize_5-target.png,1000,1.551,4,2849,1000,feet,jsons/v1_VE1000_randls_16.json,880231,1022425,48,Woman
80,793228,DepthScenes,duration_manipulation_targetAtFixation,jsons/v1_VE1000_randls_16.json,http://54.235.29.9/FacialAge/BNav_EC2/DepthDuration/v2_depth_duration_MTurk/v2_DepthDuration_HTML.html#95,95,1276,647,1280,800,8-29-2022,9-40-38,81,depth_duration_stimuli/003492_2014-05-21_15-50-55_094959634447_rgbf000828-resize_1/003492_2014-05-21_15-50-55_094959634447_rgbf000828-resize_1-target.png,1000,4.06875,2,3354,997,feet,jsons/v1_VE1000_randls_16.json,880231,1022425,48,Woman
81,793228,DepthScenes,duration_manipulation_targetAtFixation,jsons/v1_VE1000_randls_16.json,http://54.235.29.9/FacialAge/BNav_EC2/DepthDuration/v2_depth_duration_MTurk/v2_DepthDuration_HTML.html#95,95,1276,647,1280,800,8-29-2022,9-40-38,82,depth_duration_stimuli/002568_2014-06-24_13-59-21_094959634447_rgbf000062-resize_4/002568_2014-06-24_13-59-21_094959634447_rgbf000062-resize_4-target.png,1000,3.015,5,3111,995,feet,jsons/v1_VE1000_randls_16.json,880231,1022425,48,Woman
82,793228,DepthScenes,duration_manipulation_targetAtFixation,jsons/v1_VE1000_randls_16.json,http://54.235.29.9/FacialAge/BNav_EC2/DepthDuration/v2_depth_duration_MTurk/v2_DepthDuration_HTML.html#95,95,1276,647,1280,800,8-29-2022,9-40-38,83,depth_duration_stimuli/000682_2014-06-08_23-14-58_260595134347_rgbf000041-resize_5/000682_2014-06-08_23-14-58_260595134347_rgbf000041-resize_5-target.png,1000,2.7239999999999998,7,3251,987,feet,jsons/v1_VE1000_randls_16.json,880231,1022425,48,Woman
83,793228,DepthScenes,duration_manipulation_targetAtFixation,jsons/v1_VE1000_randls_16.json,http://54.235.29.9/FacialAge/BNav_EC2/DepthDuration/v2_depth_duration_MTurk/v2_DepthDuration_HTML.html#95,95,1276,647,1280,800,8-29-2022,9-40-38,84,depth_duration_stimuli/001650_2014-06-20_12-09-00_260595134347_rgbf000087-resize_3/001650_2014-06-20_12-09-00_260595134347_rgbf000087-resize_3-target.png,1000,1.9505,8,3589,995,feet,jsons/v1_VE1000_randls_16.json,880231,1022425,48,Woman
84,793228,DepthScenes,duration_manipulation_targetAtFixation,jsons/v1_VE1000_randls_16.json,http://54.235.29.9/FacialAge/BNav_EC2/DepthDuration/v2_depth_duration_MTurk/v2_DepthDuration_HTML.html#95,95,1276,647,1280,800,8-29-2022,9-40-38,85,depth_duration_stimuli/001570_2014-06-20_17-21-09_260595134347_rgbf000135-resize_4/001570_2014-06-20_17-21-09_260595134347_rgbf000135-resize_4-target.png,1000,4.467,9,4652,985,feet,jsons/v1_VE1000_randls_16.json,880231,1022425,48,Woman
85,793228,DepthScenes,duration_manipulation_targetAtFixation,jsons/v1_VE1000_randls_16.json,http://54.235.29.9/FacialAge/BNav_EC2/DepthDuration/v2_depth_duration_MTurk/v2_DepthDuration_HTML.html#95,95,1276,647,1280,800,8-29-2022,9-40-38,86,depth_duration_stimuli/001392_2014-06-19_16-07-59_260595134347_rgbf000046-resize_1/001392_2014-06-19_16-07-59_260595134347_rgbf000046-resize_1-target.png,1000,4.135,1,4203,1002,feet,jsons/v1_VE1000_randls_16.json,880231,1022425,48,Woman
86,793228,DepthScenes,duration_manipulation_targetAtFixation,jsons/v1_VE1000_randls_16.json,http://54.235.29.9/FacialAge/BNav_EC2/DepthDuration/v2_depth_duration_MTurk/v2_DepthDuration_HTML.html#95,95,1276,647,1280,800,8-29-2022,9-40-38,87,depth_duration_stimuli/000447_2014-06-08_16-15-46_260595134347_rgbf000130-resize_1/000447_2014-06-08_16-15-46_260595134347_rgbf000130-resize_1-target.png,1000,4.479,3,4085,1002,feet,jsons/v1_VE1000_randls_16.json,880231,1022425,48,Woman
87,793228,DepthScenes,duration_manipulation_targetAtFixation,jsons/v1_VE1000_randls_16.json,http://54.235.29.9/FacialAge/BNav_EC2/DepthDuration/v2_depth_duration_MTurk/v2_DepthDuration_HTML.html#95,95,1276,647,1280,800,8-29-2022,9-40-38,88,depth_duration_stimuli/001447_2014-06-19_17-00-32_260595134347_rgbf000082-resize_5/001447_2014-06-19_17-00-32_260595134347_rgbf000082-resize_5-target.png,1000,4.13775,4,5231,1010,feet,jsons/v1_VE1000_randls_16.json,880231,1022425,48,Woman
88,793228,DepthScenes,duration_manipulation_targetAtFixation,jsons/v1_VE1000_randls_16.json,http://54.235.29.9/FacialAge/BNav_EC2/DepthDuration/v2_depth_duration_MTurk/v2_DepthDuration_HTML.html#95,95,1276,647,1280,800,8-29-2022,9-40-38,89,depth_duration_stimuli/001199_2014-06-17_16-03-48_260595134347_rgbf000077-resize_0/001199_2014-06-17_16-03-48_260595134347_rgbf000077-resize_0-target.png,1000,3.4375,3,3112,1004,feet,jsons/v1_VE1000_randls_16.json,880231,1022425,48,Woman
89,793228,DepthScenes,duration_manipulation_targetAtFixation,jsons/v1_VE1000_randls_16.json,http://54.235.29.9/FacialAge/BNav_EC2/DepthDuration/v2_depth_duration_MTurk/v2_DepthDuration_HTML.html#95,95,1276,647,1280,800,8-29-2022,9-40-38,90,depth_duration_stimuli/000502_2014-06-08_23-02-32_260595134347_rgbf000063-resize_4/000502_2014-06-08_23-02-32_260595134347_rgbf000063-resize_4-target.png,1000,2.431,6,5812,1001,feet,jsons/v1_VE1000_randls_16.json,880231,1022425,48,Woman
90,793228,DepthScenes,duration_manipulation_targetAtFixation,jsons/v1_VE1000_randls_16.json,http://54.235.29.9/FacialAge/BNav_EC2/DepthDuration/v2_depth_duration_MTurk/v2_DepthDuration_HTML.html#95,95,1276,647,1280,800,8-29-2022,9-40-38,91,depth_duration_stimuli/000368_2014-06-09_15-53-01_260595134347_rgbf000155-resize_2/000368_2014-06-09_15-53-01_260595134347_rgbf000155-resize_2-target.png,1000,2.4859999999999998,8,4604,1074,feet,jsons/v1_VE1000_randls_16.json,880231,1022425,48,Woman
91,793228,DepthScenes,duration_manipulation_targetAtFixation,jsons/v1_VE1000_randls_16.json,http://54.235.29.9/FacialAge/BNav_EC2/DepthDuration/v2_depth_duration_MTurk/v2_DepthDuration_HTML.html#95,95,1276,647,1280,800,8-29-2022,9-40-38,92,depth_duration_stimuli/002678_2014-06-13_16-15-32_094959634447_rgbf000151-resize_6/002678_2014-06-13_16-15-32_094959634447_rgbf000151-resize_6-target.png,1000,2.1830000000000003,8,5356,994,feet,jsons/v1_VE1000_randls_16.json,880231,1022425,48,Woman
92,793228,DepthScenes,duration_manipulation_targetAtFixation,jsons/v1_VE1000_randls_16.json,http://54.235.29.9/FacialAge/BNav_EC2/DepthDuration/v2_depth_duration_MTurk/v2_DepthDuration_HTML.html#95,95,1276,647,1280,800,8-29-2022,9-40-38,93,depth_duration_stimuli/001244_2014-06-17_16-47-45_260595134347_rgbf000030-resize_4/001244_2014-06-17_16-47-45_260595134347_rgbf000030-resize_4-target.png,1000,2.0425,6,4098,997,feet,jsons/v1_VE1000_randls_16.json,880231,1022425,48,Woman
93,793228,DepthScenes,duration_manipulation_targetAtFixation,jsons/v1_VE1000_randls_16.json,http://54.235.29.9/FacialAge/BNav_EC2/DepthDuration/v2_depth_duration_MTurk/v2_DepthDuration_HTML.html#95,95,1276,647,1280,800,8-29-2022,9-40-38,94,depth_duration_stimuli/003495_2014-05-21_16-01-51_094959634447_rgbf000100-resize_3/003495_2014-05-21_16-01-51_094959634447_rgbf000100-resize_3-target.png,1000,1.6255,9,4533,999,feet,jsons/v1_VE1000_randls_16.json,880231,1022425,48,Woman
94,793228,DepthScenes,duration_manipulation_targetAtFixation,jsons/v1_VE1000_randls_16.json,http://54.235.29.9/FacialAge/BNav_EC2/DepthDuration/v2_depth_duration_MTurk/v2_DepthDuration_HTML.html#95,95,1276,647,1280,800,8-29-2022,9-40-38,95,depth_duration_stimuli/002039_2014-06-24_20-22-38_260595134347_rgbf000084-resize_1/002039_2014-06-24_20-22-38_260595134347_rgbf000084-resize_1-target.png,1000,4.408,7,4757,963,feet,jsons/v1_VE1000_randls_16.json,880231,1022425,48,Woman
95,793228,DepthScenes,duration_manipulation_targetAtFixation,jsons/v1_VE1000_randls_16.json,http://54.235.29.9/FacialAge/BNav_EC2/DepthDuration/v2_depth_duration_MTurk/v2_DepthDuration_HTML.html#95,95,1276,647,1280,800,8-29-2022,9-40-38,96,depth_duration_stimuli/002103_2014-06-25_20-00-40_260595134347_rgbf000049-resize_0/002103_2014-06-25_20-00-40_260595134347_rgbf000049-resize_0-target.png,1000,4.105,4,3016,996,feet,jsons/v1_VE1000_randls_16.json,880231,1022425,48,Woman
96,793228,DepthScenes,duration_manipulation_targetAtFixation,jsons/v1_VE1000_randls_16.json,http://54.235.29.9/FacialAge/BNav_EC2/DepthDuration/v2_depth_duration_MTurk/v2_DepthDuration_HTML.html#95,95,1276,647,1280,800,8-29-2022,9-40-38,97,depth_duration_stimuli/002988_2014-06-15_12-24-20_094959634447_rgbf000150-resize_1/002988_2014-06-15_12-24-20_094959634447_rgbf000150-resize_1-target.png,1000,4.7669999999999995,5,6535,985,feet,jsons/v1_VE1000_randls_16.json,880231,1022425,48,Woman
97,793228,DepthScenes,duration_manipulation_targetAtFixation,jsons/v1_VE1000_randls_16.json,http://54.235.29.9/FacialAge/BNav_EC2/DepthDuration/v2_depth_duration_MTurk/v2_DepthDuration_HTML.html#95,95,1276,647,1280,800,8-29-2022,9-40-38,98,depth_duration_stimuli/001052_2014-06-08_18-24-54_260595134347_rgbf000130-resize_1/001052_2014-06-08_18-24-54_260595134347_rgbf000130-resize_1-target.png,1000,4.1045,3,3049,1007,feet,jsons/v1_VE1000_randls_16.json,880231,1022425,48,Woman
98,793228,DepthScenes,duration_manipulation_targetAtFixation,jsons/v1_VE1000_randls_16.json,http://54.235.29.9/FacialAge/BNav_EC2/DepthDuration/v2_depth_duration_MTurk/v2_DepthDuration_HTML.html#95,95,1276,647,1280,800,8-29-2022,9-40-38,99,depth_duration_stimuli/001540_2014-06-20_17-01-05_260595134347_rgbf000086-resize_2/001540_2014-06-20_17-01-05_260595134347_rgbf000086-resize-original.jpg,1000,1.459,5,4264,1006,feet,jsons/v1_VE1000_randls_16.json,880231,1022425,48,Woman
99,793228,DepthScenes,duration_manipulation_targetAtFixation,jsons/v1_VE1000_randls_16.json,http://54.235.29.9/FacialAge/BNav_EC2/DepthDuration/v2_depth_duration_MTurk/v2_DepthDuration_HTML.html#95,95,1276,647,1280,800,8-29-2022,9-40-38,100,depth_duration_stimuli/000470_2014-06-09_19-42-40_260595134347_rgbf000094-resize_1/000470_2014-06-09_19-42-40_260595134347_rgbf000094-resize_1-target.png,1000,1.831,3,2988,1002,feet,jsons/v1_VE1000_randls_16.json,880231,1022425,48,Woman
100,793228,DepthScenes,duration_manipulation_targetAtFixation,jsons/v1_VE1000_randls_16.json,http://54.235.29.9/FacialAge/BNav_EC2/DepthDuration/v2_depth_duration_MTurk/v2_DepthDuration_HTML.html#95,95,1276,647,1280,800,8-29-2022,9-40-38,101,depth_duration_stimuli/000109_2014-05-14_23-41-52_260595134347_rgbf000035-resize_9/000109_2014-05-14_23-41-52_260595134347_rgbf000035-resize_9-target.png,1000,1.3545,4,2600,998,feet,jsons/v1_VE1000_randls_16.json,880231,1022425,48,Woman
101,793228,DepthScenes,duration_manipulation_targetAtFixation,jsons/v1_VE1000_randls_16.json,http://54.235.29.9/FacialAge/BNav_EC2/DepthDuration/v2_depth_duration_MTurk/v2_DepthDuration_HTML.html#95,95,1276,647,1280,800,8-29-2022,9-40-38,102,depth_duration_stimuli/001806_2014-06-26_20-50-20_260595134347_rgbf000091-resize_1/001806_2014-06-26_20-50-20_260595134347_rgbf000091-resize_1-target.png,1000,2.7305,6,2636,1001,feet,jsons/v1_VE1000_randls_16.json,880231,1022425,48,Woman
102,793228,DepthScenes,duration_manipulation_targetAtFixation,jsons/v1_VE1000_randls_16.json,http://54.235.29.9/FacialAge/BNav_EC2/DepthDuration/v2_depth_duration_MTurk/v2_DepthDuration_HTML.html#95,95,1276,647,1280,800,8-29-2022,9-40-38,103,depth_duration_stimuli/001617_2014-06-20_11-35-32_260595134347_rgbf000066-resize_1/001617_2014-06-20_11-35-32_260595134347_rgbf000066-resize_1-target.png,1000,3.7910000000000004,2,3142,1099,feet,jsons/v1_VE1000_randls_16.json,880231,1022425,48,Woman
103,793228,DepthScenes,duration_manipulation_targetAtFixation,jsons/v1_VE1000_randls_16.json,http://54.235.29.9/FacialAge/BNav_EC2/DepthDuration/v2_depth_duration_MTurk/v2_DepthDuration_HTML.html#95,95,1276,647,1280,800,8-29-2022,9-40-38,104,depth_duration_stimuli/000929_2014-06-09_16-33-19_260595134347_rgbf000139-resize_0/000929_2014-06-09_16-33-19_260595134347_rgbf000139-resize_0-target.png,1000,2.8680000000000003,4,2922,1002,feet,jsons/v1_VE1000_randls_16.json,880231,1022425,48,Woman
104,793228,DepthScenes,duration_manipulation_targetAtFixation,jsons/v1_VE1000_randls_16.json,http://54.235.29.9/FacialAge/BNav_EC2/DepthDuration/v2_depth_duration_MTurk/v2_DepthDuration_HTML.html#95,95,1276,647,1280,800,8-29-2022,9-40-38,105,depth_duration_stimuli/000457_2014-06-08_16-52-43_260595134347_rgbf000199-resize_1/000457_2014-06-08_16-52-43_260595134347_rgbf000199-resize_1-target.png,1000,3.6489999999999996,5,2556,1009,feet,jsons/v1_VE1000_randls_16.json,880231,1022425,48,Woman
105,793228,DepthScenes,duration_manipulation_targetAtFixation,jsons/v1_VE1000_randls_16.json,http://54.235.29.9/FacialAge/BNav_EC2/DepthDuration/v2_depth_duration_MTurk/v2_DepthDuration_HTML.html#95,95,1276,647,1280,800,8-29-2022,9-40-38,106,depth_duration_stimuli/002989_2014-06-15_12-25-03_094959634447_rgbf000150-resize_3/002989_2014-06-15_12-25-03_094959634447_rgbf000150-resize_3-target.png,1000,4.1975,6,5000,1013,feet,jsons/v1_VE1000_randls_16.json,880231,1022425,48,Woman
106,793228,DepthScenes,duration_manipulation_targetAtFixation,jsons/v1_VE1000_randls_16.json,http://54.235.29.9/FacialAge/BNav_EC2/DepthDuration/v2_depth_duration_MTurk/v2_DepthDuration_HTML.html#95,95,1276,647,1280,800,8-29-2022,9-40-38,107,depth_duration_stimuli/000866_2014-06-09_20-45-42_260595134347_rgbf000139-resize_1/000866_2014-06-09_20-45-42_260595134347_rgbf000139-resize_1-target.png,1000,3.2155,6,2641,1002,feet,jsons/v1_VE1000_randls_16.json,880231,1022425,48,Woman
107,793228,DepthScenes,duration_manipulation_targetAtFixation,jsons/v1_VE1000_randls_16.json,http://54.235.29.9/FacialAge/BNav_EC2/DepthDuration/v2_depth_duration_MTurk/v2_DepthDuration_HTML.html#95,95,1276,647,1280,800,8-29-2022,9-40-38,108,depth_duration_stimuli/002279_2014-06-28_18-55-32_260595134347_rgbf000040-resize_5/002279_2014-06-28_18-55-32_260595134347_rgbf000040-resize_5-target.png,1000,1.5043333333333,7,2725,997,feet,jsons/v1_VE1000_randls_16.json,880231,1022425,48,Woman
108,793228,DepthScenes,duration_manipulation_targetAtFixation,jsons/v1_VE1000_randls_16.json,http://54.235.29.9/FacialAge/BNav_EC2/DepthDuration/v2_depth_duration_MTurk/v2_DepthDuration_HTML.html#95,95,1276,647,1280,800,8-29-2022,9-40-38,109,depth_duration_stimuli/000635_2014-06-08_16-38-42_260595134347_rgbf000106-resize_1/000635_2014-06-08_16-38-42_260595134347_rgbf000106-resize_1-target.png,1000,2.074,6,2901,998,feet,jsons/v1_VE1000_randls_16.json,880231,1022425,48,Woman
109,793228,DepthScenes,duration_manipulation_targetAtFixation,jsons/v1_VE1000_randls_16.json,http://54.235.29.9/FacialAge/BNav_EC2/DepthDuration/v2_depth_duration_MTurk/v2_DepthDuration_HTML.html#95,95,1276,647,1280,800,8-29-2022,9-40-38,110,depth_duration_stimuli/000739_2014-06-08_18-45-58_260595134347_rgbf000068-resize_1/000739_2014-06-08_18-45-58_260595134347_rgbf000068-resize_1-target.png,1000,3.534,7,2745,998,feet,jsons/v1_VE1000_randls_16.json,880231,1022425,48,Woman
110,793228,DepthScenes,duration_manipulation_targetAtFixation,jsons/v1_VE1000_randls_16.json,http://54.235.29.9/FacialAge/BNav_EC2/DepthDuration/v2_depth_duration_MTurk/v2_DepthDuration_HTML.html#95,95,1276,647,1280,800,8-29-2022,9-40-38,111,depth_duration_stimuli/000734_2014-06-08_17-39-11_260595134347_rgbf000128-resize_2/000734_2014-06-08_17-39-11_260595134347_rgbf000128-resize_2-target.png,1000,4.098,8,3381,1032,feet,jsons/v1_VE1000_randls_16.json,880231,1022425,48,Woman
111,793228,DepthScenes,duration_manipulation_targetAtFixation,jsons/v1_VE1000_randls_16.json,http://54.235.29.9/FacialAge/BNav_EC2/DepthDuration/v2_depth_duration_MTurk/v2_DepthDuration_HTML.html#95,95,1276,647,1280,800,8-29-2022,9-40-38,112,depth_duration_stimuli/002043_2014-06-24_20-29-38_260595134347_rgbf000039-resize_4/002043_2014-06-24_20-29-38_260595134347_rgbf000039-resize_4-target.png,1000,2.8435,6,3233,1001,feet,jsons/v1_VE1000_randls_16.json,880231,1022425,48,Woman
112,793228,DepthScenes,duration_manipulation_targetAtFixation,jsons/v1_VE1000_randls_16.json,http://54.235.29.9/FacialAge/BNav_EC2/DepthDuration/v2_depth_duration_MTurk/v2_DepthDuration_HTML.html#95,95,1276,647,1280,800,8-29-2022,9-40-38,113,depth_duration_stimuli/003048_2014-06-15_13-49-43_094959634447_rgbf000150-resize_1/003048_2014-06-15_13-49-43_094959634447_rgbf000150-resize_1-target.png,1000,4.0035,5,3153,1000,feet,jsons/v1_VE1000_randls_16.json,880231,1022425,48,Woman
113,793228,DepthScenes,duration_manipulation_targetAtFixation,jsons/v1_VE1000_randls_16.json,http://54.235.29.9/FacialAge/BNav_EC2/DepthDuration/v2_depth_duration_MTurk/v2_DepthDuration_HTML.html#95,95,1276,647,1280,800,8-29-2022,9-40-38,114,depth_duration_stimuli/003534_2014-05-22_15-06-10_094959634447_rgbf000102-resize_4/003534_2014-05-22_15-06-10_094959634447_rgbf000102-resize_4-target.png,1000,1.426,6,2661,997,feet,jsons/v1_VE1000_randls_16.json,880231,1022425,48,Woman
114,793228,DepthScenes,duration_manipulation_targetAtFixation,jsons/v1_VE1000_randls_16.json,http://54.235.29.9/FacialAge/BNav_EC2/DepthDuration/v2_depth_duration_MTurk/v2_DepthDuration_HTML.html#95,95,1276,647,1280,800,8-29-2022,9-40-38,115,depth_duration_stimuli/002637_2014-06-24_14-51-13_094959634447_rgbf000066-resize_4/002637_2014-06-24_14-51-13_094959634447_rgbf000066-resize_4-target.png,1000,1.9955,21,3060,1000,feet,jsons/v1_VE1000_randls_16.json,880231,1022425,48,Woman
115,793228,DepthScenes,duration_manipulation_targetAtFixation,jsons/v1_VE1000_randls_16.json,http://54.235.29.9/FacialAge/BNav_EC2/DepthDuration/v2_depth_duration_MTurk/v2_DepthDuration_HTML.html#95,95,1276,647,1280,800,8-29-2022,9-40-38,116,depth_duration_stimuli/001170_2014-06-17_15-43-44_260595134347_rgbf000096-resize_6/001170_2014-06-17_15-43-44_260595134347_rgbf000096-resize-original.jpg,1000,1.1909999999999998,45,3603,1033,feet,jsons/v1_VE1000_randls_16.json,880231,1022425,48,Woman
116,793228,DepthScenes,duration_manipulation_targetAtFixation,jsons/v1_VE1000_randls_16.json,http://54.235.29.9/FacialAge/BNav_EC2/DepthDuration/v2_depth_duration_MTurk/v2_DepthDuration_HTML.html#95,95,1276,647,1280,800,8-29-2022,9-40-38,117,depth_duration_stimuli/002153_2014-06-25_21-27-18_260595134347_rgbf000038-resize_5/002153_2014-06-25_21-27-18_260595134347_rgbf000038-resize_5-target.png,1000,2.505,54,2607,998,feet,jsons/v1_VE1000_randls_16.json,880231,1022425,48,Woman
117,793228,DepthScenes,duration_manipulation_targetAtFixation,jsons/v1_VE1000_randls_16.json,http://54.235.29.9/FacialAge/BNav_EC2/DepthDuration/v2_depth_duration_MTurk/v2_DepthDuration_HTML.html#95,95,1276,647,1280,800,8-29-2022,9-40-38,118,depth_duration_stimuli/002660_2014-06-13_15-44-18_094959634447_rgbf001878-resize_2/002660_2014-06-13_15-44-18_094959634447_rgbf001878-resize_2-target.png,1000,3.576,43,3388,999,feet,jsons/v1_VE1000_randls_16.json,880231,1022425,48,Woman
118,793228,DepthScenes,duration_manipulation_targetAtFixation,jsons/v1_VE1000_randls_16.json,http://54.235.29.9/FacialAge/BNav_EC2/DepthDuration/v2_depth_duration_MTurk/v2_DepthDuration_HTML.html#95,95,1276,647,1280,800,8-29-2022,9-40-38,119,depth_duration_stimuli/001066_2014-06-08_22-03-20_260595134347_rgbf000066-resize_4/001066_2014-06-08_22-03-20_260595134347_rgbf000066-resize_4-target.png,1000,4.2330000000000005,23,3456,1000,feet,jsons/v1_VE1000_randls_16.json,880231,1022425,48,Woman
119,793228,DepthScenes,duration_manipulation_targetAtFixation,jsons/v1_VE1000_randls_16.json,http://54.235.29.9/FacialAge/BNav_EC2/DepthDuration/v2_depth_duration_MTurk/v2_DepthDuration_HTML.html#95,95,1276,647,1280,800,8-29-2022,9-40-38,120,depth_duration_stimuli/000742_2014-06-08_18-48-09_260595134347_rgbf000164-resize_4/000742_2014-06-08_18-48-09_260595134347_rgbf000164-resize_4-target.png,1000,4.632,6,3619,1011,feet,jsons/v1_VE1000_randls_16.json,880231,1022425,48,Woman
120,793228,DepthScenes,duration_manipulation_targetAtFixation,jsons/v1_VE1000_randls_16.json,http://54.235.29.9/FacialAge/BNav_EC2/DepthDuration/v2_depth_duration_MTurk/v2_DepthDuration_HTML.html#95,95,1276,647,1280,800,8-29-2022,9-40-38,121,depth_duration_stimuli/001092_2014-06-15_17-34-58_260595134347_rgbf000171-resize_3/001092_2014-06-15_17-34-58_260595134347_rgbf000171-resize_3-target.png,1000,2.6935,45,4464,968,feet,jsons/v1_VE1000_randls_16.json,880231,1022425,48,Woman
121,793228,DepthScenes,duration_manipulation_targetAtFixation,jsons/v1_VE1000_randls_16.json,http://54.235.29.9/FacialAge/BNav_EC2/DepthDuration/v2_depth_duration_MTurk/v2_DepthDuration_HTML.html#95,95,1276,647,1280,800,8-29-2022,9-40-38,122,depth_duration_stimuli/002545_2014-06-24_13-38-53_094959634447_rgbf000080-resize_4/002545_2014-06-24_13-38-53_094959634447_rgbf000080-resize_4-target.png,1000,1.9205,23,2914,1009,feet,jsons/v1_VE1000_randls_16.json,880231,1022425,48,Woman
122,793228,DepthScenes,duration_manipulation_targetAtFixation,jsons/v1_VE1000_randls_16.json,http://54.235.29.9/FacialAge/BNav_EC2/DepthDuration/v2_depth_duration_MTurk/v2_DepthDuration_HTML.html#95,95,1276,647,1280,800,8-29-2022,9-40-38,123,depth_duration_stimuli/002964_2014-06-08_17-46-11_094959634447_rgbf000091-resize_4/002964_2014-06-08_17-46-11_094959634447_rgbf000091-resize_4-target.png,1000,1.6909999999999998,45,3639,1003,feet,jsons/v1_VE1000_randls_16.json,880231,1022425,48,Woman
123,793228,DepthScenes,duration_manipulation_targetAtFixation,jsons/v1_VE1000_randls_16.json,http://54.235.29.9/FacialAge/BNav_EC2/DepthDuration/v2_depth_duration_MTurk/v2_DepthDuration_HTML.html#95,95,1276,647,1280,800,8-29-2022,9-40-38,124,depth_duration_stimuli/002136_2014-06-25_21-18-03_260595134347_rgbf000109-resize_3/002136_2014-06-25_21-18-03_260595134347_rgbf000109-resize_3-target.png,1000,1.9569999999999999,76,4261,999,feet,jsons/v1_VE1000_randls_16.json,880231,1022425,48,Woman
124,793228,DepthScenes,duration_manipulation_targetAtFixation,jsons/v1_VE1000_randls_16.json,http://54.235.29.9/FacialAge/BNav_EC2/DepthDuration/v2_depth_duration_MTurk/v2_DepthDuration_HTML.html#95,95,1276,647,1280,800,8-29-2022,9-40-38,125,depth_duration_stimuli/001055_2014-06-08_18-45-35_260595134347_rgbf000111-resize_4/001055_2014-06-08_18-45-35_260595134347_rgbf000111-resize_4-target.png,1000,2.4290000000000003,76,3616,1000,feet,jsons/v1_VE1000_randls_16.json,880231,1022425,48,Woman
125,793228,DepthScenes,duration_manipulation_targetAtFixation,jsons/v1_VE1000_randls_16.json,http://54.235.29.9/FacialAge/BNav_EC2/DepthDuration/v2_depth_duration_MTurk/v2_DepthDuration_HTML.html#95,95,1276,647,1280,800,8-29-2022,9-40-38,126,depth_duration_stimuli/000549_2014-06-08_22-10-24_260595134347_rgbf000247-resize_3/000549_2014-06-08_22-10-24_260595134347_rgbf000247-resize_3-target.png,1000,1.841,65,3745,932,feet,jsons/v1_VE1000_randls_16.json,880231,1022425,48,Woman
126,793228,DepthScenes,duration_manipulation_targetAtFixation,jsons/v1_VE1000_randls_16.json,http://54.235.29.9/FacialAge/BNav_EC2/DepthDuration/v2_depth_duration_MTurk/v2_DepthDuration_HTML.html#95,95,1276,647,1280,800,8-29-2022,9-40-38,127,depth_duration_stimuli/001011_2014-06-08_23-18-54_260595134347_rgbf000044-resize_4/001011_2014-06-08_23-18-54_260595134347_rgbf000044-resize_4-target.png,1000,2.4730000000000003,87,3631,986,feet,jsons/v1_VE1000_randls_16.json,880231,1022425,48,Woman
127,793228,DepthScenes,duration_manipulation_targetAtFixation,jsons/v1_VE1000_randls_16.json,http://54.235.29.9/FacialAge/BNav_EC2/DepthDuration/v2_depth_duration_MTurk/v2_DepthDuration_HTML.html#95,95,1276,647,1280,800,8-29-2022,9-40-38,128,depth_duration_stimuli/002875_2014-06-01_15-19-00_094959634447_rgbf000151-resize_1/002875_2014-06-01_15-19-00_094959634447_rgbf000151-resize_1-target.png,1000,1.9675,65,3799,999,feet,jsons/v1_VE1000_randls_16.json,880231,1022425,48,Woman
128,793228,DepthScenes,duration_manipulation_targetAtFixation,jsons/v1_VE1000_randls_16.json,http://54.235.29.9/FacialAge/BNav_EC2/DepthDuration/v2_depth_duration_MTurk/v2_DepthDuration_HTML.html#95,95,1276,647,1280,800,8-29-2022,9-40-38,129,depth_duration_stimuli/002784_2014-06-22_19-26-30_094959634447_rgbf000083-resize_3/002784_2014-06-22_19-26-30_094959634447_rgbf000083-resize_3-target.png,1000,1.8046666666667,56,3212,985,feet,jsons/v1_VE1000_randls_16.json,880231,1022425,48,Woman
129,793228,DepthScenes,duration_manipulation_targetAtFixation,jsons/v1_VE1000_randls_16.json,http://54.235.29.9/FacialAge/BNav_EC2/DepthDuration/v2_depth_duration_MTurk/v2_DepthDuration_HTML.html#95,95,1276,647,1280,800,8-29-2022,9-40-38,130,depth_duration_stimuli/001100_2014-06-15_17-46-26_260595134347_rgbf000225-resize_2/001100_2014-06-15_17-46-26_260595134347_rgbf000225-resize_2-target.png,1000,2.24,56,3066,989,feet,jsons/v1_VE1000_randls_16.json,880231,1022425,48,Woman
130,793228,DepthScenes,duration_manipulation_targetAtFixation,jsons/v1_VE1000_randls_16.json,http://54.235.29.9/FacialAge/BNav_EC2/DepthDuration/v2_depth_duration_MTurk/v2_DepthDuration_HTML.html#95,95,1276,647,1280,800,8-29-2022,9-40-38,131,depth_duration_stimuli/001056_2014-06-08_18-46-44_260595134347_rgbf000068-resize_0/001056_2014-06-08_18-46-44_260595134347_rgbf000068-resize_0-target.png,1000,2.6625,54,3337,988,feet,jsons/v1_VE1000_randls_16.json,880231,1022425,48,Woman
131,793228,DepthScenes,duration_manipulation_targetAtFixation,jsons/v1_VE1000_randls_16.json,http://54.235.29.9/FacialAge/BNav_EC2/DepthDuration/v2_depth_duration_MTurk/v2_DepthDuration_HTML.html#95,95,1276,647,1280,800,8-29-2022,9-40-38,132,depth_duration_stimuli/002199_2014-06-28_18-33-56_260595134347_rgbf000074-resize_0/002199_2014-06-28_18-33-56_260595134347_rgbf000074-resize_0-target.png,1000,1.996,56,4081,998,feet,jsons/v1_VE1000_randls_16.json,880231,1022425,48,Woman
132,793228,DepthScenes,duration_manipulation_targetAtFixation,jsons/v1_VE1000_randls_16.json,http://54.235.29.9/FacialAge/BNav_EC2/DepthDuration/v2_depth_duration_MTurk/v2_DepthDuration_HTML.html#95,95,1276,647,1280,800,8-29-2022,9-40-38,133,depth_duration_stimuli/002509_2014-06-24_13-19-22_094959634447_rgbf000077-resize_0/002509_2014-06-24_13-19-22_094959634447_rgbf000077-resize_0-target.png,1000,1.3065,8,11697,1010,feet,jsons/v1_VE1000_randls_16.json,880231,1022425,48,Woman
133,793228,DepthScenes,duration_manipulation_targetAtFixation,jsons/v1_VE1000_randls_16.json,http://54.235.29.9/FacialAge/BNav_EC2/DepthDuration/v2_depth_duration_MTurk/v2_DepthDuration_HTML.html#95,95,1276,647,1280,800,8-29-2022,9-40-38,134,depth_duration_stimuli/003338_2014-05-20_11-01-23_094959634447_rgbf000051-resize_6/003338_2014-05-20_11-01-23_094959634447_rgbf000051-resize_6-target.png,1000,1.693,7,4049,998,feet,jsons/v1_VE1000_randls_16.json,880231,1022425,48,Woman
134,793228,DepthScenes,duration_manipulation_targetAtFixation,jsons/v1_VE1000_randls_16.json,http://54.235.29.9/FacialAge/BNav_EC2/DepthDuration/v2_depth_duration_MTurk/v2_DepthDuration_HTML.html#95,95,1276,647,1280,800,8-29-2022,9-40-38,135,depth_duration_stimuli/002072_2014-06-24_21-48-06_260595134347_rgbf000115-resize_0/002072_2014-06-24_21-48-06_260595134347_rgbf000115-resize-original.jpg,1000,4.702,4,7467,999,feet,jsons/v1_VE1000_randls_16.json,880231,1022425,48,Woman
135,793228,DepthScenes,duration_manipulation_targetAtFixation,jsons/v1_VE1000_randls_16.json,http://54.235.29.9/FacialAge/BNav_EC2/DepthDuration/v2_depth_duration_MTurk/v2_DepthDuration_HTML.html#95,95,1276,647,1280,800,8-29-2022,9-40-38,136,depth_duration_stimuli/002630_2014-06-24_14-47-50_094959634447_rgbf000055-resize_1/002630_2014-06-24_14-47-50_094959634447_rgbf000055-resize_1-target.png,1000,3.0095,5,4489,1006,feet,jsons/v1_VE1000_randls_16.json,880231,1022425,48,Woman
136,793228,DepthScenes,duration_manipulation_targetAtFixation,jsons/v1_VE1000_randls_16.json,http://54.235.29.9/FacialAge/BNav_EC2/DepthDuration/v2_depth_duration_MTurk/v2_DepthDuration_HTML.html#95,95,1276,647,1280,800,8-29-2022,9-40-38,137,depth_duration_stimuli/002758_2014-06-22_19-11-20_094959634447_rgbf000128-resize_1/002758_2014-06-22_19-11-20_094959634447_rgbf000128-resize_1-target.png,1000,2.555,7,3413,1000,feet,jsons/v1_VE1000_randls_16.json,880231,1022425,48,Woman
137,793228,DepthScenes,duration_manipulation_targetAtFixation,jsons/v1_VE1000_randls_16.json,http://54.235.29.9/FacialAge/BNav_EC2/DepthDuration/v2_depth_duration_MTurk/v2_DepthDuration_HTML.html#95,95,1276,647,1280,800,8-29-2022,9-40-38,138,depth_duration_stimuli/000906_2014-06-08_13-35-43_260595134347_rgbf000155-resize_1/000906_2014-06-08_13-35-43_260595134347_rgbf000155-resize_1-target.png,1000,2.8489999999999998,2,4903,1005,feet,jsons/v1_VE1000_randls_16.json,880231,1022425,48,Woman
138,793228,DepthScenes,duration_manipulation_targetAtFixation,jsons/v1_VE1000_randls_16.json,http://54.235.29.9/FacialAge/BNav_EC2/DepthDuration/v2_depth_duration_MTurk/v2_DepthDuration_HTML.html#95,95,1276,647,1280,800,8-29-2022,9-40-38,139,depth_duration_stimuli/002805_2014-06-22_19-54-03_094959634447_rgbf000079-resize_1/002805_2014-06-22_19-54-03_094959634447_rgbf000079-resize_1-target.png,1000,3.1439999999999997,42,3307,1159,feet,jsons/v1_VE1000_randls_16.json,880231,1022425,48,Woman
139,793228,DepthScenes,duration_manipulation_targetAtFixation,jsons/v1_VE1000_randls_16.json,http://54.235.29.9/FacialAge/BNav_EC2/DepthDuration/v2_depth_duration_MTurk/v2_DepthDuration_HTML.html#95,95,1276,647,1280,800,8-29-2022,9-40-38,140,depth_duration_stimuli/002118_2014-06-25_20-32-08_260595134347_rgbf000078-resize_1/002118_2014-06-25_20-32-08_260595134347_rgbf000078-resize_1-target.png,1000,2.6460000000000004,56,7598,997,feet,jsons/v1_VE1000_randls_16.json,880231,1022425,48,Woman
140,793228,DepthScenes,duration_manipulation_targetAtFixation,jsons/v1_VE1000_randls_16.json,http://54.235.29.9/FacialAge/BNav_EC2/DepthDuration/v2_depth_duration_MTurk/v2_DepthDuration_HTML.html#95,95,1276,647,1280,800,8-29-2022,9-40-38,141,depth_duration_stimuli/001516_2014-06-20_16-25-09_260595134347_rgbf000076-resize_2/001516_2014-06-20_16-25-09_260595134347_rgbf000076-resize_2-target.png,1000,1.7445,32,7273,999,feet,jsons/v1_VE1000_randls_16.json,880231,1022425,48,Woman
141,793228,DepthScenes,duration_manipulation_targetAtFixation,jsons/v1_VE1000_randls_16.json,http://54.235.29.9/FacialAge/BNav_EC2/DepthDuration/v2_depth_duration_MTurk/v2_DepthDuration_HTML.html#95,95,1276,647,1280,800,8-29-2022,9-40-38,142,depth_duration_stimuli/002600_2014-06-24_14-27-04_094959634447_rgbf000074-resize_2/002600_2014-06-24_14-27-04_094959634447_rgbf000074-resize_2-target.png,1000,2.7575,87,9962,999,feet,jsons/v1_VE1000_randls_16.json,880231,1022425,48,Woman
142,793228,DepthScenes,duration_manipulation_targetAtFixation,jsons/v1_VE1000_randls_16.json,http://54.235.29.9/FacialAge/BNav_EC2/DepthDuration/v2_depth_duration_MTurk/v2_DepthDuration_HTML.html#95,95,1276,647,1280,800,8-29-2022,9-40-38,143,depth_duration_stimuli/003228_2014-05-14_13-42-35_094959634447_rgbf000101-resize_1/003228_2014-05-14_13-42-35_094959634447_rgbf000101-resize_1-target.png,1000,1.9680000000000002,9,3835,996,feet,jsons/v1_VE1000_randls_16.json,880231,1022425,48,Woman
143,793228,DepthScenes,duration_manipulation_targetAtFixation,jsons/v1_VE1000_randls_16.json,http://54.235.29.9/FacialAge/BNav_EC2/DepthDuration/v2_depth_duration_MTurk/v2_DepthDuration_HTML.html#95,95,1276,647,1280,800,8-29-2022,9-40-38,144,depth_duration_stimuli/000788_2014-06-08_22-34-36_260595134347_rgbf000131-resize_1/000788_2014-06-08_22-34-36_260595134347_rgbf000131-resize_1-target.png,1000,3.359,67,5620,999,feet,jsons/v1_VE1000_randls_16.json,880231,1022425,48,Woman
144,793228,DepthScenes,duration_manipulation_targetAtFixation,jsons/v1_VE1000_randls_16.json,http://54.235.29.9/FacialAge/BNav_EC2/DepthDuration/v2_depth_duration_MTurk/v2_DepthDuration_HTML.html#95,95,1276,647,1280,800,8-29-2022,9-40-38,145,depth_duration_stimuli/001235_2014-06-17_16-37-36_260595134347_rgbf000084-resize_4/001235_2014-06-17_16-37-36_260595134347_rgbf000084-resize_4-target.png,1000,3.6605,7,8690,1002,feet,jsons/v1_VE1000_randls_16.json,880231,1022425,48,Woman
145,793228,DepthScenes,duration_manipulation_targetAtFixation,jsons/v1_VE1000_randls_16.json,http://54.235.29.9/FacialAge/BNav_EC2/DepthDuration/v2_depth_duration_MTurk/v2_DepthDuration_HTML.html#95,95,1276,647,1280,800,8-29-2022,9-40-38,146,depth_duration_stimuli/001498_2014-06-19_17-45-14_260595134347_rgbf000129-resize_4/001498_2014-06-19_17-45-14_260595134347_rgbf000129-resize-original.jpg,1000,1.4075,2,4419,1000,feet,jsons/v1_VE1000_randls_16.json,880231,1022425,48,Woman
146,793228,DepthScenes,duration_manipulation_targetAtFixation,jsons/v1_VE1000_randls_16.json,http://54.235.29.9/FacialAge/BNav_EC2/DepthDuration/v2_depth_duration_MTurk/v2_DepthDuration_HTML.html#95,95,1276,647,1280,800,8-29-2022,9-40-38,147,depth_duration_stimuli/001417_2014-06-19_16-25-36_260595134347_rgbf000115-resize_5/001417_2014-06-19_16-25-36_260595134347_rgbf000115-resize_5-target.png,1000,4.6255,3,4240,1001,feet,jsons/v1_VE1000_randls_16.json,880231,1022425,48,Woman
147,793228,DepthScenes,duration_manipulation_targetAtFixation,jsons/v1_VE1000_randls_16.json,http://54.235.29.9/FacialAge/BNav_EC2/DepthDuration/v2_depth_duration_MTurk/v2_DepthDuration_HTML.html#95,95,1276,647,1280,800,8-29-2022,9-40-38,148,depth_duration_stimuli/003081_2014-06-15_15-19-16_094959634447_rgbf000150-resize_1/003081_2014-06-15_15-19-16_094959634447_rgbf000150-resize_1-target.png,1000,3.9125,4,3827,1092,feet,jsons/v1_VE1000_randls_16.json,880231,1022425,48,Woman
148,793228,DepthScenes,duration_manipulation_targetAtFixation,jsons/v1_VE1000_randls_16.json,http://54.235.29.9/FacialAge/BNav_EC2/DepthDuration/v2_depth_duration_MTurk/v2_DepthDuration_HTML.html#95,95,1276,647,1280,800,8-29-2022,9-40-38,149,depth_duration_stimuli/002905_2014-06-03_18-04-43_094959634447_rgbf000151-resize_2/002905_2014-06-03_18-04-43_094959634447_rgbf000151-resize_2-target.png,1000,2.0295,2,4052,991,feet,jsons/v1_VE1000_randls_16.json,880231,1022425,48,Woman
149,793228,DepthScenes,duration_manipulation_targetAtFixation,jsons/v1_VE1000_randls_16.json,http://54.235.29.9/FacialAge/BNav_EC2/DepthDuration/v2_depth_duration_MTurk/v2_DepthDuration_HTML.html#95,95,1276,647,1280,800,8-29-2022,9-40-38,150,depth_duration_stimuli/003423_2014-05-21_10-23-26_094959634447_rgbf002665-resize_2/003423_2014-05-21_10-23-26_094959634447_rgbf002665-resize_2-target.png,1000,3.2575,4,4578,994,feet,jsons/v1_VE1000_randls_16.json,880231,1022425,48,Woman
150,793228,DepthScenes,duration_manipulation_targetAtFixation,jsons/v1_VE1000_randls_16.json,http://54.235.29.9/FacialAge/BNav_EC2/DepthDuration/v2_depth_duration_MTurk/v2_DepthDuration_HTML.html#95,95,1276,647,1280,800,8-29-2022,9-40-38,151,depth_duration_stimuli/000692_2014-06-08_13-09-42_260595134347_rgbf000199-resize_2/000692_2014-06-08_13-09-42_260595134347_rgbf000199-resize_2-target.png,1000,3.661,2,12618,999,feet,jsons/v1_VE1000_randls_16.json,880231,1022425,48,Woman
151,793228,DepthScenes,duration_manipulation_targetAtFixation,jsons/v1_VE1000_randls_16.json,http://54.235.29.9/FacialAge/BNav_EC2/DepthDuration/v2_depth_duration_MTurk/v2_DepthDuration_HTML.html#95,95,1276,647,1280,800,8-29-2022,9-40-38,152,depth_duration_stimuli/001094_2014-06-15_17-36-00_260595134347_rgbf000205-resize_0/001094_2014-06-15_17-36-00_260595134347_rgbf000205-resize_0-target.png,1000,4.2175,7,6514,999,feet,jsons/v1_VE1000_randls_16.json,880231,1022425,48,Woman
152,793228,DepthScenes,duration_manipulation_targetAtFixation,jsons/v1_VE1000_randls_16.json,http://54.235.29.9/FacialAge/BNav_EC2/DepthDuration/v2_depth_duration_MTurk/v2_DepthDuration_HTML.html#95,95,1276,647,1280,800,8-29-2022,9-40-38,153,depth_duration_stimuli/002445_2014-06-28_20-32-16_260595134347_rgbf000029-resize_4/002445_2014-06-28_20-32-16_260595134347_rgbf000029-resize_4-target.png,1000,2.5315,7,2740,996,feet,jsons/v1_VE1000_randls_16.json,880231,1022425,48,Woman
153,793228,DepthScenes,duration_manipulation_targetAtFixation,jsons/v1_VE1000_randls_16.json,http://54.235.29.9/FacialAge/BNav_EC2/DepthDuration/v2_depth_duration_MTurk/v2_DepthDuration_HTML.html#95,95,1276,647,1280,800,8-29-2022,9-40-38,154,depth_duration_stimuli/000780_2014-06-08_22-28-29_260595134347_rgbf000126-resize_1/000780_2014-06-08_22-28-29_260595134347_rgbf000126-resize_1-target.png,1000,3.3825,5,3081,999,feet,jsons/v1_VE1000_randls_16.json,880231,1022425,48,Woman
154,793228,DepthScenes,duration_manipulation_targetAtFixation,jsons/v1_VE1000_randls_16.json,http://54.235.29.9/FacialAge/BNav_EC2/DepthDuration/v2_depth_duration_MTurk/v2_DepthDuration_HTML.html#95,95,1276,647,1280,800,8-29-2022,9-40-38,155,depth_duration_stimuli/000773_2014-06-08_22-24-54_260595134347_rgbf000093-resize_1/000773_2014-06-08_22-24-54_260595134347_rgbf000093-resize_1-target.png,1000,4.973,8,3146,997,feet,jsons/v1_VE1000_randls_16.json,880231,1022425,48,Woman
155,793228,DepthScenes,duration_manipulation_targetAtFixation,jsons/v1_VE1000_randls_16.json,http://54.235.29.9/FacialAge/BNav_EC2/DepthDuration/v2_depth_duration_MTurk/v2_DepthDuration_HTML.html#95,95,1276,647,1280,800,8-29-2022,9-40-38,156,depth_duration_stimuli/002414_2014-06-28_20-24-58_260595134347_rgbf000067-resize_4/002414_2014-06-28_20-24-58_260595134347_rgbf000067-resize_4-target.png,1000,4.363,6,3442,998,feet,jsons/v1_VE1000_randls_16.json,880231,1022425,48,Woman
156,793228,DepthScenes,duration_manipulation_targetAtFixation,jsons/v1_VE1000_randls_16.json,http://54.235.29.9/FacialAge/BNav_EC2/DepthDuration/v2_depth_duration_MTurk/v2_DepthDuration_HTML.html#95,95,1276,647,1280,800,8-29-2022,9-40-38,157,depth_duration_stimuli/000486_2014-06-09_20-47-20_260595134347_rgbf000143-resize_2/000486_2014-06-09_20-47-20_260595134347_rgbf000143-resize_2-target.png,1000,4.8325,9,8114,999,feet,jsons/v1_VE1000_randls_16.json,880231,1022425,48,Woman
157,793228,DepthScenes,duration_manipulation_targetAtFixation,jsons/v1_VE1000_randls_16.json,http://54.235.29.9/FacialAge/BNav_EC2/DepthDuration/v2_depth_duration_MTurk/v2_DepthDuration_HTML.html#95,95,1276,647,1280,800,8-29-2022,9-40-38,158,depth_duration_stimuli/003083_2014-06-15_15-21-03_094959634447_rgbf000063-resize_1/003083_2014-06-15_15-21-03_094959634447_rgbf000063-resize_1-target.png,1000,4.1405,8,15769,1009,feet,jsons/v1_VE1000_randls_16.json,880231,1022425,48,Woman
158,793228,DepthScenes,duration_manipulation_targetAtFixation,jsons/v1_VE1000_randls_16.json,http://54.235.29.9/FacialAge/BNav_EC2/DepthDuration/v2_depth_duration_MTurk/v2_DepthDuration_HTML.html#95,95,1276,647,1280,800,8-29-2022,9-40-38,159,depth_duration_stimuli/002549_2014-06-24_13-41-39_094959634447_rgbf000022-resize_3/002549_2014-06-24_13-41-39_094959634447_rgbf000022-resize_3-target.png,1000,1.476,6,5355,1001,feet,jsons/v1_VE1000_randls_16.json,880231,1022425,48,Woman
159,793228,DepthScenes,duration_manipulation_targetAtFixation,jsons/v1_VE1000_randls_16.json,http://54.235.29.9/FacialAge/BNav_EC2/DepthDuration/v2_depth_duration_MTurk/v2_DepthDuration_HTML.html#95,95,1276,647,1280,800,8-29-2022,9-40-38,160,depth_duration_stimuli/002750_2014-06-22_19-08-03_094959634447_rgbf000094-resize_4/002750_2014-06-22_19-08-03_094959634447_rgbf000094-resize_4-target.png,1000,2.354,7,10432,999,feet,jsons/v1_VE1000_randls_16.json,880231,1022425,48,Woman
160,793228,DepthScenes,duration_manipulation_targetAtFixation,jsons/v1_VE1000_randls_16.json,http://54.235.29.9/FacialAge/BNav_EC2/DepthDuration/v2_depth_duration_MTurk/v2_DepthDuration_HTML.html#95,95,1276,647,1280,800,8-29-2022,9-40-38,161,depth_duration_stimuli/003621_2014-05-23_18-06-08_094959634447_rgbf000101-resize_1/003621_2014-05-23_18-06-08_094959634447_rgbf000101-resize_1-target.png,1000,3.9835,7,3299,999,feet,jsons/v1_VE1000_randls_16.json,880231,1022425,48,Woman
161,793228,DepthScenes,duration_manipulation_targetAtFixation,jsons/v1_VE1000_randls_16.json,http://54.235.29.9/FacialAge/BNav_EC2/DepthDuration/v2_depth_duration_MTurk/v2_DepthDuration_HTML.html#95,95,1276,647,1280,800,8-29-2022,9-40-38,162,depth_duration_stimuli/001584_2014-06-20_11-07-43_260595134347_rgbf000002-resize_1/001584_2014-06-20_11-07-43_260595134347_rgbf000002-resize_1-target.png,1000,3.53,4,2849,1007,feet,jsons/v1_VE1000_randls_16.json,880231,1022425,48,Woman
162,793228,DepthScenes,duration_manipulation_targetAtFixation,jsons/v1_VE1000_randls_16.json,http://54.235.29.9/FacialAge/BNav_EC2/DepthDuration/v2_depth_duration_MTurk/v2_DepthDuration_HTML.html#95,95,1276,647,1280,800,8-29-2022,9-40-38,163,depth_duration_stimuli/002725_2014-06-22_11-47-51_094959634447_rgbf000070-resize_1/002725_2014-06-22_11-47-51_094959634447_rgbf000070-resize_1-target.png,1000,2.195,7,3293,1012,feet,jsons/v1_VE1000_randls_16.json,880231,1022425,48,Woman
163,793228,DepthScenes,duration_manipulation_targetAtFixation,jsons/v1_VE1000_randls_16.json,http://54.235.29.9/FacialAge/BNav_EC2/DepthDuration/v2_depth_duration_MTurk/v2_DepthDuration_HTML.html#95,95,1276,647,1280,800,8-29-2022,9-40-38,164,depth_duration_stimuli/002344_2014-06-28_20-06-29_260595134347_rgbf000030-resize_1/002344_2014-06-28_20-06-29_260595134347_rgbf000030-resize_1-target.png,1000,1.5795,8,2525,979,feet,jsons/v1_VE1000_randls_16.json,880231,1022425,48,Woman
