,subjID,experimentName,versionName,sequenceName,url,selected_row,windowWidth,windowHeight,screenWidth,screenHeight,startDate,startTime,trial,stimulus,duration,actual_depth,depth_estimate,trial_RT,log_sceneDuration,unitSelection,seq_filepath,experimentTime,totalTime,age,gender
0,794027,DepthScenes,duration_manipulation_targetAtFixation,jsons/v1_VE250_randls_34_rotated.json,http://54.235.29.9/FacialAge/BNav_EC2/DepthDuration/v2_depth_duration_MTurk/v2_DepthDuration_HTML.html#137,137,1280,570,1280,720,8-20-2022,10-58-23,1,depth_duration_stimuli/000103_2014-05-14_22-01-17_260595134347_rgbf000152-resize_5/000103_2014-05-14_22-01-17_260595134347_rgbf000152-resize_5-target.png,250,1.993,4,3213,241,feet,jsons/v1_VE250_randls_34_rotated.json,557227,699442,31,Woman
1,794027,DepthScenes,duration_manipulation_targetAtFixation,jsons/v1_VE250_randls_34_rotated.json,http://54.235.29.9/FacialAge/BNav_EC2/DepthDuration/v2_depth_duration_MTurk/v2_DepthDuration_HTML.html#137,137,1280,570,1280,720,8-20-2022,10-58-23,2,depth_duration_stimuli/001555_2014-06-20_17-12-10_260595134347_rgbf000065-resize_4/001555_2014-06-20_17-12-10_260595134347_rgbf000065-resize_4-target.png,250,1.633,2,2930,262,feet,jsons/v1_VE250_randls_34_rotated.json,557227,699442,31,Woman
2,794027,DepthScenes,duration_manipulation_targetAtFixation,jsons/v1_VE250_randls_34_rotated.json,http://54.235.29.9/FacialAge/BNav_EC2/DepthDuration/v2_depth_duration_MTurk/v2_DepthDuration_HTML.html#137,137,1280,570,1280,720,8-20-2022,10-58-23,3,depth_duration_stimuli/001617_2014-06-20_11-35-32_260595134347_rgbf000066-resize_1/001617_2014-06-20_11-35-32_260595134347_rgbf000066-resize_1-target.png,250,3.7910000000000004,4,3445,254,feet,jsons/v1_VE250_randls_34_rotated.json,557227,699442,31,Woman
3,794027,DepthScenes,duration_manipulation_targetAtFixation,jsons/v1_VE250_randls_34_rotated.json,http://54.235.29.9/FacialAge/BNav_EC2/DepthDuration/v2_depth_duration_MTurk/v2_DepthDuration_HTML.html#137,137,1280,570,1280,720,8-20-2022,10-58-23,4,depth_duration_stimuli/001806_2014-06-26_20-50-20_260595134347_rgbf000091-resize_1/001806_2014-06-26_20-50-20_260595134347_rgbf000091-resize_1-target.png,250,2.7305,3,3056,250,feet,jsons/v1_VE250_randls_34_rotated.json,557227,699442,31,Woman
4,794027,DepthScenes,duration_manipulation_targetAtFixation,jsons/v1_VE250_randls_34_rotated.json,http://54.235.29.9/FacialAge/BNav_EC2/DepthDuration/v2_depth_duration_MTurk/v2_DepthDuration_HTML.html#137,137,1280,570,1280,720,8-20-2022,10-58-23,5,depth_duration_stimuli/003228_2014-05-14_13-42-35_094959634447_rgbf000101-resize_1/003228_2014-05-14_13-42-35_094959634447_rgbf000101-resize_1-target.png,250,1.9680000000000002,2,3025,255,feet,jsons/v1_VE250_randls_34_rotated.json,557227,699442,31,Woman
5,794027,DepthScenes,duration_manipulation_targetAtFixation,jsons/v1_VE250_randls_34_rotated.json,http://54.235.29.9/FacialAge/BNav_EC2/DepthDuration/v2_depth_duration_MTurk/v2_DepthDuration_HTML.html#137,137,1280,570,1280,720,8-20-2022,10-58-23,6,depth_duration_stimuli/002600_2014-06-24_14-27-04_094959634447_rgbf000074-resize_2/002600_2014-06-24_14-27-04_094959634447_rgbf000074-resize_2-target.png,250,2.7575,6,3752,240,feet,jsons/v1_VE250_randls_34_rotated.json,557227,699442,31,Woman
6,794027,DepthScenes,duration_manipulation_targetAtFixation,jsons/v1_VE250_randls_34_rotated.json,http://54.235.29.9/FacialAge/BNav_EC2/DepthDuration/v2_depth_duration_MTurk/v2_DepthDuration_HTML.html#137,137,1280,570,1280,720,8-20-2022,10-58-23,7,depth_duration_stimuli/001032_2014-06-08_13-23-17_260595134347_rgbf000021-resize_3/001032_2014-06-08_13-23-17_260595134347_rgbf000021-resize_3-target.png,250,3.2725,4,3032,228,feet,jsons/v1_VE250_randls_34_rotated.json,557227,699442,31,Woman
7,794027,DepthScenes,duration_manipulation_targetAtFixation,jsons/v1_VE250_randls_34_rotated.json,http://54.235.29.9/FacialAge/BNav_EC2/DepthDuration/v2_depth_duration_MTurk/v2_DepthDuration_HTML.html#137,137,1280,570,1280,720,8-20-2022,10-58-23,8,depth_duration_stimuli/001059_2014-06-08_21-53-27_260595134347_rgbf000061-resize_4/001059_2014-06-08_21-53-27_260595134347_rgbf000061-resize_4-target.png,250,2.4185,3,3477,250,feet,jsons/v1_VE250_randls_34_rotated.json,557227,699442,31,Woman
8,794027,DepthScenes,duration_manipulation_targetAtFixation,jsons/v1_VE250_randls_34_rotated.json,http://54.235.29.9/FacialAge/BNav_EC2/DepthDuration/v2_depth_duration_MTurk/v2_DepthDuration_HTML.html#137,137,1280,570,1280,720,8-20-2022,10-58-23,9,depth_duration_stimuli/003495_2014-05-21_16-01-51_094959634447_rgbf000100-resize_3/003495_2014-05-21_16-01-51_094959634447_rgbf000100-resize_3-target.png,250,1.6255,2,3091,249,feet,jsons/v1_VE250_randls_34_rotated.json,557227,699442,31,Woman
9,794027,DepthScenes,duration_manipulation_targetAtFixation,jsons/v1_VE250_randls_34_rotated.json,http://54.235.29.9/FacialAge/BNav_EC2/DepthDuration/v2_depth_duration_MTurk/v2_DepthDuration_HTML.html#137,137,1280,570,1280,720,8-20-2022,10-58-23,10,depth_duration_stimuli/001244_2014-06-17_16-47-45_260595134347_rgbf000030-resize_4/001244_2014-06-17_16-47-45_260595134347_rgbf000030-resize_4-target.png,250,2.0425,3,3464,244,feet,jsons/v1_VE250_randls_34_rotated.json,557227,699442,31,Woman
10,794027,DepthScenes,duration_manipulation_targetAtFixation,jsons/v1_VE250_randls_34_rotated.json,http://54.235.29.9/FacialAge/BNav_EC2/DepthDuration/v2_depth_duration_MTurk/v2_DepthDuration_HTML.html#137,137,1280,570,1280,720,8-20-2022,10-58-23,11,depth_duration_stimuli/002425_2014-06-28_20-27-29_260595134347_rgbf000031-resize_8/002425_2014-06-28_20-27-29_260595134347_rgbf000031-resize_8-target.png,250,3.8960000000000004,6,3468,246,feet,jsons/v1_VE250_randls_34_rotated.json,557227,699442,31,Woman
11,794027,DepthScenes,duration_manipulation_targetAtFixation,jsons/v1_VE250_randls_34_rotated.json,http://54.235.29.9/FacialAge/BNav_EC2/DepthDuration/v2_depth_duration_MTurk/v2_DepthDuration_HTML.html#137,137,1280,570,1280,720,8-20-2022,10-58-23,12,depth_duration_stimuli/000642_2014-06-08_16-59-25_260595134347_rgbf000098-resize_2/000642_2014-06-08_16-59-25_260595134347_rgbf000098-resize_2-target.png,250,2.8815,6,3413,254,feet,jsons/v1_VE250_randls_34_rotated.json,557227,699442,31,Woman
12,794027,DepthScenes,duration_manipulation_targetAtFixation,jsons/v1_VE250_randls_34_rotated.json,http://54.235.29.9/FacialAge/BNav_EC2/DepthDuration/v2_depth_duration_MTurk/v2_DepthDuration_HTML.html#137,137,1280,570,1280,720,8-20-2022,10-58-23,13,depth_duration_stimuli/001571_2014-06-20_17-21-32_260595134347_rgbf000089-resize_1/001571_2014-06-20_17-21-32_260595134347_rgbf000089-resize_1-target.png,250,1.86,2,2922,245,feet,jsons/v1_VE250_randls_34_rotated.json,557227,699442,31,Woman
13,794027,DepthScenes,duration_manipulation_targetAtFixation,jsons/v1_VE250_randls_34_rotated.json,http://54.235.29.9/FacialAge/BNav_EC2/DepthDuration/v2_depth_duration_MTurk/v2_DepthDuration_HTML.html#137,137,1280,570,1280,720,8-20-2022,10-58-23,14,depth_duration_stimuli/002272_2014-06-28_18-53-56_260595134347_rgbf000067-resize_2/002272_2014-06-28_18-53-56_260595134347_rgbf000067-resize_2-target.png,250,1.138,2,3286,244,feet,jsons/v1_VE250_randls_34_rotated.json,557227,699442,31,Woman
14,794027,DepthScenes,duration_manipulation_targetAtFixation,jsons/v1_VE250_randls_34_rotated.json,http://54.235.29.9/FacialAge/BNav_EC2/DepthDuration/v2_depth_duration_MTurk/v2_DepthDuration_HTML.html#137,137,1280,570,1280,720,8-20-2022,10-58-23,15,depth_duration_stimuli/003048_2014-06-15_13-49-43_094959634447_rgbf000150-resize_1/003048_2014-06-15_13-49-43_094959634447_rgbf000150-resize_1-target.png,250,4.0035,6,3078,250,feet,jsons/v1_VE250_randls_34_rotated.json,557227,699442,31,Woman
15,794027,DepthScenes,duration_manipulation_targetAtFixation,jsons/v1_VE250_randls_34_rotated.json,http://54.235.29.9/FacialAge/BNav_EC2/DepthDuration/v2_depth_duration_MTurk/v2_DepthDuration_HTML.html#137,137,1280,570,1280,720,8-20-2022,10-58-23,16,depth_duration_stimuli/002043_2014-06-24_20-29-38_260595134347_rgbf000039-resize_4/002043_2014-06-24_20-29-38_260595134347_rgbf000039-resize_4-target.png,250,2.8435,4,3230,253,feet,jsons/v1_VE250_randls_34_rotated.json,557227,699442,31,Woman
16,794027,DepthScenes,duration_manipulation_targetAtFixation,jsons/v1_VE250_randls_34_rotated.json,http://54.235.29.9/FacialAge/BNav_EC2/DepthDuration/v2_depth_duration_MTurk/v2_DepthDuration_HTML.html#137,137,1280,570,1280,720,8-20-2022,10-58-23,17,depth_duration_stimuli/001214_2014-06-17_16-13-55_260595134347_rgbf000111-resize_0/001214_2014-06-17_16-13-55_260595134347_rgbf000111-resize_0-target.png,250,2.6505,3,2899,251,feet,jsons/v1_VE250_randls_34_rotated.json,557227,699442,31,Woman
17,794027,DepthScenes,duration_manipulation_targetAtFixation,jsons/v1_VE250_randls_34_rotated.json,http://54.235.29.9/FacialAge/BNav_EC2/DepthDuration/v2_depth_duration_MTurk/v2_DepthDuration_HTML.html#137,137,1280,570,1280,720,8-20-2022,10-58-23,18,depth_duration_stimuli/000810_2014-06-08_17-20-01_260595134347_rgbf000105-resize_0/000810_2014-06-08_17-20-01_260595134347_rgbf000105-resize_0-target.png,250,1.4865,4,3826,234,feet,jsons/v1_VE250_randls_34_rotated.json,557227,699442,31,Woman
18,794027,DepthScenes,duration_manipulation_targetAtFixation,jsons/v1_VE250_randls_34_rotated.json,http://54.235.29.9/FacialAge/BNav_EC2/DepthDuration/v2_depth_duration_MTurk/v2_DepthDuration_HTML.html#137,137,1280,570,1280,720,8-20-2022,10-58-23,19,depth_duration_stimuli/001498_2014-06-19_17-45-14_260595134347_rgbf000129-resize_4/001498_2014-06-19_17-45-14_260595134347_rgbf000129-resize-original.jpg,250,1.4075,0,2981,249,feet,jsons/v1_VE250_randls_34_rotated.json,557227,699442,31,Woman
19,794027,DepthScenes,duration_manipulation_targetAtFixation,jsons/v1_VE250_randls_34_rotated.json,http://54.235.29.9/FacialAge/BNav_EC2/DepthDuration/v2_depth_duration_MTurk/v2_DepthDuration_HTML.html#137,137,1280,570,1280,720,8-20-2022,10-58-23,20,depth_duration_stimuli/002444_2014-06-28_20-32-08_260595134347_rgbf000027-resize_0/002444_2014-06-28_20-32-08_260595134347_rgbf000027-resize_0-target.png,250,4.388999999999999,4,3120,250,feet,jsons/v1_VE250_randls_34_rotated.json,557227,699442,31,Woman
20,794027,DepthScenes,duration_manipulation_targetAtFixation,jsons/v1_VE250_randls_34_rotated.json,http://54.235.29.9/FacialAge/BNav_EC2/DepthDuration/v2_depth_duration_MTurk/v2_DepthDuration_HTML.html#137,137,1280,570,1280,720,8-20-2022,10-58-23,21,depth_duration_stimuli/000436_2014-06-09_22-25-11_260595134347_rgbf000137-resize_1/000436_2014-06-09_22-25-11_260595134347_rgbf000137-resize_1-target.png,250,4.0705,6,3746,247,feet,jsons/v1_VE250_randls_34_rotated.json,557227,699442,31,Woman
21,794027,DepthScenes,duration_manipulation_targetAtFixation,jsons/v1_VE250_randls_34_rotated.json,http://54.235.29.9/FacialAge/BNav_EC2/DepthDuration/v2_depth_duration_MTurk/v2_DepthDuration_HTML.html#137,137,1280,570,1280,720,8-20-2022,10-58-23,22,depth_duration_stimuli/002637_2014-06-24_14-51-13_094959634447_rgbf000066-resize_4/002637_2014-06-24_14-51-13_094959634447_rgbf000066-resize_4-target.png,250,1.9955,3,2952,246,feet,jsons/v1_VE250_randls_34_rotated.json,557227,699442,31,Woman
22,794027,DepthScenes,duration_manipulation_targetAtFixation,jsons/v1_VE250_randls_34_rotated.json,http://54.235.29.9/FacialAge/BNav_EC2/DepthDuration/v2_depth_duration_MTurk/v2_DepthDuration_HTML.html#137,137,1280,570,1280,720,8-20-2022,10-58-23,23,depth_duration_stimuli/003534_2014-05-22_15-06-10_094959634447_rgbf000102-resize_4/003534_2014-05-22_15-06-10_094959634447_rgbf000102-resize_4-target.png,250,1.426,2,2932,252,feet,jsons/v1_VE250_randls_34_rotated.json,557227,699442,31,Woman
23,794027,DepthScenes,duration_manipulation_targetAtFixation,jsons/v1_VE250_randls_34_rotated.json,http://54.235.29.9/FacialAge/BNav_EC2/DepthDuration/v2_depth_duration_MTurk/v2_DepthDuration_HTML.html#137,137,1280,570,1280,720,8-20-2022,10-58-23,24,depth_duration_stimuli/001447_2014-06-19_17-00-32_260595134347_rgbf000082-resize_5/001447_2014-06-19_17-00-32_260595134347_rgbf000082-resize_5-target.png,250,4.13775,3,3122,258,feet,jsons/v1_VE250_randls_34_rotated.json,557227,699442,31,Woman
24,794027,DepthScenes,duration_manipulation_targetAtFixation,jsons/v1_VE250_randls_34_rotated.json,http://54.235.29.9/FacialAge/BNav_EC2/DepthDuration/v2_depth_duration_MTurk/v2_DepthDuration_HTML.html#137,137,1280,570,1280,720,8-20-2022,10-58-23,25,depth_duration_stimuli/000447_2014-06-08_16-15-46_260595134347_rgbf000130-resize_1/000447_2014-06-08_16-15-46_260595134347_rgbf000130-resize_1-target.png,250,4.479,6,3109,254,feet,jsons/v1_VE250_randls_34_rotated.json,557227,699442,31,Woman
25,794027,DepthScenes,duration_manipulation_targetAtFixation,jsons/v1_VE250_randls_34_rotated.json,http://54.235.29.9/FacialAge/BNav_EC2/DepthDuration/v2_depth_duration_MTurk/v2_DepthDuration_HTML.html#137,137,1280,570,1280,720,8-20-2022,10-58-23,26,depth_duration_stimuli/000854_2014-06-09_19-43-13_260595134347_rgbf000066-resize_0/000854_2014-06-09_19-43-13_260595134347_rgbf000066-resize_0-target.png,250,3.068,3,2926,255,feet,jsons/v1_VE250_randls_34_rotated.json,557227,699442,31,Woman
26,794027,DepthScenes,duration_manipulation_targetAtFixation,jsons/v1_VE250_randls_34_rotated.json,http://54.235.29.9/FacialAge/BNav_EC2/DepthDuration/v2_depth_duration_MTurk/v2_DepthDuration_HTML.html#137,137,1280,570,1280,720,8-20-2022,10-58-23,27,depth_duration_stimuli/000758_2014-06-08_22-05-08_260595134347_rgbf000085-resize_0/000758_2014-06-08_22-05-08_260595134347_rgbf000085-resize_0-target.png,250,3.3810000000000002,6,3365,254,feet,jsons/v1_VE250_randls_34_rotated.json,557227,699442,31,Woman
27,794027,DepthScenes,duration_manipulation_targetAtFixation,jsons/v1_VE250_randls_34_rotated.json,http://54.235.29.9/FacialAge/BNav_EC2/DepthDuration/v2_depth_duration_MTurk/v2_DepthDuration_HTML.html#137,137,1280,570,1280,720,8-20-2022,10-58-23,28,depth_duration_stimuli/001052_2014-06-08_18-24-54_260595134347_rgbf000130-resize_1/001052_2014-06-08_18-24-54_260595134347_rgbf000130-resize_1-target.png,250,4.1045,6,2958,241,feet,jsons/v1_VE250_randls_34_rotated.json,557227,699442,31,Woman
28,794027,DepthScenes,duration_manipulation_targetAtFixation,jsons/v1_VE250_randls_34_rotated.json,http://54.235.29.9/FacialAge/BNav_EC2/DepthDuration/v2_depth_duration_MTurk/v2_DepthDuration_HTML.html#137,137,1280,570,1280,720,8-20-2022,10-58-23,29,depth_duration_stimuli/002988_2014-06-15_12-24-20_094959634447_rgbf000150-resize_1/002988_2014-06-15_12-24-20_094959634447_rgbf000150-resize_1-target.png,250,4.7669999999999995,6,2963,247,feet,jsons/v1_VE250_randls_34_rotated.json,557227,699442,31,Woman
29,794027,DepthScenes,duration_manipulation_targetAtFixation,jsons/v1_VE250_randls_34_rotated.json,http://54.235.29.9/FacialAge/BNav_EC2/DepthDuration/v2_depth_duration_MTurk/v2_DepthDuration_HTML.html#137,137,1280,570,1280,720,8-20-2022,10-58-23,30,depth_duration_stimuli/002072_2014-06-24_21-48-06_260595134347_rgbf000115-resize_0/002072_2014-06-24_21-48-06_260595134347_rgbf000115-resize-original.jpg,250,4.702,0,3149,253,feet,jsons/v1_VE250_randls_34_rotated.json,557227,699442,31,Woman
30,794027,DepthScenes,duration_manipulation_targetAtFixation,jsons/v1_VE250_randls_34_rotated.json,http://54.235.29.9/FacialAge/BNav_EC2/DepthDuration/v2_depth_duration_MTurk/v2_DepthDuration_HTML.html#137,137,1280,570,1280,720,8-20-2022,10-58-23,31,depth_duration_stimuli/002209_2014-06-28_18-36-10_260595134347_rgbf000051-resize_1/002209_2014-06-28_18-36-10_260595134347_rgbf000051-resize_1-target.png,250,2.057,3,2864,270,feet,jsons/v1_VE250_randls_34_rotated.json,557227,699442,31,Woman
31,794027,DepthScenes,duration_manipulation_targetAtFixation,jsons/v1_VE250_randls_34_rotated.json,http://54.235.29.9/FacialAge/BNav_EC2/DepthDuration/v2_depth_duration_MTurk/v2_DepthDuration_HTML.html#137,137,1280,570,1280,720,8-20-2022,10-58-23,32,depth_duration_stimuli/002763_2014-06-22_19-13-10_094959634447_rgbf000075-resize_4/002763_2014-06-22_19-13-10_094959634447_rgbf000075-resize_4-target.png,250,1.68375,2,2806,254,feet,jsons/v1_VE250_randls_34_rotated.json,557227,699442,31,Woman
32,794027,DepthScenes,duration_manipulation_targetAtFixation,jsons/v1_VE250_randls_34_rotated.json,http://54.235.29.9/FacialAge/BNav_EC2/DepthDuration/v2_depth_duration_MTurk/v2_DepthDuration_HTML.html#137,137,1280,570,1280,720,8-20-2022,10-58-23,33,depth_duration_stimuli/002758_2014-06-22_19-11-20_094959634447_rgbf000128-resize_1/002758_2014-06-22_19-11-20_094959634447_rgbf000128-resize_1-target.png,250,2.555,3,3011,253,feet,jsons/v1_VE250_randls_34_rotated.json,557227,699442,31,Woman
33,794027,DepthScenes,duration_manipulation_targetAtFixation,jsons/v1_VE250_randls_34_rotated.json,http://54.235.29.9/FacialAge/BNav_EC2/DepthDuration/v2_depth_duration_MTurk/v2_DepthDuration_HTML.html#137,137,1280,570,1280,720,8-20-2022,10-58-23,34,depth_duration_stimuli/002630_2014-06-24_14-47-50_094959634447_rgbf000055-resize_1/002630_2014-06-24_14-47-50_094959634447_rgbf000055-resize_1-target.png,250,3.0095,5,3096,242,feet,jsons/v1_VE250_randls_34_rotated.json,557227,699442,31,Woman
34,794027,DepthScenes,duration_manipulation_targetAtFixation,jsons/v1_VE250_randls_34_rotated.json,http://54.235.29.9/FacialAge/BNav_EC2/DepthDuration/v2_depth_duration_MTurk/v2_DepthDuration_HTML.html#137,137,1280,570,1280,720,8-20-2022,10-58-23,35,depth_duration_stimuli/002344_2014-06-28_20-06-29_260595134347_rgbf000030-resize_1/002344_2014-06-28_20-06-29_260595134347_rgbf000030-resize_1-target.png,250,1.5795,2,2875,249,feet,jsons/v1_VE250_randls_34_rotated.json,557227,699442,31,Woman
35,794027,DepthScenes,duration_manipulation_targetAtFixation,jsons/v1_VE250_randls_34_rotated.json,http://54.235.29.9/FacialAge/BNav_EC2/DepthDuration/v2_depth_duration_MTurk/v2_DepthDuration_HTML.html#137,137,1280,570,1280,720,8-20-2022,10-58-23,36,depth_duration_stimuli/002725_2014-06-22_11-47-51_094959634447_rgbf000070-resize_1/002725_2014-06-22_11-47-51_094959634447_rgbf000070-resize_1-target.png,250,2.195,3,3533,244,feet,jsons/v1_VE250_randls_34_rotated.json,557227,699442,31,Woman
36,794027,DepthScenes,duration_manipulation_targetAtFixation,jsons/v1_VE250_randls_34_rotated.json,http://54.235.29.9/FacialAge/BNav_EC2/DepthDuration/v2_depth_duration_MTurk/v2_DepthDuration_HTML.html#137,137,1280,570,1280,720,8-20-2022,10-58-23,37,depth_duration_stimuli/003081_2014-06-15_15-19-16_094959634447_rgbf000150-resize_1/003081_2014-06-15_15-19-16_094959634447_rgbf000150-resize_1-target.png,250,3.9125,6,2929,225,feet,jsons/v1_VE250_randls_34_rotated.json,557227,699442,31,Woman
37,794027,DepthScenes,duration_manipulation_targetAtFixation,jsons/v1_VE250_randls_34_rotated.json,http://54.235.29.9/FacialAge/BNav_EC2/DepthDuration/v2_depth_duration_MTurk/v2_DepthDuration_HTML.html#137,137,1280,570,1280,720,8-20-2022,10-58-23,38,depth_duration_stimuli/001417_2014-06-19_16-25-36_260595134347_rgbf000115-resize_5/001417_2014-06-19_16-25-36_260595134347_rgbf000115-resize_5-target.png,250,4.6255,6,2807,246,feet,jsons/v1_VE250_randls_34_rotated.json,557227,699442,31,Woman
38,794027,DepthScenes,duration_manipulation_targetAtFixation,jsons/v1_VE250_randls_34_rotated.json,http://54.235.29.9/FacialAge/BNav_EC2/DepthDuration/v2_depth_duration_MTurk/v2_DepthDuration_HTML.html#137,137,1280,570,1280,720,8-20-2022,10-58-23,39,depth_duration_stimuli/000457_2014-06-08_16-52-43_260595134347_rgbf000199-resize_1/000457_2014-06-08_16-52-43_260595134347_rgbf000199-resize_1-target.png,250,3.6489999999999996,3,3022,251,feet,jsons/v1_VE250_randls_34_rotated.json,557227,699442,31,Woman
39,794027,DepthScenes,duration_manipulation_targetAtFixation,jsons/v1_VE250_randls_34_rotated.json,http://54.235.29.9/FacialAge/BNav_EC2/DepthDuration/v2_depth_duration_MTurk/v2_DepthDuration_HTML.html#137,137,1280,570,1280,720,8-20-2022,10-58-23,40,depth_duration_stimuli/000929_2014-06-09_16-33-19_260595134347_rgbf000139-resize_0/000929_2014-06-09_16-33-19_260595134347_rgbf000139-resize_0-target.png,250,2.8680000000000003,5,2980,256,feet,jsons/v1_VE250_randls_34_rotated.json,557227,699442,31,Woman
40,794027,DepthScenes,duration_manipulation_targetAtFixation,jsons/v1_VE250_randls_34_rotated.json,http://54.235.29.9/FacialAge/BNav_EC2/DepthDuration/v2_depth_duration_MTurk/v2_DepthDuration_HTML.html#137,137,1280,570,1280,720,8-20-2022,10-58-23,41,depth_duration_stimuli/002953_2014-06-08_17-32-18_094959634447_rgbf000059-resize_5/002953_2014-06-08_17-32-18_094959634447_rgbf000059-resize_5-target.png,250,1.551,2,2775,254,feet,jsons/v1_VE250_randls_34_rotated.json,557227,699442,31,Woman
41,794027,DepthScenes,duration_manipulation_targetAtFixation,jsons/v1_VE250_randls_34_rotated.json,http://54.235.29.9/FacialAge/BNav_EC2/DepthDuration/v2_depth_duration_MTurk/v2_DepthDuration_HTML.html#137,137,1280,570,1280,720,8-20-2022,10-58-23,42,depth_duration_stimuli/000878_2014-06-08_22-52-45_260595134347_rgbf000045-resize_2/000878_2014-06-08_22-52-45_260595134347_rgbf000045-resize_2-target.png,250,2.092,2,2913,251,feet,jsons/v1_VE250_randls_34_rotated.json,557227,699442,31,Woman
42,794027,DepthScenes,duration_manipulation_targetAtFixation,jsons/v1_VE250_randls_34_rotated.json,http://54.235.29.9/FacialAge/BNav_EC2/DepthDuration/v2_depth_duration_MTurk/v2_DepthDuration_HTML.html#137,137,1280,570,1280,720,8-20-2022,10-58-23,43,depth_duration_stimuli/000677_2014-06-08_23-10-32_260595134347_rgbf000158-resize_6/000677_2014-06-08_23-10-32_260595134347_rgbf000158-resize_6-target.png,250,3.556,4,2975,257,feet,jsons/v1_VE250_randls_34_rotated.json,557227,699442,31,Woman
43,794027,DepthScenes,duration_manipulation_targetAtFixation,jsons/v1_VE250_randls_34_rotated.json,http://54.235.29.9/FacialAge/BNav_EC2/DepthDuration/v2_depth_duration_MTurk/v2_DepthDuration_HTML.html#137,137,1280,570,1280,720,8-20-2022,10-58-23,44,depth_duration_stimuli/001029_2014-06-08_13-17-57_260595134347_rgbf000065-resize_1/001029_2014-06-08_13-17-57_260595134347_rgbf000065-resize_1-target.png,250,3.0835,5,2979,223,feet,jsons/v1_VE250_randls_34_rotated.json,557227,699442,31,Woman
44,794027,DepthScenes,duration_manipulation_targetAtFixation,jsons/v1_VE250_randls_34_rotated.json,http://54.235.29.9/FacialAge/BNav_EC2/DepthDuration/v2_depth_duration_MTurk/v2_DepthDuration_HTML.html#137,137,1280,570,1280,720,8-20-2022,10-58-23,45,depth_duration_stimuli/001094_2014-06-15_17-36-00_260595134347_rgbf000205-resize_0/001094_2014-06-15_17-36-00_260595134347_rgbf000205-resize_0-target.png,250,4.2175,6,2931,246,feet,jsons/v1_VE250_randls_34_rotated.json,557227,699442,31,Woman
45,794027,DepthScenes,duration_manipulation_targetAtFixation,jsons/v1_VE250_randls_34_rotated.json,http://54.235.29.9/FacialAge/BNav_EC2/DepthDuration/v2_depth_duration_MTurk/v2_DepthDuration_HTML.html#137,137,1280,570,1280,720,8-20-2022,10-58-23,46,depth_duration_stimuli/000692_2014-06-08_13-09-42_260595134347_rgbf000199-resize_2/000692_2014-06-08_13-09-42_260595134347_rgbf000199-resize_2-target.png,250,3.661,6,2981,252,feet,jsons/v1_VE250_randls_34_rotated.json,557227,699442,31,Woman
46,794027,DepthScenes,duration_manipulation_targetAtFixation,jsons/v1_VE250_randls_34_rotated.json,http://54.235.29.9/FacialAge/BNav_EC2/DepthDuration/v2_depth_duration_MTurk/v2_DepthDuration_HTML.html#137,137,1280,570,1280,720,8-20-2022,10-58-23,47,depth_duration_stimuli/000665_2014-06-09_20-42-35_260595134347_rgbf000110-resize_1/000665_2014-06-09_20-42-35_260595134347_rgbf000110-resize_1-target.png,250,3.057,4,3240,255,feet,jsons/v1_VE250_randls_34_rotated.json,557227,699442,31,Woman
47,794027,DepthScenes,duration_manipulation_targetAtFixation,jsons/v1_VE250_randls_34_rotated.json,http://54.235.29.9/FacialAge/BNav_EC2/DepthDuration/v2_depth_duration_MTurk/v2_DepthDuration_HTML.html#137,137,1280,570,1280,720,8-20-2022,10-58-23,48,depth_duration_stimuli/001150_2014-06-17_15-27-34_260595134347_rgbf000108-resize_2/001150_2014-06-17_15-27-34_260595134347_rgbf000108-resize_2-target.png,250,4.0325,5,2921,252,feet,jsons/v1_VE250_randls_34_rotated.json,557227,699442,31,Woman
48,794027,DepthScenes,duration_manipulation_targetAtFixation,jsons/v1_VE250_randls_34_rotated.json,http://54.235.29.9/FacialAge/BNav_EC2/DepthDuration/v2_depth_duration_MTurk/v2_DepthDuration_HTML.html#137,137,1280,570,1280,720,8-20-2022,10-58-23,49,depth_duration_stimuli/001170_2014-06-17_15-43-44_260595134347_rgbf000096-resize_6/001170_2014-06-17_15-43-44_260595134347_rgbf000096-resize-original.jpg,250,1.1909999999999998,0,3030,247,feet,jsons/v1_VE250_randls_34_rotated.json,557227,699442,31,Woman
49,794027,DepthScenes,duration_manipulation_targetAtFixation,jsons/v1_VE250_randls_34_rotated.json,http://54.235.29.9/FacialAge/BNav_EC2/DepthDuration/v2_depth_duration_MTurk/v2_DepthDuration_HTML.html#137,137,1280,570,1280,720,8-20-2022,10-58-23,50,depth_duration_stimuli/001136_2014-06-17_15-19-41_260595134347_rgbf000076-resize_3/001136_2014-06-17_15-19-41_260595134347_rgbf000076-resize_3-target.png,250,1.8655,3,2801,248,feet,jsons/v1_VE250_randls_34_rotated.json,557227,699442,31,Woman
50,794027,DepthScenes,duration_manipulation_targetAtFixation,jsons/v1_VE250_randls_34_rotated.json,http://54.235.29.9/FacialAge/BNav_EC2/DepthDuration/v2_depth_duration_MTurk/v2_DepthDuration_HTML.html#137,137,1280,570,1280,720,8-20-2022,10-58-23,51,depth_duration_stimuli/001164_2014-06-17_15-35-46_260595134347_rgbf000085-resize_3/001164_2014-06-17_15-35-46_260595134347_rgbf000085-resize_3-target.png,250,2.354,2,5440,250,feet,jsons/v1_VE250_randls_34_rotated.json,557227,699442,31,Woman
51,794027,DepthScenes,duration_manipulation_targetAtFixation,jsons/v1_VE250_randls_34_rotated.json,http://54.235.29.9/FacialAge/BNav_EC2/DepthDuration/v2_depth_duration_MTurk/v2_DepthDuration_HTML.html#137,137,1280,570,1280,720,8-20-2022,10-58-23,52,depth_duration_stimuli/002136_2014-06-25_21-18-03_260595134347_rgbf000109-resize_3/002136_2014-06-25_21-18-03_260595134347_rgbf000109-resize_3-target.png,250,1.9569999999999999,3,4610,250,feet,jsons/v1_VE250_randls_34_rotated.json,557227,699442,31,Woman
52,794027,DepthScenes,duration_manipulation_targetAtFixation,jsons/v1_VE250_randls_34_rotated.json,http://54.235.29.9/FacialAge/BNav_EC2/DepthDuration/v2_depth_duration_MTurk/v2_DepthDuration_HTML.html#137,137,1280,570,1280,720,8-20-2022,10-58-23,53,depth_duration_stimuli/002964_2014-06-08_17-46-11_094959634447_rgbf000091-resize_4/002964_2014-06-08_17-46-11_094959634447_rgbf000091-resize_4-target.png,250,1.6909999999999998,2,2793,253,feet,jsons/v1_VE250_randls_34_rotated.json,557227,699442,31,Woman
53,794027,DepthScenes,duration_manipulation_targetAtFixation,jsons/v1_VE250_randls_34_rotated.json,http://54.235.29.9/FacialAge/BNav_EC2/DepthDuration/v2_depth_duration_MTurk/v2_DepthDuration_HTML.html#137,137,1280,570,1280,720,8-20-2022,10-58-23,54,depth_duration_stimuli/000137_2014-05-20_17-04-49_260595134347_rgbf000120-resize_1/000137_2014-05-20_17-04-49_260595134347_rgbf000120-resize_1-target.png,250,3.786,4,2959,241,feet,jsons/v1_VE250_randls_34_rotated.json,557227,699442,31,Woman
54,794027,DepthScenes,duration_manipulation_targetAtFixation,jsons/v1_VE250_randls_34_rotated.json,http://54.235.29.9/FacialAge/BNav_EC2/DepthDuration/v2_depth_duration_MTurk/v2_DepthDuration_HTML.html#137,137,1280,570,1280,720,8-20-2022,10-58-23,55,depth_duration_stimuli/000736_2014-06-08_18-24-15_260595134347_rgbf000206-resize_3/000736_2014-06-08_18-24-15_260595134347_rgbf000206-resize_3-target.png,250,3.515,6,3061,239,feet,jsons/v1_VE250_randls_34_rotated.json,557227,699442,31,Woman
55,794027,DepthScenes,duration_manipulation_targetAtFixation,jsons/v1_VE250_randls_34_rotated.json,http://54.235.29.9/FacialAge/BNav_EC2/DepthDuration/v2_depth_duration_MTurk/v2_DepthDuration_HTML.html#137,137,1280,570,1280,720,8-20-2022,10-58-23,56,depth_duration_stimuli/002750_2014-06-22_19-08-03_094959634447_rgbf000094-resize_4/002750_2014-06-22_19-08-03_094959634447_rgbf000094-resize_4-target.png,250,2.354,6,2820,247,feet,jsons/v1_VE250_randls_34_rotated.json,557227,699442,31,Woman
56,794027,DepthScenes,duration_manipulation_targetAtFixation,jsons/v1_VE250_randls_34_rotated.json,http://54.235.29.9/FacialAge/BNav_EC2/DepthDuration/v2_depth_duration_MTurk/v2_DepthDuration_HTML.html#137,137,1280,570,1280,720,8-20-2022,10-58-23,57,depth_duration_stimuli/002549_2014-06-24_13-41-39_094959634447_rgbf000022-resize_3/002549_2014-06-24_13-41-39_094959634447_rgbf000022-resize_3-target.png,250,1.476,3,2827,255,feet,jsons/v1_VE250_randls_34_rotated.json,557227,699442,31,Woman
57,794027,DepthScenes,duration_manipulation_targetAtFixation,jsons/v1_VE250_randls_34_rotated.json,http://54.235.29.9/FacialAge/BNav_EC2/DepthDuration/v2_depth_duration_MTurk/v2_DepthDuration_HTML.html#137,137,1280,570,1280,720,8-20-2022,10-58-23,58,depth_duration_stimuli/000927_2014-06-09_16-32-30_260595134347_rgbf000123-resize_3/000927_2014-06-09_16-32-30_260595134347_rgbf000123-resize_3-target.png,250,2.6785,6,2791,248,feet,jsons/v1_VE250_randls_34_rotated.json,557227,699442,31,Woman
58,794027,DepthScenes,duration_manipulation_targetAtFixation,jsons/v1_VE250_randls_34_rotated.json,http://54.235.29.9/FacialAge/BNav_EC2/DepthDuration/v2_depth_duration_MTurk/v2_DepthDuration_HTML.html#137,137,1280,570,1280,720,8-20-2022,10-58-23,59,depth_duration_stimuli/001110_2014-06-15_17-25-28_260595134347_rgbf000150-resize_1/001110_2014-06-15_17-25-28_260595134347_rgbf000150-resize_1-target.png,250,1.7115,3,2835,242,feet,jsons/v1_VE250_randls_34_rotated.json,557227,699442,31,Woman
59,794027,DepthScenes,duration_manipulation_targetAtFixation,jsons/v1_VE250_randls_34_rotated.json,http://54.235.29.9/FacialAge/BNav_EC2/DepthDuration/v2_depth_duration_MTurk/v2_DepthDuration_HTML.html#137,137,1280,570,1280,720,8-20-2022,10-58-23,60,depth_duration_stimuli/003010_2014-06-15_12-54-35_094959634447_rgbf000112-resize_0/003010_2014-06-15_12-54-35_094959634447_rgbf000112-resize_0-target.png,250,3.1185,6,3376,253,feet,jsons/v1_VE250_randls_34_rotated.json,557227,699442,31,Woman
60,794027,DepthScenes,duration_manipulation_targetAtFixation,jsons/v1_VE250_randls_34_rotated.json,http://54.235.29.9/FacialAge/BNav_EC2/DepthDuration/v2_depth_duration_MTurk/v2_DepthDuration_HTML.html#137,137,1280,570,1280,720,8-20-2022,10-58-23,61,depth_duration_stimuli/001810_2014-06-26_20-51-35_260595134347_rgbf000040-resize_3/001810_2014-06-26_20-51-35_260595134347_rgbf000040-resize_3-target.png,250,2.2525,3,2783,255,feet,jsons/v1_VE250_randls_34_rotated.json,557227,699442,31,Woman
61,794027,DepthScenes,duration_manipulation_targetAtFixation,jsons/v1_VE250_randls_34_rotated.json,http://54.235.29.9/FacialAge/BNav_EC2/DepthDuration/v2_depth_duration_MTurk/v2_DepthDuration_HTML.html#137,137,1280,570,1280,720,8-20-2022,10-58-23,62,depth_duration_stimuli/002995_2014-06-15_12-31-26_094959634447_rgbf000150-resize_1/002995_2014-06-15_12-31-26_094959634447_rgbf000150-resize_1-target.png,250,3.8360000000000003,6,2775,256,feet,jsons/v1_VE250_randls_34_rotated.json,557227,699442,31,Woman
62,794027,DepthScenes,duration_manipulation_targetAtFixation,jsons/v1_VE250_randls_34_rotated.json,http://54.235.29.9/FacialAge/BNav_EC2/DepthDuration/v2_depth_duration_MTurk/v2_DepthDuration_HTML.html#137,137,1280,570,1280,720,8-20-2022,10-58-23,63,depth_duration_stimuli/002748_2014-06-22_19-07-22_094959634447_rgbf000078-resize_1/002748_2014-06-22_19-07-22_094959634447_rgbf000078-resize_1-target.png,250,4.6705,6,2975,244,feet,jsons/v1_VE250_randls_34_rotated.json,557227,699442,31,Woman
63,794027,DepthScenes,duration_manipulation_targetAtFixation,jsons/v1_VE250_randls_34_rotated.json,http://54.235.29.9/FacialAge/BNav_EC2/DepthDuration/v2_depth_duration_MTurk/v2_DepthDuration_HTML.html#137,137,1280,570,1280,720,8-20-2022,10-58-23,64,depth_duration_stimuli/002103_2014-06-25_20-00-40_260595134347_rgbf000049-resize_0/002103_2014-06-25_20-00-40_260595134347_rgbf000049-resize_0-target.png,250,4.105,4,4026,253,feet,jsons/v1_VE250_randls_34_rotated.json,557227,699442,31,Woman
64,794027,DepthScenes,duration_manipulation_targetAtFixation,jsons/v1_VE250_randls_34_rotated.json,http://54.235.29.9/FacialAge/BNav_EC2/DepthDuration/v2_depth_duration_MTurk/v2_DepthDuration_HTML.html#137,137,1280,570,1280,720,8-20-2022,10-58-23,65,depth_duration_stimuli/002039_2014-06-24_20-22-38_260595134347_rgbf000084-resize_1/002039_2014-06-24_20-22-38_260595134347_rgbf000084-resize_1-target.png,250,4.408,6,2807,265,feet,jsons/v1_VE250_randls_34_rotated.json,557227,699442,31,Woman
65,794027,DepthScenes,duration_manipulation_targetAtFixation,jsons/v1_VE250_randls_34_rotated.json,http://54.235.29.9/FacialAge/BNav_EC2/DepthDuration/v2_depth_duration_MTurk/v2_DepthDuration_HTML.html#137,137,1280,570,1280,720,8-20-2022,10-58-23,66,depth_duration_stimuli/001540_2014-06-20_17-01-05_260595134347_rgbf000086-resize_2/001540_2014-06-20_17-01-05_260595134347_rgbf000086-resize-original.jpg,250,1.459,0,2995,252,feet,jsons/v1_VE250_randls_34_rotated.json,557227,699442,31,Woman
66,794027,DepthScenes,duration_manipulation_targetAtFixation,jsons/v1_VE250_randls_34_rotated.json,http://54.235.29.9/FacialAge/BNav_EC2/DepthDuration/v2_depth_duration_MTurk/v2_DepthDuration_HTML.html#137,137,1280,570,1280,720,8-20-2022,10-58-23,67,depth_duration_stimuli/000742_2014-06-08_18-48-09_260595134347_rgbf000164-resize_4/000742_2014-06-08_18-48-09_260595134347_rgbf000164-resize_4-target.png,250,4.632,6,3844,253,feet,jsons/v1_VE250_randls_34_rotated.json,557227,699442,31,Woman
67,794027,DepthScenes,duration_manipulation_targetAtFixation,jsons/v1_VE250_randls_34_rotated.json,http://54.235.29.9/FacialAge/BNav_EC2/DepthDuration/v2_depth_duration_MTurk/v2_DepthDuration_HTML.html#137,137,1280,570,1280,720,8-20-2022,10-58-23,68,depth_duration_stimuli/001066_2014-06-08_22-03-20_260595134347_rgbf000066-resize_4/001066_2014-06-08_22-03-20_260595134347_rgbf000066-resize_4-target.png,250,4.2330000000000005,6,2842,253,feet,jsons/v1_VE250_randls_34_rotated.json,557227,699442,31,Woman
68,794027,DepthScenes,duration_manipulation_targetAtFixation,jsons/v1_VE250_randls_34_rotated.json,http://54.235.29.9/FacialAge/BNav_EC2/DepthDuration/v2_depth_duration_MTurk/v2_DepthDuration_HTML.html#137,137,1280,570,1280,720,8-20-2022,10-58-23,69,depth_duration_stimuli/002199_2014-06-28_18-33-56_260595134347_rgbf000074-resize_0/002199_2014-06-28_18-33-56_260595134347_rgbf000074-resize_0-target.png,250,1.996,2,4086,259,feet,jsons/v1_VE250_randls_34_rotated.json,557227,699442,31,Woman
69,794027,DepthScenes,duration_manipulation_targetAtFixation,jsons/v1_VE250_randls_34_rotated.json,http://54.235.29.9/FacialAge/BNav_EC2/DepthDuration/v2_depth_duration_MTurk/v2_DepthDuration_HTML.html#137,137,1280,570,1280,720,8-20-2022,10-58-23,70,depth_duration_stimuli/001056_2014-06-08_18-46-44_260595134347_rgbf000068-resize_0/001056_2014-06-08_18-46-44_260595134347_rgbf000068-resize_0-target.png,250,2.6625,6,3791,258,feet,jsons/v1_VE250_randls_34_rotated.json,557227,699442,31,Woman
70,794027,DepthScenes,duration_manipulation_targetAtFixation,jsons/v1_VE250_randls_34_rotated.json,http://54.235.29.9/FacialAge/BNav_EC2/DepthDuration/v2_depth_duration_MTurk/v2_DepthDuration_HTML.html#137,137,1280,570,1280,720,8-20-2022,10-58-23,71,depth_duration_stimuli/002805_2014-06-22_19-54-03_094959634447_rgbf000079-resize_1/002805_2014-06-22_19-54-03_094959634447_rgbf000079-resize_1-target.png,250,3.1439999999999997,6,3591,242,feet,jsons/v1_VE250_randls_34_rotated.json,557227,699442,31,Woman
71,794027,DepthScenes,duration_manipulation_targetAtFixation,jsons/v1_VE250_randls_34_rotated.json,http://54.235.29.9/FacialAge/BNav_EC2/DepthDuration/v2_depth_duration_MTurk/v2_DepthDuration_HTML.html#137,137,1280,570,1280,720,8-20-2022,10-58-23,72,depth_duration_stimuli/000906_2014-06-08_13-35-43_260595134347_rgbf000155-resize_1/000906_2014-06-08_13-35-43_260595134347_rgbf000155-resize_1-target.png,250,2.8489999999999998,6,4435,241,feet,jsons/v1_VE250_randls_34_rotated.json,557227,699442,31,Woman
72,794027,DepthScenes,duration_manipulation_targetAtFixation,jsons/v1_VE250_randls_34_rotated.json,http://54.235.29.9/FacialAge/BNav_EC2/DepthDuration/v2_depth_duration_MTurk/v2_DepthDuration_HTML.html#137,137,1280,570,1280,720,8-20-2022,10-58-23,73,depth_duration_stimuli/003338_2014-05-20_11-01-23_094959634447_rgbf000051-resize_6/003338_2014-05-20_11-01-23_094959634447_rgbf000051-resize_6-target.png,250,1.693,2,7691,240,feet,jsons/v1_VE250_randls_34_rotated.json,557227,699442,31,Woman
73,794027,DepthScenes,duration_manipulation_targetAtFixation,jsons/v1_VE250_randls_34_rotated.json,http://54.235.29.9/FacialAge/BNav_EC2/DepthDuration/v2_depth_duration_MTurk/v2_DepthDuration_HTML.html#137,137,1280,570,1280,720,8-20-2022,10-58-23,74,depth_duration_stimuli/002509_2014-06-24_13-19-22_094959634447_rgbf000077-resize_0/002509_2014-06-24_13-19-22_094959634447_rgbf000077-resize_0-target.png,250,1.3065,2,2987,252,feet,jsons/v1_VE250_randls_34_rotated.json,557227,699442,31,Woman
74,794027,DepthScenes,duration_manipulation_targetAtFixation,jsons/v1_VE250_randls_34_rotated.json,http://54.235.29.9/FacialAge/BNav_EC2/DepthDuration/v2_depth_duration_MTurk/v2_DepthDuration_HTML.html#137,137,1280,570,1280,720,8-20-2022,10-58-23,75,depth_duration_stimuli/003490_2014-05-21_15-50-11_094959634447_rgbf000101-resize_3/003490_2014-05-21_15-50-11_094959634447_rgbf000101-resize_3-target.png,250,3.6445,6,4231,252,feet,jsons/v1_VE250_randls_34_rotated.json,557227,699442,31,Woman
75,794027,DepthScenes,duration_manipulation_targetAtFixation,jsons/v1_VE250_randls_34_rotated.json,http://54.235.29.9/FacialAge/BNav_EC2/DepthDuration/v2_depth_duration_MTurk/v2_DepthDuration_HTML.html#137,137,1280,570,1280,720,8-20-2022,10-58-23,76,depth_duration_stimuli/001175_2014-06-17_15-45-55_260595134347_rgbf000129-resize_4/001175_2014-06-17_15-45-55_260595134347_rgbf000129-resize_4-target.png,250,4.255,6,3039,263,feet,jsons/v1_VE250_randls_34_rotated.json,557227,699442,31,Woman
76,794027,DepthScenes,duration_manipulation_targetAtFixation,jsons/v1_VE250_randls_34_rotated.json,http://54.235.29.9/FacialAge/BNav_EC2/DepthDuration/v2_depth_duration_MTurk/v2_DepthDuration_HTML.html#137,137,1280,570,1280,720,8-20-2022,10-58-23,77,depth_duration_stimuli/003423_2014-05-21_10-23-26_094959634447_rgbf002665-resize_2/003423_2014-05-21_10-23-26_094959634447_rgbf002665-resize_2-target.png,250,3.2575,6,2971,246,feet,jsons/v1_VE250_randls_34_rotated.json,557227,699442,31,Woman
77,794027,DepthScenes,duration_manipulation_targetAtFixation,jsons/v1_VE250_randls_34_rotated.json,http://54.235.29.9/FacialAge/BNav_EC2/DepthDuration/v2_depth_duration_MTurk/v2_DepthDuration_HTML.html#137,137,1280,570,1280,720,8-20-2022,10-58-23,78,depth_duration_stimuli/002905_2014-06-03_18-04-43_094959634447_rgbf000151-resize_2/002905_2014-06-03_18-04-43_094959634447_rgbf000151-resize_2-target.png,250,2.0295,2,3761,247,feet,jsons/v1_VE250_randls_34_rotated.json,557227,699442,31,Woman
78,794027,DepthScenes,duration_manipulation_targetAtFixation,jsons/v1_VE250_randls_34_rotated.json,http://54.235.29.9/FacialAge/BNav_EC2/DepthDuration/v2_depth_duration_MTurk/v2_DepthDuration_HTML.html#137,137,1280,570,1280,720,8-20-2022,10-58-23,79,depth_duration_stimuli/000635_2014-06-08_16-38-42_260595134347_rgbf000106-resize_1/000635_2014-06-08_16-38-42_260595134347_rgbf000106-resize_1-target.png,250,2.074,4,4041,245,feet,jsons/v1_VE250_randls_34_rotated.json,557227,699442,31,Woman
79,794027,DepthScenes,duration_manipulation_targetAtFixation,jsons/v1_VE250_randls_34_rotated.json,http://54.235.29.9/FacialAge/BNav_EC2/DepthDuration/v2_depth_duration_MTurk/v2_DepthDuration_HTML.html#137,137,1280,570,1280,720,8-20-2022,10-58-23,80,depth_duration_stimuli/002279_2014-06-28_18-55-32_260595134347_rgbf000040-resize_5/002279_2014-06-28_18-55-32_260595134347_rgbf000040-resize_5-target.png,250,1.5043333333333,2,4787,249,feet,jsons/v1_VE250_randls_34_rotated.json,557227,699442,31,Woman
80,794027,DepthScenes,duration_manipulation_targetAtFixation,jsons/v1_VE250_randls_34_rotated.json,http://54.235.29.9/FacialAge/BNav_EC2/DepthDuration/v2_depth_duration_MTurk/v2_DepthDuration_HTML.html#137,137,1280,570,1280,720,8-20-2022,10-58-23,81,depth_duration_stimuli/001828_2014-06-26_21-40-03_260595134347_rgbf000024-resize_0/001828_2014-06-26_21-40-03_260595134347_rgbf000024-resize_0-target.png,250,4.8260000000000005,6,3185,244,feet,jsons/v1_VE250_randls_34_rotated.json,557227,699442,31,Woman
81,794027,DepthScenes,duration_manipulation_targetAtFixation,jsons/v1_VE250_randls_34_rotated.json,http://54.235.29.9/FacialAge/BNav_EC2/DepthDuration/v2_depth_duration_MTurk/v2_DepthDuration_HTML.html#137,137,1280,570,1280,720,8-20-2022,10-58-23,82,depth_duration_stimuli/000009_2014-05-26_14-32-05_260595134347_rgbf000034-resize_3/000009_2014-05-26_14-32-05_260595134347_rgbf000034-resize_3-target.png,250,3.8715,6,3092,254,feet,jsons/v1_VE250_randls_34_rotated.json,557227,699442,31,Woman
82,794027,DepthScenes,duration_manipulation_targetAtFixation,jsons/v1_VE250_randls_34_rotated.json,http://54.235.29.9/FacialAge/BNav_EC2/DepthDuration/v2_depth_duration_MTurk/v2_DepthDuration_HTML.html#137,137,1280,570,1280,720,8-20-2022,10-58-23,83,depth_duration_stimuli/001584_2014-06-20_11-07-43_260595134347_rgbf000002-resize_1/001584_2014-06-20_11-07-43_260595134347_rgbf000002-resize_1-target.png,250,3.53,3,3716,236,feet,jsons/v1_VE250_randls_34_rotated.json,557227,699442,31,Woman
83,794027,DepthScenes,duration_manipulation_targetAtFixation,jsons/v1_VE250_randls_34_rotated.json,http://54.235.29.9/FacialAge/BNav_EC2/DepthDuration/v2_depth_duration_MTurk/v2_DepthDuration_HTML.html#137,137,1280,570,1280,720,8-20-2022,10-58-23,84,depth_duration_stimuli/003621_2014-05-23_18-06-08_094959634447_rgbf000101-resize_1/003621_2014-05-23_18-06-08_094959634447_rgbf000101-resize_1-target.png,250,3.9835,5,3094,252,feet,jsons/v1_VE250_randls_34_rotated.json,557227,699442,31,Woman
84,794027,DepthScenes,duration_manipulation_targetAtFixation,jsons/v1_VE250_randls_34_rotated.json,http://54.235.29.9/FacialAge/BNav_EC2/DepthDuration/v2_depth_duration_MTurk/v2_DepthDuration_HTML.html#137,137,1280,570,1280,720,8-20-2022,10-58-23,85,depth_duration_stimuli/001650_2014-06-20_12-09-00_260595134347_rgbf000087-resize_3/001650_2014-06-20_12-09-00_260595134347_rgbf000087-resize_3-target.png,250,1.9505,2,3713,252,feet,jsons/v1_VE250_randls_34_rotated.json,557227,699442,31,Woman
85,794027,DepthScenes,duration_manipulation_targetAtFixation,jsons/v1_VE250_randls_34_rotated.json,http://54.235.29.9/FacialAge/BNav_EC2/DepthDuration/v2_depth_duration_MTurk/v2_DepthDuration_HTML.html#137,137,1280,570,1280,720,8-20-2022,10-58-23,86,depth_duration_stimuli/000682_2014-06-08_23-14-58_260595134347_rgbf000041-resize_5/000682_2014-06-08_23-14-58_260595134347_rgbf000041-resize_5-target.png,250,2.7239999999999998,3,4096,251,feet,jsons/v1_VE250_randls_34_rotated.json,557227,699442,31,Woman
86,794027,DepthScenes,duration_manipulation_targetAtFixation,jsons/v1_VE250_randls_34_rotated.json,http://54.235.29.9/FacialAge/BNav_EC2/DepthDuration/v2_depth_duration_MTurk/v2_DepthDuration_HTML.html#137,137,1280,570,1280,720,8-20-2022,10-58-23,87,depth_duration_stimuli/002660_2014-06-13_15-44-18_094959634447_rgbf001878-resize_2/002660_2014-06-13_15-44-18_094959634447_rgbf001878-resize_2-target.png,250,3.576,4,3674,251,feet,jsons/v1_VE250_randls_34_rotated.json,557227,699442,31,Woman
87,794027,DepthScenes,duration_manipulation_targetAtFixation,jsons/v1_VE250_randls_34_rotated.json,http://54.235.29.9/FacialAge/BNav_EC2/DepthDuration/v2_depth_duration_MTurk/v2_DepthDuration_HTML.html#137,137,1280,570,1280,720,8-20-2022,10-58-23,88,depth_duration_stimuli/002153_2014-06-25_21-27-18_260595134347_rgbf000038-resize_5/002153_2014-06-25_21-27-18_260595134347_rgbf000038-resize_5-target.png,250,2.505,5,3284,244,feet,jsons/v1_VE250_randls_34_rotated.json,557227,699442,31,Woman
88,794027,DepthScenes,duration_manipulation_targetAtFixation,jsons/v1_VE250_randls_34_rotated.json,http://54.235.29.9/FacialAge/BNav_EC2/DepthDuration/v2_depth_duration_MTurk/v2_DepthDuration_HTML.html#137,137,1280,570,1280,720,8-20-2022,10-58-23,89,depth_duration_stimuli/000780_2014-06-08_22-28-29_260595134347_rgbf000126-resize_1/000780_2014-06-08_22-28-29_260595134347_rgbf000126-resize_1-target.png,250,3.3825,5,3540,257,feet,jsons/v1_VE250_randls_34_rotated.json,557227,699442,31,Woman
89,794027,DepthScenes,duration_manipulation_targetAtFixation,jsons/v1_VE250_randls_34_rotated.json,http://54.235.29.9/FacialAge/BNav_EC2/DepthDuration/v2_depth_duration_MTurk/v2_DepthDuration_HTML.html#137,137,1280,570,1280,720,8-20-2022,10-58-23,90,depth_duration_stimuli/002445_2014-06-28_20-32-16_260595134347_rgbf000029-resize_4/002445_2014-06-28_20-32-16_260595134347_rgbf000029-resize_4-target.png,250,2.5315,4,2921,253,feet,jsons/v1_VE250_randls_34_rotated.json,557227,699442,31,Woman
90,794027,DepthScenes,duration_manipulation_targetAtFixation,jsons/v1_VE250_randls_34_rotated.json,http://54.235.29.9/FacialAge/BNav_EC2/DepthDuration/v2_depth_duration_MTurk/v2_DepthDuration_HTML.html#137,137,1280,570,1280,720,8-20-2022,10-58-23,91,depth_duration_stimuli/002678_2014-06-13_16-15-32_094959634447_rgbf000151-resize_6/002678_2014-06-13_16-15-32_094959634447_rgbf000151-resize_6-target.png,250,2.1830000000000003,4,3651,240,feet,jsons/v1_VE250_randls_34_rotated.json,557227,699442,31,Woman
91,794027,DepthScenes,duration_manipulation_targetAtFixation,jsons/v1_VE250_randls_34_rotated.json,http://54.235.29.9/FacialAge/BNav_EC2/DepthDuration/v2_depth_duration_MTurk/v2_DepthDuration_HTML.html#137,137,1280,570,1280,720,8-20-2022,10-58-23,92,depth_duration_stimuli/000368_2014-06-09_15-53-01_260595134347_rgbf000155-resize_2/000368_2014-06-09_15-53-01_260595134347_rgbf000155-resize_2-target.png,250,2.4859999999999998,3,3840,259,feet,jsons/v1_VE250_randls_34_rotated.json,557227,699442,31,Woman
92,794027,DepthScenes,duration_manipulation_targetAtFixation,jsons/v1_VE250_randls_34_rotated.json,http://54.235.29.9/FacialAge/BNav_EC2/DepthDuration/v2_depth_duration_MTurk/v2_DepthDuration_HTML.html#137,137,1280,570,1280,720,8-20-2022,10-58-23,93,depth_duration_stimuli/003079_2014-06-15_15-18-20_094959634447_rgbf000152-resize_8/003079_2014-06-15_15-18-20_094959634447_rgbf000152-resize_8-target.png,250,2.8775,5,4276,248,feet,jsons/v1_VE250_randls_34_rotated.json,557227,699442,31,Woman
93,794027,DepthScenes,duration_manipulation_targetAtFixation,jsons/v1_VE250_randls_34_rotated.json,http://54.235.29.9/FacialAge/BNav_EC2/DepthDuration/v2_depth_duration_MTurk/v2_DepthDuration_HTML.html#137,137,1280,570,1280,720,8-20-2022,10-58-23,94,depth_duration_stimuli/000506_2014-06-08_23-21-00_260595134347_rgbf000070-resize_7/000506_2014-06-08_23-21-00_260595134347_rgbf000070-resize_7-target.png,250,4.0585,6,3027,255,feet,jsons/v1_VE250_randls_34_rotated.json,557227,699442,31,Woman
94,794027,DepthScenes,duration_manipulation_targetAtFixation,jsons/v1_VE250_randls_34_rotated.json,http://54.235.29.9/FacialAge/BNav_EC2/DepthDuration/v2_depth_duration_MTurk/v2_DepthDuration_HTML.html#137,137,1280,570,1280,720,8-20-2022,10-58-23,95,depth_duration_stimuli/000549_2014-06-08_22-10-24_260595134347_rgbf000247-resize_3/000549_2014-06-08_22-10-24_260595134347_rgbf000247-resize_3-target.png,250,1.841,4,3516,253,feet,jsons/v1_VE250_randls_34_rotated.json,557227,699442,31,Woman
95,794027,DepthScenes,duration_manipulation_targetAtFixation,jsons/v1_VE250_randls_34_rotated.json,http://54.235.29.9/FacialAge/BNav_EC2/DepthDuration/v2_depth_duration_MTurk/v2_DepthDuration_HTML.html#137,137,1280,570,1280,720,8-20-2022,10-58-23,96,depth_duration_stimuli/001055_2014-06-08_18-45-35_260595134347_rgbf000111-resize_4/001055_2014-06-08_18-45-35_260595134347_rgbf000111-resize_4-target.png,250,2.4290000000000003,4,4063,260,feet,jsons/v1_VE250_randls_34_rotated.json,557227,699442,31,Woman
96,794027,DepthScenes,duration_manipulation_targetAtFixation,jsons/v1_VE250_randls_34_rotated.json,http://54.235.29.9/FacialAge/BNav_EC2/DepthDuration/v2_depth_duration_MTurk/v2_DepthDuration_HTML.html#137,137,1280,570,1280,720,8-20-2022,10-58-23,97,depth_duration_stimuli/000749_2014-06-08_21-55-06_260595134347_rgbf000070-resize_2/000749_2014-06-08_21-55-06_260595134347_rgbf000070-resize_2-target.png,250,2.331,4,2499,251,feet,jsons/v1_VE250_randls_34_rotated.json,557227,699442,31,Woman
97,794027,DepthScenes,duration_manipulation_targetAtFixation,jsons/v1_VE250_randls_34_rotated.json,http://54.235.29.9/FacialAge/BNav_EC2/DepthDuration/v2_depth_duration_MTurk/v2_DepthDuration_HTML.html#137,137,1280,570,1280,720,8-20-2022,10-58-23,98,depth_duration_stimuli/002788_2014-06-22_19-36-03_094959634447_rgbf000088-resize_2/002788_2014-06-22_19-36-03_094959634447_rgbf000088-resize_2-target.png,250,1.6465,3,2370,244,feet,jsons/v1_VE250_randls_34_rotated.json,557227,699442,31,Woman
98,794027,DepthScenes,duration_manipulation_targetAtFixation,jsons/v1_VE250_randls_34_rotated.json,http://54.235.29.9/FacialAge/BNav_EC2/DepthDuration/v2_depth_duration_MTurk/v2_DepthDuration_HTML.html#137,137,1280,570,1280,720,8-20-2022,10-58-23,99,depth_duration_stimuli/001222_2014-06-17_16-24-06_260595134347_rgbf000073-resize_0/001222_2014-06-17_16-24-06_260595134347_rgbf000073-resize-original.jpg,250,1.4385,0,2565,244,feet,jsons/v1_VE250_randls_34_rotated.json,557227,699442,31,Woman
99,794027,DepthScenes,duration_manipulation_targetAtFixation,jsons/v1_VE250_randls_34_rotated.json,http://54.235.29.9/FacialAge/BNav_EC2/DepthDuration/v2_depth_duration_MTurk/v2_DepthDuration_HTML.html#137,137,1280,570,1280,720,8-20-2022,10-58-23,100,depth_duration_stimuli/000502_2014-06-08_23-02-32_260595134347_rgbf000063-resize_4/000502_2014-06-08_23-02-32_260595134347_rgbf000063-resize_4-target.png,250,2.431,4,2653,236,feet,jsons/v1_VE250_randls_34_rotated.json,557227,699442,31,Woman
100,794027,DepthScenes,duration_manipulation_targetAtFixation,jsons/v1_VE250_randls_34_rotated.json,http://54.235.29.9/FacialAge/BNav_EC2/DepthDuration/v2_depth_duration_MTurk/v2_DepthDuration_HTML.html#137,137,1280,570,1280,720,8-20-2022,10-58-23,101,depth_duration_stimuli/001199_2014-06-17_16-03-48_260595134347_rgbf000077-resize_0/001199_2014-06-17_16-03-48_260595134347_rgbf000077-resize_0-target.png,250,3.4375,4,2547,245,feet,jsons/v1_VE250_randls_34_rotated.json,557227,699442,31,Woman
101,794027,DepthScenes,duration_manipulation_targetAtFixation,jsons/v1_VE250_randls_34_rotated.json,http://54.235.29.9/FacialAge/BNav_EC2/DepthDuration/v2_depth_duration_MTurk/v2_DepthDuration_HTML.html#137,137,1280,570,1280,720,8-20-2022,10-58-23,102,depth_duration_stimuli/002545_2014-06-24_13-38-53_094959634447_rgbf000080-resize_4/002545_2014-06-24_13-38-53_094959634447_rgbf000080-resize_4-target.png,250,1.9205,4,2186,263,feet,jsons/v1_VE250_randls_34_rotated.json,557227,699442,31,Woman
102,794027,DepthScenes,duration_manipulation_targetAtFixation,jsons/v1_VE250_randls_34_rotated.json,http://54.235.29.9/FacialAge/BNav_EC2/DepthDuration/v2_depth_duration_MTurk/v2_DepthDuration_HTML.html#137,137,1280,570,1280,720,8-20-2022,10-58-23,103,depth_duration_stimuli/001092_2014-06-15_17-34-58_260595134347_rgbf000171-resize_3/001092_2014-06-15_17-34-58_260595134347_rgbf000171-resize_3-target.png,250,2.6935,5,2253,256,feet,jsons/v1_VE250_randls_34_rotated.json,557227,699442,31,Woman
103,794027,DepthScenes,duration_manipulation_targetAtFixation,jsons/v1_VE250_randls_34_rotated.json,http://54.235.29.9/FacialAge/BNav_EC2/DepthDuration/v2_depth_duration_MTurk/v2_DepthDuration_HTML.html#137,137,1280,570,1280,720,8-20-2022,10-58-23,104,depth_duration_stimuli/001815_2014-06-26_20-52-55_260595134347_rgbf000020-resize_0/001815_2014-06-26_20-52-55_260595134347_rgbf000020-resize_0-target.png,250,3.3865,6,2277,241,feet,jsons/v1_VE250_randls_34_rotated.json,557227,699442,31,Woman
104,794027,DepthScenes,duration_manipulation_targetAtFixation,jsons/v1_VE250_randls_34_rotated.json,http://54.235.29.9/FacialAge/BNav_EC2/DepthDuration/v2_depth_duration_MTurk/v2_DepthDuration_HTML.html#137,137,1280,570,1280,720,8-20-2022,10-58-23,105,depth_duration_stimuli/001808_2014-06-26_20-50-58_260595134347_rgbf000029-resize_1/001808_2014-06-26_20-50-58_260595134347_rgbf000029-resize_1-target.png,250,4.249,6,2355,260,feet,jsons/v1_VE250_randls_34_rotated.json,557227,699442,31,Woman
105,794027,DepthScenes,duration_manipulation_targetAtFixation,jsons/v1_VE250_randls_34_rotated.json,http://54.235.29.9/FacialAge/BNav_EC2/DepthDuration/v2_depth_duration_MTurk/v2_DepthDuration_HTML.html#137,137,1280,570,1280,720,8-20-2022,10-58-23,106,depth_duration_stimuli/002340_2014-06-28_20-05-46_260595134347_rgbf000113-resize_0/002340_2014-06-28_20-05-46_260595134347_rgbf000113-resize_0-target.png,250,2.4735,5,2297,243,feet,jsons/v1_VE250_randls_34_rotated.json,557227,699442,31,Woman
106,794027,DepthScenes,duration_manipulation_targetAtFixation,jsons/v1_VE250_randls_34_rotated.json,http://54.235.29.9/FacialAge/BNav_EC2/DepthDuration/v2_depth_duration_MTurk/v2_DepthDuration_HTML.html#137,137,1280,570,1280,720,8-20-2022,10-58-23,107,depth_duration_stimuli/001016_2014-06-09_16-16-10_260595134347_rgbf000112-resize_5/001016_2014-06-09_16-16-10_260595134347_rgbf000112-resize_5-target.png,250,1.6565,3,2823,245,feet,jsons/v1_VE250_randls_34_rotated.json,557227,699442,31,Woman
107,794027,DepthScenes,duration_manipulation_targetAtFixation,jsons/v1_VE250_randls_34_rotated.json,http://54.235.29.9/FacialAge/BNav_EC2/DepthDuration/v2_depth_duration_MTurk/v2_DepthDuration_HTML.html#137,137,1280,570,1280,720,8-20-2022,10-58-23,108,depth_duration_stimuli/002875_2014-06-01_15-19-00_094959634447_rgbf000151-resize_1/002875_2014-06-01_15-19-00_094959634447_rgbf000151-resize_1-target.png,250,1.9675,3,2599,243,feet,jsons/v1_VE250_randls_34_rotated.json,557227,699442,31,Woman
108,794027,DepthScenes,duration_manipulation_targetAtFixation,jsons/v1_VE250_randls_34_rotated.json,http://54.235.29.9/FacialAge/BNav_EC2/DepthDuration/v2_depth_duration_MTurk/v2_DepthDuration_HTML.html#137,137,1280,570,1280,720,8-20-2022,10-58-23,109,depth_duration_stimuli/001011_2014-06-08_23-18-54_260595134347_rgbf000044-resize_4/001011_2014-06-08_23-18-54_260595134347_rgbf000044-resize_4-target.png,250,2.4730000000000003,4,2219,258,feet,jsons/v1_VE250_randls_34_rotated.json,557227,699442,31,Woman
109,794027,DepthScenes,duration_manipulation_targetAtFixation,jsons/v1_VE250_randls_34_rotated.json,http://54.235.29.9/FacialAge/BNav_EC2/DepthDuration/v2_depth_duration_MTurk/v2_DepthDuration_HTML.html#137,137,1280,570,1280,720,8-20-2022,10-58-23,110,depth_duration_stimuli/002568_2014-06-24_13-59-21_094959634447_rgbf000062-resize_4/002568_2014-06-24_13-59-21_094959634447_rgbf000062-resize_4-target.png,250,3.015,5,2214,252,feet,jsons/v1_VE250_randls_34_rotated.json,557227,699442,31,Woman
110,794027,DepthScenes,duration_manipulation_targetAtFixation,jsons/v1_VE250_randls_34_rotated.json,http://54.235.29.9/FacialAge/BNav_EC2/DepthDuration/v2_depth_duration_MTurk/v2_DepthDuration_HTML.html#137,137,1280,570,1280,720,8-20-2022,10-58-23,111,depth_duration_stimuli/003492_2014-05-21_15-50-55_094959634447_rgbf000828-resize_1/003492_2014-05-21_15-50-55_094959634447_rgbf000828-resize_1-target.png,250,4.06875,5,2733,245,feet,jsons/v1_VE250_randls_34_rotated.json,557227,699442,31,Woman
111,794027,DepthScenes,duration_manipulation_targetAtFixation,jsons/v1_VE250_randls_34_rotated.json,http://54.235.29.9/FacialAge/BNav_EC2/DepthDuration/v2_depth_duration_MTurk/v2_DepthDuration_HTML.html#137,137,1280,570,1280,720,8-20-2022,10-58-23,112,depth_duration_stimuli/002323_2014-06-28_20-01-54_260595134347_rgbf000051-resize_4/002323_2014-06-28_20-01-54_260595134347_rgbf000051-resize_4-target.png,250,3.7310000000000003,6,2131,256,feet,jsons/v1_VE250_randls_34_rotated.json,557227,699442,31,Woman
112,794027,DepthScenes,duration_manipulation_targetAtFixation,jsons/v1_VE250_randls_34_rotated.json,http://54.235.29.9/FacialAge/BNav_EC2/DepthDuration/v2_depth_duration_MTurk/v2_DepthDuration_HTML.html#137,137,1280,570,1280,720,8-20-2022,10-58-23,113,depth_duration_stimuli/000917_2014-06-09_22-45-29_260595134347_rgbf000149-resize_3/000917_2014-06-09_22-45-29_260595134347_rgbf000149-resize_3-target.png,250,4.1865,5,2125,242,feet,jsons/v1_VE250_randls_34_rotated.json,557227,699442,31,Woman
113,794027,DepthScenes,duration_manipulation_targetAtFixation,jsons/v1_VE250_randls_34_rotated.json,http://54.235.29.9/FacialAge/BNav_EC2/DepthDuration/v2_depth_duration_MTurk/v2_DepthDuration_HTML.html#137,137,1280,570,1280,720,8-20-2022,10-58-23,114,depth_duration_stimuli/002467_2014-06-28_20-38-07_260595134347_rgbf000026-resize_2/002467_2014-06-28_20-38-07_260595134347_rgbf000026-resize_2-target.png,250,4.742,6,2090,248,feet,jsons/v1_VE250_randls_34_rotated.json,557227,699442,31,Woman
114,794027,DepthScenes,duration_manipulation_targetAtFixation,jsons/v1_VE250_randls_34_rotated.json,http://54.235.29.9/FacialAge/BNav_EC2/DepthDuration/v2_depth_duration_MTurk/v2_DepthDuration_HTML.html#137,137,1280,570,1280,720,8-20-2022,10-58-23,115,depth_duration_stimuli/002570_2014-06-24_13-59-54_094959634447_rgbf000059-resize_0/002570_2014-06-24_13-59-54_094959634447_rgbf000059-resize_0-target.png,250,4.037,3,2318,258,feet,jsons/v1_VE250_randls_34_rotated.json,557227,699442,31,Woman
115,794027,DepthScenes,duration_manipulation_targetAtFixation,jsons/v1_VE250_randls_34_rotated.json,http://54.235.29.9/FacialAge/BNav_EC2/DepthDuration/v2_depth_duration_MTurk/v2_DepthDuration_HTML.html#137,137,1280,570,1280,720,8-20-2022,10-58-23,116,depth_duration_stimuli/002639_2014-06-24_14-51-37_094959634447_rgbf000074-resize_4/002639_2014-06-24_14-51-37_094959634447_rgbf000074-resize_4-target.png,250,4.0375,4,2121,267,feet,jsons/v1_VE250_randls_34_rotated.json,557227,699442,31,Woman
116,794027,DepthScenes,duration_manipulation_targetAtFixation,jsons/v1_VE250_randls_34_rotated.json,http://54.235.29.9/FacialAge/BNav_EC2/DepthDuration/v2_depth_duration_MTurk/v2_DepthDuration_HTML.html#137,137,1280,570,1280,720,8-20-2022,10-58-23,117,depth_duration_stimuli/003292_2014-05-14_21-53-49_094959634447_rgbf000100-resize_2/003292_2014-05-14_21-53-49_094959634447_rgbf000100-resize_2-target.png,250,3.4815,4,2118,253,feet,jsons/v1_VE250_randls_34_rotated.json,557227,699442,31,Woman
117,794027,DepthScenes,duration_manipulation_targetAtFixation,jsons/v1_VE250_randls_34_rotated.json,http://54.235.29.9/FacialAge/BNav_EC2/DepthDuration/v2_depth_duration_MTurk/v2_DepthDuration_HTML.html#137,137,1280,570,1280,720,8-20-2022,10-58-23,118,depth_duration_stimuli/000943_2014-06-09_19-31-07_260595134347_rgbf000128-resize_1/000943_2014-06-09_19-31-07_260595134347_rgbf000128-resize_1-target.png,250,1.9765,3,2015,241,feet,jsons/v1_VE250_randls_34_rotated.json,557227,699442,31,Woman
118,794027,DepthScenes,duration_manipulation_targetAtFixation,jsons/v1_VE250_randls_34_rotated.json,http://54.235.29.9/FacialAge/BNav_EC2/DepthDuration/v2_depth_duration_MTurk/v2_DepthDuration_HTML.html#137,137,1280,570,1280,720,8-20-2022,10-58-23,119,depth_duration_stimuli/003070_2014-06-15_14-58-27_094959634447_rgbf000150-resize_3/003070_2014-06-15_14-58-27_094959634447_rgbf000150-resize_3-target.png,250,2.9415,4,2163,241,feet,jsons/v1_VE250_randls_34_rotated.json,557227,699442,31,Woman
119,794027,DepthScenes,duration_manipulation_targetAtFixation,jsons/v1_VE250_randls_34_rotated.json,http://54.235.29.9/FacialAge/BNav_EC2/DepthDuration/v2_depth_duration_MTurk/v2_DepthDuration_HTML.html#137,137,1280,570,1280,720,8-20-2022,10-58-23,120,depth_duration_stimuli/000787_2014-06-08_22-33-53_260595134347_rgbf000175-resize_1/000787_2014-06-08_22-33-53_260595134347_rgbf000175-resize-original.jpg,250,4.784,0,2324,246,feet,jsons/v1_VE250_randls_34_rotated.json,557227,699442,31,Woman
120,794027,DepthScenes,duration_manipulation_targetAtFixation,jsons/v1_VE250_randls_34_rotated.json,http://54.235.29.9/FacialAge/BNav_EC2/DepthDuration/v2_depth_duration_MTurk/v2_DepthDuration_HTML.html#137,137,1280,570,1280,720,8-20-2022,10-58-23,121,depth_duration_stimuli/000866_2014-06-09_20-45-42_260595134347_rgbf000139-resize_1/000866_2014-06-09_20-45-42_260595134347_rgbf000139-resize_1-target.png,250,3.2155,3,2872,255,feet,jsons/v1_VE250_randls_34_rotated.json,557227,699442,31,Woman
121,794027,DepthScenes,duration_manipulation_targetAtFixation,jsons/v1_VE250_randls_34_rotated.json,http://54.235.29.9/FacialAge/BNav_EC2/DepthDuration/v2_depth_duration_MTurk/v2_DepthDuration_HTML.html#137,137,1280,570,1280,720,8-20-2022,10-58-23,122,depth_duration_stimuli/002989_2014-06-15_12-25-03_094959634447_rgbf000150-resize_3/002989_2014-06-15_12-25-03_094959634447_rgbf000150-resize_3-target.png,250,4.1975,5,2312,253,feet,jsons/v1_VE250_randls_34_rotated.json,557227,699442,31,Woman
122,794027,DepthScenes,duration_manipulation_targetAtFixation,jsons/v1_VE250_randls_34_rotated.json,http://54.235.29.9/FacialAge/BNav_EC2/DepthDuration/v2_depth_duration_MTurk/v2_DepthDuration_HTML.html#137,137,1280,570,1280,720,8-20-2022,10-58-23,123,depth_duration_stimuli/001100_2014-06-15_17-46-26_260595134347_rgbf000225-resize_2/001100_2014-06-15_17-46-26_260595134347_rgbf000225-resize_2-target.png,250,2.24,2,2079,256,feet,jsons/v1_VE250_randls_34_rotated.json,557227,699442,31,Woman
123,794027,DepthScenes,duration_manipulation_targetAtFixation,jsons/v1_VE250_randls_34_rotated.json,http://54.235.29.9/FacialAge/BNav_EC2/DepthDuration/v2_depth_duration_MTurk/v2_DepthDuration_HTML.html#137,137,1280,570,1280,720,8-20-2022,10-58-23,124,depth_duration_stimuli/002784_2014-06-22_19-26-30_094959634447_rgbf000083-resize_3/002784_2014-06-22_19-26-30_094959634447_rgbf000083-resize_3-target.png,250,1.8046666666667,3,2077,258,feet,jsons/v1_VE250_randls_34_rotated.json,557227,699442,31,Woman
124,794027,DepthScenes,duration_manipulation_targetAtFixation,jsons/v1_VE250_randls_34_rotated.json,http://54.235.29.9/FacialAge/BNav_EC2/DepthDuration/v2_depth_duration_MTurk/v2_DepthDuration_HTML.html#137,137,1280,570,1280,720,8-20-2022,10-58-23,125,depth_duration_stimuli/000483_2014-06-09_20-41-45_260595134347_rgbf000116-resize_4/000483_2014-06-09_20-41-45_260595134347_rgbf000116-resize_4-target.png,250,1.337,2,2169,258,feet,jsons/v1_VE250_randls_34_rotated.json,557227,699442,31,Woman
125,794027,DepthScenes,duration_manipulation_targetAtFixation,jsons/v1_VE250_randls_34_rotated.json,http://54.235.29.9/FacialAge/BNav_EC2/DepthDuration/v2_depth_duration_MTurk/v2_DepthDuration_HTML.html#137,137,1280,570,1280,720,8-20-2022,10-58-23,126,depth_duration_stimuli/000469_2014-06-09_19-42-10_260595134347_rgbf000081-resize_1/000469_2014-06-09_19-42-10_260595134347_rgbf000081-resize_1-target.png,250,1.652,2,2069,248,feet,jsons/v1_VE250_randls_34_rotated.json,557227,699442,31,Woman
126,794027,DepthScenes,duration_manipulation_targetAtFixation,jsons/v1_VE250_randls_34_rotated.json,http://54.235.29.9/FacialAge/BNav_EC2/DepthDuration/v2_depth_duration_MTurk/v2_DepthDuration_HTML.html#137,137,1280,570,1280,720,8-20-2022,10-58-23,127,depth_duration_stimuli/000109_2014-05-14_23-41-52_260595134347_rgbf000035-resize_9/000109_2014-05-14_23-41-52_260595134347_rgbf000035-resize_9-target.png,250,1.3545,2,2003,243,feet,jsons/v1_VE250_randls_34_rotated.json,557227,699442,31,Woman
127,794027,DepthScenes,duration_manipulation_targetAtFixation,jsons/v1_VE250_randls_34_rotated.json,http://54.235.29.9/FacialAge/BNav_EC2/DepthDuration/v2_depth_duration_MTurk/v2_DepthDuration_HTML.html#137,137,1280,570,1280,720,8-20-2022,10-58-23,128,depth_duration_stimuli/000470_2014-06-09_19-42-40_260595134347_rgbf000094-resize_1/000470_2014-06-09_19-42-40_260595134347_rgbf000094-resize_1-target.png,250,1.831,2,2057,253,feet,jsons/v1_VE250_randls_34_rotated.json,557227,699442,31,Woman
128,794027,DepthScenes,duration_manipulation_targetAtFixation,jsons/v1_VE250_randls_34_rotated.json,http://54.235.29.9/FacialAge/BNav_EC2/DepthDuration/v2_depth_duration_MTurk/v2_DepthDuration_HTML.html#137,137,1280,570,1280,720,8-20-2022,10-58-23,129,depth_duration_stimuli/001132_2014-06-17_14-48-54_260595134347_rgbf000100-resize_2/001132_2014-06-17_14-48-54_260595134347_rgbf000100-resize_2-target.png,250,3.753,4,2148,243,feet,jsons/v1_VE250_randls_34_rotated.json,557227,699442,31,Woman
129,794027,DepthScenes,duration_manipulation_targetAtFixation,jsons/v1_VE250_randls_34_rotated.json,http://54.235.29.9/FacialAge/BNav_EC2/DepthDuration/v2_depth_duration_MTurk/v2_DepthDuration_HTML.html#137,137,1280,570,1280,720,8-20-2022,10-58-23,130,depth_duration_stimuli/001133_2014-06-17_14-49-16_260595134347_rgbf000100-resize_0/001133_2014-06-17_14-49-16_260595134347_rgbf000100-resize_0-target.png,250,4.2115,6,2185,237,feet,jsons/v1_VE250_randls_34_rotated.json,557227,699442,31,Woman
130,794027,DepthScenes,duration_manipulation_targetAtFixation,jsons/v1_VE250_randls_34_rotated.json,http://54.235.29.9/FacialAge/BNav_EC2/DepthDuration/v2_depth_duration_MTurk/v2_DepthDuration_HTML.html#137,137,1280,570,1280,720,8-20-2022,10-58-23,131,depth_duration_stimuli/001450_2014-06-19_17-02-03_260595134347_rgbf000203-resize_4/001450_2014-06-19_17-02-03_260595134347_rgbf000203-resize_4-target.png,250,4.0106666666667,6,2283,258,feet,jsons/v1_VE250_randls_34_rotated.json,557227,699442,31,Woman
131,794027,DepthScenes,duration_manipulation_targetAtFixation,jsons/v1_VE250_randls_34_rotated.json,http://54.235.29.9/FacialAge/BNav_EC2/DepthDuration/v2_depth_duration_MTurk/v2_DepthDuration_HTML.html#137,137,1280,570,1280,720,8-20-2022,10-58-23,132,depth_duration_stimuli/001449_2014-06-19_17-01-27_260595134347_rgbf000116-resize_2/001449_2014-06-19_17-01-27_260595134347_rgbf000116-resize_2-target.png,250,3.452,6,2173,254,feet,jsons/v1_VE250_randls_34_rotated.json,557227,699442,31,Woman
132,794027,DepthScenes,duration_manipulation_targetAtFixation,jsons/v1_VE250_randls_34_rotated.json,http://54.235.29.9/FacialAge/BNav_EC2/DepthDuration/v2_depth_duration_MTurk/v2_DepthDuration_HTML.html#137,137,1280,570,1280,720,8-20-2022,10-58-23,133,depth_duration_stimuli/003129_2014-05-12_10-48-10_094959634447_rgbf000100-resize_0/003129_2014-05-12_10-48-10_094959634447_rgbf000100-resize_0-target.png,250,4.9305,6,2180,242,feet,jsons/v1_VE250_randls_34_rotated.json,557227,699442,31,Woman
133,794027,DepthScenes,duration_manipulation_targetAtFixation,jsons/v1_VE250_randls_34_rotated.json,http://54.235.29.9/FacialAge/BNav_EC2/DepthDuration/v2_depth_duration_MTurk/v2_DepthDuration_HTML.html#137,137,1280,570,1280,720,8-20-2022,10-58-23,134,depth_duration_stimuli/000414_2014-06-04_19-49-13_260595134347_rgbf000044-resize_0/000414_2014-06-04_19-49-13_260595134347_rgbf000044-resize_0-target.png,250,4.329,6,2093,245,feet,jsons/v1_VE250_randls_34_rotated.json,557227,699442,31,Woman
134,794027,DepthScenes,duration_manipulation_targetAtFixation,jsons/v1_VE250_randls_34_rotated.json,http://54.235.29.9/FacialAge/BNav_EC2/DepthDuration/v2_depth_duration_MTurk/v2_DepthDuration_HTML.html#137,137,1280,570,1280,720,8-20-2022,10-58-23,135,depth_duration_stimuli/000375_2014-06-08_11-17-29_260595134347_rgbf000133-resize_2/000375_2014-06-08_11-17-29_260595134347_rgbf000133-resize-original.jpg,250,4.718,0,2227,262,feet,jsons/v1_VE250_randls_34_rotated.json,557227,699442,31,Woman
135,794027,DepthScenes,duration_manipulation_targetAtFixation,jsons/v1_VE250_randls_34_rotated.json,http://54.235.29.9/FacialAge/BNav_EC2/DepthDuration/v2_depth_duration_MTurk/v2_DepthDuration_HTML.html#137,137,1280,570,1280,720,8-20-2022,10-58-23,136,depth_duration_stimuli/003587_2014-05-23_16-48-02_094959634447_rgbf002384-resize_2/003587_2014-05-23_16-48-02_094959634447_rgbf002384-resize_2-target.png,250,1.357,2,2129,261,feet,jsons/v1_VE250_randls_34_rotated.json,557227,699442,31,Woman
136,794027,DepthScenes,duration_manipulation_targetAtFixation,jsons/v1_VE250_randls_34_rotated.json,http://54.235.29.9/FacialAge/BNav_EC2/DepthDuration/v2_depth_duration_MTurk/v2_DepthDuration_HTML.html#137,137,1280,570,1280,720,8-20-2022,10-58-23,137,depth_duration_stimuli/001167_2014-06-17_15-38-07_260595134347_rgbf000108-resize_0/001167_2014-06-17_15-38-07_260595134347_rgbf000108-resize_0-target.png,250,1.8505,3,2159,237,feet,jsons/v1_VE250_randls_34_rotated.json,557227,699442,31,Woman
137,794027,DepthScenes,duration_manipulation_targetAtFixation,jsons/v1_VE250_randls_34_rotated.json,http://54.235.29.9/FacialAge/BNav_EC2/DepthDuration/v2_depth_duration_MTurk/v2_DepthDuration_HTML.html#137,137,1280,570,1280,720,8-20-2022,10-58-23,138,depth_duration_stimuli/000709_2014-06-08_13-51-55_260595134347_rgbf000068-resize_3/000709_2014-06-08_13-51-55_260595134347_rgbf000068-resize_3-target.png,250,1.8030000000000002,3,2177,253,feet,jsons/v1_VE250_randls_34_rotated.json,557227,699442,31,Woman
138,794027,DepthScenes,duration_manipulation_targetAtFixation,jsons/v1_VE250_randls_34_rotated.json,http://54.235.29.9/FacialAge/BNav_EC2/DepthDuration/v2_depth_duration_MTurk/v2_DepthDuration_HTML.html#137,137,1280,570,1280,720,8-20-2022,10-58-23,139,depth_duration_stimuli/002057_2014-06-24_21-00-13_260595134347_rgbf000120-resize_1/002057_2014-06-24_21-00-13_260595134347_rgbf000120-resize_1-target.png,250,2.967,5,2216,257,feet,jsons/v1_VE250_randls_34_rotated.json,557227,699442,31,Woman
139,794027,DepthScenes,duration_manipulation_targetAtFixation,jsons/v1_VE250_randls_34_rotated.json,http://54.235.29.9/FacialAge/BNav_EC2/DepthDuration/v2_depth_duration_MTurk/v2_DepthDuration_HTML.html#137,137,1280,570,1280,720,8-20-2022,10-58-23,140,depth_duration_stimuli/002657_2014-06-13_15-29-54_094959634447_rgbf000150-resize_1/002657_2014-06-13_15-29-54_094959634447_rgbf000150-resize_1-target.png,250,4.919,6,2287,260,feet,jsons/v1_VE250_randls_34_rotated.json,557227,699442,31,Woman
140,794027,DepthScenes,duration_manipulation_targetAtFixation,jsons/v1_VE250_randls_34_rotated.json,http://54.235.29.9/FacialAge/BNav_EC2/DepthDuration/v2_depth_duration_MTurk/v2_DepthDuration_HTML.html#137,137,1280,570,1280,720,8-20-2022,10-58-23,141,depth_duration_stimuli/002375_2014-06-28_20-13-44_260595134347_rgbf000032-resize_1/002375_2014-06-28_20-13-44_260595134347_rgbf000032-resize_1-target.png,250,4.0175,4,2278,245,feet,jsons/v1_VE250_randls_34_rotated.json,557227,699442,31,Woman
141,794027,DepthScenes,duration_manipulation_targetAtFixation,jsons/v1_VE250_randls_34_rotated.json,http://54.235.29.9/FacialAge/BNav_EC2/DepthDuration/v2_depth_duration_MTurk/v2_DepthDuration_HTML.html#137,137,1280,570,1280,720,8-20-2022,10-58-23,142,depth_duration_stimuli/002414_2014-06-28_20-24-58_260595134347_rgbf000067-resize_4/002414_2014-06-28_20-24-58_260595134347_rgbf000067-resize_4-target.png,250,4.363,6,2225,256,feet,jsons/v1_VE250_randls_34_rotated.json,557227,699442,31,Woman
142,794027,DepthScenes,duration_manipulation_targetAtFixation,jsons/v1_VE250_randls_34_rotated.json,http://54.235.29.9/FacialAge/BNav_EC2/DepthDuration/v2_depth_duration_MTurk/v2_DepthDuration_HTML.html#137,137,1280,570,1280,720,8-20-2022,10-58-23,143,depth_duration_stimuli/000773_2014-06-08_22-24-54_260595134347_rgbf000093-resize_1/000773_2014-06-08_22-24-54_260595134347_rgbf000093-resize_1-target.png,250,4.973,6,2169,246,feet,jsons/v1_VE250_randls_34_rotated.json,557227,699442,31,Woman
143,794027,DepthScenes,duration_manipulation_targetAtFixation,jsons/v1_VE250_randls_34_rotated.json,http://54.235.29.9/FacialAge/BNav_EC2/DepthDuration/v2_depth_duration_MTurk/v2_DepthDuration_HTML.html#137,137,1280,570,1280,720,8-20-2022,10-58-23,144,depth_duration_stimuli/001516_2014-06-20_16-25-09_260595134347_rgbf000076-resize_2/001516_2014-06-20_16-25-09_260595134347_rgbf000076-resize_2-target.png,250,1.7445,3,2114,235,feet,jsons/v1_VE250_randls_34_rotated.json,557227,699442,31,Woman
144,794027,DepthScenes,duration_manipulation_targetAtFixation,jsons/v1_VE250_randls_34_rotated.json,http://54.235.29.9/FacialAge/BNav_EC2/DepthDuration/v2_depth_duration_MTurk/v2_DepthDuration_HTML.html#137,137,1280,570,1280,720,8-20-2022,10-58-23,145,depth_duration_stimuli/002118_2014-06-25_20-32-08_260595134347_rgbf000078-resize_1/002118_2014-06-25_20-32-08_260595134347_rgbf000078-resize_1-target.png,250,2.6460000000000004,5,2207,247,feet,jsons/v1_VE250_randls_34_rotated.json,557227,699442,31,Woman
145,794027,DepthScenes,duration_manipulation_targetAtFixation,jsons/v1_VE250_randls_34_rotated.json,http://54.235.29.9/FacialAge/BNav_EC2/DepthDuration/v2_depth_duration_MTurk/v2_DepthDuration_HTML.html#137,137,1280,570,1280,720,8-20-2022,10-58-23,146,depth_duration_stimuli/000556_2014-06-09_22-42-56_260595134347_rgbf000214-resize_1/000556_2014-06-09_22-42-56_260595134347_rgbf000214-resize_1-target.png,250,4.8415,6,3555,246,feet,jsons/v1_VE250_randls_34_rotated.json,557227,699442,31,Woman
146,794027,DepthScenes,duration_manipulation_targetAtFixation,jsons/v1_VE250_randls_34_rotated.json,http://54.235.29.9/FacialAge/BNav_EC2/DepthDuration/v2_depth_duration_MTurk/v2_DepthDuration_HTML.html#137,137,1280,570,1280,720,8-20-2022,10-58-23,147,depth_duration_stimuli/001158_2014-06-17_15-32-16_260595134347_rgbf000138-resize_2/001158_2014-06-17_15-32-16_260595134347_rgbf000138-resize_2-target.png,250,4.5315,6,2107,242,feet,jsons/v1_VE250_randls_34_rotated.json,557227,699442,31,Woman
147,794027,DepthScenes,duration_manipulation_targetAtFixation,jsons/v1_VE250_randls_34_rotated.json,http://54.235.29.9/FacialAge/BNav_EC2/DepthDuration/v2_depth_duration_MTurk/v2_DepthDuration_HTML.html#137,137,1280,570,1280,720,8-20-2022,10-58-23,148,depth_duration_stimuli/001392_2014-06-19_16-07-59_260595134347_rgbf000046-resize_1/001392_2014-06-19_16-07-59_260595134347_rgbf000046-resize_1-target.png,250,4.135,6,2009,265,feet,jsons/v1_VE250_randls_34_rotated.json,557227,699442,31,Woman
148,794027,DepthScenes,duration_manipulation_targetAtFixation,jsons/v1_VE250_randls_34_rotated.json,http://54.235.29.9/FacialAge/BNav_EC2/DepthDuration/v2_depth_duration_MTurk/v2_DepthDuration_HTML.html#137,137,1280,570,1280,720,8-20-2022,10-58-23,149,depth_duration_stimuli/001570_2014-06-20_17-21-09_260595134347_rgbf000135-resize_4/001570_2014-06-20_17-21-09_260595134347_rgbf000135-resize_4-target.png,250,4.467,6,1982,250,feet,jsons/v1_VE250_randls_34_rotated.json,557227,699442,31,Woman
149,794027,DepthScenes,duration_manipulation_targetAtFixation,jsons/v1_VE250_randls_34_rotated.json,http://54.235.29.9/FacialAge/BNav_EC2/DepthDuration/v2_depth_duration_MTurk/v2_DepthDuration_HTML.html#137,137,1280,570,1280,720,8-20-2022,10-58-23,150,depth_duration_stimuli/002949_2014-06-26_15-57-42_094959634447_rgbf000079-resize_1/002949_2014-06-26_15-57-42_094959634447_rgbf000079-resize_1-target.png,250,1.8915,2,2193,253,feet,jsons/v1_VE250_randls_34_rotated.json,557227,699442,31,Woman
150,794027,DepthScenes,duration_manipulation_targetAtFixation,jsons/v1_VE250_randls_34_rotated.json,http://54.235.29.9/FacialAge/BNav_EC2/DepthDuration/v2_depth_duration_MTurk/v2_DepthDuration_HTML.html#137,137,1280,570,1280,720,8-20-2022,10-58-23,151,depth_duration_stimuli/000522_2014-06-08_13-35-06_260595134347_rgbf000244-resize_1/000522_2014-06-08_13-35-06_260595134347_rgbf000244-resize_1-target.png,250,2.3715,2,2396,268,feet,jsons/v1_VE250_randls_34_rotated.json,557227,699442,31,Woman
151,794027,DepthScenes,duration_manipulation_targetAtFixation,jsons/v1_VE250_randls_34_rotated.json,http://54.235.29.9/FacialAge/BNav_EC2/DepthDuration/v2_depth_duration_MTurk/v2_DepthDuration_HTML.html#137,137,1280,570,1280,720,8-20-2022,10-58-23,152,depth_duration_stimuli/000569_2014-06-09_22-51-47_260595134347_rgbf000141-resize_3/000569_2014-06-09_22-51-47_260595134347_rgbf000141-resize-original.jpg,250,4.512,0,2321,259,feet,jsons/v1_VE250_randls_34_rotated.json,557227,699442,31,Woman
152,794027,DepthScenes,duration_manipulation_targetAtFixation,jsons/v1_VE250_randls_34_rotated.json,http://54.235.29.9/FacialAge/BNav_EC2/DepthDuration/v2_depth_duration_MTurk/v2_DepthDuration_HTML.html#137,137,1280,570,1280,720,8-20-2022,10-58-23,153,depth_duration_stimuli/003083_2014-06-15_15-21-03_094959634447_rgbf000063-resize_1/003083_2014-06-15_15-21-03_094959634447_rgbf000063-resize_1-target.png,250,4.1405,6,2210,252,feet,jsons/v1_VE250_randls_34_rotated.json,557227,699442,31,Woman
153,794027,DepthScenes,duration_manipulation_targetAtFixation,jsons/v1_VE250_randls_34_rotated.json,http://54.235.29.9/FacialAge/BNav_EC2/DepthDuration/v2_depth_duration_MTurk/v2_DepthDuration_HTML.html#137,137,1280,570,1280,720,8-20-2022,10-58-23,154,depth_duration_stimuli/000486_2014-06-09_20-47-20_260595134347_rgbf000143-resize_2/000486_2014-06-09_20-47-20_260595134347_rgbf000143-resize_2-target.png,250,4.8325,4,2592,256,feet,jsons/v1_VE250_randls_34_rotated.json,557227,699442,31,Woman
154,794027,DepthScenes,duration_manipulation_targetAtFixation,jsons/v1_VE250_randls_34_rotated.json,http://54.235.29.9/FacialAge/BNav_EC2/DepthDuration/v2_depth_duration_MTurk/v2_DepthDuration_HTML.html#137,137,1280,570,1280,720,8-20-2022,10-58-23,155,depth_duration_stimuli/000409_2014-06-04_19-23-33_260595134347_rgbf000067-resize_0/000409_2014-06-04_19-23-33_260595134347_rgbf000067-resize_0-target.png,250,3.7335,6,2224,262,feet,jsons/v1_VE250_randls_34_rotated.json,557227,699442,31,Woman
155,794027,DepthScenes,duration_manipulation_targetAtFixation,jsons/v1_VE250_randls_34_rotated.json,http://54.235.29.9/FacialAge/BNav_EC2/DepthDuration/v2_depth_duration_MTurk/v2_DepthDuration_HTML.html#137,137,1280,570,1280,720,8-20-2022,10-58-23,156,depth_duration_stimuli/002663_2014-06-13_15-50-26_094959634447_rgbf000075-resize_1/002663_2014-06-13_15-50-26_094959634447_rgbf000075-resize_1-target.png,250,4.7495,6,2101,254,feet,jsons/v1_VE250_randls_34_rotated.json,557227,699442,31,Woman
156,794027,DepthScenes,duration_manipulation_targetAtFixation,jsons/v1_VE250_randls_34_rotated.json,http://54.235.29.9/FacialAge/BNav_EC2/DepthDuration/v2_depth_duration_MTurk/v2_DepthDuration_HTML.html#137,137,1280,570,1280,720,8-20-2022,10-58-23,157,depth_duration_stimuli/000691_2014-06-08_13-08-50_260595134347_rgbf000132-resize_3/000691_2014-06-08_13-08-50_260595134347_rgbf000132-resize_3-target.png,250,4.1530000000000005,6,2076,253,feet,jsons/v1_VE250_randls_34_rotated.json,557227,699442,31,Woman
157,794027,DepthScenes,duration_manipulation_targetAtFixation,jsons/v1_VE250_randls_34_rotated.json,http://54.235.29.9/FacialAge/BNav_EC2/DepthDuration/v2_depth_duration_MTurk/v2_DepthDuration_HTML.html#137,137,1280,570,1280,720,8-20-2022,10-58-23,158,depth_duration_stimuli/002213_2014-06-28_18-37-58_260595134347_rgbf000055-resize_1/002213_2014-06-28_18-37-58_260595134347_rgbf000055-resize_1-target.png,250,3.62,6,2104,247,feet,jsons/v1_VE250_randls_34_rotated.json,557227,699442,31,Woman
158,794027,DepthScenes,duration_manipulation_targetAtFixation,jsons/v1_VE250_randls_34_rotated.json,http://54.235.29.9/FacialAge/BNav_EC2/DepthDuration/v2_depth_duration_MTurk/v2_DepthDuration_HTML.html#137,137,1280,570,1280,720,8-20-2022,10-58-23,159,depth_duration_stimuli/000191_2014-05-12_17-07-38_260595134347_rgbf000199-resize_0/000191_2014-05-12_17-07-38_260595134347_rgbf000199-resize_0-target.png,250,3.7995,4,2128,252,feet,jsons/v1_VE250_randls_34_rotated.json,557227,699442,31,Woman
159,794027,DepthScenes,duration_manipulation_targetAtFixation,jsons/v1_VE250_randls_34_rotated.json,http://54.235.29.9/FacialAge/BNav_EC2/DepthDuration/v2_depth_duration_MTurk/v2_DepthDuration_HTML.html#137,137,1280,570,1280,720,8-20-2022,10-58-23,160,depth_duration_stimuli/000493_2014-06-09_21-01-18_260595134347_rgbf000196-resize_3/000493_2014-06-09_21-01-18_260595134347_rgbf000196-resize_3-target.png,250,3.44,5,2148,246,feet,jsons/v1_VE250_randls_34_rotated.json,557227,699442,31,Woman
160,794027,DepthScenes,duration_manipulation_targetAtFixation,jsons/v1_VE250_randls_34_rotated.json,http://54.235.29.9/FacialAge/BNav_EC2/DepthDuration/v2_depth_duration_MTurk/v2_DepthDuration_HTML.html#137,137,1280,570,1280,720,8-20-2022,10-58-23,161,depth_duration_stimuli/001235_2014-06-17_16-37-36_260595134347_rgbf000084-resize_4/001235_2014-06-17_16-37-36_260595134347_rgbf000084-resize_4-target.png,250,3.6605,6,2042,254,feet,jsons/v1_VE250_randls_34_rotated.json,557227,699442,31,Woman
161,794027,DepthScenes,duration_manipulation_targetAtFixation,jsons/v1_VE250_randls_34_rotated.json,http://54.235.29.9/FacialAge/BNav_EC2/DepthDuration/v2_depth_duration_MTurk/v2_DepthDuration_HTML.html#137,137,1280,570,1280,720,8-20-2022,10-58-23,162,depth_duration_stimuli/000788_2014-06-08_22-34-36_260595134347_rgbf000131-resize_1/000788_2014-06-08_22-34-36_260595134347_rgbf000131-resize_1-target.png,250,3.359,6,2155,257,feet,jsons/v1_VE250_randls_34_rotated.json,557227,699442,31,Woman
162,794027,DepthScenes,duration_manipulation_targetAtFixation,jsons/v1_VE250_randls_34_rotated.json,http://54.235.29.9/FacialAge/BNav_EC2/DepthDuration/v2_depth_duration_MTurk/v2_DepthDuration_HTML.html#137,137,1280,570,1280,720,8-20-2022,10-58-23,163,depth_duration_stimuli/000734_2014-06-08_17-39-11_260595134347_rgbf000128-resize_2/000734_2014-06-08_17-39-11_260595134347_rgbf000128-resize_2-target.png,250,4.098,3,2053,239,feet,jsons/v1_VE250_randls_34_rotated.json,557227,699442,31,Woman
163,794027,DepthScenes,duration_manipulation_targetAtFixation,jsons/v1_VE250_randls_34_rotated.json,http://54.235.29.9/FacialAge/BNav_EC2/DepthDuration/v2_depth_duration_MTurk/v2_DepthDuration_HTML.html#137,137,1280,570,1280,720,8-20-2022,10-58-23,164,depth_duration_stimuli/000739_2014-06-08_18-45-58_260595134347_rgbf000068-resize_1/000739_2014-06-08_18-45-58_260595134347_rgbf000068-resize_1-target.png,250,3.534,3,2340,246,feet,jsons/v1_VE250_randls_34_rotated.json,557227,699442,31,Woman
