,subjID,experimentName,versionName,sequenceName,url,selected_row,windowWidth,windowHeight,screenWidth,screenHeight,startDate,startTime,trial,stimulus,duration,actual_depth,depth_estimate,trial_RT,log_sceneDuration,unitSelection,seq_filepath,experimentTime,totalTime,age,gender
0,795170,DepthScenes,duration_manipulation_targetAtFixation,jsons/v1_VE1000_randls_28.json,http://54.235.29.9/FacialAge/BNav_EC2/DepthDuration/v2_depth_duration_MTurk/v2_DepthDuration_HTML.html#310,310,1707,821,1366,768,8-30-2022,10-41-32,1,depth_duration_stimuli/001570_2014-06-20_17-21-09_260595134347_rgbf000135-resize_4/001570_2014-06-20_17-21-09_260595134347_rgbf000135-resize_4-target.png,1000,4.467,8,4654,991,feet,jsons/v1_VE1000_randls_28.json,581083,692421,24,Woman
1,795170,DepthScenes,duration_manipulation_targetAtFixation,jsons/v1_VE1000_randls_28.json,http://54.235.29.9/FacialAge/BNav_EC2/DepthDuration/v2_depth_duration_MTurk/v2_DepthDuration_HTML.html#310,310,1707,821,1366,768,8-30-2022,10-41-32,2,depth_duration_stimuli/001392_2014-06-19_16-07-59_260595134347_rgbf000046-resize_1/001392_2014-06-19_16-07-59_260595134347_rgbf000046-resize_1-target.png,1000,4.135,9,3145,997,feet,jsons/v1_VE1000_randls_28.json,581083,692421,24,Woman
2,795170,DepthScenes,duration_manipulation_targetAtFixation,jsons/v1_VE1000_randls_28.json,http://54.235.29.9/FacialAge/BNav_EC2/DepthDuration/v2_depth_duration_MTurk/v2_DepthDuration_HTML.html#310,310,1707,821,1366,768,8-30-2022,10-41-32,3,depth_duration_stimuli/002570_2014-06-24_13-59-54_094959634447_rgbf000059-resize_0/002570_2014-06-24_13-59-54_094959634447_rgbf000059-resize_0-target.png,1000,4.037,7,3006,1000,feet,jsons/v1_VE1000_randls_28.json,581083,692421,24,Woman
3,795170,DepthScenes,duration_manipulation_targetAtFixation,jsons/v1_VE1000_randls_28.json,http://54.235.29.9/FacialAge/BNav_EC2/DepthDuration/v2_depth_duration_MTurk/v2_DepthDuration_HTML.html#310,310,1707,821,1366,768,8-30-2022,10-41-32,4,depth_duration_stimuli/002467_2014-06-28_20-38-07_260595134347_rgbf000026-resize_2/002467_2014-06-28_20-38-07_260595134347_rgbf000026-resize_2-target.png,1000,4.742,12,3862,996,feet,jsons/v1_VE1000_randls_28.json,581083,692421,24,Woman
4,795170,DepthScenes,duration_manipulation_targetAtFixation,jsons/v1_VE1000_randls_28.json,http://54.235.29.9/FacialAge/BNav_EC2/DepthDuration/v2_depth_duration_MTurk/v2_DepthDuration_HTML.html#310,310,1707,821,1366,768,8-30-2022,10-41-32,5,depth_duration_stimuli/000773_2014-06-08_22-24-54_260595134347_rgbf000093-resize_1/000773_2014-06-08_22-24-54_260595134347_rgbf000093-resize_1-target.png,1000,4.973,8,2953,1004,feet,jsons/v1_VE1000_randls_28.json,581083,692421,24,Woman
5,795170,DepthScenes,duration_manipulation_targetAtFixation,jsons/v1_VE1000_randls_28.json,http://54.235.29.9/FacialAge/BNav_EC2/DepthDuration/v2_depth_duration_MTurk/v2_DepthDuration_HTML.html#310,310,1707,821,1366,768,8-30-2022,10-41-32,6,depth_duration_stimuli/002414_2014-06-28_20-24-58_260595134347_rgbf000067-resize_4/002414_2014-06-28_20-24-58_260595134347_rgbf000067-resize_4-target.png,1000,4.363,10,3639,998,feet,jsons/v1_VE1000_randls_28.json,581083,692421,24,Woman
6,795170,DepthScenes,duration_manipulation_targetAtFixation,jsons/v1_VE1000_randls_28.json,http://54.235.29.9/FacialAge/BNav_EC2/DepthDuration/v2_depth_duration_MTurk/v2_DepthDuration_HTML.html#310,310,1707,821,1366,768,8-30-2022,10-41-32,7,depth_duration_stimuli/002509_2014-06-24_13-19-22_094959634447_rgbf000077-resize_0/002509_2014-06-24_13-19-22_094959634447_rgbf000077-resize_0-target.png,1000,1.3065,3,3111,1004,feet,jsons/v1_VE1000_randls_28.json,581083,692421,24,Woman
7,795170,DepthScenes,duration_manipulation_targetAtFixation,jsons/v1_VE1000_randls_28.json,http://54.235.29.9/FacialAge/BNav_EC2/DepthDuration/v2_depth_duration_MTurk/v2_DepthDuration_HTML.html#310,310,1707,821,1366,768,8-30-2022,10-41-32,8,depth_duration_stimuli/003338_2014-05-20_11-01-23_094959634447_rgbf000051-resize_6/003338_2014-05-20_11-01-23_094959634447_rgbf000051-resize_6-target.png,1000,1.693,3,2820,997,feet,jsons/v1_VE1000_randls_28.json,581083,692421,24,Woman
8,795170,DepthScenes,duration_manipulation_targetAtFixation,jsons/v1_VE1000_randls_28.json,http://54.235.29.9/FacialAge/BNav_EC2/DepthDuration/v2_depth_duration_MTurk/v2_DepthDuration_HTML.html#310,310,1707,821,1366,768,8-30-2022,10-41-32,9,depth_duration_stimuli/000522_2014-06-08_13-35-06_260595134347_rgbf000244-resize_1/000522_2014-06-08_13-35-06_260595134347_rgbf000244-resize_1-target.png,1000,2.3715,4,2683,1003,feet,jsons/v1_VE1000_randls_28.json,581083,692421,24,Woman
9,795170,DepthScenes,duration_manipulation_targetAtFixation,jsons/v1_VE1000_randls_28.json,http://54.235.29.9/FacialAge/BNav_EC2/DepthDuration/v2_depth_duration_MTurk/v2_DepthDuration_HTML.html#310,310,1707,821,1366,768,8-30-2022,10-41-32,10,depth_duration_stimuli/002949_2014-06-26_15-57-42_094959634447_rgbf000079-resize_1/002949_2014-06-26_15-57-42_094959634447_rgbf000079-resize_1-target.png,1000,1.8915,4,2553,1005,feet,jsons/v1_VE1000_randls_28.json,581083,692421,24,Woman
10,795170,DepthScenes,duration_manipulation_targetAtFixation,jsons/v1_VE1000_randls_28.json,http://54.235.29.9/FacialAge/BNav_EC2/DepthDuration/v2_depth_duration_MTurk/v2_DepthDuration_HTML.html#310,310,1707,821,1366,768,8-30-2022,10-41-32,11,depth_duration_stimuli/000692_2014-06-08_13-09-42_260595134347_rgbf000199-resize_2/000692_2014-06-08_13-09-42_260595134347_rgbf000199-resize_2-target.png,1000,3.661,8,2701,991,feet,jsons/v1_VE1000_randls_28.json,581083,692421,24,Woman
11,795170,DepthScenes,duration_manipulation_targetAtFixation,jsons/v1_VE1000_randls_28.json,http://54.235.29.9/FacialAge/BNav_EC2/DepthDuration/v2_depth_duration_MTurk/v2_DepthDuration_HTML.html#310,310,1707,821,1366,768,8-30-2022,10-41-32,12,depth_duration_stimuli/001094_2014-06-15_17-36-00_260595134347_rgbf000205-resize_0/001094_2014-06-15_17-36-00_260595134347_rgbf000205-resize_0-target.png,1000,4.2175,9,2767,994,feet,jsons/v1_VE1000_randls_28.json,581083,692421,24,Woman
12,795170,DepthScenes,duration_manipulation_targetAtFixation,jsons/v1_VE1000_randls_28.json,http://54.235.29.9/FacialAge/BNav_EC2/DepthDuration/v2_depth_duration_MTurk/v2_DepthDuration_HTML.html#310,310,1707,821,1366,768,8-30-2022,10-41-32,13,depth_duration_stimuli/000569_2014-06-09_22-51-47_260595134347_rgbf000141-resize_3/000569_2014-06-09_22-51-47_260595134347_rgbf000141-resize-original.jpg,1000,4.512,0,2735,1007,feet,jsons/v1_VE1000_randls_28.json,581083,692421,24,Woman
13,795170,DepthScenes,duration_manipulation_targetAtFixation,jsons/v1_VE1000_randls_28.json,http://54.235.29.9/FacialAge/BNav_EC2/DepthDuration/v2_depth_duration_MTurk/v2_DepthDuration_HTML.html#310,310,1707,821,1366,768,8-30-2022,10-41-32,14,depth_duration_stimuli/003621_2014-05-23_18-06-08_094959634447_rgbf000101-resize_1/003621_2014-05-23_18-06-08_094959634447_rgbf000101-resize_1-target.png,1000,3.9835,10,2906,1002,feet,jsons/v1_VE1000_randls_28.json,581083,692421,24,Woman
14,795170,DepthScenes,duration_manipulation_targetAtFixation,jsons/v1_VE1000_randls_28.json,http://54.235.29.9/FacialAge/BNav_EC2/DepthDuration/v2_depth_duration_MTurk/v2_DepthDuration_HTML.html#310,310,1707,821,1366,768,8-30-2022,10-41-32,15,depth_duration_stimuli/001584_2014-06-20_11-07-43_260595134347_rgbf000002-resize_1/001584_2014-06-20_11-07-43_260595134347_rgbf000002-resize_1-target.png,1000,3.53,7,2945,1003,feet,jsons/v1_VE1000_randls_28.json,581083,692421,24,Woman
15,795170,DepthScenes,duration_manipulation_targetAtFixation,jsons/v1_VE1000_randls_28.json,http://54.235.29.9/FacialAge/BNav_EC2/DepthDuration/v2_depth_duration_MTurk/v2_DepthDuration_HTML.html#310,310,1707,821,1366,768,8-30-2022,10-41-32,16,depth_duration_stimuli/002788_2014-06-22_19-36-03_094959634447_rgbf000088-resize_2/002788_2014-06-22_19-36-03_094959634447_rgbf000088-resize_2-target.png,1000,1.6465,5,2679,999,feet,jsons/v1_VE1000_randls_28.json,581083,692421,24,Woman
16,795170,DepthScenes,duration_manipulation_targetAtFixation,jsons/v1_VE1000_randls_28.json,http://54.235.29.9/FacialAge/BNav_EC2/DepthDuration/v2_depth_duration_MTurk/v2_DepthDuration_HTML.html#310,310,1707,821,1366,768,8-30-2022,10-41-32,17,depth_duration_stimuli/000749_2014-06-08_21-55-06_260595134347_rgbf000070-resize_2/000749_2014-06-08_21-55-06_260595134347_rgbf000070-resize_2-target.png,1000,2.331,3,2721,999,feet,jsons/v1_VE1000_randls_28.json,581083,692421,24,Woman
17,795170,DepthScenes,duration_manipulation_targetAtFixation,jsons/v1_VE1000_randls_28.json,http://54.235.29.9/FacialAge/BNav_EC2/DepthDuration/v2_depth_duration_MTurk/v2_DepthDuration_HTML.html#310,310,1707,821,1366,768,8-30-2022,10-41-32,18,depth_duration_stimuli/000739_2014-06-08_18-45-58_260595134347_rgbf000068-resize_1/000739_2014-06-08_18-45-58_260595134347_rgbf000068-resize_1-target.png,1000,3.534,8,2812,1009,feet,jsons/v1_VE1000_randls_28.json,581083,692421,24,Woman
18,795170,DepthScenes,duration_manipulation_targetAtFixation,jsons/v1_VE1000_randls_28.json,http://54.235.29.9/FacialAge/BNav_EC2/DepthDuration/v2_depth_duration_MTurk/v2_DepthDuration_HTML.html#310,310,1707,821,1366,768,8-30-2022,10-41-32,19,depth_duration_stimuli/000734_2014-06-08_17-39-11_260595134347_rgbf000128-resize_2/000734_2014-06-08_17-39-11_260595134347_rgbf000128-resize_2-target.png,1000,4.098,5,2615,994,feet,jsons/v1_VE1000_randls_28.json,581083,692421,24,Woman
19,795170,DepthScenes,duration_manipulation_targetAtFixation,jsons/v1_VE1000_randls_28.json,http://54.235.29.9/FacialAge/BNav_EC2/DepthDuration/v2_depth_duration_MTurk/v2_DepthDuration_HTML.html#310,310,1707,821,1366,768,8-30-2022,10-41-32,20,depth_duration_stimuli/000447_2014-06-08_16-15-46_260595134347_rgbf000130-resize_1/000447_2014-06-08_16-15-46_260595134347_rgbf000130-resize_1-target.png,1000,4.479,7,2702,1004,feet,jsons/v1_VE1000_randls_28.json,581083,692421,24,Woman
20,795170,DepthScenes,duration_manipulation_targetAtFixation,jsons/v1_VE1000_randls_28.json,http://54.235.29.9/FacialAge/BNav_EC2/DepthDuration/v2_depth_duration_MTurk/v2_DepthDuration_HTML.html#310,310,1707,821,1366,768,8-30-2022,10-41-32,21,depth_duration_stimuli/001447_2014-06-19_17-00-32_260595134347_rgbf000082-resize_5/001447_2014-06-19_17-00-32_260595134347_rgbf000082-resize_5-target.png,1000,4.13775,5,2751,994,feet,jsons/v1_VE1000_randls_28.json,581083,692421,24,Woman
21,795170,DepthScenes,duration_manipulation_targetAtFixation,jsons/v1_VE1000_randls_28.json,http://54.235.29.9/FacialAge/BNav_EC2/DepthDuration/v2_depth_duration_MTurk/v2_DepthDuration_HTML.html#310,310,1707,821,1366,768,8-30-2022,10-41-32,22,depth_duration_stimuli/001066_2014-06-08_22-03-20_260595134347_rgbf000066-resize_4/001066_2014-06-08_22-03-20_260595134347_rgbf000066-resize_4-target.png,1000,4.2330000000000005,9,3483,1001,feet,jsons/v1_VE1000_randls_28.json,581083,692421,24,Woman
22,795170,DepthScenes,duration_manipulation_targetAtFixation,jsons/v1_VE1000_randls_28.json,http://54.235.29.9/FacialAge/BNav_EC2/DepthDuration/v2_depth_duration_MTurk/v2_DepthDuration_HTML.html#310,310,1707,821,1366,768,8-30-2022,10-41-32,23,depth_duration_stimuli/000742_2014-06-08_18-48-09_260595134347_rgbf000164-resize_4/000742_2014-06-08_18-48-09_260595134347_rgbf000164-resize_4-target.png,1000,4.632,6,2703,993,feet,jsons/v1_VE1000_randls_28.json,581083,692421,24,Woman
23,795170,DepthScenes,duration_manipulation_targetAtFixation,jsons/v1_VE1000_randls_28.json,http://54.235.29.9/FacialAge/BNav_EC2/DepthDuration/v2_depth_duration_MTurk/v2_DepthDuration_HTML.html#310,310,1707,821,1366,768,8-30-2022,10-41-32,24,depth_duration_stimuli/000469_2014-06-09_19-42-10_260595134347_rgbf000081-resize_1/000469_2014-06-09_19-42-10_260595134347_rgbf000081-resize_1-target.png,1000,1.652,2,3345,993,feet,jsons/v1_VE1000_randls_28.json,581083,692421,24,Woman
24,795170,DepthScenes,duration_manipulation_targetAtFixation,jsons/v1_VE1000_randls_28.json,http://54.235.29.9/FacialAge/BNav_EC2/DepthDuration/v2_depth_duration_MTurk/v2_DepthDuration_HTML.html#310,310,1707,821,1366,768,8-30-2022,10-41-32,25,depth_duration_stimuli/000483_2014-06-09_20-41-45_260595134347_rgbf000116-resize_4/000483_2014-06-09_20-41-45_260595134347_rgbf000116-resize_4-target.png,1000,1.337,2,2592,996,feet,jsons/v1_VE1000_randls_28.json,581083,692421,24,Woman
25,795170,DepthScenes,duration_manipulation_targetAtFixation,jsons/v1_VE1000_randls_28.json,http://54.235.29.9/FacialAge/BNav_EC2/DepthDuration/v2_depth_duration_MTurk/v2_DepthDuration_HTML.html#310,310,1707,821,1366,768,8-30-2022,10-41-32,26,depth_duration_stimuli/001810_2014-06-26_20-51-35_260595134347_rgbf000040-resize_3/001810_2014-06-26_20-51-35_260595134347_rgbf000040-resize_3-target.png,1000,2.2525,4,3039,999,feet,jsons/v1_VE1000_randls_28.json,581083,692421,24,Woman
26,795170,DepthScenes,duration_manipulation_targetAtFixation,jsons/v1_VE1000_randls_28.json,http://54.235.29.9/FacialAge/BNav_EC2/DepthDuration/v2_depth_duration_MTurk/v2_DepthDuration_HTML.html#310,310,1707,821,1366,768,8-30-2022,10-41-32,27,depth_duration_stimuli/003010_2014-06-15_12-54-35_094959634447_rgbf000112-resize_0/003010_2014-06-15_12-54-35_094959634447_rgbf000112-resize_0-target.png,1000,3.1185,6,3230,985,feet,jsons/v1_VE1000_randls_28.json,581083,692421,24,Woman
27,795170,DepthScenes,duration_manipulation_targetAtFixation,jsons/v1_VE1000_randls_28.json,http://54.235.29.9/FacialAge/BNav_EC2/DepthDuration/v2_depth_duration_MTurk/v2_DepthDuration_HTML.html#310,310,1707,821,1366,768,8-30-2022,10-41-32,28,depth_duration_stimuli/001059_2014-06-08_21-53-27_260595134347_rgbf000061-resize_4/001059_2014-06-08_21-53-27_260595134347_rgbf000061-resize_4-target.png,1000,2.4185,4,2741,1007,feet,jsons/v1_VE1000_randls_28.json,581083,692421,24,Woman
28,795170,DepthScenes,duration_manipulation_targetAtFixation,jsons/v1_VE1000_randls_28.json,http://54.235.29.9/FacialAge/BNav_EC2/DepthDuration/v2_depth_duration_MTurk/v2_DepthDuration_HTML.html#310,310,1707,821,1366,768,8-30-2022,10-41-32,29,depth_duration_stimuli/001032_2014-06-08_13-23-17_260595134347_rgbf000021-resize_3/001032_2014-06-08_13-23-17_260595134347_rgbf000021-resize_3-target.png,1000,3.2725,6,2667,987,feet,jsons/v1_VE1000_randls_28.json,581083,692421,24,Woman
29,795170,DepthScenes,duration_manipulation_targetAtFixation,jsons/v1_VE1000_randls_28.json,http://54.235.29.9/FacialAge/BNav_EC2/DepthDuration/v2_depth_duration_MTurk/v2_DepthDuration_HTML.html#310,310,1707,821,1366,768,8-30-2022,10-41-32,30,depth_duration_stimuli/000375_2014-06-08_11-17-29_260595134347_rgbf000133-resize_2/000375_2014-06-08_11-17-29_260595134347_rgbf000133-resize-original.jpg,1000,4.718,0,2818,999,feet,jsons/v1_VE1000_randls_28.json,581083,692421,24,Woman
30,795170,DepthScenes,duration_manipulation_targetAtFixation,jsons/v1_VE1000_randls_28.json,http://54.235.29.9/FacialAge/BNav_EC2/DepthDuration/v2_depth_duration_MTurk/v2_DepthDuration_HTML.html#310,310,1707,821,1366,768,8-30-2022,10-41-32,31,depth_duration_stimuli/000436_2014-06-09_22-25-11_260595134347_rgbf000137-resize_1/000436_2014-06-09_22-25-11_260595134347_rgbf000137-resize_1-target.png,1000,4.0705,9,3120,995,feet,jsons/v1_VE1000_randls_28.json,581083,692421,24,Woman
31,795170,DepthScenes,duration_manipulation_targetAtFixation,jsons/v1_VE1000_randls_28.json,http://54.235.29.9/FacialAge/BNav_EC2/DepthDuration/v2_depth_duration_MTurk/v2_DepthDuration_HTML.html#310,310,1707,821,1366,768,8-30-2022,10-41-32,32,depth_duration_stimuli/002444_2014-06-28_20-32-08_260595134347_rgbf000027-resize_0/002444_2014-06-28_20-32-08_260595134347_rgbf000027-resize_0-target.png,1000,4.388999999999999,8,2899,988,feet,jsons/v1_VE1000_randls_28.json,581083,692421,24,Woman
32,795170,DepthScenes,duration_manipulation_targetAtFixation,jsons/v1_VE1000_randls_28.json,http://54.235.29.9/FacialAge/BNav_EC2/DepthDuration/v2_depth_duration_MTurk/v2_DepthDuration_HTML.html#310,310,1707,821,1366,768,8-30-2022,10-41-32,33,depth_duration_stimuli/001175_2014-06-17_15-45-55_260595134347_rgbf000129-resize_4/001175_2014-06-17_15-45-55_260595134347_rgbf000129-resize_4-target.png,1000,4.255,11,2715,1005,feet,jsons/v1_VE1000_randls_28.json,581083,692421,24,Woman
33,795170,DepthScenes,duration_manipulation_targetAtFixation,jsons/v1_VE1000_randls_28.json,http://54.235.29.9/FacialAge/BNav_EC2/DepthDuration/v2_depth_duration_MTurk/v2_DepthDuration_HTML.html#310,310,1707,821,1366,768,8-30-2022,10-41-32,34,depth_duration_stimuli/003490_2014-05-21_15-50-11_094959634447_rgbf000101-resize_3/003490_2014-05-21_15-50-11_094959634447_rgbf000101-resize_3-target.png,1000,3.6445,9,2906,1002,feet,jsons/v1_VE1000_randls_28.json,581083,692421,24,Woman
34,795170,DepthScenes,duration_manipulation_targetAtFixation,jsons/v1_VE1000_randls_28.json,http://54.235.29.9/FacialAge/BNav_EC2/DepthDuration/v2_depth_duration_MTurk/v2_DepthDuration_HTML.html#310,310,1707,821,1366,768,8-30-2022,10-41-32,35,depth_duration_stimuli/000810_2014-06-08_17-20-01_260595134347_rgbf000105-resize_0/000810_2014-06-08_17-20-01_260595134347_rgbf000105-resize_0-target.png,1000,1.4865,2,2977,1002,feet,jsons/v1_VE1000_randls_28.json,581083,692421,24,Woman
35,795170,DepthScenes,duration_manipulation_targetAtFixation,jsons/v1_VE1000_randls_28.json,http://54.235.29.9/FacialAge/BNav_EC2/DepthDuration/v2_depth_duration_MTurk/v2_DepthDuration_HTML.html#310,310,1707,821,1366,768,8-30-2022,10-41-32,36,depth_duration_stimuli/001214_2014-06-17_16-13-55_260595134347_rgbf000111-resize_0/001214_2014-06-17_16-13-55_260595134347_rgbf000111-resize_0-target.png,1000,2.6505,3,3077,1001,feet,jsons/v1_VE1000_randls_28.json,581083,692421,24,Woman
36,795170,DepthScenes,duration_manipulation_targetAtFixation,jsons/v1_VE1000_randls_28.json,http://54.235.29.9/FacialAge/BNav_EC2/DepthDuration/v2_depth_duration_MTurk/v2_DepthDuration_HTML.html#310,310,1707,821,1366,768,8-30-2022,10-41-32,37,depth_duration_stimuli/001158_2014-06-17_15-32-16_260595134347_rgbf000138-resize_2/001158_2014-06-17_15-32-16_260595134347_rgbf000138-resize_2-target.png,1000,4.5315,9,2846,993,feet,jsons/v1_VE1000_randls_28.json,581083,692421,24,Woman
37,795170,DepthScenes,duration_manipulation_targetAtFixation,jsons/v1_VE1000_randls_28.json,http://54.235.29.9/FacialAge/BNav_EC2/DepthDuration/v2_depth_duration_MTurk/v2_DepthDuration_HTML.html#310,310,1707,821,1366,768,8-30-2022,10-41-32,38,depth_duration_stimuli/000556_2014-06-09_22-42-56_260595134347_rgbf000214-resize_1/000556_2014-06-09_22-42-56_260595134347_rgbf000214-resize_1-target.png,1000,4.8415,7,3068,1000,feet,jsons/v1_VE1000_randls_28.json,581083,692421,24,Woman
38,795170,DepthScenes,duration_manipulation_targetAtFixation,jsons/v1_VE1000_randls_28.json,http://54.235.29.9/FacialAge/BNav_EC2/DepthDuration/v2_depth_duration_MTurk/v2_DepthDuration_HTML.html#310,310,1707,821,1366,768,8-30-2022,10-41-32,39,depth_duration_stimuli/000506_2014-06-08_23-21-00_260595134347_rgbf000070-resize_7/000506_2014-06-08_23-21-00_260595134347_rgbf000070-resize_7-target.png,1000,4.0585,6,3364,994,feet,jsons/v1_VE1000_randls_28.json,581083,692421,24,Woman
39,795170,DepthScenes,duration_manipulation_targetAtFixation,jsons/v1_VE1000_randls_28.json,http://54.235.29.9/FacialAge/BNav_EC2/DepthDuration/v2_depth_duration_MTurk/v2_DepthDuration_HTML.html#310,310,1707,821,1366,768,8-30-2022,10-41-32,40,depth_duration_stimuli/003079_2014-06-15_15-18-20_094959634447_rgbf000152-resize_8/003079_2014-06-15_15-18-20_094959634447_rgbf000152-resize_8-target.png,1000,2.8775,0,3968,1006,feet,jsons/v1_VE1000_randls_28.json,581083,692421,24,Woman
40,795170,DepthScenes,duration_manipulation_targetAtFixation,jsons/v1_VE1000_randls_28.json,http://54.235.29.9/FacialAge/BNav_EC2/DepthDuration/v2_depth_duration_MTurk/v2_DepthDuration_HTML.html#310,310,1707,821,1366,768,8-30-2022,10-41-32,41,depth_duration_stimuli/001092_2014-06-15_17-34-58_260595134347_rgbf000171-resize_3/001092_2014-06-15_17-34-58_260595134347_rgbf000171-resize_3-target.png,1000,2.6935,5,3530,995,feet,jsons/v1_VE1000_randls_28.json,581083,692421,24,Woman
41,795170,DepthScenes,duration_manipulation_targetAtFixation,jsons/v1_VE1000_randls_28.json,http://54.235.29.9/FacialAge/BNav_EC2/DepthDuration/v2_depth_duration_MTurk/v2_DepthDuration_HTML.html#310,310,1707,821,1366,768,8-30-2022,10-41-32,42,depth_duration_stimuli/002545_2014-06-24_13-38-53_094959634447_rgbf000080-resize_4/002545_2014-06-24_13-38-53_094959634447_rgbf000080-resize_4-target.png,1000,1.9205,4,3297,988,feet,jsons/v1_VE1000_randls_28.json,581083,692421,24,Woman
42,795170,DepthScenes,duration_manipulation_targetAtFixation,jsons/v1_VE1000_randls_28.json,http://54.235.29.9/FacialAge/BNav_EC2/DepthDuration/v2_depth_duration_MTurk/v2_DepthDuration_HTML.html#310,310,1707,821,1366,768,8-30-2022,10-41-32,43,depth_duration_stimuli/002272_2014-06-28_18-53-56_260595134347_rgbf000067-resize_2/002272_2014-06-28_18-53-56_260595134347_rgbf000067-resize_2-target.png,1000,1.138,2,2848,999,feet,jsons/v1_VE1000_randls_28.json,581083,692421,24,Woman
43,795170,DepthScenes,duration_manipulation_targetAtFixation,jsons/v1_VE1000_randls_28.json,http://54.235.29.9/FacialAge/BNav_EC2/DepthDuration/v2_depth_duration_MTurk/v2_DepthDuration_HTML.html#310,310,1707,821,1366,768,8-30-2022,10-41-32,44,depth_duration_stimuli/001571_2014-06-20_17-21-32_260595134347_rgbf000089-resize_1/001571_2014-06-20_17-21-32_260595134347_rgbf000089-resize_1-target.png,1000,1.86,3,2424,996,feet,jsons/v1_VE1000_randls_28.json,581083,692421,24,Woman
44,795170,DepthScenes,duration_manipulation_targetAtFixation,jsons/v1_VE1000_randls_28.json,http://54.235.29.9/FacialAge/BNav_EC2/DepthDuration/v2_depth_duration_MTurk/v2_DepthDuration_HTML.html#310,310,1707,821,1366,768,8-30-2022,10-41-32,45,depth_duration_stimuli/000787_2014-06-08_22-33-53_260595134347_rgbf000175-resize_1/000787_2014-06-08_22-33-53_260595134347_rgbf000175-resize-original.jpg,1000,4.784,0,2921,1002,feet,jsons/v1_VE1000_randls_28.json,581083,692421,24,Woman
45,795170,DepthScenes,duration_manipulation_targetAtFixation,jsons/v1_VE1000_randls_28.json,http://54.235.29.9/FacialAge/BNav_EC2/DepthDuration/v2_depth_duration_MTurk/v2_DepthDuration_HTML.html#310,310,1707,821,1366,768,8-30-2022,10-41-32,46,depth_duration_stimuli/002988_2014-06-15_12-24-20_094959634447_rgbf000150-resize_1/002988_2014-06-15_12-24-20_094959634447_rgbf000150-resize_1-target.png,1000,4.7669999999999995,5,3132,1003,feet,jsons/v1_VE1000_randls_28.json,581083,692421,24,Woman
46,795170,DepthScenes,duration_manipulation_targetAtFixation,jsons/v1_VE1000_randls_28.json,http://54.235.29.9/FacialAge/BNav_EC2/DepthDuration/v2_depth_duration_MTurk/v2_DepthDuration_HTML.html#310,310,1707,821,1366,768,8-30-2022,10-41-32,47,depth_duration_stimuli/001052_2014-06-08_18-24-54_260595134347_rgbf000130-resize_1/001052_2014-06-08_18-24-54_260595134347_rgbf000130-resize_1-target.png,1000,4.1045,4,3552,993,feet,jsons/v1_VE1000_randls_28.json,581083,692421,24,Woman
47,795170,DepthScenes,duration_manipulation_targetAtFixation,jsons/v1_VE1000_randls_28.json,http://54.235.29.9/FacialAge/BNav_EC2/DepthDuration/v2_depth_duration_MTurk/v2_DepthDuration_HTML.html#310,310,1707,821,1366,768,8-30-2022,10-41-32,48,depth_duration_stimuli/002748_2014-06-22_19-07-22_094959634447_rgbf000078-resize_1/002748_2014-06-22_19-07-22_094959634447_rgbf000078-resize_1-target.png,1000,4.6705,10,2779,987,feet,jsons/v1_VE1000_randls_28.json,581083,692421,24,Woman
48,795170,DepthScenes,duration_manipulation_targetAtFixation,jsons/v1_VE1000_randls_28.json,http://54.235.29.9/FacialAge/BNav_EC2/DepthDuration/v2_depth_duration_MTurk/v2_DepthDuration_HTML.html#310,310,1707,821,1366,768,8-30-2022,10-41-32,49,depth_duration_stimuli/002995_2014-06-15_12-31-26_094959634447_rgbf000150-resize_1/002995_2014-06-15_12-31-26_094959634447_rgbf000150-resize_1-target.png,1000,3.8360000000000003,8,2840,1002,feet,jsons/v1_VE1000_randls_28.json,581083,692421,24,Woman
49,795170,DepthScenes,duration_manipulation_targetAtFixation,jsons/v1_VE1000_randls_28.json,http://54.235.29.9/FacialAge/BNav_EC2/DepthDuration/v2_depth_duration_MTurk/v2_DepthDuration_HTML.html#310,310,1707,821,1366,768,8-30-2022,10-41-32,50,depth_duration_stimuli/002039_2014-06-24_20-22-38_260595134347_rgbf000084-resize_1/002039_2014-06-24_20-22-38_260595134347_rgbf000084-resize_1-target.png,1000,4.408,11,2670,1008,feet,jsons/v1_VE1000_randls_28.json,581083,692421,24,Woman
50,795170,DepthScenes,duration_manipulation_targetAtFixation,jsons/v1_VE1000_randls_28.json,http://54.235.29.9/FacialAge/BNav_EC2/DepthDuration/v2_depth_duration_MTurk/v2_DepthDuration_HTML.html#310,310,1707,821,1366,768,8-30-2022,10-41-32,51,depth_duration_stimuli/002103_2014-06-25_20-00-40_260595134347_rgbf000049-resize_0/002103_2014-06-25_20-00-40_260595134347_rgbf000049-resize_0-target.png,1000,4.105,8,3020,1001,feet,jsons/v1_VE1000_randls_28.json,581083,692421,24,Woman
51,795170,DepthScenes,duration_manipulation_targetAtFixation,jsons/v1_VE1000_randls_28.json,http://54.235.29.9/FacialAge/BNav_EC2/DepthDuration/v2_depth_duration_MTurk/v2_DepthDuration_HTML.html#310,310,1707,821,1366,768,8-30-2022,10-41-32,52,depth_duration_stimuli/002600_2014-06-24_14-27-04_094959634447_rgbf000074-resize_2/002600_2014-06-24_14-27-04_094959634447_rgbf000074-resize_2-target.png,1000,2.7575,6,3149,998,feet,jsons/v1_VE1000_randls_28.json,581083,692421,24,Woman
52,795170,DepthScenes,duration_manipulation_targetAtFixation,jsons/v1_VE1000_randls_28.json,http://54.235.29.9/FacialAge/BNav_EC2/DepthDuration/v2_depth_duration_MTurk/v2_DepthDuration_HTML.html#310,310,1707,821,1366,768,8-30-2022,10-41-32,53,depth_duration_stimuli/003228_2014-05-14_13-42-35_094959634447_rgbf000101-resize_1/003228_2014-05-14_13-42-35_094959634447_rgbf000101-resize_1-target.png,1000,1.9680000000000002,3,2963,995,feet,jsons/v1_VE1000_randls_28.json,581083,692421,24,Woman
53,795170,DepthScenes,duration_manipulation_targetAtFixation,jsons/v1_VE1000_randls_28.json,http://54.235.29.9/FacialAge/BNav_EC2/DepthDuration/v2_depth_duration_MTurk/v2_DepthDuration_HTML.html#310,310,1707,821,1366,768,8-30-2022,10-41-32,54,depth_duration_stimuli/003292_2014-05-14_21-53-49_094959634447_rgbf000100-resize_2/003292_2014-05-14_21-53-49_094959634447_rgbf000100-resize_2-target.png,1000,3.4815,5,2813,994,feet,jsons/v1_VE1000_randls_28.json,581083,692421,24,Woman
54,795170,DepthScenes,duration_manipulation_targetAtFixation,jsons/v1_VE1000_randls_28.json,http://54.235.29.9/FacialAge/BNav_EC2/DepthDuration/v2_depth_duration_MTurk/v2_DepthDuration_HTML.html#310,310,1707,821,1366,768,8-30-2022,10-41-32,55,depth_duration_stimuli/002639_2014-06-24_14-51-37_094959634447_rgbf000074-resize_4/002639_2014-06-24_14-51-37_094959634447_rgbf000074-resize_4-target.png,1000,4.0375,8,3760,1001,feet,jsons/v1_VE1000_randls_28.json,581083,692421,24,Woman
55,795170,DepthScenes,duration_manipulation_targetAtFixation,jsons/v1_VE1000_randls_28.json,http://54.235.29.9/FacialAge/BNav_EC2/DepthDuration/v2_depth_duration_MTurk/v2_DepthDuration_HTML.html#310,310,1707,821,1366,768,8-30-2022,10-41-32,56,depth_duration_stimuli/000486_2014-06-09_20-47-20_260595134347_rgbf000143-resize_2/000486_2014-06-09_20-47-20_260595134347_rgbf000143-resize_2-target.png,1000,4.8325,7,3285,998,feet,jsons/v1_VE1000_randls_28.json,581083,692421,24,Woman
56,795170,DepthScenes,duration_manipulation_targetAtFixation,jsons/v1_VE1000_randls_28.json,http://54.235.29.9/FacialAge/BNav_EC2/DepthDuration/v2_depth_duration_MTurk/v2_DepthDuration_HTML.html#310,310,1707,821,1366,768,8-30-2022,10-41-32,57,depth_duration_stimuli/003083_2014-06-15_15-21-03_094959634447_rgbf000063-resize_1/003083_2014-06-15_15-21-03_094959634447_rgbf000063-resize_1-target.png,1000,4.1405,9,4121,996,feet,jsons/v1_VE1000_randls_28.json,581083,692421,24,Woman
57,795170,DepthScenes,duration_manipulation_targetAtFixation,jsons/v1_VE1000_randls_28.json,http://54.235.29.9/FacialAge/BNav_EC2/DepthDuration/v2_depth_duration_MTurk/v2_DepthDuration_HTML.html#310,310,1707,821,1366,768,8-30-2022,10-41-32,58,depth_duration_stimuli/000414_2014-06-04_19-49-13_260595134347_rgbf000044-resize_0/000414_2014-06-04_19-49-13_260595134347_rgbf000044-resize_0-target.png,1000,4.329,10,4053,985,feet,jsons/v1_VE1000_randls_28.json,581083,692421,24,Woman
58,795170,DepthScenes,duration_manipulation_targetAtFixation,jsons/v1_VE1000_randls_28.json,http://54.235.29.9/FacialAge/BNav_EC2/DepthDuration/v2_depth_duration_MTurk/v2_DepthDuration_HTML.html#310,310,1707,821,1366,768,8-30-2022,10-41-32,59,depth_duration_stimuli/003129_2014-05-12_10-48-10_094959634447_rgbf000100-resize_0/003129_2014-05-12_10-48-10_094959634447_rgbf000100-resize_0-target.png,1000,4.9305,10,3787,1000,feet,jsons/v1_VE1000_randls_28.json,581083,692421,24,Woman
59,795170,DepthScenes,duration_manipulation_targetAtFixation,jsons/v1_VE1000_randls_28.json,http://54.235.29.9/FacialAge/BNav_EC2/DepthDuration/v2_depth_duration_MTurk/v2_DepthDuration_HTML.html#310,310,1707,821,1366,768,8-30-2022,10-41-32,60,depth_duration_stimuli/001029_2014-06-08_13-17-57_260595134347_rgbf000065-resize_1/001029_2014-06-08_13-17-57_260595134347_rgbf000065-resize_1-target.png,1000,3.0835,6,4022,998,feet,jsons/v1_VE1000_randls_28.json,581083,692421,24,Woman
60,795170,DepthScenes,duration_manipulation_targetAtFixation,jsons/v1_VE1000_randls_28.json,http://54.235.29.9/FacialAge/BNav_EC2/DepthDuration/v2_depth_duration_MTurk/v2_DepthDuration_HTML.html#310,310,1707,821,1366,768,8-30-2022,10-41-32,61,depth_duration_stimuli/000677_2014-06-08_23-10-32_260595134347_rgbf000158-resize_6/000677_2014-06-08_23-10-32_260595134347_rgbf000158-resize_6-target.png,1000,3.556,7,3336,999,feet,jsons/v1_VE1000_randls_28.json,581083,692421,24,Woman
61,795170,DepthScenes,duration_manipulation_targetAtFixation,jsons/v1_VE1000_randls_28.json,http://54.235.29.9/FacialAge/BNav_EC2/DepthDuration/v2_depth_duration_MTurk/v2_DepthDuration_HTML.html#310,310,1707,821,1366,768,8-30-2022,10-41-32,62,depth_duration_stimuli/002784_2014-06-22_19-26-30_094959634447_rgbf000083-resize_3/002784_2014-06-22_19-26-30_094959634447_rgbf000083-resize_3-target.png,1000,1.8046666666667,2,2806,1003,feet,jsons/v1_VE1000_randls_28.json,581083,692421,24,Woman
62,795170,DepthScenes,duration_manipulation_targetAtFixation,jsons/v1_VE1000_randls_28.json,http://54.235.29.9/FacialAge/BNav_EC2/DepthDuration/v2_depth_duration_MTurk/v2_DepthDuration_HTML.html#310,310,1707,821,1366,768,8-30-2022,10-41-32,63,depth_duration_stimuli/001100_2014-06-15_17-46-26_260595134347_rgbf000225-resize_2/001100_2014-06-15_17-46-26_260595134347_rgbf000225-resize_2-target.png,1000,2.24,3,2800,992,feet,jsons/v1_VE1000_randls_28.json,581083,692421,24,Woman
63,795170,DepthScenes,duration_manipulation_targetAtFixation,jsons/v1_VE1000_randls_28.json,http://54.235.29.9/FacialAge/BNav_EC2/DepthDuration/v2_depth_duration_MTurk/v2_DepthDuration_HTML.html#310,310,1707,821,1366,768,8-30-2022,10-41-32,64,depth_duration_stimuli/000929_2014-06-09_16-33-19_260595134347_rgbf000139-resize_0/000929_2014-06-09_16-33-19_260595134347_rgbf000139-resize_0-target.png,1000,2.8680000000000003,5,2873,999,feet,jsons/v1_VE1000_randls_28.json,581083,692421,24,Woman
64,795170,DepthScenes,duration_manipulation_targetAtFixation,jsons/v1_VE1000_randls_28.json,http://54.235.29.9/FacialAge/BNav_EC2/DepthDuration/v2_depth_duration_MTurk/v2_DepthDuration_HTML.html#310,310,1707,821,1366,768,8-30-2022,10-41-32,65,depth_duration_stimuli/000457_2014-06-08_16-52-43_260595134347_rgbf000199-resize_1/000457_2014-06-08_16-52-43_260595134347_rgbf000199-resize_1-target.png,1000,3.6489999999999996,6,2696,1000,feet,jsons/v1_VE1000_randls_28.json,581083,692421,24,Woman
65,795170,DepthScenes,duration_manipulation_targetAtFixation,jsons/v1_VE1000_randls_28.json,http://54.235.29.9/FacialAge/BNav_EC2/DepthDuration/v2_depth_duration_MTurk/v2_DepthDuration_HTML.html#310,310,1707,821,1366,768,8-30-2022,10-41-32,66,depth_duration_stimuli/001222_2014-06-17_16-24-06_260595134347_rgbf000073-resize_0/001222_2014-06-17_16-24-06_260595134347_rgbf000073-resize-original.jpg,1000,1.4385,0,2973,986,feet,jsons/v1_VE1000_randls_28.json,581083,692421,24,Woman
66,795170,DepthScenes,duration_manipulation_targetAtFixation,jsons/v1_VE1000_randls_28.json,http://54.235.29.9/FacialAge/BNav_EC2/DepthDuration/v2_depth_duration_MTurk/v2_DepthDuration_HTML.html#310,310,1707,821,1366,768,8-30-2022,10-41-32,67,depth_duration_stimuli/003492_2014-05-21_15-50-55_094959634447_rgbf000828-resize_1/003492_2014-05-21_15-50-55_094959634447_rgbf000828-resize_1-target.png,1000,4.06875,8,2964,1004,feet,jsons/v1_VE1000_randls_28.json,581083,692421,24,Woman
67,795170,DepthScenes,duration_manipulation_targetAtFixation,jsons/v1_VE1000_randls_28.json,http://54.235.29.9/FacialAge/BNav_EC2/DepthDuration/v2_depth_duration_MTurk/v2_DepthDuration_HTML.html#310,310,1707,821,1366,768,8-30-2022,10-41-32,68,depth_duration_stimuli/002568_2014-06-24_13-59-21_094959634447_rgbf000062-resize_4/002568_2014-06-24_13-59-21_094959634447_rgbf000062-resize_4-target.png,1000,3.015,7,3129,994,feet,jsons/v1_VE1000_randls_28.json,581083,692421,24,Woman
68,795170,DepthScenes,duration_manipulation_targetAtFixation,jsons/v1_VE1000_randls_28.json,http://54.235.29.9/FacialAge/BNav_EC2/DepthDuration/v2_depth_duration_MTurk/v2_DepthDuration_HTML.html#310,310,1707,821,1366,768,8-30-2022,10-41-32,69,depth_duration_stimuli/000368_2014-06-09_15-53-01_260595134347_rgbf000155-resize_2/000368_2014-06-09_15-53-01_260595134347_rgbf000155-resize_2-target.png,1000,2.4859999999999998,5,3081,996,feet,jsons/v1_VE1000_randls_28.json,581083,692421,24,Woman
69,795170,DepthScenes,duration_manipulation_targetAtFixation,jsons/v1_VE1000_randls_28.json,http://54.235.29.9/FacialAge/BNav_EC2/DepthDuration/v2_depth_duration_MTurk/v2_DepthDuration_HTML.html#310,310,1707,821,1366,768,8-30-2022,10-41-32,70,depth_duration_stimuli/002678_2014-06-13_16-15-32_094959634447_rgbf000151-resize_6/002678_2014-06-13_16-15-32_094959634447_rgbf000151-resize_6-target.png,1000,2.1830000000000003,4,2785,991,feet,jsons/v1_VE1000_randls_28.json,581083,692421,24,Woman
70,795170,DepthScenes,duration_manipulation_targetAtFixation,jsons/v1_VE1000_randls_28.json,http://54.235.29.9/FacialAge/BNav_EC2/DepthDuration/v2_depth_duration_MTurk/v2_DepthDuration_HTML.html#310,310,1707,821,1366,768,8-30-2022,10-41-32,71,depth_duration_stimuli/001555_2014-06-20_17-12-10_260595134347_rgbf000065-resize_4/001555_2014-06-20_17-12-10_260595134347_rgbf000065-resize_4-target.png,1000,1.633,2,2515,1009,feet,jsons/v1_VE1000_randls_28.json,581083,692421,24,Woman
71,795170,DepthScenes,duration_manipulation_targetAtFixation,jsons/v1_VE1000_randls_28.json,http://54.235.29.9/FacialAge/BNav_EC2/DepthDuration/v2_depth_duration_MTurk/v2_DepthDuration_HTML.html#310,310,1707,821,1366,768,8-30-2022,10-41-32,72,depth_duration_stimuli/000103_2014-05-14_22-01-17_260595134347_rgbf000152-resize_5/000103_2014-05-14_22-01-17_260595134347_rgbf000152-resize_5-target.png,1000,1.993,5,2929,1008,feet,jsons/v1_VE1000_randls_28.json,581083,692421,24,Woman
72,795170,DepthScenes,duration_manipulation_targetAtFixation,jsons/v1_VE1000_randls_28.json,http://54.235.29.9/FacialAge/BNav_EC2/DepthDuration/v2_depth_duration_MTurk/v2_DepthDuration_HTML.html#310,310,1707,821,1366,768,8-30-2022,10-41-32,73,depth_duration_stimuli/000906_2014-06-08_13-35-43_260595134347_rgbf000155-resize_1/000906_2014-06-08_13-35-43_260595134347_rgbf000155-resize_1-target.png,1000,2.8489999999999998,7,2614,996,feet,jsons/v1_VE1000_randls_28.json,581083,692421,24,Woman
73,795170,DepthScenes,duration_manipulation_targetAtFixation,jsons/v1_VE1000_randls_28.json,http://54.235.29.9/FacialAge/BNav_EC2/DepthDuration/v2_depth_duration_MTurk/v2_DepthDuration_HTML.html#310,310,1707,821,1366,768,8-30-2022,10-41-32,74,depth_duration_stimuli/002805_2014-06-22_19-54-03_094959634447_rgbf000079-resize_1/002805_2014-06-22_19-54-03_094959634447_rgbf000079-resize_1-target.png,1000,3.1439999999999997,5,3634,1003,feet,jsons/v1_VE1000_randls_28.json,581083,692421,24,Woman
74,795170,DepthScenes,duration_manipulation_targetAtFixation,jsons/v1_VE1000_randls_28.json,http://54.235.29.9/FacialAge/BNav_EC2/DepthDuration/v2_depth_duration_MTurk/v2_DepthDuration_HTML.html#310,310,1707,821,1366,768,8-30-2022,10-41-32,75,depth_duration_stimuli/003534_2014-05-22_15-06-10_094959634447_rgbf000102-resize_4/003534_2014-05-22_15-06-10_094959634447_rgbf000102-resize_4-target.png,1000,1.426,2,2498,995,feet,jsons/v1_VE1000_randls_28.json,581083,692421,24,Woman
75,795170,DepthScenes,duration_manipulation_targetAtFixation,jsons/v1_VE1000_randls_28.json,http://54.235.29.9/FacialAge/BNav_EC2/DepthDuration/v2_depth_duration_MTurk/v2_DepthDuration_HTML.html#310,310,1707,821,1366,768,8-30-2022,10-41-32,76,depth_duration_stimuli/002637_2014-06-24_14-51-13_094959634447_rgbf000066-resize_4/002637_2014-06-24_14-51-13_094959634447_rgbf000066-resize_4-target.png,1000,1.9955,5,2758,998,feet,jsons/v1_VE1000_randls_28.json,581083,692421,24,Woman
76,795170,DepthScenes,duration_manipulation_targetAtFixation,jsons/v1_VE1000_randls_28.json,http://54.235.29.9/FacialAge/BNav_EC2/DepthDuration/v2_depth_duration_MTurk/v2_DepthDuration_HTML.html#310,310,1707,821,1366,768,8-30-2022,10-41-32,77,depth_duration_stimuli/001011_2014-06-08_23-18-54_260595134347_rgbf000044-resize_4/001011_2014-06-08_23-18-54_260595134347_rgbf000044-resize_4-target.png,1000,2.4730000000000003,6,2475,997,feet,jsons/v1_VE1000_randls_28.json,581083,692421,24,Woman
77,795170,DepthScenes,duration_manipulation_targetAtFixation,jsons/v1_VE1000_randls_28.json,http://54.235.29.9/FacialAge/BNav_EC2/DepthDuration/v2_depth_duration_MTurk/v2_DepthDuration_HTML.html#310,310,1707,821,1366,768,8-30-2022,10-41-32,78,depth_duration_stimuli/002875_2014-06-01_15-19-00_094959634447_rgbf000151-resize_1/002875_2014-06-01_15-19-00_094959634447_rgbf000151-resize_1-target.png,1000,1.9675,3,2435,1002,feet,jsons/v1_VE1000_randls_28.json,581083,692421,24,Woman
78,795170,DepthScenes,duration_manipulation_targetAtFixation,jsons/v1_VE1000_randls_28.json,http://54.235.29.9/FacialAge/BNav_EC2/DepthDuration/v2_depth_duration_MTurk/v2_DepthDuration_HTML.html#310,310,1707,821,1366,768,8-30-2022,10-41-32,79,depth_duration_stimuli/000788_2014-06-08_22-34-36_260595134347_rgbf000131-resize_1/000788_2014-06-08_22-34-36_260595134347_rgbf000131-resize_1-target.png,1000,3.359,6,2677,1005,feet,jsons/v1_VE1000_randls_28.json,581083,692421,24,Woman
79,795170,DepthScenes,duration_manipulation_targetAtFixation,jsons/v1_VE1000_randls_28.json,http://54.235.29.9/FacialAge/BNav_EC2/DepthDuration/v2_depth_duration_MTurk/v2_DepthDuration_HTML.html#310,310,1707,821,1366,768,8-30-2022,10-41-32,80,depth_duration_stimuli/001235_2014-06-17_16-37-36_260595134347_rgbf000084-resize_4/001235_2014-06-17_16-37-36_260595134347_rgbf000084-resize_4-target.png,1000,3.6605,7,2636,1001,feet,jsons/v1_VE1000_randls_28.json,581083,692421,24,Woman
80,795170,DepthScenes,duration_manipulation_targetAtFixation,jsons/v1_VE1000_randls_28.json,http://54.235.29.9/FacialAge/BNav_EC2/DepthDuration/v2_depth_duration_MTurk/v2_DepthDuration_HTML.html#310,310,1707,821,1366,768,8-30-2022,10-41-32,81,depth_duration_stimuli/002213_2014-06-28_18-37-58_260595134347_rgbf000055-resize_1/002213_2014-06-28_18-37-58_260595134347_rgbf000055-resize_1-target.png,1000,3.62,9,2717,1010,feet,jsons/v1_VE1000_randls_28.json,581083,692421,24,Woman
81,795170,DepthScenes,duration_manipulation_targetAtFixation,jsons/v1_VE1000_randls_28.json,http://54.235.29.9/FacialAge/BNav_EC2/DepthDuration/v2_depth_duration_MTurk/v2_DepthDuration_HTML.html#310,310,1707,821,1366,768,8-30-2022,10-41-32,82,depth_duration_stimuli/000691_2014-06-08_13-08-50_260595134347_rgbf000132-resize_3/000691_2014-06-08_13-08-50_260595134347_rgbf000132-resize_3-target.png,1000,4.1530000000000005,7,2430,996,feet,jsons/v1_VE1000_randls_28.json,581083,692421,24,Woman
82,795170,DepthScenes,duration_manipulation_targetAtFixation,jsons/v1_VE1000_randls_28.json,http://54.235.29.9/FacialAge/BNav_EC2/DepthDuration/v2_depth_duration_MTurk/v2_DepthDuration_HTML.html#310,310,1707,821,1366,768,8-30-2022,10-41-32,83,depth_duration_stimuli/002043_2014-06-24_20-29-38_260595134347_rgbf000039-resize_4/002043_2014-06-24_20-29-38_260595134347_rgbf000039-resize_4-target.png,1000,2.8435,7,2970,1002,feet,jsons/v1_VE1000_randls_28.json,581083,692421,24,Woman
83,795170,DepthScenes,duration_manipulation_targetAtFixation,jsons/v1_VE1000_randls_28.json,http://54.235.29.9/FacialAge/BNav_EC2/DepthDuration/v2_depth_duration_MTurk/v2_DepthDuration_HTML.html#310,310,1707,821,1366,768,8-30-2022,10-41-32,84,depth_duration_stimuli/003048_2014-06-15_13-49-43_094959634447_rgbf000150-resize_1/003048_2014-06-15_13-49-43_094959634447_rgbf000150-resize_1-target.png,1000,4.0035,6,2820,1004,feet,jsons/v1_VE1000_randls_28.json,581083,692421,24,Woman
84,795170,DepthScenes,duration_manipulation_targetAtFixation,jsons/v1_VE1000_randls_28.json,http://54.235.29.9/FacialAge/BNav_EC2/DepthDuration/v2_depth_duration_MTurk/v2_DepthDuration_HTML.html#310,310,1707,821,1366,768,8-30-2022,10-41-32,85,depth_duration_stimuli/001199_2014-06-17_16-03-48_260595134347_rgbf000077-resize_0/001199_2014-06-17_16-03-48_260595134347_rgbf000077-resize_0-target.png,1000,3.4375,9,2893,999,feet,jsons/v1_VE1000_randls_28.json,581083,692421,24,Woman
85,795170,DepthScenes,duration_manipulation_targetAtFixation,jsons/v1_VE1000_randls_28.json,http://54.235.29.9/FacialAge/BNav_EC2/DepthDuration/v2_depth_duration_MTurk/v2_DepthDuration_HTML.html#310,310,1707,821,1366,768,8-30-2022,10-41-32,86,depth_duration_stimuli/000502_2014-06-08_23-02-32_260595134347_rgbf000063-resize_4/000502_2014-06-08_23-02-32_260595134347_rgbf000063-resize_4-target.png,1000,2.431,4,2603,1001,feet,jsons/v1_VE1000_randls_28.json,581083,692421,24,Woman
86,795170,DepthScenes,duration_manipulation_targetAtFixation,jsons/v1_VE1000_randls_28.json,http://54.235.29.9/FacialAge/BNav_EC2/DepthDuration/v2_depth_duration_MTurk/v2_DepthDuration_HTML.html#310,310,1707,821,1366,768,8-30-2022,10-41-32,87,depth_duration_stimuli/001808_2014-06-26_20-50-58_260595134347_rgbf000029-resize_1/001808_2014-06-26_20-50-58_260595134347_rgbf000029-resize_1-target.png,1000,4.249,8,2712,994,feet,jsons/v1_VE1000_randls_28.json,581083,692421,24,Woman
87,795170,DepthScenes,duration_manipulation_targetAtFixation,jsons/v1_VE1000_randls_28.json,http://54.235.29.9/FacialAge/BNav_EC2/DepthDuration/v2_depth_duration_MTurk/v2_DepthDuration_HTML.html#310,310,1707,821,1366,768,8-30-2022,10-41-32,88,depth_duration_stimuli/001815_2014-06-26_20-52-55_260595134347_rgbf000020-resize_0/001815_2014-06-26_20-52-55_260595134347_rgbf000020-resize_0-target.png,1000,3.3865,6,5200,996,feet,jsons/v1_VE1000_randls_28.json,581083,692421,24,Woman
88,795170,DepthScenes,duration_manipulation_targetAtFixation,jsons/v1_VE1000_randls_28.json,http://54.235.29.9/FacialAge/BNav_EC2/DepthDuration/v2_depth_duration_MTurk/v2_DepthDuration_HTML.html#310,310,1707,821,1366,768,8-30-2022,10-41-32,89,depth_duration_stimuli/000470_2014-06-09_19-42-40_260595134347_rgbf000094-resize_1/000470_2014-06-09_19-42-40_260595134347_rgbf000094-resize_1-target.png,1000,1.831,3,2910,996,feet,jsons/v1_VE1000_randls_28.json,581083,692421,24,Woman
89,795170,DepthScenes,duration_manipulation_targetAtFixation,jsons/v1_VE1000_randls_28.json,http://54.235.29.9/FacialAge/BNav_EC2/DepthDuration/v2_depth_duration_MTurk/v2_DepthDuration_HTML.html#310,310,1707,821,1366,768,8-30-2022,10-41-32,90,depth_duration_stimuli/000109_2014-05-14_23-41-52_260595134347_rgbf000035-resize_9/000109_2014-05-14_23-41-52_260595134347_rgbf000035-resize_9-target.png,1000,1.3545,2,2787,998,feet,jsons/v1_VE1000_randls_28.json,581083,692421,24,Woman
90,795170,DepthScenes,duration_manipulation_targetAtFixation,jsons/v1_VE1000_randls_28.json,http://54.235.29.9/FacialAge/BNav_EC2/DepthDuration/v2_depth_duration_MTurk/v2_DepthDuration_HTML.html#310,310,1707,821,1366,768,8-30-2022,10-41-32,91,depth_duration_stimuli/000009_2014-05-26_14-32-05_260595134347_rgbf000034-resize_3/000009_2014-05-26_14-32-05_260595134347_rgbf000034-resize_3-target.png,1000,3.8715,8,3125,997,feet,jsons/v1_VE1000_randls_28.json,581083,692421,24,Woman
91,795170,DepthScenes,duration_manipulation_targetAtFixation,jsons/v1_VE1000_randls_28.json,http://54.235.29.9/FacialAge/BNav_EC2/DepthDuration/v2_depth_duration_MTurk/v2_DepthDuration_HTML.html#310,310,1707,821,1366,768,8-30-2022,10-41-32,92,depth_duration_stimuli/001828_2014-06-26_21-40-03_260595134347_rgbf000024-resize_0/001828_2014-06-26_21-40-03_260595134347_rgbf000024-resize_0-target.png,1000,4.8260000000000005,9,3892,1009,feet,jsons/v1_VE1000_randls_28.json,581083,692421,24,Woman
92,795170,DepthScenes,duration_manipulation_targetAtFixation,jsons/v1_VE1000_randls_28.json,http://54.235.29.9/FacialAge/BNav_EC2/DepthDuration/v2_depth_duration_MTurk/v2_DepthDuration_HTML.html#310,310,1707,821,1366,768,8-30-2022,10-41-32,93,depth_duration_stimuli/002118_2014-06-25_20-32-08_260595134347_rgbf000078-resize_1/002118_2014-06-25_20-32-08_260595134347_rgbf000078-resize_1-target.png,1000,2.6460000000000004,4,2644,996,feet,jsons/v1_VE1000_randls_28.json,581083,692421,24,Woman
93,795170,DepthScenes,duration_manipulation_targetAtFixation,jsons/v1_VE1000_randls_28.json,http://54.235.29.9/FacialAge/BNav_EC2/DepthDuration/v2_depth_duration_MTurk/v2_DepthDuration_HTML.html#310,310,1707,821,1366,768,8-30-2022,10-41-32,94,depth_duration_stimuli/001516_2014-06-20_16-25-09_260595134347_rgbf000076-resize_2/001516_2014-06-20_16-25-09_260595134347_rgbf000076-resize_2-target.png,1000,1.7445,3,2519,1002,feet,jsons/v1_VE1000_randls_28.json,581083,692421,24,Woman
94,795170,DepthScenes,duration_manipulation_targetAtFixation,jsons/v1_VE1000_randls_28.json,http://54.235.29.9/FacialAge/BNav_EC2/DepthDuration/v2_depth_duration_MTurk/v2_DepthDuration_HTML.html#310,310,1707,821,1366,768,8-30-2022,10-41-32,95,depth_duration_stimuli/001055_2014-06-08_18-45-35_260595134347_rgbf000111-resize_4/001055_2014-06-08_18-45-35_260595134347_rgbf000111-resize_4-target.png,1000,2.4290000000000003,7,2947,1000,feet,jsons/v1_VE1000_randls_28.json,581083,692421,24,Woman
95,795170,DepthScenes,duration_manipulation_targetAtFixation,jsons/v1_VE1000_randls_28.json,http://54.235.29.9/FacialAge/BNav_EC2/DepthDuration/v2_depth_duration_MTurk/v2_DepthDuration_HTML.html#310,310,1707,821,1366,768,8-30-2022,10-41-32,96,depth_duration_stimuli/000549_2014-06-08_22-10-24_260595134347_rgbf000247-resize_3/000549_2014-06-08_22-10-24_260595134347_rgbf000247-resize_3-target.png,1000,1.841,3,2677,1004,feet,jsons/v1_VE1000_randls_28.json,581083,692421,24,Woman
96,795170,DepthScenes,duration_manipulation_targetAtFixation,jsons/v1_VE1000_randls_28.json,http://54.235.29.9/FacialAge/BNav_EC2/DepthDuration/v2_depth_duration_MTurk/v2_DepthDuration_HTML.html#310,310,1707,821,1366,768,8-30-2022,10-41-32,97,depth_duration_stimuli/002725_2014-06-22_11-47-51_094959634447_rgbf000070-resize_1/002725_2014-06-22_11-47-51_094959634447_rgbf000070-resize_1-target.png,1000,2.195,5,3220,994,feet,jsons/v1_VE1000_randls_28.json,581083,692421,24,Woman
97,795170,DepthScenes,duration_manipulation_targetAtFixation,jsons/v1_VE1000_randls_28.json,http://54.235.29.9/FacialAge/BNav_EC2/DepthDuration/v2_depth_duration_MTurk/v2_DepthDuration_HTML.html#310,310,1707,821,1366,768,8-30-2022,10-41-32,98,depth_duration_stimuli/002344_2014-06-28_20-06-29_260595134347_rgbf000030-resize_1/002344_2014-06-28_20-06-29_260595134347_rgbf000030-resize_1-target.png,1000,1.5795,2,2731,994,feet,jsons/v1_VE1000_randls_28.json,581083,692421,24,Woman
98,795170,DepthScenes,duration_manipulation_targetAtFixation,jsons/v1_VE1000_randls_28.json,http://54.235.29.9/FacialAge/BNav_EC2/DepthDuration/v2_depth_duration_MTurk/v2_DepthDuration_HTML.html#310,310,1707,821,1366,768,8-30-2022,10-41-32,99,depth_duration_stimuli/001540_2014-06-20_17-01-05_260595134347_rgbf000086-resize_2/001540_2014-06-20_17-01-05_260595134347_rgbf000086-resize-original.jpg,1000,1.459,0,2839,987,feet,jsons/v1_VE1000_randls_28.json,581083,692421,24,Woman
99,795170,DepthScenes,duration_manipulation_targetAtFixation,jsons/v1_VE1000_randls_28.json,http://54.235.29.9/FacialAge/BNav_EC2/DepthDuration/v2_depth_duration_MTurk/v2_DepthDuration_HTML.html#310,310,1707,821,1366,768,8-30-2022,10-41-32,100,depth_duration_stimuli/000878_2014-06-08_22-52-45_260595134347_rgbf000045-resize_2/000878_2014-06-08_22-52-45_260595134347_rgbf000045-resize_2-target.png,1000,2.092,4,2646,1003,feet,jsons/v1_VE1000_randls_28.json,581083,692421,24,Woman
100,795170,DepthScenes,duration_manipulation_targetAtFixation,jsons/v1_VE1000_randls_28.json,http://54.235.29.9/FacialAge/BNav_EC2/DepthDuration/v2_depth_duration_MTurk/v2_DepthDuration_HTML.html#310,310,1707,821,1366,768,8-30-2022,10-41-32,101,depth_duration_stimuli/002953_2014-06-08_17-32-18_094959634447_rgbf000059-resize_5/002953_2014-06-08_17-32-18_094959634447_rgbf000059-resize_5-target.png,1000,1.551,2,3115,1012,feet,jsons/v1_VE1000_randls_28.json,581083,692421,24,Woman
101,795170,DepthScenes,duration_manipulation_targetAtFixation,jsons/v1_VE1000_randls_28.json,http://54.235.29.9/FacialAge/BNav_EC2/DepthDuration/v2_depth_duration_MTurk/v2_DepthDuration_HTML.html#310,310,1707,821,1366,768,8-30-2022,10-41-32,102,depth_duration_stimuli/002630_2014-06-24_14-47-50_094959634447_rgbf000055-resize_1/002630_2014-06-24_14-47-50_094959634447_rgbf000055-resize_1-target.png,1000,3.0095,8,3135,996,feet,jsons/v1_VE1000_randls_28.json,581083,692421,24,Woman
102,795170,DepthScenes,duration_manipulation_targetAtFixation,jsons/v1_VE1000_randls_28.json,http://54.235.29.9/FacialAge/BNav_EC2/DepthDuration/v2_depth_duration_MTurk/v2_DepthDuration_HTML.html#310,310,1707,821,1366,768,8-30-2022,10-41-32,103,depth_duration_stimuli/002758_2014-06-22_19-11-20_094959634447_rgbf000128-resize_1/002758_2014-06-22_19-11-20_094959634447_rgbf000128-resize_1-target.png,1000,2.555,4,2701,1003,feet,jsons/v1_VE1000_randls_28.json,581083,692421,24,Woman
103,795170,DepthScenes,duration_manipulation_targetAtFixation,jsons/v1_VE1000_randls_28.json,http://54.235.29.9/FacialAge/BNav_EC2/DepthDuration/v2_depth_duration_MTurk/v2_DepthDuration_HTML.html#310,310,1707,821,1366,768,8-30-2022,10-41-32,104,depth_duration_stimuli/002445_2014-06-28_20-32-16_260595134347_rgbf000029-resize_4/002445_2014-06-28_20-32-16_260595134347_rgbf000029-resize_4-target.png,1000,2.5315,4,2676,997,feet,jsons/v1_VE1000_randls_28.json,581083,692421,24,Woman
104,795170,DepthScenes,duration_manipulation_targetAtFixation,jsons/v1_VE1000_randls_28.json,http://54.235.29.9/FacialAge/BNav_EC2/DepthDuration/v2_depth_duration_MTurk/v2_DepthDuration_HTML.html#310,310,1707,821,1366,768,8-30-2022,10-41-32,105,depth_duration_stimuli/000780_2014-06-08_22-28-29_260595134347_rgbf000126-resize_1/000780_2014-06-08_22-28-29_260595134347_rgbf000126-resize_1-target.png,1000,3.3825,7,2813,1000,feet,jsons/v1_VE1000_randls_28.json,581083,692421,24,Woman
105,795170,DepthScenes,duration_manipulation_targetAtFixation,jsons/v1_VE1000_randls_28.json,http://54.235.29.9/FacialAge/BNav_EC2/DepthDuration/v2_depth_duration_MTurk/v2_DepthDuration_HTML.html#310,310,1707,821,1366,768,8-30-2022,10-41-32,106,depth_duration_stimuli/000642_2014-06-08_16-59-25_260595134347_rgbf000098-resize_2/000642_2014-06-08_16-59-25_260595134347_rgbf000098-resize_2-target.png,1000,2.8815,6,3055,997,feet,jsons/v1_VE1000_randls_28.json,581083,692421,24,Woman
106,795170,DepthScenes,duration_manipulation_targetAtFixation,jsons/v1_VE1000_randls_28.json,http://54.235.29.9/FacialAge/BNav_EC2/DepthDuration/v2_depth_duration_MTurk/v2_DepthDuration_HTML.html#310,310,1707,821,1366,768,8-30-2022,10-41-32,107,depth_duration_stimuli/002425_2014-06-28_20-27-29_260595134347_rgbf000031-resize_8/002425_2014-06-28_20-27-29_260595134347_rgbf000031-resize_8-target.png,1000,3.8960000000000004,6,2966,995,feet,jsons/v1_VE1000_randls_28.json,581083,692421,24,Woman
107,795170,DepthScenes,duration_manipulation_targetAtFixation,jsons/v1_VE1000_randls_28.json,http://54.235.29.9/FacialAge/BNav_EC2/DepthDuration/v2_depth_duration_MTurk/v2_DepthDuration_HTML.html#310,310,1707,821,1366,768,8-30-2022,10-41-32,108,depth_duration_stimuli/001133_2014-06-17_14-49-16_260595134347_rgbf000100-resize_0/001133_2014-06-17_14-49-16_260595134347_rgbf000100-resize_0-target.png,1000,4.2115,8,2742,996,feet,jsons/v1_VE1000_randls_28.json,581083,692421,24,Woman
108,795170,DepthScenes,duration_manipulation_targetAtFixation,jsons/v1_VE1000_randls_28.json,http://54.235.29.9/FacialAge/BNav_EC2/DepthDuration/v2_depth_duration_MTurk/v2_DepthDuration_HTML.html#310,310,1707,821,1366,768,8-30-2022,10-41-32,109,depth_duration_stimuli/001132_2014-06-17_14-48-54_260595134347_rgbf000100-resize_2/001132_2014-06-17_14-48-54_260595134347_rgbf000100-resize_2-target.png,1000,3.753,6,2859,991,feet,jsons/v1_VE1000_randls_28.json,581083,692421,24,Woman
109,795170,DepthScenes,duration_manipulation_targetAtFixation,jsons/v1_VE1000_randls_28.json,http://54.235.29.9/FacialAge/BNav_EC2/DepthDuration/v2_depth_duration_MTurk/v2_DepthDuration_HTML.html#310,310,1707,821,1366,768,8-30-2022,10-41-32,110,depth_duration_stimuli/001164_2014-06-17_15-35-46_260595134347_rgbf000085-resize_3/001164_2014-06-17_15-35-46_260595134347_rgbf000085-resize_3-target.png,1000,2.354,5,3150,1003,feet,jsons/v1_VE1000_randls_28.json,581083,692421,24,Woman
110,795170,DepthScenes,duration_manipulation_targetAtFixation,jsons/v1_VE1000_randls_28.json,http://54.235.29.9/FacialAge/BNav_EC2/DepthDuration/v2_depth_duration_MTurk/v2_DepthDuration_HTML.html#310,310,1707,821,1366,768,8-30-2022,10-41-32,111,depth_duration_stimuli/001136_2014-06-17_15-19-41_260595134347_rgbf000076-resize_3/001136_2014-06-17_15-19-41_260595134347_rgbf000076-resize_3-target.png,1000,1.8655,4,2903,1011,feet,jsons/v1_VE1000_randls_28.json,581083,692421,24,Woman
111,795170,DepthScenes,duration_manipulation_targetAtFixation,jsons/v1_VE1000_randls_28.json,http://54.235.29.9/FacialAge/BNav_EC2/DepthDuration/v2_depth_duration_MTurk/v2_DepthDuration_HTML.html#310,310,1707,821,1366,768,8-30-2022,10-41-32,112,depth_duration_stimuli/001110_2014-06-15_17-25-28_260595134347_rgbf000150-resize_1/001110_2014-06-15_17-25-28_260595134347_rgbf000150-resize_1-target.png,1000,1.7115,4,2928,998,feet,jsons/v1_VE1000_randls_28.json,581083,692421,24,Woman
112,795170,DepthScenes,duration_manipulation_targetAtFixation,jsons/v1_VE1000_randls_28.json,http://54.235.29.9/FacialAge/BNav_EC2/DepthDuration/v2_depth_duration_MTurk/v2_DepthDuration_HTML.html#310,310,1707,821,1366,768,8-30-2022,10-41-32,113,depth_duration_stimuli/000927_2014-06-09_16-32-30_260595134347_rgbf000123-resize_3/000927_2014-06-09_16-32-30_260595134347_rgbf000123-resize_3-target.png,1000,2.6785,6,2758,1005,feet,jsons/v1_VE1000_randls_28.json,581083,692421,24,Woman
113,795170,DepthScenes,duration_manipulation_targetAtFixation,jsons/v1_VE1000_randls_28.json,http://54.235.29.9/FacialAge/BNav_EC2/DepthDuration/v2_depth_duration_MTurk/v2_DepthDuration_HTML.html#310,310,1707,821,1366,768,8-30-2022,10-41-32,114,depth_duration_stimuli/001417_2014-06-19_16-25-36_260595134347_rgbf000115-resize_5/001417_2014-06-19_16-25-36_260595134347_rgbf000115-resize_5-target.png,1000,4.6255,7,2812,986,feet,jsons/v1_VE1000_randls_28.json,581083,692421,24,Woman
114,795170,DepthScenes,duration_manipulation_targetAtFixation,jsons/v1_VE1000_randls_28.json,http://54.235.29.9/FacialAge/BNav_EC2/DepthDuration/v2_depth_duration_MTurk/v2_DepthDuration_HTML.html#310,310,1707,821,1366,768,8-30-2022,10-41-32,115,depth_duration_stimuli/003081_2014-06-15_15-19-16_094959634447_rgbf000150-resize_1/003081_2014-06-15_15-19-16_094959634447_rgbf000150-resize_1-target.png,1000,3.9125,6,2664,996,feet,jsons/v1_VE1000_randls_28.json,581083,692421,24,Woman
115,795170,DepthScenes,duration_manipulation_targetAtFixation,jsons/v1_VE1000_randls_28.json,http://54.235.29.9/FacialAge/BNav_EC2/DepthDuration/v2_depth_duration_MTurk/v2_DepthDuration_HTML.html#310,310,1707,821,1366,768,8-30-2022,10-41-32,116,depth_duration_stimuli/001170_2014-06-17_15-43-44_260595134347_rgbf000096-resize_6/001170_2014-06-17_15-43-44_260595134347_rgbf000096-resize-original.jpg,1000,1.1909999999999998,0,3033,986,feet,jsons/v1_VE1000_randls_28.json,581083,692421,24,Woman
116,795170,DepthScenes,duration_manipulation_targetAtFixation,jsons/v1_VE1000_randls_28.json,http://54.235.29.9/FacialAge/BNav_EC2/DepthDuration/v2_depth_duration_MTurk/v2_DepthDuration_HTML.html#310,310,1707,821,1366,768,8-30-2022,10-41-32,117,depth_duration_stimuli/000917_2014-06-09_22-45-29_260595134347_rgbf000149-resize_3/000917_2014-06-09_22-45-29_260595134347_rgbf000149-resize_3-target.png,1000,4.1865,10,3035,997,feet,jsons/v1_VE1000_randls_28.json,581083,692421,24,Woman
117,795170,DepthScenes,duration_manipulation_targetAtFixation,jsons/v1_VE1000_randls_28.json,http://54.235.29.9/FacialAge/BNav_EC2/DepthDuration/v2_depth_duration_MTurk/v2_DepthDuration_HTML.html#310,310,1707,821,1366,768,8-30-2022,10-41-32,118,depth_duration_stimuli/002323_2014-06-28_20-01-54_260595134347_rgbf000051-resize_4/002323_2014-06-28_20-01-54_260595134347_rgbf000051-resize_4-target.png,1000,3.7310000000000003,9,2835,996,feet,jsons/v1_VE1000_randls_28.json,581083,692421,24,Woman
118,795170,DepthScenes,duration_manipulation_targetAtFixation,jsons/v1_VE1000_randls_28.json,http://54.235.29.9/FacialAge/BNav_EC2/DepthDuration/v2_depth_duration_MTurk/v2_DepthDuration_HTML.html#310,310,1707,821,1366,768,8-30-2022,10-41-32,119,depth_duration_stimuli/002153_2014-06-25_21-27-18_260595134347_rgbf000038-resize_5/002153_2014-06-25_21-27-18_260595134347_rgbf000038-resize_5-target.png,1000,2.505,4,2554,1000,feet,jsons/v1_VE1000_randls_28.json,581083,692421,24,Woman
119,795170,DepthScenes,duration_manipulation_targetAtFixation,jsons/v1_VE1000_randls_28.json,http://54.235.29.9/FacialAge/BNav_EC2/DepthDuration/v2_depth_duration_MTurk/v2_DepthDuration_HTML.html#310,310,1707,821,1366,768,8-30-2022,10-41-32,120,depth_duration_stimuli/002660_2014-06-13_15-44-18_094959634447_rgbf001878-resize_2/002660_2014-06-13_15-44-18_094959634447_rgbf001878-resize_2-target.png,1000,3.576,6,2795,1005,feet,jsons/v1_VE1000_randls_28.json,581083,692421,24,Woman
120,795170,DepthScenes,duration_manipulation_targetAtFixation,jsons/v1_VE1000_randls_28.json,http://54.235.29.9/FacialAge/BNav_EC2/DepthDuration/v2_depth_duration_MTurk/v2_DepthDuration_HTML.html#310,310,1707,821,1366,768,8-30-2022,10-41-32,121,depth_duration_stimuli/001056_2014-06-08_18-46-44_260595134347_rgbf000068-resize_0/001056_2014-06-08_18-46-44_260595134347_rgbf000068-resize_0-target.png,1000,2.6625,5,2546,997,feet,jsons/v1_VE1000_randls_28.json,581083,692421,24,Woman
121,795170,DepthScenes,duration_manipulation_targetAtFixation,jsons/v1_VE1000_randls_28.json,http://54.235.29.9/FacialAge/BNav_EC2/DepthDuration/v2_depth_duration_MTurk/v2_DepthDuration_HTML.html#310,310,1707,821,1366,768,8-30-2022,10-41-32,122,depth_duration_stimuli/002199_2014-06-28_18-33-56_260595134347_rgbf000074-resize_0/002199_2014-06-28_18-33-56_260595134347_rgbf000074-resize_0-target.png,1000,1.996,2,2596,1004,feet,jsons/v1_VE1000_randls_28.json,581083,692421,24,Woman
122,795170,DepthScenes,duration_manipulation_targetAtFixation,jsons/v1_VE1000_randls_28.json,http://54.235.29.9/FacialAge/BNav_EC2/DepthDuration/v2_depth_duration_MTurk/v2_DepthDuration_HTML.html#310,310,1707,821,1366,768,8-30-2022,10-41-32,123,depth_duration_stimuli/001150_2014-06-17_15-27-34_260595134347_rgbf000108-resize_2/001150_2014-06-17_15-27-34_260595134347_rgbf000108-resize_2-target.png,1000,4.0325,6,3651,995,feet,jsons/v1_VE1000_randls_28.json,581083,692421,24,Woman
123,795170,DepthScenes,duration_manipulation_targetAtFixation,jsons/v1_VE1000_randls_28.json,http://54.235.29.9/FacialAge/BNav_EC2/DepthDuration/v2_depth_duration_MTurk/v2_DepthDuration_HTML.html#310,310,1707,821,1366,768,8-30-2022,10-41-32,124,depth_duration_stimuli/000665_2014-06-09_20-42-35_260595134347_rgbf000110-resize_1/000665_2014-06-09_20-42-35_260595134347_rgbf000110-resize_1-target.png,1000,3.057,5,2754,992,feet,jsons/v1_VE1000_randls_28.json,581083,692421,24,Woman
124,795170,DepthScenes,duration_manipulation_targetAtFixation,jsons/v1_VE1000_randls_28.json,http://54.235.29.9/FacialAge/BNav_EC2/DepthDuration/v2_depth_duration_MTurk/v2_DepthDuration_HTML.html#310,310,1707,821,1366,768,8-30-2022,10-41-32,125,depth_duration_stimuli/002375_2014-06-28_20-13-44_260595134347_rgbf000032-resize_1/002375_2014-06-28_20-13-44_260595134347_rgbf000032-resize_1-target.png,1000,4.0175,6,2736,996,feet,jsons/v1_VE1000_randls_28.json,581083,692421,24,Woman
125,795170,DepthScenes,duration_manipulation_targetAtFixation,jsons/v1_VE1000_randls_28.json,http://54.235.29.9/FacialAge/BNav_EC2/DepthDuration/v2_depth_duration_MTurk/v2_DepthDuration_HTML.html#310,310,1707,821,1366,768,8-30-2022,10-41-32,126,depth_duration_stimuli/002657_2014-06-13_15-29-54_094959634447_rgbf000150-resize_1/002657_2014-06-13_15-29-54_094959634447_rgbf000150-resize_1-target.png,1000,4.919,5,2874,1000,feet,jsons/v1_VE1000_randls_28.json,581083,692421,24,Woman
126,795170,DepthScenes,duration_manipulation_targetAtFixation,jsons/v1_VE1000_randls_28.json,http://54.235.29.9/FacialAge/BNav_EC2/DepthDuration/v2_depth_duration_MTurk/v2_DepthDuration_HTML.html#310,310,1707,821,1366,768,8-30-2022,10-41-32,127,depth_duration_stimuli/001167_2014-06-17_15-38-07_260595134347_rgbf000108-resize_0/001167_2014-06-17_15-38-07_260595134347_rgbf000108-resize_0-target.png,1000,1.8505,3,2864,1000,feet,jsons/v1_VE1000_randls_28.json,581083,692421,24,Woman
127,795170,DepthScenes,duration_manipulation_targetAtFixation,jsons/v1_VE1000_randls_28.json,http://54.235.29.9/FacialAge/BNav_EC2/DepthDuration/v2_depth_duration_MTurk/v2_DepthDuration_HTML.html#310,310,1707,821,1366,768,8-30-2022,10-41-32,128,depth_duration_stimuli/003587_2014-05-23_16-48-02_094959634447_rgbf002384-resize_2/003587_2014-05-23_16-48-02_094959634447_rgbf002384-resize_2-target.png,1000,1.357,1,2715,997,feet,jsons/v1_VE1000_randls_28.json,581083,692421,24,Woman
128,795170,DepthScenes,duration_manipulation_targetAtFixation,jsons/v1_VE1000_randls_28.json,http://54.235.29.9/FacialAge/BNav_EC2/DepthDuration/v2_depth_duration_MTurk/v2_DepthDuration_HTML.html#310,310,1707,821,1366,768,8-30-2022,10-41-32,129,depth_duration_stimuli/001016_2014-06-09_16-16-10_260595134347_rgbf000112-resize_5/001016_2014-06-09_16-16-10_260595134347_rgbf000112-resize_5-target.png,1000,1.6565,5,3408,999,feet,jsons/v1_VE1000_randls_28.json,581083,692421,24,Woman
129,795170,DepthScenes,duration_manipulation_targetAtFixation,jsons/v1_VE1000_randls_28.json,http://54.235.29.9/FacialAge/BNav_EC2/DepthDuration/v2_depth_duration_MTurk/v2_DepthDuration_HTML.html#310,310,1707,821,1366,768,8-30-2022,10-41-32,130,depth_duration_stimuli/002340_2014-06-28_20-05-46_260595134347_rgbf000113-resize_0/002340_2014-06-28_20-05-46_260595134347_rgbf000113-resize_0-target.png,1000,2.4735,6,2858,996,feet,jsons/v1_VE1000_randls_28.json,581083,692421,24,Woman
130,795170,DepthScenes,duration_manipulation_targetAtFixation,jsons/v1_VE1000_randls_28.json,http://54.235.29.9/FacialAge/BNav_EC2/DepthDuration/v2_depth_duration_MTurk/v2_DepthDuration_HTML.html#310,310,1707,821,1366,768,8-30-2022,10-41-32,131,depth_duration_stimuli/002279_2014-06-28_18-55-32_260595134347_rgbf000040-resize_5/002279_2014-06-28_18-55-32_260595134347_rgbf000040-resize_5-target.png,1000,1.5043333333333,3,3136,991,feet,jsons/v1_VE1000_randls_28.json,581083,692421,24,Woman
131,795170,DepthScenes,duration_manipulation_targetAtFixation,jsons/v1_VE1000_randls_28.json,http://54.235.29.9/FacialAge/BNav_EC2/DepthDuration/v2_depth_duration_MTurk/v2_DepthDuration_HTML.html#310,310,1707,821,1366,768,8-30-2022,10-41-32,132,depth_duration_stimuli/000635_2014-06-08_16-38-42_260595134347_rgbf000106-resize_1/000635_2014-06-08_16-38-42_260595134347_rgbf000106-resize_1-target.png,1000,2.074,5,3120,1006,feet,jsons/v1_VE1000_randls_28.json,581083,692421,24,Woman
132,795170,DepthScenes,duration_manipulation_targetAtFixation,jsons/v1_VE1000_randls_28.json,http://54.235.29.9/FacialAge/BNav_EC2/DepthDuration/v2_depth_duration_MTurk/v2_DepthDuration_HTML.html#310,310,1707,821,1366,768,8-30-2022,10-41-32,133,depth_duration_stimuli/003070_2014-06-15_14-58-27_094959634447_rgbf000150-resize_3/003070_2014-06-15_14-58-27_094959634447_rgbf000150-resize_3-target.png,1000,2.9415,6,2800,1002,feet,jsons/v1_VE1000_randls_28.json,581083,692421,24,Woman
133,795170,DepthScenes,duration_manipulation_targetAtFixation,jsons/v1_VE1000_randls_28.json,http://54.235.29.9/FacialAge/BNav_EC2/DepthDuration/v2_depth_duration_MTurk/v2_DepthDuration_HTML.html#310,310,1707,821,1366,768,8-30-2022,10-41-32,134,depth_duration_stimuli/000943_2014-06-09_19-31-07_260595134347_rgbf000128-resize_1/000943_2014-06-09_19-31-07_260595134347_rgbf000128-resize_1-target.png,1000,1.9765,4,2792,998,feet,jsons/v1_VE1000_randls_28.json,581083,692421,24,Woman
134,795170,DepthScenes,duration_manipulation_targetAtFixation,jsons/v1_VE1000_randls_28.json,http://54.235.29.9/FacialAge/BNav_EC2/DepthDuration/v2_depth_duration_MTurk/v2_DepthDuration_HTML.html#310,310,1707,821,1366,768,8-30-2022,10-41-32,135,depth_duration_stimuli/002072_2014-06-24_21-48-06_260595134347_rgbf000115-resize_0/002072_2014-06-24_21-48-06_260595134347_rgbf000115-resize-original.jpg,1000,4.702,0,2946,995,feet,jsons/v1_VE1000_randls_28.json,581083,692421,24,Woman
135,795170,DepthScenes,duration_manipulation_targetAtFixation,jsons/v1_VE1000_randls_28.json,http://54.235.29.9/FacialAge/BNav_EC2/DepthDuration/v2_depth_duration_MTurk/v2_DepthDuration_HTML.html#310,310,1707,821,1366,768,8-30-2022,10-41-32,136,depth_duration_stimuli/000682_2014-06-08_23-14-58_260595134347_rgbf000041-resize_5/000682_2014-06-08_23-14-58_260595134347_rgbf000041-resize_5-target.png,1000,2.7239999999999998,6,3022,1003,feet,jsons/v1_VE1000_randls_28.json,581083,692421,24,Woman
136,795170,DepthScenes,duration_manipulation_targetAtFixation,jsons/v1_VE1000_randls_28.json,http://54.235.29.9/FacialAge/BNav_EC2/DepthDuration/v2_depth_duration_MTurk/v2_DepthDuration_HTML.html#310,310,1707,821,1366,768,8-30-2022,10-41-32,137,depth_duration_stimuli/001650_2014-06-20_12-09-00_260595134347_rgbf000087-resize_3/001650_2014-06-20_12-09-00_260595134347_rgbf000087-resize_3-target.png,1000,1.9505,1,3071,1003,feet,jsons/v1_VE1000_randls_28.json,581083,692421,24,Woman
137,795170,DepthScenes,duration_manipulation_targetAtFixation,jsons/v1_VE1000_randls_28.json,http://54.235.29.9/FacialAge/BNav_EC2/DepthDuration/v2_depth_duration_MTurk/v2_DepthDuration_HTML.html#310,310,1707,821,1366,768,8-30-2022,10-41-32,138,depth_duration_stimuli/000493_2014-06-09_21-01-18_260595134347_rgbf000196-resize_3/000493_2014-06-09_21-01-18_260595134347_rgbf000196-resize_3-target.png,1000,3.44,6,3357,1006,feet,jsons/v1_VE1000_randls_28.json,581083,692421,24,Woman
138,795170,DepthScenes,duration_manipulation_targetAtFixation,jsons/v1_VE1000_randls_28.json,http://54.235.29.9/FacialAge/BNav_EC2/DepthDuration/v2_depth_duration_MTurk/v2_DepthDuration_HTML.html#310,310,1707,821,1366,768,8-30-2022,10-41-32,139,depth_duration_stimuli/000191_2014-05-12_17-07-38_260595134347_rgbf000199-resize_0/000191_2014-05-12_17-07-38_260595134347_rgbf000199-resize_0-target.png,1000,3.7995,9,3607,1002,feet,jsons/v1_VE1000_randls_28.json,581083,692421,24,Woman
139,795170,DepthScenes,duration_manipulation_targetAtFixation,jsons/v1_VE1000_randls_28.json,http://54.235.29.9/FacialAge/BNav_EC2/DepthDuration/v2_depth_duration_MTurk/v2_DepthDuration_HTML.html#310,310,1707,821,1366,768,8-30-2022,10-41-32,140,depth_duration_stimuli/002763_2014-06-22_19-13-10_094959634447_rgbf000075-resize_4/002763_2014-06-22_19-13-10_094959634447_rgbf000075-resize_4-target.png,1000,1.68375,3,3885,1009,feet,jsons/v1_VE1000_randls_28.json,581083,692421,24,Woman
140,795170,DepthScenes,duration_manipulation_targetAtFixation,jsons/v1_VE1000_randls_28.json,http://54.235.29.9/FacialAge/BNav_EC2/DepthDuration/v2_depth_duration_MTurk/v2_DepthDuration_HTML.html#310,310,1707,821,1366,768,8-30-2022,10-41-32,141,depth_duration_stimuli/002209_2014-06-28_18-36-10_260595134347_rgbf000051-resize_1/002209_2014-06-28_18-36-10_260595134347_rgbf000051-resize_1-target.png,1000,2.057,3,3188,1005,feet,jsons/v1_VE1000_randls_28.json,581083,692421,24,Woman
141,795170,DepthScenes,duration_manipulation_targetAtFixation,jsons/v1_VE1000_randls_28.json,http://54.235.29.9/FacialAge/BNav_EC2/DepthDuration/v2_depth_duration_MTurk/v2_DepthDuration_HTML.html#310,310,1707,821,1366,768,8-30-2022,10-41-32,142,depth_duration_stimuli/002057_2014-06-24_21-00-13_260595134347_rgbf000120-resize_1/002057_2014-06-24_21-00-13_260595134347_rgbf000120-resize_1-target.png,1000,2.967,7,2510,997,feet,jsons/v1_VE1000_randls_28.json,581083,692421,24,Woman
142,795170,DepthScenes,duration_manipulation_targetAtFixation,jsons/v1_VE1000_randls_28.json,http://54.235.29.9/FacialAge/BNav_EC2/DepthDuration/v2_depth_duration_MTurk/v2_DepthDuration_HTML.html#310,310,1707,821,1366,768,8-30-2022,10-41-32,143,depth_duration_stimuli/000709_2014-06-08_13-51-55_260595134347_rgbf000068-resize_3/000709_2014-06-08_13-51-55_260595134347_rgbf000068-resize_3-target.png,1000,1.8030000000000002,4,3412,998,feet,jsons/v1_VE1000_randls_28.json,581083,692421,24,Woman
143,795170,DepthScenes,duration_manipulation_targetAtFixation,jsons/v1_VE1000_randls_28.json,http://54.235.29.9/FacialAge/BNav_EC2/DepthDuration/v2_depth_duration_MTurk/v2_DepthDuration_HTML.html#310,310,1707,821,1366,768,8-30-2022,10-41-32,144,depth_duration_stimuli/000736_2014-06-08_18-24-15_260595134347_rgbf000206-resize_3/000736_2014-06-08_18-24-15_260595134347_rgbf000206-resize_3-target.png,1000,3.515,4,3877,1001,feet,jsons/v1_VE1000_randls_28.json,581083,692421,24,Woman
144,795170,DepthScenes,duration_manipulation_targetAtFixation,jsons/v1_VE1000_randls_28.json,http://54.235.29.9/FacialAge/BNav_EC2/DepthDuration/v2_depth_duration_MTurk/v2_DepthDuration_HTML.html#310,310,1707,821,1366,768,8-30-2022,10-41-32,145,depth_duration_stimuli/000137_2014-05-20_17-04-49_260595134347_rgbf000120-resize_1/000137_2014-05-20_17-04-49_260595134347_rgbf000120-resize_1-target.png,1000,3.786,0,4924,999,feet,jsons/v1_VE1000_randls_28.json,581083,692421,24,Woman
145,795170,DepthScenes,duration_manipulation_targetAtFixation,jsons/v1_VE1000_randls_28.json,http://54.235.29.9/FacialAge/BNav_EC2/DepthDuration/v2_depth_duration_MTurk/v2_DepthDuration_HTML.html#310,310,1707,821,1366,768,8-30-2022,10-41-32,146,depth_duration_stimuli/001498_2014-06-19_17-45-14_260595134347_rgbf000129-resize_4/001498_2014-06-19_17-45-14_260595134347_rgbf000129-resize-original.jpg,1000,1.4075,0,3708,1000,feet,jsons/v1_VE1000_randls_28.json,581083,692421,24,Woman
146,795170,DepthScenes,duration_manipulation_targetAtFixation,jsons/v1_VE1000_randls_28.json,http://54.235.29.9/FacialAge/BNav_EC2/DepthDuration/v2_depth_duration_MTurk/v2_DepthDuration_HTML.html#310,310,1707,821,1366,768,8-30-2022,10-41-32,147,depth_duration_stimuli/002905_2014-06-03_18-04-43_094959634447_rgbf000151-resize_2/002905_2014-06-03_18-04-43_094959634447_rgbf000151-resize_2-target.png,1000,2.0295,3,2898,997,feet,jsons/v1_VE1000_randls_28.json,581083,692421,24,Woman
147,795170,DepthScenes,duration_manipulation_targetAtFixation,jsons/v1_VE1000_randls_28.json,http://54.235.29.9/FacialAge/BNav_EC2/DepthDuration/v2_depth_duration_MTurk/v2_DepthDuration_HTML.html#310,310,1707,821,1366,768,8-30-2022,10-41-32,148,depth_duration_stimuli/003423_2014-05-21_10-23-26_094959634447_rgbf002665-resize_2/003423_2014-05-21_10-23-26_094959634447_rgbf002665-resize_2-target.png,1000,3.2575,6,4324,1003,feet,jsons/v1_VE1000_randls_28.json,581083,692421,24,Woman
148,795170,DepthScenes,duration_manipulation_targetAtFixation,jsons/v1_VE1000_randls_28.json,http://54.235.29.9/FacialAge/BNav_EC2/DepthDuration/v2_depth_duration_MTurk/v2_DepthDuration_HTML.html#310,310,1707,821,1366,768,8-30-2022,10-41-32,149,depth_duration_stimuli/002549_2014-06-24_13-41-39_094959634447_rgbf000022-resize_3/002549_2014-06-24_13-41-39_094959634447_rgbf000022-resize_3-target.png,1000,1.476,2,3030,992,feet,jsons/v1_VE1000_randls_28.json,581083,692421,24,Woman
149,795170,DepthScenes,duration_manipulation_targetAtFixation,jsons/v1_VE1000_randls_28.json,http://54.235.29.9/FacialAge/BNav_EC2/DepthDuration/v2_depth_duration_MTurk/v2_DepthDuration_HTML.html#310,310,1707,821,1366,768,8-30-2022,10-41-32,150,depth_duration_stimuli/002750_2014-06-22_19-08-03_094959634447_rgbf000094-resize_4/002750_2014-06-22_19-08-03_094959634447_rgbf000094-resize_4-target.png,1000,2.354,5,3015,1003,feet,jsons/v1_VE1000_randls_28.json,581083,692421,24,Woman
150,795170,DepthScenes,duration_manipulation_targetAtFixation,jsons/v1_VE1000_randls_28.json,http://54.235.29.9/FacialAge/BNav_EC2/DepthDuration/v2_depth_duration_MTurk/v2_DepthDuration_HTML.html#310,310,1707,821,1366,768,8-30-2022,10-41-32,151,depth_duration_stimuli/001806_2014-06-26_20-50-20_260595134347_rgbf000091-resize_1/001806_2014-06-26_20-50-20_260595134347_rgbf000091-resize_1-target.png,1000,2.7305,4,2767,992,feet,jsons/v1_VE1000_randls_28.json,581083,692421,24,Woman
151,795170,DepthScenes,duration_manipulation_targetAtFixation,jsons/v1_VE1000_randls_28.json,http://54.235.29.9/FacialAge/BNav_EC2/DepthDuration/v2_depth_duration_MTurk/v2_DepthDuration_HTML.html#310,310,1707,821,1366,768,8-30-2022,10-41-32,152,depth_duration_stimuli/001617_2014-06-20_11-35-32_260595134347_rgbf000066-resize_1/001617_2014-06-20_11-35-32_260595134347_rgbf000066-resize_1-target.png,1000,3.7910000000000004,7,3073,998,feet,jsons/v1_VE1000_randls_28.json,581083,692421,24,Woman
152,795170,DepthScenes,duration_manipulation_targetAtFixation,jsons/v1_VE1000_randls_28.json,http://54.235.29.9/FacialAge/BNav_EC2/DepthDuration/v2_depth_duration_MTurk/v2_DepthDuration_HTML.html#310,310,1707,821,1366,768,8-30-2022,10-41-32,153,depth_duration_stimuli/001449_2014-06-19_17-01-27_260595134347_rgbf000116-resize_2/001449_2014-06-19_17-01-27_260595134347_rgbf000116-resize_2-target.png,1000,3.452,5,2787,993,feet,jsons/v1_VE1000_randls_28.json,581083,692421,24,Woman
153,795170,DepthScenes,duration_manipulation_targetAtFixation,jsons/v1_VE1000_randls_28.json,http://54.235.29.9/FacialAge/BNav_EC2/DepthDuration/v2_depth_duration_MTurk/v2_DepthDuration_HTML.html#310,310,1707,821,1366,768,8-30-2022,10-41-32,154,depth_duration_stimuli/001450_2014-06-19_17-02-03_260595134347_rgbf000203-resize_4/001450_2014-06-19_17-02-03_260595134347_rgbf000203-resize_4-target.png,1000,4.0106666666667,8,3003,989,feet,jsons/v1_VE1000_randls_28.json,581083,692421,24,Woman
154,795170,DepthScenes,duration_manipulation_targetAtFixation,jsons/v1_VE1000_randls_28.json,http://54.235.29.9/FacialAge/BNav_EC2/DepthDuration/v2_depth_duration_MTurk/v2_DepthDuration_HTML.html#310,310,1707,821,1366,768,8-30-2022,10-41-32,155,depth_duration_stimuli/000758_2014-06-08_22-05-08_260595134347_rgbf000085-resize_0/000758_2014-06-08_22-05-08_260595134347_rgbf000085-resize_0-target.png,1000,3.3810000000000002,6,5868,998,feet,jsons/v1_VE1000_randls_28.json,581083,692421,24,Woman
155,795170,DepthScenes,duration_manipulation_targetAtFixation,jsons/v1_VE1000_randls_28.json,http://54.235.29.9/FacialAge/BNav_EC2/DepthDuration/v2_depth_duration_MTurk/v2_DepthDuration_HTML.html#310,310,1707,821,1366,768,8-30-2022,10-41-32,156,depth_duration_stimuli/000854_2014-06-09_19-43-13_260595134347_rgbf000066-resize_0/000854_2014-06-09_19-43-13_260595134347_rgbf000066-resize_0-target.png,1000,3.068,4,2760,1003,feet,jsons/v1_VE1000_randls_28.json,581083,692421,24,Woman
156,795170,DepthScenes,duration_manipulation_targetAtFixation,jsons/v1_VE1000_randls_28.json,http://54.235.29.9/FacialAge/BNav_EC2/DepthDuration/v2_depth_duration_MTurk/v2_DepthDuration_HTML.html#310,310,1707,821,1366,768,8-30-2022,10-41-32,157,depth_duration_stimuli/001244_2014-06-17_16-47-45_260595134347_rgbf000030-resize_4/001244_2014-06-17_16-47-45_260595134347_rgbf000030-resize_4-target.png,1000,2.0425,5,2886,998,feet,jsons/v1_VE1000_randls_28.json,581083,692421,24,Woman
157,795170,DepthScenes,duration_manipulation_targetAtFixation,jsons/v1_VE1000_randls_28.json,http://54.235.29.9/FacialAge/BNav_EC2/DepthDuration/v2_depth_duration_MTurk/v2_DepthDuration_HTML.html#310,310,1707,821,1366,768,8-30-2022,10-41-32,158,depth_duration_stimuli/003495_2014-05-21_16-01-51_094959634447_rgbf000100-resize_3/003495_2014-05-21_16-01-51_094959634447_rgbf000100-resize_3-target.png,1000,1.6255,3,2801,997,feet,jsons/v1_VE1000_randls_28.json,581083,692421,24,Woman
158,795170,DepthScenes,duration_manipulation_targetAtFixation,jsons/v1_VE1000_randls_28.json,http://54.235.29.9/FacialAge/BNav_EC2/DepthDuration/v2_depth_duration_MTurk/v2_DepthDuration_HTML.html#310,310,1707,821,1366,768,8-30-2022,10-41-32,159,depth_duration_stimuli/002663_2014-06-13_15-50-26_094959634447_rgbf000075-resize_1/002663_2014-06-13_15-50-26_094959634447_rgbf000075-resize_1-target.png,1000,4.7495,5,2810,1001,feet,jsons/v1_VE1000_randls_28.json,581083,692421,24,Woman
159,795170,DepthScenes,duration_manipulation_targetAtFixation,jsons/v1_VE1000_randls_28.json,http://54.235.29.9/FacialAge/BNav_EC2/DepthDuration/v2_depth_duration_MTurk/v2_DepthDuration_HTML.html#310,310,1707,821,1366,768,8-30-2022,10-41-32,160,depth_duration_stimuli/000409_2014-06-04_19-23-33_260595134347_rgbf000067-resize_0/000409_2014-06-04_19-23-33_260595134347_rgbf000067-resize_0-target.png,1000,3.7335,7,3050,1008,feet,jsons/v1_VE1000_randls_28.json,581083,692421,24,Woman
160,795170,DepthScenes,duration_manipulation_targetAtFixation,jsons/v1_VE1000_randls_28.json,http://54.235.29.9/FacialAge/BNav_EC2/DepthDuration/v2_depth_duration_MTurk/v2_DepthDuration_HTML.html#310,310,1707,821,1366,768,8-30-2022,10-41-32,161,depth_duration_stimuli/002989_2014-06-15_12-25-03_094959634447_rgbf000150-resize_3/002989_2014-06-15_12-25-03_094959634447_rgbf000150-resize_3-target.png,1000,4.1975,9,2687,999,feet,jsons/v1_VE1000_randls_28.json,581083,692421,24,Woman
161,795170,DepthScenes,duration_manipulation_targetAtFixation,jsons/v1_VE1000_randls_28.json,http://54.235.29.9/FacialAge/BNav_EC2/DepthDuration/v2_depth_duration_MTurk/v2_DepthDuration_HTML.html#310,310,1707,821,1366,768,8-30-2022,10-41-32,162,depth_duration_stimuli/000866_2014-06-09_20-45-42_260595134347_rgbf000139-resize_1/000866_2014-06-09_20-45-42_260595134347_rgbf000139-resize_1-target.png,1000,3.2155,5,2837,1004,feet,jsons/v1_VE1000_randls_28.json,581083,692421,24,Woman
162,795170,DepthScenes,duration_manipulation_targetAtFixation,jsons/v1_VE1000_randls_28.json,http://54.235.29.9/FacialAge/BNav_EC2/DepthDuration/v2_depth_duration_MTurk/v2_DepthDuration_HTML.html#310,310,1707,821,1366,768,8-30-2022,10-41-32,163,depth_duration_stimuli/002964_2014-06-08_17-46-11_094959634447_rgbf000091-resize_4/002964_2014-06-08_17-46-11_094959634447_rgbf000091-resize_4-target.png,1000,1.6909999999999998,3,2813,990,feet,jsons/v1_VE1000_randls_28.json,581083,692421,24,Woman
163,795170,DepthScenes,duration_manipulation_targetAtFixation,jsons/v1_VE1000_randls_28.json,http://54.235.29.9/FacialAge/BNav_EC2/DepthDuration/v2_depth_duration_MTurk/v2_DepthDuration_HTML.html#310,310,1707,821,1366,768,8-30-2022,10-41-32,164,depth_duration_stimuli/002136_2014-06-25_21-18-03_260595134347_rgbf000109-resize_3/002136_2014-06-25_21-18-03_260595134347_rgbf000109-resize_3-target.png,1000,1.9569999999999999,5,2942,1002,feet,jsons/v1_VE1000_randls_28.json,581083,692421,24,Woman
