,subjID,experimentName,versionName,sequenceName,url,selected_row,windowWidth,windowHeight,screenWidth,screenHeight,startDate,startTime,trial,stimulus,duration,actual_depth,depth_estimate,trial_RT,log_sceneDuration,unitSelection,seq_filepath,experimentTime,totalTime,age,gender
0,796821,DepthScenes,duration_manipulation_targetAtFixation,jsons/VE125_randls_18.json,http://54.235.29.9/FacialAge/BNav_EC2/DepthDuration/v2_depth_duration_MTurk/v2_DepthDuration_HTML.html#19,19,1920,937,1920,1080,8-21-2022,14-45-42,1,depth_duration_stimuli/002509_2014-06-24_13-19-22_094959634447_rgbf000077-resize_0/002509_2014-06-24_13-19-22_094959634447_rgbf000077-resize_0-target.png,125,1.3065,2,3232,130,meters,jsons/VE125_randls_18.json,440537,1606979,48,Man
1,796821,DepthScenes,duration_manipulation_targetAtFixation,jsons/VE125_randls_18.json,http://54.235.29.9/FacialAge/BNav_EC2/DepthDuration/v2_depth_duration_MTurk/v2_DepthDuration_HTML.html#19,19,1920,937,1920,1080,8-21-2022,14-45-42,2,depth_duration_stimuli/003338_2014-05-20_11-01-23_094959634447_rgbf000051-resize_6/003338_2014-05-20_11-01-23_094959634447_rgbf000051-resize_6-target.png,125,1.693,2,2353,129,meters,jsons/VE125_randls_18.json,440537,1606979,48,Man
2,796821,DepthScenes,duration_manipulation_targetAtFixation,jsons/VE125_randls_18.json,http://54.235.29.9/FacialAge/BNav_EC2/DepthDuration/v2_depth_duration_MTurk/v2_DepthDuration_HTML.html#19,19,1920,937,1920,1080,8-21-2022,14-45-42,3,depth_duration_stimuli/002375_2014-06-28_20-13-44_260595134347_rgbf000032-resize_1/002375_2014-06-28_20-13-44_260595134347_rgbf000032-resize_1-target.png,125,4.0175,1,2146,126,meters,jsons/VE125_randls_18.json,440537,1606979,48,Man
3,796821,DepthScenes,duration_manipulation_targetAtFixation,jsons/VE125_randls_18.json,http://54.235.29.9/FacialAge/BNav_EC2/DepthDuration/v2_depth_duration_MTurk/v2_DepthDuration_HTML.html#19,19,1920,937,1920,1080,8-21-2022,14-45-42,4,depth_duration_stimuli/002657_2014-06-13_15-29-54_094959634447_rgbf000150-resize_1/002657_2014-06-13_15-29-54_094959634447_rgbf000150-resize_1-target.png,125,4.919,2,2079,112,meters,jsons/VE125_randls_18.json,440537,1606979,48,Man
4,796821,DepthScenes,duration_manipulation_targetAtFixation,jsons/VE125_randls_18.json,http://54.235.29.9/FacialAge/BNav_EC2/DepthDuration/v2_depth_duration_MTurk/v2_DepthDuration_HTML.html#19,19,1920,937,1920,1080,8-21-2022,14-45-42,5,depth_duration_stimuli/001110_2014-06-15_17-25-28_260595134347_rgbf000150-resize_1/001110_2014-06-15_17-25-28_260595134347_rgbf000150-resize_1-target.png,125,1.7115,3,1876,111,meters,jsons/VE125_randls_18.json,440537,1606979,48,Man
5,796821,DepthScenes,duration_manipulation_targetAtFixation,jsons/VE125_randls_18.json,http://54.235.29.9/FacialAge/BNav_EC2/DepthDuration/v2_depth_duration_MTurk/v2_DepthDuration_HTML.html#19,19,1920,937,1920,1080,8-21-2022,14-45-42,6,depth_duration_stimuli/000927_2014-06-09_16-32-30_260595134347_rgbf000123-resize_3/000927_2014-06-09_16-32-30_260595134347_rgbf000123-resize_3-target.png,125,2.6785,2,2304,113,meters,jsons/VE125_randls_18.json,440537,1606979,48,Man
6,796821,DepthScenes,duration_manipulation_targetAtFixation,jsons/VE125_randls_18.json,http://54.235.29.9/FacialAge/BNav_EC2/DepthDuration/v2_depth_duration_MTurk/v2_DepthDuration_HTML.html#19,19,1920,937,1920,1080,8-21-2022,14-45-42,7,depth_duration_stimuli/000692_2014-06-08_13-09-42_260595134347_rgbf000199-resize_2/000692_2014-06-08_13-09-42_260595134347_rgbf000199-resize_2-target.png,125,3.661,2,1802,128,meters,jsons/VE125_randls_18.json,440537,1606979,48,Man
7,796821,DepthScenes,duration_manipulation_targetAtFixation,jsons/VE125_randls_18.json,http://54.235.29.9/FacialAge/BNav_EC2/DepthDuration/v2_depth_duration_MTurk/v2_DepthDuration_HTML.html#19,19,1920,937,1920,1080,8-21-2022,14-45-42,8,depth_duration_stimuli/001094_2014-06-15_17-36-00_260595134347_rgbf000205-resize_0/001094_2014-06-15_17-36-00_260595134347_rgbf000205-resize_0-target.png,125,4.2175,3,1998,137,meters,jsons/VE125_randls_18.json,440537,1606979,48,Man
8,796821,DepthScenes,duration_manipulation_targetAtFixation,jsons/VE125_randls_18.json,http://54.235.29.9/FacialAge/BNav_EC2/DepthDuration/v2_depth_duration_MTurk/v2_DepthDuration_HTML.html#19,19,1920,937,1920,1080,8-21-2022,14-45-42,9,depth_duration_stimuli/001417_2014-06-19_16-25-36_260595134347_rgbf000115-resize_5/001417_2014-06-19_16-25-36_260595134347_rgbf000115-resize_5-target.png,125,4.6255,1,3109,124,meters,jsons/VE125_randls_18.json,440537,1606979,48,Man
9,796821,DepthScenes,duration_manipulation_targetAtFixation,jsons/VE125_randls_18.json,http://54.235.29.9/FacialAge/BNav_EC2/DepthDuration/v2_depth_duration_MTurk/v2_DepthDuration_HTML.html#19,19,1920,937,1920,1080,8-21-2022,14-45-42,10,depth_duration_stimuli/003081_2014-06-15_15-19-16_094959634447_rgbf000150-resize_1/003081_2014-06-15_15-19-16_094959634447_rgbf000150-resize_1-target.png,125,3.9125,2,1950,123,meters,jsons/VE125_randls_18.json,440537,1606979,48,Man
10,796821,DepthScenes,duration_manipulation_targetAtFixation,jsons/VE125_randls_18.json,http://54.235.29.9/FacialAge/BNav_EC2/DepthDuration/v2_depth_duration_MTurk/v2_DepthDuration_HTML.html#19,19,1920,937,1920,1080,8-21-2022,14-45-42,11,depth_duration_stimuli/001055_2014-06-08_18-45-35_260595134347_rgbf000111-resize_4/001055_2014-06-08_18-45-35_260595134347_rgbf000111-resize_4-target.png,125,2.4290000000000003,3,2184,126,meters,jsons/VE125_randls_18.json,440537,1606979,48,Man
11,796821,DepthScenes,duration_manipulation_targetAtFixation,jsons/VE125_randls_18.json,http://54.235.29.9/FacialAge/BNav_EC2/DepthDuration/v2_depth_duration_MTurk/v2_DepthDuration_HTML.html#19,19,1920,937,1920,1080,8-21-2022,14-45-42,12,depth_duration_stimuli/000549_2014-06-08_22-10-24_260595134347_rgbf000247-resize_3/000549_2014-06-08_22-10-24_260595134347_rgbf000247-resize_3-target.png,125,1.841,3,2181,134,meters,jsons/VE125_randls_18.json,440537,1606979,48,Man
12,796821,DepthScenes,duration_manipulation_targetAtFixation,jsons/VE125_randls_18.json,http://54.235.29.9/FacialAge/BNav_EC2/DepthDuration/v2_depth_duration_MTurk/v2_DepthDuration_HTML.html#19,19,1920,937,1920,1080,8-21-2022,14-45-42,13,depth_duration_stimuli/000569_2014-06-09_22-51-47_260595134347_rgbf000141-resize_3/000569_2014-06-09_22-51-47_260595134347_rgbf000141-resize-original.jpg,125,4.512,0,2519,123,meters,jsons/VE125_randls_18.json,440537,1606979,48,Man
13,796821,DepthScenes,duration_manipulation_targetAtFixation,jsons/VE125_randls_18.json,http://54.235.29.9/FacialAge/BNav_EC2/DepthDuration/v2_depth_duration_MTurk/v2_DepthDuration_HTML.html#19,19,1920,937,1920,1080,8-21-2022,14-45-42,14,depth_duration_stimuli/001175_2014-06-17_15-45-55_260595134347_rgbf000129-resize_4/001175_2014-06-17_15-45-55_260595134347_rgbf000129-resize_4-target.png,125,4.255,2,1876,121,meters,jsons/VE125_randls_18.json,440537,1606979,48,Man
14,796821,DepthScenes,duration_manipulation_targetAtFixation,jsons/VE125_randls_18.json,http://54.235.29.9/FacialAge/BNav_EC2/DepthDuration/v2_depth_duration_MTurk/v2_DepthDuration_HTML.html#19,19,1920,937,1920,1080,8-21-2022,14-45-42,15,depth_duration_stimuli/003490_2014-05-21_15-50-11_094959634447_rgbf000101-resize_3/003490_2014-05-21_15-50-11_094959634447_rgbf000101-resize_3-target.png,125,3.6445,1,2292,121,meters,jsons/VE125_randls_18.json,440537,1606979,48,Man
15,796821,DepthScenes,duration_manipulation_targetAtFixation,jsons/VE125_randls_18.json,http://54.235.29.9/FacialAge/BNav_EC2/DepthDuration/v2_depth_duration_MTurk/v2_DepthDuration_HTML.html#19,19,1920,937,1920,1080,8-21-2022,14-45-42,16,depth_duration_stimuli/000788_2014-06-08_22-34-36_260595134347_rgbf000131-resize_1/000788_2014-06-08_22-34-36_260595134347_rgbf000131-resize_1-target.png,125,3.359,2,3707,124,meters,jsons/VE125_randls_18.json,440537,1606979,48,Man
16,796821,DepthScenes,duration_manipulation_targetAtFixation,jsons/VE125_randls_18.json,http://54.235.29.9/FacialAge/BNav_EC2/DepthDuration/v2_depth_duration_MTurk/v2_DepthDuration_HTML.html#19,19,1920,937,1920,1080,8-21-2022,14-45-42,17,depth_duration_stimuli/001235_2014-06-17_16-37-36_260595134347_rgbf000084-resize_4/001235_2014-06-17_16-37-36_260595134347_rgbf000084-resize_4-target.png,125,3.6605,2,1756,128,meters,jsons/VE125_randls_18.json,440537,1606979,48,Man
17,796821,DepthScenes,duration_manipulation_targetAtFixation,jsons/VE125_randls_18.json,http://54.235.29.9/FacialAge/BNav_EC2/DepthDuration/v2_depth_duration_MTurk/v2_DepthDuration_HTML.html#19,19,1920,937,1920,1080,8-21-2022,14-45-42,18,depth_duration_stimuli/000436_2014-06-09_22-25-11_260595134347_rgbf000137-resize_1/000436_2014-06-09_22-25-11_260595134347_rgbf000137-resize_1-target.png,125,4.0705,3,1963,110,meters,jsons/VE125_randls_18.json,440537,1606979,48,Man
18,796821,DepthScenes,duration_manipulation_targetAtFixation,jsons/VE125_randls_18.json,http://54.235.29.9/FacialAge/BNav_EC2/DepthDuration/v2_depth_duration_MTurk/v2_DepthDuration_HTML.html#19,19,1920,937,1920,1080,8-21-2022,14-45-42,19,depth_duration_stimuli/002444_2014-06-28_20-32-08_260595134347_rgbf000027-resize_0/002444_2014-06-28_20-32-08_260595134347_rgbf000027-resize_0-target.png,125,4.388999999999999,2,1634,126,meters,jsons/VE125_randls_18.json,440537,1606979,48,Man
19,796821,DepthScenes,duration_manipulation_targetAtFixation,jsons/VE125_randls_18.json,http://54.235.29.9/FacialAge/BNav_EC2/DepthDuration/v2_depth_duration_MTurk/v2_DepthDuration_HTML.html#19,19,1920,937,1920,1080,8-21-2022,14-45-42,20,depth_duration_stimuli/002570_2014-06-24_13-59-54_094959634447_rgbf000059-resize_0/002570_2014-06-24_13-59-54_094959634447_rgbf000059-resize_0-target.png,125,4.037,1,2111,133,meters,jsons/VE125_randls_18.json,440537,1606979,48,Man
20,796821,DepthScenes,duration_manipulation_targetAtFixation,jsons/VE125_randls_18.json,http://54.235.29.9/FacialAge/BNav_EC2/DepthDuration/v2_depth_duration_MTurk/v2_DepthDuration_HTML.html#19,19,1920,937,1920,1080,8-21-2022,14-45-42,21,depth_duration_stimuli/002467_2014-06-28_20-38-07_260595134347_rgbf000026-resize_2/002467_2014-06-28_20-38-07_260595134347_rgbf000026-resize_2-target.png,125,4.742,2,1691,123,meters,jsons/VE125_randls_18.json,440537,1606979,48,Man
21,796821,DepthScenes,duration_manipulation_targetAtFixation,jsons/VE125_randls_18.json,http://54.235.29.9/FacialAge/BNav_EC2/DepthDuration/v2_depth_duration_MTurk/v2_DepthDuration_HTML.html#19,19,1920,937,1920,1080,8-21-2022,14-45-42,22,depth_duration_stimuli/002988_2014-06-15_12-24-20_094959634447_rgbf000150-resize_1/002988_2014-06-15_12-24-20_094959634447_rgbf000150-resize_1-target.png,125,4.7669999999999995,2,2143,120,meters,jsons/VE125_randls_18.json,440537,1606979,48,Man
22,796821,DepthScenes,duration_manipulation_targetAtFixation,jsons/VE125_randls_18.json,http://54.235.29.9/FacialAge/BNav_EC2/DepthDuration/v2_depth_duration_MTurk/v2_DepthDuration_HTML.html#19,19,1920,937,1920,1080,8-21-2022,14-45-42,23,depth_duration_stimuli/001052_2014-06-08_18-24-54_260595134347_rgbf000130-resize_1/001052_2014-06-08_18-24-54_260595134347_rgbf000130-resize_1-target.png,125,4.1045,3,1721,124,meters,jsons/VE125_randls_18.json,440537,1606979,48,Man
23,796821,DepthScenes,duration_manipulation_targetAtFixation,jsons/VE125_randls_18.json,http://54.235.29.9/FacialAge/BNav_EC2/DepthDuration/v2_depth_duration_MTurk/v2_DepthDuration_HTML.html#19,19,1920,937,1920,1080,8-21-2022,14-45-42,24,depth_duration_stimuli/000739_2014-06-08_18-45-58_260595134347_rgbf000068-resize_1/000739_2014-06-08_18-45-58_260595134347_rgbf000068-resize_1-target.png,125,3.534,1,2099,124,meters,jsons/VE125_randls_18.json,440537,1606979,48,Man
24,796821,DepthScenes,duration_manipulation_targetAtFixation,jsons/VE125_randls_18.json,http://54.235.29.9/FacialAge/BNav_EC2/DepthDuration/v2_depth_duration_MTurk/v2_DepthDuration_HTML.html#19,19,1920,937,1920,1080,8-21-2022,14-45-42,25,depth_duration_stimuli/000734_2014-06-08_17-39-11_260595134347_rgbf000128-resize_2/000734_2014-06-08_17-39-11_260595134347_rgbf000128-resize_2-target.png,125,4.098,2,1841,120,meters,jsons/VE125_randls_18.json,440537,1606979,48,Man
25,796821,DepthScenes,duration_manipulation_targetAtFixation,jsons/VE125_randls_18.json,http://54.235.29.9/FacialAge/BNav_EC2/DepthDuration/v2_depth_duration_MTurk/v2_DepthDuration_HTML.html#19,19,1920,937,1920,1080,8-21-2022,14-45-42,26,depth_duration_stimuli/002279_2014-06-28_18-55-32_260595134347_rgbf000040-resize_5/002279_2014-06-28_18-55-32_260595134347_rgbf000040-resize_5-target.png,125,1.5043333333333,3,2544,113,meters,jsons/VE125_randls_18.json,440537,1606979,48,Man
26,796821,DepthScenes,duration_manipulation_targetAtFixation,jsons/VE125_randls_18.json,http://54.235.29.9/FacialAge/BNav_EC2/DepthDuration/v2_depth_duration_MTurk/v2_DepthDuration_HTML.html#19,19,1920,937,1920,1080,8-21-2022,14-45-42,27,depth_duration_stimuli/000635_2014-06-08_16-38-42_260595134347_rgbf000106-resize_1/000635_2014-06-08_16-38-42_260595134347_rgbf000106-resize_1-target.png,125,2.074,1,19690,126,meters,jsons/VE125_randls_18.json,440537,1606979,48,Man
27,796821,DepthScenes,duration_manipulation_targetAtFixation,jsons/VE125_randls_18.json,http://54.235.29.9/FacialAge/BNav_EC2/DepthDuration/v2_depth_duration_MTurk/v2_DepthDuration_HTML.html#19,19,1920,937,1920,1080,8-21-2022,14-45-42,28,depth_duration_stimuli/001133_2014-06-17_14-49-16_260595134347_rgbf000100-resize_0/001133_2014-06-17_14-49-16_260595134347_rgbf000100-resize_0-target.png,125,4.2115,2,1740,124,meters,jsons/VE125_randls_18.json,440537,1606979,48,Man
28,796821,DepthScenes,duration_manipulation_targetAtFixation,jsons/VE125_randls_18.json,http://54.235.29.9/FacialAge/BNav_EC2/DepthDuration/v2_depth_duration_MTurk/v2_DepthDuration_HTML.html#19,19,1920,937,1920,1080,8-21-2022,14-45-42,29,depth_duration_stimuli/001132_2014-06-17_14-48-54_260595134347_rgbf000100-resize_2/001132_2014-06-17_14-48-54_260595134347_rgbf000100-resize_2-target.png,125,3.753,2,4314,124,meters,jsons/VE125_randls_18.json,440537,1606979,48,Man
29,796821,DepthScenes,duration_manipulation_targetAtFixation,jsons/VE125_randls_18.json,http://54.235.29.9/FacialAge/BNav_EC2/DepthDuration/v2_depth_duration_MTurk/v2_DepthDuration_HTML.html#19,19,1920,937,1920,1080,8-21-2022,14-45-42,30,depth_duration_stimuli/000375_2014-06-08_11-17-29_260595134347_rgbf000133-resize_2/000375_2014-06-08_11-17-29_260595134347_rgbf000133-resize-original.jpg,125,4.718,0,2534,115,meters,jsons/VE125_randls_18.json,440537,1606979,48,Man
30,796821,DepthScenes,duration_manipulation_targetAtFixation,jsons/VE125_randls_18.json,http://54.235.29.9/FacialAge/BNav_EC2/DepthDuration/v2_depth_duration_MTurk/v2_DepthDuration_HTML.html#19,19,1920,937,1920,1080,8-21-2022,14-45-42,31,depth_duration_stimuli/001029_2014-06-08_13-17-57_260595134347_rgbf000065-resize_1/001029_2014-06-08_13-17-57_260595134347_rgbf000065-resize_1-target.png,125,3.0835,2,1776,125,meters,jsons/VE125_randls_18.json,440537,1606979,48,Man
31,796821,DepthScenes,duration_manipulation_targetAtFixation,jsons/VE125_randls_18.json,http://54.235.29.9/FacialAge/BNav_EC2/DepthDuration/v2_depth_duration_MTurk/v2_DepthDuration_HTML.html#19,19,1920,937,1920,1080,8-21-2022,14-45-42,32,depth_duration_stimuli/000677_2014-06-08_23-10-32_260595134347_rgbf000158-resize_6/000677_2014-06-08_23-10-32_260595134347_rgbf000158-resize_6-target.png,125,3.556,2,1987,124,meters,jsons/VE125_randls_18.json,440537,1606979,48,Man
32,796821,DepthScenes,duration_manipulation_targetAtFixation,jsons/VE125_randls_18.json,http://54.235.29.9/FacialAge/BNav_EC2/DepthDuration/v2_depth_duration_MTurk/v2_DepthDuration_HTML.html#19,19,1920,937,1920,1080,8-21-2022,14-45-42,33,depth_duration_stimuli/001066_2014-06-08_22-03-20_260595134347_rgbf000066-resize_4/001066_2014-06-08_22-03-20_260595134347_rgbf000066-resize_4-target.png,125,4.2330000000000005,1,1763,125,meters,jsons/VE125_randls_18.json,440537,1606979,48,Man
33,796821,DepthScenes,duration_manipulation_targetAtFixation,jsons/VE125_randls_18.json,http://54.235.29.9/FacialAge/BNav_EC2/DepthDuration/v2_depth_duration_MTurk/v2_DepthDuration_HTML.html#19,19,1920,937,1920,1080,8-21-2022,14-45-42,34,depth_duration_stimuli/000742_2014-06-08_18-48-09_260595134347_rgbf000164-resize_4/000742_2014-06-08_18-48-09_260595134347_rgbf000164-resize_4-target.png,125,4.632,3,1724,124,meters,jsons/VE125_randls_18.json,440537,1606979,48,Man
34,796821,DepthScenes,duration_manipulation_targetAtFixation,jsons/VE125_randls_18.json,http://54.235.29.9/FacialAge/BNav_EC2/DepthDuration/v2_depth_duration_MTurk/v2_DepthDuration_HTML.html#19,19,1920,937,1920,1080,8-21-2022,14-45-42,35,depth_duration_stimuli/001059_2014-06-08_21-53-27_260595134347_rgbf000061-resize_4/001059_2014-06-08_21-53-27_260595134347_rgbf000061-resize_4-target.png,125,2.4185,2,3298,125,meters,jsons/VE125_randls_18.json,440537,1606979,48,Man
35,796821,DepthScenes,duration_manipulation_targetAtFixation,jsons/VE125_randls_18.json,http://54.235.29.9/FacialAge/BNav_EC2/DepthDuration/v2_depth_duration_MTurk/v2_DepthDuration_HTML.html#19,19,1920,937,1920,1080,8-21-2022,14-45-42,36,depth_duration_stimuli/001032_2014-06-08_13-23-17_260595134347_rgbf000021-resize_3/001032_2014-06-08_13-23-17_260595134347_rgbf000021-resize_3-target.png,125,3.2725,3,2908,124,meters,jsons/VE125_randls_18.json,440537,1606979,48,Man
36,796821,DepthScenes,duration_manipulation_targetAtFixation,jsons/VE125_randls_18.json,http://54.235.29.9/FacialAge/BNav_EC2/DepthDuration/v2_depth_duration_MTurk/v2_DepthDuration_HTML.html#19,19,1920,937,1920,1080,8-21-2022,14-45-42,37,depth_duration_stimuli/000506_2014-06-08_23-21-00_260595134347_rgbf000070-resize_7/000506_2014-06-08_23-21-00_260595134347_rgbf000070-resize_7-target.png,125,4.0585,4,1762,125,meters,jsons/VE125_randls_18.json,440537,1606979,48,Man
37,796821,DepthScenes,duration_manipulation_targetAtFixation,jsons/VE125_randls_18.json,http://54.235.29.9/FacialAge/BNav_EC2/DepthDuration/v2_depth_duration_MTurk/v2_DepthDuration_HTML.html#19,19,1920,937,1920,1080,8-21-2022,14-45-42,38,depth_duration_stimuli/003079_2014-06-15_15-18-20_094959634447_rgbf000152-resize_8/003079_2014-06-15_15-18-20_094959634447_rgbf000152-resize_8-target.png,125,2.8775,4,2059,128,meters,jsons/VE125_randls_18.json,440537,1606979,48,Man
38,796821,DepthScenes,duration_manipulation_targetAtFixation,jsons/VE125_randls_18.json,http://54.235.29.9/FacialAge/BNav_EC2/DepthDuration/v2_depth_duration_MTurk/v2_DepthDuration_HTML.html#19,19,1920,937,1920,1080,8-21-2022,14-45-42,39,depth_duration_stimuli/001056_2014-06-08_18-46-44_260595134347_rgbf000068-resize_0/001056_2014-06-08_18-46-44_260595134347_rgbf000068-resize_0-target.png,125,2.6625,2,2412,124,meters,jsons/VE125_randls_18.json,440537,1606979,48,Man
39,796821,DepthScenes,duration_manipulation_targetAtFixation,jsons/VE125_randls_18.json,http://54.235.29.9/FacialAge/BNav_EC2/DepthDuration/v2_depth_duration_MTurk/v2_DepthDuration_HTML.html#19,19,1920,937,1920,1080,8-21-2022,14-45-42,40,depth_duration_stimuli/002199_2014-06-28_18-33-56_260595134347_rgbf000074-resize_0/002199_2014-06-28_18-33-56_260595134347_rgbf000074-resize_0-target.png,125,1.996,3,2247,117,meters,jsons/VE125_randls_18.json,440537,1606979,48,Man
40,796821,DepthScenes,duration_manipulation_targetAtFixation,jsons/VE125_randls_18.json,http://54.235.29.9/FacialAge/BNav_EC2/DepthDuration/v2_depth_duration_MTurk/v2_DepthDuration_HTML.html#19,19,1920,937,1920,1080,8-21-2022,14-45-42,41,depth_duration_stimuli/000368_2014-06-09_15-53-01_260595134347_rgbf000155-resize_2/000368_2014-06-09_15-53-01_260595134347_rgbf000155-resize_2-target.png,125,2.4859999999999998,2,2543,121,meters,jsons/VE125_randls_18.json,440537,1606979,48,Man
41,796821,DepthScenes,duration_manipulation_targetAtFixation,jsons/VE125_randls_18.json,http://54.235.29.9/FacialAge/BNav_EC2/DepthDuration/v2_depth_duration_MTurk/v2_DepthDuration_HTML.html#19,19,1920,937,1920,1080,8-21-2022,14-45-42,42,depth_duration_stimuli/002678_2014-06-13_16-15-32_094959634447_rgbf000151-resize_6/002678_2014-06-13_16-15-32_094959634447_rgbf000151-resize_6-target.png,125,2.1830000000000003,4,2101,123,meters,jsons/VE125_randls_18.json,440537,1606979,48,Man
42,796821,DepthScenes,duration_manipulation_targetAtFixation,jsons/VE125_randls_18.json,http://54.235.29.9/FacialAge/BNav_EC2/DepthDuration/v2_depth_duration_MTurk/v2_DepthDuration_HTML.html#19,19,1920,937,1920,1080,8-21-2022,14-45-42,43,depth_duration_stimuli/001016_2014-06-09_16-16-10_260595134347_rgbf000112-resize_5/001016_2014-06-09_16-16-10_260595134347_rgbf000112-resize_5-target.png,125,1.6565,2,2598,125,meters,jsons/VE125_randls_18.json,440537,1606979,48,Man
43,796821,DepthScenes,duration_manipulation_targetAtFixation,jsons/VE125_randls_18.json,http://54.235.29.9/FacialAge/BNav_EC2/DepthDuration/v2_depth_duration_MTurk/v2_DepthDuration_HTML.html#19,19,1920,937,1920,1080,8-21-2022,14-45-42,44,depth_duration_stimuli/002340_2014-06-28_20-05-46_260595134347_rgbf000113-resize_0/002340_2014-06-28_20-05-46_260595134347_rgbf000113-resize_0-target.png,125,2.4735,2,1964,125,meters,jsons/VE125_randls_18.json,440537,1606979,48,Man
44,796821,DepthScenes,duration_manipulation_targetAtFixation,jsons/VE125_randls_18.json,http://54.235.29.9/FacialAge/BNav_EC2/DepthDuration/v2_depth_duration_MTurk/v2_DepthDuration_HTML.html#19,19,1920,937,1920,1080,8-21-2022,14-45-42,45,depth_duration_stimuli/000787_2014-06-08_22-33-53_260595134347_rgbf000175-resize_1/000787_2014-06-08_22-33-53_260595134347_rgbf000175-resize-original.jpg,125,4.784,2,2835,125,meters,jsons/VE125_randls_18.json,440537,1606979,48,Man
45,796821,DepthScenes,duration_manipulation_targetAtFixation,jsons/VE125_randls_18.json,http://54.235.29.9/FacialAge/BNav_EC2/DepthDuration/v2_depth_duration_MTurk/v2_DepthDuration_HTML.html#19,19,1920,937,1920,1080,8-21-2022,14-45-42,46,depth_duration_stimuli/000929_2014-06-09_16-33-19_260595134347_rgbf000139-resize_0/000929_2014-06-09_16-33-19_260595134347_rgbf000139-resize_0-target.png,125,2.8680000000000003,1,3597,125,meters,jsons/VE125_randls_18.json,440537,1606979,48,Man
46,796821,DepthScenes,duration_manipulation_targetAtFixation,jsons/VE125_randls_18.json,http://54.235.29.9/FacialAge/BNav_EC2/DepthDuration/v2_depth_duration_MTurk/v2_DepthDuration_HTML.html#19,19,1920,937,1920,1080,8-21-2022,14-45-42,47,depth_duration_stimuli/000457_2014-06-08_16-52-43_260595134347_rgbf000199-resize_1/000457_2014-06-08_16-52-43_260595134347_rgbf000199-resize_1-target.png,125,3.6489999999999996,1,2550,116,meters,jsons/VE125_randls_18.json,440537,1606979,48,Man
47,796821,DepthScenes,duration_manipulation_targetAtFixation,jsons/VE125_randls_18.json,http://54.235.29.9/FacialAge/BNav_EC2/DepthDuration/v2_depth_duration_MTurk/v2_DepthDuration_HTML.html#19,19,1920,937,1920,1080,8-21-2022,14-45-42,48,depth_duration_stimuli/000522_2014-06-08_13-35-06_260595134347_rgbf000244-resize_1/000522_2014-06-08_13-35-06_260595134347_rgbf000244-resize_1-target.png,125,2.3715,3,2519,117,meters,jsons/VE125_randls_18.json,440537,1606979,48,Man
48,796821,DepthScenes,duration_manipulation_targetAtFixation,jsons/VE125_randls_18.json,http://54.235.29.9/FacialAge/BNav_EC2/DepthDuration/v2_depth_duration_MTurk/v2_DepthDuration_HTML.html#19,19,1920,937,1920,1080,8-21-2022,14-45-42,49,depth_duration_stimuli/002949_2014-06-26_15-57-42_094959634447_rgbf000079-resize_1/002949_2014-06-26_15-57-42_094959634447_rgbf000079-resize_1-target.png,125,1.8915,4,2252,116,meters,jsons/VE125_randls_18.json,440537,1606979,48,Man
49,796821,DepthScenes,duration_manipulation_targetAtFixation,jsons/VE125_randls_18.json,http://54.235.29.9/FacialAge/BNav_EC2/DepthDuration/v2_depth_duration_MTurk/v2_DepthDuration_HTML.html#19,19,1920,937,1920,1080,8-21-2022,14-45-42,50,depth_duration_stimuli/000414_2014-06-04_19-49-13_260595134347_rgbf000044-resize_0/000414_2014-06-04_19-49-13_260595134347_rgbf000044-resize_0-target.png,125,4.329,2,2166,133,meters,jsons/VE125_randls_18.json,440537,1606979,48,Man
50,796821,DepthScenes,duration_manipulation_targetAtFixation,jsons/VE125_randls_18.json,http://54.235.29.9/FacialAge/BNav_EC2/DepthDuration/v2_depth_duration_MTurk/v2_DepthDuration_HTML.html#19,19,1920,937,1920,1080,8-21-2022,14-45-42,51,depth_duration_stimuli/003129_2014-05-12_10-48-10_094959634447_rgbf000100-resize_0/003129_2014-05-12_10-48-10_094959634447_rgbf000100-resize_0-target.png,125,4.9305,4,2180,125,meters,jsons/VE125_randls_18.json,440537,1606979,48,Man
51,796821,DepthScenes,duration_manipulation_targetAtFixation,jsons/VE125_randls_18.json,http://54.235.29.9/FacialAge/BNav_EC2/DepthDuration/v2_depth_duration_MTurk/v2_DepthDuration_HTML.html#19,19,1920,937,1920,1080,8-21-2022,14-45-42,52,depth_duration_stimuli/000758_2014-06-08_22-05-08_260595134347_rgbf000085-resize_0/000758_2014-06-08_22-05-08_260595134347_rgbf000085-resize_0-target.png,125,3.3810000000000002,3,2171,127,meters,jsons/VE125_randls_18.json,440537,1606979,48,Man
52,796821,DepthScenes,duration_manipulation_targetAtFixation,jsons/VE125_randls_18.json,http://54.235.29.9/FacialAge/BNav_EC2/DepthDuration/v2_depth_duration_MTurk/v2_DepthDuration_HTML.html#19,19,1920,937,1920,1080,8-21-2022,14-45-42,53,depth_duration_stimuli/000854_2014-06-09_19-43-13_260595134347_rgbf000066-resize_0/000854_2014-06-09_19-43-13_260595134347_rgbf000066-resize_0-target.png,125,3.068,2,2665,122,meters,jsons/VE125_randls_18.json,440537,1606979,48,Man
53,796821,DepthScenes,duration_manipulation_targetAtFixation,jsons/VE125_randls_18.json,http://54.235.29.9/FacialAge/BNav_EC2/DepthDuration/v2_depth_duration_MTurk/v2_DepthDuration_HTML.html#19,19,1920,937,1920,1080,8-21-2022,14-45-42,54,depth_duration_stimuli/000486_2014-06-09_20-47-20_260595134347_rgbf000143-resize_2/000486_2014-06-09_20-47-20_260595134347_rgbf000143-resize_2-target.png,125,4.8325,2,1712,122,meters,jsons/VE125_randls_18.json,440537,1606979,48,Man
54,796821,DepthScenes,duration_manipulation_targetAtFixation,jsons/VE125_randls_18.json,http://54.235.29.9/FacialAge/BNav_EC2/DepthDuration/v2_depth_duration_MTurk/v2_DepthDuration_HTML.html#19,19,1920,937,1920,1080,8-21-2022,14-45-42,55,depth_duration_stimuli/003083_2014-06-15_15-21-03_094959634447_rgbf000063-resize_1/003083_2014-06-15_15-21-03_094959634447_rgbf000063-resize_1-target.png,125,4.1405,2,1846,71,meters,jsons/VE125_randls_18.json,440537,1606979,48,Man
55,796821,DepthScenes,duration_manipulation_targetAtFixation,jsons/VE125_randls_18.json,http://54.235.29.9/FacialAge/BNav_EC2/DepthDuration/v2_depth_duration_MTurk/v2_DepthDuration_HTML.html#19,19,1920,937,1920,1080,8-21-2022,14-45-42,56,depth_duration_stimuli/000773_2014-06-08_22-24-54_260595134347_rgbf000093-resize_1/000773_2014-06-08_22-24-54_260595134347_rgbf000093-resize_1-target.png,125,4.973,3,1897,124,meters,jsons/VE125_randls_18.json,440537,1606979,48,Man
56,796821,DepthScenes,duration_manipulation_targetAtFixation,jsons/VE125_randls_18.json,http://54.235.29.9/FacialAge/BNav_EC2/DepthDuration/v2_depth_duration_MTurk/v2_DepthDuration_HTML.html#19,19,1920,937,1920,1080,8-21-2022,14-45-42,57,depth_duration_stimuli/002414_2014-06-28_20-24-58_260595134347_rgbf000067-resize_4/002414_2014-06-28_20-24-58_260595134347_rgbf000067-resize_4-target.png,125,4.363,3,2349,124,meters,jsons/VE125_randls_18.json,440537,1606979,48,Man
57,796821,DepthScenes,duration_manipulation_targetAtFixation,jsons/VE125_randls_18.json,http://54.235.29.9/FacialAge/BNav_EC2/DepthDuration/v2_depth_duration_MTurk/v2_DepthDuration_HTML.html#19,19,1920,937,1920,1080,8-21-2022,14-45-42,58,depth_duration_stimuli/000493_2014-06-09_21-01-18_260595134347_rgbf000196-resize_3/000493_2014-06-09_21-01-18_260595134347_rgbf000196-resize_3-target.png,125,3.44,3,2328,124,meters,jsons/VE125_randls_18.json,440537,1606979,48,Man
58,796821,DepthScenes,duration_manipulation_targetAtFixation,jsons/VE125_randls_18.json,http://54.235.29.9/FacialAge/BNav_EC2/DepthDuration/v2_depth_duration_MTurk/v2_DepthDuration_HTML.html#19,19,1920,937,1920,1080,8-21-2022,14-45-42,59,depth_duration_stimuli/000191_2014-05-12_17-07-38_260595134347_rgbf000199-resize_0/000191_2014-05-12_17-07-38_260595134347_rgbf000199-resize_0-target.png,125,3.7995,4,1916,126,meters,jsons/VE125_randls_18.json,440537,1606979,48,Man
59,796821,DepthScenes,duration_manipulation_targetAtFixation,jsons/VE125_randls_18.json,http://54.235.29.9/FacialAge/BNav_EC2/DepthDuration/v2_depth_duration_MTurk/v2_DepthDuration_HTML.html#19,19,1920,937,1920,1080,8-21-2022,14-45-42,60,depth_duration_stimuli/002153_2014-06-25_21-27-18_260595134347_rgbf000038-resize_5/002153_2014-06-25_21-27-18_260595134347_rgbf000038-resize_5-target.png,125,2.505,3,2498,124,meters,jsons/VE125_randls_18.json,440537,1606979,48,Man
60,796821,DepthScenes,duration_manipulation_targetAtFixation,jsons/VE125_randls_18.json,http://54.235.29.9/FacialAge/BNav_EC2/DepthDuration/v2_depth_duration_MTurk/v2_DepthDuration_HTML.html#19,19,1920,937,1920,1080,8-21-2022,14-45-42,61,depth_duration_stimuli/002660_2014-06-13_15-44-18_094959634447_rgbf001878-resize_2/002660_2014-06-13_15-44-18_094959634447_rgbf001878-resize_2-target.png,125,3.576,2,2147,126,meters,jsons/VE125_randls_18.json,440537,1606979,48,Man
61,796821,DepthScenes,duration_manipulation_targetAtFixation,jsons/VE125_randls_18.json,http://54.235.29.9/FacialAge/BNav_EC2/DepthDuration/v2_depth_duration_MTurk/v2_DepthDuration_HTML.html#19,19,1920,937,1920,1080,8-21-2022,14-45-42,62,depth_duration_stimuli/002748_2014-06-22_19-07-22_094959634447_rgbf000078-resize_1/002748_2014-06-22_19-07-22_094959634447_rgbf000078-resize_1-target.png,125,4.6705,3,1810,126,meters,jsons/VE125_randls_18.json,440537,1606979,48,Man
62,796821,DepthScenes,duration_manipulation_targetAtFixation,jsons/VE125_randls_18.json,http://54.235.29.9/FacialAge/BNav_EC2/DepthDuration/v2_depth_duration_MTurk/v2_DepthDuration_HTML.html#19,19,1920,937,1920,1080,8-21-2022,14-45-42,63,depth_duration_stimuli/002995_2014-06-15_12-31-26_094959634447_rgbf000150-resize_1/002995_2014-06-15_12-31-26_094959634447_rgbf000150-resize_1-target.png,125,3.8360000000000003,2,2720,129,meters,jsons/VE125_randls_18.json,440537,1606979,48,Man
63,796821,DepthScenes,duration_manipulation_targetAtFixation,jsons/VE125_randls_18.json,http://54.235.29.9/FacialAge/BNav_EC2/DepthDuration/v2_depth_duration_MTurk/v2_DepthDuration_HTML.html#19,19,1920,937,1920,1080,8-21-2022,14-45-42,64,depth_duration_stimuli/001092_2014-06-15_17-34-58_260595134347_rgbf000171-resize_3/001092_2014-06-15_17-34-58_260595134347_rgbf000171-resize_3-target.png,125,2.6935,3,1992,125,meters,jsons/VE125_randls_18.json,440537,1606979,48,Man
64,796821,DepthScenes,duration_manipulation_targetAtFixation,jsons/VE125_randls_18.json,http://54.235.29.9/FacialAge/BNav_EC2/DepthDuration/v2_depth_duration_MTurk/v2_DepthDuration_HTML.html#19,19,1920,937,1920,1080,8-21-2022,14-45-42,65,depth_duration_stimuli/002545_2014-06-24_13-38-53_094959634447_rgbf000080-resize_4/002545_2014-06-24_13-38-53_094959634447_rgbf000080-resize_4-target.png,125,1.9205,4,1684,115,meters,jsons/VE125_randls_18.json,440537,1606979,48,Man
65,796821,DepthScenes,duration_manipulation_targetAtFixation,jsons/VE125_randls_18.json,http://54.235.29.9/FacialAge/BNav_EC2/DepthDuration/v2_depth_duration_MTurk/v2_DepthDuration_HTML.html#19,19,1920,937,1920,1080,8-21-2022,14-45-42,66,depth_duration_stimuli/001222_2014-06-17_16-24-06_260595134347_rgbf000073-resize_0/001222_2014-06-17_16-24-06_260595134347_rgbf000073-resize-original.jpg,125,1.4385,3,2082,129,meters,jsons/VE125_randls_18.json,440537,1606979,48,Man
66,796821,DepthScenes,duration_manipulation_targetAtFixation,jsons/VE125_randls_18.json,http://54.235.29.9/FacialAge/BNav_EC2/DepthDuration/v2_depth_duration_MTurk/v2_DepthDuration_HTML.html#19,19,1920,937,1920,1080,8-21-2022,14-45-42,67,depth_duration_stimuli/001555_2014-06-20_17-12-10_260595134347_rgbf000065-resize_4/001555_2014-06-20_17-12-10_260595134347_rgbf000065-resize_4-target.png,125,1.633,2,1779,126,meters,jsons/VE125_randls_18.json,440537,1606979,48,Man
67,796821,DepthScenes,duration_manipulation_targetAtFixation,jsons/VE125_randls_18.json,http://54.235.29.9/FacialAge/BNav_EC2/DepthDuration/v2_depth_duration_MTurk/v2_DepthDuration_HTML.html#19,19,1920,937,1920,1080,8-21-2022,14-45-42,68,depth_duration_stimuli/000103_2014-05-14_22-01-17_260595134347_rgbf000152-resize_5/000103_2014-05-14_22-01-17_260595134347_rgbf000152-resize_5-target.png,125,1.993,4,1810,137,meters,jsons/VE125_randls_18.json,440537,1606979,48,Man
68,796821,DepthScenes,duration_manipulation_targetAtFixation,jsons/VE125_randls_18.json,http://54.235.29.9/FacialAge/BNav_EC2/DepthDuration/v2_depth_duration_MTurk/v2_DepthDuration_HTML.html#19,19,1920,937,1920,1080,8-21-2022,14-45-42,69,depth_duration_stimuli/000447_2014-06-08_16-15-46_260595134347_rgbf000130-resize_1/000447_2014-06-08_16-15-46_260595134347_rgbf000130-resize_1-target.png,125,4.479,3,2251,131,meters,jsons/VE125_randls_18.json,440537,1606979,48,Man
69,796821,DepthScenes,duration_manipulation_targetAtFixation,jsons/VE125_randls_18.json,http://54.235.29.9/FacialAge/BNav_EC2/DepthDuration/v2_depth_duration_MTurk/v2_DepthDuration_HTML.html#19,19,1920,937,1920,1080,8-21-2022,14-45-42,70,depth_duration_stimuli/001447_2014-06-19_17-00-32_260595134347_rgbf000082-resize_5/001447_2014-06-19_17-00-32_260595134347_rgbf000082-resize_5-target.png,125,4.13775,2,1887,113,meters,jsons/VE125_randls_18.json,440537,1606979,48,Man
70,796821,DepthScenes,duration_manipulation_targetAtFixation,jsons/VE125_randls_18.json,http://54.235.29.9/FacialAge/BNav_EC2/DepthDuration/v2_depth_duration_MTurk/v2_DepthDuration_HTML.html#19,19,1920,937,1920,1080,8-21-2022,14-45-42,71,depth_duration_stimuli/001808_2014-06-26_20-50-58_260595134347_rgbf000029-resize_1/001808_2014-06-26_20-50-58_260595134347_rgbf000029-resize_1-target.png,125,4.249,3,2265,115,meters,jsons/VE125_randls_18.json,440537,1606979,48,Man
71,796821,DepthScenes,duration_manipulation_targetAtFixation,jsons/VE125_randls_18.json,http://54.235.29.9/FacialAge/BNav_EC2/DepthDuration/v2_depth_duration_MTurk/v2_DepthDuration_HTML.html#19,19,1920,937,1920,1080,8-21-2022,14-45-42,72,depth_duration_stimuli/001815_2014-06-26_20-52-55_260595134347_rgbf000020-resize_0/001815_2014-06-26_20-52-55_260595134347_rgbf000020-resize_0-target.png,125,3.3865,3,1636,126,meters,jsons/VE125_randls_18.json,440537,1606979,48,Man
72,796821,DepthScenes,duration_manipulation_targetAtFixation,jsons/VE125_randls_18.json,http://54.235.29.9/FacialAge/BNav_EC2/DepthDuration/v2_depth_duration_MTurk/v2_DepthDuration_HTML.html#19,19,1920,937,1920,1080,8-21-2022,14-45-42,73,depth_duration_stimuli/000469_2014-06-09_19-42-10_260595134347_rgbf000081-resize_1/000469_2014-06-09_19-42-10_260595134347_rgbf000081-resize_1-target.png,125,1.652,2,1687,102,meters,jsons/VE125_randls_18.json,440537,1606979,48,Man
73,796821,DepthScenes,duration_manipulation_targetAtFixation,jsons/VE125_randls_18.json,http://54.235.29.9/FacialAge/BNav_EC2/DepthDuration/v2_depth_duration_MTurk/v2_DepthDuration_HTML.html#19,19,1920,937,1920,1080,8-21-2022,14-45-42,74,depth_duration_stimuli/000483_2014-06-09_20-41-45_260595134347_rgbf000116-resize_4/000483_2014-06-09_20-41-45_260595134347_rgbf000116-resize_4-target.png,125,1.337,4,2918,120,meters,jsons/VE125_randls_18.json,440537,1606979,48,Man
74,796821,DepthScenes,duration_manipulation_targetAtFixation,jsons/VE125_randls_18.json,http://54.235.29.9/FacialAge/BNav_EC2/DepthDuration/v2_depth_duration_MTurk/v2_DepthDuration_HTML.html#19,19,1920,937,1920,1080,8-21-2022,14-45-42,75,depth_duration_stimuli/002600_2014-06-24_14-27-04_094959634447_rgbf000074-resize_2/002600_2014-06-24_14-27-04_094959634447_rgbf000074-resize_2-target.png,125,2.7575,2,2457,124,meters,jsons/VE125_randls_18.json,440537,1606979,48,Man
75,796821,DepthScenes,duration_manipulation_targetAtFixation,jsons/VE125_randls_18.json,http://54.235.29.9/FacialAge/BNav_EC2/DepthDuration/v2_depth_duration_MTurk/v2_DepthDuration_HTML.html#19,19,1920,937,1920,1080,8-21-2022,14-45-42,76,depth_duration_stimuli/003228_2014-05-14_13-42-35_094959634447_rgbf000101-resize_1/003228_2014-05-14_13-42-35_094959634447_rgbf000101-resize_1-target.png,125,1.9680000000000002,2,1618,124,meters,jsons/VE125_randls_18.json,440537,1606979,48,Man
76,796821,DepthScenes,duration_manipulation_targetAtFixation,jsons/VE125_randls_18.json,http://54.235.29.9/FacialAge/BNav_EC2/DepthDuration/v2_depth_duration_MTurk/v2_DepthDuration_HTML.html#19,19,1920,937,1920,1080,8-21-2022,14-45-42,77,depth_duration_stimuli/002989_2014-06-15_12-25-03_094959634447_rgbf000150-resize_3/002989_2014-06-15_12-25-03_094959634447_rgbf000150-resize_3-target.png,125,4.1975,2,1819,126,meters,jsons/VE125_randls_18.json,440537,1606979,48,Man
77,796821,DepthScenes,duration_manipulation_targetAtFixation,jsons/VE125_randls_18.json,http://54.235.29.9/FacialAge/BNav_EC2/DepthDuration/v2_depth_duration_MTurk/v2_DepthDuration_HTML.html#19,19,1920,937,1920,1080,8-21-2022,14-45-42,78,depth_duration_stimuli/000866_2014-06-09_20-45-42_260595134347_rgbf000139-resize_1/000866_2014-06-09_20-45-42_260595134347_rgbf000139-resize_1-target.png,125,3.2155,3,1884,125,meters,jsons/VE125_randls_18.json,440537,1606979,48,Man
78,796821,DepthScenes,duration_manipulation_targetAtFixation,jsons/VE125_randls_18.json,http://54.235.29.9/FacialAge/BNav_EC2/DepthDuration/v2_depth_duration_MTurk/v2_DepthDuration_HTML.html#19,19,1920,937,1920,1080,8-21-2022,14-45-42,79,depth_duration_stimuli/001810_2014-06-26_20-51-35_260595134347_rgbf000040-resize_3/001810_2014-06-26_20-51-35_260595134347_rgbf000040-resize_3-target.png,125,2.2525,3,1694,124,meters,jsons/VE125_randls_18.json,440537,1606979,48,Man
79,796821,DepthScenes,duration_manipulation_targetAtFixation,jsons/VE125_randls_18.json,http://54.235.29.9/FacialAge/BNav_EC2/DepthDuration/v2_depth_duration_MTurk/v2_DepthDuration_HTML.html#19,19,1920,937,1920,1080,8-21-2022,14-45-42,80,depth_duration_stimuli/003010_2014-06-15_12-54-35_094959634447_rgbf000112-resize_0/003010_2014-06-15_12-54-35_094959634447_rgbf000112-resize_0-target.png,125,3.1185,3,1782,123,meters,jsons/VE125_randls_18.json,440537,1606979,48,Man
80,796821,DepthScenes,duration_manipulation_targetAtFixation,jsons/VE125_randls_18.json,http://54.235.29.9/FacialAge/BNav_EC2/DepthDuration/v2_depth_duration_MTurk/v2_DepthDuration_HTML.html#19,19,1920,937,1920,1080,8-21-2022,14-45-42,81,depth_duration_stimuli/000642_2014-06-08_16-59-25_260595134347_rgbf000098-resize_2/000642_2014-06-08_16-59-25_260595134347_rgbf000098-resize_2-target.png,125,2.8815,3,2026,124,meters,jsons/VE125_randls_18.json,440537,1606979,48,Man
81,796821,DepthScenes,duration_manipulation_targetAtFixation,jsons/VE125_randls_18.json,http://54.235.29.9/FacialAge/BNav_EC2/DepthDuration/v2_depth_duration_MTurk/v2_DepthDuration_HTML.html#19,19,1920,937,1920,1080,8-21-2022,14-45-42,82,depth_duration_stimuli/002425_2014-06-28_20-27-29_260595134347_rgbf000031-resize_8/002425_2014-06-28_20-27-29_260595134347_rgbf000031-resize_8-target.png,125,3.8960000000000004,4,1788,124,meters,jsons/VE125_randls_18.json,440537,1606979,48,Man
82,796821,DepthScenes,duration_manipulation_targetAtFixation,jsons/VE125_randls_18.json,http://54.235.29.9/FacialAge/BNav_EC2/DepthDuration/v2_depth_duration_MTurk/v2_DepthDuration_HTML.html#19,19,1920,937,1920,1080,8-21-2022,14-45-42,83,depth_duration_stimuli/002057_2014-06-24_21-00-13_260595134347_rgbf000120-resize_1/002057_2014-06-24_21-00-13_260595134347_rgbf000120-resize_1-target.png,125,2.967,4,2280,124,meters,jsons/VE125_randls_18.json,440537,1606979,48,Man
83,796821,DepthScenes,duration_manipulation_targetAtFixation,jsons/VE125_randls_18.json,http://54.235.29.9/FacialAge/BNav_EC2/DepthDuration/v2_depth_duration_MTurk/v2_DepthDuration_HTML.html#19,19,1920,937,1920,1080,8-21-2022,14-45-42,84,depth_duration_stimuli/000709_2014-06-08_13-51-55_260595134347_rgbf000068-resize_3/000709_2014-06-08_13-51-55_260595134347_rgbf000068-resize_3-target.png,125,1.8030000000000002,4,1828,126,meters,jsons/VE125_randls_18.json,440537,1606979,48,Man
84,796821,DepthScenes,duration_manipulation_targetAtFixation,jsons/VE125_randls_18.json,http://54.235.29.9/FacialAge/BNav_EC2/DepthDuration/v2_depth_duration_MTurk/v2_DepthDuration_HTML.html#19,19,1920,937,1920,1080,8-21-2022,14-45-42,85,depth_duration_stimuli/001449_2014-06-19_17-01-27_260595134347_rgbf000116-resize_2/001449_2014-06-19_17-01-27_260595134347_rgbf000116-resize_2-target.png,125,3.452,4,1850,125,meters,jsons/VE125_randls_18.json,440537,1606979,48,Man
85,796821,DepthScenes,duration_manipulation_targetAtFixation,jsons/VE125_randls_18.json,http://54.235.29.9/FacialAge/BNav_EC2/DepthDuration/v2_depth_duration_MTurk/v2_DepthDuration_HTML.html#19,19,1920,937,1920,1080,8-21-2022,14-45-42,86,depth_duration_stimuli/001450_2014-06-19_17-02-03_260595134347_rgbf000203-resize_4/001450_2014-06-19_17-02-03_260595134347_rgbf000203-resize_4-target.png,125,4.0106666666667,2,2987,124,meters,jsons/VE125_randls_18.json,440537,1606979,48,Man
86,796821,DepthScenes,duration_manipulation_targetAtFixation,jsons/VE125_randls_18.json,http://54.235.29.9/FacialAge/BNav_EC2/DepthDuration/v2_depth_duration_MTurk/v2_DepthDuration_HTML.html#19,19,1920,937,1920,1080,8-21-2022,14-45-42,87,depth_duration_stimuli/000878_2014-06-08_22-52-45_260595134347_rgbf000045-resize_2/000878_2014-06-08_22-52-45_260595134347_rgbf000045-resize_2-target.png,125,2.092,3,1834,125,meters,jsons/VE125_randls_18.json,440537,1606979,48,Man
87,796821,DepthScenes,duration_manipulation_targetAtFixation,jsons/VE125_randls_18.json,http://54.235.29.9/FacialAge/BNav_EC2/DepthDuration/v2_depth_duration_MTurk/v2_DepthDuration_HTML.html#19,19,1920,937,1920,1080,8-21-2022,14-45-42,88,depth_duration_stimuli/002953_2014-06-08_17-32-18_094959634447_rgbf000059-resize_5/002953_2014-06-08_17-32-18_094959634447_rgbf000059-resize_5-target.png,125,1.551,2,2427,123,meters,jsons/VE125_randls_18.json,440537,1606979,48,Man
88,796821,DepthScenes,duration_manipulation_targetAtFixation,jsons/VE125_randls_18.json,http://54.235.29.9/FacialAge/BNav_EC2/DepthDuration/v2_depth_duration_MTurk/v2_DepthDuration_HTML.html#19,19,1920,937,1920,1080,8-21-2022,14-45-42,89,depth_duration_stimuli/002118_2014-06-25_20-32-08_260595134347_rgbf000078-resize_1/002118_2014-06-25_20-32-08_260595134347_rgbf000078-resize_1-target.png,125,2.6460000000000004,2,1843,124,meters,jsons/VE125_randls_18.json,440537,1606979,48,Man
89,796821,DepthScenes,duration_manipulation_targetAtFixation,jsons/VE125_randls_18.json,http://54.235.29.9/FacialAge/BNav_EC2/DepthDuration/v2_depth_duration_MTurk/v2_DepthDuration_HTML.html#19,19,1920,937,1920,1080,8-21-2022,14-45-42,90,depth_duration_stimuli/001516_2014-06-20_16-25-09_260595134347_rgbf000076-resize_2/001516_2014-06-20_16-25-09_260595134347_rgbf000076-resize_2-target.png,125,1.7445,3,2491,125,meters,jsons/VE125_randls_18.json,440537,1606979,48,Man
90,796821,DepthScenes,duration_manipulation_targetAtFixation,jsons/VE125_randls_18.json,http://54.235.29.9/FacialAge/BNav_EC2/DepthDuration/v2_depth_duration_MTurk/v2_DepthDuration_HTML.html#19,19,1920,937,1920,1080,8-21-2022,14-45-42,91,depth_duration_stimuli/002549_2014-06-24_13-41-39_094959634447_rgbf000022-resize_3/002549_2014-06-24_13-41-39_094959634447_rgbf000022-resize_3-target.png,125,1.476,3,3276,126,meters,jsons/VE125_randls_18.json,440537,1606979,48,Man
91,796821,DepthScenes,duration_manipulation_targetAtFixation,jsons/VE125_randls_18.json,http://54.235.29.9/FacialAge/BNav_EC2/DepthDuration/v2_depth_duration_MTurk/v2_DepthDuration_HTML.html#19,19,1920,937,1920,1080,8-21-2022,14-45-42,92,depth_duration_stimuli/002750_2014-06-22_19-08-03_094959634447_rgbf000094-resize_4/002750_2014-06-22_19-08-03_094959634447_rgbf000094-resize_4-target.png,125,2.354,2,2410,125,meters,jsons/VE125_randls_18.json,440537,1606979,48,Man
92,796821,DepthScenes,duration_manipulation_targetAtFixation,jsons/VE125_randls_18.json,http://54.235.29.9/FacialAge/BNav_EC2/DepthDuration/v2_depth_duration_MTurk/v2_DepthDuration_HTML.html#19,19,1920,937,1920,1080,8-21-2022,14-45-42,93,depth_duration_stimuli/002663_2014-06-13_15-50-26_094959634447_rgbf000075-resize_1/002663_2014-06-13_15-50-26_094959634447_rgbf000075-resize_1-target.png,125,4.7495,1,1827,123,meters,jsons/VE125_randls_18.json,440537,1606979,48,Man
93,796821,DepthScenes,duration_manipulation_targetAtFixation,jsons/VE125_randls_18.json,http://54.235.29.9/FacialAge/BNav_EC2/DepthDuration/v2_depth_duration_MTurk/v2_DepthDuration_HTML.html#19,19,1920,937,1920,1080,8-21-2022,14-45-42,94,depth_duration_stimuli/000409_2014-06-04_19-23-33_260595134347_rgbf000067-resize_0/000409_2014-06-04_19-23-33_260595134347_rgbf000067-resize_0-target.png,125,3.7335,2,1789,126,meters,jsons/VE125_randls_18.json,440537,1606979,48,Man
94,796821,DepthScenes,duration_manipulation_targetAtFixation,jsons/VE125_randls_18.json,http://54.235.29.9/FacialAge/BNav_EC2/DepthDuration/v2_depth_duration_MTurk/v2_DepthDuration_HTML.html#19,19,1920,937,1920,1080,8-21-2022,14-45-42,95,depth_duration_stimuli/002272_2014-06-28_18-53-56_260595134347_rgbf000067-resize_2/002272_2014-06-28_18-53-56_260595134347_rgbf000067-resize_2-target.png,125,1.138,3,1754,125,meters,jsons/VE125_randls_18.json,440537,1606979,48,Man
95,796821,DepthScenes,duration_manipulation_targetAtFixation,jsons/VE125_randls_18.json,http://54.235.29.9/FacialAge/BNav_EC2/DepthDuration/v2_depth_duration_MTurk/v2_DepthDuration_HTML.html#19,19,1920,937,1920,1080,8-21-2022,14-45-42,96,depth_duration_stimuli/001571_2014-06-20_17-21-32_260595134347_rgbf000089-resize_1/001571_2014-06-20_17-21-32_260595134347_rgbf000089-resize_1-target.png,125,1.86,4,1811,126,meters,jsons/VE125_randls_18.json,440537,1606979,48,Man
96,796821,DepthScenes,duration_manipulation_targetAtFixation,jsons/VE125_randls_18.json,http://54.235.29.9/FacialAge/BNav_EC2/DepthDuration/v2_depth_duration_MTurk/v2_DepthDuration_HTML.html#19,19,1920,937,1920,1080,8-21-2022,14-45-42,97,depth_duration_stimuli/002630_2014-06-24_14-47-50_094959634447_rgbf000055-resize_1/002630_2014-06-24_14-47-50_094959634447_rgbf000055-resize_1-target.png,125,3.0095,2,1881,124,meters,jsons/VE125_randls_18.json,440537,1606979,48,Man
97,796821,DepthScenes,duration_manipulation_targetAtFixation,jsons/VE125_randls_18.json,http://54.235.29.9/FacialAge/BNav_EC2/DepthDuration/v2_depth_duration_MTurk/v2_DepthDuration_HTML.html#19,19,1920,937,1920,1080,8-21-2022,14-45-42,98,depth_duration_stimuli/002758_2014-06-22_19-11-20_094959634447_rgbf000128-resize_1/002758_2014-06-22_19-11-20_094959634447_rgbf000128-resize_1-target.png,125,2.555,2,2069,124,meters,jsons/VE125_randls_18.json,440537,1606979,48,Man
98,796821,DepthScenes,duration_manipulation_targetAtFixation,jsons/VE125_randls_18.json,http://54.235.29.9/FacialAge/BNav_EC2/DepthDuration/v2_depth_duration_MTurk/v2_DepthDuration_HTML.html#19,19,1920,937,1920,1080,8-21-2022,14-45-42,99,depth_duration_stimuli/001540_2014-06-20_17-01-05_260595134347_rgbf000086-resize_2/001540_2014-06-20_17-01-05_260595134347_rgbf000086-resize-original.jpg,125,1.459,2,3094,126,meters,jsons/VE125_randls_18.json,440537,1606979,48,Man
99,796821,DepthScenes,duration_manipulation_targetAtFixation,jsons/VE125_randls_18.json,http://54.235.29.9/FacialAge/BNav_EC2/DepthDuration/v2_depth_duration_MTurk/v2_DepthDuration_HTML.html#19,19,1920,937,1920,1080,8-21-2022,14-45-42,100,depth_duration_stimuli/002788_2014-06-22_19-36-03_094959634447_rgbf000088-resize_2/002788_2014-06-22_19-36-03_094959634447_rgbf000088-resize_2-target.png,125,1.6465,3,3270,124,meters,jsons/VE125_randls_18.json,440537,1606979,48,Man
100,796821,DepthScenes,duration_manipulation_targetAtFixation,jsons/VE125_randls_18.json,http://54.235.29.9/FacialAge/BNav_EC2/DepthDuration/v2_depth_duration_MTurk/v2_DepthDuration_HTML.html#19,19,1920,937,1920,1080,8-21-2022,14-45-42,101,depth_duration_stimuli/000749_2014-06-08_21-55-06_260595134347_rgbf000070-resize_2/000749_2014-06-08_21-55-06_260595134347_rgbf000070-resize_2-target.png,125,2.331,2,1778,124,meters,jsons/VE125_randls_18.json,440537,1606979,48,Man
101,796821,DepthScenes,duration_manipulation_targetAtFixation,jsons/VE125_randls_18.json,http://54.235.29.9/FacialAge/BNav_EC2/DepthDuration/v2_depth_duration_MTurk/v2_DepthDuration_HTML.html#19,19,1920,937,1920,1080,8-21-2022,14-45-42,102,depth_duration_stimuli/000906_2014-06-08_13-35-43_260595134347_rgbf000155-resize_1/000906_2014-06-08_13-35-43_260595134347_rgbf000155-resize_1-target.png,125,2.8489999999999998,2,1811,125,meters,jsons/VE125_randls_18.json,440537,1606979,48,Man
102,796821,DepthScenes,duration_manipulation_targetAtFixation,jsons/VE125_randls_18.json,http://54.235.29.9/FacialAge/BNav_EC2/DepthDuration/v2_depth_duration_MTurk/v2_DepthDuration_HTML.html#19,19,1920,937,1920,1080,8-21-2022,14-45-42,103,depth_duration_stimuli/002805_2014-06-22_19-54-03_094959634447_rgbf000079-resize_1/002805_2014-06-22_19-54-03_094959634447_rgbf000079-resize_1-target.png,125,3.1439999999999997,1,1710,126,meters,jsons/VE125_randls_18.json,440537,1606979,48,Man
103,796821,DepthScenes,duration_manipulation_targetAtFixation,jsons/VE125_randls_18.json,http://54.235.29.9/FacialAge/BNav_EC2/DepthDuration/v2_depth_duration_MTurk/v2_DepthDuration_HTML.html#19,19,1920,937,1920,1080,8-21-2022,14-45-42,104,depth_duration_stimuli/001570_2014-06-20_17-21-09_260595134347_rgbf000135-resize_4/001570_2014-06-20_17-21-09_260595134347_rgbf000135-resize_4-target.png,125,4.467,2,1673,125,meters,jsons/VE125_randls_18.json,440537,1606979,48,Man
104,796821,DepthScenes,duration_manipulation_targetAtFixation,jsons/VE125_randls_18.json,http://54.235.29.9/FacialAge/BNav_EC2/DepthDuration/v2_depth_duration_MTurk/v2_DepthDuration_HTML.html#19,19,1920,937,1920,1080,8-21-2022,14-45-42,105,depth_duration_stimuli/001392_2014-06-19_16-07-59_260595134347_rgbf000046-resize_1/001392_2014-06-19_16-07-59_260595134347_rgbf000046-resize_1-target.png,125,4.135,4,1756,124,meters,jsons/VE125_randls_18.json,440537,1606979,48,Man
105,796821,DepthScenes,duration_manipulation_targetAtFixation,jsons/VE125_randls_18.json,http://54.235.29.9/FacialAge/BNav_EC2/DepthDuration/v2_depth_duration_MTurk/v2_DepthDuration_HTML.html#19,19,1920,937,1920,1080,8-21-2022,14-45-42,106,depth_duration_stimuli/002905_2014-06-03_18-04-43_094959634447_rgbf000151-resize_2/002905_2014-06-03_18-04-43_094959634447_rgbf000151-resize_2-target.png,125,2.0295,4,1699,125,meters,jsons/VE125_randls_18.json,440537,1606979,48,Man
106,796821,DepthScenes,duration_manipulation_targetAtFixation,jsons/VE125_randls_18.json,http://54.235.29.9/FacialAge/BNav_EC2/DepthDuration/v2_depth_duration_MTurk/v2_DepthDuration_HTML.html#19,19,1920,937,1920,1080,8-21-2022,14-45-42,107,depth_duration_stimuli/003423_2014-05-21_10-23-26_094959634447_rgbf002665-resize_2/003423_2014-05-21_10-23-26_094959634447_rgbf002665-resize_2-target.png,125,3.2575,2,2117,124,meters,jsons/VE125_randls_18.json,440537,1606979,48,Man
107,796821,DepthScenes,duration_manipulation_targetAtFixation,jsons/VE125_randls_18.json,http://54.235.29.9/FacialAge/BNav_EC2/DepthDuration/v2_depth_duration_MTurk/v2_DepthDuration_HTML.html#19,19,1920,937,1920,1080,8-21-2022,14-45-42,108,depth_duration_stimuli/002725_2014-06-22_11-47-51_094959634447_rgbf000070-resize_1/002725_2014-06-22_11-47-51_094959634447_rgbf000070-resize_1-target.png,125,2.195,3,1884,111,meters,jsons/VE125_randls_18.json,440537,1606979,48,Man
108,796821,DepthScenes,duration_manipulation_targetAtFixation,jsons/VE125_randls_18.json,http://54.235.29.9/FacialAge/BNav_EC2/DepthDuration/v2_depth_duration_MTurk/v2_DepthDuration_HTML.html#19,19,1920,937,1920,1080,8-21-2022,14-45-42,109,depth_duration_stimuli/002344_2014-06-28_20-06-29_260595134347_rgbf000030-resize_1/002344_2014-06-28_20-06-29_260595134347_rgbf000030-resize_1-target.png,125,1.5795,2,1475,123,meters,jsons/VE125_randls_18.json,440537,1606979,48,Man
109,796821,DepthScenes,duration_manipulation_targetAtFixation,jsons/VE125_randls_18.json,http://54.235.29.9/FacialAge/BNav_EC2/DepthDuration/v2_depth_duration_MTurk/v2_DepthDuration_HTML.html#19,19,1920,937,1920,1080,8-21-2022,14-45-42,110,depth_duration_stimuli/003621_2014-05-23_18-06-08_094959634447_rgbf000101-resize_1/003621_2014-05-23_18-06-08_094959634447_rgbf000101-resize_1-target.png,125,3.9835,2,1684,126,meters,jsons/VE125_randls_18.json,440537,1606979,48,Man
110,796821,DepthScenes,duration_manipulation_targetAtFixation,jsons/VE125_randls_18.json,http://54.235.29.9/FacialAge/BNav_EC2/DepthDuration/v2_depth_duration_MTurk/v2_DepthDuration_HTML.html#19,19,1920,937,1920,1080,8-21-2022,14-45-42,111,depth_duration_stimuli/001584_2014-06-20_11-07-43_260595134347_rgbf000002-resize_1/001584_2014-06-20_11-07-43_260595134347_rgbf000002-resize_1-target.png,125,3.53,3,1754,124,meters,jsons/VE125_randls_18.json,440537,1606979,48,Man
111,796821,DepthScenes,duration_manipulation_targetAtFixation,jsons/VE125_randls_18.json,http://54.235.29.9/FacialAge/BNav_EC2/DepthDuration/v2_depth_duration_MTurk/v2_DepthDuration_HTML.html#19,19,1920,937,1920,1080,8-21-2022,14-45-42,112,depth_duration_stimuli/002213_2014-06-28_18-37-58_260595134347_rgbf000055-resize_1/002213_2014-06-28_18-37-58_260595134347_rgbf000055-resize_1-target.png,125,3.62,2,1715,124,meters,jsons/VE125_randls_18.json,440537,1606979,48,Man
112,796821,DepthScenes,duration_manipulation_targetAtFixation,jsons/VE125_randls_18.json,http://54.235.29.9/FacialAge/BNav_EC2/DepthDuration/v2_depth_duration_MTurk/v2_DepthDuration_HTML.html#19,19,1920,937,1920,1080,8-21-2022,14-45-42,113,depth_duration_stimuli/000691_2014-06-08_13-08-50_260595134347_rgbf000132-resize_3/000691_2014-06-08_13-08-50_260595134347_rgbf000132-resize_3-target.png,125,4.1530000000000005,3,1906,125,meters,jsons/VE125_randls_18.json,440537,1606979,48,Man
113,796821,DepthScenes,duration_manipulation_targetAtFixation,jsons/VE125_randls_18.json,http://54.235.29.9/FacialAge/BNav_EC2/DepthDuration/v2_depth_duration_MTurk/v2_DepthDuration_HTML.html#19,19,1920,937,1920,1080,8-21-2022,14-45-42,114,depth_duration_stimuli/001199_2014-06-17_16-03-48_260595134347_rgbf000077-resize_0/001199_2014-06-17_16-03-48_260595134347_rgbf000077-resize_0-target.png,125,3.4375,4,1788,125,meters,jsons/VE125_randls_18.json,440537,1606979,48,Man
114,796821,DepthScenes,duration_manipulation_targetAtFixation,jsons/VE125_randls_18.json,http://54.235.29.9/FacialAge/BNav_EC2/DepthDuration/v2_depth_duration_MTurk/v2_DepthDuration_HTML.html#19,19,1920,937,1920,1080,8-21-2022,14-45-42,115,depth_duration_stimuli/000502_2014-06-08_23-02-32_260595134347_rgbf000063-resize_4/000502_2014-06-08_23-02-32_260595134347_rgbf000063-resize_4-target.png,125,2.431,2,1715,117,meters,jsons/VE125_randls_18.json,440537,1606979,48,Man
115,796821,DepthScenes,duration_manipulation_targetAtFixation,jsons/VE125_randls_18.json,http://54.235.29.9/FacialAge/BNav_EC2/DepthDuration/v2_depth_duration_MTurk/v2_DepthDuration_HTML.html#19,19,1920,937,1920,1080,8-21-2022,14-45-42,116,depth_duration_stimuli/001170_2014-06-17_15-43-44_260595134347_rgbf000096-resize_6/001170_2014-06-17_15-43-44_260595134347_rgbf000096-resize-original.jpg,125,1.1909999999999998,4,2331,126,meters,jsons/VE125_randls_18.json,440537,1606979,48,Man
116,796821,DepthScenes,duration_manipulation_targetAtFixation,jsons/VE125_randls_18.json,http://54.235.29.9/FacialAge/BNav_EC2/DepthDuration/v2_depth_duration_MTurk/v2_DepthDuration_HTML.html#19,19,1920,937,1920,1080,8-21-2022,14-45-42,117,depth_duration_stimuli/003492_2014-05-21_15-50-55_094959634447_rgbf000828-resize_1/003492_2014-05-21_15-50-55_094959634447_rgbf000828-resize_1-target.png,125,4.06875,3,2348,123,meters,jsons/VE125_randls_18.json,440537,1606979,48,Man
117,796821,DepthScenes,duration_manipulation_targetAtFixation,jsons/VE125_randls_18.json,http://54.235.29.9/FacialAge/BNav_EC2/DepthDuration/v2_depth_duration_MTurk/v2_DepthDuration_HTML.html#19,19,1920,937,1920,1080,8-21-2022,14-45-42,118,depth_duration_stimuli/002568_2014-06-24_13-59-21_094959634447_rgbf000062-resize_4/002568_2014-06-24_13-59-21_094959634447_rgbf000062-resize_4-target.png,125,3.015,2,1729,123,meters,jsons/VE125_randls_18.json,440537,1606979,48,Man
118,796821,DepthScenes,duration_manipulation_targetAtFixation,jsons/VE125_randls_18.json,http://54.235.29.9/FacialAge/BNav_EC2/DepthDuration/v2_depth_duration_MTurk/v2_DepthDuration_HTML.html#19,19,1920,937,1920,1080,8-21-2022,14-45-42,119,depth_duration_stimuli/001158_2014-06-17_15-32-16_260595134347_rgbf000138-resize_2/001158_2014-06-17_15-32-16_260595134347_rgbf000138-resize_2-target.png,125,4.5315,3,1820,124,meters,jsons/VE125_randls_18.json,440537,1606979,48,Man
119,796821,DepthScenes,duration_manipulation_targetAtFixation,jsons/VE125_randls_18.json,http://54.235.29.9/FacialAge/BNav_EC2/DepthDuration/v2_depth_duration_MTurk/v2_DepthDuration_HTML.html#19,19,1920,937,1920,1080,8-21-2022,14-45-42,120,depth_duration_stimuli/000556_2014-06-09_22-42-56_260595134347_rgbf000214-resize_1/000556_2014-06-09_22-42-56_260595134347_rgbf000214-resize_1-target.png,125,4.8415,4,1690,124,meters,jsons/VE125_randls_18.json,440537,1606979,48,Man
120,796821,DepthScenes,duration_manipulation_targetAtFixation,jsons/VE125_randls_18.json,http://54.235.29.9/FacialAge/BNav_EC2/DepthDuration/v2_depth_duration_MTurk/v2_DepthDuration_HTML.html#19,19,1920,937,1920,1080,8-21-2022,14-45-42,121,depth_duration_stimuli/002784_2014-06-22_19-26-30_094959634447_rgbf000083-resize_3/002784_2014-06-22_19-26-30_094959634447_rgbf000083-resize_3-target.png,125,1.8046666666667,2,1930,124,meters,jsons/VE125_randls_18.json,440537,1606979,48,Man
121,796821,DepthScenes,duration_manipulation_targetAtFixation,jsons/VE125_randls_18.json,http://54.235.29.9/FacialAge/BNav_EC2/DepthDuration/v2_depth_duration_MTurk/v2_DepthDuration_HTML.html#19,19,1920,937,1920,1080,8-21-2022,14-45-42,122,depth_duration_stimuli/001100_2014-06-15_17-46-26_260595134347_rgbf000225-resize_2/001100_2014-06-15_17-46-26_260595134347_rgbf000225-resize_2-target.png,125,2.24,2,1733,125,meters,jsons/VE125_randls_18.json,440537,1606979,48,Man
122,796821,DepthScenes,duration_manipulation_targetAtFixation,jsons/VE125_randls_18.json,http://54.235.29.9/FacialAge/BNav_EC2/DepthDuration/v2_depth_duration_MTurk/v2_DepthDuration_HTML.html#19,19,1920,937,1920,1080,8-21-2022,14-45-42,123,depth_duration_stimuli/003070_2014-06-15_14-58-27_094959634447_rgbf000150-resize_3/003070_2014-06-15_14-58-27_094959634447_rgbf000150-resize_3-target.png,125,2.9415,3,1963,125,meters,jsons/VE125_randls_18.json,440537,1606979,48,Man
123,796821,DepthScenes,duration_manipulation_targetAtFixation,jsons/VE125_randls_18.json,http://54.235.29.9/FacialAge/BNav_EC2/DepthDuration/v2_depth_duration_MTurk/v2_DepthDuration_HTML.html#19,19,1920,937,1920,1080,8-21-2022,14-45-42,124,depth_duration_stimuli/000943_2014-06-09_19-31-07_260595134347_rgbf000128-resize_1/000943_2014-06-09_19-31-07_260595134347_rgbf000128-resize_1-target.png,125,1.9765,2,1811,126,meters,jsons/VE125_randls_18.json,440537,1606979,48,Man
124,796821,DepthScenes,duration_manipulation_targetAtFixation,jsons/VE125_randls_18.json,http://54.235.29.9/FacialAge/BNav_EC2/DepthDuration/v2_depth_duration_MTurk/v2_DepthDuration_HTML.html#19,19,1920,937,1920,1080,8-21-2022,14-45-42,125,depth_duration_stimuli/003534_2014-05-22_15-06-10_094959634447_rgbf000102-resize_4/003534_2014-05-22_15-06-10_094959634447_rgbf000102-resize_4-target.png,125,1.426,2,2507,124,meters,jsons/VE125_randls_18.json,440537,1606979,48,Man
125,796821,DepthScenes,duration_manipulation_targetAtFixation,jsons/VE125_randls_18.json,http://54.235.29.9/FacialAge/BNav_EC2/DepthDuration/v2_depth_duration_MTurk/v2_DepthDuration_HTML.html#19,19,1920,937,1920,1080,8-21-2022,14-45-42,126,depth_duration_stimuli/002637_2014-06-24_14-51-13_094959634447_rgbf000066-resize_4/002637_2014-06-24_14-51-13_094959634447_rgbf000066-resize_4-target.png,125,1.9955,2,1600,123,meters,jsons/VE125_randls_18.json,440537,1606979,48,Man
126,796821,DepthScenes,duration_manipulation_targetAtFixation,jsons/VE125_randls_18.json,http://54.235.29.9/FacialAge/BNav_EC2/DepthDuration/v2_depth_duration_MTurk/v2_DepthDuration_HTML.html#19,19,1920,937,1920,1080,8-21-2022,14-45-42,127,depth_duration_stimuli/000009_2014-05-26_14-32-05_260595134347_rgbf000034-resize_3/000009_2014-05-26_14-32-05_260595134347_rgbf000034-resize_3-target.png,125,3.8715,4,2213,110,meters,jsons/VE125_randls_18.json,440537,1606979,48,Man
127,796821,DepthScenes,duration_manipulation_targetAtFixation,jsons/VE125_randls_18.json,http://54.235.29.9/FacialAge/BNav_EC2/DepthDuration/v2_depth_duration_MTurk/v2_DepthDuration_HTML.html#19,19,1920,937,1920,1080,8-21-2022,14-45-42,128,depth_duration_stimuli/001828_2014-06-26_21-40-03_260595134347_rgbf000024-resize_0/001828_2014-06-26_21-40-03_260595134347_rgbf000024-resize_0-target.png,125,4.8260000000000005,2,1970,124,meters,jsons/VE125_randls_18.json,440537,1606979,48,Man
128,796821,DepthScenes,duration_manipulation_targetAtFixation,jsons/VE125_randls_18.json,http://54.235.29.9/FacialAge/BNav_EC2/DepthDuration/v2_depth_duration_MTurk/v2_DepthDuration_HTML.html#19,19,1920,937,1920,1080,8-21-2022,14-45-42,129,depth_duration_stimuli/001806_2014-06-26_20-50-20_260595134347_rgbf000091-resize_1/001806_2014-06-26_20-50-20_260595134347_rgbf000091-resize_1-target.png,125,2.7305,2,1660,124,meters,jsons/VE125_randls_18.json,440537,1606979,48,Man
129,796821,DepthScenes,duration_manipulation_targetAtFixation,jsons/VE125_randls_18.json,http://54.235.29.9/FacialAge/BNav_EC2/DepthDuration/v2_depth_duration_MTurk/v2_DepthDuration_HTML.html#19,19,1920,937,1920,1080,8-21-2022,14-45-42,130,depth_duration_stimuli/001617_2014-06-20_11-35-32_260595134347_rgbf000066-resize_1/001617_2014-06-20_11-35-32_260595134347_rgbf000066-resize_1-target.png,125,3.7910000000000004,3,2003,124,meters,jsons/VE125_randls_18.json,440537,1606979,48,Man
130,796821,DepthScenes,duration_manipulation_targetAtFixation,jsons/VE125_randls_18.json,http://54.235.29.9/FacialAge/BNav_EC2/DepthDuration/v2_depth_duration_MTurk/v2_DepthDuration_HTML.html#19,19,1920,937,1920,1080,8-21-2022,14-45-42,131,depth_duration_stimuli/002445_2014-06-28_20-32-16_260595134347_rgbf000029-resize_4/002445_2014-06-28_20-32-16_260595134347_rgbf000029-resize_4-target.png,125,2.5315,3,1793,125,meters,jsons/VE125_randls_18.json,440537,1606979,48,Man
131,796821,DepthScenes,duration_manipulation_targetAtFixation,jsons/VE125_randls_18.json,http://54.235.29.9/FacialAge/BNav_EC2/DepthDuration/v2_depth_duration_MTurk/v2_DepthDuration_HTML.html#19,19,1920,937,1920,1080,8-21-2022,14-45-42,132,depth_duration_stimuli/000780_2014-06-08_22-28-29_260595134347_rgbf000126-resize_1/000780_2014-06-08_22-28-29_260595134347_rgbf000126-resize_1-target.png,125,3.3825,2,2074,125,meters,jsons/VE125_randls_18.json,440537,1606979,48,Man
132,796821,DepthScenes,duration_manipulation_targetAtFixation,jsons/VE125_randls_18.json,http://54.235.29.9/FacialAge/BNav_EC2/DepthDuration/v2_depth_duration_MTurk/v2_DepthDuration_HTML.html#19,19,1920,937,1920,1080,8-21-2022,14-45-42,133,depth_duration_stimuli/000917_2014-06-09_22-45-29_260595134347_rgbf000149-resize_3/000917_2014-06-09_22-45-29_260595134347_rgbf000149-resize_3-target.png,125,4.1865,4,1876,125,meters,jsons/VE125_randls_18.json,440537,1606979,48,Man
133,796821,DepthScenes,duration_manipulation_targetAtFixation,jsons/VE125_randls_18.json,http://54.235.29.9/FacialAge/BNav_EC2/DepthDuration/v2_depth_duration_MTurk/v2_DepthDuration_HTML.html#19,19,1920,937,1920,1080,8-21-2022,14-45-42,134,depth_duration_stimuli/002323_2014-06-28_20-01-54_260595134347_rgbf000051-resize_4/002323_2014-06-28_20-01-54_260595134347_rgbf000051-resize_4-target.png,125,3.7310000000000003,4,1634,124,meters,jsons/VE125_randls_18.json,440537,1606979,48,Man
134,796821,DepthScenes,duration_manipulation_targetAtFixation,jsons/VE125_randls_18.json,http://54.235.29.9/FacialAge/BNav_EC2/DepthDuration/v2_depth_duration_MTurk/v2_DepthDuration_HTML.html#19,19,1920,937,1920,1080,8-21-2022,14-45-42,135,depth_duration_stimuli/002072_2014-06-24_21-48-06_260595134347_rgbf000115-resize_0/002072_2014-06-24_21-48-06_260595134347_rgbf000115-resize-original.jpg,125,4.702,4,1635,124,meters,jsons/VE125_randls_18.json,440537,1606979,48,Man
135,796821,DepthScenes,duration_manipulation_targetAtFixation,jsons/VE125_randls_18.json,http://54.235.29.9/FacialAge/BNav_EC2/DepthDuration/v2_depth_duration_MTurk/v2_DepthDuration_HTML.html#19,19,1920,937,1920,1080,8-21-2022,14-45-42,136,depth_duration_stimuli/002043_2014-06-24_20-29-38_260595134347_rgbf000039-resize_4/002043_2014-06-24_20-29-38_260595134347_rgbf000039-resize_4-target.png,125,2.8435,2,2060,125,meters,jsons/VE125_randls_18.json,440537,1606979,48,Man
136,796821,DepthScenes,duration_manipulation_targetAtFixation,jsons/VE125_randls_18.json,http://54.235.29.9/FacialAge/BNav_EC2/DepthDuration/v2_depth_duration_MTurk/v2_DepthDuration_HTML.html#19,19,1920,937,1920,1080,8-21-2022,14-45-42,137,depth_duration_stimuli/003048_2014-06-15_13-49-43_094959634447_rgbf000150-resize_1/003048_2014-06-15_13-49-43_094959634447_rgbf000150-resize_1-target.png,125,4.0035,3,1664,125,meters,jsons/VE125_randls_18.json,440537,1606979,48,Man
137,796821,DepthScenes,duration_manipulation_targetAtFixation,jsons/VE125_randls_18.json,http://54.235.29.9/FacialAge/BNav_EC2/DepthDuration/v2_depth_duration_MTurk/v2_DepthDuration_HTML.html#19,19,1920,937,1920,1080,8-21-2022,14-45-42,138,depth_duration_stimuli/000682_2014-06-08_23-14-58_260595134347_rgbf000041-resize_5/000682_2014-06-08_23-14-58_260595134347_rgbf000041-resize_5-target.png,125,2.7239999999999998,3,1924,126,meters,jsons/VE125_randls_18.json,440537,1606979,48,Man
138,796821,DepthScenes,duration_manipulation_targetAtFixation,jsons/VE125_randls_18.json,http://54.235.29.9/FacialAge/BNav_EC2/DepthDuration/v2_depth_duration_MTurk/v2_DepthDuration_HTML.html#19,19,1920,937,1920,1080,8-21-2022,14-45-42,139,depth_duration_stimuli/001650_2014-06-20_12-09-00_260595134347_rgbf000087-resize_3/001650_2014-06-20_12-09-00_260595134347_rgbf000087-resize_3-target.png,125,1.9505,2,1660,124,meters,jsons/VE125_randls_18.json,440537,1606979,48,Man
139,796821,DepthScenes,duration_manipulation_targetAtFixation,jsons/VE125_randls_18.json,http://54.235.29.9/FacialAge/BNav_EC2/DepthDuration/v2_depth_duration_MTurk/v2_DepthDuration_HTML.html#19,19,1920,937,1920,1080,8-21-2022,14-45-42,140,depth_duration_stimuli/000736_2014-06-08_18-24-15_260595134347_rgbf000206-resize_3/000736_2014-06-08_18-24-15_260595134347_rgbf000206-resize_3-target.png,125,3.515,3,1816,124,meters,jsons/VE125_randls_18.json,440537,1606979,48,Man
140,796821,DepthScenes,duration_manipulation_targetAtFixation,jsons/VE125_randls_18.json,http://54.235.29.9/FacialAge/BNav_EC2/DepthDuration/v2_depth_duration_MTurk/v2_DepthDuration_HTML.html#19,19,1920,937,1920,1080,8-21-2022,14-45-42,141,depth_duration_stimuli/000137_2014-05-20_17-04-49_260595134347_rgbf000120-resize_1/000137_2014-05-20_17-04-49_260595134347_rgbf000120-resize_1-target.png,125,3.786,4,1971,116,meters,jsons/VE125_randls_18.json,440537,1606979,48,Man
141,796821,DepthScenes,duration_manipulation_targetAtFixation,jsons/VE125_randls_18.json,http://54.235.29.9/FacialAge/BNav_EC2/DepthDuration/v2_depth_duration_MTurk/v2_DepthDuration_HTML.html#19,19,1920,937,1920,1080,8-21-2022,14-45-42,142,depth_duration_stimuli/000810_2014-06-08_17-20-01_260595134347_rgbf000105-resize_0/000810_2014-06-08_17-20-01_260595134347_rgbf000105-resize_0-target.png,125,1.4865,3,1655,116,meters,jsons/VE125_randls_18.json,440537,1606979,48,Man
142,796821,DepthScenes,duration_manipulation_targetAtFixation,jsons/VE125_randls_18.json,http://54.235.29.9/FacialAge/BNav_EC2/DepthDuration/v2_depth_duration_MTurk/v2_DepthDuration_HTML.html#19,19,1920,937,1920,1080,8-21-2022,14-45-42,143,depth_duration_stimuli/001214_2014-06-17_16-13-55_260595134347_rgbf000111-resize_0/001214_2014-06-17_16-13-55_260595134347_rgbf000111-resize_0-target.png,125,2.6505,2,1809,123,meters,jsons/VE125_randls_18.json,440537,1606979,48,Man
143,796821,DepthScenes,duration_manipulation_targetAtFixation,jsons/VE125_randls_18.json,http://54.235.29.9/FacialAge/BNav_EC2/DepthDuration/v2_depth_duration_MTurk/v2_DepthDuration_HTML.html#19,19,1920,937,1920,1080,8-21-2022,14-45-42,144,depth_duration_stimuli/002964_2014-06-08_17-46-11_094959634447_rgbf000091-resize_4/002964_2014-06-08_17-46-11_094959634447_rgbf000091-resize_4-target.png,125,1.6909999999999998,1,1803,133,meters,jsons/VE125_randls_18.json,440537,1606979,48,Man
144,796821,DepthScenes,duration_manipulation_targetAtFixation,jsons/VE125_randls_18.json,http://54.235.29.9/FacialAge/BNav_EC2/DepthDuration/v2_depth_duration_MTurk/v2_DepthDuration_HTML.html#19,19,1920,937,1920,1080,8-21-2022,14-45-42,145,depth_duration_stimuli/002136_2014-06-25_21-18-03_260595134347_rgbf000109-resize_3/002136_2014-06-25_21-18-03_260595134347_rgbf000109-resize_3-target.png,125,1.9569999999999999,1,2087,125,meters,jsons/VE125_randls_18.json,440537,1606979,48,Man
145,796821,DepthScenes,duration_manipulation_targetAtFixation,jsons/VE125_randls_18.json,http://54.235.29.9/FacialAge/BNav_EC2/DepthDuration/v2_depth_duration_MTurk/v2_DepthDuration_HTML.html#19,19,1920,937,1920,1080,8-21-2022,14-45-42,146,depth_duration_stimuli/001498_2014-06-19_17-45-14_260595134347_rgbf000129-resize_4/001498_2014-06-19_17-45-14_260595134347_rgbf000129-resize-original.jpg,125,1.4075,0,2178,125,meters,jsons/VE125_randls_18.json,440537,1606979,48,Man
146,796821,DepthScenes,duration_manipulation_targetAtFixation,jsons/VE125_randls_18.json,http://54.235.29.9/FacialAge/BNav_EC2/DepthDuration/v2_depth_duration_MTurk/v2_DepthDuration_HTML.html#19,19,1920,937,1920,1080,8-21-2022,14-45-42,147,depth_duration_stimuli/001244_2014-06-17_16-47-45_260595134347_rgbf000030-resize_4/001244_2014-06-17_16-47-45_260595134347_rgbf000030-resize_4-target.png,125,2.0425,2,1659,124,meters,jsons/VE125_randls_18.json,440537,1606979,48,Man
147,796821,DepthScenes,duration_manipulation_targetAtFixation,jsons/VE125_randls_18.json,http://54.235.29.9/FacialAge/BNav_EC2/DepthDuration/v2_depth_duration_MTurk/v2_DepthDuration_HTML.html#19,19,1920,937,1920,1080,8-21-2022,14-45-42,148,depth_duration_stimuli/003495_2014-05-21_16-01-51_094959634447_rgbf000100-resize_3/003495_2014-05-21_16-01-51_094959634447_rgbf000100-resize_3-target.png,125,1.6255,3,1745,125,meters,jsons/VE125_randls_18.json,440537,1606979,48,Man
148,796821,DepthScenes,duration_manipulation_targetAtFixation,jsons/VE125_randls_18.json,http://54.235.29.9/FacialAge/BNav_EC2/DepthDuration/v2_depth_duration_MTurk/v2_DepthDuration_HTML.html#19,19,1920,937,1920,1080,8-21-2022,14-45-42,149,depth_duration_stimuli/001167_2014-06-17_15-38-07_260595134347_rgbf000108-resize_0/001167_2014-06-17_15-38-07_260595134347_rgbf000108-resize_0-target.png,125,1.8505,2,2174,126,meters,jsons/VE125_randls_18.json,440537,1606979,48,Man
149,796821,DepthScenes,duration_manipulation_targetAtFixation,jsons/VE125_randls_18.json,http://54.235.29.9/FacialAge/BNav_EC2/DepthDuration/v2_depth_duration_MTurk/v2_DepthDuration_HTML.html#19,19,1920,937,1920,1080,8-21-2022,14-45-42,150,depth_duration_stimuli/003587_2014-05-23_16-48-02_094959634447_rgbf002384-resize_2/003587_2014-05-23_16-48-02_094959634447_rgbf002384-resize_2-target.png,125,1.357,1,2347,123,meters,jsons/VE125_randls_18.json,440537,1606979,48,Man
150,796821,DepthScenes,duration_manipulation_targetAtFixation,jsons/VE125_randls_18.json,http://54.235.29.9/FacialAge/BNav_EC2/DepthDuration/v2_depth_duration_MTurk/v2_DepthDuration_HTML.html#19,19,1920,937,1920,1080,8-21-2022,14-45-42,151,depth_duration_stimuli/001164_2014-06-17_15-35-46_260595134347_rgbf000085-resize_3/001164_2014-06-17_15-35-46_260595134347_rgbf000085-resize_3-target.png,125,2.354,2,1941,124,meters,jsons/VE125_randls_18.json,440537,1606979,48,Man
151,796821,DepthScenes,duration_manipulation_targetAtFixation,jsons/VE125_randls_18.json,http://54.235.29.9/FacialAge/BNav_EC2/DepthDuration/v2_depth_duration_MTurk/v2_DepthDuration_HTML.html#19,19,1920,937,1920,1080,8-21-2022,14-45-42,152,depth_duration_stimuli/001136_2014-06-17_15-19-41_260595134347_rgbf000076-resize_3/001136_2014-06-17_15-19-41_260595134347_rgbf000076-resize_3-target.png,125,1.8655,4,1614,122,meters,jsons/VE125_randls_18.json,440537,1606979,48,Man
152,796821,DepthScenes,duration_manipulation_targetAtFixation,jsons/VE125_randls_18.json,http://54.235.29.9/FacialAge/BNav_EC2/DepthDuration/v2_depth_duration_MTurk/v2_DepthDuration_HTML.html#19,19,1920,937,1920,1080,8-21-2022,14-45-42,153,depth_duration_stimuli/002039_2014-06-24_20-22-38_260595134347_rgbf000084-resize_1/002039_2014-06-24_20-22-38_260595134347_rgbf000084-resize_1-target.png,125,4.408,3,1849,115,meters,jsons/VE125_randls_18.json,440537,1606979,48,Man
153,796821,DepthScenes,duration_manipulation_targetAtFixation,jsons/VE125_randls_18.json,http://54.235.29.9/FacialAge/BNav_EC2/DepthDuration/v2_depth_duration_MTurk/v2_DepthDuration_HTML.html#19,19,1920,937,1920,1080,8-21-2022,14-45-42,154,depth_duration_stimuli/002103_2014-06-25_20-00-40_260595134347_rgbf000049-resize_0/002103_2014-06-25_20-00-40_260595134347_rgbf000049-resize_0-target.png,125,4.105,2,1755,124,meters,jsons/VE125_randls_18.json,440537,1606979,48,Man
154,796821,DepthScenes,duration_manipulation_targetAtFixation,jsons/VE125_randls_18.json,http://54.235.29.9/FacialAge/BNav_EC2/DepthDuration/v2_depth_duration_MTurk/v2_DepthDuration_HTML.html#19,19,1920,937,1920,1080,8-21-2022,14-45-42,155,depth_duration_stimuli/001011_2014-06-08_23-18-54_260595134347_rgbf000044-resize_4/001011_2014-06-08_23-18-54_260595134347_rgbf000044-resize_4-target.png,125,2.4730000000000003,3,1762,124,meters,jsons/VE125_randls_18.json,440537,1606979,48,Man
155,796821,DepthScenes,duration_manipulation_targetAtFixation,jsons/VE125_randls_18.json,http://54.235.29.9/FacialAge/BNav_EC2/DepthDuration/v2_depth_duration_MTurk/v2_DepthDuration_HTML.html#19,19,1920,937,1920,1080,8-21-2022,14-45-42,156,depth_duration_stimuli/002875_2014-06-01_15-19-00_094959634447_rgbf000151-resize_1/002875_2014-06-01_15-19-00_094959634447_rgbf000151-resize_1-target.png,125,1.9675,1,2170,125,meters,jsons/VE125_randls_18.json,440537,1606979,48,Man
156,796821,DepthScenes,duration_manipulation_targetAtFixation,jsons/VE125_randls_18.json,http://54.235.29.9/FacialAge/BNav_EC2/DepthDuration/v2_depth_duration_MTurk/v2_DepthDuration_HTML.html#19,19,1920,937,1920,1080,8-21-2022,14-45-42,157,depth_duration_stimuli/001150_2014-06-17_15-27-34_260595134347_rgbf000108-resize_2/001150_2014-06-17_15-27-34_260595134347_rgbf000108-resize_2-target.png,125,4.0325,1,1867,126,meters,jsons/VE125_randls_18.json,440537,1606979,48,Man
157,796821,DepthScenes,duration_manipulation_targetAtFixation,jsons/VE125_randls_18.json,http://54.235.29.9/FacialAge/BNav_EC2/DepthDuration/v2_depth_duration_MTurk/v2_DepthDuration_HTML.html#19,19,1920,937,1920,1080,8-21-2022,14-45-42,158,depth_duration_stimuli/000665_2014-06-09_20-42-35_260595134347_rgbf000110-resize_1/000665_2014-06-09_20-42-35_260595134347_rgbf000110-resize_1-target.png,125,3.057,2,1547,125,meters,jsons/VE125_randls_18.json,440537,1606979,48,Man
158,796821,DepthScenes,duration_manipulation_targetAtFixation,jsons/VE125_randls_18.json,http://54.235.29.9/FacialAge/BNav_EC2/DepthDuration/v2_depth_duration_MTurk/v2_DepthDuration_HTML.html#19,19,1920,937,1920,1080,8-21-2022,14-45-42,159,depth_duration_stimuli/002763_2014-06-22_19-13-10_094959634447_rgbf000075-resize_4/002763_2014-06-22_19-13-10_094959634447_rgbf000075-resize_4-target.png,125,1.68375,3,2130,125,meters,jsons/VE125_randls_18.json,440537,1606979,48,Man
159,796821,DepthScenes,duration_manipulation_targetAtFixation,jsons/VE125_randls_18.json,http://54.235.29.9/FacialAge/BNav_EC2/DepthDuration/v2_depth_duration_MTurk/v2_DepthDuration_HTML.html#19,19,1920,937,1920,1080,8-21-2022,14-45-42,160,depth_duration_stimuli/002209_2014-06-28_18-36-10_260595134347_rgbf000051-resize_1/002209_2014-06-28_18-36-10_260595134347_rgbf000051-resize_1-target.png,125,2.057,2,2615,119,meters,jsons/VE125_randls_18.json,440537,1606979,48,Man
160,796821,DepthScenes,duration_manipulation_targetAtFixation,jsons/VE125_randls_18.json,http://54.235.29.9/FacialAge/BNav_EC2/DepthDuration/v2_depth_duration_MTurk/v2_DepthDuration_HTML.html#19,19,1920,937,1920,1080,8-21-2022,14-45-42,161,depth_duration_stimuli/003292_2014-05-14_21-53-49_094959634447_rgbf000100-resize_2/003292_2014-05-14_21-53-49_094959634447_rgbf000100-resize_2-target.png,125,3.4815,2,1697,126,meters,jsons/VE125_randls_18.json,440537,1606979,48,Man
161,796821,DepthScenes,duration_manipulation_targetAtFixation,jsons/VE125_randls_18.json,http://54.235.29.9/FacialAge/BNav_EC2/DepthDuration/v2_depth_duration_MTurk/v2_DepthDuration_HTML.html#19,19,1920,937,1920,1080,8-21-2022,14-45-42,162,depth_duration_stimuli/002639_2014-06-24_14-51-37_094959634447_rgbf000074-resize_4/002639_2014-06-24_14-51-37_094959634447_rgbf000074-resize_4-target.png,125,4.0375,3,1837,123,meters,jsons/VE125_randls_18.json,440537,1606979,48,Man
162,796821,DepthScenes,duration_manipulation_targetAtFixation,jsons/VE125_randls_18.json,http://54.235.29.9/FacialAge/BNav_EC2/DepthDuration/v2_depth_duration_MTurk/v2_DepthDuration_HTML.html#19,19,1920,937,1920,1080,8-21-2022,14-45-42,163,depth_duration_stimuli/000470_2014-06-09_19-42-40_260595134347_rgbf000094-resize_1/000470_2014-06-09_19-42-40_260595134347_rgbf000094-resize_1-target.png,125,1.831,2,1545,115,meters,jsons/VE125_randls_18.json,440537,1606979,48,Man
163,796821,DepthScenes,duration_manipulation_targetAtFixation,jsons/VE125_randls_18.json,http://54.235.29.9/FacialAge/BNav_EC2/DepthDuration/v2_depth_duration_MTurk/v2_DepthDuration_HTML.html#19,19,1920,937,1920,1080,8-21-2022,14-45-42,164,depth_duration_stimuli/000109_2014-05-14_23-41-52_260595134347_rgbf000035-resize_9/000109_2014-05-14_23-41-52_260595134347_rgbf000035-resize_9-target.png,125,1.3545,1,1643,125,meters,jsons/VE125_randls_18.json,440537,1606979,48,Man
