,subjID,experimentName,versionName,sequenceName,url,selected_row,windowWidth,windowHeight,screenWidth,screenHeight,startDate,startTime,trial,stimulus,duration,actual_depth,depth_estimate,trial_RT,log_sceneDuration,unitSelection,seq_filepath,experimentTime,totalTime,age,gender
0,799376,DepthScenes,duration_manipulation_targetAtFixation,jsons/v1_VE250_randls_77_rotated.json,http://54.235.29.9/FacialAge/BNav_EC2/DepthDuration/v2_depth_duration_MTurk/v2_DepthDuration_HTML.html#62,62,1536,722,1536,864,9-3-2022,9-31-21,1,depth_duration_stimuli/000556_2014-06-09_22-42-56_260595134347_rgbf000214-resize_1/000556_2014-06-09_22-42-56_260595134347_rgbf000214-resize_1-target.png,250,4.8415,0.3,4495,233,meters,jsons/v1_VE250_randls_77_rotated.json,782624,901703,55,Woman
1,799376,DepthScenes,duration_manipulation_targetAtFixation,jsons/v1_VE250_randls_77_rotated.json,http://54.235.29.9/FacialAge/BNav_EC2/DepthDuration/v2_depth_duration_MTurk/v2_DepthDuration_HTML.html#62,62,1536,722,1536,864,9-3-2022,9-31-21,2,depth_duration_stimuli/001158_2014-06-17_15-32-16_260595134347_rgbf000138-resize_2/001158_2014-06-17_15-32-16_260595134347_rgbf000138-resize_2-target.png,250,4.5315,0.6,3863,247,meters,jsons/v1_VE250_randls_77_rotated.json,782624,901703,55,Woman
2,799376,DepthScenes,duration_manipulation_targetAtFixation,jsons/v1_VE250_randls_77_rotated.json,http://54.235.29.9/FacialAge/BNav_EC2/DepthDuration/v2_depth_duration_MTurk/v2_DepthDuration_HTML.html#62,62,1536,722,1536,864,9-3-2022,9-31-21,3,depth_duration_stimuli/000549_2014-06-08_22-10-24_260595134347_rgbf000247-resize_3/000549_2014-06-08_22-10-24_260595134347_rgbf000247-resize_3-target.png,250,1.841,0.6,4451,250,meters,jsons/v1_VE250_randls_77_rotated.json,782624,901703,55,Woman
3,799376,DepthScenes,duration_manipulation_targetAtFixation,jsons/v1_VE250_randls_77_rotated.json,http://54.235.29.9/FacialAge/BNav_EC2/DepthDuration/v2_depth_duration_MTurk/v2_DepthDuration_HTML.html#62,62,1536,722,1536,864,9-3-2022,9-31-21,4,depth_duration_stimuli/001055_2014-06-08_18-45-35_260595134347_rgbf000111-resize_4/001055_2014-06-08_18-45-35_260595134347_rgbf000111-resize_4-target.png,250,2.4290000000000003,0.3,7168,250,meters,jsons/v1_VE250_randls_77_rotated.json,782624,901703,55,Woman
4,799376,DepthScenes,duration_manipulation_targetAtFixation,jsons/v1_VE250_randls_77_rotated.json,http://54.235.29.9/FacialAge/BNav_EC2/DepthDuration/v2_depth_duration_MTurk/v2_DepthDuration_HTML.html#62,62,1536,722,1536,864,9-3-2022,9-31-21,5,depth_duration_stimuli/000854_2014-06-09_19-43-13_260595134347_rgbf000066-resize_0/000854_2014-06-09_19-43-13_260595134347_rgbf000066-resize_0-target.png,250,3.068,0.6,3759,240,meters,jsons/v1_VE250_randls_77_rotated.json,782624,901703,55,Woman
5,799376,DepthScenes,duration_manipulation_targetAtFixation,jsons/v1_VE250_randls_77_rotated.json,http://54.235.29.9/FacialAge/BNav_EC2/DepthDuration/v2_depth_duration_MTurk/v2_DepthDuration_HTML.html#62,62,1536,722,1536,864,9-3-2022,9-31-21,6,depth_duration_stimuli/000758_2014-06-08_22-05-08_260595134347_rgbf000085-resize_0/000758_2014-06-08_22-05-08_260595134347_rgbf000085-resize_0-target.png,250,3.3810000000000002,0.6,3736,249,meters,jsons/v1_VE250_randls_77_rotated.json,782624,901703,55,Woman
6,799376,DepthScenes,duration_manipulation_targetAtFixation,jsons/v1_VE250_randls_77_rotated.json,http://54.235.29.9/FacialAge/BNav_EC2/DepthDuration/v2_depth_duration_MTurk/v2_DepthDuration_HTML.html#62,62,1536,722,1536,864,9-3-2022,9-31-21,7,depth_duration_stimuli/002637_2014-06-24_14-51-13_094959634447_rgbf000066-resize_4/002637_2014-06-24_14-51-13_094959634447_rgbf000066-resize_4-target.png,250,1.9955,0.5,3985,243,meters,jsons/v1_VE250_randls_77_rotated.json,782624,901703,55,Woman
7,799376,DepthScenes,duration_manipulation_targetAtFixation,jsons/v1_VE250_randls_77_rotated.json,http://54.235.29.9/FacialAge/BNav_EC2/DepthDuration/v2_depth_duration_MTurk/v2_DepthDuration_HTML.html#62,62,1536,722,1536,864,9-3-2022,9-31-21,8,depth_duration_stimuli/003534_2014-05-22_15-06-10_094959634447_rgbf000102-resize_4/003534_2014-05-22_15-06-10_094959634447_rgbf000102-resize_4-target.png,250,1.426,0.2,4542,237,meters,jsons/v1_VE250_randls_77_rotated.json,782624,901703,55,Woman
8,799376,DepthScenes,duration_manipulation_targetAtFixation,jsons/v1_VE250_randls_77_rotated.json,http://54.235.29.9/FacialAge/BNav_EC2/DepthDuration/v2_depth_duration_MTurk/v2_DepthDuration_HTML.html#62,62,1536,722,1536,864,9-3-2022,9-31-21,9,depth_duration_stimuli/002660_2014-06-13_15-44-18_094959634447_rgbf001878-resize_2/002660_2014-06-13_15-44-18_094959634447_rgbf001878-resize_2-target.png,250,3.576,0.2,3850,251,meters,jsons/v1_VE250_randls_77_rotated.json,782624,901703,55,Woman
9,799376,DepthScenes,duration_manipulation_targetAtFixation,jsons/v1_VE250_randls_77_rotated.json,http://54.235.29.9/FacialAge/BNav_EC2/DepthDuration/v2_depth_duration_MTurk/v2_DepthDuration_HTML.html#62,62,1536,722,1536,864,9-3-2022,9-31-21,10,depth_duration_stimuli/002153_2014-06-25_21-27-18_260595134347_rgbf000038-resize_5/002153_2014-06-25_21-27-18_260595134347_rgbf000038-resize_5-target.png,250,2.505,0.3,3528,236,meters,jsons/v1_VE250_randls_77_rotated.json,782624,901703,55,Woman
10,799376,DepthScenes,duration_manipulation_targetAtFixation,jsons/v1_VE250_randls_77_rotated.json,http://54.235.29.9/FacialAge/BNav_EC2/DepthDuration/v2_depth_duration_MTurk/v2_DepthDuration_HTML.html#62,62,1536,722,1536,864,9-3-2022,9-31-21,11,depth_duration_stimuli/000665_2014-06-09_20-42-35_260595134347_rgbf000110-resize_1/000665_2014-06-09_20-42-35_260595134347_rgbf000110-resize_1-target.png,250,3.057,0.6,3640,253,meters,jsons/v1_VE250_randls_77_rotated.json,782624,901703,55,Woman
11,799376,DepthScenes,duration_manipulation_targetAtFixation,jsons/v1_VE250_randls_77_rotated.json,http://54.235.29.9/FacialAge/BNav_EC2/DepthDuration/v2_depth_duration_MTurk/v2_DepthDuration_HTML.html#62,62,1536,722,1536,864,9-3-2022,9-31-21,12,depth_duration_stimuli/001150_2014-06-17_15-27-34_260595134347_rgbf000108-resize_2/001150_2014-06-17_15-27-34_260595134347_rgbf000108-resize_2-target.png,250,4.0325,0.5,3340,239,meters,jsons/v1_VE250_randls_77_rotated.json,782624,901703,55,Woman
12,799376,DepthScenes,duration_manipulation_targetAtFixation,jsons/v1_VE250_randls_77_rotated.json,http://54.235.29.9/FacialAge/BNav_EC2/DepthDuration/v2_depth_duration_MTurk/v2_DepthDuration_HTML.html#62,62,1536,722,1536,864,9-3-2022,9-31-21,13,depth_duration_stimuli/000409_2014-06-04_19-23-33_260595134347_rgbf000067-resize_0/000409_2014-06-04_19-23-33_260595134347_rgbf000067-resize_0-target.png,250,3.7335,0.9,6484,250,meters,jsons/v1_VE250_randls_77_rotated.json,782624,901703,55,Woman
13,799376,DepthScenes,duration_manipulation_targetAtFixation,jsons/v1_VE250_randls_77_rotated.json,http://54.235.29.9/FacialAge/BNav_EC2/DepthDuration/v2_depth_duration_MTurk/v2_DepthDuration_HTML.html#62,62,1536,722,1536,864,9-3-2022,9-31-21,14,depth_duration_stimuli/002663_2014-06-13_15-50-26_094959634447_rgbf000075-resize_1/002663_2014-06-13_15-50-26_094959634447_rgbf000075-resize_1-target.png,250,4.7495,0.2,3600,249,meters,jsons/v1_VE250_randls_77_rotated.json,782624,901703,55,Woman
14,799376,DepthScenes,duration_manipulation_targetAtFixation,jsons/v1_VE250_randls_77_rotated.json,http://54.235.29.9/FacialAge/BNav_EC2/DepthDuration/v2_depth_duration_MTurk/v2_DepthDuration_HTML.html#62,62,1536,722,1536,864,9-3-2022,9-31-21,15,depth_duration_stimuli/003338_2014-05-20_11-01-23_094959634447_rgbf000051-resize_6/003338_2014-05-20_11-01-23_094959634447_rgbf000051-resize_6-target.png,250,1.693,0.6,3681,251,meters,jsons/v1_VE250_randls_77_rotated.json,782624,901703,55,Woman
15,799376,DepthScenes,duration_manipulation_targetAtFixation,jsons/v1_VE250_randls_77_rotated.json,http://54.235.29.9/FacialAge/BNav_EC2/DepthDuration/v2_depth_duration_MTurk/v2_DepthDuration_HTML.html#62,62,1536,722,1536,864,9-3-2022,9-31-21,16,depth_duration_stimuli/002509_2014-06-24_13-19-22_094959634447_rgbf000077-resize_0/002509_2014-06-24_13-19-22_094959634447_rgbf000077-resize_0-target.png,250,1.3065,0.4,3518,250,meters,jsons/v1_VE250_randls_77_rotated.json,782624,901703,55,Woman
16,799376,DepthScenes,duration_manipulation_targetAtFixation,jsons/v1_VE250_randls_77_rotated.json,http://54.235.29.9/FacialAge/BNav_EC2/DepthDuration/v2_depth_duration_MTurk/v2_DepthDuration_HTML.html#62,62,1536,722,1536,864,9-3-2022,9-31-21,17,depth_duration_stimuli/003228_2014-05-14_13-42-35_094959634447_rgbf000101-resize_1/003228_2014-05-14_13-42-35_094959634447_rgbf000101-resize_1-target.png,250,1.9680000000000002,0.6,4136,242,meters,jsons/v1_VE250_randls_77_rotated.json,782624,901703,55,Woman
17,799376,DepthScenes,duration_manipulation_targetAtFixation,jsons/v1_VE250_randls_77_rotated.json,http://54.235.29.9/FacialAge/BNav_EC2/DepthDuration/v2_depth_duration_MTurk/v2_DepthDuration_HTML.html#62,62,1536,722,1536,864,9-3-2022,9-31-21,18,depth_duration_stimuli/002600_2014-06-24_14-27-04_094959634447_rgbf000074-resize_2/002600_2014-06-24_14-27-04_094959634447_rgbf000074-resize_2-target.png,250,2.7575,0.6,3833,247,meters,jsons/v1_VE250_randls_77_rotated.json,782624,901703,55,Woman
18,799376,DepthScenes,duration_manipulation_targetAtFixation,jsons/v1_VE250_randls_77_rotated.json,http://54.235.29.9/FacialAge/BNav_EC2/DepthDuration/v2_depth_duration_MTurk/v2_DepthDuration_HTML.html#62,62,1536,722,1536,864,9-3-2022,9-31-21,19,depth_duration_stimuli/001498_2014-06-19_17-45-14_260595134347_rgbf000129-resize_4/001498_2014-06-19_17-45-14_260595134347_rgbf000129-resize-original.jpg,250,1.4075,0.0,3998,250,meters,jsons/v1_VE250_randls_77_rotated.json,782624,901703,55,Woman
19,799376,DepthScenes,duration_manipulation_targetAtFixation,jsons/v1_VE250_randls_77_rotated.json,http://54.235.29.9/FacialAge/BNav_EC2/DepthDuration/v2_depth_duration_MTurk/v2_DepthDuration_HTML.html#62,62,1536,722,1536,864,9-3-2022,9-31-21,20,depth_duration_stimuli/001100_2014-06-15_17-46-26_260595134347_rgbf000225-resize_2/001100_2014-06-15_17-46-26_260595134347_rgbf000225-resize_2-target.png,250,2.24,0.2,4121,248,meters,jsons/v1_VE250_randls_77_rotated.json,782624,901703,55,Woman
20,799376,DepthScenes,duration_manipulation_targetAtFixation,jsons/v1_VE250_randls_77_rotated.json,http://54.235.29.9/FacialAge/BNav_EC2/DepthDuration/v2_depth_duration_MTurk/v2_DepthDuration_HTML.html#62,62,1536,722,1536,864,9-3-2022,9-31-21,21,depth_duration_stimuli/002784_2014-06-22_19-26-30_094959634447_rgbf000083-resize_3/002784_2014-06-22_19-26-30_094959634447_rgbf000083-resize_3-target.png,250,1.8046666666667,0.4,4312,243,meters,jsons/v1_VE250_randls_77_rotated.json,782624,901703,55,Woman
21,799376,DepthScenes,duration_manipulation_targetAtFixation,jsons/v1_VE250_randls_77_rotated.json,http://54.235.29.9/FacialAge/BNav_EC2/DepthDuration/v2_depth_duration_MTurk/v2_DepthDuration_HTML.html#62,62,1536,722,1536,864,9-3-2022,9-31-21,22,depth_duration_stimuli/002199_2014-06-28_18-33-56_260595134347_rgbf000074-resize_0/002199_2014-06-28_18-33-56_260595134347_rgbf000074-resize_0-target.png,250,1.996,0.3,3752,355,meters,jsons/v1_VE250_randls_77_rotated.json,782624,901703,55,Woman
22,799376,DepthScenes,duration_manipulation_targetAtFixation,jsons/v1_VE250_randls_77_rotated.json,http://54.235.29.9/FacialAge/BNav_EC2/DepthDuration/v2_depth_duration_MTurk/v2_DepthDuration_HTML.html#62,62,1536,722,1536,864,9-3-2022,9-31-21,23,depth_duration_stimuli/001056_2014-06-08_18-46-44_260595134347_rgbf000068-resize_0/001056_2014-06-08_18-46-44_260595134347_rgbf000068-resize_0-target.png,250,2.6625,0.5,4619,317,meters,jsons/v1_VE250_randls_77_rotated.json,782624,901703,55,Woman
23,799376,DepthScenes,duration_manipulation_targetAtFixation,jsons/v1_VE250_randls_77_rotated.json,http://54.235.29.9/FacialAge/BNav_EC2/DepthDuration/v2_depth_duration_MTurk/v2_DepthDuration_HTML.html#62,62,1536,722,1536,864,9-3-2022,9-31-21,24,depth_duration_stimuli/002136_2014-06-25_21-18-03_260595134347_rgbf000109-resize_3/002136_2014-06-25_21-18-03_260595134347_rgbf000109-resize_3-target.png,250,1.9569999999999999,0.3,4199,250,meters,jsons/v1_VE250_randls_77_rotated.json,782624,901703,55,Woman
24,799376,DepthScenes,duration_manipulation_targetAtFixation,jsons/v1_VE250_randls_77_rotated.json,http://54.235.29.9/FacialAge/BNav_EC2/DepthDuration/v2_depth_duration_MTurk/v2_DepthDuration_HTML.html#62,62,1536,722,1536,864,9-3-2022,9-31-21,25,depth_duration_stimuli/002964_2014-06-08_17-46-11_094959634447_rgbf000091-resize_4/002964_2014-06-08_17-46-11_094959634447_rgbf000091-resize_4-target.png,250,1.6909999999999998,0.2,3717,231,meters,jsons/v1_VE250_randls_77_rotated.json,782624,901703,55,Woman
25,799376,DepthScenes,duration_manipulation_targetAtFixation,jsons/v1_VE250_randls_77_rotated.json,http://54.235.29.9/FacialAge/BNav_EC2/DepthDuration/v2_depth_duration_MTurk/v2_DepthDuration_HTML.html#62,62,1536,722,1536,864,9-3-2022,9-31-21,26,depth_duration_stimuli/001571_2014-06-20_17-21-32_260595134347_rgbf000089-resize_1/001571_2014-06-20_17-21-32_260595134347_rgbf000089-resize_1-target.png,250,1.86,0.3,3986,248,meters,jsons/v1_VE250_randls_77_rotated.json,782624,901703,55,Woman
26,799376,DepthScenes,duration_manipulation_targetAtFixation,jsons/v1_VE250_randls_77_rotated.json,http://54.235.29.9/FacialAge/BNav_EC2/DepthDuration/v2_depth_duration_MTurk/v2_DepthDuration_HTML.html#62,62,1536,722,1536,864,9-3-2022,9-31-21,27,depth_duration_stimuli/002272_2014-06-28_18-53-56_260595134347_rgbf000067-resize_2/002272_2014-06-28_18-53-56_260595134347_rgbf000067-resize_2-target.png,250,1.138,0.5,4004,237,meters,jsons/v1_VE250_randls_77_rotated.json,782624,901703,55,Woman
27,799376,DepthScenes,duration_manipulation_targetAtFixation,jsons/v1_VE250_randls_77_rotated.json,http://54.235.29.9/FacialAge/BNav_EC2/DepthDuration/v2_depth_duration_MTurk/v2_DepthDuration_HTML.html#62,62,1536,722,1536,864,9-3-2022,9-31-21,28,depth_duration_stimuli/002323_2014-06-28_20-01-54_260595134347_rgbf000051-resize_4/002323_2014-06-28_20-01-54_260595134347_rgbf000051-resize_4-target.png,250,3.7310000000000003,0.3,3641,243,meters,jsons/v1_VE250_randls_77_rotated.json,782624,901703,55,Woman
28,799376,DepthScenes,duration_manipulation_targetAtFixation,jsons/v1_VE250_randls_77_rotated.json,http://54.235.29.9/FacialAge/BNav_EC2/DepthDuration/v2_depth_duration_MTurk/v2_DepthDuration_HTML.html#62,62,1536,722,1536,864,9-3-2022,9-31-21,29,depth_duration_stimuli/000917_2014-06-09_22-45-29_260595134347_rgbf000149-resize_3/000917_2014-06-09_22-45-29_260595134347_rgbf000149-resize_3-target.png,250,4.1865,0.5,3813,257,meters,jsons/v1_VE250_randls_77_rotated.json,782624,901703,55,Woman
29,799376,DepthScenes,duration_manipulation_targetAtFixation,jsons/v1_VE250_randls_77_rotated.json,http://54.235.29.9/FacialAge/BNav_EC2/DepthDuration/v2_depth_duration_MTurk/v2_DepthDuration_HTML.html#62,62,1536,722,1536,864,9-3-2022,9-31-21,30,depth_duration_stimuli/002072_2014-06-24_21-48-06_260595134347_rgbf000115-resize_0/002072_2014-06-24_21-48-06_260595134347_rgbf000115-resize-original.jpg,250,4.702,0.0,3776,261,meters,jsons/v1_VE250_randls_77_rotated.json,782624,901703,55,Woman
30,799376,DepthScenes,duration_manipulation_targetAtFixation,jsons/v1_VE250_randls_77_rotated.json,http://54.235.29.9/FacialAge/BNav_EC2/DepthDuration/v2_depth_duration_MTurk/v2_DepthDuration_HTML.html#62,62,1536,722,1536,864,9-3-2022,9-31-21,31,depth_duration_stimuli/002425_2014-06-28_20-27-29_260595134347_rgbf000031-resize_8/002425_2014-06-28_20-27-29_260595134347_rgbf000031-resize_8-target.png,250,3.8960000000000004,0.3,3451,250,meters,jsons/v1_VE250_randls_77_rotated.json,782624,901703,55,Woman
31,799376,DepthScenes,duration_manipulation_targetAtFixation,jsons/v1_VE250_randls_77_rotated.json,http://54.235.29.9/FacialAge/BNav_EC2/DepthDuration/v2_depth_duration_MTurk/v2_DepthDuration_HTML.html#62,62,1536,722,1536,864,9-3-2022,9-31-21,32,depth_duration_stimuli/000642_2014-06-08_16-59-25_260595134347_rgbf000098-resize_2/000642_2014-06-08_16-59-25_260595134347_rgbf000098-resize_2-target.png,250,2.8815,0.3,3430,265,meters,jsons/v1_VE250_randls_77_rotated.json,782624,901703,55,Woman
32,799376,DepthScenes,duration_manipulation_targetAtFixation,jsons/v1_VE250_randls_77_rotated.json,http://54.235.29.9/FacialAge/BNav_EC2/DepthDuration/v2_depth_duration_MTurk/v2_DepthDuration_HTML.html#62,62,1536,722,1536,864,9-3-2022,9-31-21,33,depth_duration_stimuli/000457_2014-06-08_16-52-43_260595134347_rgbf000199-resize_1/000457_2014-06-08_16-52-43_260595134347_rgbf000199-resize_1-target.png,250,3.6489999999999996,0.3,4065,246,meters,jsons/v1_VE250_randls_77_rotated.json,782624,901703,55,Woman
33,799376,DepthScenes,duration_manipulation_targetAtFixation,jsons/v1_VE250_randls_77_rotated.json,http://54.235.29.9/FacialAge/BNav_EC2/DepthDuration/v2_depth_duration_MTurk/v2_DepthDuration_HTML.html#62,62,1536,722,1536,864,9-3-2022,9-31-21,34,depth_duration_stimuli/000929_2014-06-09_16-33-19_260595134347_rgbf000139-resize_0/000929_2014-06-09_16-33-19_260595134347_rgbf000139-resize_0-target.png,250,2.8680000000000003,0.4,3790,256,meters,jsons/v1_VE250_randls_77_rotated.json,782624,901703,55,Woman
34,799376,DepthScenes,duration_manipulation_targetAtFixation,jsons/v1_VE250_randls_77_rotated.json,http://54.235.29.9/FacialAge/BNav_EC2/DepthDuration/v2_depth_duration_MTurk/v2_DepthDuration_HTML.html#62,62,1536,722,1536,864,9-3-2022,9-31-21,35,depth_duration_stimuli/003079_2014-06-15_15-18-20_094959634447_rgbf000152-resize_8/003079_2014-06-15_15-18-20_094959634447_rgbf000152-resize_8-target.png,250,2.8775,0.4,4100,419,meters,jsons/v1_VE250_randls_77_rotated.json,782624,901703,55,Woman
35,799376,DepthScenes,duration_manipulation_targetAtFixation,jsons/v1_VE250_randls_77_rotated.json,http://54.235.29.9/FacialAge/BNav_EC2/DepthDuration/v2_depth_duration_MTurk/v2_DepthDuration_HTML.html#62,62,1536,722,1536,864,9-3-2022,9-31-21,36,depth_duration_stimuli/000506_2014-06-08_23-21-00_260595134347_rgbf000070-resize_7/000506_2014-06-08_23-21-00_260595134347_rgbf000070-resize_7-target.png,250,4.0585,0.5,3994,236,meters,jsons/v1_VE250_randls_77_rotated.json,782624,901703,55,Woman
36,799376,DepthScenes,duration_manipulation_targetAtFixation,jsons/v1_VE250_randls_77_rotated.json,http://54.235.29.9/FacialAge/BNav_EC2/DepthDuration/v2_depth_duration_MTurk/v2_DepthDuration_HTML.html#62,62,1536,722,1536,864,9-3-2022,9-31-21,37,depth_duration_stimuli/002344_2014-06-28_20-06-29_260595134347_rgbf000030-resize_1/002344_2014-06-28_20-06-29_260595134347_rgbf000030-resize_1-target.png,250,1.5795,0.5,3989,256,meters,jsons/v1_VE250_randls_77_rotated.json,782624,901703,55,Woman
37,799376,DepthScenes,duration_manipulation_targetAtFixation,jsons/v1_VE250_randls_77_rotated.json,http://54.235.29.9/FacialAge/BNav_EC2/DepthDuration/v2_depth_duration_MTurk/v2_DepthDuration_HTML.html#62,62,1536,722,1536,864,9-3-2022,9-31-21,38,depth_duration_stimuli/002725_2014-06-22_11-47-51_094959634447_rgbf000070-resize_1/002725_2014-06-22_11-47-51_094959634447_rgbf000070-resize_1-target.png,250,2.195,0.6,3520,262,meters,jsons/v1_VE250_randls_77_rotated.json,782624,901703,55,Woman
38,799376,DepthScenes,duration_manipulation_targetAtFixation,jsons/v1_VE250_randls_77_rotated.json,http://54.235.29.9/FacialAge/BNav_EC2/DepthDuration/v2_depth_duration_MTurk/v2_DepthDuration_HTML.html#62,62,1536,722,1536,864,9-3-2022,9-31-21,39,depth_duration_stimuli/002678_2014-06-13_16-15-32_094959634447_rgbf000151-resize_6/002678_2014-06-13_16-15-32_094959634447_rgbf000151-resize_6-target.png,250,2.1830000000000003,0.3,3560,234,meters,jsons/v1_VE250_randls_77_rotated.json,782624,901703,55,Woman
39,799376,DepthScenes,duration_manipulation_targetAtFixation,jsons/v1_VE250_randls_77_rotated.json,http://54.235.29.9/FacialAge/BNav_EC2/DepthDuration/v2_depth_duration_MTurk/v2_DepthDuration_HTML.html#62,62,1536,722,1536,864,9-3-2022,9-31-21,40,depth_duration_stimuli/000368_2014-06-09_15-53-01_260595134347_rgbf000155-resize_2/000368_2014-06-09_15-53-01_260595134347_rgbf000155-resize_2-target.png,250,2.4859999999999998,0.3,3382,247,meters,jsons/v1_VE250_randls_77_rotated.json,782624,901703,55,Woman
40,799376,DepthScenes,duration_manipulation_targetAtFixation,jsons/v1_VE250_randls_77_rotated.json,http://54.235.29.9/FacialAge/BNav_EC2/DepthDuration/v2_depth_duration_MTurk/v2_DepthDuration_HTML.html#62,62,1536,722,1536,864,9-3-2022,9-31-21,41,depth_duration_stimuli/001650_2014-06-20_12-09-00_260595134347_rgbf000087-resize_3/001650_2014-06-20_12-09-00_260595134347_rgbf000087-resize_3-target.png,250,1.9505,0.5,3939,243,meters,jsons/v1_VE250_randls_77_rotated.json,782624,901703,55,Woman
41,799376,DepthScenes,duration_manipulation_targetAtFixation,jsons/v1_VE250_randls_77_rotated.json,http://54.235.29.9/FacialAge/BNav_EC2/DepthDuration/v2_depth_duration_MTurk/v2_DepthDuration_HTML.html#62,62,1536,722,1536,864,9-3-2022,9-31-21,42,depth_duration_stimuli/000682_2014-06-08_23-14-58_260595134347_rgbf000041-resize_5/000682_2014-06-08_23-14-58_260595134347_rgbf000041-resize_5-target.png,250,2.7239999999999998,0.3,3698,301,meters,jsons/v1_VE250_randls_77_rotated.json,782624,901703,55,Woman
42,799376,DepthScenes,duration_manipulation_targetAtFixation,jsons/v1_VE250_randls_77_rotated.json,http://54.235.29.9/FacialAge/BNav_EC2/DepthDuration/v2_depth_duration_MTurk/v2_DepthDuration_HTML.html#62,62,1536,722,1536,864,9-3-2022,9-31-21,43,depth_duration_stimuli/003048_2014-06-15_13-49-43_094959634447_rgbf000150-resize_1/003048_2014-06-15_13-49-43_094959634447_rgbf000150-resize_1-target.png,250,4.0035,0.3,4427,250,meters,jsons/v1_VE250_randls_77_rotated.json,782624,901703,55,Woman
43,799376,DepthScenes,duration_manipulation_targetAtFixation,jsons/v1_VE250_randls_77_rotated.json,http://54.235.29.9/FacialAge/BNav_EC2/DepthDuration/v2_depth_duration_MTurk/v2_DepthDuration_HTML.html#62,62,1536,722,1536,864,9-3-2022,9-31-21,44,depth_duration_stimuli/002043_2014-06-24_20-29-38_260595134347_rgbf000039-resize_4/002043_2014-06-24_20-29-38_260595134347_rgbf000039-resize_4-target.png,250,2.8435,0.5,4151,250,meters,jsons/v1_VE250_randls_77_rotated.json,782624,901703,55,Woman
44,799376,DepthScenes,duration_manipulation_targetAtFixation,jsons/v1_VE250_randls_77_rotated.json,http://54.235.29.9/FacialAge/BNav_EC2/DepthDuration/v2_depth_duration_MTurk/v2_DepthDuration_HTML.html#62,62,1536,722,1536,864,9-3-2022,9-31-21,45,depth_duration_stimuli/000103_2014-05-14_22-01-17_260595134347_rgbf000152-resize_5/000103_2014-05-14_22-01-17_260595134347_rgbf000152-resize_5-target.png,250,1.993,0.2,3632,243,meters,jsons/v1_VE250_randls_77_rotated.json,782624,901703,55,Woman
45,799376,DepthScenes,duration_manipulation_targetAtFixation,jsons/v1_VE250_randls_77_rotated.json,http://54.235.29.9/FacialAge/BNav_EC2/DepthDuration/v2_depth_duration_MTurk/v2_DepthDuration_HTML.html#62,62,1536,722,1536,864,9-3-2022,9-31-21,46,depth_duration_stimuli/001555_2014-06-20_17-12-10_260595134347_rgbf000065-resize_4/001555_2014-06-20_17-12-10_260595134347_rgbf000065-resize_4-target.png,250,1.633,0.6,3693,296,meters,jsons/v1_VE250_randls_77_rotated.json,782624,901703,55,Woman
46,799376,DepthScenes,duration_manipulation_targetAtFixation,jsons/v1_VE250_randls_77_rotated.json,http://54.235.29.9/FacialAge/BNav_EC2/DepthDuration/v2_depth_duration_MTurk/v2_DepthDuration_HTML.html#62,62,1536,722,1536,864,9-3-2022,9-31-21,47,depth_duration_stimuli/002805_2014-06-22_19-54-03_094959634447_rgbf000079-resize_1/002805_2014-06-22_19-54-03_094959634447_rgbf000079-resize_1-target.png,250,3.1439999999999997,0.5,3805,255,meters,jsons/v1_VE250_randls_77_rotated.json,782624,901703,55,Woman
47,799376,DepthScenes,duration_manipulation_targetAtFixation,jsons/v1_VE250_randls_77_rotated.json,http://54.235.29.9/FacialAge/BNav_EC2/DepthDuration/v2_depth_duration_MTurk/v2_DepthDuration_HTML.html#62,62,1536,722,1536,864,9-3-2022,9-31-21,48,depth_duration_stimuli/000906_2014-06-08_13-35-43_260595134347_rgbf000155-resize_1/000906_2014-06-08_13-35-43_260595134347_rgbf000155-resize_1-target.png,250,2.8489999999999998,0.6,3481,255,meters,jsons/v1_VE250_randls_77_rotated.json,782624,901703,55,Woman
48,799376,DepthScenes,duration_manipulation_targetAtFixation,jsons/v1_VE250_randls_77_rotated.json,http://54.235.29.9/FacialAge/BNav_EC2/DepthDuration/v2_depth_duration_MTurk/v2_DepthDuration_HTML.html#62,62,1536,722,1536,864,9-3-2022,9-31-21,49,depth_duration_stimuli/001170_2014-06-17_15-43-44_260595134347_rgbf000096-resize_6/001170_2014-06-17_15-43-44_260595134347_rgbf000096-resize-original.jpg,250,1.1909999999999998,0.0,4155,285,meters,jsons/v1_VE250_randls_77_rotated.json,782624,901703,55,Woman
49,799376,DepthScenes,duration_manipulation_targetAtFixation,jsons/v1_VE250_randls_77_rotated.json,http://54.235.29.9/FacialAge/BNav_EC2/DepthDuration/v2_depth_duration_MTurk/v2_DepthDuration_HTML.html#62,62,1536,722,1536,864,9-3-2022,9-31-21,50,depth_duration_stimuli/002758_2014-06-22_19-11-20_094959634447_rgbf000128-resize_1/002758_2014-06-22_19-11-20_094959634447_rgbf000128-resize_1-target.png,250,2.555,0.3,3777,234,meters,jsons/v1_VE250_randls_77_rotated.json,782624,901703,55,Woman
50,799376,DepthScenes,duration_manipulation_targetAtFixation,jsons/v1_VE250_randls_77_rotated.json,http://54.235.29.9/FacialAge/BNav_EC2/DepthDuration/v2_depth_duration_MTurk/v2_DepthDuration_HTML.html#62,62,1536,722,1536,864,9-3-2022,9-31-21,51,depth_duration_stimuli/002630_2014-06-24_14-47-50_094959634447_rgbf000055-resize_1/002630_2014-06-24_14-47-50_094959634447_rgbf000055-resize_1-target.png,250,3.0095,2.0,3365,260,meters,jsons/v1_VE250_randls_77_rotated.json,782624,901703,55,Woman
51,799376,DepthScenes,duration_manipulation_targetAtFixation,jsons/v1_VE250_randls_77_rotated.json,http://54.235.29.9/FacialAge/BNav_EC2/DepthDuration/v2_depth_duration_MTurk/v2_DepthDuration_HTML.html#62,62,1536,722,1536,864,9-3-2022,9-31-21,52,depth_duration_stimuli/002953_2014-06-08_17-32-18_094959634447_rgbf000059-resize_5/002953_2014-06-08_17-32-18_094959634447_rgbf000059-resize_5-target.png,250,1.551,0.2,3348,258,meters,jsons/v1_VE250_randls_77_rotated.json,782624,901703,55,Woman
52,799376,DepthScenes,duration_manipulation_targetAtFixation,jsons/v1_VE250_randls_77_rotated.json,http://54.235.29.9/FacialAge/BNav_EC2/DepthDuration/v2_depth_duration_MTurk/v2_DepthDuration_HTML.html#62,62,1536,722,1536,864,9-3-2022,9-31-21,53,depth_duration_stimuli/000878_2014-06-08_22-52-45_260595134347_rgbf000045-resize_2/000878_2014-06-08_22-52-45_260595134347_rgbf000045-resize_2-target.png,250,2.092,0.3,5785,250,meters,jsons/v1_VE250_randls_77_rotated.json,782624,901703,55,Woman
53,799376,DepthScenes,duration_manipulation_targetAtFixation,jsons/v1_VE250_randls_77_rotated.json,http://54.235.29.9/FacialAge/BNav_EC2/DepthDuration/v2_depth_duration_MTurk/v2_DepthDuration_HTML.html#62,62,1536,722,1536,864,9-3-2022,9-31-21,54,depth_duration_stimuli/002568_2014-06-24_13-59-21_094959634447_rgbf000062-resize_4/002568_2014-06-24_13-59-21_094959634447_rgbf000062-resize_4-target.png,250,3.015,0.2,9033,261,meters,jsons/v1_VE250_randls_77_rotated.json,782624,901703,55,Woman
54,799376,DepthScenes,duration_manipulation_targetAtFixation,jsons/v1_VE250_randls_77_rotated.json,http://54.235.29.9/FacialAge/BNav_EC2/DepthDuration/v2_depth_duration_MTurk/v2_DepthDuration_HTML.html#62,62,1536,722,1536,864,9-3-2022,9-31-21,55,depth_duration_stimuli/003492_2014-05-21_15-50-55_094959634447_rgbf000828-resize_1/003492_2014-05-21_15-50-55_094959634447_rgbf000828-resize_1-target.png,250,4.06875,0.2,4613,237,meters,jsons/v1_VE250_randls_77_rotated.json,782624,901703,55,Woman
55,799376,DepthScenes,duration_manipulation_targetAtFixation,jsons/v1_VE250_randls_77_rotated.json,http://54.235.29.9/FacialAge/BNav_EC2/DepthDuration/v2_depth_duration_MTurk/v2_DepthDuration_HTML.html#62,62,1536,722,1536,864,9-3-2022,9-31-21,56,depth_duration_stimuli/000927_2014-06-09_16-32-30_260595134347_rgbf000123-resize_3/000927_2014-06-09_16-32-30_260595134347_rgbf000123-resize_3-target.png,250,2.6785,0.3,5131,252,meters,jsons/v1_VE250_randls_77_rotated.json,782624,901703,55,Woman
56,799376,DepthScenes,duration_manipulation_targetAtFixation,jsons/v1_VE250_randls_77_rotated.json,http://54.235.29.9/FacialAge/BNav_EC2/DepthDuration/v2_depth_duration_MTurk/v2_DepthDuration_HTML.html#62,62,1536,722,1536,864,9-3-2022,9-31-21,57,depth_duration_stimuli/001110_2014-06-15_17-25-28_260595134347_rgbf000150-resize_1/001110_2014-06-15_17-25-28_260595134347_rgbf000150-resize_1-target.png,250,1.7115,0.5,3390,251,meters,jsons/v1_VE250_randls_77_rotated.json,782624,901703,55,Woman
57,799376,DepthScenes,duration_manipulation_targetAtFixation,jsons/v1_VE250_randls_77_rotated.json,http://54.235.29.9/FacialAge/BNav_EC2/DepthDuration/v2_depth_duration_MTurk/v2_DepthDuration_HTML.html#62,62,1536,722,1536,864,9-3-2022,9-31-21,58,depth_duration_stimuli/002657_2014-06-13_15-29-54_094959634447_rgbf000150-resize_1/002657_2014-06-13_15-29-54_094959634447_rgbf000150-resize_1-target.png,250,4.919,0.6,3370,262,meters,jsons/v1_VE250_randls_77_rotated.json,782624,901703,55,Woman
58,799376,DepthScenes,duration_manipulation_targetAtFixation,jsons/v1_VE250_randls_77_rotated.json,http://54.235.29.9/FacialAge/BNav_EC2/DepthDuration/v2_depth_duration_MTurk/v2_DepthDuration_HTML.html#62,62,1536,722,1536,864,9-3-2022,9-31-21,59,depth_duration_stimuli/002375_2014-06-28_20-13-44_260595134347_rgbf000032-resize_1/002375_2014-06-28_20-13-44_260595134347_rgbf000032-resize_1-target.png,250,4.0175,0.5,3294,256,meters,jsons/v1_VE250_randls_77_rotated.json,782624,901703,55,Woman
59,799376,DepthScenes,duration_manipulation_targetAtFixation,jsons/v1_VE250_randls_77_rotated.json,http://54.235.29.9/FacialAge/BNav_EC2/DepthDuration/v2_depth_duration_MTurk/v2_DepthDuration_HTML.html#62,62,1536,722,1536,864,9-3-2022,9-31-21,60,depth_duration_stimuli/000109_2014-05-14_23-41-52_260595134347_rgbf000035-resize_9/000109_2014-05-14_23-41-52_260595134347_rgbf000035-resize_9-target.png,250,1.3545,0.5,4623,247,meters,jsons/v1_VE250_randls_77_rotated.json,782624,901703,55,Woman
60,799376,DepthScenes,duration_manipulation_targetAtFixation,jsons/v1_VE250_randls_77_rotated.json,http://54.235.29.9/FacialAge/BNav_EC2/DepthDuration/v2_depth_duration_MTurk/v2_DepthDuration_HTML.html#62,62,1536,722,1536,864,9-3-2022,9-31-21,61,depth_duration_stimuli/000470_2014-06-09_19-42-40_260595134347_rgbf000094-resize_1/000470_2014-06-09_19-42-40_260595134347_rgbf000094-resize_1-target.png,250,1.831,0.3,3428,258,meters,jsons/v1_VE250_randls_77_rotated.json,782624,901703,55,Woman
61,799376,DepthScenes,duration_manipulation_targetAtFixation,jsons/v1_VE250_randls_77_rotated.json,http://54.235.29.9/FacialAge/BNav_EC2/DepthDuration/v2_depth_duration_MTurk/v2_DepthDuration_HTML.html#62,62,1536,722,1536,864,9-3-2022,9-31-21,62,depth_duration_stimuli/002414_2014-06-28_20-24-58_260595134347_rgbf000067-resize_4/002414_2014-06-28_20-24-58_260595134347_rgbf000067-resize_4-target.png,250,4.363,0.4,3853,251,meters,jsons/v1_VE250_randls_77_rotated.json,782624,901703,55,Woman
62,799376,DepthScenes,duration_manipulation_targetAtFixation,jsons/v1_VE250_randls_77_rotated.json,http://54.235.29.9/FacialAge/BNav_EC2/DepthDuration/v2_depth_duration_MTurk/v2_DepthDuration_HTML.html#62,62,1536,722,1536,864,9-3-2022,9-31-21,63,depth_duration_stimuli/000773_2014-06-08_22-24-54_260595134347_rgbf000093-resize_1/000773_2014-06-08_22-24-54_260595134347_rgbf000093-resize_1-target.png,250,4.973,0.5,3608,223,meters,jsons/v1_VE250_randls_77_rotated.json,782624,901703,55,Woman
63,799376,DepthScenes,duration_manipulation_targetAtFixation,jsons/v1_VE250_randls_77_rotated.json,http://54.235.29.9/FacialAge/BNav_EC2/DepthDuration/v2_depth_duration_MTurk/v2_DepthDuration_HTML.html#62,62,1536,722,1536,864,9-3-2022,9-31-21,64,depth_duration_stimuli/002875_2014-06-01_15-19-00_094959634447_rgbf000151-resize_1/002875_2014-06-01_15-19-00_094959634447_rgbf000151-resize_1-target.png,250,1.9675,0.4,3844,248,meters,jsons/v1_VE250_randls_77_rotated.json,782624,901703,55,Woman
64,799376,DepthScenes,duration_manipulation_targetAtFixation,jsons/v1_VE250_randls_77_rotated.json,http://54.235.29.9/FacialAge/BNav_EC2/DepthDuration/v2_depth_duration_MTurk/v2_DepthDuration_HTML.html#62,62,1536,722,1536,864,9-3-2022,9-31-21,65,depth_duration_stimuli/001011_2014-06-08_23-18-54_260595134347_rgbf000044-resize_4/001011_2014-06-08_23-18-54_260595134347_rgbf000044-resize_4-target.png,250,2.4730000000000003,0.4,3533,250,meters,jsons/v1_VE250_randls_77_rotated.json,782624,901703,55,Woman
65,799376,DepthScenes,duration_manipulation_targetAtFixation,jsons/v1_VE250_randls_77_rotated.json,http://54.235.29.9/FacialAge/BNav_EC2/DepthDuration/v2_depth_duration_MTurk/v2_DepthDuration_HTML.html#62,62,1536,722,1536,864,9-3-2022,9-31-21,66,depth_duration_stimuli/001540_2014-06-20_17-01-05_260595134347_rgbf000086-resize_2/001540_2014-06-20_17-01-05_260595134347_rgbf000086-resize-original.jpg,250,1.459,0.0,3357,255,meters,jsons/v1_VE250_randls_77_rotated.json,782624,901703,55,Woman
66,799376,DepthScenes,duration_manipulation_targetAtFixation,jsons/v1_VE250_randls_77_rotated.json,http://54.235.29.9/FacialAge/BNav_EC2/DepthDuration/v2_depth_duration_MTurk/v2_DepthDuration_HTML.html#62,62,1536,722,1536,864,9-3-2022,9-31-21,67,depth_duration_stimuli/000749_2014-06-08_21-55-06_260595134347_rgbf000070-resize_2/000749_2014-06-08_21-55-06_260595134347_rgbf000070-resize_2-target.png,250,2.331,0.2,3472,234,meters,jsons/v1_VE250_randls_77_rotated.json,782624,901703,55,Woman
67,799376,DepthScenes,duration_manipulation_targetAtFixation,jsons/v1_VE250_randls_77_rotated.json,http://54.235.29.9/FacialAge/BNav_EC2/DepthDuration/v2_depth_duration_MTurk/v2_DepthDuration_HTML.html#62,62,1536,722,1536,864,9-3-2022,9-31-21,68,depth_duration_stimuli/002788_2014-06-22_19-36-03_094959634447_rgbf000088-resize_2/002788_2014-06-22_19-36-03_094959634447_rgbf000088-resize_2-target.png,250,1.6465,0.3,3590,253,meters,jsons/v1_VE250_randls_77_rotated.json,782624,901703,55,Woman
68,799376,DepthScenes,duration_manipulation_targetAtFixation,jsons/v1_VE250_randls_77_rotated.json,http://54.235.29.9/FacialAge/BNav_EC2/DepthDuration/v2_depth_duration_MTurk/v2_DepthDuration_HTML.html#62,62,1536,722,1536,864,9-3-2022,9-31-21,69,depth_duration_stimuli/001584_2014-06-20_11-07-43_260595134347_rgbf000002-resize_1/001584_2014-06-20_11-07-43_260595134347_rgbf000002-resize_1-target.png,250,3.53,0.5,4460,242,meters,jsons/v1_VE250_randls_77_rotated.json,782624,901703,55,Woman
69,799376,DepthScenes,duration_manipulation_targetAtFixation,jsons/v1_VE250_randls_77_rotated.json,http://54.235.29.9/FacialAge/BNav_EC2/DepthDuration/v2_depth_duration_MTurk/v2_DepthDuration_HTML.html#62,62,1536,722,1536,864,9-3-2022,9-31-21,70,depth_duration_stimuli/003621_2014-05-23_18-06-08_094959634447_rgbf000101-resize_1/003621_2014-05-23_18-06-08_094959634447_rgbf000101-resize_1-target.png,250,3.9835,0.3,3497,248,meters,jsons/v1_VE250_randls_77_rotated.json,782624,901703,55,Woman
70,799376,DepthScenes,duration_manipulation_targetAtFixation,jsons/v1_VE250_randls_77_rotated.json,http://54.235.29.9/FacialAge/BNav_EC2/DepthDuration/v2_depth_duration_MTurk/v2_DepthDuration_HTML.html#62,62,1536,722,1536,864,9-3-2022,9-31-21,71,depth_duration_stimuli/002209_2014-06-28_18-36-10_260595134347_rgbf000051-resize_1/002209_2014-06-28_18-36-10_260595134347_rgbf000051-resize_1-target.png,250,2.057,0.3,5404,229,meters,jsons/v1_VE250_randls_77_rotated.json,782624,901703,55,Woman
71,799376,DepthScenes,duration_manipulation_targetAtFixation,jsons/v1_VE250_randls_77_rotated.json,http://54.235.29.9/FacialAge/BNav_EC2/DepthDuration/v2_depth_duration_MTurk/v2_DepthDuration_HTML.html#62,62,1536,722,1536,864,9-3-2022,9-31-21,72,depth_duration_stimuli/002763_2014-06-22_19-13-10_094959634447_rgbf000075-resize_4/002763_2014-06-22_19-13-10_094959634447_rgbf000075-resize_4-target.png,250,1.68375,0.5,3711,223,meters,jsons/v1_VE250_randls_77_rotated.json,782624,901703,55,Woman
72,799376,DepthScenes,duration_manipulation_targetAtFixation,jsons/v1_VE250_randls_77_rotated.json,http://54.235.29.9/FacialAge/BNav_EC2/DepthDuration/v2_depth_duration_MTurk/v2_DepthDuration_HTML.html#62,62,1536,722,1536,864,9-3-2022,9-31-21,73,depth_duration_stimuli/000742_2014-06-08_18-48-09_260595134347_rgbf000164-resize_4/000742_2014-06-08_18-48-09_260595134347_rgbf000164-resize_4-target.png,250,4.632,0.5,4332,242,meters,jsons/v1_VE250_randls_77_rotated.json,782624,901703,55,Woman
73,799376,DepthScenes,duration_manipulation_targetAtFixation,jsons/v1_VE250_randls_77_rotated.json,http://54.235.29.9/FacialAge/BNav_EC2/DepthDuration/v2_depth_duration_MTurk/v2_DepthDuration_HTML.html#62,62,1536,722,1536,864,9-3-2022,9-31-21,74,depth_duration_stimuli/001066_2014-06-08_22-03-20_260595134347_rgbf000066-resize_4/001066_2014-06-08_22-03-20_260595134347_rgbf000066-resize_4-target.png,250,4.2330000000000005,0.3,3603,249,meters,jsons/v1_VE250_randls_77_rotated.json,782624,901703,55,Woman
74,799376,DepthScenes,duration_manipulation_targetAtFixation,jsons/v1_VE250_randls_77_rotated.json,http://54.235.29.9/FacialAge/BNav_EC2/DepthDuration/v2_depth_duration_MTurk/v2_DepthDuration_HTML.html#62,62,1536,722,1536,864,9-3-2022,9-31-21,75,depth_duration_stimuli/001136_2014-06-17_15-19-41_260595134347_rgbf000076-resize_3/001136_2014-06-17_15-19-41_260595134347_rgbf000076-resize_3-target.png,250,1.8655,0.6,3583,242,meters,jsons/v1_VE250_randls_77_rotated.json,782624,901703,55,Woman
75,799376,DepthScenes,duration_manipulation_targetAtFixation,jsons/v1_VE250_randls_77_rotated.json,http://54.235.29.9/FacialAge/BNav_EC2/DepthDuration/v2_depth_duration_MTurk/v2_DepthDuration_HTML.html#62,62,1536,722,1536,864,9-3-2022,9-31-21,76,depth_duration_stimuli/001164_2014-06-17_15-35-46_260595134347_rgbf000085-resize_3/001164_2014-06-17_15-35-46_260595134347_rgbf000085-resize_3-target.png,250,2.354,0.5,4118,260,meters,jsons/v1_VE250_randls_77_rotated.json,782624,901703,55,Woman
76,799376,DepthScenes,duration_manipulation_targetAtFixation,jsons/v1_VE250_randls_77_rotated.json,http://54.235.29.9/FacialAge/BNav_EC2/DepthDuration/v2_depth_duration_MTurk/v2_DepthDuration_HTML.html#62,62,1536,722,1536,864,9-3-2022,9-31-21,77,depth_duration_stimuli/001094_2014-06-15_17-36-00_260595134347_rgbf000205-resize_0/001094_2014-06-15_17-36-00_260595134347_rgbf000205-resize_0-target.png,250,4.2175,0.3,4364,252,meters,jsons/v1_VE250_randls_77_rotated.json,782624,901703,55,Woman
77,799376,DepthScenes,duration_manipulation_targetAtFixation,jsons/v1_VE250_randls_77_rotated.json,http://54.235.29.9/FacialAge/BNav_EC2/DepthDuration/v2_depth_duration_MTurk/v2_DepthDuration_HTML.html#62,62,1536,722,1536,864,9-3-2022,9-31-21,78,depth_duration_stimuli/000692_2014-06-08_13-09-42_260595134347_rgbf000199-resize_2/000692_2014-06-08_13-09-42_260595134347_rgbf000199-resize_2-target.png,250,3.661,0.5,3300,239,meters,jsons/v1_VE250_randls_77_rotated.json,782624,901703,55,Woman
78,799376,DepthScenes,duration_manipulation_targetAtFixation,jsons/v1_VE250_randls_77_rotated.json,http://54.235.29.9/FacialAge/BNav_EC2/DepthDuration/v2_depth_duration_MTurk/v2_DepthDuration_HTML.html#62,62,1536,722,1536,864,9-3-2022,9-31-21,79,depth_duration_stimuli/000677_2014-06-08_23-10-32_260595134347_rgbf000158-resize_6/000677_2014-06-08_23-10-32_260595134347_rgbf000158-resize_6-target.png,250,3.556,0.6,3139,263,meters,jsons/v1_VE250_randls_77_rotated.json,782624,901703,55,Woman
79,799376,DepthScenes,duration_manipulation_targetAtFixation,jsons/v1_VE250_randls_77_rotated.json,http://54.235.29.9/FacialAge/BNav_EC2/DepthDuration/v2_depth_duration_MTurk/v2_DepthDuration_HTML.html#62,62,1536,722,1536,864,9-3-2022,9-31-21,80,depth_duration_stimuli/001029_2014-06-08_13-17-57_260595134347_rgbf000065-resize_1/001029_2014-06-08_13-17-57_260595134347_rgbf000065-resize_1-target.png,250,3.0835,0.2,5677,240,meters,jsons/v1_VE250_randls_77_rotated.json,782624,901703,55,Woman
80,799376,DepthScenes,duration_manipulation_targetAtFixation,jsons/v1_VE250_randls_77_rotated.json,http://54.235.29.9/FacialAge/BNav_EC2/DepthDuration/v2_depth_duration_MTurk/v2_DepthDuration_HTML.html#62,62,1536,722,1536,864,9-3-2022,9-31-21,81,depth_duration_stimuli/000780_2014-06-08_22-28-29_260595134347_rgbf000126-resize_1/000780_2014-06-08_22-28-29_260595134347_rgbf000126-resize_1-target.png,250,3.3825,0.3,3485,239,meters,jsons/v1_VE250_randls_77_rotated.json,782624,901703,55,Woman
81,799376,DepthScenes,duration_manipulation_targetAtFixation,jsons/v1_VE250_randls_77_rotated.json,http://54.235.29.9/FacialAge/BNav_EC2/DepthDuration/v2_depth_duration_MTurk/v2_DepthDuration_HTML.html#62,62,1536,722,1536,864,9-3-2022,9-31-21,82,depth_duration_stimuli/002445_2014-06-28_20-32-16_260595134347_rgbf000029-resize_4/002445_2014-06-28_20-32-16_260595134347_rgbf000029-resize_4-target.png,250,2.5315,0.5,3599,250,meters,jsons/v1_VE250_randls_77_rotated.json,782624,901703,55,Woman
82,799376,DepthScenes,duration_manipulation_targetAtFixation,jsons/v1_VE250_randls_77_rotated.json,http://54.235.29.9/FacialAge/BNav_EC2/DepthDuration/v2_depth_duration_MTurk/v2_DepthDuration_HTML.html#62,62,1536,722,1536,864,9-3-2022,9-31-21,83,depth_duration_stimuli/000483_2014-06-09_20-41-45_260595134347_rgbf000116-resize_4/000483_2014-06-09_20-41-45_260595134347_rgbf000116-resize_4-target.png,250,1.337,0.3,14604,254,meters,jsons/v1_VE250_randls_77_rotated.json,782624,901703,55,Woman
83,799376,DepthScenes,duration_manipulation_targetAtFixation,jsons/v1_VE250_randls_77_rotated.json,http://54.235.29.9/FacialAge/BNav_EC2/DepthDuration/v2_depth_duration_MTurk/v2_DepthDuration_HTML.html#62,62,1536,722,1536,864,9-3-2022,9-31-21,84,depth_duration_stimuli/000469_2014-06-09_19-42-10_260595134347_rgbf000081-resize_1/000469_2014-06-09_19-42-10_260595134347_rgbf000081-resize_1-target.png,250,1.652,0.2,3409,251,meters,jsons/v1_VE250_randls_77_rotated.json,782624,901703,55,Woman
84,799376,DepthScenes,duration_manipulation_targetAtFixation,jsons/v1_VE250_randls_77_rotated.json,http://54.235.29.9/FacialAge/BNav_EC2/DepthDuration/v2_depth_duration_MTurk/v2_DepthDuration_HTML.html#62,62,1536,722,1536,864,9-3-2022,9-31-21,85,depth_duration_stimuli/000502_2014-06-08_23-02-32_260595134347_rgbf000063-resize_4/000502_2014-06-08_23-02-32_260595134347_rgbf000063-resize_4-target.png,250,2.431,0.2,3290,245,meters,jsons/v1_VE250_randls_77_rotated.json,782624,901703,55,Woman
85,799376,DepthScenes,duration_manipulation_targetAtFixation,jsons/v1_VE250_randls_77_rotated.json,http://54.235.29.9/FacialAge/BNav_EC2/DepthDuration/v2_depth_duration_MTurk/v2_DepthDuration_HTML.html#62,62,1536,722,1536,864,9-3-2022,9-31-21,86,depth_duration_stimuli/001199_2014-06-17_16-03-48_260595134347_rgbf000077-resize_0/001199_2014-06-17_16-03-48_260595134347_rgbf000077-resize_0-target.png,250,3.4375,0.3,4400,344,meters,jsons/v1_VE250_randls_77_rotated.json,782624,901703,55,Woman
86,799376,DepthScenes,duration_manipulation_targetAtFixation,jsons/v1_VE250_randls_77_rotated.json,http://54.235.29.9/FacialAge/BNav_EC2/DepthDuration/v2_depth_duration_MTurk/v2_DepthDuration_HTML.html#62,62,1536,722,1536,864,9-3-2022,9-31-21,87,depth_duration_stimuli/000137_2014-05-20_17-04-49_260595134347_rgbf000120-resize_1/000137_2014-05-20_17-04-49_260595134347_rgbf000120-resize_1-target.png,250,3.786,0.5,4433,242,meters,jsons/v1_VE250_randls_77_rotated.json,782624,901703,55,Woman
87,799376,DepthScenes,duration_manipulation_targetAtFixation,jsons/v1_VE250_randls_77_rotated.json,http://54.235.29.9/FacialAge/BNav_EC2/DepthDuration/v2_depth_duration_MTurk/v2_DepthDuration_HTML.html#62,62,1536,722,1536,864,9-3-2022,9-31-21,88,depth_duration_stimuli/000736_2014-06-08_18-24-15_260595134347_rgbf000206-resize_3/000736_2014-06-08_18-24-15_260595134347_rgbf000206-resize_3-target.png,250,3.515,0.6,4716,252,meters,jsons/v1_VE250_randls_77_rotated.json,782624,901703,55,Woman
88,799376,DepthScenes,duration_manipulation_targetAtFixation,jsons/v1_VE250_randls_77_rotated.json,http://54.235.29.9/FacialAge/BNav_EC2/DepthDuration/v2_depth_duration_MTurk/v2_DepthDuration_HTML.html#62,62,1536,722,1536,864,9-3-2022,9-31-21,89,depth_duration_stimuli/003490_2014-05-21_15-50-11_094959634447_rgbf000101-resize_3/003490_2014-05-21_15-50-11_094959634447_rgbf000101-resize_3-target.png,250,3.6445,0.2,6537,255,meters,jsons/v1_VE250_randls_77_rotated.json,782624,901703,55,Woman
89,799376,DepthScenes,duration_manipulation_targetAtFixation,jsons/v1_VE250_randls_77_rotated.json,http://54.235.29.9/FacialAge/BNav_EC2/DepthDuration/v2_depth_duration_MTurk/v2_DepthDuration_HTML.html#62,62,1536,722,1536,864,9-3-2022,9-31-21,90,depth_duration_stimuli/001175_2014-06-17_15-45-55_260595134347_rgbf000129-resize_4/001175_2014-06-17_15-45-55_260595134347_rgbf000129-resize_4-target.png,250,4.255,0.6,5027,252,meters,jsons/v1_VE250_randls_77_rotated.json,782624,901703,55,Woman
90,799376,DepthScenes,duration_manipulation_targetAtFixation,jsons/v1_VE250_randls_77_rotated.json,http://54.235.29.9/FacialAge/BNav_EC2/DepthDuration/v2_depth_duration_MTurk/v2_DepthDuration_HTML.html#62,62,1536,722,1536,864,9-3-2022,9-31-21,91,depth_duration_stimuli/001447_2014-06-19_17-00-32_260595134347_rgbf000082-resize_5/001447_2014-06-19_17-00-32_260595134347_rgbf000082-resize_5-target.png,250,4.13775,0.6,5658,237,meters,jsons/v1_VE250_randls_77_rotated.json,782624,901703,55,Woman
91,799376,DepthScenes,duration_manipulation_targetAtFixation,jsons/v1_VE250_randls_77_rotated.json,http://54.235.29.9/FacialAge/BNav_EC2/DepthDuration/v2_depth_duration_MTurk/v2_DepthDuration_HTML.html#62,62,1536,722,1536,864,9-3-2022,9-31-21,92,depth_duration_stimuli/000447_2014-06-08_16-15-46_260595134347_rgbf000130-resize_1/000447_2014-06-08_16-15-46_260595134347_rgbf000130-resize_1-target.png,250,4.479,0.3,15280,218,meters,jsons/v1_VE250_randls_77_rotated.json,782624,901703,55,Woman
92,799376,DepthScenes,duration_manipulation_targetAtFixation,jsons/v1_VE250_randls_77_rotated.json,http://54.235.29.9/FacialAge/BNav_EC2/DepthDuration/v2_depth_duration_MTurk/v2_DepthDuration_HTML.html#62,62,1536,722,1536,864,9-3-2022,9-31-21,93,depth_duration_stimuli/000191_2014-05-12_17-07-38_260595134347_rgbf000199-resize_0/000191_2014-05-12_17-07-38_260595134347_rgbf000199-resize_0-target.png,250,3.7995,0.0,3701,250,meters,jsons/v1_VE250_randls_77_rotated.json,782624,901703,55,Woman
93,799376,DepthScenes,duration_manipulation_targetAtFixation,jsons/v1_VE250_randls_77_rotated.json,http://54.235.29.9/FacialAge/BNav_EC2/DepthDuration/v2_depth_duration_MTurk/v2_DepthDuration_HTML.html#62,62,1536,722,1536,864,9-3-2022,9-31-21,94,depth_duration_stimuli/000493_2014-06-09_21-01-18_260595134347_rgbf000196-resize_3/000493_2014-06-09_21-01-18_260595134347_rgbf000196-resize_3-target.png,250,3.44,0.0,5343,244,meters,jsons/v1_VE250_randls_77_rotated.json,782624,901703,55,Woman
94,799376,DepthScenes,duration_manipulation_targetAtFixation,jsons/v1_VE250_randls_77_rotated.json,http://54.235.29.9/FacialAge/BNav_EC2/DepthDuration/v2_depth_duration_MTurk/v2_DepthDuration_HTML.html#62,62,1536,722,1536,864,9-3-2022,9-31-21,95,depth_duration_stimuli/001828_2014-06-26_21-40-03_260595134347_rgbf000024-resize_0/001828_2014-06-26_21-40-03_260595134347_rgbf000024-resize_0-target.png,250,4.8260000000000005,0.6,5076,247,meters,jsons/v1_VE250_randls_77_rotated.json,782624,901703,55,Woman
95,799376,DepthScenes,duration_manipulation_targetAtFixation,jsons/v1_VE250_randls_77_rotated.json,http://54.235.29.9/FacialAge/BNav_EC2/DepthDuration/v2_depth_duration_MTurk/v2_DepthDuration_HTML.html#62,62,1536,722,1536,864,9-3-2022,9-31-21,96,depth_duration_stimuli/000009_2014-05-26_14-32-05_260595134347_rgbf000034-resize_3/000009_2014-05-26_14-32-05_260595134347_rgbf000034-resize_3-target.png,250,3.8715,0.0,7633,234,meters,jsons/v1_VE250_randls_77_rotated.json,782624,901703,55,Woman
96,799376,DepthScenes,duration_manipulation_targetAtFixation,jsons/v1_VE250_randls_77_rotated.json,http://54.235.29.9/FacialAge/BNav_EC2/DepthDuration/v2_depth_duration_MTurk/v2_DepthDuration_HTML.html#62,62,1536,722,1536,864,9-3-2022,9-31-21,97,depth_duration_stimuli/001617_2014-06-20_11-35-32_260595134347_rgbf000066-resize_1/001617_2014-06-20_11-35-32_260595134347_rgbf000066-resize_1-target.png,250,3.7910000000000004,0.6,7012,238,meters,jsons/v1_VE250_randls_77_rotated.json,782624,901703,55,Woman
97,799376,DepthScenes,duration_manipulation_targetAtFixation,jsons/v1_VE250_randls_77_rotated.json,http://54.235.29.9/FacialAge/BNav_EC2/DepthDuration/v2_depth_duration_MTurk/v2_DepthDuration_HTML.html#62,62,1536,722,1536,864,9-3-2022,9-31-21,98,depth_duration_stimuli/001806_2014-06-26_20-50-20_260595134347_rgbf000091-resize_1/001806_2014-06-26_20-50-20_260595134347_rgbf000091-resize_1-target.png,250,2.7305,0.0,3698,59,meters,jsons/v1_VE250_randls_77_rotated.json,782624,901703,55,Woman
98,799376,DepthScenes,duration_manipulation_targetAtFixation,jsons/v1_VE250_randls_77_rotated.json,http://54.235.29.9/FacialAge/BNav_EC2/DepthDuration/v2_depth_duration_MTurk/v2_DepthDuration_HTML.html#62,62,1536,722,1536,864,9-3-2022,9-31-21,99,depth_duration_stimuli/001222_2014-06-17_16-24-06_260595134347_rgbf000073-resize_0/001222_2014-06-17_16-24-06_260595134347_rgbf000073-resize-original.jpg,250,1.4385,0.0,3864,254,meters,jsons/v1_VE250_randls_77_rotated.json,782624,901703,55,Woman
99,799376,DepthScenes,duration_manipulation_targetAtFixation,jsons/v1_VE250_randls_77_rotated.json,http://54.235.29.9/FacialAge/BNav_EC2/DepthDuration/v2_depth_duration_MTurk/v2_DepthDuration_HTML.html#62,62,1536,722,1536,864,9-3-2022,9-31-21,100,depth_duration_stimuli/002750_2014-06-22_19-08-03_094959634447_rgbf000094-resize_4/002750_2014-06-22_19-08-03_094959634447_rgbf000094-resize_4-target.png,250,2.354,0.3,4069,249,meters,jsons/v1_VE250_randls_77_rotated.json,782624,901703,55,Woman
100,799376,DepthScenes,duration_manipulation_targetAtFixation,jsons/v1_VE250_randls_77_rotated.json,http://54.235.29.9/FacialAge/BNav_EC2/DepthDuration/v2_depth_duration_MTurk/v2_DepthDuration_HTML.html#62,62,1536,722,1536,864,9-3-2022,9-31-21,101,depth_duration_stimuli/002549_2014-06-24_13-41-39_094959634447_rgbf000022-resize_3/002549_2014-06-24_13-41-39_094959634447_rgbf000022-resize_3-target.png,250,1.476,0.5,5108,259,meters,jsons/v1_VE250_randls_77_rotated.json,782624,901703,55,Woman
101,799376,DepthScenes,duration_manipulation_targetAtFixation,jsons/v1_VE250_randls_77_rotated.json,http://54.235.29.9/FacialAge/BNav_EC2/DepthDuration/v2_depth_duration_MTurk/v2_DepthDuration_HTML.html#62,62,1536,722,1536,864,9-3-2022,9-31-21,102,depth_duration_stimuli/001450_2014-06-19_17-02-03_260595134347_rgbf000203-resize_4/001450_2014-06-19_17-02-03_260595134347_rgbf000203-resize_4-target.png,250,4.0106666666667,0.6,5186,250,meters,jsons/v1_VE250_randls_77_rotated.json,782624,901703,55,Woman
102,799376,DepthScenes,duration_manipulation_targetAtFixation,jsons/v1_VE250_randls_77_rotated.json,http://54.235.29.9/FacialAge/BNav_EC2/DepthDuration/v2_depth_duration_MTurk/v2_DepthDuration_HTML.html#62,62,1536,722,1536,864,9-3-2022,9-31-21,103,depth_duration_stimuli/001449_2014-06-19_17-01-27_260595134347_rgbf000116-resize_2/001449_2014-06-19_17-01-27_260595134347_rgbf000116-resize_2-target.png,250,3.452,0.0,2626,250,meters,jsons/v1_VE250_randls_77_rotated.json,782624,901703,55,Woman
103,799376,DepthScenes,duration_manipulation_targetAtFixation,jsons/v1_VE250_randls_77_rotated.json,http://54.235.29.9/FacialAge/BNav_EC2/DepthDuration/v2_depth_duration_MTurk/v2_DepthDuration_HTML.html#62,62,1536,722,1536,864,9-3-2022,9-31-21,104,depth_duration_stimuli/002103_2014-06-25_20-00-40_260595134347_rgbf000049-resize_0/002103_2014-06-25_20-00-40_260595134347_rgbf000049-resize_0-target.png,250,4.105,0.6,5032,180,meters,jsons/v1_VE250_randls_77_rotated.json,782624,901703,55,Woman
104,799376,DepthScenes,duration_manipulation_targetAtFixation,jsons/v1_VE250_randls_77_rotated.json,http://54.235.29.9/FacialAge/BNav_EC2/DepthDuration/v2_depth_duration_MTurk/v2_DepthDuration_HTML.html#62,62,1536,722,1536,864,9-3-2022,9-31-21,105,depth_duration_stimuli/002039_2014-06-24_20-22-38_260595134347_rgbf000084-resize_1/002039_2014-06-24_20-22-38_260595134347_rgbf000084-resize_1-target.png,250,4.408,0.5,4436,242,meters,jsons/v1_VE250_randls_77_rotated.json,782624,901703,55,Woman
105,799376,DepthScenes,duration_manipulation_targetAtFixation,jsons/v1_VE250_randls_77_rotated.json,http://54.235.29.9/FacialAge/BNav_EC2/DepthDuration/v2_depth_duration_MTurk/v2_DepthDuration_HTML.html#62,62,1536,722,1536,864,9-3-2022,9-31-21,106,depth_duration_stimuli/001052_2014-06-08_18-24-54_260595134347_rgbf000130-resize_1/001052_2014-06-08_18-24-54_260595134347_rgbf000130-resize_1-target.png,250,4.1045,0.6,4441,247,meters,jsons/v1_VE250_randls_77_rotated.json,782624,901703,55,Woman
106,799376,DepthScenes,duration_manipulation_targetAtFixation,jsons/v1_VE250_randls_77_rotated.json,http://54.235.29.9/FacialAge/BNav_EC2/DepthDuration/v2_depth_duration_MTurk/v2_DepthDuration_HTML.html#62,62,1536,722,1536,864,9-3-2022,9-31-21,107,depth_duration_stimuli/002988_2014-06-15_12-24-20_094959634447_rgbf000150-resize_1/002988_2014-06-15_12-24-20_094959634447_rgbf000150-resize_1-target.png,250,4.7669999999999995,0.6,4007,252,meters,jsons/v1_VE250_randls_77_rotated.json,782624,901703,55,Woman
107,799376,DepthScenes,duration_manipulation_targetAtFixation,jsons/v1_VE250_randls_77_rotated.json,http://54.235.29.9/FacialAge/BNav_EC2/DepthDuration/v2_depth_duration_MTurk/v2_DepthDuration_HTML.html#62,62,1536,722,1536,864,9-3-2022,9-31-21,108,depth_duration_stimuli/000943_2014-06-09_19-31-07_260595134347_rgbf000128-resize_1/000943_2014-06-09_19-31-07_260595134347_rgbf000128-resize_1-target.png,250,1.9765,0.5,4627,247,meters,jsons/v1_VE250_randls_77_rotated.json,782624,901703,55,Woman
108,799376,DepthScenes,duration_manipulation_targetAtFixation,jsons/v1_VE250_randls_77_rotated.json,http://54.235.29.9/FacialAge/BNav_EC2/DepthDuration/v2_depth_duration_MTurk/v2_DepthDuration_HTML.html#62,62,1536,722,1536,864,9-3-2022,9-31-21,109,depth_duration_stimuli/003070_2014-06-15_14-58-27_094959634447_rgbf000150-resize_3/003070_2014-06-15_14-58-27_094959634447_rgbf000150-resize_3-target.png,250,2.9415,0.5,4257,260,meters,jsons/v1_VE250_randls_77_rotated.json,782624,901703,55,Woman
109,799376,DepthScenes,duration_manipulation_targetAtFixation,jsons/v1_VE250_randls_77_rotated.json,http://54.235.29.9/FacialAge/BNav_EC2/DepthDuration/v2_depth_duration_MTurk/v2_DepthDuration_HTML.html#62,62,1536,722,1536,864,9-3-2022,9-31-21,110,depth_duration_stimuli/000734_2014-06-08_17-39-11_260595134347_rgbf000128-resize_2/000734_2014-06-08_17-39-11_260595134347_rgbf000128-resize_2-target.png,250,4.098,0.6,4410,246,meters,jsons/v1_VE250_randls_77_rotated.json,782624,901703,55,Woman
110,799376,DepthScenes,duration_manipulation_targetAtFixation,jsons/v1_VE250_randls_77_rotated.json,http://54.235.29.9/FacialAge/BNav_EC2/DepthDuration/v2_depth_duration_MTurk/v2_DepthDuration_HTML.html#62,62,1536,722,1536,864,9-3-2022,9-31-21,111,depth_duration_stimuli/000739_2014-06-08_18-45-58_260595134347_rgbf000068-resize_1/000739_2014-06-08_18-45-58_260595134347_rgbf000068-resize_1-target.png,250,3.534,0.6,4001,241,meters,jsons/v1_VE250_randls_77_rotated.json,782624,901703,55,Woman
111,799376,DepthScenes,duration_manipulation_targetAtFixation,jsons/v1_VE250_randls_77_rotated.json,http://54.235.29.9/FacialAge/BNav_EC2/DepthDuration/v2_depth_duration_MTurk/v2_DepthDuration_HTML.html#62,62,1536,722,1536,864,9-3-2022,9-31-21,112,depth_duration_stimuli/003010_2014-06-15_12-54-35_094959634447_rgbf000112-resize_0/003010_2014-06-15_12-54-35_094959634447_rgbf000112-resize_0-target.png,250,3.1185,0.6,4394,260,meters,jsons/v1_VE250_randls_77_rotated.json,782624,901703,55,Woman
112,799376,DepthScenes,duration_manipulation_targetAtFixation,jsons/v1_VE250_randls_77_rotated.json,http://54.235.29.9/FacialAge/BNav_EC2/DepthDuration/v2_depth_duration_MTurk/v2_DepthDuration_HTML.html#62,62,1536,722,1536,864,9-3-2022,9-31-21,113,depth_duration_stimuli/001810_2014-06-26_20-51-35_260595134347_rgbf000040-resize_3/001810_2014-06-26_20-51-35_260595134347_rgbf000040-resize_3-target.png,250,2.2525,0.4,5159,178,meters,jsons/v1_VE250_randls_77_rotated.json,782624,901703,55,Woman
113,799376,DepthScenes,duration_manipulation_targetAtFixation,jsons/v1_VE250_randls_77_rotated.json,http://54.235.29.9/FacialAge/BNav_EC2/DepthDuration/v2_depth_duration_MTurk/v2_DepthDuration_HTML.html#62,62,1536,722,1536,864,9-3-2022,9-31-21,114,depth_duration_stimuli/001132_2014-06-17_14-48-54_260595134347_rgbf000100-resize_2/001132_2014-06-17_14-48-54_260595134347_rgbf000100-resize_2-target.png,250,3.753,0.5,5848,235,meters,jsons/v1_VE250_randls_77_rotated.json,782624,901703,55,Woman
114,799376,DepthScenes,duration_manipulation_targetAtFixation,jsons/v1_VE250_randls_77_rotated.json,http://54.235.29.9/FacialAge/BNav_EC2/DepthDuration/v2_depth_duration_MTurk/v2_DepthDuration_HTML.html#62,62,1536,722,1536,864,9-3-2022,9-31-21,115,depth_duration_stimuli/001133_2014-06-17_14-49-16_260595134347_rgbf000100-resize_0/001133_2014-06-17_14-49-16_260595134347_rgbf000100-resize_0-target.png,250,4.2115,0.6,4442,221,meters,jsons/v1_VE250_randls_77_rotated.json,782624,901703,55,Woman
115,799376,DepthScenes,duration_manipulation_targetAtFixation,jsons/v1_VE250_randls_77_rotated.json,http://54.235.29.9/FacialAge/BNav_EC2/DepthDuration/v2_depth_duration_MTurk/v2_DepthDuration_HTML.html#62,62,1536,722,1536,864,9-3-2022,9-31-21,116,depth_duration_stimuli/001516_2014-06-20_16-25-09_260595134347_rgbf000076-resize_2/001516_2014-06-20_16-25-09_260595134347_rgbf000076-resize_2-target.png,250,1.7445,0.3,4732,253,meters,jsons/v1_VE250_randls_77_rotated.json,782624,901703,55,Woman
116,799376,DepthScenes,duration_manipulation_targetAtFixation,jsons/v1_VE250_randls_77_rotated.json,http://54.235.29.9/FacialAge/BNav_EC2/DepthDuration/v2_depth_duration_MTurk/v2_DepthDuration_HTML.html#62,62,1536,722,1536,864,9-3-2022,9-31-21,117,depth_duration_stimuli/002118_2014-06-25_20-32-08_260595134347_rgbf000078-resize_1/002118_2014-06-25_20-32-08_260595134347_rgbf000078-resize_1-target.png,250,2.6460000000000004,0.3,5567,235,meters,jsons/v1_VE250_randls_77_rotated.json,782624,901703,55,Woman
117,799376,DepthScenes,duration_manipulation_targetAtFixation,jsons/v1_VE250_randls_77_rotated.json,http://54.235.29.9/FacialAge/BNav_EC2/DepthDuration/v2_depth_duration_MTurk/v2_DepthDuration_HTML.html#62,62,1536,722,1536,864,9-3-2022,9-31-21,118,depth_duration_stimuli/001815_2014-06-26_20-52-55_260595134347_rgbf000020-resize_0/001815_2014-06-26_20-52-55_260595134347_rgbf000020-resize_0-target.png,250,3.3865,0.6,3760,264,meters,jsons/v1_VE250_randls_77_rotated.json,782624,901703,55,Woman
118,799376,DepthScenes,duration_manipulation_targetAtFixation,jsons/v1_VE250_randls_77_rotated.json,http://54.235.29.9/FacialAge/BNav_EC2/DepthDuration/v2_depth_duration_MTurk/v2_DepthDuration_HTML.html#62,62,1536,722,1536,864,9-3-2022,9-31-21,119,depth_duration_stimuli/001808_2014-06-26_20-50-58_260595134347_rgbf000029-resize_1/001808_2014-06-26_20-50-58_260595134347_rgbf000029-resize_1-target.png,250,4.249,0.6,3572,253,meters,jsons/v1_VE250_randls_77_rotated.json,782624,901703,55,Woman
119,799376,DepthScenes,duration_manipulation_targetAtFixation,jsons/v1_VE250_randls_77_rotated.json,http://54.235.29.9/FacialAge/BNav_EC2/DepthDuration/v2_depth_duration_MTurk/v2_DepthDuration_HTML.html#62,62,1536,722,1536,864,9-3-2022,9-31-21,120,depth_duration_stimuli/000787_2014-06-08_22-33-53_260595134347_rgbf000175-resize_1/000787_2014-06-08_22-33-53_260595134347_rgbf000175-resize-original.jpg,250,4.784,0.0,3254,254,meters,jsons/v1_VE250_randls_77_rotated.json,782624,901703,55,Woman
120,799376,DepthScenes,duration_manipulation_targetAtFixation,jsons/v1_VE250_randls_77_rotated.json,http://54.235.29.9/FacialAge/BNav_EC2/DepthDuration/v2_depth_duration_MTurk/v2_DepthDuration_HTML.html#62,62,1536,722,1536,864,9-3-2022,9-31-21,121,depth_duration_stimuli/000635_2014-06-08_16-38-42_260595134347_rgbf000106-resize_1/000635_2014-06-08_16-38-42_260595134347_rgbf000106-resize_1-target.png,250,2.074,0.3,3602,257,meters,jsons/v1_VE250_randls_77_rotated.json,782624,901703,55,Woman
121,799376,DepthScenes,duration_manipulation_targetAtFixation,jsons/v1_VE250_randls_77_rotated.json,http://54.235.29.9/FacialAge/BNav_EC2/DepthDuration/v2_depth_duration_MTurk/v2_DepthDuration_HTML.html#62,62,1536,722,1536,864,9-3-2022,9-31-21,122,depth_duration_stimuli/002279_2014-06-28_18-55-32_260595134347_rgbf000040-resize_5/002279_2014-06-28_18-55-32_260595134347_rgbf000040-resize_5-target.png,250,1.5043333333333,0.2,3286,249,meters,jsons/v1_VE250_randls_77_rotated.json,782624,901703,55,Woman
122,799376,DepthScenes,duration_manipulation_targetAtFixation,jsons/v1_VE250_randls_77_rotated.json,http://54.235.29.9/FacialAge/BNav_EC2/DepthDuration/v2_depth_duration_MTurk/v2_DepthDuration_HTML.html#62,62,1536,722,1536,864,9-3-2022,9-31-21,123,depth_duration_stimuli/003083_2014-06-15_15-21-03_094959634447_rgbf000063-resize_1/003083_2014-06-15_15-21-03_094959634447_rgbf000063-resize_1-target.png,250,4.1405,0.3,3307,248,meters,jsons/v1_VE250_randls_77_rotated.json,782624,901703,55,Woman
123,799376,DepthScenes,duration_manipulation_targetAtFixation,jsons/v1_VE250_randls_77_rotated.json,http://54.235.29.9/FacialAge/BNav_EC2/DepthDuration/v2_depth_duration_MTurk/v2_DepthDuration_HTML.html#62,62,1536,722,1536,864,9-3-2022,9-31-21,124,depth_duration_stimuli/000486_2014-06-09_20-47-20_260595134347_rgbf000143-resize_2/000486_2014-06-09_20-47-20_260595134347_rgbf000143-resize_2-target.png,250,4.8325,0.5,3396,243,meters,jsons/v1_VE250_randls_77_rotated.json,782624,901703,55,Woman
124,799376,DepthScenes,duration_manipulation_targetAtFixation,jsons/v1_VE250_randls_77_rotated.json,http://54.235.29.9/FacialAge/BNav_EC2/DepthDuration/v2_depth_duration_MTurk/v2_DepthDuration_HTML.html#62,62,1536,722,1536,864,9-3-2022,9-31-21,125,depth_duration_stimuli/000691_2014-06-08_13-08-50_260595134347_rgbf000132-resize_3/000691_2014-06-08_13-08-50_260595134347_rgbf000132-resize_3-target.png,250,4.1530000000000005,0.6,3626,239,meters,jsons/v1_VE250_randls_77_rotated.json,782624,901703,55,Woman
125,799376,DepthScenes,duration_manipulation_targetAtFixation,jsons/v1_VE250_randls_77_rotated.json,http://54.235.29.9/FacialAge/BNav_EC2/DepthDuration/v2_depth_duration_MTurk/v2_DepthDuration_HTML.html#62,62,1536,722,1536,864,9-3-2022,9-31-21,126,depth_duration_stimuli/002213_2014-06-28_18-37-58_260595134347_rgbf000055-resize_1/002213_2014-06-28_18-37-58_260595134347_rgbf000055-resize_1-target.png,250,3.62,0.2,3622,261,meters,jsons/v1_VE250_randls_77_rotated.json,782624,901703,55,Woman
126,799376,DepthScenes,duration_manipulation_targetAtFixation,jsons/v1_VE250_randls_77_rotated.json,http://54.235.29.9/FacialAge/BNav_EC2/DepthDuration/v2_depth_duration_MTurk/v2_DepthDuration_HTML.html#62,62,1536,722,1536,864,9-3-2022,9-31-21,127,depth_duration_stimuli/003495_2014-05-21_16-01-51_094959634447_rgbf000100-resize_3/003495_2014-05-21_16-01-51_094959634447_rgbf000100-resize_3-target.png,250,1.6255,0.2,3583,237,meters,jsons/v1_VE250_randls_77_rotated.json,782624,901703,55,Woman
127,799376,DepthScenes,duration_manipulation_targetAtFixation,jsons/v1_VE250_randls_77_rotated.json,http://54.235.29.9/FacialAge/BNav_EC2/DepthDuration/v2_depth_duration_MTurk/v2_DepthDuration_HTML.html#62,62,1536,722,1536,864,9-3-2022,9-31-21,128,depth_duration_stimuli/001244_2014-06-17_16-47-45_260595134347_rgbf000030-resize_4/001244_2014-06-17_16-47-45_260595134347_rgbf000030-resize_4-target.png,250,2.0425,0.2,3559,247,meters,jsons/v1_VE250_randls_77_rotated.json,782624,901703,55,Woman
128,799376,DepthScenes,duration_manipulation_targetAtFixation,jsons/v1_VE250_randls_77_rotated.json,http://54.235.29.9/FacialAge/BNav_EC2/DepthDuration/v2_depth_duration_MTurk/v2_DepthDuration_HTML.html#62,62,1536,722,1536,864,9-3-2022,9-31-21,129,depth_duration_stimuli/000866_2014-06-09_20-45-42_260595134347_rgbf000139-resize_1/000866_2014-06-09_20-45-42_260595134347_rgbf000139-resize_1-target.png,250,3.2155,0.3,3595,249,meters,jsons/v1_VE250_randls_77_rotated.json,782624,901703,55,Woman
129,799376,DepthScenes,duration_manipulation_targetAtFixation,jsons/v1_VE250_randls_77_rotated.json,http://54.235.29.9/FacialAge/BNav_EC2/DepthDuration/v2_depth_duration_MTurk/v2_DepthDuration_HTML.html#62,62,1536,722,1536,864,9-3-2022,9-31-21,130,depth_duration_stimuli/002989_2014-06-15_12-25-03_094959634447_rgbf000150-resize_3/002989_2014-06-15_12-25-03_094959634447_rgbf000150-resize_3-target.png,250,4.1975,0.3,3790,246,meters,jsons/v1_VE250_randls_77_rotated.json,782624,901703,55,Woman
130,799376,DepthScenes,duration_manipulation_targetAtFixation,jsons/v1_VE250_randls_77_rotated.json,http://54.235.29.9/FacialAge/BNav_EC2/DepthDuration/v2_depth_duration_MTurk/v2_DepthDuration_HTML.html#62,62,1536,722,1536,864,9-3-2022,9-31-21,131,depth_duration_stimuli/001235_2014-06-17_16-37-36_260595134347_rgbf000084-resize_4/001235_2014-06-17_16-37-36_260595134347_rgbf000084-resize_4-target.png,250,3.6605,0.2,4104,240,meters,jsons/v1_VE250_randls_77_rotated.json,782624,901703,55,Woman
131,799376,DepthScenes,duration_manipulation_targetAtFixation,jsons/v1_VE250_randls_77_rotated.json,http://54.235.29.9/FacialAge/BNav_EC2/DepthDuration/v2_depth_duration_MTurk/v2_DepthDuration_HTML.html#62,62,1536,722,1536,864,9-3-2022,9-31-21,132,depth_duration_stimuli/000788_2014-06-08_22-34-36_260595134347_rgbf000131-resize_1/000788_2014-06-08_22-34-36_260595134347_rgbf000131-resize_1-target.png,250,3.359,0.3,3792,254,meters,jsons/v1_VE250_randls_77_rotated.json,782624,901703,55,Woman
132,799376,DepthScenes,duration_manipulation_targetAtFixation,jsons/v1_VE250_randls_77_rotated.json,http://54.235.29.9/FacialAge/BNav_EC2/DepthDuration/v2_depth_duration_MTurk/v2_DepthDuration_HTML.html#62,62,1536,722,1536,864,9-3-2022,9-31-21,133,depth_duration_stimuli/003081_2014-06-15_15-19-16_094959634447_rgbf000150-resize_1/003081_2014-06-15_15-19-16_094959634447_rgbf000150-resize_1-target.png,250,3.9125,0.6,3345,221,meters,jsons/v1_VE250_randls_77_rotated.json,782624,901703,55,Woman
133,799376,DepthScenes,duration_manipulation_targetAtFixation,jsons/v1_VE250_randls_77_rotated.json,http://54.235.29.9/FacialAge/BNav_EC2/DepthDuration/v2_depth_duration_MTurk/v2_DepthDuration_HTML.html#62,62,1536,722,1536,864,9-3-2022,9-31-21,134,depth_duration_stimuli/001417_2014-06-19_16-25-36_260595134347_rgbf000115-resize_5/001417_2014-06-19_16-25-36_260595134347_rgbf000115-resize_5-target.png,250,4.6255,0.3,3865,251,meters,jsons/v1_VE250_randls_77_rotated.json,782624,901703,55,Woman
134,799376,DepthScenes,duration_manipulation_targetAtFixation,jsons/v1_VE250_randls_77_rotated.json,http://54.235.29.9/FacialAge/BNav_EC2/DepthDuration/v2_depth_duration_MTurk/v2_DepthDuration_HTML.html#62,62,1536,722,1536,864,9-3-2022,9-31-21,135,depth_duration_stimuli/000375_2014-06-08_11-17-29_260595134347_rgbf000133-resize_2/000375_2014-06-08_11-17-29_260595134347_rgbf000133-resize-original.jpg,250,4.718,0.0,2875,322,meters,jsons/v1_VE250_randls_77_rotated.json,782624,901703,55,Woman
135,799376,DepthScenes,duration_manipulation_targetAtFixation,jsons/v1_VE250_randls_77_rotated.json,http://54.235.29.9/FacialAge/BNav_EC2/DepthDuration/v2_depth_duration_MTurk/v2_DepthDuration_HTML.html#62,62,1536,722,1536,864,9-3-2022,9-31-21,136,depth_duration_stimuli/002340_2014-06-28_20-05-46_260595134347_rgbf000113-resize_0/002340_2014-06-28_20-05-46_260595134347_rgbf000113-resize_0-target.png,250,2.4735,0.0,3775,329,meters,jsons/v1_VE250_randls_77_rotated.json,782624,901703,55,Woman
136,799376,DepthScenes,duration_manipulation_targetAtFixation,jsons/v1_VE250_randls_77_rotated.json,http://54.235.29.9/FacialAge/BNav_EC2/DepthDuration/v2_depth_duration_MTurk/v2_DepthDuration_HTML.html#62,62,1536,722,1536,864,9-3-2022,9-31-21,137,depth_duration_stimuli/001016_2014-06-09_16-16-10_260595134347_rgbf000112-resize_5/001016_2014-06-09_16-16-10_260595134347_rgbf000112-resize_5-target.png,250,1.6565,0.2,5161,221,meters,jsons/v1_VE250_randls_77_rotated.json,782624,901703,55,Woman
137,799376,DepthScenes,duration_manipulation_targetAtFixation,jsons/v1_VE250_randls_77_rotated.json,http://54.235.29.9/FacialAge/BNav_EC2/DepthDuration/v2_depth_duration_MTurk/v2_DepthDuration_HTML.html#62,62,1536,722,1536,864,9-3-2022,9-31-21,138,depth_duration_stimuli/002995_2014-06-15_12-31-26_094959634447_rgbf000150-resize_1/002995_2014-06-15_12-31-26_094959634447_rgbf000150-resize_1-target.png,250,3.8360000000000003,0.0,4896,262,meters,jsons/v1_VE250_randls_77_rotated.json,782624,901703,55,Woman
138,799376,DepthScenes,duration_manipulation_targetAtFixation,jsons/v1_VE250_randls_77_rotated.json,http://54.235.29.9/FacialAge/BNav_EC2/DepthDuration/v2_depth_duration_MTurk/v2_DepthDuration_HTML.html#62,62,1536,722,1536,864,9-3-2022,9-31-21,139,depth_duration_stimuli/002748_2014-06-22_19-07-22_094959634447_rgbf000078-resize_1/002748_2014-06-22_19-07-22_094959634447_rgbf000078-resize_1-target.png,250,4.6705,0.1,4022,249,meters,jsons/v1_VE250_randls_77_rotated.json,782624,901703,55,Woman
139,799376,DepthScenes,duration_manipulation_targetAtFixation,jsons/v1_VE250_randls_77_rotated.json,http://54.235.29.9/FacialAge/BNav_EC2/DepthDuration/v2_depth_duration_MTurk/v2_DepthDuration_HTML.html#62,62,1536,722,1536,864,9-3-2022,9-31-21,140,depth_duration_stimuli/002639_2014-06-24_14-51-37_094959634447_rgbf000074-resize_4/002639_2014-06-24_14-51-37_094959634447_rgbf000074-resize_4-target.png,250,4.0375,0.3,4045,249,meters,jsons/v1_VE250_randls_77_rotated.json,782624,901703,55,Woman
140,799376,DepthScenes,duration_manipulation_targetAtFixation,jsons/v1_VE250_randls_77_rotated.json,http://54.235.29.9/FacialAge/BNav_EC2/DepthDuration/v2_depth_duration_MTurk/v2_DepthDuration_HTML.html#62,62,1536,722,1536,864,9-3-2022,9-31-21,141,depth_duration_stimuli/003292_2014-05-14_21-53-49_094959634447_rgbf000100-resize_2/003292_2014-05-14_21-53-49_094959634447_rgbf000100-resize_2-target.png,250,3.4815,0.6,3735,248,meters,jsons/v1_VE250_randls_77_rotated.json,782624,901703,55,Woman
141,799376,DepthScenes,duration_manipulation_targetAtFixation,jsons/v1_VE250_randls_77_rotated.json,http://54.235.29.9/FacialAge/BNav_EC2/DepthDuration/v2_depth_duration_MTurk/v2_DepthDuration_HTML.html#62,62,1536,722,1536,864,9-3-2022,9-31-21,142,depth_duration_stimuli/002467_2014-06-28_20-38-07_260595134347_rgbf000026-resize_2/002467_2014-06-28_20-38-07_260595134347_rgbf000026-resize_2-target.png,250,4.742,0.2,3321,248,meters,jsons/v1_VE250_randls_77_rotated.json,782624,901703,55,Woman
142,799376,DepthScenes,duration_manipulation_targetAtFixation,jsons/v1_VE250_randls_77_rotated.json,http://54.235.29.9/FacialAge/BNav_EC2/DepthDuration/v2_depth_duration_MTurk/v2_DepthDuration_HTML.html#62,62,1536,722,1536,864,9-3-2022,9-31-21,143,depth_duration_stimuli/002570_2014-06-24_13-59-54_094959634447_rgbf000059-resize_0/002570_2014-06-24_13-59-54_094959634447_rgbf000059-resize_0-target.png,250,4.037,0.3,3248,263,meters,jsons/v1_VE250_randls_77_rotated.json,782624,901703,55,Woman
143,799376,DepthScenes,duration_manipulation_targetAtFixation,jsons/v1_VE250_randls_77_rotated.json,http://54.235.29.9/FacialAge/BNav_EC2/DepthDuration/v2_depth_duration_MTurk/v2_DepthDuration_HTML.html#62,62,1536,722,1536,864,9-3-2022,9-31-21,144,depth_duration_stimuli/003129_2014-05-12_10-48-10_094959634447_rgbf000100-resize_0/003129_2014-05-12_10-48-10_094959634447_rgbf000100-resize_0-target.png,250,4.9305,0.2,3415,251,meters,jsons/v1_VE250_randls_77_rotated.json,782624,901703,55,Woman
144,799376,DepthScenes,duration_manipulation_targetAtFixation,jsons/v1_VE250_randls_77_rotated.json,http://54.235.29.9/FacialAge/BNav_EC2/DepthDuration/v2_depth_duration_MTurk/v2_DepthDuration_HTML.html#62,62,1536,722,1536,864,9-3-2022,9-31-21,145,depth_duration_stimuli/000414_2014-06-04_19-49-13_260595134347_rgbf000044-resize_0/000414_2014-06-04_19-49-13_260595134347_rgbf000044-resize_0-target.png,250,4.329,0.6,3942,236,meters,jsons/v1_VE250_randls_77_rotated.json,782624,901703,55,Woman
145,799376,DepthScenes,duration_manipulation_targetAtFixation,jsons/v1_VE250_randls_77_rotated.json,http://54.235.29.9/FacialAge/BNav_EC2/DepthDuration/v2_depth_duration_MTurk/v2_DepthDuration_HTML.html#62,62,1536,722,1536,864,9-3-2022,9-31-21,146,depth_duration_stimuli/002949_2014-06-26_15-57-42_094959634447_rgbf000079-resize_1/002949_2014-06-26_15-57-42_094959634447_rgbf000079-resize_1-target.png,250,1.8915,0.3,3347,246,meters,jsons/v1_VE250_randls_77_rotated.json,782624,901703,55,Woman
146,799376,DepthScenes,duration_manipulation_targetAtFixation,jsons/v1_VE250_randls_77_rotated.json,http://54.235.29.9/FacialAge/BNav_EC2/DepthDuration/v2_depth_duration_MTurk/v2_DepthDuration_HTML.html#62,62,1536,722,1536,864,9-3-2022,9-31-21,147,depth_duration_stimuli/000522_2014-06-08_13-35-06_260595134347_rgbf000244-resize_1/000522_2014-06-08_13-35-06_260595134347_rgbf000244-resize_1-target.png,250,2.3715,0.6,3496,233,meters,jsons/v1_VE250_randls_77_rotated.json,782624,901703,55,Woman
147,799376,DepthScenes,duration_manipulation_targetAtFixation,jsons/v1_VE250_randls_77_rotated.json,http://54.235.29.9/FacialAge/BNav_EC2/DepthDuration/v2_depth_duration_MTurk/v2_DepthDuration_HTML.html#62,62,1536,722,1536,864,9-3-2022,9-31-21,148,depth_duration_stimuli/003587_2014-05-23_16-48-02_094959634447_rgbf002384-resize_2/003587_2014-05-23_16-48-02_094959634447_rgbf002384-resize_2-target.png,250,1.357,0.2,4281,253,meters,jsons/v1_VE250_randls_77_rotated.json,782624,901703,55,Woman
148,799376,DepthScenes,duration_manipulation_targetAtFixation,jsons/v1_VE250_randls_77_rotated.json,http://54.235.29.9/FacialAge/BNav_EC2/DepthDuration/v2_depth_duration_MTurk/v2_DepthDuration_HTML.html#62,62,1536,722,1536,864,9-3-2022,9-31-21,149,depth_duration_stimuli/001167_2014-06-17_15-38-07_260595134347_rgbf000108-resize_0/001167_2014-06-17_15-38-07_260595134347_rgbf000108-resize_0-target.png,250,1.8505,0.2,3220,247,meters,jsons/v1_VE250_randls_77_rotated.json,782624,901703,55,Woman
149,799376,DepthScenes,duration_manipulation_targetAtFixation,jsons/v1_VE250_randls_77_rotated.json,http://54.235.29.9/FacialAge/BNav_EC2/DepthDuration/v2_depth_duration_MTurk/v2_DepthDuration_HTML.html#62,62,1536,722,1536,864,9-3-2022,9-31-21,150,depth_duration_stimuli/001214_2014-06-17_16-13-55_260595134347_rgbf000111-resize_0/001214_2014-06-17_16-13-55_260595134347_rgbf000111-resize_0-target.png,250,2.6505,0.3,3844,250,meters,jsons/v1_VE250_randls_77_rotated.json,782624,901703,55,Woman
150,799376,DepthScenes,duration_manipulation_targetAtFixation,jsons/v1_VE250_randls_77_rotated.json,http://54.235.29.9/FacialAge/BNav_EC2/DepthDuration/v2_depth_duration_MTurk/v2_DepthDuration_HTML.html#62,62,1536,722,1536,864,9-3-2022,9-31-21,151,depth_duration_stimuli/000810_2014-06-08_17-20-01_260595134347_rgbf000105-resize_0/000810_2014-06-08_17-20-01_260595134347_rgbf000105-resize_0-target.png,250,1.4865,0.3,3594,251,meters,jsons/v1_VE250_randls_77_rotated.json,782624,901703,55,Woman
151,799376,DepthScenes,duration_manipulation_targetAtFixation,jsons/v1_VE250_randls_77_rotated.json,http://54.235.29.9/FacialAge/BNav_EC2/DepthDuration/v2_depth_duration_MTurk/v2_DepthDuration_HTML.html#62,62,1536,722,1536,864,9-3-2022,9-31-21,152,depth_duration_stimuli/000569_2014-06-09_22-51-47_260595134347_rgbf000141-resize_3/000569_2014-06-09_22-51-47_260595134347_rgbf000141-resize-original.jpg,250,4.512,0.3,3719,251,meters,jsons/v1_VE250_randls_77_rotated.json,782624,901703,55,Woman
152,799376,DepthScenes,duration_manipulation_targetAtFixation,jsons/v1_VE250_randls_77_rotated.json,http://54.235.29.9/FacialAge/BNav_EC2/DepthDuration/v2_depth_duration_MTurk/v2_DepthDuration_HTML.html#62,62,1536,722,1536,864,9-3-2022,9-31-21,153,depth_duration_stimuli/003423_2014-05-21_10-23-26_094959634447_rgbf002665-resize_2/003423_2014-05-21_10-23-26_094959634447_rgbf002665-resize_2-target.png,250,3.2575,0.3,3653,250,meters,jsons/v1_VE250_randls_77_rotated.json,782624,901703,55,Woman
153,799376,DepthScenes,duration_manipulation_targetAtFixation,jsons/v1_VE250_randls_77_rotated.json,http://54.235.29.9/FacialAge/BNav_EC2/DepthDuration/v2_depth_duration_MTurk/v2_DepthDuration_HTML.html#62,62,1536,722,1536,864,9-3-2022,9-31-21,154,depth_duration_stimuli/002905_2014-06-03_18-04-43_094959634447_rgbf000151-resize_2/002905_2014-06-03_18-04-43_094959634447_rgbf000151-resize_2-target.png,250,2.0295,0.6,3917,251,meters,jsons/v1_VE250_randls_77_rotated.json,782624,901703,55,Woman
154,799376,DepthScenes,duration_manipulation_targetAtFixation,jsons/v1_VE250_randls_77_rotated.json,http://54.235.29.9/FacialAge/BNav_EC2/DepthDuration/v2_depth_duration_MTurk/v2_DepthDuration_HTML.html#62,62,1536,722,1536,864,9-3-2022,9-31-21,155,depth_duration_stimuli/001392_2014-06-19_16-07-59_260595134347_rgbf000046-resize_1/001392_2014-06-19_16-07-59_260595134347_rgbf000046-resize_1-target.png,250,4.135,0.6,3603,241,meters,jsons/v1_VE250_randls_77_rotated.json,782624,901703,55,Woman
155,799376,DepthScenes,duration_manipulation_targetAtFixation,jsons/v1_VE250_randls_77_rotated.json,http://54.235.29.9/FacialAge/BNav_EC2/DepthDuration/v2_depth_duration_MTurk/v2_DepthDuration_HTML.html#62,62,1536,722,1536,864,9-3-2022,9-31-21,156,depth_duration_stimuli/001570_2014-06-20_17-21-09_260595134347_rgbf000135-resize_4/001570_2014-06-20_17-21-09_260595134347_rgbf000135-resize_4-target.png,250,4.467,0.6,3726,240,meters,jsons/v1_VE250_randls_77_rotated.json,782624,901703,55,Woman
156,799376,DepthScenes,duration_manipulation_targetAtFixation,jsons/v1_VE250_randls_77_rotated.json,http://54.235.29.9/FacialAge/BNav_EC2/DepthDuration/v2_depth_duration_MTurk/v2_DepthDuration_HTML.html#62,62,1536,722,1536,864,9-3-2022,9-31-21,157,depth_duration_stimuli/000709_2014-06-08_13-51-55_260595134347_rgbf000068-resize_3/000709_2014-06-08_13-51-55_260595134347_rgbf000068-resize_3-target.png,250,1.8030000000000002,0.3,6133,240,meters,jsons/v1_VE250_randls_77_rotated.json,782624,901703,55,Woman
157,799376,DepthScenes,duration_manipulation_targetAtFixation,jsons/v1_VE250_randls_77_rotated.json,http://54.235.29.9/FacialAge/BNav_EC2/DepthDuration/v2_depth_duration_MTurk/v2_DepthDuration_HTML.html#62,62,1536,722,1536,864,9-3-2022,9-31-21,158,depth_duration_stimuli/002057_2014-06-24_21-00-13_260595134347_rgbf000120-resize_1/002057_2014-06-24_21-00-13_260595134347_rgbf000120-resize_1-target.png,250,2.967,0.2,4509,252,meters,jsons/v1_VE250_randls_77_rotated.json,782624,901703,55,Woman
158,799376,DepthScenes,duration_manipulation_targetAtFixation,jsons/v1_VE250_randls_77_rotated.json,http://54.235.29.9/FacialAge/BNav_EC2/DepthDuration/v2_depth_duration_MTurk/v2_DepthDuration_HTML.html#62,62,1536,722,1536,864,9-3-2022,9-31-21,159,depth_duration_stimuli/001032_2014-06-08_13-23-17_260595134347_rgbf000021-resize_3/001032_2014-06-08_13-23-17_260595134347_rgbf000021-resize_3-target.png,250,3.2725,0.5,4790,259,meters,jsons/v1_VE250_randls_77_rotated.json,782624,901703,55,Woman
159,799376,DepthScenes,duration_manipulation_targetAtFixation,jsons/v1_VE250_randls_77_rotated.json,http://54.235.29.9/FacialAge/BNav_EC2/DepthDuration/v2_depth_duration_MTurk/v2_DepthDuration_HTML.html#62,62,1536,722,1536,864,9-3-2022,9-31-21,160,depth_duration_stimuli/001059_2014-06-08_21-53-27_260595134347_rgbf000061-resize_4/001059_2014-06-08_21-53-27_260595134347_rgbf000061-resize_4-target.png,250,2.4185,0.2,5953,244,meters,jsons/v1_VE250_randls_77_rotated.json,782624,901703,55,Woman
160,799376,DepthScenes,duration_manipulation_targetAtFixation,jsons/v1_VE250_randls_77_rotated.json,http://54.235.29.9/FacialAge/BNav_EC2/DepthDuration/v2_depth_duration_MTurk/v2_DepthDuration_HTML.html#62,62,1536,722,1536,864,9-3-2022,9-31-21,161,depth_duration_stimuli/002545_2014-06-24_13-38-53_094959634447_rgbf000080-resize_4/002545_2014-06-24_13-38-53_094959634447_rgbf000080-resize_4-target.png,250,1.9205,0.3,4711,256,meters,jsons/v1_VE250_randls_77_rotated.json,782624,901703,55,Woman
161,799376,DepthScenes,duration_manipulation_targetAtFixation,jsons/v1_VE250_randls_77_rotated.json,http://54.235.29.9/FacialAge/BNav_EC2/DepthDuration/v2_depth_duration_MTurk/v2_DepthDuration_HTML.html#62,62,1536,722,1536,864,9-3-2022,9-31-21,162,depth_duration_stimuli/001092_2014-06-15_17-34-58_260595134347_rgbf000171-resize_3/001092_2014-06-15_17-34-58_260595134347_rgbf000171-resize_3-target.png,250,2.6935,0.0,4063,249,meters,jsons/v1_VE250_randls_77_rotated.json,782624,901703,55,Woman
162,799376,DepthScenes,duration_manipulation_targetAtFixation,jsons/v1_VE250_randls_77_rotated.json,http://54.235.29.9/FacialAge/BNav_EC2/DepthDuration/v2_depth_duration_MTurk/v2_DepthDuration_HTML.html#62,62,1536,722,1536,864,9-3-2022,9-31-21,163,depth_duration_stimuli/002444_2014-06-28_20-32-08_260595134347_rgbf000027-resize_0/002444_2014-06-28_20-32-08_260595134347_rgbf000027-resize_0-target.png,250,4.388999999999999,0.2,4453,238,meters,jsons/v1_VE250_randls_77_rotated.json,782624,901703,55,Woman
163,799376,DepthScenes,duration_manipulation_targetAtFixation,jsons/v1_VE250_randls_77_rotated.json,http://54.235.29.9/FacialAge/BNav_EC2/DepthDuration/v2_depth_duration_MTurk/v2_DepthDuration_HTML.html#62,62,1536,722,1536,864,9-3-2022,9-31-21,164,depth_duration_stimuli/000436_2014-06-09_22-25-11_260595134347_rgbf000137-resize_1/000436_2014-06-09_22-25-11_260595134347_rgbf000137-resize_1-target.png,250,4.0705,0.2,3597,257,meters,jsons/v1_VE250_randls_77_rotated.json,782624,901703,55,Woman
