,subjID,experimentName,versionName,sequenceName,url,selected_row,windowWidth,windowHeight,screenWidth,screenHeight,startDate,startTime,trial,stimulus,duration,actual_depth,depth_estimate,trial_RT,log_sceneDuration,unitSelection,seq_filepath,experimentTime,totalTime,age,gender
0,800178,DepthScenes,duration_manipulation_targetAtFixation,jsons/v1_VE1000_randls_34_rotated.json,http://54.235.29.9/FacialAge/BNav_EC2/DepthDuration/v2_depth_duration_MTurk/v2_DepthDuration_HTML.html#76,76,1006,605,1024,768,8-22-2022,5-0-28,1,depth_duration_stimuli/000103_2014-05-14_22-01-17_260595134347_rgbf000152-resize_5/000103_2014-05-14_22-01-17_260595134347_rgbf000152-resize_5-target.png,1000,1.993,2,7272,1271,meters,jsons/v1_VE1000_randls_34_rotated.json,876162,1057482,30,Woman
1,800178,DepthScenes,duration_manipulation_targetAtFixation,jsons/v1_VE1000_randls_34_rotated.json,http://54.235.29.9/FacialAge/BNav_EC2/DepthDuration/v2_depth_duration_MTurk/v2_DepthDuration_HTML.html#76,76,1006,605,1024,768,8-22-2022,5-0-28,2,depth_duration_stimuli/001555_2014-06-20_17-12-10_260595134347_rgbf000065-resize_4/001555_2014-06-20_17-12-10_260595134347_rgbf000065-resize_4-target.png,1000,1.633,2,6440,930,meters,jsons/v1_VE1000_randls_34_rotated.json,876162,1057482,30,Woman
2,800178,DepthScenes,duration_manipulation_targetAtFixation,jsons/v1_VE1000_randls_34_rotated.json,http://54.235.29.9/FacialAge/BNav_EC2/DepthDuration/v2_depth_duration_MTurk/v2_DepthDuration_HTML.html#76,76,1006,605,1024,768,8-22-2022,5-0-28,3,depth_duration_stimuli/001617_2014-06-20_11-35-32_260595134347_rgbf000066-resize_1/001617_2014-06-20_11-35-32_260595134347_rgbf000066-resize_1-target.png,1000,3.7910000000000004,1,6399,978,meters,jsons/v1_VE1000_randls_34_rotated.json,876162,1057482,30,Woman
3,800178,DepthScenes,duration_manipulation_targetAtFixation,jsons/v1_VE1000_randls_34_rotated.json,http://54.235.29.9/FacialAge/BNav_EC2/DepthDuration/v2_depth_duration_MTurk/v2_DepthDuration_HTML.html#76,76,1006,605,1024,768,8-22-2022,5-0-28,4,depth_duration_stimuli/001806_2014-06-26_20-50-20_260595134347_rgbf000091-resize_1/001806_2014-06-26_20-50-20_260595134347_rgbf000091-resize_1-target.png,1000,2.7305,2,3311,1047,meters,jsons/v1_VE1000_randls_34_rotated.json,876162,1057482,30,Woman
4,800178,DepthScenes,duration_manipulation_targetAtFixation,jsons/v1_VE1000_randls_34_rotated.json,http://54.235.29.9/FacialAge/BNav_EC2/DepthDuration/v2_depth_duration_MTurk/v2_DepthDuration_HTML.html#76,76,1006,605,1024,768,8-22-2022,5-0-28,5,depth_duration_stimuli/003228_2014-05-14_13-42-35_094959634447_rgbf000101-resize_1/003228_2014-05-14_13-42-35_094959634447_rgbf000101-resize_1-target.png,1000,1.9680000000000002,2,4524,1000,meters,jsons/v1_VE1000_randls_34_rotated.json,876162,1057482,30,Woman
5,800178,DepthScenes,duration_manipulation_targetAtFixation,jsons/v1_VE1000_randls_34_rotated.json,http://54.235.29.9/FacialAge/BNav_EC2/DepthDuration/v2_depth_duration_MTurk/v2_DepthDuration_HTML.html#76,76,1006,605,1024,768,8-22-2022,5-0-28,6,depth_duration_stimuli/002600_2014-06-24_14-27-04_094959634447_rgbf000074-resize_2/002600_2014-06-24_14-27-04_094959634447_rgbf000074-resize_2-target.png,1000,2.7575,1,3629,959,meters,jsons/v1_VE1000_randls_34_rotated.json,876162,1057482,30,Woman
6,800178,DepthScenes,duration_manipulation_targetAtFixation,jsons/v1_VE1000_randls_34_rotated.json,http://54.235.29.9/FacialAge/BNav_EC2/DepthDuration/v2_depth_duration_MTurk/v2_DepthDuration_HTML.html#76,76,1006,605,1024,768,8-22-2022,5-0-28,7,depth_duration_stimuli/001032_2014-06-08_13-23-17_260595134347_rgbf000021-resize_3/001032_2014-06-08_13-23-17_260595134347_rgbf000021-resize_3-target.png,1000,3.2725,2,4499,1066,meters,jsons/v1_VE1000_randls_34_rotated.json,876162,1057482,30,Woman
7,800178,DepthScenes,duration_manipulation_targetAtFixation,jsons/v1_VE1000_randls_34_rotated.json,http://54.235.29.9/FacialAge/BNav_EC2/DepthDuration/v2_depth_duration_MTurk/v2_DepthDuration_HTML.html#76,76,1006,605,1024,768,8-22-2022,5-0-28,8,depth_duration_stimuli/001059_2014-06-08_21-53-27_260595134347_rgbf000061-resize_4/001059_2014-06-08_21-53-27_260595134347_rgbf000061-resize_4-target.png,1000,2.4185,2,3884,984,meters,jsons/v1_VE1000_randls_34_rotated.json,876162,1057482,30,Woman
8,800178,DepthScenes,duration_manipulation_targetAtFixation,jsons/v1_VE1000_randls_34_rotated.json,http://54.235.29.9/FacialAge/BNav_EC2/DepthDuration/v2_depth_duration_MTurk/v2_DepthDuration_HTML.html#76,76,1006,605,1024,768,8-22-2022,5-0-28,9,depth_duration_stimuli/003495_2014-05-21_16-01-51_094959634447_rgbf000100-resize_3/003495_2014-05-21_16-01-51_094959634447_rgbf000100-resize_3-target.png,1000,1.6255,3,7008,1116,meters,jsons/v1_VE1000_randls_34_rotated.json,876162,1057482,30,Woman
9,800178,DepthScenes,duration_manipulation_targetAtFixation,jsons/v1_VE1000_randls_34_rotated.json,http://54.235.29.9/FacialAge/BNav_EC2/DepthDuration/v2_depth_duration_MTurk/v2_DepthDuration_HTML.html#76,76,1006,605,1024,768,8-22-2022,5-0-28,10,depth_duration_stimuli/001244_2014-06-17_16-47-45_260595134347_rgbf000030-resize_4/001244_2014-06-17_16-47-45_260595134347_rgbf000030-resize_4-target.png,1000,2.0425,2,3807,1761,meters,jsons/v1_VE1000_randls_34_rotated.json,876162,1057482,30,Woman
10,800178,DepthScenes,duration_manipulation_targetAtFixation,jsons/v1_VE1000_randls_34_rotated.json,http://54.235.29.9/FacialAge/BNav_EC2/DepthDuration/v2_depth_duration_MTurk/v2_DepthDuration_HTML.html#76,76,1006,605,1024,768,8-22-2022,5-0-28,11,depth_duration_stimuli/002425_2014-06-28_20-27-29_260595134347_rgbf000031-resize_8/002425_2014-06-28_20-27-29_260595134347_rgbf000031-resize_8-target.png,1000,3.8960000000000004,2,5230,996,meters,jsons/v1_VE1000_randls_34_rotated.json,876162,1057482,30,Woman
11,800178,DepthScenes,duration_manipulation_targetAtFixation,jsons/v1_VE1000_randls_34_rotated.json,http://54.235.29.9/FacialAge/BNav_EC2/DepthDuration/v2_depth_duration_MTurk/v2_DepthDuration_HTML.html#76,76,1006,605,1024,768,8-22-2022,5-0-28,12,depth_duration_stimuli/000642_2014-06-08_16-59-25_260595134347_rgbf000098-resize_2/000642_2014-06-08_16-59-25_260595134347_rgbf000098-resize_2-target.png,1000,2.8815,2,4086,1000,meters,jsons/v1_VE1000_randls_34_rotated.json,876162,1057482,30,Woman
12,800178,DepthScenes,duration_manipulation_targetAtFixation,jsons/v1_VE1000_randls_34_rotated.json,http://54.235.29.9/FacialAge/BNav_EC2/DepthDuration/v2_depth_duration_MTurk/v2_DepthDuration_HTML.html#76,76,1006,605,1024,768,8-22-2022,5-0-28,13,depth_duration_stimuli/001571_2014-06-20_17-21-32_260595134347_rgbf000089-resize_1/001571_2014-06-20_17-21-32_260595134347_rgbf000089-resize_1-target.png,1000,1.86,1,5643,1662,meters,jsons/v1_VE1000_randls_34_rotated.json,876162,1057482,30,Woman
13,800178,DepthScenes,duration_manipulation_targetAtFixation,jsons/v1_VE1000_randls_34_rotated.json,http://54.235.29.9/FacialAge/BNav_EC2/DepthDuration/v2_depth_duration_MTurk/v2_DepthDuration_HTML.html#76,76,1006,605,1024,768,8-22-2022,5-0-28,14,depth_duration_stimuli/002272_2014-06-28_18-53-56_260595134347_rgbf000067-resize_2/002272_2014-06-28_18-53-56_260595134347_rgbf000067-resize_2-target.png,1000,1.138,2,5451,1343,meters,jsons/v1_VE1000_randls_34_rotated.json,876162,1057482,30,Woman
14,800178,DepthScenes,duration_manipulation_targetAtFixation,jsons/v1_VE1000_randls_34_rotated.json,http://54.235.29.9/FacialAge/BNav_EC2/DepthDuration/v2_depth_duration_MTurk/v2_DepthDuration_HTML.html#76,76,1006,605,1024,768,8-22-2022,5-0-28,15,depth_duration_stimuli/003048_2014-06-15_13-49-43_094959634447_rgbf000150-resize_1/003048_2014-06-15_13-49-43_094959634447_rgbf000150-resize_1-target.png,1000,4.0035,3,6749,909,meters,jsons/v1_VE1000_randls_34_rotated.json,876162,1057482,30,Woman
15,800178,DepthScenes,duration_manipulation_targetAtFixation,jsons/v1_VE1000_randls_34_rotated.json,http://54.235.29.9/FacialAge/BNav_EC2/DepthDuration/v2_depth_duration_MTurk/v2_DepthDuration_HTML.html#76,76,1006,605,1024,768,8-22-2022,5-0-28,16,depth_duration_stimuli/002043_2014-06-24_20-29-38_260595134347_rgbf000039-resize_4/002043_2014-06-24_20-29-38_260595134347_rgbf000039-resize_4-target.png,1000,2.8435,2,4827,1005,meters,jsons/v1_VE1000_randls_34_rotated.json,876162,1057482,30,Woman
16,800178,DepthScenes,duration_manipulation_targetAtFixation,jsons/v1_VE1000_randls_34_rotated.json,http://54.235.29.9/FacialAge/BNav_EC2/DepthDuration/v2_depth_duration_MTurk/v2_DepthDuration_HTML.html#76,76,1006,605,1024,768,8-22-2022,5-0-28,17,depth_duration_stimuli/001214_2014-06-17_16-13-55_260595134347_rgbf000111-resize_0/001214_2014-06-17_16-13-55_260595134347_rgbf000111-resize_0-target.png,1000,2.6505,2,6638,1012,meters,jsons/v1_VE1000_randls_34_rotated.json,876162,1057482,30,Woman
17,800178,DepthScenes,duration_manipulation_targetAtFixation,jsons/v1_VE1000_randls_34_rotated.json,http://54.235.29.9/FacialAge/BNav_EC2/DepthDuration/v2_depth_duration_MTurk/v2_DepthDuration_HTML.html#76,76,1006,605,1024,768,8-22-2022,5-0-28,18,depth_duration_stimuli/000810_2014-06-08_17-20-01_260595134347_rgbf000105-resize_0/000810_2014-06-08_17-20-01_260595134347_rgbf000105-resize_0-target.png,1000,1.4865,3,4160,1011,meters,jsons/v1_VE1000_randls_34_rotated.json,876162,1057482,30,Woman
18,800178,DepthScenes,duration_manipulation_targetAtFixation,jsons/v1_VE1000_randls_34_rotated.json,http://54.235.29.9/FacialAge/BNav_EC2/DepthDuration/v2_depth_duration_MTurk/v2_DepthDuration_HTML.html#76,76,1006,605,1024,768,8-22-2022,5-0-28,19,depth_duration_stimuli/001498_2014-06-19_17-45-14_260595134347_rgbf000129-resize_4/001498_2014-06-19_17-45-14_260595134347_rgbf000129-resize-original.jpg,1000,1.4075,2,4657,773,meters,jsons/v1_VE1000_randls_34_rotated.json,876162,1057482,30,Woman
19,800178,DepthScenes,duration_manipulation_targetAtFixation,jsons/v1_VE1000_randls_34_rotated.json,http://54.235.29.9/FacialAge/BNav_EC2/DepthDuration/v2_depth_duration_MTurk/v2_DepthDuration_HTML.html#76,76,1006,605,1024,768,8-22-2022,5-0-28,20,depth_duration_stimuli/002444_2014-06-28_20-32-08_260595134347_rgbf000027-resize_0/002444_2014-06-28_20-32-08_260595134347_rgbf000027-resize_0-target.png,1000,4.388999999999999,3,4660,998,meters,jsons/v1_VE1000_randls_34_rotated.json,876162,1057482,30,Woman
20,800178,DepthScenes,duration_manipulation_targetAtFixation,jsons/v1_VE1000_randls_34_rotated.json,http://54.235.29.9/FacialAge/BNav_EC2/DepthDuration/v2_depth_duration_MTurk/v2_DepthDuration_HTML.html#76,76,1006,605,1024,768,8-22-2022,5-0-28,21,depth_duration_stimuli/000436_2014-06-09_22-25-11_260595134347_rgbf000137-resize_1/000436_2014-06-09_22-25-11_260595134347_rgbf000137-resize_1-target.png,1000,4.0705,2,3552,999,meters,jsons/v1_VE1000_randls_34_rotated.json,876162,1057482,30,Woman
21,800178,DepthScenes,duration_manipulation_targetAtFixation,jsons/v1_VE1000_randls_34_rotated.json,http://54.235.29.9/FacialAge/BNav_EC2/DepthDuration/v2_depth_duration_MTurk/v2_DepthDuration_HTML.html#76,76,1006,605,1024,768,8-22-2022,5-0-28,22,depth_duration_stimuli/002637_2014-06-24_14-51-13_094959634447_rgbf000066-resize_4/002637_2014-06-24_14-51-13_094959634447_rgbf000066-resize_4-target.png,1000,1.9955,2,5256,997,meters,jsons/v1_VE1000_randls_34_rotated.json,876162,1057482,30,Woman
22,800178,DepthScenes,duration_manipulation_targetAtFixation,jsons/v1_VE1000_randls_34_rotated.json,http://54.235.29.9/FacialAge/BNav_EC2/DepthDuration/v2_depth_duration_MTurk/v2_DepthDuration_HTML.html#76,76,1006,605,1024,768,8-22-2022,5-0-28,23,depth_duration_stimuli/003534_2014-05-22_15-06-10_094959634447_rgbf000102-resize_4/003534_2014-05-22_15-06-10_094959634447_rgbf000102-resize_4-target.png,1000,1.426,3,3439,999,meters,jsons/v1_VE1000_randls_34_rotated.json,876162,1057482,30,Woman
23,800178,DepthScenes,duration_manipulation_targetAtFixation,jsons/v1_VE1000_randls_34_rotated.json,http://54.235.29.9/FacialAge/BNav_EC2/DepthDuration/v2_depth_duration_MTurk/v2_DepthDuration_HTML.html#76,76,1006,605,1024,768,8-22-2022,5-0-28,24,depth_duration_stimuli/001447_2014-06-19_17-00-32_260595134347_rgbf000082-resize_5/001447_2014-06-19_17-00-32_260595134347_rgbf000082-resize_5-target.png,1000,4.13775,2,4114,1017,meters,jsons/v1_VE1000_randls_34_rotated.json,876162,1057482,30,Woman
24,800178,DepthScenes,duration_manipulation_targetAtFixation,jsons/v1_VE1000_randls_34_rotated.json,http://54.235.29.9/FacialAge/BNav_EC2/DepthDuration/v2_depth_duration_MTurk/v2_DepthDuration_HTML.html#76,76,1006,605,1024,768,8-22-2022,5-0-28,25,depth_duration_stimuli/000447_2014-06-08_16-15-46_260595134347_rgbf000130-resize_1/000447_2014-06-08_16-15-46_260595134347_rgbf000130-resize_1-target.png,1000,4.479,1,5070,2086,meters,jsons/v1_VE1000_randls_34_rotated.json,876162,1057482,30,Woman
25,800178,DepthScenes,duration_manipulation_targetAtFixation,jsons/v1_VE1000_randls_34_rotated.json,http://54.235.29.9/FacialAge/BNav_EC2/DepthDuration/v2_depth_duration_MTurk/v2_DepthDuration_HTML.html#76,76,1006,605,1024,768,8-22-2022,5-0-28,26,depth_duration_stimuli/000854_2014-06-09_19-43-13_260595134347_rgbf000066-resize_0/000854_2014-06-09_19-43-13_260595134347_rgbf000066-resize_0-target.png,1000,3.068,2,5271,998,meters,jsons/v1_VE1000_randls_34_rotated.json,876162,1057482,30,Woman
26,800178,DepthScenes,duration_manipulation_targetAtFixation,jsons/v1_VE1000_randls_34_rotated.json,http://54.235.29.9/FacialAge/BNav_EC2/DepthDuration/v2_depth_duration_MTurk/v2_DepthDuration_HTML.html#76,76,1006,605,1024,768,8-22-2022,5-0-28,27,depth_duration_stimuli/000758_2014-06-08_22-05-08_260595134347_rgbf000085-resize_0/000758_2014-06-08_22-05-08_260595134347_rgbf000085-resize_0-target.png,1000,3.3810000000000002,1,2516,1,meters,jsons/v1_VE1000_randls_34_rotated.json,876162,1057482,30,Woman
27,800178,DepthScenes,duration_manipulation_targetAtFixation,jsons/v1_VE1000_randls_34_rotated.json,http://54.235.29.9/FacialAge/BNav_EC2/DepthDuration/v2_depth_duration_MTurk/v2_DepthDuration_HTML.html#76,76,1006,605,1024,768,8-22-2022,5-0-28,28,depth_duration_stimuli/001052_2014-06-08_18-24-54_260595134347_rgbf000130-resize_1/001052_2014-06-08_18-24-54_260595134347_rgbf000130-resize_1-target.png,1000,4.1045,3,7526,995,meters,jsons/v1_VE1000_randls_34_rotated.json,876162,1057482,30,Woman
28,800178,DepthScenes,duration_manipulation_targetAtFixation,jsons/v1_VE1000_randls_34_rotated.json,http://54.235.29.9/FacialAge/BNav_EC2/DepthDuration/v2_depth_duration_MTurk/v2_DepthDuration_HTML.html#76,76,1006,605,1024,768,8-22-2022,5-0-28,29,depth_duration_stimuli/002988_2014-06-15_12-24-20_094959634447_rgbf000150-resize_1/002988_2014-06-15_12-24-20_094959634447_rgbf000150-resize_1-target.png,1000,4.7669999999999995,2,9466,999,meters,jsons/v1_VE1000_randls_34_rotated.json,876162,1057482,30,Woman
29,800178,DepthScenes,duration_manipulation_targetAtFixation,jsons/v1_VE1000_randls_34_rotated.json,http://54.235.29.9/FacialAge/BNav_EC2/DepthDuration/v2_depth_duration_MTurk/v2_DepthDuration_HTML.html#76,76,1006,605,1024,768,8-22-2022,5-0-28,30,depth_duration_stimuli/002072_2014-06-24_21-48-06_260595134347_rgbf000115-resize_0/002072_2014-06-24_21-48-06_260595134347_rgbf000115-resize-original.jpg,1000,4.702,1,8044,138,meters,jsons/v1_VE1000_randls_34_rotated.json,876162,1057482,30,Woman
30,800178,DepthScenes,duration_manipulation_targetAtFixation,jsons/v1_VE1000_randls_34_rotated.json,http://54.235.29.9/FacialAge/BNav_EC2/DepthDuration/v2_depth_duration_MTurk/v2_DepthDuration_HTML.html#76,76,1006,605,1024,768,8-22-2022,5-0-28,31,depth_duration_stimuli/002209_2014-06-28_18-36-10_260595134347_rgbf000051-resize_1/002209_2014-06-28_18-36-10_260595134347_rgbf000051-resize_1-target.png,1000,2.057,2,5863,933,meters,jsons/v1_VE1000_randls_34_rotated.json,876162,1057482,30,Woman
31,800178,DepthScenes,duration_manipulation_targetAtFixation,jsons/v1_VE1000_randls_34_rotated.json,http://54.235.29.9/FacialAge/BNav_EC2/DepthDuration/v2_depth_duration_MTurk/v2_DepthDuration_HTML.html#76,76,1006,605,1024,768,8-22-2022,5-0-28,32,depth_duration_stimuli/002763_2014-06-22_19-13-10_094959634447_rgbf000075-resize_4/002763_2014-06-22_19-13-10_094959634447_rgbf000075-resize_4-target.png,1000,1.68375,3,4768,179,meters,jsons/v1_VE1000_randls_34_rotated.json,876162,1057482,30,Woman
32,800178,DepthScenes,duration_manipulation_targetAtFixation,jsons/v1_VE1000_randls_34_rotated.json,http://54.235.29.9/FacialAge/BNav_EC2/DepthDuration/v2_depth_duration_MTurk/v2_DepthDuration_HTML.html#76,76,1006,605,1024,768,8-22-2022,5-0-28,33,depth_duration_stimuli/002758_2014-06-22_19-11-20_094959634447_rgbf000128-resize_1/002758_2014-06-22_19-11-20_094959634447_rgbf000128-resize_1-target.png,1000,2.555,2,4466,2197,meters,jsons/v1_VE1000_randls_34_rotated.json,876162,1057482,30,Woman
33,800178,DepthScenes,duration_manipulation_targetAtFixation,jsons/v1_VE1000_randls_34_rotated.json,http://54.235.29.9/FacialAge/BNav_EC2/DepthDuration/v2_depth_duration_MTurk/v2_DepthDuration_HTML.html#76,76,1006,605,1024,768,8-22-2022,5-0-28,34,depth_duration_stimuli/002630_2014-06-24_14-47-50_094959634447_rgbf000055-resize_1/002630_2014-06-24_14-47-50_094959634447_rgbf000055-resize_1-target.png,1000,3.0095,2,4596,1010,meters,jsons/v1_VE1000_randls_34_rotated.json,876162,1057482,30,Woman
34,800178,DepthScenes,duration_manipulation_targetAtFixation,jsons/v1_VE1000_randls_34_rotated.json,http://54.235.29.9/FacialAge/BNav_EC2/DepthDuration/v2_depth_duration_MTurk/v2_DepthDuration_HTML.html#76,76,1006,605,1024,768,8-22-2022,5-0-28,35,depth_duration_stimuli/002344_2014-06-28_20-06-29_260595134347_rgbf000030-resize_1/002344_2014-06-28_20-06-29_260595134347_rgbf000030-resize_1-target.png,1000,1.5795,2,5901,1431,meters,jsons/v1_VE1000_randls_34_rotated.json,876162,1057482,30,Woman
35,800178,DepthScenes,duration_manipulation_targetAtFixation,jsons/v1_VE1000_randls_34_rotated.json,http://54.235.29.9/FacialAge/BNav_EC2/DepthDuration/v2_depth_duration_MTurk/v2_DepthDuration_HTML.html#76,76,1006,605,1024,768,8-22-2022,5-0-28,36,depth_duration_stimuli/002725_2014-06-22_11-47-51_094959634447_rgbf000070-resize_1/002725_2014-06-22_11-47-51_094959634447_rgbf000070-resize_1-target.png,1000,2.195,3,3296,1024,meters,jsons/v1_VE1000_randls_34_rotated.json,876162,1057482,30,Woman
36,800178,DepthScenes,duration_manipulation_targetAtFixation,jsons/v1_VE1000_randls_34_rotated.json,http://54.235.29.9/FacialAge/BNav_EC2/DepthDuration/v2_depth_duration_MTurk/v2_DepthDuration_HTML.html#76,76,1006,605,1024,768,8-22-2022,5-0-28,37,depth_duration_stimuli/003081_2014-06-15_15-19-16_094959634447_rgbf000150-resize_1/003081_2014-06-15_15-19-16_094959634447_rgbf000150-resize_1-target.png,1000,3.9125,2,4377,2405,meters,jsons/v1_VE1000_randls_34_rotated.json,876162,1057482,30,Woman
37,800178,DepthScenes,duration_manipulation_targetAtFixation,jsons/v1_VE1000_randls_34_rotated.json,http://54.235.29.9/FacialAge/BNav_EC2/DepthDuration/v2_depth_duration_MTurk/v2_DepthDuration_HTML.html#76,76,1006,605,1024,768,8-22-2022,5-0-28,38,depth_duration_stimuli/001417_2014-06-19_16-25-36_260595134347_rgbf000115-resize_5/001417_2014-06-19_16-25-36_260595134347_rgbf000115-resize_5-target.png,1000,4.6255,3,5448,980,meters,jsons/v1_VE1000_randls_34_rotated.json,876162,1057482,30,Woman
38,800178,DepthScenes,duration_manipulation_targetAtFixation,jsons/v1_VE1000_randls_34_rotated.json,http://54.235.29.9/FacialAge/BNav_EC2/DepthDuration/v2_depth_duration_MTurk/v2_DepthDuration_HTML.html#76,76,1006,605,1024,768,8-22-2022,5-0-28,39,depth_duration_stimuli/000457_2014-06-08_16-52-43_260595134347_rgbf000199-resize_1/000457_2014-06-08_16-52-43_260595134347_rgbf000199-resize_1-target.png,1000,3.6489999999999996,2,3932,529,meters,jsons/v1_VE1000_randls_34_rotated.json,876162,1057482,30,Woman
39,800178,DepthScenes,duration_manipulation_targetAtFixation,jsons/v1_VE1000_randls_34_rotated.json,http://54.235.29.9/FacialAge/BNav_EC2/DepthDuration/v2_depth_duration_MTurk/v2_DepthDuration_HTML.html#76,76,1006,605,1024,768,8-22-2022,5-0-28,40,depth_duration_stimuli/000929_2014-06-09_16-33-19_260595134347_rgbf000139-resize_0/000929_2014-06-09_16-33-19_260595134347_rgbf000139-resize_0-target.png,1000,2.8680000000000003,2,4708,2101,meters,jsons/v1_VE1000_randls_34_rotated.json,876162,1057482,30,Woman
40,800178,DepthScenes,duration_manipulation_targetAtFixation,jsons/v1_VE1000_randls_34_rotated.json,http://54.235.29.9/FacialAge/BNav_EC2/DepthDuration/v2_depth_duration_MTurk/v2_DepthDuration_HTML.html#76,76,1006,605,1024,768,8-22-2022,5-0-28,41,depth_duration_stimuli/002953_2014-06-08_17-32-18_094959634447_rgbf000059-resize_5/002953_2014-06-08_17-32-18_094959634447_rgbf000059-resize_5-target.png,1000,1.551,2,4376,998,meters,jsons/v1_VE1000_randls_34_rotated.json,876162,1057482,30,Woman
41,800178,DepthScenes,duration_manipulation_targetAtFixation,jsons/v1_VE1000_randls_34_rotated.json,http://54.235.29.9/FacialAge/BNav_EC2/DepthDuration/v2_depth_duration_MTurk/v2_DepthDuration_HTML.html#76,76,1006,605,1024,768,8-22-2022,5-0-28,42,depth_duration_stimuli/000878_2014-06-08_22-52-45_260595134347_rgbf000045-resize_2/000878_2014-06-08_22-52-45_260595134347_rgbf000045-resize_2-target.png,1000,2.092,1,4024,700,meters,jsons/v1_VE1000_randls_34_rotated.json,876162,1057482,30,Woman
42,800178,DepthScenes,duration_manipulation_targetAtFixation,jsons/v1_VE1000_randls_34_rotated.json,http://54.235.29.9/FacialAge/BNav_EC2/DepthDuration/v2_depth_duration_MTurk/v2_DepthDuration_HTML.html#76,76,1006,605,1024,768,8-22-2022,5-0-28,43,depth_duration_stimuli/000677_2014-06-08_23-10-32_260595134347_rgbf000158-resize_6/000677_2014-06-08_23-10-32_260595134347_rgbf000158-resize_6-target.png,1000,3.556,3,6676,999,meters,jsons/v1_VE1000_randls_34_rotated.json,876162,1057482,30,Woman
43,800178,DepthScenes,duration_manipulation_targetAtFixation,jsons/v1_VE1000_randls_34_rotated.json,http://54.235.29.9/FacialAge/BNav_EC2/DepthDuration/v2_depth_duration_MTurk/v2_DepthDuration_HTML.html#76,76,1006,605,1024,768,8-22-2022,5-0-28,44,depth_duration_stimuli/001029_2014-06-08_13-17-57_260595134347_rgbf000065-resize_1/001029_2014-06-08_13-17-57_260595134347_rgbf000065-resize_1-target.png,1000,3.0835,1,4409,1012,meters,jsons/v1_VE1000_randls_34_rotated.json,876162,1057482,30,Woman
44,800178,DepthScenes,duration_manipulation_targetAtFixation,jsons/v1_VE1000_randls_34_rotated.json,http://54.235.29.9/FacialAge/BNav_EC2/DepthDuration/v2_depth_duration_MTurk/v2_DepthDuration_HTML.html#76,76,1006,605,1024,768,8-22-2022,5-0-28,45,depth_duration_stimuli/001094_2014-06-15_17-36-00_260595134347_rgbf000205-resize_0/001094_2014-06-15_17-36-00_260595134347_rgbf000205-resize_0-target.png,1000,4.2175,2,3510,571,meters,jsons/v1_VE1000_randls_34_rotated.json,876162,1057482,30,Woman
45,800178,DepthScenes,duration_manipulation_targetAtFixation,jsons/v1_VE1000_randls_34_rotated.json,http://54.235.29.9/FacialAge/BNav_EC2/DepthDuration/v2_depth_duration_MTurk/v2_DepthDuration_HTML.html#76,76,1006,605,1024,768,8-22-2022,5-0-28,46,depth_duration_stimuli/000692_2014-06-08_13-09-42_260595134347_rgbf000199-resize_2/000692_2014-06-08_13-09-42_260595134347_rgbf000199-resize_2-target.png,1000,3.661,1,3301,961,meters,jsons/v1_VE1000_randls_34_rotated.json,876162,1057482,30,Woman
46,800178,DepthScenes,duration_manipulation_targetAtFixation,jsons/v1_VE1000_randls_34_rotated.json,http://54.235.29.9/FacialAge/BNav_EC2/DepthDuration/v2_depth_duration_MTurk/v2_DepthDuration_HTML.html#76,76,1006,605,1024,768,8-22-2022,5-0-28,47,depth_duration_stimuli/000665_2014-06-09_20-42-35_260595134347_rgbf000110-resize_1/000665_2014-06-09_20-42-35_260595134347_rgbf000110-resize_1-target.png,1000,3.057,2,1865,83,meters,jsons/v1_VE1000_randls_34_rotated.json,876162,1057482,30,Woman
47,800178,DepthScenes,duration_manipulation_targetAtFixation,jsons/v1_VE1000_randls_34_rotated.json,http://54.235.29.9/FacialAge/BNav_EC2/DepthDuration/v2_depth_duration_MTurk/v2_DepthDuration_HTML.html#76,76,1006,605,1024,768,8-22-2022,5-0-28,48,depth_duration_stimuli/001150_2014-06-17_15-27-34_260595134347_rgbf000108-resize_2/001150_2014-06-17_15-27-34_260595134347_rgbf000108-resize_2-target.png,1000,4.0325,3,3884,997,meters,jsons/v1_VE1000_randls_34_rotated.json,876162,1057482,30,Woman
48,800178,DepthScenes,duration_manipulation_targetAtFixation,jsons/v1_VE1000_randls_34_rotated.json,http://54.235.29.9/FacialAge/BNav_EC2/DepthDuration/v2_depth_duration_MTurk/v2_DepthDuration_HTML.html#76,76,1006,605,1024,768,8-22-2022,5-0-28,49,depth_duration_stimuli/001170_2014-06-17_15-43-44_260595134347_rgbf000096-resize_6/001170_2014-06-17_15-43-44_260595134347_rgbf000096-resize-original.jpg,1000,1.1909999999999998,2,3918,1197,meters,jsons/v1_VE1000_randls_34_rotated.json,876162,1057482,30,Woman
49,800178,DepthScenes,duration_manipulation_targetAtFixation,jsons/v1_VE1000_randls_34_rotated.json,http://54.235.29.9/FacialAge/BNav_EC2/DepthDuration/v2_depth_duration_MTurk/v2_DepthDuration_HTML.html#76,76,1006,605,1024,768,8-22-2022,5-0-28,50,depth_duration_stimuli/001136_2014-06-17_15-19-41_260595134347_rgbf000076-resize_3/001136_2014-06-17_15-19-41_260595134347_rgbf000076-resize_3-target.png,1000,1.8655,1,5950,995,meters,jsons/v1_VE1000_randls_34_rotated.json,876162,1057482,30,Woman
50,800178,DepthScenes,duration_manipulation_targetAtFixation,jsons/v1_VE1000_randls_34_rotated.json,http://54.235.29.9/FacialAge/BNav_EC2/DepthDuration/v2_depth_duration_MTurk/v2_DepthDuration_HTML.html#76,76,1006,605,1024,768,8-22-2022,5-0-28,51,depth_duration_stimuli/001164_2014-06-17_15-35-46_260595134347_rgbf000085-resize_3/001164_2014-06-17_15-35-46_260595134347_rgbf000085-resize_3-target.png,1000,2.354,1,3481,34,meters,jsons/v1_VE1000_randls_34_rotated.json,876162,1057482,30,Woman
51,800178,DepthScenes,duration_manipulation_targetAtFixation,jsons/v1_VE1000_randls_34_rotated.json,http://54.235.29.9/FacialAge/BNav_EC2/DepthDuration/v2_depth_duration_MTurk/v2_DepthDuration_HTML.html#76,76,1006,605,1024,768,8-22-2022,5-0-28,52,depth_duration_stimuli/002136_2014-06-25_21-18-03_260595134347_rgbf000109-resize_3/002136_2014-06-25_21-18-03_260595134347_rgbf000109-resize_3-target.png,1000,1.9569999999999999,2,5572,985,meters,jsons/v1_VE1000_randls_34_rotated.json,876162,1057482,30,Woman
52,800178,DepthScenes,duration_manipulation_targetAtFixation,jsons/v1_VE1000_randls_34_rotated.json,http://54.235.29.9/FacialAge/BNav_EC2/DepthDuration/v2_depth_duration_MTurk/v2_DepthDuration_HTML.html#76,76,1006,605,1024,768,8-22-2022,5-0-28,53,depth_duration_stimuli/002964_2014-06-08_17-46-11_094959634447_rgbf000091-resize_4/002964_2014-06-08_17-46-11_094959634447_rgbf000091-resize_4-target.png,1000,1.6909999999999998,2,4687,946,meters,jsons/v1_VE1000_randls_34_rotated.json,876162,1057482,30,Woman
53,800178,DepthScenes,duration_manipulation_targetAtFixation,jsons/v1_VE1000_randls_34_rotated.json,http://54.235.29.9/FacialAge/BNav_EC2/DepthDuration/v2_depth_duration_MTurk/v2_DepthDuration_HTML.html#76,76,1006,605,1024,768,8-22-2022,5-0-28,54,depth_duration_stimuli/000137_2014-05-20_17-04-49_260595134347_rgbf000120-resize_1/000137_2014-05-20_17-04-49_260595134347_rgbf000120-resize_1-target.png,1000,3.786,2,5244,1000,meters,jsons/v1_VE1000_randls_34_rotated.json,876162,1057482,30,Woman
54,800178,DepthScenes,duration_manipulation_targetAtFixation,jsons/v1_VE1000_randls_34_rotated.json,http://54.235.29.9/FacialAge/BNav_EC2/DepthDuration/v2_depth_duration_MTurk/v2_DepthDuration_HTML.html#76,76,1006,605,1024,768,8-22-2022,5-0-28,55,depth_duration_stimuli/000736_2014-06-08_18-24-15_260595134347_rgbf000206-resize_3/000736_2014-06-08_18-24-15_260595134347_rgbf000206-resize_3-target.png,1000,3.515,3,3712,1008,meters,jsons/v1_VE1000_randls_34_rotated.json,876162,1057482,30,Woman
55,800178,DepthScenes,duration_manipulation_targetAtFixation,jsons/v1_VE1000_randls_34_rotated.json,http://54.235.29.9/FacialAge/BNav_EC2/DepthDuration/v2_depth_duration_MTurk/v2_DepthDuration_HTML.html#76,76,1006,605,1024,768,8-22-2022,5-0-28,56,depth_duration_stimuli/002750_2014-06-22_19-08-03_094959634447_rgbf000094-resize_4/002750_2014-06-22_19-08-03_094959634447_rgbf000094-resize_4-target.png,1000,2.354,1,5488,979,meters,jsons/v1_VE1000_randls_34_rotated.json,876162,1057482,30,Woman
56,800178,DepthScenes,duration_manipulation_targetAtFixation,jsons/v1_VE1000_randls_34_rotated.json,http://54.235.29.9/FacialAge/BNav_EC2/DepthDuration/v2_depth_duration_MTurk/v2_DepthDuration_HTML.html#76,76,1006,605,1024,768,8-22-2022,5-0-28,57,depth_duration_stimuli/002549_2014-06-24_13-41-39_094959634447_rgbf000022-resize_3/002549_2014-06-24_13-41-39_094959634447_rgbf000022-resize_3-target.png,1000,1.476,2,3288,991,meters,jsons/v1_VE1000_randls_34_rotated.json,876162,1057482,30,Woman
57,800178,DepthScenes,duration_manipulation_targetAtFixation,jsons/v1_VE1000_randls_34_rotated.json,http://54.235.29.9/FacialAge/BNav_EC2/DepthDuration/v2_depth_duration_MTurk/v2_DepthDuration_HTML.html#76,76,1006,605,1024,768,8-22-2022,5-0-28,58,depth_duration_stimuli/000927_2014-06-09_16-32-30_260595134347_rgbf000123-resize_3/000927_2014-06-09_16-32-30_260595134347_rgbf000123-resize_3-target.png,1000,2.6785,3,4524,1151,meters,jsons/v1_VE1000_randls_34_rotated.json,876162,1057482,30,Woman
58,800178,DepthScenes,duration_manipulation_targetAtFixation,jsons/v1_VE1000_randls_34_rotated.json,http://54.235.29.9/FacialAge/BNav_EC2/DepthDuration/v2_depth_duration_MTurk/v2_DepthDuration_HTML.html#76,76,1006,605,1024,768,8-22-2022,5-0-28,59,depth_duration_stimuli/001110_2014-06-15_17-25-28_260595134347_rgbf000150-resize_1/001110_2014-06-15_17-25-28_260595134347_rgbf000150-resize_1-target.png,1000,1.7115,3,3525,980,meters,jsons/v1_VE1000_randls_34_rotated.json,876162,1057482,30,Woman
59,800178,DepthScenes,duration_manipulation_targetAtFixation,jsons/v1_VE1000_randls_34_rotated.json,http://54.235.29.9/FacialAge/BNav_EC2/DepthDuration/v2_depth_duration_MTurk/v2_DepthDuration_HTML.html#76,76,1006,605,1024,768,8-22-2022,5-0-28,60,depth_duration_stimuli/003010_2014-06-15_12-54-35_094959634447_rgbf000112-resize_0/003010_2014-06-15_12-54-35_094959634447_rgbf000112-resize_0-target.png,1000,3.1185,1,4400,995,meters,jsons/v1_VE1000_randls_34_rotated.json,876162,1057482,30,Woman
60,800178,DepthScenes,duration_manipulation_targetAtFixation,jsons/v1_VE1000_randls_34_rotated.json,http://54.235.29.9/FacialAge/BNav_EC2/DepthDuration/v2_depth_duration_MTurk/v2_DepthDuration_HTML.html#76,76,1006,605,1024,768,8-22-2022,5-0-28,61,depth_duration_stimuli/001810_2014-06-26_20-51-35_260595134347_rgbf000040-resize_3/001810_2014-06-26_20-51-35_260595134347_rgbf000040-resize_3-target.png,1000,2.2525,2,3345,1014,meters,jsons/v1_VE1000_randls_34_rotated.json,876162,1057482,30,Woman
61,800178,DepthScenes,duration_manipulation_targetAtFixation,jsons/v1_VE1000_randls_34_rotated.json,http://54.235.29.9/FacialAge/BNav_EC2/DepthDuration/v2_depth_duration_MTurk/v2_DepthDuration_HTML.html#76,76,1006,605,1024,768,8-22-2022,5-0-28,62,depth_duration_stimuli/002995_2014-06-15_12-31-26_094959634447_rgbf000150-resize_1/002995_2014-06-15_12-31-26_094959634447_rgbf000150-resize_1-target.png,1000,3.8360000000000003,2,5837,1005,meters,jsons/v1_VE1000_randls_34_rotated.json,876162,1057482,30,Woman
62,800178,DepthScenes,duration_manipulation_targetAtFixation,jsons/v1_VE1000_randls_34_rotated.json,http://54.235.29.9/FacialAge/BNav_EC2/DepthDuration/v2_depth_duration_MTurk/v2_DepthDuration_HTML.html#76,76,1006,605,1024,768,8-22-2022,5-0-28,63,depth_duration_stimuli/002748_2014-06-22_19-07-22_094959634447_rgbf000078-resize_1/002748_2014-06-22_19-07-22_094959634447_rgbf000078-resize_1-target.png,1000,4.6705,2,4000,989,meters,jsons/v1_VE1000_randls_34_rotated.json,876162,1057482,30,Woman
63,800178,DepthScenes,duration_manipulation_targetAtFixation,jsons/v1_VE1000_randls_34_rotated.json,http://54.235.29.9/FacialAge/BNav_EC2/DepthDuration/v2_depth_duration_MTurk/v2_DepthDuration_HTML.html#76,76,1006,605,1024,768,8-22-2022,5-0-28,64,depth_duration_stimuli/002103_2014-06-25_20-00-40_260595134347_rgbf000049-resize_0/002103_2014-06-25_20-00-40_260595134347_rgbf000049-resize_0-target.png,1000,4.105,2,3928,42,meters,jsons/v1_VE1000_randls_34_rotated.json,876162,1057482,30,Woman
64,800178,DepthScenes,duration_manipulation_targetAtFixation,jsons/v1_VE1000_randls_34_rotated.json,http://54.235.29.9/FacialAge/BNav_EC2/DepthDuration/v2_depth_duration_MTurk/v2_DepthDuration_HTML.html#76,76,1006,605,1024,768,8-22-2022,5-0-28,65,depth_duration_stimuli/002039_2014-06-24_20-22-38_260595134347_rgbf000084-resize_1/002039_2014-06-24_20-22-38_260595134347_rgbf000084-resize_1-target.png,1000,4.408,2,3692,993,meters,jsons/v1_VE1000_randls_34_rotated.json,876162,1057482,30,Woman
65,800178,DepthScenes,duration_manipulation_targetAtFixation,jsons/v1_VE1000_randls_34_rotated.json,http://54.235.29.9/FacialAge/BNav_EC2/DepthDuration/v2_depth_duration_MTurk/v2_DepthDuration_HTML.html#76,76,1006,605,1024,768,8-22-2022,5-0-28,66,depth_duration_stimuli/001540_2014-06-20_17-01-05_260595134347_rgbf000086-resize_2/001540_2014-06-20_17-01-05_260595134347_rgbf000086-resize-original.jpg,1000,1.459,2,5332,1174,meters,jsons/v1_VE1000_randls_34_rotated.json,876162,1057482,30,Woman
66,800178,DepthScenes,duration_manipulation_targetAtFixation,jsons/v1_VE1000_randls_34_rotated.json,http://54.235.29.9/FacialAge/BNav_EC2/DepthDuration/v2_depth_duration_MTurk/v2_DepthDuration_HTML.html#76,76,1006,605,1024,768,8-22-2022,5-0-28,67,depth_duration_stimuli/000742_2014-06-08_18-48-09_260595134347_rgbf000164-resize_4/000742_2014-06-08_18-48-09_260595134347_rgbf000164-resize_4-target.png,1000,4.632,2,4008,960,meters,jsons/v1_VE1000_randls_34_rotated.json,876162,1057482,30,Woman
67,800178,DepthScenes,duration_manipulation_targetAtFixation,jsons/v1_VE1000_randls_34_rotated.json,http://54.235.29.9/FacialAge/BNav_EC2/DepthDuration/v2_depth_duration_MTurk/v2_DepthDuration_HTML.html#76,76,1006,605,1024,768,8-22-2022,5-0-28,68,depth_duration_stimuli/001066_2014-06-08_22-03-20_260595134347_rgbf000066-resize_4/001066_2014-06-08_22-03-20_260595134347_rgbf000066-resize_4-target.png,1000,4.2330000000000005,2,4640,2507,meters,jsons/v1_VE1000_randls_34_rotated.json,876162,1057482,30,Woman
68,800178,DepthScenes,duration_manipulation_targetAtFixation,jsons/v1_VE1000_randls_34_rotated.json,http://54.235.29.9/FacialAge/BNav_EC2/DepthDuration/v2_depth_duration_MTurk/v2_DepthDuration_HTML.html#76,76,1006,605,1024,768,8-22-2022,5-0-28,69,depth_duration_stimuli/002199_2014-06-28_18-33-56_260595134347_rgbf000074-resize_0/002199_2014-06-28_18-33-56_260595134347_rgbf000074-resize_0-target.png,1000,1.996,2,4539,1093,meters,jsons/v1_VE1000_randls_34_rotated.json,876162,1057482,30,Woman
69,800178,DepthScenes,duration_manipulation_targetAtFixation,jsons/v1_VE1000_randls_34_rotated.json,http://54.235.29.9/FacialAge/BNav_EC2/DepthDuration/v2_depth_duration_MTurk/v2_DepthDuration_HTML.html#76,76,1006,605,1024,768,8-22-2022,5-0-28,70,depth_duration_stimuli/001056_2014-06-08_18-46-44_260595134347_rgbf000068-resize_0/001056_2014-06-08_18-46-44_260595134347_rgbf000068-resize_0-target.png,1000,2.6625,3,4983,1236,meters,jsons/v1_VE1000_randls_34_rotated.json,876162,1057482,30,Woman
70,800178,DepthScenes,duration_manipulation_targetAtFixation,jsons/v1_VE1000_randls_34_rotated.json,http://54.235.29.9/FacialAge/BNav_EC2/DepthDuration/v2_depth_duration_MTurk/v2_DepthDuration_HTML.html#76,76,1006,605,1024,768,8-22-2022,5-0-28,71,depth_duration_stimuli/002805_2014-06-22_19-54-03_094959634447_rgbf000079-resize_1/002805_2014-06-22_19-54-03_094959634447_rgbf000079-resize_1-target.png,1000,3.1439999999999997,1,7640,999,meters,jsons/v1_VE1000_randls_34_rotated.json,876162,1057482,30,Woman
71,800178,DepthScenes,duration_manipulation_targetAtFixation,jsons/v1_VE1000_randls_34_rotated.json,http://54.235.29.9/FacialAge/BNav_EC2/DepthDuration/v2_depth_duration_MTurk/v2_DepthDuration_HTML.html#76,76,1006,605,1024,768,8-22-2022,5-0-28,72,depth_duration_stimuli/000906_2014-06-08_13-35-43_260595134347_rgbf000155-resize_1/000906_2014-06-08_13-35-43_260595134347_rgbf000155-resize_1-target.png,1000,2.8489999999999998,2,3485,1006,meters,jsons/v1_VE1000_randls_34_rotated.json,876162,1057482,30,Woman
72,800178,DepthScenes,duration_manipulation_targetAtFixation,jsons/v1_VE1000_randls_34_rotated.json,http://54.235.29.9/FacialAge/BNav_EC2/DepthDuration/v2_depth_duration_MTurk/v2_DepthDuration_HTML.html#76,76,1006,605,1024,768,8-22-2022,5-0-28,73,depth_duration_stimuli/003338_2014-05-20_11-01-23_094959634447_rgbf000051-resize_6/003338_2014-05-20_11-01-23_094959634447_rgbf000051-resize_6-target.png,1000,1.693,3,5657,1002,meters,jsons/v1_VE1000_randls_34_rotated.json,876162,1057482,30,Woman
73,800178,DepthScenes,duration_manipulation_targetAtFixation,jsons/v1_VE1000_randls_34_rotated.json,http://54.235.29.9/FacialAge/BNav_EC2/DepthDuration/v2_depth_duration_MTurk/v2_DepthDuration_HTML.html#76,76,1006,605,1024,768,8-22-2022,5-0-28,74,depth_duration_stimuli/002509_2014-06-24_13-19-22_094959634447_rgbf000077-resize_0/002509_2014-06-24_13-19-22_094959634447_rgbf000077-resize_0-target.png,1000,1.3065,1,3325,926,meters,jsons/v1_VE1000_randls_34_rotated.json,876162,1057482,30,Woman
74,800178,DepthScenes,duration_manipulation_targetAtFixation,jsons/v1_VE1000_randls_34_rotated.json,http://54.235.29.9/FacialAge/BNav_EC2/DepthDuration/v2_depth_duration_MTurk/v2_DepthDuration_HTML.html#76,76,1006,605,1024,768,8-22-2022,5-0-28,75,depth_duration_stimuli/003490_2014-05-21_15-50-11_094959634447_rgbf000101-resize_3/003490_2014-05-21_15-50-11_094959634447_rgbf000101-resize_3-target.png,1000,3.6445,2,4987,993,meters,jsons/v1_VE1000_randls_34_rotated.json,876162,1057482,30,Woman
75,800178,DepthScenes,duration_manipulation_targetAtFixation,jsons/v1_VE1000_randls_34_rotated.json,http://54.235.29.9/FacialAge/BNav_EC2/DepthDuration/v2_depth_duration_MTurk/v2_DepthDuration_HTML.html#76,76,1006,605,1024,768,8-22-2022,5-0-28,76,depth_duration_stimuli/001175_2014-06-17_15-45-55_260595134347_rgbf000129-resize_4/001175_2014-06-17_15-45-55_260595134347_rgbf000129-resize_4-target.png,1000,4.255,2,3637,1004,meters,jsons/v1_VE1000_randls_34_rotated.json,876162,1057482,30,Woman
76,800178,DepthScenes,duration_manipulation_targetAtFixation,jsons/v1_VE1000_randls_34_rotated.json,http://54.235.29.9/FacialAge/BNav_EC2/DepthDuration/v2_depth_duration_MTurk/v2_DepthDuration_HTML.html#76,76,1006,605,1024,768,8-22-2022,5-0-28,77,depth_duration_stimuli/003423_2014-05-21_10-23-26_094959634447_rgbf002665-resize_2/003423_2014-05-21_10-23-26_094959634447_rgbf002665-resize_2-target.png,1000,3.2575,1,6112,1046,meters,jsons/v1_VE1000_randls_34_rotated.json,876162,1057482,30,Woman
77,800178,DepthScenes,duration_manipulation_targetAtFixation,jsons/v1_VE1000_randls_34_rotated.json,http://54.235.29.9/FacialAge/BNav_EC2/DepthDuration/v2_depth_duration_MTurk/v2_DepthDuration_HTML.html#76,76,1006,605,1024,768,8-22-2022,5-0-28,78,depth_duration_stimuli/002905_2014-06-03_18-04-43_094959634447_rgbf000151-resize_2/002905_2014-06-03_18-04-43_094959634447_rgbf000151-resize_2-target.png,1000,2.0295,1,4468,994,meters,jsons/v1_VE1000_randls_34_rotated.json,876162,1057482,30,Woman
78,800178,DepthScenes,duration_manipulation_targetAtFixation,jsons/v1_VE1000_randls_34_rotated.json,http://54.235.29.9/FacialAge/BNav_EC2/DepthDuration/v2_depth_duration_MTurk/v2_DepthDuration_HTML.html#76,76,1006,605,1024,768,8-22-2022,5-0-28,79,depth_duration_stimuli/000635_2014-06-08_16-38-42_260595134347_rgbf000106-resize_1/000635_2014-06-08_16-38-42_260595134347_rgbf000106-resize_1-target.png,1000,2.074,3,4634,1289,meters,jsons/v1_VE1000_randls_34_rotated.json,876162,1057482,30,Woman
79,800178,DepthScenes,duration_manipulation_targetAtFixation,jsons/v1_VE1000_randls_34_rotated.json,http://54.235.29.9/FacialAge/BNav_EC2/DepthDuration/v2_depth_duration_MTurk/v2_DepthDuration_HTML.html#76,76,1006,605,1024,768,8-22-2022,5-0-28,80,depth_duration_stimuli/002279_2014-06-28_18-55-32_260595134347_rgbf000040-resize_5/002279_2014-06-28_18-55-32_260595134347_rgbf000040-resize_5-target.png,1000,1.5043333333333,1,3548,948,meters,jsons/v1_VE1000_randls_34_rotated.json,876162,1057482,30,Woman
80,800178,DepthScenes,duration_manipulation_targetAtFixation,jsons/v1_VE1000_randls_34_rotated.json,http://54.235.29.9/FacialAge/BNav_EC2/DepthDuration/v2_depth_duration_MTurk/v2_DepthDuration_HTML.html#76,76,1006,605,1024,768,8-22-2022,5-0-28,81,depth_duration_stimuli/001828_2014-06-26_21-40-03_260595134347_rgbf000024-resize_0/001828_2014-06-26_21-40-03_260595134347_rgbf000024-resize_0-target.png,1000,4.8260000000000005,2,5093,1610,meters,jsons/v1_VE1000_randls_34_rotated.json,876162,1057482,30,Woman
81,800178,DepthScenes,duration_manipulation_targetAtFixation,jsons/v1_VE1000_randls_34_rotated.json,http://54.235.29.9/FacialAge/BNav_EC2/DepthDuration/v2_depth_duration_MTurk/v2_DepthDuration_HTML.html#76,76,1006,605,1024,768,8-22-2022,5-0-28,82,depth_duration_stimuli/000009_2014-05-26_14-32-05_260595134347_rgbf000034-resize_3/000009_2014-05-26_14-32-05_260595134347_rgbf000034-resize_3-target.png,1000,3.8715,3,7250,1202,meters,jsons/v1_VE1000_randls_34_rotated.json,876162,1057482,30,Woman
82,800178,DepthScenes,duration_manipulation_targetAtFixation,jsons/v1_VE1000_randls_34_rotated.json,http://54.235.29.9/FacialAge/BNav_EC2/DepthDuration/v2_depth_duration_MTurk/v2_DepthDuration_HTML.html#76,76,1006,605,1024,768,8-22-2022,5-0-28,83,depth_duration_stimuli/001584_2014-06-20_11-07-43_260595134347_rgbf000002-resize_1/001584_2014-06-20_11-07-43_260595134347_rgbf000002-resize_1-target.png,1000,3.53,1,4626,1000,meters,jsons/v1_VE1000_randls_34_rotated.json,876162,1057482,30,Woman
83,800178,DepthScenes,duration_manipulation_targetAtFixation,jsons/v1_VE1000_randls_34_rotated.json,http://54.235.29.9/FacialAge/BNav_EC2/DepthDuration/v2_depth_duration_MTurk/v2_DepthDuration_HTML.html#76,76,1006,605,1024,768,8-22-2022,5-0-28,84,depth_duration_stimuli/003621_2014-05-23_18-06-08_094959634447_rgbf000101-resize_1/003621_2014-05-23_18-06-08_094959634447_rgbf000101-resize_1-target.png,1000,3.9835,2,5091,1212,meters,jsons/v1_VE1000_randls_34_rotated.json,876162,1057482,30,Woman
84,800178,DepthScenes,duration_manipulation_targetAtFixation,jsons/v1_VE1000_randls_34_rotated.json,http://54.235.29.9/FacialAge/BNav_EC2/DepthDuration/v2_depth_duration_MTurk/v2_DepthDuration_HTML.html#76,76,1006,605,1024,768,8-22-2022,5-0-28,85,depth_duration_stimuli/001650_2014-06-20_12-09-00_260595134347_rgbf000087-resize_3/001650_2014-06-20_12-09-00_260595134347_rgbf000087-resize_3-target.png,1000,1.9505,3,6284,1013,meters,jsons/v1_VE1000_randls_34_rotated.json,876162,1057482,30,Woman
85,800178,DepthScenes,duration_manipulation_targetAtFixation,jsons/v1_VE1000_randls_34_rotated.json,http://54.235.29.9/FacialAge/BNav_EC2/DepthDuration/v2_depth_duration_MTurk/v2_DepthDuration_HTML.html#76,76,1006,605,1024,768,8-22-2022,5-0-28,86,depth_duration_stimuli/000682_2014-06-08_23-14-58_260595134347_rgbf000041-resize_5/000682_2014-06-08_23-14-58_260595134347_rgbf000041-resize_5-target.png,1000,2.7239999999999998,3,3291,569,meters,jsons/v1_VE1000_randls_34_rotated.json,876162,1057482,30,Woman
86,800178,DepthScenes,duration_manipulation_targetAtFixation,jsons/v1_VE1000_randls_34_rotated.json,http://54.235.29.9/FacialAge/BNav_EC2/DepthDuration/v2_depth_duration_MTurk/v2_DepthDuration_HTML.html#76,76,1006,605,1024,768,8-22-2022,5-0-28,87,depth_duration_stimuli/002660_2014-06-13_15-44-18_094959634447_rgbf001878-resize_2/002660_2014-06-13_15-44-18_094959634447_rgbf001878-resize_2-target.png,1000,3.576,3,5200,992,meters,jsons/v1_VE1000_randls_34_rotated.json,876162,1057482,30,Woman
87,800178,DepthScenes,duration_manipulation_targetAtFixation,jsons/v1_VE1000_randls_34_rotated.json,http://54.235.29.9/FacialAge/BNav_EC2/DepthDuration/v2_depth_duration_MTurk/v2_DepthDuration_HTML.html#76,76,1006,605,1024,768,8-22-2022,5-0-28,88,depth_duration_stimuli/002153_2014-06-25_21-27-18_260595134347_rgbf000038-resize_5/002153_2014-06-25_21-27-18_260595134347_rgbf000038-resize_5-target.png,1000,2.505,3,9453,836,meters,jsons/v1_VE1000_randls_34_rotated.json,876162,1057482,30,Woman
88,800178,DepthScenes,duration_manipulation_targetAtFixation,jsons/v1_VE1000_randls_34_rotated.json,http://54.235.29.9/FacialAge/BNav_EC2/DepthDuration/v2_depth_duration_MTurk/v2_DepthDuration_HTML.html#76,76,1006,605,1024,768,8-22-2022,5-0-28,89,depth_duration_stimuli/000780_2014-06-08_22-28-29_260595134347_rgbf000126-resize_1/000780_2014-06-08_22-28-29_260595134347_rgbf000126-resize_1-target.png,1000,3.3825,2,3633,962,meters,jsons/v1_VE1000_randls_34_rotated.json,876162,1057482,30,Woman
89,800178,DepthScenes,duration_manipulation_targetAtFixation,jsons/v1_VE1000_randls_34_rotated.json,http://54.235.29.9/FacialAge/BNav_EC2/DepthDuration/v2_depth_duration_MTurk/v2_DepthDuration_HTML.html#76,76,1006,605,1024,768,8-22-2022,5-0-28,90,depth_duration_stimuli/002445_2014-06-28_20-32-16_260595134347_rgbf000029-resize_4/002445_2014-06-28_20-32-16_260595134347_rgbf000029-resize_4-target.png,1000,2.5315,2,4274,1057,meters,jsons/v1_VE1000_randls_34_rotated.json,876162,1057482,30,Woman
90,800178,DepthScenes,duration_manipulation_targetAtFixation,jsons/v1_VE1000_randls_34_rotated.json,http://54.235.29.9/FacialAge/BNav_EC2/DepthDuration/v2_depth_duration_MTurk/v2_DepthDuration_HTML.html#76,76,1006,605,1024,768,8-22-2022,5-0-28,91,depth_duration_stimuli/002678_2014-06-13_16-15-32_094959634447_rgbf000151-resize_6/002678_2014-06-13_16-15-32_094959634447_rgbf000151-resize_6-target.png,1000,2.1830000000000003,2,3555,110,meters,jsons/v1_VE1000_randls_34_rotated.json,876162,1057482,30,Woman
91,800178,DepthScenes,duration_manipulation_targetAtFixation,jsons/v1_VE1000_randls_34_rotated.json,http://54.235.29.9/FacialAge/BNav_EC2/DepthDuration/v2_depth_duration_MTurk/v2_DepthDuration_HTML.html#76,76,1006,605,1024,768,8-22-2022,5-0-28,92,depth_duration_stimuli/000368_2014-06-09_15-53-01_260595134347_rgbf000155-resize_2/000368_2014-06-09_15-53-01_260595134347_rgbf000155-resize_2-target.png,1000,2.4859999999999998,1,3688,1069,meters,jsons/v1_VE1000_randls_34_rotated.json,876162,1057482,30,Woman
92,800178,DepthScenes,duration_manipulation_targetAtFixation,jsons/v1_VE1000_randls_34_rotated.json,http://54.235.29.9/FacialAge/BNav_EC2/DepthDuration/v2_depth_duration_MTurk/v2_DepthDuration_HTML.html#76,76,1006,605,1024,768,8-22-2022,5-0-28,93,depth_duration_stimuli/003079_2014-06-15_15-18-20_094959634447_rgbf000152-resize_8/003079_2014-06-15_15-18-20_094959634447_rgbf000152-resize_8-target.png,1000,2.8775,2,4219,1743,meters,jsons/v1_VE1000_randls_34_rotated.json,876162,1057482,30,Woman
93,800178,DepthScenes,duration_manipulation_targetAtFixation,jsons/v1_VE1000_randls_34_rotated.json,http://54.235.29.9/FacialAge/BNav_EC2/DepthDuration/v2_depth_duration_MTurk/v2_DepthDuration_HTML.html#76,76,1006,605,1024,768,8-22-2022,5-0-28,94,depth_duration_stimuli/000506_2014-06-08_23-21-00_260595134347_rgbf000070-resize_7/000506_2014-06-08_23-21-00_260595134347_rgbf000070-resize_7-target.png,1000,4.0585,3,3632,987,meters,jsons/v1_VE1000_randls_34_rotated.json,876162,1057482,30,Woman
94,800178,DepthScenes,duration_manipulation_targetAtFixation,jsons/v1_VE1000_randls_34_rotated.json,http://54.235.29.9/FacialAge/BNav_EC2/DepthDuration/v2_depth_duration_MTurk/v2_DepthDuration_HTML.html#76,76,1006,605,1024,768,8-22-2022,5-0-28,95,depth_duration_stimuli/000549_2014-06-08_22-10-24_260595134347_rgbf000247-resize_3/000549_2014-06-08_22-10-24_260595134347_rgbf000247-resize_3-target.png,1000,1.841,1,4535,1315,meters,jsons/v1_VE1000_randls_34_rotated.json,876162,1057482,30,Woman
95,800178,DepthScenes,duration_manipulation_targetAtFixation,jsons/v1_VE1000_randls_34_rotated.json,http://54.235.29.9/FacialAge/BNav_EC2/DepthDuration/v2_depth_duration_MTurk/v2_DepthDuration_HTML.html#76,76,1006,605,1024,768,8-22-2022,5-0-28,96,depth_duration_stimuli/001055_2014-06-08_18-45-35_260595134347_rgbf000111-resize_4/001055_2014-06-08_18-45-35_260595134347_rgbf000111-resize_4-target.png,1000,2.4290000000000003,3,3478,985,meters,jsons/v1_VE1000_randls_34_rotated.json,876162,1057482,30,Woman
96,800178,DepthScenes,duration_manipulation_targetAtFixation,jsons/v1_VE1000_randls_34_rotated.json,http://54.235.29.9/FacialAge/BNav_EC2/DepthDuration/v2_depth_duration_MTurk/v2_DepthDuration_HTML.html#76,76,1006,605,1024,768,8-22-2022,5-0-28,97,depth_duration_stimuli/000749_2014-06-08_21-55-06_260595134347_rgbf000070-resize_2/000749_2014-06-08_21-55-06_260595134347_rgbf000070-resize_2-target.png,1000,2.331,3,7480,2617,meters,jsons/v1_VE1000_randls_34_rotated.json,876162,1057482,30,Woman
97,800178,DepthScenes,duration_manipulation_targetAtFixation,jsons/v1_VE1000_randls_34_rotated.json,http://54.235.29.9/FacialAge/BNav_EC2/DepthDuration/v2_depth_duration_MTurk/v2_DepthDuration_HTML.html#76,76,1006,605,1024,768,8-22-2022,5-0-28,98,depth_duration_stimuli/002788_2014-06-22_19-36-03_094959634447_rgbf000088-resize_2/002788_2014-06-22_19-36-03_094959634447_rgbf000088-resize_2-target.png,1000,1.6465,1,4292,997,meters,jsons/v1_VE1000_randls_34_rotated.json,876162,1057482,30,Woman
98,800178,DepthScenes,duration_manipulation_targetAtFixation,jsons/v1_VE1000_randls_34_rotated.json,http://54.235.29.9/FacialAge/BNav_EC2/DepthDuration/v2_depth_duration_MTurk/v2_DepthDuration_HTML.html#76,76,1006,605,1024,768,8-22-2022,5-0-28,99,depth_duration_stimuli/001222_2014-06-17_16-24-06_260595134347_rgbf000073-resize_0/001222_2014-06-17_16-24-06_260595134347_rgbf000073-resize-original.jpg,1000,1.4385,2,3878,563,meters,jsons/v1_VE1000_randls_34_rotated.json,876162,1057482,30,Woman
99,800178,DepthScenes,duration_manipulation_targetAtFixation,jsons/v1_VE1000_randls_34_rotated.json,http://54.235.29.9/FacialAge/BNav_EC2/DepthDuration/v2_depth_duration_MTurk/v2_DepthDuration_HTML.html#76,76,1006,605,1024,768,8-22-2022,5-0-28,100,depth_duration_stimuli/000502_2014-06-08_23-02-32_260595134347_rgbf000063-resize_4/000502_2014-06-08_23-02-32_260595134347_rgbf000063-resize_4-target.png,1000,2.431,2,4561,979,meters,jsons/v1_VE1000_randls_34_rotated.json,876162,1057482,30,Woman
100,800178,DepthScenes,duration_manipulation_targetAtFixation,jsons/v1_VE1000_randls_34_rotated.json,http://54.235.29.9/FacialAge/BNav_EC2/DepthDuration/v2_depth_duration_MTurk/v2_DepthDuration_HTML.html#76,76,1006,605,1024,768,8-22-2022,5-0-28,101,depth_duration_stimuli/001199_2014-06-17_16-03-48_260595134347_rgbf000077-resize_0/001199_2014-06-17_16-03-48_260595134347_rgbf000077-resize_0-target.png,1000,3.4375,2,3252,998,meters,jsons/v1_VE1000_randls_34_rotated.json,876162,1057482,30,Woman
101,800178,DepthScenes,duration_manipulation_targetAtFixation,jsons/v1_VE1000_randls_34_rotated.json,http://54.235.29.9/FacialAge/BNav_EC2/DepthDuration/v2_depth_duration_MTurk/v2_DepthDuration_HTML.html#76,76,1006,605,1024,768,8-22-2022,5-0-28,102,depth_duration_stimuli/002545_2014-06-24_13-38-53_094959634447_rgbf000080-resize_4/002545_2014-06-24_13-38-53_094959634447_rgbf000080-resize_4-target.png,1000,1.9205,2,5030,1024,meters,jsons/v1_VE1000_randls_34_rotated.json,876162,1057482,30,Woman
102,800178,DepthScenes,duration_manipulation_targetAtFixation,jsons/v1_VE1000_randls_34_rotated.json,http://54.235.29.9/FacialAge/BNav_EC2/DepthDuration/v2_depth_duration_MTurk/v2_DepthDuration_HTML.html#76,76,1006,605,1024,768,8-22-2022,5-0-28,103,depth_duration_stimuli/001092_2014-06-15_17-34-58_260595134347_rgbf000171-resize_3/001092_2014-06-15_17-34-58_260595134347_rgbf000171-resize_3-target.png,1000,2.6935,2,5049,994,meters,jsons/v1_VE1000_randls_34_rotated.json,876162,1057482,30,Woman
103,800178,DepthScenes,duration_manipulation_targetAtFixation,jsons/v1_VE1000_randls_34_rotated.json,http://54.235.29.9/FacialAge/BNav_EC2/DepthDuration/v2_depth_duration_MTurk/v2_DepthDuration_HTML.html#76,76,1006,605,1024,768,8-22-2022,5-0-28,104,depth_duration_stimuli/001815_2014-06-26_20-52-55_260595134347_rgbf000020-resize_0/001815_2014-06-26_20-52-55_260595134347_rgbf000020-resize_0-target.png,1000,3.3865,2,5854,1064,meters,jsons/v1_VE1000_randls_34_rotated.json,876162,1057482,30,Woman
104,800178,DepthScenes,duration_manipulation_targetAtFixation,jsons/v1_VE1000_randls_34_rotated.json,http://54.235.29.9/FacialAge/BNav_EC2/DepthDuration/v2_depth_duration_MTurk/v2_DepthDuration_HTML.html#76,76,1006,605,1024,768,8-22-2022,5-0-28,105,depth_duration_stimuli/001808_2014-06-26_20-50-58_260595134347_rgbf000029-resize_1/001808_2014-06-26_20-50-58_260595134347_rgbf000029-resize_1-target.png,1000,4.249,2,4363,997,meters,jsons/v1_VE1000_randls_34_rotated.json,876162,1057482,30,Woman
105,800178,DepthScenes,duration_manipulation_targetAtFixation,jsons/v1_VE1000_randls_34_rotated.json,http://54.235.29.9/FacialAge/BNav_EC2/DepthDuration/v2_depth_duration_MTurk/v2_DepthDuration_HTML.html#76,76,1006,605,1024,768,8-22-2022,5-0-28,106,depth_duration_stimuli/002340_2014-06-28_20-05-46_260595134347_rgbf000113-resize_0/002340_2014-06-28_20-05-46_260595134347_rgbf000113-resize_0-target.png,1000,2.4735,2,4087,1440,meters,jsons/v1_VE1000_randls_34_rotated.json,876162,1057482,30,Woman
106,800178,DepthScenes,duration_manipulation_targetAtFixation,jsons/v1_VE1000_randls_34_rotated.json,http://54.235.29.9/FacialAge/BNav_EC2/DepthDuration/v2_depth_duration_MTurk/v2_DepthDuration_HTML.html#76,76,1006,605,1024,768,8-22-2022,5-0-28,107,depth_duration_stimuli/001016_2014-06-09_16-16-10_260595134347_rgbf000112-resize_5/001016_2014-06-09_16-16-10_260595134347_rgbf000112-resize_5-target.png,1000,1.6565,2,4213,1002,meters,jsons/v1_VE1000_randls_34_rotated.json,876162,1057482,30,Woman
107,800178,DepthScenes,duration_manipulation_targetAtFixation,jsons/v1_VE1000_randls_34_rotated.json,http://54.235.29.9/FacialAge/BNav_EC2/DepthDuration/v2_depth_duration_MTurk/v2_DepthDuration_HTML.html#76,76,1006,605,1024,768,8-22-2022,5-0-28,108,depth_duration_stimuli/002875_2014-06-01_15-19-00_094959634447_rgbf000151-resize_1/002875_2014-06-01_15-19-00_094959634447_rgbf000151-resize_1-target.png,1000,1.9675,2,3929,1413,meters,jsons/v1_VE1000_randls_34_rotated.json,876162,1057482,30,Woman
108,800178,DepthScenes,duration_manipulation_targetAtFixation,jsons/v1_VE1000_randls_34_rotated.json,http://54.235.29.9/FacialAge/BNav_EC2/DepthDuration/v2_depth_duration_MTurk/v2_DepthDuration_HTML.html#76,76,1006,605,1024,768,8-22-2022,5-0-28,109,depth_duration_stimuli/001011_2014-06-08_23-18-54_260595134347_rgbf000044-resize_4/001011_2014-06-08_23-18-54_260595134347_rgbf000044-resize_4-target.png,1000,2.4730000000000003,1,4195,900,meters,jsons/v1_VE1000_randls_34_rotated.json,876162,1057482,30,Woman
109,800178,DepthScenes,duration_manipulation_targetAtFixation,jsons/v1_VE1000_randls_34_rotated.json,http://54.235.29.9/FacialAge/BNav_EC2/DepthDuration/v2_depth_duration_MTurk/v2_DepthDuration_HTML.html#76,76,1006,605,1024,768,8-22-2022,5-0-28,110,depth_duration_stimuli/002568_2014-06-24_13-59-21_094959634447_rgbf000062-resize_4/002568_2014-06-24_13-59-21_094959634447_rgbf000062-resize_4-target.png,1000,3.015,3,5623,999,meters,jsons/v1_VE1000_randls_34_rotated.json,876162,1057482,30,Woman
110,800178,DepthScenes,duration_manipulation_targetAtFixation,jsons/v1_VE1000_randls_34_rotated.json,http://54.235.29.9/FacialAge/BNav_EC2/DepthDuration/v2_depth_duration_MTurk/v2_DepthDuration_HTML.html#76,76,1006,605,1024,768,8-22-2022,5-0-28,111,depth_duration_stimuli/003492_2014-05-21_15-50-55_094959634447_rgbf000828-resize_1/003492_2014-05-21_15-50-55_094959634447_rgbf000828-resize_1-target.png,1000,4.06875,3,5447,982,meters,jsons/v1_VE1000_randls_34_rotated.json,876162,1057482,30,Woman
111,800178,DepthScenes,duration_manipulation_targetAtFixation,jsons/v1_VE1000_randls_34_rotated.json,http://54.235.29.9/FacialAge/BNav_EC2/DepthDuration/v2_depth_duration_MTurk/v2_DepthDuration_HTML.html#76,76,1006,605,1024,768,8-22-2022,5-0-28,112,depth_duration_stimuli/002323_2014-06-28_20-01-54_260595134347_rgbf000051-resize_4/002323_2014-06-28_20-01-54_260595134347_rgbf000051-resize_4-target.png,1000,3.7310000000000003,3,3489,763,meters,jsons/v1_VE1000_randls_34_rotated.json,876162,1057482,30,Woman
112,800178,DepthScenes,duration_manipulation_targetAtFixation,jsons/v1_VE1000_randls_34_rotated.json,http://54.235.29.9/FacialAge/BNav_EC2/DepthDuration/v2_depth_duration_MTurk/v2_DepthDuration_HTML.html#76,76,1006,605,1024,768,8-22-2022,5-0-28,113,depth_duration_stimuli/000917_2014-06-09_22-45-29_260595134347_rgbf000149-resize_3/000917_2014-06-09_22-45-29_260595134347_rgbf000149-resize_3-target.png,1000,4.1865,3,3232,992,meters,jsons/v1_VE1000_randls_34_rotated.json,876162,1057482,30,Woman
113,800178,DepthScenes,duration_manipulation_targetAtFixation,jsons/v1_VE1000_randls_34_rotated.json,http://54.235.29.9/FacialAge/BNav_EC2/DepthDuration/v2_depth_duration_MTurk/v2_DepthDuration_HTML.html#76,76,1006,605,1024,768,8-22-2022,5-0-28,114,depth_duration_stimuli/002467_2014-06-28_20-38-07_260595134347_rgbf000026-resize_2/002467_2014-06-28_20-38-07_260595134347_rgbf000026-resize_2-target.png,1000,4.742,3,6495,3143,meters,jsons/v1_VE1000_randls_34_rotated.json,876162,1057482,30,Woman
114,800178,DepthScenes,duration_manipulation_targetAtFixation,jsons/v1_VE1000_randls_34_rotated.json,http://54.235.29.9/FacialAge/BNav_EC2/DepthDuration/v2_depth_duration_MTurk/v2_DepthDuration_HTML.html#76,76,1006,605,1024,768,8-22-2022,5-0-28,115,depth_duration_stimuli/002570_2014-06-24_13-59-54_094959634447_rgbf000059-resize_0/002570_2014-06-24_13-59-54_094959634447_rgbf000059-resize_0-target.png,1000,4.037,2,4548,2322,meters,jsons/v1_VE1000_randls_34_rotated.json,876162,1057482,30,Woman
115,800178,DepthScenes,duration_manipulation_targetAtFixation,jsons/v1_VE1000_randls_34_rotated.json,http://54.235.29.9/FacialAge/BNav_EC2/DepthDuration/v2_depth_duration_MTurk/v2_DepthDuration_HTML.html#76,76,1006,605,1024,768,8-22-2022,5-0-28,116,depth_duration_stimuli/002639_2014-06-24_14-51-37_094959634447_rgbf000074-resize_4/002639_2014-06-24_14-51-37_094959634447_rgbf000074-resize_4-target.png,1000,4.0375,2,3826,1012,meters,jsons/v1_VE1000_randls_34_rotated.json,876162,1057482,30,Woman
116,800178,DepthScenes,duration_manipulation_targetAtFixation,jsons/v1_VE1000_randls_34_rotated.json,http://54.235.29.9/FacialAge/BNav_EC2/DepthDuration/v2_depth_duration_MTurk/v2_DepthDuration_HTML.html#76,76,1006,605,1024,768,8-22-2022,5-0-28,117,depth_duration_stimuli/003292_2014-05-14_21-53-49_094959634447_rgbf000100-resize_2/003292_2014-05-14_21-53-49_094959634447_rgbf000100-resize_2-target.png,1000,3.4815,3,4380,1097,meters,jsons/v1_VE1000_randls_34_rotated.json,876162,1057482,30,Woman
117,800178,DepthScenes,duration_manipulation_targetAtFixation,jsons/v1_VE1000_randls_34_rotated.json,http://54.235.29.9/FacialAge/BNav_EC2/DepthDuration/v2_depth_duration_MTurk/v2_DepthDuration_HTML.html#76,76,1006,605,1024,768,8-22-2022,5-0-28,118,depth_duration_stimuli/000943_2014-06-09_19-31-07_260595134347_rgbf000128-resize_1/000943_2014-06-09_19-31-07_260595134347_rgbf000128-resize_1-target.png,1000,1.9765,1,6174,1015,meters,jsons/v1_VE1000_randls_34_rotated.json,876162,1057482,30,Woman
118,800178,DepthScenes,duration_manipulation_targetAtFixation,jsons/v1_VE1000_randls_34_rotated.json,http://54.235.29.9/FacialAge/BNav_EC2/DepthDuration/v2_depth_duration_MTurk/v2_DepthDuration_HTML.html#76,76,1006,605,1024,768,8-22-2022,5-0-28,119,depth_duration_stimuli/003070_2014-06-15_14-58-27_094959634447_rgbf000150-resize_3/003070_2014-06-15_14-58-27_094959634447_rgbf000150-resize_3-target.png,1000,2.9415,3,2991,32,meters,jsons/v1_VE1000_randls_34_rotated.json,876162,1057482,30,Woman
119,800178,DepthScenes,duration_manipulation_targetAtFixation,jsons/v1_VE1000_randls_34_rotated.json,http://54.235.29.9/FacialAge/BNav_EC2/DepthDuration/v2_depth_duration_MTurk/v2_DepthDuration_HTML.html#76,76,1006,605,1024,768,8-22-2022,5-0-28,120,depth_duration_stimuli/000787_2014-06-08_22-33-53_260595134347_rgbf000175-resize_1/000787_2014-06-08_22-33-53_260595134347_rgbf000175-resize-original.jpg,1000,4.784,1,5694,1042,meters,jsons/v1_VE1000_randls_34_rotated.json,876162,1057482,30,Woman
120,800178,DepthScenes,duration_manipulation_targetAtFixation,jsons/v1_VE1000_randls_34_rotated.json,http://54.235.29.9/FacialAge/BNav_EC2/DepthDuration/v2_depth_duration_MTurk/v2_DepthDuration_HTML.html#76,76,1006,605,1024,768,8-22-2022,5-0-28,121,depth_duration_stimuli/000866_2014-06-09_20-45-42_260595134347_rgbf000139-resize_1/000866_2014-06-09_20-45-42_260595134347_rgbf000139-resize_1-target.png,1000,3.2155,2,3775,949,meters,jsons/v1_VE1000_randls_34_rotated.json,876162,1057482,30,Woman
121,800178,DepthScenes,duration_manipulation_targetAtFixation,jsons/v1_VE1000_randls_34_rotated.json,http://54.235.29.9/FacialAge/BNav_EC2/DepthDuration/v2_depth_duration_MTurk/v2_DepthDuration_HTML.html#76,76,1006,605,1024,768,8-22-2022,5-0-28,122,depth_duration_stimuli/002989_2014-06-15_12-25-03_094959634447_rgbf000150-resize_3/002989_2014-06-15_12-25-03_094959634447_rgbf000150-resize_3-target.png,1000,4.1975,2,7003,999,meters,jsons/v1_VE1000_randls_34_rotated.json,876162,1057482,30,Woman
122,800178,DepthScenes,duration_manipulation_targetAtFixation,jsons/v1_VE1000_randls_34_rotated.json,http://54.235.29.9/FacialAge/BNav_EC2/DepthDuration/v2_depth_duration_MTurk/v2_DepthDuration_HTML.html#76,76,1006,605,1024,768,8-22-2022,5-0-28,123,depth_duration_stimuli/001100_2014-06-15_17-46-26_260595134347_rgbf000225-resize_2/001100_2014-06-15_17-46-26_260595134347_rgbf000225-resize_2-target.png,1000,2.24,2,4269,988,meters,jsons/v1_VE1000_randls_34_rotated.json,876162,1057482,30,Woman
123,800178,DepthScenes,duration_manipulation_targetAtFixation,jsons/v1_VE1000_randls_34_rotated.json,http://54.235.29.9/FacialAge/BNav_EC2/DepthDuration/v2_depth_duration_MTurk/v2_DepthDuration_HTML.html#76,76,1006,605,1024,768,8-22-2022,5-0-28,124,depth_duration_stimuli/002784_2014-06-22_19-26-30_094959634447_rgbf000083-resize_3/002784_2014-06-22_19-26-30_094959634447_rgbf000083-resize_3-target.png,1000,1.8046666666667,3,2806,398,meters,jsons/v1_VE1000_randls_34_rotated.json,876162,1057482,30,Woman
124,800178,DepthScenes,duration_manipulation_targetAtFixation,jsons/v1_VE1000_randls_34_rotated.json,http://54.235.29.9/FacialAge/BNav_EC2/DepthDuration/v2_depth_duration_MTurk/v2_DepthDuration_HTML.html#76,76,1006,605,1024,768,8-22-2022,5-0-28,125,depth_duration_stimuli/000483_2014-06-09_20-41-45_260595134347_rgbf000116-resize_4/000483_2014-06-09_20-41-45_260595134347_rgbf000116-resize_4-target.png,1000,1.337,3,3686,1005,meters,jsons/v1_VE1000_randls_34_rotated.json,876162,1057482,30,Woman
125,800178,DepthScenes,duration_manipulation_targetAtFixation,jsons/v1_VE1000_randls_34_rotated.json,http://54.235.29.9/FacialAge/BNav_EC2/DepthDuration/v2_depth_duration_MTurk/v2_DepthDuration_HTML.html#76,76,1006,605,1024,768,8-22-2022,5-0-28,126,depth_duration_stimuli/000469_2014-06-09_19-42-10_260595134347_rgbf000081-resize_1/000469_2014-06-09_19-42-10_260595134347_rgbf000081-resize_1-target.png,1000,1.652,2,3168,1274,meters,jsons/v1_VE1000_randls_34_rotated.json,876162,1057482,30,Woman
126,800178,DepthScenes,duration_manipulation_targetAtFixation,jsons/v1_VE1000_randls_34_rotated.json,http://54.235.29.9/FacialAge/BNav_EC2/DepthDuration/v2_depth_duration_MTurk/v2_DepthDuration_HTML.html#76,76,1006,605,1024,768,8-22-2022,5-0-28,127,depth_duration_stimuli/000109_2014-05-14_23-41-52_260595134347_rgbf000035-resize_9/000109_2014-05-14_23-41-52_260595134347_rgbf000035-resize_9-target.png,1000,1.3545,1,3297,991,meters,jsons/v1_VE1000_randls_34_rotated.json,876162,1057482,30,Woman
127,800178,DepthScenes,duration_manipulation_targetAtFixation,jsons/v1_VE1000_randls_34_rotated.json,http://54.235.29.9/FacialAge/BNav_EC2/DepthDuration/v2_depth_duration_MTurk/v2_DepthDuration_HTML.html#76,76,1006,605,1024,768,8-22-2022,5-0-28,128,depth_duration_stimuli/000470_2014-06-09_19-42-40_260595134347_rgbf000094-resize_1/000470_2014-06-09_19-42-40_260595134347_rgbf000094-resize_1-target.png,1000,1.831,2,6711,1001,meters,jsons/v1_VE1000_randls_34_rotated.json,876162,1057482,30,Woman
128,800178,DepthScenes,duration_manipulation_targetAtFixation,jsons/v1_VE1000_randls_34_rotated.json,http://54.235.29.9/FacialAge/BNav_EC2/DepthDuration/v2_depth_duration_MTurk/v2_DepthDuration_HTML.html#76,76,1006,605,1024,768,8-22-2022,5-0-28,129,depth_duration_stimuli/001132_2014-06-17_14-48-54_260595134347_rgbf000100-resize_2/001132_2014-06-17_14-48-54_260595134347_rgbf000100-resize_2-target.png,1000,3.753,3,3964,1012,meters,jsons/v1_VE1000_randls_34_rotated.json,876162,1057482,30,Woman
129,800178,DepthScenes,duration_manipulation_targetAtFixation,jsons/v1_VE1000_randls_34_rotated.json,http://54.235.29.9/FacialAge/BNav_EC2/DepthDuration/v2_depth_duration_MTurk/v2_DepthDuration_HTML.html#76,76,1006,605,1024,768,8-22-2022,5-0-28,130,depth_duration_stimuli/001133_2014-06-17_14-49-16_260595134347_rgbf000100-resize_0/001133_2014-06-17_14-49-16_260595134347_rgbf000100-resize_0-target.png,1000,4.2115,3,4834,987,meters,jsons/v1_VE1000_randls_34_rotated.json,876162,1057482,30,Woman
130,800178,DepthScenes,duration_manipulation_targetAtFixation,jsons/v1_VE1000_randls_34_rotated.json,http://54.235.29.9/FacialAge/BNav_EC2/DepthDuration/v2_depth_duration_MTurk/v2_DepthDuration_HTML.html#76,76,1006,605,1024,768,8-22-2022,5-0-28,131,depth_duration_stimuli/001450_2014-06-19_17-02-03_260595134347_rgbf000203-resize_4/001450_2014-06-19_17-02-03_260595134347_rgbf000203-resize_4-target.png,1000,4.0106666666667,3,3805,999,meters,jsons/v1_VE1000_randls_34_rotated.json,876162,1057482,30,Woman
131,800178,DepthScenes,duration_manipulation_targetAtFixation,jsons/v1_VE1000_randls_34_rotated.json,http://54.235.29.9/FacialAge/BNav_EC2/DepthDuration/v2_depth_duration_MTurk/v2_DepthDuration_HTML.html#76,76,1006,605,1024,768,8-22-2022,5-0-28,132,depth_duration_stimuli/001449_2014-06-19_17-01-27_260595134347_rgbf000116-resize_2/001449_2014-06-19_17-01-27_260595134347_rgbf000116-resize_2-target.png,1000,3.452,3,7678,933,meters,jsons/v1_VE1000_randls_34_rotated.json,876162,1057482,30,Woman
132,800178,DepthScenes,duration_manipulation_targetAtFixation,jsons/v1_VE1000_randls_34_rotated.json,http://54.235.29.9/FacialAge/BNav_EC2/DepthDuration/v2_depth_duration_MTurk/v2_DepthDuration_HTML.html#76,76,1006,605,1024,768,8-22-2022,5-0-28,133,depth_duration_stimuli/003129_2014-05-12_10-48-10_094959634447_rgbf000100-resize_0/003129_2014-05-12_10-48-10_094959634447_rgbf000100-resize_0-target.png,1000,4.9305,2,4436,988,meters,jsons/v1_VE1000_randls_34_rotated.json,876162,1057482,30,Woman
133,800178,DepthScenes,duration_manipulation_targetAtFixation,jsons/v1_VE1000_randls_34_rotated.json,http://54.235.29.9/FacialAge/BNav_EC2/DepthDuration/v2_depth_duration_MTurk/v2_DepthDuration_HTML.html#76,76,1006,605,1024,768,8-22-2022,5-0-28,134,depth_duration_stimuli/000414_2014-06-04_19-49-13_260595134347_rgbf000044-resize_0/000414_2014-06-04_19-49-13_260595134347_rgbf000044-resize_0-target.png,1000,4.329,3,3507,492,meters,jsons/v1_VE1000_randls_34_rotated.json,876162,1057482,30,Woman
134,800178,DepthScenes,duration_manipulation_targetAtFixation,jsons/v1_VE1000_randls_34_rotated.json,http://54.235.29.9/FacialAge/BNav_EC2/DepthDuration/v2_depth_duration_MTurk/v2_DepthDuration_HTML.html#76,76,1006,605,1024,768,8-22-2022,5-0-28,135,depth_duration_stimuli/000375_2014-06-08_11-17-29_260595134347_rgbf000133-resize_2/000375_2014-06-08_11-17-29_260595134347_rgbf000133-resize-original.jpg,1000,4.718,3,4708,1032,meters,jsons/v1_VE1000_randls_34_rotated.json,876162,1057482,30,Woman
135,800178,DepthScenes,duration_manipulation_targetAtFixation,jsons/v1_VE1000_randls_34_rotated.json,http://54.235.29.9/FacialAge/BNav_EC2/DepthDuration/v2_depth_duration_MTurk/v2_DepthDuration_HTML.html#76,76,1006,605,1024,768,8-22-2022,5-0-28,136,depth_duration_stimuli/003587_2014-05-23_16-48-02_094959634447_rgbf002384-resize_2/003587_2014-05-23_16-48-02_094959634447_rgbf002384-resize_2-target.png,1000,1.357,2,3865,0,meters,jsons/v1_VE1000_randls_34_rotated.json,876162,1057482,30,Woman
136,800178,DepthScenes,duration_manipulation_targetAtFixation,jsons/v1_VE1000_randls_34_rotated.json,http://54.235.29.9/FacialAge/BNav_EC2/DepthDuration/v2_depth_duration_MTurk/v2_DepthDuration_HTML.html#76,76,1006,605,1024,768,8-22-2022,5-0-28,137,depth_duration_stimuli/001167_2014-06-17_15-38-07_260595134347_rgbf000108-resize_0/001167_2014-06-17_15-38-07_260595134347_rgbf000108-resize_0-target.png,1000,1.8505,1,5058,1056,meters,jsons/v1_VE1000_randls_34_rotated.json,876162,1057482,30,Woman
137,800178,DepthScenes,duration_manipulation_targetAtFixation,jsons/v1_VE1000_randls_34_rotated.json,http://54.235.29.9/FacialAge/BNav_EC2/DepthDuration/v2_depth_duration_MTurk/v2_DepthDuration_HTML.html#76,76,1006,605,1024,768,8-22-2022,5-0-28,138,depth_duration_stimuli/000709_2014-06-08_13-51-55_260595134347_rgbf000068-resize_3/000709_2014-06-08_13-51-55_260595134347_rgbf000068-resize_3-target.png,1000,1.8030000000000002,1,3614,997,meters,jsons/v1_VE1000_randls_34_rotated.json,876162,1057482,30,Woman
138,800178,DepthScenes,duration_manipulation_targetAtFixation,jsons/v1_VE1000_randls_34_rotated.json,http://54.235.29.9/FacialAge/BNav_EC2/DepthDuration/v2_depth_duration_MTurk/v2_DepthDuration_HTML.html#76,76,1006,605,1024,768,8-22-2022,5-0-28,139,depth_duration_stimuli/002057_2014-06-24_21-00-13_260595134347_rgbf000120-resize_1/002057_2014-06-24_21-00-13_260595134347_rgbf000120-resize_1-target.png,1000,2.967,2,4670,1397,meters,jsons/v1_VE1000_randls_34_rotated.json,876162,1057482,30,Woman
139,800178,DepthScenes,duration_manipulation_targetAtFixation,jsons/v1_VE1000_randls_34_rotated.json,http://54.235.29.9/FacialAge/BNav_EC2/DepthDuration/v2_depth_duration_MTurk/v2_DepthDuration_HTML.html#76,76,1006,605,1024,768,8-22-2022,5-0-28,140,depth_duration_stimuli/002657_2014-06-13_15-29-54_094959634447_rgbf000150-resize_1/002657_2014-06-13_15-29-54_094959634447_rgbf000150-resize_1-target.png,1000,4.919,2,7513,1018,meters,jsons/v1_VE1000_randls_34_rotated.json,876162,1057482,30,Woman
140,800178,DepthScenes,duration_manipulation_targetAtFixation,jsons/v1_VE1000_randls_34_rotated.json,http://54.235.29.9/FacialAge/BNav_EC2/DepthDuration/v2_depth_duration_MTurk/v2_DepthDuration_HTML.html#76,76,1006,605,1024,768,8-22-2022,5-0-28,141,depth_duration_stimuli/002375_2014-06-28_20-13-44_260595134347_rgbf000032-resize_1/002375_2014-06-28_20-13-44_260595134347_rgbf000032-resize_1-target.png,1000,4.0175,2,3496,1000,meters,jsons/v1_VE1000_randls_34_rotated.json,876162,1057482,30,Woman
141,800178,DepthScenes,duration_manipulation_targetAtFixation,jsons/v1_VE1000_randls_34_rotated.json,http://54.235.29.9/FacialAge/BNav_EC2/DepthDuration/v2_depth_duration_MTurk/v2_DepthDuration_HTML.html#76,76,1006,605,1024,768,8-22-2022,5-0-28,142,depth_duration_stimuli/002414_2014-06-28_20-24-58_260595134347_rgbf000067-resize_4/002414_2014-06-28_20-24-58_260595134347_rgbf000067-resize_4-target.png,1000,4.363,2,4840,1000,meters,jsons/v1_VE1000_randls_34_rotated.json,876162,1057482,30,Woman
142,800178,DepthScenes,duration_manipulation_targetAtFixation,jsons/v1_VE1000_randls_34_rotated.json,http://54.235.29.9/FacialAge/BNav_EC2/DepthDuration/v2_depth_duration_MTurk/v2_DepthDuration_HTML.html#76,76,1006,605,1024,768,8-22-2022,5-0-28,143,depth_duration_stimuli/000773_2014-06-08_22-24-54_260595134347_rgbf000093-resize_1/000773_2014-06-08_22-24-54_260595134347_rgbf000093-resize_1-target.png,1000,4.973,2,3189,999,meters,jsons/v1_VE1000_randls_34_rotated.json,876162,1057482,30,Woman
143,800178,DepthScenes,duration_manipulation_targetAtFixation,jsons/v1_VE1000_randls_34_rotated.json,http://54.235.29.9/FacialAge/BNav_EC2/DepthDuration/v2_depth_duration_MTurk/v2_DepthDuration_HTML.html#76,76,1006,605,1024,768,8-22-2022,5-0-28,144,depth_duration_stimuli/001516_2014-06-20_16-25-09_260595134347_rgbf000076-resize_2/001516_2014-06-20_16-25-09_260595134347_rgbf000076-resize_2-target.png,1000,1.7445,2,5081,998,meters,jsons/v1_VE1000_randls_34_rotated.json,876162,1057482,30,Woman
144,800178,DepthScenes,duration_manipulation_targetAtFixation,jsons/v1_VE1000_randls_34_rotated.json,http://54.235.29.9/FacialAge/BNav_EC2/DepthDuration/v2_depth_duration_MTurk/v2_DepthDuration_HTML.html#76,76,1006,605,1024,768,8-22-2022,5-0-28,145,depth_duration_stimuli/002118_2014-06-25_20-32-08_260595134347_rgbf000078-resize_1/002118_2014-06-25_20-32-08_260595134347_rgbf000078-resize_1-target.png,1000,2.6460000000000004,2,3505,998,meters,jsons/v1_VE1000_randls_34_rotated.json,876162,1057482,30,Woman
145,800178,DepthScenes,duration_manipulation_targetAtFixation,jsons/v1_VE1000_randls_34_rotated.json,http://54.235.29.9/FacialAge/BNav_EC2/DepthDuration/v2_depth_duration_MTurk/v2_DepthDuration_HTML.html#76,76,1006,605,1024,768,8-22-2022,5-0-28,146,depth_duration_stimuli/000556_2014-06-09_22-42-56_260595134347_rgbf000214-resize_1/000556_2014-06-09_22-42-56_260595134347_rgbf000214-resize_1-target.png,1000,4.8415,2,5816,1000,meters,jsons/v1_VE1000_randls_34_rotated.json,876162,1057482,30,Woman
146,800178,DepthScenes,duration_manipulation_targetAtFixation,jsons/v1_VE1000_randls_34_rotated.json,http://54.235.29.9/FacialAge/BNav_EC2/DepthDuration/v2_depth_duration_MTurk/v2_DepthDuration_HTML.html#76,76,1006,605,1024,768,8-22-2022,5-0-28,147,depth_duration_stimuli/001158_2014-06-17_15-32-16_260595134347_rgbf000138-resize_2/001158_2014-06-17_15-32-16_260595134347_rgbf000138-resize_2-target.png,1000,4.5315,1,3081,999,meters,jsons/v1_VE1000_randls_34_rotated.json,876162,1057482,30,Woman
147,800178,DepthScenes,duration_manipulation_targetAtFixation,jsons/v1_VE1000_randls_34_rotated.json,http://54.235.29.9/FacialAge/BNav_EC2/DepthDuration/v2_depth_duration_MTurk/v2_DepthDuration_HTML.html#76,76,1006,605,1024,768,8-22-2022,5-0-28,148,depth_duration_stimuli/001392_2014-06-19_16-07-59_260595134347_rgbf000046-resize_1/001392_2014-06-19_16-07-59_260595134347_rgbf000046-resize_1-target.png,1000,4.135,1,4276,1056,meters,jsons/v1_VE1000_randls_34_rotated.json,876162,1057482,30,Woman
148,800178,DepthScenes,duration_manipulation_targetAtFixation,jsons/v1_VE1000_randls_34_rotated.json,http://54.235.29.9/FacialAge/BNav_EC2/DepthDuration/v2_depth_duration_MTurk/v2_DepthDuration_HTML.html#76,76,1006,605,1024,768,8-22-2022,5-0-28,149,depth_duration_stimuli/001570_2014-06-20_17-21-09_260595134347_rgbf000135-resize_4/001570_2014-06-20_17-21-09_260595134347_rgbf000135-resize_4-target.png,1000,4.467,2,2869,828,meters,jsons/v1_VE1000_randls_34_rotated.json,876162,1057482,30,Woman
149,800178,DepthScenes,duration_manipulation_targetAtFixation,jsons/v1_VE1000_randls_34_rotated.json,http://54.235.29.9/FacialAge/BNav_EC2/DepthDuration/v2_depth_duration_MTurk/v2_DepthDuration_HTML.html#76,76,1006,605,1024,768,8-22-2022,5-0-28,150,depth_duration_stimuli/002949_2014-06-26_15-57-42_094959634447_rgbf000079-resize_1/002949_2014-06-26_15-57-42_094959634447_rgbf000079-resize_1-target.png,1000,1.8915,2,4563,2800,meters,jsons/v1_VE1000_randls_34_rotated.json,876162,1057482,30,Woman
150,800178,DepthScenes,duration_manipulation_targetAtFixation,jsons/v1_VE1000_randls_34_rotated.json,http://54.235.29.9/FacialAge/BNav_EC2/DepthDuration/v2_depth_duration_MTurk/v2_DepthDuration_HTML.html#76,76,1006,605,1024,768,8-22-2022,5-0-28,151,depth_duration_stimuli/000522_2014-06-08_13-35-06_260595134347_rgbf000244-resize_1/000522_2014-06-08_13-35-06_260595134347_rgbf000244-resize_1-target.png,1000,2.3715,1,5153,998,meters,jsons/v1_VE1000_randls_34_rotated.json,876162,1057482,30,Woman
151,800178,DepthScenes,duration_manipulation_targetAtFixation,jsons/v1_VE1000_randls_34_rotated.json,http://54.235.29.9/FacialAge/BNav_EC2/DepthDuration/v2_depth_duration_MTurk/v2_DepthDuration_HTML.html#76,76,1006,605,1024,768,8-22-2022,5-0-28,152,depth_duration_stimuli/000569_2014-06-09_22-51-47_260595134347_rgbf000141-resize_3/000569_2014-06-09_22-51-47_260595134347_rgbf000141-resize-original.jpg,1000,4.512,2,3432,1004,meters,jsons/v1_VE1000_randls_34_rotated.json,876162,1057482,30,Woman
152,800178,DepthScenes,duration_manipulation_targetAtFixation,jsons/v1_VE1000_randls_34_rotated.json,http://54.235.29.9/FacialAge/BNav_EC2/DepthDuration/v2_depth_duration_MTurk/v2_DepthDuration_HTML.html#76,76,1006,605,1024,768,8-22-2022,5-0-28,153,depth_duration_stimuli/003083_2014-06-15_15-21-03_094959634447_rgbf000063-resize_1/003083_2014-06-15_15-21-03_094959634447_rgbf000063-resize_1-target.png,1000,4.1405,2,3703,1001,meters,jsons/v1_VE1000_randls_34_rotated.json,876162,1057482,30,Woman
153,800178,DepthScenes,duration_manipulation_targetAtFixation,jsons/v1_VE1000_randls_34_rotated.json,http://54.235.29.9/FacialAge/BNav_EC2/DepthDuration/v2_depth_duration_MTurk/v2_DepthDuration_HTML.html#76,76,1006,605,1024,768,8-22-2022,5-0-28,154,depth_duration_stimuli/000486_2014-06-09_20-47-20_260595134347_rgbf000143-resize_2/000486_2014-06-09_20-47-20_260595134347_rgbf000143-resize_2-target.png,1000,4.8325,3,3606,1324,meters,jsons/v1_VE1000_randls_34_rotated.json,876162,1057482,30,Woman
154,800178,DepthScenes,duration_manipulation_targetAtFixation,jsons/v1_VE1000_randls_34_rotated.json,http://54.235.29.9/FacialAge/BNav_EC2/DepthDuration/v2_depth_duration_MTurk/v2_DepthDuration_HTML.html#76,76,1006,605,1024,768,8-22-2022,5-0-28,155,depth_duration_stimuli/000409_2014-06-04_19-23-33_260595134347_rgbf000067-resize_0/000409_2014-06-04_19-23-33_260595134347_rgbf000067-resize_0-target.png,1000,3.7335,2,6703,1482,meters,jsons/v1_VE1000_randls_34_rotated.json,876162,1057482,30,Woman
155,800178,DepthScenes,duration_manipulation_targetAtFixation,jsons/v1_VE1000_randls_34_rotated.json,http://54.235.29.9/FacialAge/BNav_EC2/DepthDuration/v2_depth_duration_MTurk/v2_DepthDuration_HTML.html#76,76,1006,605,1024,768,8-22-2022,5-0-28,156,depth_duration_stimuli/002663_2014-06-13_15-50-26_094959634447_rgbf000075-resize_1/002663_2014-06-13_15-50-26_094959634447_rgbf000075-resize_1-target.png,1000,4.7495,2,3933,995,meters,jsons/v1_VE1000_randls_34_rotated.json,876162,1057482,30,Woman
156,800178,DepthScenes,duration_manipulation_targetAtFixation,jsons/v1_VE1000_randls_34_rotated.json,http://54.235.29.9/FacialAge/BNav_EC2/DepthDuration/v2_depth_duration_MTurk/v2_DepthDuration_HTML.html#76,76,1006,605,1024,768,8-22-2022,5-0-28,157,depth_duration_stimuli/000691_2014-06-08_13-08-50_260595134347_rgbf000132-resize_3/000691_2014-06-08_13-08-50_260595134347_rgbf000132-resize_3-target.png,1000,4.1530000000000005,2,6995,927,meters,jsons/v1_VE1000_randls_34_rotated.json,876162,1057482,30,Woman
157,800178,DepthScenes,duration_manipulation_targetAtFixation,jsons/v1_VE1000_randls_34_rotated.json,http://54.235.29.9/FacialAge/BNav_EC2/DepthDuration/v2_depth_duration_MTurk/v2_DepthDuration_HTML.html#76,76,1006,605,1024,768,8-22-2022,5-0-28,158,depth_duration_stimuli/002213_2014-06-28_18-37-58_260595134347_rgbf000055-resize_1/002213_2014-06-28_18-37-58_260595134347_rgbf000055-resize_1-target.png,1000,3.62,3,3884,1013,meters,jsons/v1_VE1000_randls_34_rotated.json,876162,1057482,30,Woman
158,800178,DepthScenes,duration_manipulation_targetAtFixation,jsons/v1_VE1000_randls_34_rotated.json,http://54.235.29.9/FacialAge/BNav_EC2/DepthDuration/v2_depth_duration_MTurk/v2_DepthDuration_HTML.html#76,76,1006,605,1024,768,8-22-2022,5-0-28,159,depth_duration_stimuli/000191_2014-05-12_17-07-38_260595134347_rgbf000199-resize_0/000191_2014-05-12_17-07-38_260595134347_rgbf000199-resize_0-target.png,1000,3.7995,3,4237,1027,meters,jsons/v1_VE1000_randls_34_rotated.json,876162,1057482,30,Woman
159,800178,DepthScenes,duration_manipulation_targetAtFixation,jsons/v1_VE1000_randls_34_rotated.json,http://54.235.29.9/FacialAge/BNav_EC2/DepthDuration/v2_depth_duration_MTurk/v2_DepthDuration_HTML.html#76,76,1006,605,1024,768,8-22-2022,5-0-28,160,depth_duration_stimuli/000493_2014-06-09_21-01-18_260595134347_rgbf000196-resize_3/000493_2014-06-09_21-01-18_260595134347_rgbf000196-resize_3-target.png,1000,3.44,3,5473,963,meters,jsons/v1_VE1000_randls_34_rotated.json,876162,1057482,30,Woman
160,800178,DepthScenes,duration_manipulation_targetAtFixation,jsons/v1_VE1000_randls_34_rotated.json,http://54.235.29.9/FacialAge/BNav_EC2/DepthDuration/v2_depth_duration_MTurk/v2_DepthDuration_HTML.html#76,76,1006,605,1024,768,8-22-2022,5-0-28,161,depth_duration_stimuli/001235_2014-06-17_16-37-36_260595134347_rgbf000084-resize_4/001235_2014-06-17_16-37-36_260595134347_rgbf000084-resize_4-target.png,1000,3.6605,2,4502,991,meters,jsons/v1_VE1000_randls_34_rotated.json,876162,1057482,30,Woman
161,800178,DepthScenes,duration_manipulation_targetAtFixation,jsons/v1_VE1000_randls_34_rotated.json,http://54.235.29.9/FacialAge/BNav_EC2/DepthDuration/v2_depth_duration_MTurk/v2_DepthDuration_HTML.html#76,76,1006,605,1024,768,8-22-2022,5-0-28,162,depth_duration_stimuli/000788_2014-06-08_22-34-36_260595134347_rgbf000131-resize_1/000788_2014-06-08_22-34-36_260595134347_rgbf000131-resize_1-target.png,1000,3.359,2,6442,882,meters,jsons/v1_VE1000_randls_34_rotated.json,876162,1057482,30,Woman
162,800178,DepthScenes,duration_manipulation_targetAtFixation,jsons/v1_VE1000_randls_34_rotated.json,http://54.235.29.9/FacialAge/BNav_EC2/DepthDuration/v2_depth_duration_MTurk/v2_DepthDuration_HTML.html#76,76,1006,605,1024,768,8-22-2022,5-0-28,163,depth_duration_stimuli/000734_2014-06-08_17-39-11_260595134347_rgbf000128-resize_2/000734_2014-06-08_17-39-11_260595134347_rgbf000128-resize_2-target.png,1000,4.098,2,7814,901,meters,jsons/v1_VE1000_randls_34_rotated.json,876162,1057482,30,Woman
163,800178,DepthScenes,duration_manipulation_targetAtFixation,jsons/v1_VE1000_randls_34_rotated.json,http://54.235.29.9/FacialAge/BNav_EC2/DepthDuration/v2_depth_duration_MTurk/v2_DepthDuration_HTML.html#76,76,1006,605,1024,768,8-22-2022,5-0-28,164,depth_duration_stimuli/000739_2014-06-08_18-45-58_260595134347_rgbf000068-resize_1/000739_2014-06-08_18-45-58_260595134347_rgbf000068-resize_1-target.png,1000,3.534,2,3366,874,meters,jsons/v1_VE1000_randls_34_rotated.json,876162,1057482,30,Woman
