,subjID,experimentName,versionName,sequenceName,url,selected_row,windowWidth,windowHeight,screenWidth,screenHeight,startDate,startTime,trial,stimulus,duration,actual_depth,depth_estimate,trial_RT,log_sceneDuration,unitSelection,seq_filepath,experimentTime,totalTime,age,gender
0,802331,DepthScenes,duration_manipulation_targetAtFixation,jsons/v1_VE1000_randls_38.json,http://54.235.29.9/FacialAge/BNav_EC2/DepthDuration/v2_depth_duration_MTurk/v2_DepthDuration_HTML.html#449,449,1920,880,1920,1080,8-29-2022,15-34-2,1,depth_duration_stimuli/001199_2014-06-17_16-03-48_260595134347_rgbf000077-resize_0/001199_2014-06-17_16-03-48_260595134347_rgbf000077-resize_0-target.png,1000,3.4375,15,3330,995,feet,jsons/v1_VE1000_randls_38.json,1119454,1460364,33,Man
1,802331,DepthScenes,duration_manipulation_targetAtFixation,jsons/v1_VE1000_randls_38.json,http://54.235.29.9/FacialAge/BNav_EC2/DepthDuration/v2_depth_duration_MTurk/v2_DepthDuration_HTML.html#449,449,1920,880,1920,1080,8-29-2022,15-34-2,2,depth_duration_stimuli/000502_2014-06-08_23-02-32_260595134347_rgbf000063-resize_4/000502_2014-06-08_23-02-32_260595134347_rgbf000063-resize_4-target.png,1000,2.431,8,3578,1007,feet,jsons/v1_VE1000_randls_38.json,1119454,1460364,33,Man
2,802331,DepthScenes,duration_manipulation_targetAtFixation,jsons/v1_VE1000_randls_38.json,http://54.235.29.9/FacialAge/BNav_EC2/DepthDuration/v2_depth_duration_MTurk/v2_DepthDuration_HTML.html#449,449,1920,880,1920,1080,8-29-2022,15-34-2,3,depth_duration_stimuli/002279_2014-06-28_18-55-32_260595134347_rgbf000040-resize_5/002279_2014-06-28_18-55-32_260595134347_rgbf000040-resize_5-target.png,1000,1.5043333333333,4,3698,1008,feet,jsons/v1_VE1000_randls_38.json,1119454,1460364,33,Man
3,802331,DepthScenes,duration_manipulation_targetAtFixation,jsons/v1_VE1000_randls_38.json,http://54.235.29.9/FacialAge/BNav_EC2/DepthDuration/v2_depth_duration_MTurk/v2_DepthDuration_HTML.html#449,449,1920,880,1920,1080,8-29-2022,15-34-2,4,depth_duration_stimuli/000635_2014-06-08_16-38-42_260595134347_rgbf000106-resize_1/000635_2014-06-08_16-38-42_260595134347_rgbf000106-resize_1-target.png,1000,2.074,10,3583,1015,feet,jsons/v1_VE1000_randls_38.json,1119454,1460364,33,Man
4,802331,DepthScenes,duration_manipulation_targetAtFixation,jsons/v1_VE1000_randls_38.json,http://54.235.29.9/FacialAge/BNav_EC2/DepthDuration/v2_depth_duration_MTurk/v2_DepthDuration_HTML.html#449,449,1920,880,1920,1080,8-29-2022,15-34-2,5,depth_duration_stimuli/001555_2014-06-20_17-12-10_260595134347_rgbf000065-resize_4/001555_2014-06-20_17-12-10_260595134347_rgbf000065-resize_4-target.png,1000,1.633,4,150315,999,feet,jsons/v1_VE1000_randls_38.json,1119454,1460364,33,Man
5,802331,DepthScenes,duration_manipulation_targetAtFixation,jsons/v1_VE1000_randls_38.json,http://54.235.29.9/FacialAge/BNav_EC2/DepthDuration/v2_depth_duration_MTurk/v2_DepthDuration_HTML.html#449,449,1920,880,1920,1080,8-29-2022,15-34-2,6,depth_duration_stimuli/000103_2014-05-14_22-01-17_260595134347_rgbf000152-resize_5/000103_2014-05-14_22-01-17_260595134347_rgbf000152-resize_5-target.png,1000,1.993,7,3036,1000,feet,jsons/v1_VE1000_randls_38.json,1119454,1460364,33,Man
6,802331,DepthScenes,duration_manipulation_targetAtFixation,jsons/v1_VE1000_randls_38.json,http://54.235.29.9/FacialAge/BNav_EC2/DepthDuration/v2_depth_duration_MTurk/v2_DepthDuration_HTML.html#449,449,1920,880,1920,1080,8-29-2022,15-34-2,7,depth_duration_stimuli/001011_2014-06-08_23-18-54_260595134347_rgbf000044-resize_4/001011_2014-06-08_23-18-54_260595134347_rgbf000044-resize_4-target.png,1000,2.4730000000000003,7,2780,989,feet,jsons/v1_VE1000_randls_38.json,1119454,1460364,33,Man
7,802331,DepthScenes,duration_manipulation_targetAtFixation,jsons/v1_VE1000_randls_38.json,http://54.235.29.9/FacialAge/BNav_EC2/DepthDuration/v2_depth_duration_MTurk/v2_DepthDuration_HTML.html#449,449,1920,880,1920,1080,8-29-2022,15-34-2,8,depth_duration_stimuli/002875_2014-06-01_15-19-00_094959634447_rgbf000151-resize_1/002875_2014-06-01_15-19-00_094959634447_rgbf000151-resize_1-target.png,1000,1.9675,5,2857,997,feet,jsons/v1_VE1000_randls_38.json,1119454,1460364,33,Man
8,802331,DepthScenes,duration_manipulation_targetAtFixation,jsons/v1_VE1000_randls_38.json,http://54.235.29.9/FacialAge/BNav_EC2/DepthDuration/v2_depth_duration_MTurk/v2_DepthDuration_HTML.html#449,449,1920,880,1920,1080,8-29-2022,15-34-2,9,depth_duration_stimuli/001056_2014-06-08_18-46-44_260595134347_rgbf000068-resize_0/001056_2014-06-08_18-46-44_260595134347_rgbf000068-resize_0-target.png,1000,2.6625,11,2965,998,feet,jsons/v1_VE1000_randls_38.json,1119454,1460364,33,Man
9,802331,DepthScenes,duration_manipulation_targetAtFixation,jsons/v1_VE1000_randls_38.json,http://54.235.29.9/FacialAge/BNav_EC2/DepthDuration/v2_depth_duration_MTurk/v2_DepthDuration_HTML.html#449,449,1920,880,1920,1080,8-29-2022,15-34-2,10,depth_duration_stimuli/002199_2014-06-28_18-33-56_260595134347_rgbf000074-resize_0/002199_2014-06-28_18-33-56_260595134347_rgbf000074-resize_0-target.png,1000,1.996,4,4278,1000,feet,jsons/v1_VE1000_randls_38.json,1119454,1460364,33,Man
10,802331,DepthScenes,duration_manipulation_targetAtFixation,jsons/v1_VE1000_randls_38.json,http://54.235.29.9/FacialAge/BNav_EC2/DepthDuration/v2_depth_duration_MTurk/v2_DepthDuration_HTML.html#449,449,1920,880,1920,1080,8-29-2022,15-34-2,11,depth_duration_stimuli/003621_2014-05-23_18-06-08_094959634447_rgbf000101-resize_1/003621_2014-05-23_18-06-08_094959634447_rgbf000101-resize_1-target.png,1000,3.9835,13,3991,999,feet,jsons/v1_VE1000_randls_38.json,1119454,1460364,33,Man
11,802331,DepthScenes,duration_manipulation_targetAtFixation,jsons/v1_VE1000_randls_38.json,http://54.235.29.9/FacialAge/BNav_EC2/DepthDuration/v2_depth_duration_MTurk/v2_DepthDuration_HTML.html#449,449,1920,880,1920,1080,8-29-2022,15-34-2,12,depth_duration_stimuli/001584_2014-06-20_11-07-43_260595134347_rgbf000002-resize_1/001584_2014-06-20_11-07-43_260595134347_rgbf000002-resize_1-target.png,1000,3.53,10,248695,1016,feet,jsons/v1_VE1000_randls_38.json,1119454,1460364,33,Man
12,802331,DepthScenes,duration_manipulation_targetAtFixation,jsons/v1_VE1000_randls_38.json,http://54.235.29.9/FacialAge/BNav_EC2/DepthDuration/v2_depth_duration_MTurk/v2_DepthDuration_HTML.html#449,449,1920,880,1920,1080,8-29-2022,15-34-2,13,depth_duration_stimuli/000569_2014-06-09_22-51-47_260595134347_rgbf000141-resize_3/000569_2014-06-09_22-51-47_260595134347_rgbf000141-resize-original.jpg,1000,4.512,0,4499,999,feet,jsons/v1_VE1000_randls_38.json,1119454,1460364,33,Man
13,802331,DepthScenes,duration_manipulation_targetAtFixation,jsons/v1_VE1000_randls_38.json,http://54.235.29.9/FacialAge/BNav_EC2/DepthDuration/v2_depth_duration_MTurk/v2_DepthDuration_HTML.html#449,449,1920,880,1920,1080,8-29-2022,15-34-2,14,depth_duration_stimuli/000642_2014-06-08_16-59-25_260595134347_rgbf000098-resize_2/000642_2014-06-08_16-59-25_260595134347_rgbf000098-resize_2-target.png,1000,2.8815,8,3357,996,feet,jsons/v1_VE1000_randls_38.json,1119454,1460364,33,Man
14,802331,DepthScenes,duration_manipulation_targetAtFixation,jsons/v1_VE1000_randls_38.json,http://54.235.29.9/FacialAge/BNav_EC2/DepthDuration/v2_depth_duration_MTurk/v2_DepthDuration_HTML.html#449,449,1920,880,1920,1080,8-29-2022,15-34-2,15,depth_duration_stimuli/002425_2014-06-28_20-27-29_260595134347_rgbf000031-resize_8/002425_2014-06-28_20-27-29_260595134347_rgbf000031-resize_8-target.png,1000,3.8960000000000004,11,3467,1009,feet,jsons/v1_VE1000_randls_38.json,1119454,1460364,33,Man
15,802331,DepthScenes,duration_manipulation_targetAtFixation,jsons/v1_VE1000_randls_38.json,http://54.235.29.9/FacialAge/BNav_EC2/DepthDuration/v2_depth_duration_MTurk/v2_DepthDuration_HTML.html#449,449,1920,880,1920,1080,8-29-2022,15-34-2,16,depth_duration_stimuli/001092_2014-06-15_17-34-58_260595134347_rgbf000171-resize_3/001092_2014-06-15_17-34-58_260595134347_rgbf000171-resize_3-target.png,1000,2.6935,7,2957,1000,feet,jsons/v1_VE1000_randls_38.json,1119454,1460364,33,Man
16,802331,DepthScenes,duration_manipulation_targetAtFixation,jsons/v1_VE1000_randls_38.json,http://54.235.29.9/FacialAge/BNav_EC2/DepthDuration/v2_depth_duration_MTurk/v2_DepthDuration_HTML.html#449,449,1920,880,1920,1080,8-29-2022,15-34-2,17,depth_duration_stimuli/002545_2014-06-24_13-38-53_094959634447_rgbf000080-resize_4/002545_2014-06-24_13-38-53_094959634447_rgbf000080-resize_4-target.png,1000,1.9205,7,2665,997,feet,jsons/v1_VE1000_randls_38.json,1119454,1460364,33,Man
17,802331,DepthScenes,duration_manipulation_targetAtFixation,jsons/v1_VE1000_randls_38.json,http://54.235.29.9/FacialAge/BNav_EC2/DepthDuration/v2_depth_duration_MTurk/v2_DepthDuration_HTML.html#449,449,1920,880,1920,1080,8-29-2022,15-34-2,18,depth_duration_stimuli/001167_2014-06-17_15-38-07_260595134347_rgbf000108-resize_0/001167_2014-06-17_15-38-07_260595134347_rgbf000108-resize_0-target.png,1000,1.8505,5,2839,996,feet,jsons/v1_VE1000_randls_38.json,1119454,1460364,33,Man
18,802331,DepthScenes,duration_manipulation_targetAtFixation,jsons/v1_VE1000_randls_38.json,http://54.235.29.9/FacialAge/BNav_EC2/DepthDuration/v2_depth_duration_MTurk/v2_DepthDuration_HTML.html#449,449,1920,880,1920,1080,8-29-2022,15-34-2,19,depth_duration_stimuli/003587_2014-05-23_16-48-02_094959634447_rgbf002384-resize_2/003587_2014-05-23_16-48-02_094959634447_rgbf002384-resize_2-target.png,1000,1.357,5,2723,998,feet,jsons/v1_VE1000_randls_38.json,1119454,1460364,33,Man
19,802331,DepthScenes,duration_manipulation_targetAtFixation,jsons/v1_VE1000_randls_38.json,http://54.235.29.9/FacialAge/BNav_EC2/DepthDuration/v2_depth_duration_MTurk/v2_DepthDuration_HTML.html#449,449,1920,880,1920,1080,8-29-2022,15-34-2,20,depth_duration_stimuli/000810_2014-06-08_17-20-01_260595134347_rgbf000105-resize_0/000810_2014-06-08_17-20-01_260595134347_rgbf000105-resize_0-target.png,1000,1.4865,8,2696,1003,feet,jsons/v1_VE1000_randls_38.json,1119454,1460364,33,Man
20,802331,DepthScenes,duration_manipulation_targetAtFixation,jsons/v1_VE1000_randls_38.json,http://54.235.29.9/FacialAge/BNav_EC2/DepthDuration/v2_depth_duration_MTurk/v2_DepthDuration_HTML.html#449,449,1920,880,1920,1080,8-29-2022,15-34-2,21,depth_duration_stimuli/001214_2014-06-17_16-13-55_260595134347_rgbf000111-resize_0/001214_2014-06-17_16-13-55_260595134347_rgbf000111-resize_0-target.png,1000,2.6505,9,2514,996,feet,jsons/v1_VE1000_randls_38.json,1119454,1460364,33,Man
21,802331,DepthScenes,duration_manipulation_targetAtFixation,jsons/v1_VE1000_randls_38.json,http://54.235.29.9/FacialAge/BNav_EC2/DepthDuration/v2_depth_duration_MTurk/v2_DepthDuration_HTML.html#449,449,1920,880,1920,1080,8-29-2022,15-34-2,22,depth_duration_stimuli/000522_2014-06-08_13-35-06_260595134347_rgbf000244-resize_1/000522_2014-06-08_13-35-06_260595134347_rgbf000244-resize_1-target.png,1000,2.3715,4,2792,999,feet,jsons/v1_VE1000_randls_38.json,1119454,1460364,33,Man
22,802331,DepthScenes,duration_manipulation_targetAtFixation,jsons/v1_VE1000_randls_38.json,http://54.235.29.9/FacialAge/BNav_EC2/DepthDuration/v2_depth_duration_MTurk/v2_DepthDuration_HTML.html#449,449,1920,880,1920,1080,8-29-2022,15-34-2,23,depth_duration_stimuli/002949_2014-06-26_15-57-42_094959634447_rgbf000079-resize_1/002949_2014-06-26_15-57-42_094959634447_rgbf000079-resize_1-target.png,1000,1.8915,6,2755,996,feet,jsons/v1_VE1000_randls_38.json,1119454,1460364,33,Man
23,802331,DepthScenes,duration_manipulation_targetAtFixation,jsons/v1_VE1000_randls_38.json,http://54.235.29.9/FacialAge/BNav_EC2/DepthDuration/v2_depth_duration_MTurk/v2_DepthDuration_HTML.html#449,449,1920,880,1920,1080,8-29-2022,15-34-2,24,depth_duration_stimuli/002788_2014-06-22_19-36-03_094959634447_rgbf000088-resize_2/002788_2014-06-22_19-36-03_094959634447_rgbf000088-resize_2-target.png,1000,1.6465,8,2529,997,feet,jsons/v1_VE1000_randls_38.json,1119454,1460364,33,Man
24,802331,DepthScenes,duration_manipulation_targetAtFixation,jsons/v1_VE1000_randls_38.json,http://54.235.29.9/FacialAge/BNav_EC2/DepthDuration/v2_depth_duration_MTurk/v2_DepthDuration_HTML.html#449,449,1920,880,1920,1080,8-29-2022,15-34-2,25,depth_duration_stimuli/000749_2014-06-08_21-55-06_260595134347_rgbf000070-resize_2/000749_2014-06-08_21-55-06_260595134347_rgbf000070-resize_2-target.png,1000,2.331,7,2678,999,feet,jsons/v1_VE1000_randls_38.json,1119454,1460364,33,Man
25,802331,DepthScenes,duration_manipulation_targetAtFixation,jsons/v1_VE1000_randls_38.json,http://54.235.29.9/FacialAge/BNav_EC2/DepthDuration/v2_depth_duration_MTurk/v2_DepthDuration_HTML.html#449,449,1920,880,1920,1080,8-29-2022,15-34-2,26,depth_duration_stimuli/000493_2014-06-09_21-01-18_260595134347_rgbf000196-resize_3/000493_2014-06-09_21-01-18_260595134347_rgbf000196-resize_3-target.png,1000,3.44,9,2521,1010,feet,jsons/v1_VE1000_randls_38.json,1119454,1460364,33,Man
26,802331,DepthScenes,duration_manipulation_targetAtFixation,jsons/v1_VE1000_randls_38.json,http://54.235.29.9/FacialAge/BNav_EC2/DepthDuration/v2_depth_duration_MTurk/v2_DepthDuration_HTML.html#449,449,1920,880,1920,1080,8-29-2022,15-34-2,27,depth_duration_stimuli/000191_2014-05-12_17-07-38_260595134347_rgbf000199-resize_0/000191_2014-05-12_17-07-38_260595134347_rgbf000199-resize_0-target.png,1000,3.7995,13,3012,999,feet,jsons/v1_VE1000_randls_38.json,1119454,1460364,33,Man
27,802331,DepthScenes,duration_manipulation_targetAtFixation,jsons/v1_VE1000_randls_38.json,http://54.235.29.9/FacialAge/BNav_EC2/DepthDuration/v2_depth_duration_MTurk/v2_DepthDuration_HTML.html#449,449,1920,880,1920,1080,8-29-2022,15-34-2,28,depth_duration_stimuli/000447_2014-06-08_16-15-46_260595134347_rgbf000130-resize_1/000447_2014-06-08_16-15-46_260595134347_rgbf000130-resize_1-target.png,1000,4.479,12,2827,1014,feet,jsons/v1_VE1000_randls_38.json,1119454,1460364,33,Man
28,802331,DepthScenes,duration_manipulation_targetAtFixation,jsons/v1_VE1000_randls_38.json,http://54.235.29.9/FacialAge/BNav_EC2/DepthDuration/v2_depth_duration_MTurk/v2_DepthDuration_HTML.html#449,449,1920,880,1920,1080,8-29-2022,15-34-2,29,depth_duration_stimuli/001447_2014-06-19_17-00-32_260595134347_rgbf000082-resize_5/001447_2014-06-19_17-00-32_260595134347_rgbf000082-resize_5-target.png,1000,4.13775,8,2573,991,feet,jsons/v1_VE1000_randls_38.json,1119454,1460364,33,Man
29,802331,DepthScenes,duration_manipulation_targetAtFixation,jsons/v1_VE1000_randls_38.json,http://54.235.29.9/FacialAge/BNav_EC2/DepthDuration/v2_depth_duration_MTurk/v2_DepthDuration_HTML.html#449,449,1920,880,1920,1080,8-29-2022,15-34-2,30,depth_duration_stimuli/000375_2014-06-08_11-17-29_260595134347_rgbf000133-resize_2/000375_2014-06-08_11-17-29_260595134347_rgbf000133-resize-original.jpg,1000,4.718,0,2577,987,feet,jsons/v1_VE1000_randls_38.json,1119454,1460364,33,Man
30,802331,DepthScenes,duration_manipulation_targetAtFixation,jsons/v1_VE1000_randls_38.json,http://54.235.29.9/FacialAge/BNav_EC2/DepthDuration/v2_depth_duration_MTurk/v2_DepthDuration_HTML.html#449,449,1920,880,1920,1080,8-29-2022,15-34-2,31,depth_duration_stimuli/000470_2014-06-09_19-42-40_260595134347_rgbf000094-resize_1/000470_2014-06-09_19-42-40_260595134347_rgbf000094-resize_1-target.png,1000,1.831,6,2542,1007,feet,jsons/v1_VE1000_randls_38.json,1119454,1460364,33,Man
31,802331,DepthScenes,duration_manipulation_targetAtFixation,jsons/v1_VE1000_randls_38.json,http://54.235.29.9/FacialAge/BNav_EC2/DepthDuration/v2_depth_duration_MTurk/v2_DepthDuration_HTML.html#449,449,1920,880,1920,1080,8-29-2022,15-34-2,32,depth_duration_stimuli/000109_2014-05-14_23-41-52_260595134347_rgbf000035-resize_9/000109_2014-05-14_23-41-52_260595134347_rgbf000035-resize_9-target.png,1000,1.3545,4,2643,995,feet,jsons/v1_VE1000_randls_38.json,1119454,1460364,33,Man
32,802331,DepthScenes,duration_manipulation_targetAtFixation,jsons/v1_VE1000_randls_38.json,http://54.235.29.9/FacialAge/BNav_EC2/DepthDuration/v2_depth_duration_MTurk/v2_DepthDuration_HTML.html#449,449,1920,880,1920,1080,8-29-2022,15-34-2,33,depth_duration_stimuli/002964_2014-06-08_17-46-11_094959634447_rgbf000091-resize_4/002964_2014-06-08_17-46-11_094959634447_rgbf000091-resize_4-target.png,1000,1.6909999999999998,5,2454,1002,feet,jsons/v1_VE1000_randls_38.json,1119454,1460364,33,Man
33,802331,DepthScenes,duration_manipulation_targetAtFixation,jsons/v1_VE1000_randls_38.json,http://54.235.29.9/FacialAge/BNav_EC2/DepthDuration/v2_depth_duration_MTurk/v2_DepthDuration_HTML.html#449,449,1920,880,1920,1080,8-29-2022,15-34-2,34,depth_duration_stimuli/002136_2014-06-25_21-18-03_260595134347_rgbf000109-resize_3/002136_2014-06-25_21-18-03_260595134347_rgbf000109-resize_3-target.png,1000,1.9569999999999999,6,2545,998,feet,jsons/v1_VE1000_randls_38.json,1119454,1460364,33,Man
34,802331,DepthScenes,duration_manipulation_targetAtFixation,jsons/v1_VE1000_randls_38.json,http://54.235.29.9/FacialAge/BNav_EC2/DepthDuration/v2_depth_duration_MTurk/v2_DepthDuration_HTML.html#449,449,1920,880,1920,1080,8-29-2022,15-34-2,35,depth_duration_stimuli/002375_2014-06-28_20-13-44_260595134347_rgbf000032-resize_1/002375_2014-06-28_20-13-44_260595134347_rgbf000032-resize_1-target.png,1000,4.0175,8,2525,1003,feet,jsons/v1_VE1000_randls_38.json,1119454,1460364,33,Man
35,802331,DepthScenes,duration_manipulation_targetAtFixation,jsons/v1_VE1000_randls_38.json,http://54.235.29.9/FacialAge/BNav_EC2/DepthDuration/v2_depth_duration_MTurk/v2_DepthDuration_HTML.html#449,449,1920,880,1920,1080,8-29-2022,15-34-2,36,depth_duration_stimuli/002657_2014-06-13_15-29-54_094959634447_rgbf000150-resize_1/002657_2014-06-13_15-29-54_094959634447_rgbf000150-resize_1-target.png,1000,4.919,12,2974,999,feet,jsons/v1_VE1000_randls_38.json,1119454,1460364,33,Man
36,802331,DepthScenes,duration_manipulation_targetAtFixation,jsons/v1_VE1000_randls_38.json,http://54.235.29.9/FacialAge/BNav_EC2/DepthDuration/v2_depth_duration_MTurk/v2_DepthDuration_HTML.html#449,449,1920,880,1920,1080,8-29-2022,15-34-2,37,depth_duration_stimuli/001066_2014-06-08_22-03-20_260595134347_rgbf000066-resize_4/001066_2014-06-08_22-03-20_260595134347_rgbf000066-resize_4-target.png,1000,4.2330000000000005,11,2774,1001,feet,jsons/v1_VE1000_randls_38.json,1119454,1460364,33,Man
37,802331,DepthScenes,duration_manipulation_targetAtFixation,jsons/v1_VE1000_randls_38.json,http://54.235.29.9/FacialAge/BNav_EC2/DepthDuration/v2_depth_duration_MTurk/v2_DepthDuration_HTML.html#449,449,1920,880,1920,1080,8-29-2022,15-34-2,38,depth_duration_stimuli/000742_2014-06-08_18-48-09_260595134347_rgbf000164-resize_4/000742_2014-06-08_18-48-09_260595134347_rgbf000164-resize_4-target.png,1000,4.632,13,3086,1003,feet,jsons/v1_VE1000_randls_38.json,1119454,1460364,33,Man
38,802331,DepthScenes,duration_manipulation_targetAtFixation,jsons/v1_VE1000_randls_38.json,http://54.235.29.9/FacialAge/BNav_EC2/DepthDuration/v2_depth_duration_MTurk/v2_DepthDuration_HTML.html#449,449,1920,880,1920,1080,8-29-2022,15-34-2,39,depth_duration_stimuli/001150_2014-06-17_15-27-34_260595134347_rgbf000108-resize_2/001150_2014-06-17_15-27-34_260595134347_rgbf000108-resize_2-target.png,1000,4.0325,9,2610,1004,feet,jsons/v1_VE1000_randls_38.json,1119454,1460364,33,Man
39,802331,DepthScenes,duration_manipulation_targetAtFixation,jsons/v1_VE1000_randls_38.json,http://54.235.29.9/FacialAge/BNav_EC2/DepthDuration/v2_depth_duration_MTurk/v2_DepthDuration_HTML.html#449,449,1920,880,1920,1080,8-29-2022,15-34-2,40,depth_duration_stimuli/000665_2014-06-09_20-42-35_260595134347_rgbf000110-resize_1/000665_2014-06-09_20-42-35_260595134347_rgbf000110-resize_1-target.png,1000,3.057,9,2893,993,feet,jsons/v1_VE1000_randls_38.json,1119454,1460364,33,Man
40,802331,DepthScenes,duration_manipulation_targetAtFixation,jsons/v1_VE1000_randls_38.json,http://54.235.29.9/FacialAge/BNav_EC2/DepthDuration/v2_depth_duration_MTurk/v2_DepthDuration_HTML.html#449,449,1920,880,1920,1080,8-29-2022,15-34-2,41,depth_duration_stimuli/001806_2014-06-26_20-50-20_260595134347_rgbf000091-resize_1/001806_2014-06-26_20-50-20_260595134347_rgbf000091-resize_1-target.png,1000,2.7305,6,2905,1000,feet,jsons/v1_VE1000_randls_38.json,1119454,1460364,33,Man
41,802331,DepthScenes,duration_manipulation_targetAtFixation,jsons/v1_VE1000_randls_38.json,http://54.235.29.9/FacialAge/BNav_EC2/DepthDuration/v2_depth_duration_MTurk/v2_DepthDuration_HTML.html#449,449,1920,880,1920,1080,8-29-2022,15-34-2,42,depth_duration_stimuli/001617_2014-06-20_11-35-32_260595134347_rgbf000066-resize_1/001617_2014-06-20_11-35-32_260595134347_rgbf000066-resize_1-target.png,1000,3.7910000000000004,8,2615,998,feet,jsons/v1_VE1000_randls_38.json,1119454,1460364,33,Man
42,802331,DepthScenes,duration_manipulation_targetAtFixation,jsons/v1_VE1000_randls_38.json,http://54.235.29.9/FacialAge/BNav_EC2/DepthDuration/v2_depth_duration_MTurk/v2_DepthDuration_HTML.html#449,449,1920,880,1920,1080,8-29-2022,15-34-2,43,depth_duration_stimuli/000736_2014-06-08_18-24-15_260595134347_rgbf000206-resize_3/000736_2014-06-08_18-24-15_260595134347_rgbf000206-resize_3-target.png,1000,3.515,9,2790,998,feet,jsons/v1_VE1000_randls_38.json,1119454,1460364,33,Man
43,802331,DepthScenes,duration_manipulation_targetAtFixation,jsons/v1_VE1000_randls_38.json,http://54.235.29.9/FacialAge/BNav_EC2/DepthDuration/v2_depth_duration_MTurk/v2_DepthDuration_HTML.html#449,449,1920,880,1920,1080,8-29-2022,15-34-2,44,depth_duration_stimuli/000137_2014-05-20_17-04-49_260595134347_rgbf000120-resize_1/000137_2014-05-20_17-04-49_260595134347_rgbf000120-resize_1-target.png,1000,3.786,11,3085,1002,feet,jsons/v1_VE1000_randls_38.json,1119454,1460364,33,Man
44,802331,DepthScenes,duration_manipulation_targetAtFixation,jsons/v1_VE1000_randls_38.json,http://54.235.29.9/FacialAge/BNav_EC2/DepthDuration/v2_depth_duration_MTurk/v2_DepthDuration_HTML.html#449,449,1920,880,1920,1080,8-29-2022,15-34-2,45,depth_duration_stimuli/000787_2014-06-08_22-33-53_260595134347_rgbf000175-resize_1/000787_2014-06-08_22-33-53_260595134347_rgbf000175-resize-original.jpg,1000,4.784,0,2558,1000,feet,jsons/v1_VE1000_randls_38.json,1119454,1460364,33,Man
45,802331,DepthScenes,duration_manipulation_targetAtFixation,jsons/v1_VE1000_randls_38.json,http://54.235.29.9/FacialAge/BNav_EC2/DepthDuration/v2_depth_duration_MTurk/v2_DepthDuration_HTML.html#449,449,1920,880,1920,1080,8-29-2022,15-34-2,46,depth_duration_stimuli/003292_2014-05-14_21-53-49_094959634447_rgbf000100-resize_2/003292_2014-05-14_21-53-49_094959634447_rgbf000100-resize_2-target.png,1000,3.4815,8,2583,998,feet,jsons/v1_VE1000_randls_38.json,1119454,1460364,33,Man
46,802331,DepthScenes,duration_manipulation_targetAtFixation,jsons/v1_VE1000_randls_38.json,http://54.235.29.9/FacialAge/BNav_EC2/DepthDuration/v2_depth_duration_MTurk/v2_DepthDuration_HTML.html#449,449,1920,880,1920,1080,8-29-2022,15-34-2,47,depth_duration_stimuli/002639_2014-06-24_14-51-37_094959634447_rgbf000074-resize_4/002639_2014-06-24_14-51-37_094959634447_rgbf000074-resize_4-target.png,1000,4.0375,11,2699,1004,feet,jsons/v1_VE1000_randls_38.json,1119454,1460364,33,Man
47,802331,DepthScenes,duration_manipulation_targetAtFixation,jsons/v1_VE1000_randls_38.json,http://54.235.29.9/FacialAge/BNav_EC2/DepthDuration/v2_depth_duration_MTurk/v2_DepthDuration_HTML.html#449,449,1920,880,1920,1080,8-29-2022,15-34-2,48,depth_duration_stimuli/000436_2014-06-09_22-25-11_260595134347_rgbf000137-resize_1/000436_2014-06-09_22-25-11_260595134347_rgbf000137-resize_1-target.png,1000,4.0705,12,2738,999,feet,jsons/v1_VE1000_randls_38.json,1119454,1460364,33,Man
48,802331,DepthScenes,duration_manipulation_targetAtFixation,jsons/v1_VE1000_randls_38.json,http://54.235.29.9/FacialAge/BNav_EC2/DepthDuration/v2_depth_duration_MTurk/v2_DepthDuration_HTML.html#449,449,1920,880,1920,1080,8-29-2022,15-34-2,49,depth_duration_stimuli/002444_2014-06-28_20-32-08_260595134347_rgbf000027-resize_0/002444_2014-06-28_20-32-08_260595134347_rgbf000027-resize_0-target.png,1000,4.388999999999999,11,2867,997,feet,jsons/v1_VE1000_randls_38.json,1119454,1460364,33,Man
49,802331,DepthScenes,duration_manipulation_targetAtFixation,jsons/v1_VE1000_randls_38.json,http://54.235.29.9/FacialAge/BNav_EC2/DepthDuration/v2_depth_duration_MTurk/v2_DepthDuration_HTML.html#449,449,1920,880,1920,1080,8-29-2022,15-34-2,50,depth_duration_stimuli/001164_2014-06-17_15-35-46_260595134347_rgbf000085-resize_3/001164_2014-06-17_15-35-46_260595134347_rgbf000085-resize_3-target.png,1000,2.354,8,2565,996,feet,jsons/v1_VE1000_randls_38.json,1119454,1460364,33,Man
50,802331,DepthScenes,duration_manipulation_targetAtFixation,jsons/v1_VE1000_randls_38.json,http://54.235.29.9/FacialAge/BNav_EC2/DepthDuration/v2_depth_duration_MTurk/v2_DepthDuration_HTML.html#449,449,1920,880,1920,1080,8-29-2022,15-34-2,51,depth_duration_stimuli/001136_2014-06-17_15-19-41_260595134347_rgbf000076-resize_3/001136_2014-06-17_15-19-41_260595134347_rgbf000076-resize_3-target.png,1000,1.8655,6,3023,1006,feet,jsons/v1_VE1000_randls_38.json,1119454,1460364,33,Man
51,802331,DepthScenes,duration_manipulation_targetAtFixation,jsons/v1_VE1000_randls_38.json,http://54.235.29.9/FacialAge/BNav_EC2/DepthDuration/v2_depth_duration_MTurk/v2_DepthDuration_HTML.html#449,449,1920,880,1920,1080,8-29-2022,15-34-2,52,depth_duration_stimuli/001808_2014-06-26_20-50-58_260595134347_rgbf000029-resize_1/001808_2014-06-26_20-50-58_260595134347_rgbf000029-resize_1-target.png,1000,4.249,11,2983,1000,feet,jsons/v1_VE1000_randls_38.json,1119454,1460364,33,Man
52,802331,DepthScenes,duration_manipulation_targetAtFixation,jsons/v1_VE1000_randls_38.json,http://54.235.29.9/FacialAge/BNav_EC2/DepthDuration/v2_depth_duration_MTurk/v2_DepthDuration_HTML.html#449,449,1920,880,1920,1080,8-29-2022,15-34-2,53,depth_duration_stimuli/001815_2014-06-26_20-52-55_260595134347_rgbf000020-resize_0/001815_2014-06-26_20-52-55_260595134347_rgbf000020-resize_0-target.png,1000,3.3865,11,2809,1000,feet,jsons/v1_VE1000_randls_38.json,1119454,1460364,33,Man
53,802331,DepthScenes,duration_manipulation_targetAtFixation,jsons/v1_VE1000_randls_38.json,http://54.235.29.9/FacialAge/BNav_EC2/DepthDuration/v2_depth_duration_MTurk/v2_DepthDuration_HTML.html#449,449,1920,880,1920,1080,8-29-2022,15-34-2,54,depth_duration_stimuli/001449_2014-06-19_17-01-27_260595134347_rgbf000116-resize_2/001449_2014-06-19_17-01-27_260595134347_rgbf000116-resize_2-target.png,1000,3.452,10,3590,994,feet,jsons/v1_VE1000_randls_38.json,1119454,1460364,33,Man
54,802331,DepthScenes,duration_manipulation_targetAtFixation,jsons/v1_VE1000_randls_38.json,http://54.235.29.9/FacialAge/BNav_EC2/DepthDuration/v2_depth_duration_MTurk/v2_DepthDuration_HTML.html#449,449,1920,880,1920,1080,8-29-2022,15-34-2,55,depth_duration_stimuli/001450_2014-06-19_17-02-03_260595134347_rgbf000203-resize_4/001450_2014-06-19_17-02-03_260595134347_rgbf000203-resize_4-target.png,1000,4.0106666666667,11,3051,1006,feet,jsons/v1_VE1000_randls_38.json,1119454,1460364,33,Man
55,802331,DepthScenes,duration_manipulation_targetAtFixation,jsons/v1_VE1000_randls_38.json,http://54.235.29.9/FacialAge/BNav_EC2/DepthDuration/v2_depth_duration_MTurk/v2_DepthDuration_HTML.html#449,449,1920,880,1920,1080,8-29-2022,15-34-2,56,depth_duration_stimuli/000009_2014-05-26_14-32-05_260595134347_rgbf000034-resize_3/000009_2014-05-26_14-32-05_260595134347_rgbf000034-resize_3-target.png,1000,3.8715,12,2806,993,feet,jsons/v1_VE1000_randls_38.json,1119454,1460364,33,Man
56,802331,DepthScenes,duration_manipulation_targetAtFixation,jsons/v1_VE1000_randls_38.json,http://54.235.29.9/FacialAge/BNav_EC2/DepthDuration/v2_depth_duration_MTurk/v2_DepthDuration_HTML.html#449,449,1920,880,1920,1080,8-29-2022,15-34-2,57,depth_duration_stimuli/001828_2014-06-26_21-40-03_260595134347_rgbf000024-resize_0/001828_2014-06-26_21-40-03_260595134347_rgbf000024-resize_0-target.png,1000,4.8260000000000005,11,2853,999,feet,jsons/v1_VE1000_randls_38.json,1119454,1460364,33,Man
57,802331,DepthScenes,duration_manipulation_targetAtFixation,jsons/v1_VE1000_randls_38.json,http://54.235.29.9/FacialAge/BNav_EC2/DepthDuration/v2_depth_duration_MTurk/v2_DepthDuration_HTML.html#449,449,1920,880,1920,1080,8-29-2022,15-34-2,58,depth_duration_stimuli/000788_2014-06-08_22-34-36_260595134347_rgbf000131-resize_1/000788_2014-06-08_22-34-36_260595134347_rgbf000131-resize_1-target.png,1000,3.359,9,2899,1002,feet,jsons/v1_VE1000_randls_38.json,1119454,1460364,33,Man
58,802331,DepthScenes,duration_manipulation_targetAtFixation,jsons/v1_VE1000_randls_38.json,http://54.235.29.9/FacialAge/BNav_EC2/DepthDuration/v2_depth_duration_MTurk/v2_DepthDuration_HTML.html#449,449,1920,880,1920,1080,8-29-2022,15-34-2,59,depth_duration_stimuli/001235_2014-06-17_16-37-36_260595134347_rgbf000084-resize_4/001235_2014-06-17_16-37-36_260595134347_rgbf000084-resize_4-target.png,1000,3.6605,9,2518,1000,feet,jsons/v1_VE1000_randls_38.json,1119454,1460364,33,Man
59,802331,DepthScenes,duration_manipulation_targetAtFixation,jsons/v1_VE1000_randls_38.json,http://54.235.29.9/FacialAge/BNav_EC2/DepthDuration/v2_depth_duration_MTurk/v2_DepthDuration_HTML.html#449,449,1920,880,1920,1080,8-29-2022,15-34-2,60,depth_duration_stimuli/002988_2014-06-15_12-24-20_094959634447_rgbf000150-resize_1/002988_2014-06-15_12-24-20_094959634447_rgbf000150-resize_1-target.png,1000,4.7669999999999995,9,2611,1000,feet,jsons/v1_VE1000_randls_38.json,1119454,1460364,33,Man
60,802331,DepthScenes,duration_manipulation_targetAtFixation,jsons/v1_VE1000_randls_38.json,http://54.235.29.9/FacialAge/BNav_EC2/DepthDuration/v2_depth_duration_MTurk/v2_DepthDuration_HTML.html#449,449,1920,880,1920,1080,8-29-2022,15-34-2,61,depth_duration_stimuli/001052_2014-06-08_18-24-54_260595134347_rgbf000130-resize_1/001052_2014-06-08_18-24-54_260595134347_rgbf000130-resize_1-target.png,1000,4.1045,12,2838,996,feet,jsons/v1_VE1000_randls_38.json,1119454,1460364,33,Man
61,802331,DepthScenes,duration_manipulation_targetAtFixation,jsons/v1_VE1000_randls_38.json,http://54.235.29.9/FacialAge/BNav_EC2/DepthDuration/v2_depth_duration_MTurk/v2_DepthDuration_HTML.html#449,449,1920,880,1920,1080,8-29-2022,15-34-2,62,depth_duration_stimuli/002445_2014-06-28_20-32-16_260595134347_rgbf000029-resize_4/002445_2014-06-28_20-32-16_260595134347_rgbf000029-resize_4-target.png,1000,2.5315,7,2611,994,feet,jsons/v1_VE1000_randls_38.json,1119454,1460364,33,Man
62,802331,DepthScenes,duration_manipulation_targetAtFixation,jsons/v1_VE1000_randls_38.json,http://54.235.29.9/FacialAge/BNav_EC2/DepthDuration/v2_depth_duration_MTurk/v2_DepthDuration_HTML.html#449,449,1920,880,1920,1080,8-29-2022,15-34-2,63,depth_duration_stimuli/000780_2014-06-08_22-28-29_260595134347_rgbf000126-resize_1/000780_2014-06-08_22-28-29_260595134347_rgbf000126-resize_1-target.png,1000,3.3825,9,2662,996,feet,jsons/v1_VE1000_randls_38.json,1119454,1460364,33,Man
63,802331,DepthScenes,duration_manipulation_targetAtFixation,jsons/v1_VE1000_randls_38.json,http://54.235.29.9/FacialAge/BNav_EC2/DepthDuration/v2_depth_duration_MTurk/v2_DepthDuration_HTML.html#449,449,1920,880,1920,1080,8-29-2022,15-34-2,64,depth_duration_stimuli/002118_2014-06-25_20-32-08_260595134347_rgbf000078-resize_1/002118_2014-06-25_20-32-08_260595134347_rgbf000078-resize_1-target.png,1000,2.6460000000000004,8,2600,1001,feet,jsons/v1_VE1000_randls_38.json,1119454,1460364,33,Man
64,802331,DepthScenes,duration_manipulation_targetAtFixation,jsons/v1_VE1000_randls_38.json,http://54.235.29.9/FacialAge/BNav_EC2/DepthDuration/v2_depth_duration_MTurk/v2_DepthDuration_HTML.html#449,449,1920,880,1920,1080,8-29-2022,15-34-2,65,depth_duration_stimuli/001516_2014-06-20_16-25-09_260595134347_rgbf000076-resize_2/001516_2014-06-20_16-25-09_260595134347_rgbf000076-resize_2-target.png,1000,1.7445,6,2699,996,feet,jsons/v1_VE1000_randls_38.json,1119454,1460364,33,Man
65,802331,DepthScenes,duration_manipulation_targetAtFixation,jsons/v1_VE1000_randls_38.json,http://54.235.29.9/FacialAge/BNav_EC2/DepthDuration/v2_depth_duration_MTurk/v2_DepthDuration_HTML.html#449,449,1920,880,1920,1080,8-29-2022,15-34-2,66,depth_duration_stimuli/001222_2014-06-17_16-24-06_260595134347_rgbf000073-resize_0/001222_2014-06-17_16-24-06_260595134347_rgbf000073-resize-original.jpg,1000,1.4385,0,2581,1002,feet,jsons/v1_VE1000_randls_38.json,1119454,1460364,33,Man
66,802331,DepthScenes,duration_manipulation_targetAtFixation,jsons/v1_VE1000_randls_38.json,http://54.235.29.9/FacialAge/BNav_EC2/DepthDuration/v2_depth_duration_MTurk/v2_DepthDuration_HTML.html#449,449,1920,880,1920,1080,8-29-2022,15-34-2,67,depth_duration_stimuli/001016_2014-06-09_16-16-10_260595134347_rgbf000112-resize_5/001016_2014-06-09_16-16-10_260595134347_rgbf000112-resize_5-target.png,1000,1.6565,7,2410,1002,feet,jsons/v1_VE1000_randls_38.json,1119454,1460364,33,Man
67,802331,DepthScenes,duration_manipulation_targetAtFixation,jsons/v1_VE1000_randls_38.json,http://54.235.29.9/FacialAge/BNav_EC2/DepthDuration/v2_depth_duration_MTurk/v2_DepthDuration_HTML.html#449,449,1920,880,1920,1080,8-29-2022,15-34-2,68,depth_duration_stimuli/002340_2014-06-28_20-05-46_260595134347_rgbf000113-resize_0/002340_2014-06-28_20-05-46_260595134347_rgbf000113-resize_0-target.png,1000,2.4735,8,2470,997,feet,jsons/v1_VE1000_randls_38.json,1119454,1460364,33,Man
68,802331,DepthScenes,duration_manipulation_targetAtFixation,jsons/v1_VE1000_randls_38.json,http://54.235.29.9/FacialAge/BNav_EC2/DepthDuration/v2_depth_duration_MTurk/v2_DepthDuration_HTML.html#449,449,1920,880,1920,1080,8-29-2022,15-34-2,69,depth_duration_stimuli/002213_2014-06-28_18-37-58_260595134347_rgbf000055-resize_1/002213_2014-06-28_18-37-58_260595134347_rgbf000055-resize_1-target.png,1000,3.62,11,2917,992,feet,jsons/v1_VE1000_randls_38.json,1119454,1460364,33,Man
69,802331,DepthScenes,duration_manipulation_targetAtFixation,jsons/v1_VE1000_randls_38.json,http://54.235.29.9/FacialAge/BNav_EC2/DepthDuration/v2_depth_duration_MTurk/v2_DepthDuration_HTML.html#449,449,1920,880,1920,1080,8-29-2022,15-34-2,70,depth_duration_stimuli/000691_2014-06-08_13-08-50_260595134347_rgbf000132-resize_3/000691_2014-06-08_13-08-50_260595134347_rgbf000132-resize_3-target.png,1000,4.1530000000000005,11,2695,1006,feet,jsons/v1_VE1000_randls_38.json,1119454,1460364,33,Man
70,802331,DepthScenes,duration_manipulation_targetAtFixation,jsons/v1_VE1000_randls_38.json,http://54.235.29.9/FacialAge/BNav_EC2/DepthDuration/v2_depth_duration_MTurk/v2_DepthDuration_HTML.html#449,449,1920,880,1920,1080,8-29-2022,15-34-2,71,depth_duration_stimuli/003534_2014-05-22_15-06-10_094959634447_rgbf000102-resize_4/003534_2014-05-22_15-06-10_094959634447_rgbf000102-resize_4-target.png,1000,1.426,4,2572,1006,feet,jsons/v1_VE1000_randls_38.json,1119454,1460364,33,Man
71,802331,DepthScenes,duration_manipulation_targetAtFixation,jsons/v1_VE1000_randls_38.json,http://54.235.29.9/FacialAge/BNav_EC2/DepthDuration/v2_depth_duration_MTurk/v2_DepthDuration_HTML.html#449,449,1920,880,1920,1080,8-29-2022,15-34-2,72,depth_duration_stimuli/002637_2014-06-24_14-51-13_094959634447_rgbf000066-resize_4/002637_2014-06-24_14-51-13_094959634447_rgbf000066-resize_4-target.png,1000,1.9955,6,2685,1001,feet,jsons/v1_VE1000_randls_38.json,1119454,1460364,33,Man
72,802331,DepthScenes,duration_manipulation_targetAtFixation,jsons/v1_VE1000_randls_38.json,http://54.235.29.9/FacialAge/BNav_EC2/DepthDuration/v2_depth_duration_MTurk/v2_DepthDuration_HTML.html#449,449,1920,880,1920,1080,8-29-2022,15-34-2,73,depth_duration_stimuli/002905_2014-06-03_18-04-43_094959634447_rgbf000151-resize_2/002905_2014-06-03_18-04-43_094959634447_rgbf000151-resize_2-target.png,1000,2.0295,5,2513,996,feet,jsons/v1_VE1000_randls_38.json,1119454,1460364,33,Man
73,802331,DepthScenes,duration_manipulation_targetAtFixation,jsons/v1_VE1000_randls_38.json,http://54.235.29.9/FacialAge/BNav_EC2/DepthDuration/v2_depth_duration_MTurk/v2_DepthDuration_HTML.html#449,449,1920,880,1920,1080,8-29-2022,15-34-2,74,depth_duration_stimuli/003423_2014-05-21_10-23-26_094959634447_rgbf002665-resize_2/003423_2014-05-21_10-23-26_094959634447_rgbf002665-resize_2-target.png,1000,3.2575,12,2638,991,feet,jsons/v1_VE1000_randls_38.json,1119454,1460364,33,Man
74,802331,DepthScenes,duration_manipulation_targetAtFixation,jsons/v1_VE1000_randls_38.json,http://54.235.29.9/FacialAge/BNav_EC2/DepthDuration/v2_depth_duration_MTurk/v2_DepthDuration_HTML.html#449,449,1920,880,1920,1080,8-29-2022,15-34-2,75,depth_duration_stimuli/002272_2014-06-28_18-53-56_260595134347_rgbf000067-resize_2/002272_2014-06-28_18-53-56_260595134347_rgbf000067-resize_2-target.png,1000,1.138,4,2523,999,feet,jsons/v1_VE1000_randls_38.json,1119454,1460364,33,Man
75,802331,DepthScenes,duration_manipulation_targetAtFixation,jsons/v1_VE1000_randls_38.json,http://54.235.29.9/FacialAge/BNav_EC2/DepthDuration/v2_depth_duration_MTurk/v2_DepthDuration_HTML.html#449,449,1920,880,1920,1080,8-29-2022,15-34-2,76,depth_duration_stimuli/001571_2014-06-20_17-21-32_260595134347_rgbf000089-resize_1/001571_2014-06-20_17-21-32_260595134347_rgbf000089-resize_1-target.png,1000,1.86,5,2686,1006,feet,jsons/v1_VE1000_randls_38.json,1119454,1460364,33,Man
76,802331,DepthScenes,duration_manipulation_targetAtFixation,jsons/v1_VE1000_randls_38.json,http://54.235.29.9/FacialAge/BNav_EC2/DepthDuration/v2_depth_duration_MTurk/v2_DepthDuration_HTML.html#449,449,1920,880,1920,1080,8-29-2022,15-34-2,77,depth_duration_stimuli/000929_2014-06-09_16-33-19_260595134347_rgbf000139-resize_0/000929_2014-06-09_16-33-19_260595134347_rgbf000139-resize_0-target.png,1000,2.8680000000000003,8,2699,1000,feet,jsons/v1_VE1000_randls_38.json,1119454,1460364,33,Man
77,802331,DepthScenes,duration_manipulation_targetAtFixation,jsons/v1_VE1000_randls_38.json,http://54.235.29.9/FacialAge/BNav_EC2/DepthDuration/v2_depth_duration_MTurk/v2_DepthDuration_HTML.html#449,449,1920,880,1920,1080,8-29-2022,15-34-2,78,depth_duration_stimuli/000457_2014-06-08_16-52-43_260595134347_rgbf000199-resize_1/000457_2014-06-08_16-52-43_260595134347_rgbf000199-resize_1-target.png,1000,3.6489999999999996,9,2601,1005,feet,jsons/v1_VE1000_randls_38.json,1119454,1460364,33,Man
78,802331,DepthScenes,duration_manipulation_targetAtFixation,jsons/v1_VE1000_randls_38.json,http://54.235.29.9/FacialAge/BNav_EC2/DepthDuration/v2_depth_duration_MTurk/v2_DepthDuration_HTML.html#449,449,1920,880,1920,1080,8-29-2022,15-34-2,79,depth_duration_stimuli/002600_2014-06-24_14-27-04_094959634447_rgbf000074-resize_2/002600_2014-06-24_14-27-04_094959634447_rgbf000074-resize_2-target.png,1000,2.7575,8,2738,999,feet,jsons/v1_VE1000_randls_38.json,1119454,1460364,33,Man
79,802331,DepthScenes,duration_manipulation_targetAtFixation,jsons/v1_VE1000_randls_38.json,http://54.235.29.9/FacialAge/BNav_EC2/DepthDuration/v2_depth_duration_MTurk/v2_DepthDuration_HTML.html#449,449,1920,880,1920,1080,8-29-2022,15-34-2,80,depth_duration_stimuli/003228_2014-05-14_13-42-35_094959634447_rgbf000101-resize_1/003228_2014-05-14_13-42-35_094959634447_rgbf000101-resize_1-target.png,1000,1.9680000000000002,6,2458,998,feet,jsons/v1_VE1000_randls_38.json,1119454,1460364,33,Man
80,802331,DepthScenes,duration_manipulation_targetAtFixation,jsons/v1_VE1000_randls_38.json,http://54.235.29.9/FacialAge/BNav_EC2/DepthDuration/v2_depth_duration_MTurk/v2_DepthDuration_HTML.html#449,449,1920,880,1920,1080,8-29-2022,15-34-2,81,depth_duration_stimuli/000917_2014-06-09_22-45-29_260595134347_rgbf000149-resize_3/000917_2014-06-09_22-45-29_260595134347_rgbf000149-resize_3-target.png,1000,4.1865,11,3622,994,feet,jsons/v1_VE1000_randls_38.json,1119454,1460364,33,Man
81,802331,DepthScenes,duration_manipulation_targetAtFixation,jsons/v1_VE1000_randls_38.json,http://54.235.29.9/FacialAge/BNav_EC2/DepthDuration/v2_depth_duration_MTurk/v2_DepthDuration_HTML.html#449,449,1920,880,1920,1080,8-29-2022,15-34-2,82,depth_duration_stimuli/002323_2014-06-28_20-01-54_260595134347_rgbf000051-resize_4/002323_2014-06-28_20-01-54_260595134347_rgbf000051-resize_4-target.png,1000,3.7310000000000003,8,2801,996,feet,jsons/v1_VE1000_randls_38.json,1119454,1460364,33,Man
82,802331,DepthScenes,duration_manipulation_targetAtFixation,jsons/v1_VE1000_randls_38.json,http://54.235.29.9/FacialAge/BNav_EC2/DepthDuration/v2_depth_duration_MTurk/v2_DepthDuration_HTML.html#449,449,1920,880,1920,1080,8-29-2022,15-34-2,83,depth_duration_stimuli/001810_2014-06-26_20-51-35_260595134347_rgbf000040-resize_3/001810_2014-06-26_20-51-35_260595134347_rgbf000040-resize_3-target.png,1000,2.2525,6,2614,1010,feet,jsons/v1_VE1000_randls_38.json,1119454,1460364,33,Man
83,802331,DepthScenes,duration_manipulation_targetAtFixation,jsons/v1_VE1000_randls_38.json,http://54.235.29.9/FacialAge/BNav_EC2/DepthDuration/v2_depth_duration_MTurk/v2_DepthDuration_HTML.html#449,449,1920,880,1920,1080,8-29-2022,15-34-2,84,depth_duration_stimuli/003010_2014-06-15_12-54-35_094959634447_rgbf000112-resize_0/003010_2014-06-15_12-54-35_094959634447_rgbf000112-resize_0-target.png,1000,3.1185,10,2648,1004,feet,jsons/v1_VE1000_randls_38.json,1119454,1460364,33,Man
84,802331,DepthScenes,duration_manipulation_targetAtFixation,jsons/v1_VE1000_randls_38.json,http://54.235.29.9/FacialAge/BNav_EC2/DepthDuration/v2_depth_duration_MTurk/v2_DepthDuration_HTML.html#449,449,1920,880,1920,1080,8-29-2022,15-34-2,85,depth_duration_stimuli/002748_2014-06-22_19-07-22_094959634447_rgbf000078-resize_1/002748_2014-06-22_19-07-22_094959634447_rgbf000078-resize_1-target.png,1000,4.6705,13,2966,996,feet,jsons/v1_VE1000_randls_38.json,1119454,1460364,33,Man
85,802331,DepthScenes,duration_manipulation_targetAtFixation,jsons/v1_VE1000_randls_38.json,http://54.235.29.9/FacialAge/BNav_EC2/DepthDuration/v2_depth_duration_MTurk/v2_DepthDuration_HTML.html#449,449,1920,880,1920,1080,8-29-2022,15-34-2,86,depth_duration_stimuli/002995_2014-06-15_12-31-26_094959634447_rgbf000150-resize_1/002995_2014-06-15_12-31-26_094959634447_rgbf000150-resize_1-target.png,1000,3.8360000000000003,11,2664,1000,feet,jsons/v1_VE1000_randls_38.json,1119454,1460364,33,Man
86,802331,DepthScenes,duration_manipulation_targetAtFixation,jsons/v1_VE1000_randls_38.json,http://54.235.29.9/FacialAge/BNav_EC2/DepthDuration/v2_depth_duration_MTurk/v2_DepthDuration_HTML.html#449,449,1920,880,1920,1080,8-29-2022,15-34-2,87,depth_duration_stimuli/002549_2014-06-24_13-41-39_094959634447_rgbf000022-resize_3/002549_2014-06-24_13-41-39_094959634447_rgbf000022-resize_3-target.png,1000,1.476,5,2713,989,feet,jsons/v1_VE1000_randls_38.json,1119454,1460364,33,Man
87,802331,DepthScenes,duration_manipulation_targetAtFixation,jsons/v1_VE1000_randls_38.json,http://54.235.29.9/FacialAge/BNav_EC2/DepthDuration/v2_depth_duration_MTurk/v2_DepthDuration_HTML.html#449,449,1920,880,1920,1080,8-29-2022,15-34-2,88,depth_duration_stimuli/002750_2014-06-22_19-08-03_094959634447_rgbf000094-resize_4/002750_2014-06-22_19-08-03_094959634447_rgbf000094-resize_4-target.png,1000,2.354,9,2510,997,feet,jsons/v1_VE1000_randls_38.json,1119454,1460364,33,Man
88,802331,DepthScenes,duration_manipulation_targetAtFixation,jsons/v1_VE1000_randls_38.json,http://54.235.29.9/FacialAge/BNav_EC2/DepthDuration/v2_depth_duration_MTurk/v2_DepthDuration_HTML.html#449,449,1920,880,1920,1080,8-29-2022,15-34-2,89,depth_duration_stimuli/000692_2014-06-08_13-09-42_260595134347_rgbf000199-resize_2/000692_2014-06-08_13-09-42_260595134347_rgbf000199-resize_2-target.png,1000,3.661,10,3058,995,feet,jsons/v1_VE1000_randls_38.json,1119454,1460364,33,Man
89,802331,DepthScenes,duration_manipulation_targetAtFixation,jsons/v1_VE1000_randls_38.json,http://54.235.29.9/FacialAge/BNav_EC2/DepthDuration/v2_depth_duration_MTurk/v2_DepthDuration_HTML.html#449,449,1920,880,1920,1080,8-29-2022,15-34-2,90,depth_duration_stimuli/001094_2014-06-15_17-36-00_260595134347_rgbf000205-resize_0/001094_2014-06-15_17-36-00_260595134347_rgbf000205-resize_0-target.png,1000,4.2175,11,3795,990,feet,jsons/v1_VE1000_randls_38.json,1119454,1460364,33,Man
90,802331,DepthScenes,duration_manipulation_targetAtFixation,jsons/v1_VE1000_randls_38.json,http://54.235.29.9/FacialAge/BNav_EC2/DepthDuration/v2_depth_duration_MTurk/v2_DepthDuration_HTML.html#449,449,1920,880,1920,1080,8-29-2022,15-34-2,91,depth_duration_stimuli/001133_2014-06-17_14-49-16_260595134347_rgbf000100-resize_0/001133_2014-06-17_14-49-16_260595134347_rgbf000100-resize_0-target.png,1000,4.2115,11,2671,1008,feet,jsons/v1_VE1000_randls_38.json,1119454,1460364,33,Man
91,802331,DepthScenes,duration_manipulation_targetAtFixation,jsons/v1_VE1000_randls_38.json,http://54.235.29.9/FacialAge/BNav_EC2/DepthDuration/v2_depth_duration_MTurk/v2_DepthDuration_HTML.html#449,449,1920,880,1920,1080,8-29-2022,15-34-2,92,depth_duration_stimuli/001132_2014-06-17_14-48-54_260595134347_rgbf000100-resize_2/001132_2014-06-17_14-48-54_260595134347_rgbf000100-resize_2-target.png,1000,3.753,10,2668,1001,feet,jsons/v1_VE1000_randls_38.json,1119454,1460364,33,Man
92,802331,DepthScenes,duration_manipulation_targetAtFixation,jsons/v1_VE1000_randls_38.json,http://54.235.29.9/FacialAge/BNav_EC2/DepthDuration/v2_depth_duration_MTurk/v2_DepthDuration_HTML.html#449,449,1920,880,1920,1080,8-29-2022,15-34-2,93,depth_duration_stimuli/001055_2014-06-08_18-45-35_260595134347_rgbf000111-resize_4/001055_2014-06-08_18-45-35_260595134347_rgbf000111-resize_4-target.png,1000,2.4290000000000003,7,3002,1004,feet,jsons/v1_VE1000_randls_38.json,1119454,1460364,33,Man
93,802331,DepthScenes,duration_manipulation_targetAtFixation,jsons/v1_VE1000_randls_38.json,http://54.235.29.9/FacialAge/BNav_EC2/DepthDuration/v2_depth_duration_MTurk/v2_DepthDuration_HTML.html#449,449,1920,880,1920,1080,8-29-2022,15-34-2,94,depth_duration_stimuli/000549_2014-06-08_22-10-24_260595134347_rgbf000247-resize_3/000549_2014-06-08_22-10-24_260595134347_rgbf000247-resize_3-target.png,1000,1.841,5,3010,1009,feet,jsons/v1_VE1000_randls_38.json,1119454,1460364,33,Man
94,802331,DepthScenes,duration_manipulation_targetAtFixation,jsons/v1_VE1000_randls_38.json,http://54.235.29.9/FacialAge/BNav_EC2/DepthDuration/v2_depth_duration_MTurk/v2_DepthDuration_HTML.html#449,449,1920,880,1920,1080,8-29-2022,15-34-2,95,depth_duration_stimuli/002043_2014-06-24_20-29-38_260595134347_rgbf000039-resize_4/002043_2014-06-24_20-29-38_260595134347_rgbf000039-resize_4-target.png,1000,2.8435,9,3922,1007,feet,jsons/v1_VE1000_randls_38.json,1119454,1460364,33,Man
95,802331,DepthScenes,duration_manipulation_targetAtFixation,jsons/v1_VE1000_randls_38.json,http://54.235.29.9/FacialAge/BNav_EC2/DepthDuration/v2_depth_duration_MTurk/v2_DepthDuration_HTML.html#449,449,1920,880,1920,1080,8-29-2022,15-34-2,96,depth_duration_stimuli/003048_2014-06-15_13-49-43_094959634447_rgbf000150-resize_1/003048_2014-06-15_13-49-43_094959634447_rgbf000150-resize_1-target.png,1000,4.0035,11,3139,993,feet,jsons/v1_VE1000_randls_38.json,1119454,1460364,33,Man
96,802331,DepthScenes,duration_manipulation_targetAtFixation,jsons/v1_VE1000_randls_38.json,http://54.235.29.9/FacialAge/BNav_EC2/DepthDuration/v2_depth_duration_MTurk/v2_DepthDuration_HTML.html#449,449,1920,880,1920,1080,8-29-2022,15-34-2,97,depth_duration_stimuli/002570_2014-06-24_13-59-54_094959634447_rgbf000059-resize_0/002570_2014-06-24_13-59-54_094959634447_rgbf000059-resize_0-target.png,1000,4.037,9,3450,1009,feet,jsons/v1_VE1000_randls_38.json,1119454,1460364,33,Man
97,802331,DepthScenes,duration_manipulation_targetAtFixation,jsons/v1_VE1000_randls_38.json,http://54.235.29.9/FacialAge/BNav_EC2/DepthDuration/v2_depth_duration_MTurk/v2_DepthDuration_HTML.html#449,449,1920,880,1920,1080,8-29-2022,15-34-2,98,depth_duration_stimuli/002467_2014-06-28_20-38-07_260595134347_rgbf000026-resize_2/002467_2014-06-28_20-38-07_260595134347_rgbf000026-resize_2-target.png,1000,4.742,13,2878,995,feet,jsons/v1_VE1000_randls_38.json,1119454,1460364,33,Man
98,802331,DepthScenes,duration_manipulation_targetAtFixation,jsons/v1_VE1000_randls_38.json,http://54.235.29.9/FacialAge/BNav_EC2/DepthDuration/v2_depth_duration_MTurk/v2_DepthDuration_HTML.html#449,449,1920,880,1920,1080,8-29-2022,15-34-2,99,depth_duration_stimuli/001540_2014-06-20_17-01-05_260595134347_rgbf000086-resize_2/001540_2014-06-20_17-01-05_260595134347_rgbf000086-resize-original.jpg,1000,1.459,0,2690,1000,feet,jsons/v1_VE1000_randls_38.json,1119454,1460364,33,Man
99,802331,DepthScenes,duration_manipulation_targetAtFixation,jsons/v1_VE1000_randls_38.json,http://54.235.29.9/FacialAge/BNav_EC2/DepthDuration/v2_depth_duration_MTurk/v2_DepthDuration_HTML.html#449,449,1920,880,1920,1080,8-29-2022,15-34-2,100,depth_duration_stimuli/002057_2014-06-24_21-00-13_260595134347_rgbf000120-resize_1/002057_2014-06-24_21-00-13_260595134347_rgbf000120-resize_1-target.png,1000,2.967,10,2844,998,feet,jsons/v1_VE1000_randls_38.json,1119454,1460364,33,Man
100,802331,DepthScenes,duration_manipulation_targetAtFixation,jsons/v1_VE1000_randls_38.json,http://54.235.29.9/FacialAge/BNav_EC2/DepthDuration/v2_depth_duration_MTurk/v2_DepthDuration_HTML.html#449,449,1920,880,1920,1080,8-29-2022,15-34-2,101,depth_duration_stimuli/000709_2014-06-08_13-51-55_260595134347_rgbf000068-resize_3/000709_2014-06-08_13-51-55_260595134347_rgbf000068-resize_3-target.png,1000,1.8030000000000002,5,2965,987,feet,jsons/v1_VE1000_randls_38.json,1119454,1460364,33,Man
101,802331,DepthScenes,duration_manipulation_targetAtFixation,jsons/v1_VE1000_randls_38.json,http://54.235.29.9/FacialAge/BNav_EC2/DepthDuration/v2_depth_duration_MTurk/v2_DepthDuration_HTML.html#449,449,1920,880,1920,1080,8-29-2022,15-34-2,102,depth_duration_stimuli/002663_2014-06-13_15-50-26_094959634447_rgbf000075-resize_1/002663_2014-06-13_15-50-26_094959634447_rgbf000075-resize_1-target.png,1000,4.7495,13,2870,997,feet,jsons/v1_VE1000_randls_38.json,1119454,1460364,33,Man
102,802331,DepthScenes,duration_manipulation_targetAtFixation,jsons/v1_VE1000_randls_38.json,http://54.235.29.9/FacialAge/BNav_EC2/DepthDuration/v2_depth_duration_MTurk/v2_DepthDuration_HTML.html#449,449,1920,880,1920,1080,8-29-2022,15-34-2,103,depth_duration_stimuli/000409_2014-06-04_19-23-33_260595134347_rgbf000067-resize_0/000409_2014-06-04_19-23-33_260595134347_rgbf000067-resize_0-target.png,1000,3.7335,10,2803,1013,feet,jsons/v1_VE1000_randls_38.json,1119454,1460364,33,Man
103,802331,DepthScenes,duration_manipulation_targetAtFixation,jsons/v1_VE1000_randls_38.json,http://54.235.29.9/FacialAge/BNav_EC2/DepthDuration/v2_depth_duration_MTurk/v2_DepthDuration_HTML.html#449,449,1920,880,1920,1080,8-29-2022,15-34-2,104,depth_duration_stimuli/003492_2014-05-21_15-50-55_094959634447_rgbf000828-resize_1/003492_2014-05-21_15-50-55_094959634447_rgbf000828-resize_1-target.png,1000,4.06875,11,2682,999,feet,jsons/v1_VE1000_randls_38.json,1119454,1460364,33,Man
104,802331,DepthScenes,duration_manipulation_targetAtFixation,jsons/v1_VE1000_randls_38.json,http://54.235.29.9/FacialAge/BNav_EC2/DepthDuration/v2_depth_duration_MTurk/v2_DepthDuration_HTML.html#449,449,1920,880,1920,1080,8-29-2022,15-34-2,105,depth_duration_stimuli/002568_2014-06-24_13-59-21_094959634447_rgbf000062-resize_4/002568_2014-06-24_13-59-21_094959634447_rgbf000062-resize_4-target.png,1000,3.015,10,2844,999,feet,jsons/v1_VE1000_randls_38.json,1119454,1460364,33,Man
105,802331,DepthScenes,duration_manipulation_targetAtFixation,jsons/v1_VE1000_randls_38.json,http://54.235.29.9/FacialAge/BNav_EC2/DepthDuration/v2_depth_duration_MTurk/v2_DepthDuration_HTML.html#449,449,1920,880,1920,1080,8-29-2022,15-34-2,106,depth_duration_stimuli/000878_2014-06-08_22-52-45_260595134347_rgbf000045-resize_2/000878_2014-06-08_22-52-45_260595134347_rgbf000045-resize_2-target.png,1000,2.092,6,3072,1009,feet,jsons/v1_VE1000_randls_38.json,1119454,1460364,33,Man
106,802331,DepthScenes,duration_manipulation_targetAtFixation,jsons/v1_VE1000_randls_38.json,http://54.235.29.9/FacialAge/BNav_EC2/DepthDuration/v2_depth_duration_MTurk/v2_DepthDuration_HTML.html#449,449,1920,880,1920,1080,8-29-2022,15-34-2,107,depth_duration_stimuli/002953_2014-06-08_17-32-18_094959634447_rgbf000059-resize_5/002953_2014-06-08_17-32-18_094959634447_rgbf000059-resize_5-target.png,1000,1.551,4,2667,1006,feet,jsons/v1_VE1000_randls_38.json,1119454,1460364,33,Man
107,802331,DepthScenes,duration_manipulation_targetAtFixation,jsons/v1_VE1000_randls_38.json,http://54.235.29.9/FacialAge/BNav_EC2/DepthDuration/v2_depth_duration_MTurk/v2_DepthDuration_HTML.html#449,449,1920,880,1920,1080,8-29-2022,15-34-2,108,depth_duration_stimuli/000682_2014-06-08_23-14-58_260595134347_rgbf000041-resize_5/000682_2014-06-08_23-14-58_260595134347_rgbf000041-resize_5-target.png,1000,2.7239999999999998,7,2644,1002,feet,jsons/v1_VE1000_randls_38.json,1119454,1460364,33,Man
108,802331,DepthScenes,duration_manipulation_targetAtFixation,jsons/v1_VE1000_randls_38.json,http://54.235.29.9/FacialAge/BNav_EC2/DepthDuration/v2_depth_duration_MTurk/v2_DepthDuration_HTML.html#449,449,1920,880,1920,1080,8-29-2022,15-34-2,109,depth_duration_stimuli/001650_2014-06-20_12-09-00_260595134347_rgbf000087-resize_3/001650_2014-06-20_12-09-00_260595134347_rgbf000087-resize_3-target.png,1000,1.9505,3,2612,1002,feet,jsons/v1_VE1000_randls_38.json,1119454,1460364,33,Man
109,802331,DepthScenes,duration_manipulation_targetAtFixation,jsons/v1_VE1000_randls_38.json,http://54.235.29.9/FacialAge/BNav_EC2/DepthDuration/v2_depth_duration_MTurk/v2_DepthDuration_HTML.html#449,449,1920,880,1920,1080,8-29-2022,15-34-2,110,depth_duration_stimuli/001158_2014-06-17_15-32-16_260595134347_rgbf000138-resize_2/001158_2014-06-17_15-32-16_260595134347_rgbf000138-resize_2-target.png,1000,4.5315,10,2818,992,feet,jsons/v1_VE1000_randls_38.json,1119454,1460364,33,Man
110,802331,DepthScenes,duration_manipulation_targetAtFixation,jsons/v1_VE1000_randls_38.json,http://54.235.29.9/FacialAge/BNav_EC2/DepthDuration/v2_depth_duration_MTurk/v2_DepthDuration_HTML.html#449,449,1920,880,1920,1080,8-29-2022,15-34-2,111,depth_duration_stimuli/000556_2014-06-09_22-42-56_260595134347_rgbf000214-resize_1/000556_2014-06-09_22-42-56_260595134347_rgbf000214-resize_1-target.png,1000,4.8415,10,2978,997,feet,jsons/v1_VE1000_randls_38.json,1119454,1460364,33,Man
111,802331,DepthScenes,duration_manipulation_targetAtFixation,jsons/v1_VE1000_randls_38.json,http://54.235.29.9/FacialAge/BNav_EC2/DepthDuration/v2_depth_duration_MTurk/v2_DepthDuration_HTML.html#449,449,1920,880,1920,1080,8-29-2022,15-34-2,112,depth_duration_stimuli/001175_2014-06-17_15-45-55_260595134347_rgbf000129-resize_4/001175_2014-06-17_15-45-55_260595134347_rgbf000129-resize_4-target.png,1000,4.255,11,2848,1012,feet,jsons/v1_VE1000_randls_38.json,1119454,1460364,33,Man
112,802331,DepthScenes,duration_manipulation_targetAtFixation,jsons/v1_VE1000_randls_38.json,http://54.235.29.9/FacialAge/BNav_EC2/DepthDuration/v2_depth_duration_MTurk/v2_DepthDuration_HTML.html#449,449,1920,880,1920,1080,8-29-2022,15-34-2,113,depth_duration_stimuli/003490_2014-05-21_15-50-11_094959634447_rgbf000101-resize_3/003490_2014-05-21_15-50-11_094959634447_rgbf000101-resize_3-target.png,1000,3.6445,10,2776,998,feet,jsons/v1_VE1000_randls_38.json,1119454,1460364,33,Man
113,802331,DepthScenes,duration_manipulation_targetAtFixation,jsons/v1_VE1000_randls_38.json,http://54.235.29.9/FacialAge/BNav_EC2/DepthDuration/v2_depth_duration_MTurk/v2_DepthDuration_HTML.html#449,449,1920,880,1920,1080,8-29-2022,15-34-2,114,depth_duration_stimuli/000758_2014-06-08_22-05-08_260595134347_rgbf000085-resize_0/000758_2014-06-08_22-05-08_260595134347_rgbf000085-resize_0-target.png,1000,3.3810000000000002,13,3041,986,feet,jsons/v1_VE1000_randls_38.json,1119454,1460364,33,Man
114,802331,DepthScenes,duration_manipulation_targetAtFixation,jsons/v1_VE1000_randls_38.json,http://54.235.29.9/FacialAge/BNav_EC2/DepthDuration/v2_depth_duration_MTurk/v2_DepthDuration_HTML.html#449,449,1920,880,1920,1080,8-29-2022,15-34-2,115,depth_duration_stimuli/000854_2014-06-09_19-43-13_260595134347_rgbf000066-resize_0/000854_2014-06-09_19-43-13_260595134347_rgbf000066-resize_0-target.png,1000,3.068,6,3197,997,feet,jsons/v1_VE1000_randls_38.json,1119454,1460364,33,Man
115,802331,DepthScenes,duration_manipulation_targetAtFixation,jsons/v1_VE1000_randls_38.json,http://54.235.29.9/FacialAge/BNav_EC2/DepthDuration/v2_depth_duration_MTurk/v2_DepthDuration_HTML.html#449,449,1920,880,1920,1080,8-29-2022,15-34-2,116,depth_duration_stimuli/001170_2014-06-17_15-43-44_260595134347_rgbf000096-resize_6/001170_2014-06-17_15-43-44_260595134347_rgbf000096-resize-original.jpg,1000,1.1909999999999998,0,2602,992,feet,jsons/v1_VE1000_randls_38.json,1119454,1460364,33,Man
116,802331,DepthScenes,duration_manipulation_targetAtFixation,jsons/v1_VE1000_randls_38.json,http://54.235.29.9/FacialAge/BNav_EC2/DepthDuration/v2_depth_duration_MTurk/v2_DepthDuration_HTML.html#449,449,1920,880,1920,1080,8-29-2022,15-34-2,117,depth_duration_stimuli/000739_2014-06-08_18-45-58_260595134347_rgbf000068-resize_1/000739_2014-06-08_18-45-58_260595134347_rgbf000068-resize_1-target.png,1000,3.534,11,2846,1002,feet,jsons/v1_VE1000_randls_38.json,1119454,1460364,33,Man
117,802331,DepthScenes,duration_manipulation_targetAtFixation,jsons/v1_VE1000_randls_38.json,http://54.235.29.9/FacialAge/BNav_EC2/DepthDuration/v2_depth_duration_MTurk/v2_DepthDuration_HTML.html#449,449,1920,880,1920,1080,8-29-2022,15-34-2,118,depth_duration_stimuli/000734_2014-06-08_17-39-11_260595134347_rgbf000128-resize_2/000734_2014-06-08_17-39-11_260595134347_rgbf000128-resize_2-target.png,1000,4.098,10,3432,998,feet,jsons/v1_VE1000_randls_38.json,1119454,1460364,33,Man
118,802331,DepthScenes,duration_manipulation_targetAtFixation,jsons/v1_VE1000_randls_38.json,http://54.235.29.9/FacialAge/BNav_EC2/DepthDuration/v2_depth_duration_MTurk/v2_DepthDuration_HTML.html#449,449,1920,880,1920,1080,8-29-2022,15-34-2,119,depth_duration_stimuli/003070_2014-06-15_14-58-27_094959634447_rgbf000150-resize_3/003070_2014-06-15_14-58-27_094959634447_rgbf000150-resize_3-target.png,1000,2.9415,9,2733,999,feet,jsons/v1_VE1000_randls_38.json,1119454,1460364,33,Man
119,802331,DepthScenes,duration_manipulation_targetAtFixation,jsons/v1_VE1000_randls_38.json,http://54.235.29.9/FacialAge/BNav_EC2/DepthDuration/v2_depth_duration_MTurk/v2_DepthDuration_HTML.html#449,449,1920,880,1920,1080,8-29-2022,15-34-2,120,depth_duration_stimuli/000943_2014-06-09_19-31-07_260595134347_rgbf000128-resize_1/000943_2014-06-09_19-31-07_260595134347_rgbf000128-resize_1-target.png,1000,1.9765,7,3280,996,feet,jsons/v1_VE1000_randls_38.json,1119454,1460364,33,Man
120,802331,DepthScenes,duration_manipulation_targetAtFixation,jsons/v1_VE1000_randls_38.json,http://54.235.29.9/FacialAge/BNav_EC2/DepthDuration/v2_depth_duration_MTurk/v2_DepthDuration_HTML.html#449,449,1920,880,1920,1080,8-29-2022,15-34-2,121,depth_duration_stimuli/001059_2014-06-08_21-53-27_260595134347_rgbf000061-resize_4/001059_2014-06-08_21-53-27_260595134347_rgbf000061-resize_4-target.png,1000,2.4185,10,10733,1011,feet,jsons/v1_VE1000_randls_38.json,1119454,1460364,33,Man
121,802331,DepthScenes,duration_manipulation_targetAtFixation,jsons/v1_VE1000_randls_38.json,http://54.235.29.9/FacialAge/BNav_EC2/DepthDuration/v2_depth_duration_MTurk/v2_DepthDuration_HTML.html#449,449,1920,880,1920,1080,8-29-2022,15-34-2,122,depth_duration_stimuli/001032_2014-06-08_13-23-17_260595134347_rgbf000021-resize_3/001032_2014-06-08_13-23-17_260595134347_rgbf000021-resize_3-target.png,1000,3.2725,10,2744,1010,feet,jsons/v1_VE1000_randls_38.json,1119454,1460364,33,Man
122,802331,DepthScenes,duration_manipulation_targetAtFixation,jsons/v1_VE1000_randls_38.json,http://54.235.29.9/FacialAge/BNav_EC2/DepthDuration/v2_depth_duration_MTurk/v2_DepthDuration_HTML.html#449,449,1920,880,1920,1080,8-29-2022,15-34-2,123,depth_duration_stimuli/002763_2014-06-22_19-13-10_094959634447_rgbf000075-resize_4/002763_2014-06-22_19-13-10_094959634447_rgbf000075-resize_4-target.png,1000,1.68375,6,2693,995,feet,jsons/v1_VE1000_randls_38.json,1119454,1460364,33,Man
123,802331,DepthScenes,duration_manipulation_targetAtFixation,jsons/v1_VE1000_randls_38.json,http://54.235.29.9/FacialAge/BNav_EC2/DepthDuration/v2_depth_duration_MTurk/v2_DepthDuration_HTML.html#449,449,1920,880,1920,1080,8-29-2022,15-34-2,124,depth_duration_stimuli/002209_2014-06-28_18-36-10_260595134347_rgbf000051-resize_1/002209_2014-06-28_18-36-10_260595134347_rgbf000051-resize_1-target.png,1000,2.057,6,2657,1011,feet,jsons/v1_VE1000_randls_38.json,1119454,1460364,33,Man
124,802331,DepthScenes,duration_manipulation_targetAtFixation,jsons/v1_VE1000_randls_38.json,http://54.235.29.9/FacialAge/BNav_EC2/DepthDuration/v2_depth_duration_MTurk/v2_DepthDuration_HTML.html#449,449,1920,880,1920,1080,8-29-2022,15-34-2,125,depth_duration_stimuli/002509_2014-06-24_13-19-22_094959634447_rgbf000077-resize_0/002509_2014-06-24_13-19-22_094959634447_rgbf000077-resize_0-target.png,1000,1.3065,4,5008,999,feet,jsons/v1_VE1000_randls_38.json,1119454,1460364,33,Man
125,802331,DepthScenes,duration_manipulation_targetAtFixation,jsons/v1_VE1000_randls_38.json,http://54.235.29.9/FacialAge/BNav_EC2/DepthDuration/v2_depth_duration_MTurk/v2_DepthDuration_HTML.html#449,449,1920,880,1920,1080,8-29-2022,15-34-2,126,depth_duration_stimuli/003338_2014-05-20_11-01-23_094959634447_rgbf000051-resize_6/003338_2014-05-20_11-01-23_094959634447_rgbf000051-resize_6-target.png,1000,1.693,5,3601,1010,feet,jsons/v1_VE1000_randls_38.json,1119454,1460364,33,Man
126,802331,DepthScenes,duration_manipulation_targetAtFixation,jsons/v1_VE1000_randls_38.json,http://54.235.29.9/FacialAge/BNav_EC2/DepthDuration/v2_depth_duration_MTurk/v2_DepthDuration_HTML.html#449,449,1920,880,1920,1080,8-29-2022,15-34-2,127,depth_duration_stimuli/002784_2014-06-22_19-26-30_094959634447_rgbf000083-resize_3/002784_2014-06-22_19-26-30_094959634447_rgbf000083-resize_3-target.png,1000,1.8046666666667,6,3287,995,feet,jsons/v1_VE1000_randls_38.json,1119454,1460364,33,Man
127,802331,DepthScenes,duration_manipulation_targetAtFixation,jsons/v1_VE1000_randls_38.json,http://54.235.29.9/FacialAge/BNav_EC2/DepthDuration/v2_depth_duration_MTurk/v2_DepthDuration_HTML.html#449,449,1920,880,1920,1080,8-29-2022,15-34-2,128,depth_duration_stimuli/001100_2014-06-15_17-46-26_260595134347_rgbf000225-resize_2/001100_2014-06-15_17-46-26_260595134347_rgbf000225-resize_2-target.png,1000,2.24,7,162894,1009,feet,jsons/v1_VE1000_randls_38.json,1119454,1460364,33,Man
128,802331,DepthScenes,duration_manipulation_targetAtFixation,jsons/v1_VE1000_randls_38.json,http://54.235.29.9/FacialAge/BNav_EC2/DepthDuration/v2_depth_duration_MTurk/v2_DepthDuration_HTML.html#449,449,1920,880,1920,1080,8-29-2022,15-34-2,129,depth_duration_stimuli/002153_2014-06-25_21-27-18_260595134347_rgbf000038-resize_5/002153_2014-06-25_21-27-18_260595134347_rgbf000038-resize_5-target.png,1000,2.505,8,3400,998,feet,jsons/v1_VE1000_randls_38.json,1119454,1460364,33,Man
129,802331,DepthScenes,duration_manipulation_targetAtFixation,jsons/v1_VE1000_randls_38.json,http://54.235.29.9/FacialAge/BNav_EC2/DepthDuration/v2_depth_duration_MTurk/v2_DepthDuration_HTML.html#449,449,1920,880,1920,1080,8-29-2022,15-34-2,130,depth_duration_stimuli/002660_2014-06-13_15-44-18_094959634447_rgbf001878-resize_2/002660_2014-06-13_15-44-18_094959634447_rgbf001878-resize_2-target.png,1000,3.576,10,2960,995,feet,jsons/v1_VE1000_randls_38.json,1119454,1460364,33,Man
130,802331,DepthScenes,duration_manipulation_targetAtFixation,jsons/v1_VE1000_randls_38.json,http://54.235.29.9/FacialAge/BNav_EC2/DepthDuration/v2_depth_duration_MTurk/v2_DepthDuration_HTML.html#449,449,1920,880,1920,1080,8-29-2022,15-34-2,131,depth_duration_stimuli/001417_2014-06-19_16-25-36_260595134347_rgbf000115-resize_5/001417_2014-06-19_16-25-36_260595134347_rgbf000115-resize_5-target.png,1000,4.6255,11,2821,998,feet,jsons/v1_VE1000_randls_38.json,1119454,1460364,33,Man
131,802331,DepthScenes,duration_manipulation_targetAtFixation,jsons/v1_VE1000_randls_38.json,http://54.235.29.9/FacialAge/BNav_EC2/DepthDuration/v2_depth_duration_MTurk/v2_DepthDuration_HTML.html#449,449,1920,880,1920,1080,8-29-2022,15-34-2,132,depth_duration_stimuli/003081_2014-06-15_15-19-16_094959634447_rgbf000150-resize_1/003081_2014-06-15_15-19-16_094959634447_rgbf000150-resize_1-target.png,1000,3.9125,10,2906,997,feet,jsons/v1_VE1000_randls_38.json,1119454,1460364,33,Man
132,802331,DepthScenes,duration_manipulation_targetAtFixation,jsons/v1_VE1000_randls_38.json,http://54.235.29.9/FacialAge/BNav_EC2/DepthDuration/v2_depth_duration_MTurk/v2_DepthDuration_HTML.html#449,449,1920,880,1920,1080,8-29-2022,15-34-2,133,depth_duration_stimuli/001110_2014-06-15_17-25-28_260595134347_rgbf000150-resize_1/001110_2014-06-15_17-25-28_260595134347_rgbf000150-resize_1-target.png,1000,1.7115,7,2960,997,feet,jsons/v1_VE1000_randls_38.json,1119454,1460364,33,Man
133,802331,DepthScenes,duration_manipulation_targetAtFixation,jsons/v1_VE1000_randls_38.json,http://54.235.29.9/FacialAge/BNav_EC2/DepthDuration/v2_depth_duration_MTurk/v2_DepthDuration_HTML.html#449,449,1920,880,1920,1080,8-29-2022,15-34-2,134,depth_duration_stimuli/000927_2014-06-09_16-32-30_260595134347_rgbf000123-resize_3/000927_2014-06-09_16-32-30_260595134347_rgbf000123-resize_3-target.png,1000,2.6785,9,2818,999,feet,jsons/v1_VE1000_randls_38.json,1119454,1460364,33,Man
134,802331,DepthScenes,duration_manipulation_targetAtFixation,jsons/v1_VE1000_randls_38.json,http://54.235.29.9/FacialAge/BNav_EC2/DepthDuration/v2_depth_duration_MTurk/v2_DepthDuration_HTML.html#449,449,1920,880,1920,1080,8-29-2022,15-34-2,135,depth_duration_stimuli/002072_2014-06-24_21-48-06_260595134347_rgbf000115-resize_0/002072_2014-06-24_21-48-06_260595134347_rgbf000115-resize-original.jpg,1000,4.702,0,2626,996,feet,jsons/v1_VE1000_randls_38.json,1119454,1460364,33,Man
135,802331,DepthScenes,duration_manipulation_targetAtFixation,jsons/v1_VE1000_randls_38.json,http://54.235.29.9/FacialAge/BNav_EC2/DepthDuration/v2_depth_duration_MTurk/v2_DepthDuration_HTML.html#449,449,1920,880,1920,1080,8-29-2022,15-34-2,136,depth_duration_stimuli/000368_2014-06-09_15-53-01_260595134347_rgbf000155-resize_2/000368_2014-06-09_15-53-01_260595134347_rgbf000155-resize_2-target.png,1000,2.4859999999999998,6,2720,999,feet,jsons/v1_VE1000_randls_38.json,1119454,1460364,33,Man
136,802331,DepthScenes,duration_manipulation_targetAtFixation,jsons/v1_VE1000_randls_38.json,http://54.235.29.9/FacialAge/BNav_EC2/DepthDuration/v2_depth_duration_MTurk/v2_DepthDuration_HTML.html#449,449,1920,880,1920,1080,8-29-2022,15-34-2,137,depth_duration_stimuli/002678_2014-06-13_16-15-32_094959634447_rgbf000151-resize_6/002678_2014-06-13_16-15-32_094959634447_rgbf000151-resize_6-target.png,1000,2.1830000000000003,7,2804,989,feet,jsons/v1_VE1000_randls_38.json,1119454,1460364,33,Man
137,802331,DepthScenes,duration_manipulation_targetAtFixation,jsons/v1_VE1000_randls_38.json,http://54.235.29.9/FacialAge/BNav_EC2/DepthDuration/v2_depth_duration_MTurk/v2_DepthDuration_HTML.html#449,449,1920,880,1920,1080,8-29-2022,15-34-2,138,depth_duration_stimuli/002725_2014-06-22_11-47-51_094959634447_rgbf000070-resize_1/002725_2014-06-22_11-47-51_094959634447_rgbf000070-resize_1-target.png,1000,2.195,6,2743,994,feet,jsons/v1_VE1000_randls_38.json,1119454,1460364,33,Man
138,802331,DepthScenes,duration_manipulation_targetAtFixation,jsons/v1_VE1000_randls_38.json,http://54.235.29.9/FacialAge/BNav_EC2/DepthDuration/v2_depth_duration_MTurk/v2_DepthDuration_HTML.html#449,449,1920,880,1920,1080,8-29-2022,15-34-2,139,depth_duration_stimuli/002344_2014-06-28_20-06-29_260595134347_rgbf000030-resize_1/002344_2014-06-28_20-06-29_260595134347_rgbf000030-resize_1-target.png,1000,1.5795,4,2645,1002,feet,jsons/v1_VE1000_randls_38.json,1119454,1460364,33,Man
139,802331,DepthScenes,duration_manipulation_targetAtFixation,jsons/v1_VE1000_randls_38.json,http://54.235.29.9/FacialAge/BNav_EC2/DepthDuration/v2_depth_duration_MTurk/v2_DepthDuration_HTML.html#449,449,1920,880,1920,1080,8-29-2022,15-34-2,140,depth_duration_stimuli/000414_2014-06-04_19-49-13_260595134347_rgbf000044-resize_0/000414_2014-06-04_19-49-13_260595134347_rgbf000044-resize_0-target.png,1000,4.329,11,2733,997,feet,jsons/v1_VE1000_randls_38.json,1119454,1460364,33,Man
140,802331,DepthScenes,duration_manipulation_targetAtFixation,jsons/v1_VE1000_randls_38.json,http://54.235.29.9/FacialAge/BNav_EC2/DepthDuration/v2_depth_duration_MTurk/v2_DepthDuration_HTML.html#449,449,1920,880,1920,1080,8-29-2022,15-34-2,141,depth_duration_stimuli/003129_2014-05-12_10-48-10_094959634447_rgbf000100-resize_0/003129_2014-05-12_10-48-10_094959634447_rgbf000100-resize_0-target.png,1000,4.9305,12,2785,997,feet,jsons/v1_VE1000_randls_38.json,1119454,1460364,33,Man
141,802331,DepthScenes,duration_manipulation_targetAtFixation,jsons/v1_VE1000_randls_38.json,http://54.235.29.9/FacialAge/BNav_EC2/DepthDuration/v2_depth_duration_MTurk/v2_DepthDuration_HTML.html#449,449,1920,880,1920,1080,8-29-2022,15-34-2,142,depth_duration_stimuli/002630_2014-06-24_14-47-50_094959634447_rgbf000055-resize_1/002630_2014-06-24_14-47-50_094959634447_rgbf000055-resize_1-target.png,1000,3.0095,9,2995,1000,feet,jsons/v1_VE1000_randls_38.json,1119454,1460364,33,Man
142,802331,DepthScenes,duration_manipulation_targetAtFixation,jsons/v1_VE1000_randls_38.json,http://54.235.29.9/FacialAge/BNav_EC2/DepthDuration/v2_depth_duration_MTurk/v2_DepthDuration_HTML.html#449,449,1920,880,1920,1080,8-29-2022,15-34-2,143,depth_duration_stimuli/002758_2014-06-22_19-11-20_094959634447_rgbf000128-resize_1/002758_2014-06-22_19-11-20_094959634447_rgbf000128-resize_1-target.png,1000,2.555,7,2883,997,feet,jsons/v1_VE1000_randls_38.json,1119454,1460364,33,Man
143,802331,DepthScenes,duration_manipulation_targetAtFixation,jsons/v1_VE1000_randls_38.json,http://54.235.29.9/FacialAge/BNav_EC2/DepthDuration/v2_depth_duration_MTurk/v2_DepthDuration_HTML.html#449,449,1920,880,1920,1080,8-29-2022,15-34-2,144,depth_duration_stimuli/001244_2014-06-17_16-47-45_260595134347_rgbf000030-resize_4/001244_2014-06-17_16-47-45_260595134347_rgbf000030-resize_4-target.png,1000,2.0425,6,2677,997,feet,jsons/v1_VE1000_randls_38.json,1119454,1460364,33,Man
144,802331,DepthScenes,duration_manipulation_targetAtFixation,jsons/v1_VE1000_randls_38.json,http://54.235.29.9/FacialAge/BNav_EC2/DepthDuration/v2_depth_duration_MTurk/v2_DepthDuration_HTML.html#449,449,1920,880,1920,1080,8-29-2022,15-34-2,145,depth_duration_stimuli/003495_2014-05-21_16-01-51_094959634447_rgbf000100-resize_3/003495_2014-05-21_16-01-51_094959634447_rgbf000100-resize_3-target.png,1000,1.6255,5,2571,996,feet,jsons/v1_VE1000_randls_38.json,1119454,1460364,33,Man
145,802331,DepthScenes,duration_manipulation_targetAtFixation,jsons/v1_VE1000_randls_38.json,http://54.235.29.9/FacialAge/BNav_EC2/DepthDuration/v2_depth_duration_MTurk/v2_DepthDuration_HTML.html#449,449,1920,880,1920,1080,8-29-2022,15-34-2,146,depth_duration_stimuli/001498_2014-06-19_17-45-14_260595134347_rgbf000129-resize_4/001498_2014-06-19_17-45-14_260595134347_rgbf000129-resize-original.jpg,1000,1.4075,0,2830,988,feet,jsons/v1_VE1000_randls_38.json,1119454,1460364,33,Man
146,802331,DepthScenes,duration_manipulation_targetAtFixation,jsons/v1_VE1000_randls_38.json,http://54.235.29.9/FacialAge/BNav_EC2/DepthDuration/v2_depth_duration_MTurk/v2_DepthDuration_HTML.html#449,449,1920,880,1920,1080,8-29-2022,15-34-2,147,depth_duration_stimuli/000486_2014-06-09_20-47-20_260595134347_rgbf000143-resize_2/000486_2014-06-09_20-47-20_260595134347_rgbf000143-resize_2-target.png,1000,4.8325,10,2906,999,feet,jsons/v1_VE1000_randls_38.json,1119454,1460364,33,Man
147,802331,DepthScenes,duration_manipulation_targetAtFixation,jsons/v1_VE1000_randls_38.json,http://54.235.29.9/FacialAge/BNav_EC2/DepthDuration/v2_depth_duration_MTurk/v2_DepthDuration_HTML.html#449,449,1920,880,1920,1080,8-29-2022,15-34-2,148,depth_duration_stimuli/003083_2014-06-15_15-21-03_094959634447_rgbf000063-resize_1/003083_2014-06-15_15-21-03_094959634447_rgbf000063-resize_1-target.png,1000,4.1405,13,2753,997,feet,jsons/v1_VE1000_randls_38.json,1119454,1460364,33,Man
148,802331,DepthScenes,duration_manipulation_targetAtFixation,jsons/v1_VE1000_randls_38.json,http://54.235.29.9/FacialAge/BNav_EC2/DepthDuration/v2_depth_duration_MTurk/v2_DepthDuration_HTML.html#449,449,1920,880,1920,1080,8-29-2022,15-34-2,149,depth_duration_stimuli/002989_2014-06-15_12-25-03_094959634447_rgbf000150-resize_3/002989_2014-06-15_12-25-03_094959634447_rgbf000150-resize_3-target.png,1000,4.1975,13,2830,999,feet,jsons/v1_VE1000_randls_38.json,1119454,1460364,33,Man
149,802331,DepthScenes,duration_manipulation_targetAtFixation,jsons/v1_VE1000_randls_38.json,http://54.235.29.9/FacialAge/BNav_EC2/DepthDuration/v2_depth_duration_MTurk/v2_DepthDuration_HTML.html#449,449,1920,880,1920,1080,8-29-2022,15-34-2,150,depth_duration_stimuli/000866_2014-06-09_20-45-42_260595134347_rgbf000139-resize_1/000866_2014-06-09_20-45-42_260595134347_rgbf000139-resize_1-target.png,1000,3.2155,8,2792,994,feet,jsons/v1_VE1000_randls_38.json,1119454,1460364,33,Man
150,802331,DepthScenes,duration_manipulation_targetAtFixation,jsons/v1_VE1000_randls_38.json,http://54.235.29.9/FacialAge/BNav_EC2/DepthDuration/v2_depth_duration_MTurk/v2_DepthDuration_HTML.html#449,449,1920,880,1920,1080,8-29-2022,15-34-2,151,depth_duration_stimuli/000773_2014-06-08_22-24-54_260595134347_rgbf000093-resize_1/000773_2014-06-08_22-24-54_260595134347_rgbf000093-resize_1-target.png,1000,4.973,12,2864,997,feet,jsons/v1_VE1000_randls_38.json,1119454,1460364,33,Man
151,802331,DepthScenes,duration_manipulation_targetAtFixation,jsons/v1_VE1000_randls_38.json,http://54.235.29.9/FacialAge/BNav_EC2/DepthDuration/v2_depth_duration_MTurk/v2_DepthDuration_HTML.html#449,449,1920,880,1920,1080,8-29-2022,15-34-2,152,depth_duration_stimuli/002414_2014-06-28_20-24-58_260595134347_rgbf000067-resize_4/002414_2014-06-28_20-24-58_260595134347_rgbf000067-resize_4-target.png,1000,4.363,10,2756,998,feet,jsons/v1_VE1000_randls_38.json,1119454,1460364,33,Man
152,802331,DepthScenes,duration_manipulation_targetAtFixation,jsons/v1_VE1000_randls_38.json,http://54.235.29.9/FacialAge/BNav_EC2/DepthDuration/v2_depth_duration_MTurk/v2_DepthDuration_HTML.html#449,449,1920,880,1920,1080,8-29-2022,15-34-2,153,depth_duration_stimuli/001570_2014-06-20_17-21-09_260595134347_rgbf000135-resize_4/001570_2014-06-20_17-21-09_260595134347_rgbf000135-resize_4-target.png,1000,4.467,10,2820,1014,feet,jsons/v1_VE1000_randls_38.json,1119454,1460364,33,Man
153,802331,DepthScenes,duration_manipulation_targetAtFixation,jsons/v1_VE1000_randls_38.json,http://54.235.29.9/FacialAge/BNav_EC2/DepthDuration/v2_depth_duration_MTurk/v2_DepthDuration_HTML.html#449,449,1920,880,1920,1080,8-29-2022,15-34-2,154,depth_duration_stimuli/001392_2014-06-19_16-07-59_260595134347_rgbf000046-resize_1/001392_2014-06-19_16-07-59_260595134347_rgbf000046-resize_1-target.png,1000,4.135,9,2742,1013,feet,jsons/v1_VE1000_randls_38.json,1119454,1460364,33,Man
154,802331,DepthScenes,duration_manipulation_targetAtFixation,jsons/v1_VE1000_randls_38.json,http://54.235.29.9/FacialAge/BNav_EC2/DepthDuration/v2_depth_duration_MTurk/v2_DepthDuration_HTML.html#449,449,1920,880,1920,1080,8-29-2022,15-34-2,155,depth_duration_stimuli/000906_2014-06-08_13-35-43_260595134347_rgbf000155-resize_1/000906_2014-06-08_13-35-43_260595134347_rgbf000155-resize_1-target.png,1000,2.8489999999999998,9,2473,1010,feet,jsons/v1_VE1000_randls_38.json,1119454,1460364,33,Man
155,802331,DepthScenes,duration_manipulation_targetAtFixation,jsons/v1_VE1000_randls_38.json,http://54.235.29.9/FacialAge/BNav_EC2/DepthDuration/v2_depth_duration_MTurk/v2_DepthDuration_HTML.html#449,449,1920,880,1920,1080,8-29-2022,15-34-2,156,depth_duration_stimuli/002805_2014-06-22_19-54-03_094959634447_rgbf000079-resize_1/002805_2014-06-22_19-54-03_094959634447_rgbf000079-resize_1-target.png,1000,3.1439999999999997,10,5389,988,feet,jsons/v1_VE1000_randls_38.json,1119454,1460364,33,Man
156,802331,DepthScenes,duration_manipulation_targetAtFixation,jsons/v1_VE1000_randls_38.json,http://54.235.29.9/FacialAge/BNav_EC2/DepthDuration/v2_depth_duration_MTurk/v2_DepthDuration_HTML.html#449,449,1920,880,1920,1080,8-29-2022,15-34-2,157,depth_duration_stimuli/000469_2014-06-09_19-42-10_260595134347_rgbf000081-resize_1/000469_2014-06-09_19-42-10_260595134347_rgbf000081-resize_1-target.png,1000,1.652,5,2817,997,feet,jsons/v1_VE1000_randls_38.json,1119454,1460364,33,Man
157,802331,DepthScenes,duration_manipulation_targetAtFixation,jsons/v1_VE1000_randls_38.json,http://54.235.29.9/FacialAge/BNav_EC2/DepthDuration/v2_depth_duration_MTurk/v2_DepthDuration_HTML.html#449,449,1920,880,1920,1080,8-29-2022,15-34-2,158,depth_duration_stimuli/000483_2014-06-09_20-41-45_260595134347_rgbf000116-resize_4/000483_2014-06-09_20-41-45_260595134347_rgbf000116-resize_4-target.png,1000,1.337,5,2627,997,feet,jsons/v1_VE1000_randls_38.json,1119454,1460364,33,Man
158,802331,DepthScenes,duration_manipulation_targetAtFixation,jsons/v1_VE1000_randls_38.json,http://54.235.29.9/FacialAge/BNav_EC2/DepthDuration/v2_depth_duration_MTurk/v2_DepthDuration_HTML.html#449,449,1920,880,1920,1080,8-29-2022,15-34-2,159,depth_duration_stimuli/001029_2014-06-08_13-17-57_260595134347_rgbf000065-resize_1/001029_2014-06-08_13-17-57_260595134347_rgbf000065-resize_1-target.png,1000,3.0835,8,2655,995,feet,jsons/v1_VE1000_randls_38.json,1119454,1460364,33,Man
159,802331,DepthScenes,duration_manipulation_targetAtFixation,jsons/v1_VE1000_randls_38.json,http://54.235.29.9/FacialAge/BNav_EC2/DepthDuration/v2_depth_duration_MTurk/v2_DepthDuration_HTML.html#449,449,1920,880,1920,1080,8-29-2022,15-34-2,160,depth_duration_stimuli/000677_2014-06-08_23-10-32_260595134347_rgbf000158-resize_6/000677_2014-06-08_23-10-32_260595134347_rgbf000158-resize_6-target.png,1000,3.556,8,2724,997,feet,jsons/v1_VE1000_randls_38.json,1119454,1460364,33,Man
160,802331,DepthScenes,duration_manipulation_targetAtFixation,jsons/v1_VE1000_randls_38.json,http://54.235.29.9/FacialAge/BNav_EC2/DepthDuration/v2_depth_duration_MTurk/v2_DepthDuration_HTML.html#449,449,1920,880,1920,1080,8-29-2022,15-34-2,161,depth_duration_stimuli/000506_2014-06-08_23-21-00_260595134347_rgbf000070-resize_7/000506_2014-06-08_23-21-00_260595134347_rgbf000070-resize_7-target.png,1000,4.0585,9,2674,989,feet,jsons/v1_VE1000_randls_38.json,1119454,1460364,33,Man
161,802331,DepthScenes,duration_manipulation_targetAtFixation,jsons/v1_VE1000_randls_38.json,http://54.235.29.9/FacialAge/BNav_EC2/DepthDuration/v2_depth_duration_MTurk/v2_DepthDuration_HTML.html#449,449,1920,880,1920,1080,8-29-2022,15-34-2,162,depth_duration_stimuli/003079_2014-06-15_15-18-20_094959634447_rgbf000152-resize_8/003079_2014-06-15_15-18-20_094959634447_rgbf000152-resize_8-target.png,1000,2.8775,9,2866,993,feet,jsons/v1_VE1000_randls_38.json,1119454,1460364,33,Man
162,802331,DepthScenes,duration_manipulation_targetAtFixation,jsons/v1_VE1000_randls_38.json,http://54.235.29.9/FacialAge/BNav_EC2/DepthDuration/v2_depth_duration_MTurk/v2_DepthDuration_HTML.html#449,449,1920,880,1920,1080,8-29-2022,15-34-2,163,depth_duration_stimuli/002039_2014-06-24_20-22-38_260595134347_rgbf000084-resize_1/002039_2014-06-24_20-22-38_260595134347_rgbf000084-resize_1-target.png,1000,4.408,11,3023,997,feet,jsons/v1_VE1000_randls_38.json,1119454,1460364,33,Man
163,802331,DepthScenes,duration_manipulation_targetAtFixation,jsons/v1_VE1000_randls_38.json,http://54.235.29.9/FacialAge/BNav_EC2/DepthDuration/v2_depth_duration_MTurk/v2_DepthDuration_HTML.html#449,449,1920,880,1920,1080,8-29-2022,15-34-2,164,depth_duration_stimuli/002103_2014-06-25_20-00-40_260595134347_rgbf000049-resize_0/002103_2014-06-25_20-00-40_260595134347_rgbf000049-resize_0-target.png,1000,4.105,10,3214,999,feet,jsons/v1_VE1000_randls_38.json,1119454,1460364,33,Man
