,subjID,experimentName,versionName,sequenceName,url,selected_row,windowWidth,windowHeight,screenWidth,screenHeight,startDate,startTime,trial,stimulus,duration,actual_depth,depth_estimate,trial_RT,log_sceneDuration,unitSelection,seq_filepath,experimentTime,totalTime,age,gender
0,802612,DepthScenes,duration_manipulation_targetAtFixation,jsons/v1_VE1000_randls_56_rotated.json,http://54.235.29.9/FacialAge/BNav_EC2/DepthDuration/v2_depth_duration_MTurk/v2_DepthDuration_HTML.html#119,119,1517,694,1366,768,8-22-2022,8-57-45,1,depth_duration_stimuli/002805_2014-06-22_19-54-03_094959634447_rgbf000079-resize_1/002805_2014-06-22_19-54-03_094959634447_rgbf000079-resize_1-target.png,1000,3.1439999999999997,1,10893,978,meters,jsons/v1_VE1000_randls_56_rotated.json,967906,1164134,25,Man
1,802612,DepthScenes,duration_manipulation_targetAtFixation,jsons/v1_VE1000_randls_56_rotated.json,http://54.235.29.9/FacialAge/BNav_EC2/DepthDuration/v2_depth_duration_MTurk/v2_DepthDuration_HTML.html#119,119,1517,694,1366,768,8-22-2022,8-57-45,2,depth_duration_stimuli/000906_2014-06-08_13-35-43_260595134347_rgbf000155-resize_1/000906_2014-06-08_13-35-43_260595134347_rgbf000155-resize_1-target.png,1000,2.8489999999999998,0,4497,998,meters,jsons/v1_VE1000_randls_56_rotated.json,967906,1164134,25,Man
2,802612,DepthScenes,duration_manipulation_targetAtFixation,jsons/v1_VE1000_randls_56_rotated.json,http://54.235.29.9/FacialAge/BNav_EC2/DepthDuration/v2_depth_duration_MTurk/v2_DepthDuration_HTML.html#119,119,1517,694,1366,768,8-22-2022,8-57-45,3,depth_duration_stimuli/002637_2014-06-24_14-51-13_094959634447_rgbf000066-resize_4/002637_2014-06-24_14-51-13_094959634447_rgbf000066-resize_4-target.png,1000,1.9955,1,4876,971,meters,jsons/v1_VE1000_randls_56_rotated.json,967906,1164134,25,Man
3,802612,DepthScenes,duration_manipulation_targetAtFixation,jsons/v1_VE1000_randls_56_rotated.json,http://54.235.29.9/FacialAge/BNav_EC2/DepthDuration/v2_depth_duration_MTurk/v2_DepthDuration_HTML.html#119,119,1517,694,1366,768,8-22-2022,8-57-45,4,depth_duration_stimuli/003534_2014-05-22_15-06-10_094959634447_rgbf000102-resize_4/003534_2014-05-22_15-06-10_094959634447_rgbf000102-resize_4-target.png,1000,1.426,1,8074,1001,meters,jsons/v1_VE1000_randls_56_rotated.json,967906,1164134,25,Man
4,802612,DepthScenes,duration_manipulation_targetAtFixation,jsons/v1_VE1000_randls_56_rotated.json,http://54.235.29.9/FacialAge/BNav_EC2/DepthDuration/v2_depth_duration_MTurk/v2_DepthDuration_HTML.html#119,119,1517,694,1366,768,8-22-2022,8-57-45,5,depth_duration_stimuli/001214_2014-06-17_16-13-55_260595134347_rgbf000111-resize_0/001214_2014-06-17_16-13-55_260595134347_rgbf000111-resize_0-target.png,1000,2.6505,0,5436,1012,meters,jsons/v1_VE1000_randls_56_rotated.json,967906,1164134,25,Man
5,802612,DepthScenes,duration_manipulation_targetAtFixation,jsons/v1_VE1000_randls_56_rotated.json,http://54.235.29.9/FacialAge/BNav_EC2/DepthDuration/v2_depth_duration_MTurk/v2_DepthDuration_HTML.html#119,119,1517,694,1366,768,8-22-2022,8-57-45,6,depth_duration_stimuli/000810_2014-06-08_17-20-01_260595134347_rgbf000105-resize_0/000810_2014-06-08_17-20-01_260595134347_rgbf000105-resize_0-target.png,1000,1.4865,0,4476,1000,meters,jsons/v1_VE1000_randls_56_rotated.json,967906,1164134,25,Man
6,802612,DepthScenes,duration_manipulation_targetAtFixation,jsons/v1_VE1000_randls_56_rotated.json,http://54.235.29.9/FacialAge/BNav_EC2/DepthDuration/v2_depth_duration_MTurk/v2_DepthDuration_HTML.html#119,119,1517,694,1366,768,8-22-2022,8-57-45,7,depth_duration_stimuli/003081_2014-06-15_15-19-16_094959634447_rgbf000150-resize_1/003081_2014-06-15_15-19-16_094959634447_rgbf000150-resize_1-target.png,1000,3.9125,0,4573,1000,meters,jsons/v1_VE1000_randls_56_rotated.json,967906,1164134,25,Man
7,802612,DepthScenes,duration_manipulation_targetAtFixation,jsons/v1_VE1000_randls_56_rotated.json,http://54.235.29.9/FacialAge/BNav_EC2/DepthDuration/v2_depth_duration_MTurk/v2_DepthDuration_HTML.html#119,119,1517,694,1366,768,8-22-2022,8-57-45,8,depth_duration_stimuli/001417_2014-06-19_16-25-36_260595134347_rgbf000115-resize_5/001417_2014-06-19_16-25-36_260595134347_rgbf000115-resize_5-target.png,1000,4.6255,1,4348,1000,meters,jsons/v1_VE1000_randls_56_rotated.json,967906,1164134,25,Man
8,802612,DepthScenes,duration_manipulation_targetAtFixation,jsons/v1_VE1000_randls_56_rotated.json,http://54.235.29.9/FacialAge/BNav_EC2/DepthDuration/v2_depth_duration_MTurk/v2_DepthDuration_HTML.html#119,119,1517,694,1366,768,8-22-2022,8-57-45,9,depth_duration_stimuli/002678_2014-06-13_16-15-32_094959634447_rgbf000151-resize_6/002678_2014-06-13_16-15-32_094959634447_rgbf000151-resize_6-target.png,1000,2.1830000000000003,1,4524,980,meters,jsons/v1_VE1000_randls_56_rotated.json,967906,1164134,25,Man
9,802612,DepthScenes,duration_manipulation_targetAtFixation,jsons/v1_VE1000_randls_56_rotated.json,http://54.235.29.9/FacialAge/BNav_EC2/DepthDuration/v2_depth_duration_MTurk/v2_DepthDuration_HTML.html#119,119,1517,694,1366,768,8-22-2022,8-57-45,10,depth_duration_stimuli/000368_2014-06-09_15-53-01_260595134347_rgbf000155-resize_2/000368_2014-06-09_15-53-01_260595134347_rgbf000155-resize_2-target.png,1000,2.4859999999999998,1,4566,1005,meters,jsons/v1_VE1000_randls_56_rotated.json,967906,1164134,25,Man
10,802612,DepthScenes,duration_manipulation_targetAtFixation,jsons/v1_VE1000_randls_56_rotated.json,http://54.235.29.9/FacialAge/BNav_EC2/DepthDuration/v2_depth_duration_MTurk/v2_DepthDuration_HTML.html#119,119,1517,694,1366,768,8-22-2022,8-57-45,11,depth_duration_stimuli/001815_2014-06-26_20-52-55_260595134347_rgbf000020-resize_0/001815_2014-06-26_20-52-55_260595134347_rgbf000020-resize_0-target.png,1000,3.3865,0,4519,999,meters,jsons/v1_VE1000_randls_56_rotated.json,967906,1164134,25,Man
11,802612,DepthScenes,duration_manipulation_targetAtFixation,jsons/v1_VE1000_randls_56_rotated.json,http://54.235.29.9/FacialAge/BNav_EC2/DepthDuration/v2_depth_duration_MTurk/v2_DepthDuration_HTML.html#119,119,1517,694,1366,768,8-22-2022,8-57-45,12,depth_duration_stimuli/001808_2014-06-26_20-50-58_260595134347_rgbf000029-resize_1/001808_2014-06-26_20-50-58_260595134347_rgbf000029-resize_1-target.png,1000,4.249,0,5146,999,meters,jsons/v1_VE1000_randls_56_rotated.json,967906,1164134,25,Man
12,802612,DepthScenes,duration_manipulation_targetAtFixation,jsons/v1_VE1000_randls_56_rotated.json,http://54.235.29.9/FacialAge/BNav_EC2/DepthDuration/v2_depth_duration_MTurk/v2_DepthDuration_HTML.html#119,119,1517,694,1366,768,8-22-2022,8-57-45,13,depth_duration_stimuli/003338_2014-05-20_11-01-23_094959634447_rgbf000051-resize_6/003338_2014-05-20_11-01-23_094959634447_rgbf000051-resize_6-target.png,1000,1.693,1,5244,1002,meters,jsons/v1_VE1000_randls_56_rotated.json,967906,1164134,25,Man
13,802612,DepthScenes,duration_manipulation_targetAtFixation,jsons/v1_VE1000_randls_56_rotated.json,http://54.235.29.9/FacialAge/BNav_EC2/DepthDuration/v2_depth_duration_MTurk/v2_DepthDuration_HTML.html#119,119,1517,694,1366,768,8-22-2022,8-57-45,14,depth_duration_stimuli/002509_2014-06-24_13-19-22_094959634447_rgbf000077-resize_0/002509_2014-06-24_13-19-22_094959634447_rgbf000077-resize_0-target.png,1000,1.3065,1,4518,995,meters,jsons/v1_VE1000_randls_56_rotated.json,967906,1164134,25,Man
14,802612,DepthScenes,duration_manipulation_targetAtFixation,jsons/v1_VE1000_randls_56_rotated.json,http://54.235.29.9/FacialAge/BNav_EC2/DepthDuration/v2_depth_duration_MTurk/v2_DepthDuration_HTML.html#119,119,1517,694,1366,768,8-22-2022,8-57-45,15,depth_duration_stimuli/002344_2014-06-28_20-06-29_260595134347_rgbf000030-resize_1/002344_2014-06-28_20-06-29_260595134347_rgbf000030-resize_1-target.png,1000,1.5795,1,4851,1000,meters,jsons/v1_VE1000_randls_56_rotated.json,967906,1164134,25,Man
15,802612,DepthScenes,duration_manipulation_targetAtFixation,jsons/v1_VE1000_randls_56_rotated.json,http://54.235.29.9/FacialAge/BNav_EC2/DepthDuration/v2_depth_duration_MTurk/v2_DepthDuration_HTML.html#119,119,1517,694,1366,768,8-22-2022,8-57-45,16,depth_duration_stimuli/002725_2014-06-22_11-47-51_094959634447_rgbf000070-resize_1/002725_2014-06-22_11-47-51_094959634447_rgbf000070-resize_1-target.png,1000,2.195,0,4380,1000,meters,jsons/v1_VE1000_randls_56_rotated.json,967906,1164134,25,Man
16,802612,DepthScenes,duration_manipulation_targetAtFixation,jsons/v1_VE1000_randls_56_rotated.json,http://54.235.29.9/FacialAge/BNav_EC2/DepthDuration/v2_depth_duration_MTurk/v2_DepthDuration_HTML.html#119,119,1517,694,1366,768,8-22-2022,8-57-45,17,depth_duration_stimuli/000742_2014-06-08_18-48-09_260595134347_rgbf000164-resize_4/000742_2014-06-08_18-48-09_260595134347_rgbf000164-resize_4-target.png,1000,4.632,1,4505,1000,meters,jsons/v1_VE1000_randls_56_rotated.json,967906,1164134,25,Man
17,802612,DepthScenes,duration_manipulation_targetAtFixation,jsons/v1_VE1000_randls_56_rotated.json,http://54.235.29.9/FacialAge/BNav_EC2/DepthDuration/v2_depth_duration_MTurk/v2_DepthDuration_HTML.html#119,119,1517,694,1366,768,8-22-2022,8-57-45,18,depth_duration_stimuli/001066_2014-06-08_22-03-20_260595134347_rgbf000066-resize_4/001066_2014-06-08_22-03-20_260595134347_rgbf000066-resize_4-target.png,1000,4.2330000000000005,0,5056,1001,meters,jsons/v1_VE1000_randls_56_rotated.json,967906,1164134,25,Man
18,802612,DepthScenes,duration_manipulation_targetAtFixation,jsons/v1_VE1000_randls_56_rotated.json,http://54.235.29.9/FacialAge/BNav_EC2/DepthDuration/v2_depth_duration_MTurk/v2_DepthDuration_HTML.html#119,119,1517,694,1366,768,8-22-2022,8-57-45,19,depth_duration_stimuli/001498_2014-06-19_17-45-14_260595134347_rgbf000129-resize_4/001498_2014-06-19_17-45-14_260595134347_rgbf000129-resize-original.jpg,1000,1.4075,0,4821,996,meters,jsons/v1_VE1000_randls_56_rotated.json,967906,1164134,25,Man
19,802612,DepthScenes,duration_manipulation_targetAtFixation,jsons/v1_VE1000_randls_56_rotated.json,http://54.235.29.9/FacialAge/BNav_EC2/DepthDuration/v2_depth_duration_MTurk/v2_DepthDuration_HTML.html#119,119,1517,694,1366,768,8-22-2022,8-57-45,20,depth_duration_stimuli/001584_2014-06-20_11-07-43_260595134347_rgbf000002-resize_1/001584_2014-06-20_11-07-43_260595134347_rgbf000002-resize_1-target.png,1000,3.53,0,4861,992,meters,jsons/v1_VE1000_randls_56_rotated.json,967906,1164134,25,Man
20,802612,DepthScenes,duration_manipulation_targetAtFixation,jsons/v1_VE1000_randls_56_rotated.json,http://54.235.29.9/FacialAge/BNav_EC2/DepthDuration/v2_depth_duration_MTurk/v2_DepthDuration_HTML.html#119,119,1517,694,1366,768,8-22-2022,8-57-45,21,depth_duration_stimuli/003621_2014-05-23_18-06-08_094959634447_rgbf000101-resize_1/003621_2014-05-23_18-06-08_094959634447_rgbf000101-resize_1-target.png,1000,3.9835,0,4291,1000,meters,jsons/v1_VE1000_randls_56_rotated.json,967906,1164134,25,Man
21,802612,DepthScenes,duration_manipulation_targetAtFixation,jsons/v1_VE1000_randls_56_rotated.json,http://54.235.29.9/FacialAge/BNav_EC2/DepthDuration/v2_depth_duration_MTurk/v2_DepthDuration_HTML.html#119,119,1517,694,1366,768,8-22-2022,8-57-45,22,depth_duration_stimuli/003048_2014-06-15_13-49-43_094959634447_rgbf000150-resize_1/003048_2014-06-15_13-49-43_094959634447_rgbf000150-resize_1-target.png,1000,4.0035,1,4743,999,meters,jsons/v1_VE1000_randls_56_rotated.json,967906,1164134,25,Man
22,802612,DepthScenes,duration_manipulation_targetAtFixation,jsons/v1_VE1000_randls_56_rotated.json,http://54.235.29.9/FacialAge/BNav_EC2/DepthDuration/v2_depth_duration_MTurk/v2_DepthDuration_HTML.html#119,119,1517,694,1366,768,8-22-2022,8-57-45,23,depth_duration_stimuli/002043_2014-06-24_20-29-38_260595134347_rgbf000039-resize_4/002043_2014-06-24_20-29-38_260595134347_rgbf000039-resize_4-target.png,1000,2.8435,1,5645,999,meters,jsons/v1_VE1000_randls_56_rotated.json,967906,1164134,25,Man
23,802612,DepthScenes,duration_manipulation_targetAtFixation,jsons/v1_VE1000_randls_56_rotated.json,http://54.235.29.9/FacialAge/BNav_EC2/DepthDuration/v2_depth_duration_MTurk/v2_DepthDuration_HTML.html#119,119,1517,694,1366,768,8-22-2022,8-57-45,24,depth_duration_stimuli/001392_2014-06-19_16-07-59_260595134347_rgbf000046-resize_1/001392_2014-06-19_16-07-59_260595134347_rgbf000046-resize_1-target.png,1000,4.135,0,4793,995,meters,jsons/v1_VE1000_randls_56_rotated.json,967906,1164134,25,Man
24,802612,DepthScenes,duration_manipulation_targetAtFixation,jsons/v1_VE1000_randls_56_rotated.json,http://54.235.29.9/FacialAge/BNav_EC2/DepthDuration/v2_depth_duration_MTurk/v2_DepthDuration_HTML.html#119,119,1517,694,1366,768,8-22-2022,8-57-45,25,depth_duration_stimuli/001570_2014-06-20_17-21-09_260595134347_rgbf000135-resize_4/001570_2014-06-20_17-21-09_260595134347_rgbf000135-resize_4-target.png,1000,4.467,0,4896,1010,meters,jsons/v1_VE1000_randls_56_rotated.json,967906,1164134,25,Man
25,802612,DepthScenes,duration_manipulation_targetAtFixation,jsons/v1_VE1000_randls_56_rotated.json,http://54.235.29.9/FacialAge/BNav_EC2/DepthDuration/v2_depth_duration_MTurk/v2_DepthDuration_HTML.html#119,119,1517,694,1366,768,8-22-2022,8-57-45,26,depth_duration_stimuli/002444_2014-06-28_20-32-08_260595134347_rgbf000027-resize_0/002444_2014-06-28_20-32-08_260595134347_rgbf000027-resize_0-target.png,1000,4.388999999999999,0,5819,998,meters,jsons/v1_VE1000_randls_56_rotated.json,967906,1164134,25,Man
26,802612,DepthScenes,duration_manipulation_targetAtFixation,jsons/v1_VE1000_randls_56_rotated.json,http://54.235.29.9/FacialAge/BNav_EC2/DepthDuration/v2_depth_duration_MTurk/v2_DepthDuration_HTML.html#119,119,1517,694,1366,768,8-22-2022,8-57-45,27,depth_duration_stimuli/000436_2014-06-09_22-25-11_260595134347_rgbf000137-resize_1/000436_2014-06-09_22-25-11_260595134347_rgbf000137-resize_1-target.png,1000,4.0705,0,11292,996,meters,jsons/v1_VE1000_randls_56_rotated.json,967906,1164134,25,Man
27,802612,DepthScenes,duration_manipulation_targetAtFixation,jsons/v1_VE1000_randls_56_rotated.json,http://54.235.29.9/FacialAge/BNav_EC2/DepthDuration/v2_depth_duration_MTurk/v2_DepthDuration_HTML.html#119,119,1517,694,1366,768,8-22-2022,8-57-45,28,depth_duration_stimuli/002949_2014-06-26_15-57-42_094959634447_rgbf000079-resize_1/002949_2014-06-26_15-57-42_094959634447_rgbf000079-resize_1-target.png,1000,1.8915,1,4413,1000,meters,jsons/v1_VE1000_randls_56_rotated.json,967906,1164134,25,Man
28,802612,DepthScenes,duration_manipulation_targetAtFixation,jsons/v1_VE1000_randls_56_rotated.json,http://54.235.29.9/FacialAge/BNav_EC2/DepthDuration/v2_depth_duration_MTurk/v2_DepthDuration_HTML.html#119,119,1517,694,1366,768,8-22-2022,8-57-45,29,depth_duration_stimuli/000522_2014-06-08_13-35-06_260595134347_rgbf000244-resize_1/000522_2014-06-08_13-35-06_260595134347_rgbf000244-resize_1-target.png,1000,2.3715,1,12769,998,meters,jsons/v1_VE1000_randls_56_rotated.json,967906,1164134,25,Man
29,802612,DepthScenes,duration_manipulation_targetAtFixation,jsons/v1_VE1000_randls_56_rotated.json,http://54.235.29.9/FacialAge/BNav_EC2/DepthDuration/v2_depth_duration_MTurk/v2_DepthDuration_HTML.html#119,119,1517,694,1366,768,8-22-2022,8-57-45,30,depth_duration_stimuli/002072_2014-06-24_21-48-06_260595134347_rgbf000115-resize_0/002072_2014-06-24_21-48-06_260595134347_rgbf000115-resize-original.jpg,1000,4.702,0,9399,1006,meters,jsons/v1_VE1000_randls_56_rotated.json,967906,1164134,25,Man
30,802612,DepthScenes,duration_manipulation_targetAtFixation,jsons/v1_VE1000_randls_56_rotated.json,http://54.235.29.9/FacialAge/BNav_EC2/DepthDuration/v2_depth_duration_MTurk/v2_DepthDuration_HTML.html#119,119,1517,694,1366,768,8-22-2022,8-57-45,31,depth_duration_stimuli/003079_2014-06-15_15-18-20_094959634447_rgbf000152-resize_8/003079_2014-06-15_15-18-20_094959634447_rgbf000152-resize_8-target.png,1000,2.8775,1,5103,1008,meters,jsons/v1_VE1000_randls_56_rotated.json,967906,1164134,25,Man
31,802612,DepthScenes,duration_manipulation_targetAtFixation,jsons/v1_VE1000_randls_56_rotated.json,http://54.235.29.9/FacialAge/BNav_EC2/DepthDuration/v2_depth_duration_MTurk/v2_DepthDuration_HTML.html#119,119,1517,694,1366,768,8-22-2022,8-57-45,32,depth_duration_stimuli/000506_2014-06-08_23-21-00_260595134347_rgbf000070-resize_7/000506_2014-06-08_23-21-00_260595134347_rgbf000070-resize_7-target.png,1000,4.0585,0,4608,1002,meters,jsons/v1_VE1000_randls_56_rotated.json,967906,1164134,25,Man
32,802612,DepthScenes,duration_manipulation_targetAtFixation,jsons/v1_VE1000_randls_56_rotated.json,http://54.235.29.9/FacialAge/BNav_EC2/DepthDuration/v2_depth_duration_MTurk/v2_DepthDuration_HTML.html#119,119,1517,694,1366,768,8-22-2022,8-57-45,33,depth_duration_stimuli/002467_2014-06-28_20-38-07_260595134347_rgbf000026-resize_2/002467_2014-06-28_20-38-07_260595134347_rgbf000026-resize_2-target.png,1000,4.742,1,4601,1000,meters,jsons/v1_VE1000_randls_56_rotated.json,967906,1164134,25,Man
33,802612,DepthScenes,duration_manipulation_targetAtFixation,jsons/v1_VE1000_randls_56_rotated.json,http://54.235.29.9/FacialAge/BNav_EC2/DepthDuration/v2_depth_duration_MTurk/v2_DepthDuration_HTML.html#119,119,1517,694,1366,768,8-22-2022,8-57-45,34,depth_duration_stimuli/002570_2014-06-24_13-59-54_094959634447_rgbf000059-resize_0/002570_2014-06-24_13-59-54_094959634447_rgbf000059-resize_0-target.png,1000,4.037,1,4295,998,meters,jsons/v1_VE1000_randls_56_rotated.json,967906,1164134,25,Man
34,802612,DepthScenes,duration_manipulation_targetAtFixation,jsons/v1_VE1000_randls_56_rotated.json,http://54.235.29.9/FacialAge/BNav_EC2/DepthDuration/v2_depth_duration_MTurk/v2_DepthDuration_HTML.html#119,119,1517,694,1366,768,8-22-2022,8-57-45,35,depth_duration_stimuli/001450_2014-06-19_17-02-03_260595134347_rgbf000203-resize_4/001450_2014-06-19_17-02-03_260595134347_rgbf000203-resize_4-target.png,1000,4.0106666666667,1,5247,982,meters,jsons/v1_VE1000_randls_56_rotated.json,967906,1164134,25,Man
35,802612,DepthScenes,duration_manipulation_targetAtFixation,jsons/v1_VE1000_randls_56_rotated.json,http://54.235.29.9/FacialAge/BNav_EC2/DepthDuration/v2_depth_duration_MTurk/v2_DepthDuration_HTML.html#119,119,1517,694,1366,768,8-22-2022,8-57-45,36,depth_duration_stimuli/001449_2014-06-19_17-01-27_260595134347_rgbf000116-resize_2/001449_2014-06-19_17-01-27_260595134347_rgbf000116-resize_2-target.png,1000,3.452,0,4554,995,meters,jsons/v1_VE1000_randls_56_rotated.json,967906,1164134,25,Man
36,802612,DepthScenes,duration_manipulation_targetAtFixation,jsons/v1_VE1000_randls_56_rotated.json,http://54.235.29.9/FacialAge/BNav_EC2/DepthDuration/v2_depth_duration_MTurk/v2_DepthDuration_HTML.html#119,119,1517,694,1366,768,8-22-2022,8-57-45,37,depth_duration_stimuli/000409_2014-06-04_19-23-33_260595134347_rgbf000067-resize_0/000409_2014-06-04_19-23-33_260595134347_rgbf000067-resize_0-target.png,1000,3.7335,1,4312,994,meters,jsons/v1_VE1000_randls_56_rotated.json,967906,1164134,25,Man
37,802612,DepthScenes,duration_manipulation_targetAtFixation,jsons/v1_VE1000_randls_56_rotated.json,http://54.235.29.9/FacialAge/BNav_EC2/DepthDuration/v2_depth_duration_MTurk/v2_DepthDuration_HTML.html#119,119,1517,694,1366,768,8-22-2022,8-57-45,38,depth_duration_stimuli/002663_2014-06-13_15-50-26_094959634447_rgbf000075-resize_1/002663_2014-06-13_15-50-26_094959634447_rgbf000075-resize_1-target.png,1000,4.7495,0,4183,1000,meters,jsons/v1_VE1000_randls_56_rotated.json,967906,1164134,25,Man
38,802612,DepthScenes,duration_manipulation_targetAtFixation,jsons/v1_VE1000_randls_56_rotated.json,http://54.235.29.9/FacialAge/BNav_EC2/DepthDuration/v2_depth_duration_MTurk/v2_DepthDuration_HTML.html#119,119,1517,694,1366,768,8-22-2022,8-57-45,39,depth_duration_stimuli/003228_2014-05-14_13-42-35_094959634447_rgbf000101-resize_1/003228_2014-05-14_13-42-35_094959634447_rgbf000101-resize_1-target.png,1000,1.9680000000000002,1,4762,993,meters,jsons/v1_VE1000_randls_56_rotated.json,967906,1164134,25,Man
39,802612,DepthScenes,duration_manipulation_targetAtFixation,jsons/v1_VE1000_randls_56_rotated.json,http://54.235.29.9/FacialAge/BNav_EC2/DepthDuration/v2_depth_duration_MTurk/v2_DepthDuration_HTML.html#119,119,1517,694,1366,768,8-22-2022,8-57-45,40,depth_duration_stimuli/002600_2014-06-24_14-27-04_094959634447_rgbf000074-resize_2/002600_2014-06-24_14-27-04_094959634447_rgbf000074-resize_2-target.png,1000,2.7575,1,5692,992,meters,jsons/v1_VE1000_randls_56_rotated.json,967906,1164134,25,Man
40,802612,DepthScenes,duration_manipulation_targetAtFixation,jsons/v1_VE1000_randls_56_rotated.json,http://54.235.29.9/FacialAge/BNav_EC2/DepthDuration/v2_depth_duration_MTurk/v2_DepthDuration_HTML.html#119,119,1517,694,1366,768,8-22-2022,8-57-45,41,depth_duration_stimuli/000734_2014-06-08_17-39-11_260595134347_rgbf000128-resize_2/000734_2014-06-08_17-39-11_260595134347_rgbf000128-resize_2-target.png,1000,4.098,1,4955,1002,meters,jsons/v1_VE1000_randls_56_rotated.json,967906,1164134,25,Man
41,802612,DepthScenes,duration_manipulation_targetAtFixation,jsons/v1_VE1000_randls_56_rotated.json,http://54.235.29.9/FacialAge/BNav_EC2/DepthDuration/v2_depth_duration_MTurk/v2_DepthDuration_HTML.html#119,119,1517,694,1366,768,8-22-2022,8-57-45,42,depth_duration_stimuli/000739_2014-06-08_18-45-58_260595134347_rgbf000068-resize_1/000739_2014-06-08_18-45-58_260595134347_rgbf000068-resize_1-target.png,1000,3.534,1,4895,999,meters,jsons/v1_VE1000_randls_56_rotated.json,967906,1164134,25,Man
42,802612,DepthScenes,duration_manipulation_targetAtFixation,jsons/v1_VE1000_randls_56_rotated.json,http://54.235.29.9/FacialAge/BNav_EC2/DepthDuration/v2_depth_duration_MTurk/v2_DepthDuration_HTML.html#119,119,1517,694,1366,768,8-22-2022,8-57-45,43,depth_duration_stimuli/001052_2014-06-08_18-24-54_260595134347_rgbf000130-resize_1/001052_2014-06-08_18-24-54_260595134347_rgbf000130-resize_1-target.png,1000,4.1045,0,4252,993,meters,jsons/v1_VE1000_randls_56_rotated.json,967906,1164134,25,Man
43,802612,DepthScenes,duration_manipulation_targetAtFixation,jsons/v1_VE1000_randls_56_rotated.json,http://54.235.29.9/FacialAge/BNav_EC2/DepthDuration/v2_depth_duration_MTurk/v2_DepthDuration_HTML.html#119,119,1517,694,1366,768,8-22-2022,8-57-45,44,depth_duration_stimuli/002988_2014-06-15_12-24-20_094959634447_rgbf000150-resize_1/002988_2014-06-15_12-24-20_094959634447_rgbf000150-resize_1-target.png,1000,4.7669999999999995,0,8225,998,meters,jsons/v1_VE1000_randls_56_rotated.json,967906,1164134,25,Man
44,802612,DepthScenes,duration_manipulation_targetAtFixation,jsons/v1_VE1000_randls_56_rotated.json,http://54.235.29.9/FacialAge/BNav_EC2/DepthDuration/v2_depth_duration_MTurk/v2_DepthDuration_HTML.html#119,119,1517,694,1366,768,8-22-2022,8-57-45,45,depth_duration_stimuli/000749_2014-06-08_21-55-06_260595134347_rgbf000070-resize_2/000749_2014-06-08_21-55-06_260595134347_rgbf000070-resize_2-target.png,1000,2.331,1,5424,1007,meters,jsons/v1_VE1000_randls_56_rotated.json,967906,1164134,25,Man
45,802612,DepthScenes,duration_manipulation_targetAtFixation,jsons/v1_VE1000_randls_56_rotated.json,http://54.235.29.9/FacialAge/BNav_EC2/DepthDuration/v2_depth_duration_MTurk/v2_DepthDuration_HTML.html#119,119,1517,694,1366,768,8-22-2022,8-57-45,46,depth_duration_stimuli/002788_2014-06-22_19-36-03_094959634447_rgbf000088-resize_2/002788_2014-06-22_19-36-03_094959634447_rgbf000088-resize_2-target.png,1000,1.6465,1,4395,995,meters,jsons/v1_VE1000_randls_56_rotated.json,967906,1164134,25,Man
46,802612,DepthScenes,duration_manipulation_targetAtFixation,jsons/v1_VE1000_randls_56_rotated.json,http://54.235.29.9/FacialAge/BNav_EC2/DepthDuration/v2_depth_duration_MTurk/v2_DepthDuration_HTML.html#119,119,1517,694,1366,768,8-22-2022,8-57-45,47,depth_duration_stimuli/002545_2014-06-24_13-38-53_094959634447_rgbf000080-resize_4/002545_2014-06-24_13-38-53_094959634447_rgbf000080-resize_4-target.png,1000,1.9205,1,4452,993,meters,jsons/v1_VE1000_randls_56_rotated.json,967906,1164134,25,Man
47,802612,DepthScenes,duration_manipulation_targetAtFixation,jsons/v1_VE1000_randls_56_rotated.json,http://54.235.29.9/FacialAge/BNav_EC2/DepthDuration/v2_depth_duration_MTurk/v2_DepthDuration_HTML.html#119,119,1517,694,1366,768,8-22-2022,8-57-45,48,depth_duration_stimuli/001092_2014-06-15_17-34-58_260595134347_rgbf000171-resize_3/001092_2014-06-15_17-34-58_260595134347_rgbf000171-resize_3-target.png,1000,2.6935,1,5215,1001,meters,jsons/v1_VE1000_randls_56_rotated.json,967906,1164134,25,Man
48,802612,DepthScenes,duration_manipulation_targetAtFixation,jsons/v1_VE1000_randls_56_rotated.json,http://54.235.29.9/FacialAge/BNav_EC2/DepthDuration/v2_depth_duration_MTurk/v2_DepthDuration_HTML.html#119,119,1517,694,1366,768,8-22-2022,8-57-45,49,depth_duration_stimuli/001170_2014-06-17_15-43-44_260595134347_rgbf000096-resize_6/001170_2014-06-17_15-43-44_260595134347_rgbf000096-resize-original.jpg,1000,1.1909999999999998,1,4359,988,meters,jsons/v1_VE1000_randls_56_rotated.json,967906,1164134,25,Man
49,802612,DepthScenes,duration_manipulation_targetAtFixation,jsons/v1_VE1000_randls_56_rotated.json,http://54.235.29.9/FacialAge/BNav_EC2/DepthDuration/v2_depth_duration_MTurk/v2_DepthDuration_HTML.html#119,119,1517,694,1366,768,8-22-2022,8-57-45,50,depth_duration_stimuli/000137_2014-05-20_17-04-49_260595134347_rgbf000120-resize_1/000137_2014-05-20_17-04-49_260595134347_rgbf000120-resize_1-target.png,1000,3.786,0,4895,1007,meters,jsons/v1_VE1000_randls_56_rotated.json,967906,1164134,25,Man
50,802612,DepthScenes,duration_manipulation_targetAtFixation,jsons/v1_VE1000_randls_56_rotated.json,http://54.235.29.9/FacialAge/BNav_EC2/DepthDuration/v2_depth_duration_MTurk/v2_DepthDuration_HTML.html#119,119,1517,694,1366,768,8-22-2022,8-57-45,51,depth_duration_stimuli/000736_2014-06-08_18-24-15_260595134347_rgbf000206-resize_3/000736_2014-06-08_18-24-15_260595134347_rgbf000206-resize_3-target.png,1000,3.515,1,4078,1000,meters,jsons/v1_VE1000_randls_56_rotated.json,967906,1164134,25,Man
51,802612,DepthScenes,duration_manipulation_targetAtFixation,jsons/v1_VE1000_randls_56_rotated.json,http://54.235.29.9/FacialAge/BNav_EC2/DepthDuration/v2_depth_duration_MTurk/v2_DepthDuration_HTML.html#119,119,1517,694,1366,768,8-22-2022,8-57-45,52,depth_duration_stimuli/002414_2014-06-28_20-24-58_260595134347_rgbf000067-resize_4/002414_2014-06-28_20-24-58_260595134347_rgbf000067-resize_4-target.png,1000,4.363,1,4421,1001,meters,jsons/v1_VE1000_randls_56_rotated.json,967906,1164134,25,Man
52,802612,DepthScenes,duration_manipulation_targetAtFixation,jsons/v1_VE1000_randls_56_rotated.json,http://54.235.29.9/FacialAge/BNav_EC2/DepthDuration/v2_depth_duration_MTurk/v2_DepthDuration_HTML.html#119,119,1517,694,1366,768,8-22-2022,8-57-45,53,depth_duration_stimuli/000773_2014-06-08_22-24-54_260595134347_rgbf000093-resize_1/000773_2014-06-08_22-24-54_260595134347_rgbf000093-resize_1-target.png,1000,4.973,1,4616,1009,meters,jsons/v1_VE1000_randls_56_rotated.json,967906,1164134,25,Man
53,802612,DepthScenes,duration_manipulation_targetAtFixation,jsons/v1_VE1000_randls_56_rotated.json,http://54.235.29.9/FacialAge/BNav_EC2/DepthDuration/v2_depth_duration_MTurk/v2_DepthDuration_HTML.html#119,119,1517,694,1366,768,8-22-2022,8-57-45,54,depth_duration_stimuli/003495_2014-05-21_16-01-51_094959634447_rgbf000100-resize_3/003495_2014-05-21_16-01-51_094959634447_rgbf000100-resize_3-target.png,1000,1.6255,1,4877,997,meters,jsons/v1_VE1000_randls_56_rotated.json,967906,1164134,25,Man
54,802612,DepthScenes,duration_manipulation_targetAtFixation,jsons/v1_VE1000_randls_56_rotated.json,http://54.235.29.9/FacialAge/BNav_EC2/DepthDuration/v2_depth_duration_MTurk/v2_DepthDuration_HTML.html#119,119,1517,694,1366,768,8-22-2022,8-57-45,55,depth_duration_stimuli/001244_2014-06-17_16-47-45_260595134347_rgbf000030-resize_4/001244_2014-06-17_16-47-45_260595134347_rgbf000030-resize_4-target.png,1000,2.0425,1,4978,1004,meters,jsons/v1_VE1000_randls_56_rotated.json,967906,1164134,25,Man
55,802612,DepthScenes,duration_manipulation_targetAtFixation,jsons/v1_VE1000_randls_56_rotated.json,http://54.235.29.9/FacialAge/BNav_EC2/DepthDuration/v2_depth_duration_MTurk/v2_DepthDuration_HTML.html#119,119,1517,694,1366,768,8-22-2022,8-57-45,56,depth_duration_stimuli/003490_2014-05-21_15-50-11_094959634447_rgbf000101-resize_3/003490_2014-05-21_15-50-11_094959634447_rgbf000101-resize_3-target.png,1000,3.6445,1,6337,1000,meters,jsons/v1_VE1000_randls_56_rotated.json,967906,1164134,25,Man
56,802612,DepthScenes,duration_manipulation_targetAtFixation,jsons/v1_VE1000_randls_56_rotated.json,http://54.235.29.9/FacialAge/BNav_EC2/DepthDuration/v2_depth_duration_MTurk/v2_DepthDuration_HTML.html#119,119,1517,694,1366,768,8-22-2022,8-57-45,57,depth_duration_stimuli/001175_2014-06-17_15-45-55_260595134347_rgbf000129-resize_4/001175_2014-06-17_15-45-55_260595134347_rgbf000129-resize_4-target.png,1000,4.255,0,5146,997,meters,jsons/v1_VE1000_randls_56_rotated.json,967906,1164134,25,Man
57,802612,DepthScenes,duration_manipulation_targetAtFixation,jsons/v1_VE1000_randls_56_rotated.json,http://54.235.29.9/FacialAge/BNav_EC2/DepthDuration/v2_depth_duration_MTurk/v2_DepthDuration_HTML.html#119,119,1517,694,1366,768,8-22-2022,8-57-45,58,depth_duration_stimuli/000665_2014-06-09_20-42-35_260595134347_rgbf000110-resize_1/000665_2014-06-09_20-42-35_260595134347_rgbf000110-resize_1-target.png,1000,3.057,0,6294,996,meters,jsons/v1_VE1000_randls_56_rotated.json,967906,1164134,25,Man
58,802612,DepthScenes,duration_manipulation_targetAtFixation,jsons/v1_VE1000_randls_56_rotated.json,http://54.235.29.9/FacialAge/BNav_EC2/DepthDuration/v2_depth_duration_MTurk/v2_DepthDuration_HTML.html#119,119,1517,694,1366,768,8-22-2022,8-57-45,59,depth_duration_stimuli/001150_2014-06-17_15-27-34_260595134347_rgbf000108-resize_2/001150_2014-06-17_15-27-34_260595134347_rgbf000108-resize_2-target.png,1000,4.0325,0,4501,996,meters,jsons/v1_VE1000_randls_56_rotated.json,967906,1164134,25,Man
59,802612,DepthScenes,duration_manipulation_targetAtFixation,jsons/v1_VE1000_randls_56_rotated.json,http://54.235.29.9/FacialAge/BNav_EC2/DepthDuration/v2_depth_duration_MTurk/v2_DepthDuration_HTML.html#119,119,1517,694,1366,768,8-22-2022,8-57-45,60,depth_duration_stimuli/001650_2014-06-20_12-09-00_260595134347_rgbf000087-resize_3/001650_2014-06-20_12-09-00_260595134347_rgbf000087-resize_3-target.png,1000,1.9505,1,4789,989,meters,jsons/v1_VE1000_randls_56_rotated.json,967906,1164134,25,Man
60,802612,DepthScenes,duration_manipulation_targetAtFixation,jsons/v1_VE1000_randls_56_rotated.json,http://54.235.29.9/FacialAge/BNav_EC2/DepthDuration/v2_depth_duration_MTurk/v2_DepthDuration_HTML.html#119,119,1517,694,1366,768,8-22-2022,8-57-45,61,depth_duration_stimuli/000682_2014-06-08_23-14-58_260595134347_rgbf000041-resize_5/000682_2014-06-08_23-14-58_260595134347_rgbf000041-resize_5-target.png,1000,2.7239999999999998,0,68343,995,meters,jsons/v1_VE1000_randls_56_rotated.json,967906,1164134,25,Man
61,802612,DepthScenes,duration_manipulation_targetAtFixation,jsons/v1_VE1000_randls_56_rotated.json,http://54.235.29.9/FacialAge/BNav_EC2/DepthDuration/v2_depth_duration_MTurk/v2_DepthDuration_HTML.html#119,119,1517,694,1366,768,8-22-2022,8-57-45,62,depth_duration_stimuli/001136_2014-06-17_15-19-41_260595134347_rgbf000076-resize_3/001136_2014-06-17_15-19-41_260595134347_rgbf000076-resize_3-target.png,1000,1.8655,1,4549,998,meters,jsons/v1_VE1000_randls_56_rotated.json,967906,1164134,25,Man
62,802612,DepthScenes,duration_manipulation_targetAtFixation,jsons/v1_VE1000_randls_56_rotated.json,http://54.235.29.9/FacialAge/BNav_EC2/DepthDuration/v2_depth_duration_MTurk/v2_DepthDuration_HTML.html#119,119,1517,694,1366,768,8-22-2022,8-57-45,63,depth_duration_stimuli/001164_2014-06-17_15-35-46_260595134347_rgbf000085-resize_3/001164_2014-06-17_15-35-46_260595134347_rgbf000085-resize_3-target.png,1000,2.354,1,4829,1013,meters,jsons/v1_VE1000_randls_56_rotated.json,967906,1164134,25,Man
63,802612,DepthScenes,duration_manipulation_targetAtFixation,jsons/v1_VE1000_randls_56_rotated.json,http://54.235.29.9/FacialAge/BNav_EC2/DepthDuration/v2_depth_duration_MTurk/v2_DepthDuration_HTML.html#119,119,1517,694,1366,768,8-22-2022,8-57-45,64,depth_duration_stimuli/000635_2014-06-08_16-38-42_260595134347_rgbf000106-resize_1/000635_2014-06-08_16-38-42_260595134347_rgbf000106-resize_1-target.png,1000,2.074,1,4388,1012,meters,jsons/v1_VE1000_randls_56_rotated.json,967906,1164134,25,Man
64,802612,DepthScenes,duration_manipulation_targetAtFixation,jsons/v1_VE1000_randls_56_rotated.json,http://54.235.29.9/FacialAge/BNav_EC2/DepthDuration/v2_depth_duration_MTurk/v2_DepthDuration_HTML.html#119,119,1517,694,1366,768,8-22-2022,8-57-45,65,depth_duration_stimuli/002279_2014-06-28_18-55-32_260595134347_rgbf000040-resize_5/002279_2014-06-28_18-55-32_260595134347_rgbf000040-resize_5-target.png,1000,1.5043333333333,1,4667,1001,meters,jsons/v1_VE1000_randls_56_rotated.json,967906,1164134,25,Man
65,802612,DepthScenes,duration_manipulation_targetAtFixation,jsons/v1_VE1000_randls_56_rotated.json,http://54.235.29.9/FacialAge/BNav_EC2/DepthDuration/v2_depth_duration_MTurk/v2_DepthDuration_HTML.html#119,119,1517,694,1366,768,8-22-2022,8-57-45,66,depth_duration_stimuli/001540_2014-06-20_17-01-05_260595134347_rgbf000086-resize_2/001540_2014-06-20_17-01-05_260595134347_rgbf000086-resize-original.jpg,1000,1.459,0,4201,998,meters,jsons/v1_VE1000_randls_56_rotated.json,967906,1164134,25,Man
66,802612,DepthScenes,duration_manipulation_targetAtFixation,jsons/v1_VE1000_randls_56_rotated.json,http://54.235.29.9/FacialAge/BNav_EC2/DepthDuration/v2_depth_duration_MTurk/v2_DepthDuration_HTML.html#119,119,1517,694,1366,768,8-22-2022,8-57-45,67,depth_duration_stimuli/000866_2014-06-09_20-45-42_260595134347_rgbf000139-resize_1/000866_2014-06-09_20-45-42_260595134347_rgbf000139-resize_1-target.png,1000,3.2155,0,4642,1001,meters,jsons/v1_VE1000_randls_56_rotated.json,967906,1164134,25,Man
67,802612,DepthScenes,duration_manipulation_targetAtFixation,jsons/v1_VE1000_randls_56_rotated.json,http://54.235.29.9/FacialAge/BNav_EC2/DepthDuration/v2_depth_duration_MTurk/v2_DepthDuration_HTML.html#119,119,1517,694,1366,768,8-22-2022,8-57-45,68,depth_duration_stimuli/002989_2014-06-15_12-25-03_094959634447_rgbf000150-resize_3/002989_2014-06-15_12-25-03_094959634447_rgbf000150-resize_3-target.png,1000,4.1975,0,4219,996,meters,jsons/v1_VE1000_randls_56_rotated.json,967906,1164134,25,Man
68,802612,DepthScenes,duration_manipulation_targetAtFixation,jsons/v1_VE1000_randls_56_rotated.json,http://54.235.29.9/FacialAge/BNav_EC2/DepthDuration/v2_depth_duration_MTurk/v2_DepthDuration_HTML.html#119,119,1517,694,1366,768,8-22-2022,8-57-45,69,depth_duration_stimuli/000943_2014-06-09_19-31-07_260595134347_rgbf000128-resize_1/000943_2014-06-09_19-31-07_260595134347_rgbf000128-resize_1-target.png,1000,1.9765,1,4407,997,meters,jsons/v1_VE1000_randls_56_rotated.json,967906,1164134,25,Man
69,802612,DepthScenes,duration_manipulation_targetAtFixation,jsons/v1_VE1000_randls_56_rotated.json,http://54.235.29.9/FacialAge/BNav_EC2/DepthDuration/v2_depth_duration_MTurk/v2_DepthDuration_HTML.html#119,119,1517,694,1366,768,8-22-2022,8-57-45,70,depth_duration_stimuli/003070_2014-06-15_14-58-27_094959634447_rgbf000150-resize_3/003070_2014-06-15_14-58-27_094959634447_rgbf000150-resize_3-target.png,1000,2.9415,1,4121,1005,meters,jsons/v1_VE1000_randls_56_rotated.json,967906,1164134,25,Man
70,802612,DepthScenes,duration_manipulation_targetAtFixation,jsons/v1_VE1000_randls_56_rotated.json,http://54.235.29.9/FacialAge/BNav_EC2/DepthDuration/v2_depth_duration_MTurk/v2_DepthDuration_HTML.html#119,119,1517,694,1366,768,8-22-2022,8-57-45,71,depth_duration_stimuli/002875_2014-06-01_15-19-00_094959634447_rgbf000151-resize_1/002875_2014-06-01_15-19-00_094959634447_rgbf000151-resize_1-target.png,1000,1.9675,1,4467,1001,meters,jsons/v1_VE1000_randls_56_rotated.json,967906,1164134,25,Man
71,802612,DepthScenes,duration_manipulation_targetAtFixation,jsons/v1_VE1000_randls_56_rotated.json,http://54.235.29.9/FacialAge/BNav_EC2/DepthDuration/v2_depth_duration_MTurk/v2_DepthDuration_HTML.html#119,119,1517,694,1366,768,8-22-2022,8-57-45,72,depth_duration_stimuli/001011_2014-06-08_23-18-54_260595134347_rgbf000044-resize_4/001011_2014-06-08_23-18-54_260595134347_rgbf000044-resize_4-target.png,1000,2.4730000000000003,1,4248,1004,meters,jsons/v1_VE1000_randls_56_rotated.json,967906,1164134,25,Man
72,802612,DepthScenes,duration_manipulation_targetAtFixation,jsons/v1_VE1000_randls_56_rotated.json,http://54.235.29.9/FacialAge/BNav_EC2/DepthDuration/v2_depth_duration_MTurk/v2_DepthDuration_HTML.html#119,119,1517,694,1366,768,8-22-2022,8-57-45,73,depth_duration_stimuli/002995_2014-06-15_12-31-26_094959634447_rgbf000150-resize_1/002995_2014-06-15_12-31-26_094959634447_rgbf000150-resize_1-target.png,1000,3.8360000000000003,0,4908,1003,meters,jsons/v1_VE1000_randls_56_rotated.json,967906,1164134,25,Man
73,802612,DepthScenes,duration_manipulation_targetAtFixation,jsons/v1_VE1000_randls_56_rotated.json,http://54.235.29.9/FacialAge/BNav_EC2/DepthDuration/v2_depth_duration_MTurk/v2_DepthDuration_HTML.html#119,119,1517,694,1366,768,8-22-2022,8-57-45,74,depth_duration_stimuli/002748_2014-06-22_19-07-22_094959634447_rgbf000078-resize_1/002748_2014-06-22_19-07-22_094959634447_rgbf000078-resize_1-target.png,1000,4.6705,0,4419,995,meters,jsons/v1_VE1000_randls_56_rotated.json,967906,1164134,25,Man
74,802612,DepthScenes,duration_manipulation_targetAtFixation,jsons/v1_VE1000_randls_56_rotated.json,http://54.235.29.9/FacialAge/BNav_EC2/DepthDuration/v2_depth_duration_MTurk/v2_DepthDuration_HTML.html#119,119,1517,694,1366,768,8-22-2022,8-57-45,75,depth_duration_stimuli/002750_2014-06-22_19-08-03_094959634447_rgbf000094-resize_4/002750_2014-06-22_19-08-03_094959634447_rgbf000094-resize_4-target.png,1000,2.354,1,6497,993,meters,jsons/v1_VE1000_randls_56_rotated.json,967906,1164134,25,Man
75,802612,DepthScenes,duration_manipulation_targetAtFixation,jsons/v1_VE1000_randls_56_rotated.json,http://54.235.29.9/FacialAge/BNav_EC2/DepthDuration/v2_depth_duration_MTurk/v2_DepthDuration_HTML.html#119,119,1517,694,1366,768,8-22-2022,8-57-45,76,depth_duration_stimuli/002549_2014-06-24_13-41-39_094959634447_rgbf000022-resize_3/002549_2014-06-24_13-41-39_094959634447_rgbf000022-resize_3-target.png,1000,1.476,1,4285,1001,meters,jsons/v1_VE1000_randls_56_rotated.json,967906,1164134,25,Man
76,802612,DepthScenes,duration_manipulation_targetAtFixation,jsons/v1_VE1000_randls_56_rotated.json,http://54.235.29.9/FacialAge/BNav_EC2/DepthDuration/v2_depth_duration_MTurk/v2_DepthDuration_HTML.html#119,119,1517,694,1366,768,8-22-2022,8-57-45,77,depth_duration_stimuli/002199_2014-06-28_18-33-56_260595134347_rgbf000074-resize_0/002199_2014-06-28_18-33-56_260595134347_rgbf000074-resize_0-target.png,1000,1.996,1,4392,998,meters,jsons/v1_VE1000_randls_56_rotated.json,967906,1164134,25,Man
77,802612,DepthScenes,duration_manipulation_targetAtFixation,jsons/v1_VE1000_randls_56_rotated.json,http://54.235.29.9/FacialAge/BNav_EC2/DepthDuration/v2_depth_duration_MTurk/v2_DepthDuration_HTML.html#119,119,1517,694,1366,768,8-22-2022,8-57-45,78,depth_duration_stimuli/001056_2014-06-08_18-46-44_260595134347_rgbf000068-resize_0/001056_2014-06-08_18-46-44_260595134347_rgbf000068-resize_0-target.png,1000,2.6625,1,4336,994,meters,jsons/v1_VE1000_randls_56_rotated.json,967906,1164134,25,Man
78,802612,DepthScenes,duration_manipulation_targetAtFixation,jsons/v1_VE1000_randls_56_rotated.json,http://54.235.29.9/FacialAge/BNav_EC2/DepthDuration/v2_depth_duration_MTurk/v2_DepthDuration_HTML.html#119,119,1517,694,1366,768,8-22-2022,8-57-45,79,depth_duration_stimuli/001617_2014-06-20_11-35-32_260595134347_rgbf000066-resize_1/001617_2014-06-20_11-35-32_260595134347_rgbf000066-resize_1-target.png,1000,3.7910000000000004,0,4179,1009,meters,jsons/v1_VE1000_randls_56_rotated.json,967906,1164134,25,Man
79,802612,DepthScenes,duration_manipulation_targetAtFixation,jsons/v1_VE1000_randls_56_rotated.json,http://54.235.29.9/FacialAge/BNav_EC2/DepthDuration/v2_depth_duration_MTurk/v2_DepthDuration_HTML.html#119,119,1517,694,1366,768,8-22-2022,8-57-45,80,depth_duration_stimuli/001806_2014-06-26_20-50-20_260595134347_rgbf000091-resize_1/001806_2014-06-26_20-50-20_260595134347_rgbf000091-resize_1-target.png,1000,2.7305,1,4364,1002,meters,jsons/v1_VE1000_randls_56_rotated.json,967906,1164134,25,Man
80,802612,DepthScenes,duration_manipulation_targetAtFixation,jsons/v1_VE1000_randls_56_rotated.json,http://54.235.29.9/FacialAge/BNav_EC2/DepthDuration/v2_depth_duration_MTurk/v2_DepthDuration_HTML.html#119,119,1517,694,1366,768,8-22-2022,8-57-45,81,depth_duration_stimuli/002758_2014-06-22_19-11-20_094959634447_rgbf000128-resize_1/002758_2014-06-22_19-11-20_094959634447_rgbf000128-resize_1-target.png,1000,2.555,1,4223,1002,meters,jsons/v1_VE1000_randls_56_rotated.json,967906,1164134,25,Man
81,802612,DepthScenes,duration_manipulation_targetAtFixation,jsons/v1_VE1000_randls_56_rotated.json,http://54.235.29.9/FacialAge/BNav_EC2/DepthDuration/v2_depth_duration_MTurk/v2_DepthDuration_HTML.html#119,119,1517,694,1366,768,8-22-2022,8-57-45,82,depth_duration_stimuli/002630_2014-06-24_14-47-50_094959634447_rgbf000055-resize_1/002630_2014-06-24_14-47-50_094959634447_rgbf000055-resize_1-target.png,1000,3.0095,0,4102,995,meters,jsons/v1_VE1000_randls_56_rotated.json,967906,1164134,25,Man
82,802612,DepthScenes,duration_manipulation_targetAtFixation,jsons/v1_VE1000_randls_56_rotated.json,http://54.235.29.9/FacialAge/BNav_EC2/DepthDuration/v2_depth_duration_MTurk/v2_DepthDuration_HTML.html#119,119,1517,694,1366,768,8-22-2022,8-57-45,83,depth_duration_stimuli/000502_2014-06-08_23-02-32_260595134347_rgbf000063-resize_4/000502_2014-06-08_23-02-32_260595134347_rgbf000063-resize_4-target.png,1000,2.431,0,5010,991,meters,jsons/v1_VE1000_randls_56_rotated.json,967906,1164134,25,Man
83,802612,DepthScenes,duration_manipulation_targetAtFixation,jsons/v1_VE1000_randls_56_rotated.json,http://54.235.29.9/FacialAge/BNav_EC2/DepthDuration/v2_depth_duration_MTurk/v2_DepthDuration_HTML.html#119,119,1517,694,1366,768,8-22-2022,8-57-45,84,depth_duration_stimuli/001199_2014-06-17_16-03-48_260595134347_rgbf000077-resize_0/001199_2014-06-17_16-03-48_260595134347_rgbf000077-resize_0-target.png,1000,3.4375,0,3921,1004,meters,jsons/v1_VE1000_randls_56_rotated.json,967906,1164134,25,Man
84,802612,DepthScenes,duration_manipulation_targetAtFixation,jsons/v1_VE1000_randls_56_rotated.json,http://54.235.29.9/FacialAge/BNav_EC2/DepthDuration/v2_depth_duration_MTurk/v2_DepthDuration_HTML.html#119,119,1517,694,1366,768,8-22-2022,8-57-45,85,depth_duration_stimuli/000709_2014-06-08_13-51-55_260595134347_rgbf000068-resize_3/000709_2014-06-08_13-51-55_260595134347_rgbf000068-resize_3-target.png,1000,1.8030000000000002,1,5459,1000,meters,jsons/v1_VE1000_randls_56_rotated.json,967906,1164134,25,Man
85,802612,DepthScenes,duration_manipulation_targetAtFixation,jsons/v1_VE1000_randls_56_rotated.json,http://54.235.29.9/FacialAge/BNav_EC2/DepthDuration/v2_depth_duration_MTurk/v2_DepthDuration_HTML.html#119,119,1517,694,1366,768,8-22-2022,8-57-45,86,depth_duration_stimuli/002057_2014-06-24_21-00-13_260595134347_rgbf000120-resize_1/002057_2014-06-24_21-00-13_260595134347_rgbf000120-resize_1-target.png,1000,2.967,1,4506,1008,meters,jsons/v1_VE1000_randls_56_rotated.json,967906,1164134,25,Man
86,802612,DepthScenes,duration_manipulation_targetAtFixation,jsons/v1_VE1000_randls_56_rotated.json,http://54.235.29.9/FacialAge/BNav_EC2/DepthDuration/v2_depth_duration_MTurk/v2_DepthDuration_HTML.html#119,119,1517,694,1366,768,8-22-2022,8-57-45,87,depth_duration_stimuli/001132_2014-06-17_14-48-54_260595134347_rgbf000100-resize_2/001132_2014-06-17_14-48-54_260595134347_rgbf000100-resize_2-target.png,1000,3.753,1,4461,1007,meters,jsons/v1_VE1000_randls_56_rotated.json,967906,1164134,25,Man
87,802612,DepthScenes,duration_manipulation_targetAtFixation,jsons/v1_VE1000_randls_56_rotated.json,http://54.235.29.9/FacialAge/BNav_EC2/DepthDuration/v2_depth_duration_MTurk/v2_DepthDuration_HTML.html#119,119,1517,694,1366,768,8-22-2022,8-57-45,88,depth_duration_stimuli/001133_2014-06-17_14-49-16_260595134347_rgbf000100-resize_0/001133_2014-06-17_14-49-16_260595134347_rgbf000100-resize_0-target.png,1000,4.2115,1,4356,988,meters,jsons/v1_VE1000_randls_56_rotated.json,967906,1164134,25,Man
88,802612,DepthScenes,duration_manipulation_targetAtFixation,jsons/v1_VE1000_randls_56_rotated.json,http://54.235.29.9/FacialAge/BNav_EC2/DepthDuration/v2_depth_duration_MTurk/v2_DepthDuration_HTML.html#119,119,1517,694,1366,768,8-22-2022,8-57-45,89,depth_duration_stimuli/001235_2014-06-17_16-37-36_260595134347_rgbf000084-resize_4/001235_2014-06-17_16-37-36_260595134347_rgbf000084-resize_4-target.png,1000,3.6605,1,4662,989,meters,jsons/v1_VE1000_randls_56_rotated.json,967906,1164134,25,Man
89,802612,DepthScenes,duration_manipulation_targetAtFixation,jsons/v1_VE1000_randls_56_rotated.json,http://54.235.29.9/FacialAge/BNav_EC2/DepthDuration/v2_depth_duration_MTurk/v2_DepthDuration_HTML.html#119,119,1517,694,1366,768,8-22-2022,8-57-45,90,depth_duration_stimuli/000788_2014-06-08_22-34-36_260595134347_rgbf000131-resize_1/000788_2014-06-08_22-34-36_260595134347_rgbf000131-resize_1-target.png,1000,3.359,1,4207,991,meters,jsons/v1_VE1000_randls_56_rotated.json,967906,1164134,25,Man
90,802612,DepthScenes,duration_manipulation_targetAtFixation,jsons/v1_VE1000_randls_56_rotated.json,http://54.235.29.9/FacialAge/BNav_EC2/DepthDuration/v2_depth_duration_MTurk/v2_DepthDuration_HTML.html#119,119,1517,694,1366,768,8-22-2022,8-57-45,91,depth_duration_stimuli/003083_2014-06-15_15-21-03_094959634447_rgbf000063-resize_1/003083_2014-06-15_15-21-03_094959634447_rgbf000063-resize_1-target.png,1000,4.1405,0,4879,995,meters,jsons/v1_VE1000_randls_56_rotated.json,967906,1164134,25,Man
91,802612,DepthScenes,duration_manipulation_targetAtFixation,jsons/v1_VE1000_randls_56_rotated.json,http://54.235.29.9/FacialAge/BNav_EC2/DepthDuration/v2_depth_duration_MTurk/v2_DepthDuration_HTML.html#119,119,1517,694,1366,768,8-22-2022,8-57-45,92,depth_duration_stimuli/000486_2014-06-09_20-47-20_260595134347_rgbf000143-resize_2/000486_2014-06-09_20-47-20_260595134347_rgbf000143-resize_2-target.png,1000,4.8325,0,4404,991,meters,jsons/v1_VE1000_randls_56_rotated.json,967906,1164134,25,Man
92,802612,DepthScenes,duration_manipulation_targetAtFixation,jsons/v1_VE1000_randls_56_rotated.json,http://54.235.29.9/FacialAge/BNav_EC2/DepthDuration/v2_depth_duration_MTurk/v2_DepthDuration_HTML.html#119,119,1517,694,1366,768,8-22-2022,8-57-45,93,depth_duration_stimuli/001516_2014-06-20_16-25-09_260595134347_rgbf000076-resize_2/001516_2014-06-20_16-25-09_260595134347_rgbf000076-resize_2-target.png,1000,1.7445,0,4040,995,meters,jsons/v1_VE1000_randls_56_rotated.json,967906,1164134,25,Man
93,802612,DepthScenes,duration_manipulation_targetAtFixation,jsons/v1_VE1000_randls_56_rotated.json,http://54.235.29.9/FacialAge/BNav_EC2/DepthDuration/v2_depth_duration_MTurk/v2_DepthDuration_HTML.html#119,119,1517,694,1366,768,8-22-2022,8-57-45,94,depth_duration_stimuli/002118_2014-06-25_20-32-08_260595134347_rgbf000078-resize_1/002118_2014-06-25_20-32-08_260595134347_rgbf000078-resize_1-target.png,1000,2.6460000000000004,1,6516,990,meters,jsons/v1_VE1000_randls_56_rotated.json,967906,1164134,25,Man
94,802612,DepthScenes,duration_manipulation_targetAtFixation,jsons/v1_VE1000_randls_56_rotated.json,http://54.235.29.9/FacialAge/BNav_EC2/DepthDuration/v2_depth_duration_MTurk/v2_DepthDuration_HTML.html#119,119,1517,694,1366,768,8-22-2022,8-57-45,95,depth_duration_stimuli/002425_2014-06-28_20-27-29_260595134347_rgbf000031-resize_8/002425_2014-06-28_20-27-29_260595134347_rgbf000031-resize_8-target.png,1000,3.8960000000000004,0,5687,1004,meters,jsons/v1_VE1000_randls_56_rotated.json,967906,1164134,25,Man
95,802612,DepthScenes,duration_manipulation_targetAtFixation,jsons/v1_VE1000_randls_56_rotated.json,http://54.235.29.9/FacialAge/BNav_EC2/DepthDuration/v2_depth_duration_MTurk/v2_DepthDuration_HTML.html#119,119,1517,694,1366,768,8-22-2022,8-57-45,96,depth_duration_stimuli/000642_2014-06-08_16-59-25_260595134347_rgbf000098-resize_2/000642_2014-06-08_16-59-25_260595134347_rgbf000098-resize_2-target.png,1000,2.8815,1,4440,994,meters,jsons/v1_VE1000_randls_56_rotated.json,967906,1164134,25,Man
96,802612,DepthScenes,duration_manipulation_targetAtFixation,jsons/v1_VE1000_randls_56_rotated.json,http://54.235.29.9/FacialAge/BNav_EC2/DepthDuration/v2_depth_duration_MTurk/v2_DepthDuration_HTML.html#119,119,1517,694,1366,768,8-22-2022,8-57-45,97,depth_duration_stimuli/000483_2014-06-09_20-41-45_260595134347_rgbf000116-resize_4/000483_2014-06-09_20-41-45_260595134347_rgbf000116-resize_4-target.png,1000,1.337,1,4211,992,meters,jsons/v1_VE1000_randls_56_rotated.json,967906,1164134,25,Man
97,802612,DepthScenes,duration_manipulation_targetAtFixation,jsons/v1_VE1000_randls_56_rotated.json,http://54.235.29.9/FacialAge/BNav_EC2/DepthDuration/v2_depth_duration_MTurk/v2_DepthDuration_HTML.html#119,119,1517,694,1366,768,8-22-2022,8-57-45,98,depth_duration_stimuli/000469_2014-06-09_19-42-10_260595134347_rgbf000081-resize_1/000469_2014-06-09_19-42-10_260595134347_rgbf000081-resize_1-target.png,1000,1.652,1,4545,1005,meters,jsons/v1_VE1000_randls_56_rotated.json,967906,1164134,25,Man
98,802612,DepthScenes,duration_manipulation_targetAtFixation,jsons/v1_VE1000_randls_56_rotated.json,http://54.235.29.9/FacialAge/BNav_EC2/DepthDuration/v2_depth_duration_MTurk/v2_DepthDuration_HTML.html#119,119,1517,694,1366,768,8-22-2022,8-57-45,99,depth_duration_stimuli/001222_2014-06-17_16-24-06_260595134347_rgbf000073-resize_0/001222_2014-06-17_16-24-06_260595134347_rgbf000073-resize-original.jpg,1000,1.4385,1,4581,996,meters,jsons/v1_VE1000_randls_56_rotated.json,967906,1164134,25,Man
99,802612,DepthScenes,duration_manipulation_targetAtFixation,jsons/v1_VE1000_randls_56_rotated.json,http://54.235.29.9/FacialAge/BNav_EC2/DepthDuration/v2_depth_duration_MTurk/v2_DepthDuration_HTML.html#119,119,1517,694,1366,768,8-22-2022,8-57-45,100,depth_duration_stimuli/000691_2014-06-08_13-08-50_260595134347_rgbf000132-resize_3/000691_2014-06-08_13-08-50_260595134347_rgbf000132-resize_3-target.png,1000,4.1530000000000005,0,5229,1004,meters,jsons/v1_VE1000_randls_56_rotated.json,967906,1164134,25,Man
100,802612,DepthScenes,duration_manipulation_targetAtFixation,jsons/v1_VE1000_randls_56_rotated.json,http://54.235.29.9/FacialAge/BNav_EC2/DepthDuration/v2_depth_duration_MTurk/v2_DepthDuration_HTML.html#119,119,1517,694,1366,768,8-22-2022,8-57-45,101,depth_duration_stimuli/002213_2014-06-28_18-37-58_260595134347_rgbf000055-resize_1/002213_2014-06-28_18-37-58_260595134347_rgbf000055-resize_1-target.png,1000,3.62,0,4311,999,meters,jsons/v1_VE1000_randls_56_rotated.json,967906,1164134,25,Man
101,802612,DepthScenes,duration_manipulation_targetAtFixation,jsons/v1_VE1000_randls_56_rotated.json,http://54.235.29.9/FacialAge/BNav_EC2/DepthDuration/v2_depth_duration_MTurk/v2_DepthDuration_HTML.html#119,119,1517,694,1366,768,8-22-2022,8-57-45,102,depth_duration_stimuli/002657_2014-06-13_15-29-54_094959634447_rgbf000150-resize_1/002657_2014-06-13_15-29-54_094959634447_rgbf000150-resize_1-target.png,1000,4.919,1,9150,999,meters,jsons/v1_VE1000_randls_56_rotated.json,967906,1164134,25,Man
102,802612,DepthScenes,duration_manipulation_targetAtFixation,jsons/v1_VE1000_randls_56_rotated.json,http://54.235.29.9/FacialAge/BNav_EC2/DepthDuration/v2_depth_duration_MTurk/v2_DepthDuration_HTML.html#119,119,1517,694,1366,768,8-22-2022,8-57-45,103,depth_duration_stimuli/002375_2014-06-28_20-13-44_260595134347_rgbf000032-resize_1/002375_2014-06-28_20-13-44_260595134347_rgbf000032-resize_1-target.png,1000,4.0175,1,4069,999,meters,jsons/v1_VE1000_randls_56_rotated.json,967906,1164134,25,Man
103,802612,DepthScenes,duration_manipulation_targetAtFixation,jsons/v1_VE1000_randls_56_rotated.json,http://54.235.29.9/FacialAge/BNav_EC2/DepthDuration/v2_depth_duration_MTurk/v2_DepthDuration_HTML.html#119,119,1517,694,1366,768,8-22-2022,8-57-45,104,depth_duration_stimuli/000927_2014-06-09_16-32-30_260595134347_rgbf000123-resize_3/000927_2014-06-09_16-32-30_260595134347_rgbf000123-resize_3-target.png,1000,2.6785,0,5015,999,meters,jsons/v1_VE1000_randls_56_rotated.json,967906,1164134,25,Man
104,802612,DepthScenes,duration_manipulation_targetAtFixation,jsons/v1_VE1000_randls_56_rotated.json,http://54.235.29.9/FacialAge/BNav_EC2/DepthDuration/v2_depth_duration_MTurk/v2_DepthDuration_HTML.html#119,119,1517,694,1366,768,8-22-2022,8-57-45,105,depth_duration_stimuli/001110_2014-06-15_17-25-28_260595134347_rgbf000150-resize_1/001110_2014-06-15_17-25-28_260595134347_rgbf000150-resize_1-target.png,1000,1.7115,1,5350,995,meters,jsons/v1_VE1000_randls_56_rotated.json,967906,1164134,25,Man
105,802612,DepthScenes,duration_manipulation_targetAtFixation,jsons/v1_VE1000_randls_56_rotated.json,http://54.235.29.9/FacialAge/BNav_EC2/DepthDuration/v2_depth_duration_MTurk/v2_DepthDuration_HTML.html#119,119,1517,694,1366,768,8-22-2022,8-57-45,106,depth_duration_stimuli/001447_2014-06-19_17-00-32_260595134347_rgbf000082-resize_5/001447_2014-06-19_17-00-32_260595134347_rgbf000082-resize_5-target.png,1000,4.13775,1,4698,1013,meters,jsons/v1_VE1000_randls_56_rotated.json,967906,1164134,25,Man
106,802612,DepthScenes,duration_manipulation_targetAtFixation,jsons/v1_VE1000_randls_56_rotated.json,http://54.235.29.9/FacialAge/BNav_EC2/DepthDuration/v2_depth_duration_MTurk/v2_DepthDuration_HTML.html#119,119,1517,694,1366,768,8-22-2022,8-57-45,107,depth_duration_stimuli/000447_2014-06-08_16-15-46_260595134347_rgbf000130-resize_1/000447_2014-06-08_16-15-46_260595134347_rgbf000130-resize_1-target.png,1000,4.479,0,4664,1000,meters,jsons/v1_VE1000_randls_56_rotated.json,967906,1164134,25,Man
107,802612,DepthScenes,duration_manipulation_targetAtFixation,jsons/v1_VE1000_randls_56_rotated.json,http://54.235.29.9/FacialAge/BNav_EC2/DepthDuration/v2_depth_duration_MTurk/v2_DepthDuration_HTML.html#119,119,1517,694,1366,768,8-22-2022,8-57-45,108,depth_duration_stimuli/000854_2014-06-09_19-43-13_260595134347_rgbf000066-resize_0/000854_2014-06-09_19-43-13_260595134347_rgbf000066-resize_0-target.png,1000,3.068,1,4508,996,meters,jsons/v1_VE1000_randls_56_rotated.json,967906,1164134,25,Man
108,802612,DepthScenes,duration_manipulation_targetAtFixation,jsons/v1_VE1000_randls_56_rotated.json,http://54.235.29.9/FacialAge/BNav_EC2/DepthDuration/v2_depth_duration_MTurk/v2_DepthDuration_HTML.html#119,119,1517,694,1366,768,8-22-2022,8-57-45,109,depth_duration_stimuli/000758_2014-06-08_22-05-08_260595134347_rgbf000085-resize_0/000758_2014-06-08_22-05-08_260595134347_rgbf000085-resize_0-target.png,1000,3.3810000000000002,0,4331,1000,meters,jsons/v1_VE1000_randls_56_rotated.json,967906,1164134,25,Man
109,802612,DepthScenes,duration_manipulation_targetAtFixation,jsons/v1_VE1000_randls_56_rotated.json,http://54.235.29.9/FacialAge/BNav_EC2/DepthDuration/v2_depth_duration_MTurk/v2_DepthDuration_HTML.html#119,119,1517,694,1366,768,8-22-2022,8-57-45,110,depth_duration_stimuli/000780_2014-06-08_22-28-29_260595134347_rgbf000126-resize_1/000780_2014-06-08_22-28-29_260595134347_rgbf000126-resize_1-target.png,1000,3.3825,0,5129,1009,meters,jsons/v1_VE1000_randls_56_rotated.json,967906,1164134,25,Man
110,802612,DepthScenes,duration_manipulation_targetAtFixation,jsons/v1_VE1000_randls_56_rotated.json,http://54.235.29.9/FacialAge/BNav_EC2/DepthDuration/v2_depth_duration_MTurk/v2_DepthDuration_HTML.html#119,119,1517,694,1366,768,8-22-2022,8-57-45,111,depth_duration_stimuli/002445_2014-06-28_20-32-16_260595134347_rgbf000029-resize_4/002445_2014-06-28_20-32-16_260595134347_rgbf000029-resize_4-target.png,1000,2.5315,1,5829,1004,meters,jsons/v1_VE1000_randls_56_rotated.json,967906,1164134,25,Man
111,802612,DepthScenes,duration_manipulation_targetAtFixation,jsons/v1_VE1000_randls_56_rotated.json,http://54.235.29.9/FacialAge/BNav_EC2/DepthDuration/v2_depth_duration_MTurk/v2_DepthDuration_HTML.html#119,119,1517,694,1366,768,8-22-2022,8-57-45,112,depth_duration_stimuli/001032_2014-06-08_13-23-17_260595134347_rgbf000021-resize_3/001032_2014-06-08_13-23-17_260595134347_rgbf000021-resize_3-target.png,1000,3.2725,0,6502,1007,meters,jsons/v1_VE1000_randls_56_rotated.json,967906,1164134,25,Man
112,802612,DepthScenes,duration_manipulation_targetAtFixation,jsons/v1_VE1000_randls_56_rotated.json,http://54.235.29.9/FacialAge/BNav_EC2/DepthDuration/v2_depth_duration_MTurk/v2_DepthDuration_HTML.html#119,119,1517,694,1366,768,8-22-2022,8-57-45,113,depth_duration_stimuli/001059_2014-06-08_21-53-27_260595134347_rgbf000061-resize_4/001059_2014-06-08_21-53-27_260595134347_rgbf000061-resize_4-target.png,1000,2.4185,0,4193,1011,meters,jsons/v1_VE1000_randls_56_rotated.json,967906,1164134,25,Man
113,802612,DepthScenes,duration_manipulation_targetAtFixation,jsons/v1_VE1000_randls_56_rotated.json,http://54.235.29.9/FacialAge/BNav_EC2/DepthDuration/v2_depth_duration_MTurk/v2_DepthDuration_HTML.html#119,119,1517,694,1366,768,8-22-2022,8-57-45,114,depth_duration_stimuli/003587_2014-05-23_16-48-02_094959634447_rgbf002384-resize_2/003587_2014-05-23_16-48-02_094959634447_rgbf002384-resize_2-target.png,1000,1.357,1,4290,1008,meters,jsons/v1_VE1000_randls_56_rotated.json,967906,1164134,25,Man
114,802612,DepthScenes,duration_manipulation_targetAtFixation,jsons/v1_VE1000_randls_56_rotated.json,http://54.235.29.9/FacialAge/BNav_EC2/DepthDuration/v2_depth_duration_MTurk/v2_DepthDuration_HTML.html#119,119,1517,694,1366,768,8-22-2022,8-57-45,115,depth_duration_stimuli/001167_2014-06-17_15-38-07_260595134347_rgbf000108-resize_0/001167_2014-06-17_15-38-07_260595134347_rgbf000108-resize_0-target.png,1000,1.8505,1,4133,997,meters,jsons/v1_VE1000_randls_56_rotated.json,967906,1164134,25,Man
115,802612,DepthScenes,duration_manipulation_targetAtFixation,jsons/v1_VE1000_randls_56_rotated.json,http://54.235.29.9/FacialAge/BNav_EC2/DepthDuration/v2_depth_duration_MTurk/v2_DepthDuration_HTML.html#119,119,1517,694,1366,768,8-22-2022,8-57-45,116,depth_duration_stimuli/000457_2014-06-08_16-52-43_260595134347_rgbf000199-resize_1/000457_2014-06-08_16-52-43_260595134347_rgbf000199-resize_1-target.png,1000,3.6489999999999996,0,4538,991,meters,jsons/v1_VE1000_randls_56_rotated.json,967906,1164134,25,Man
116,802612,DepthScenes,duration_manipulation_targetAtFixation,jsons/v1_VE1000_randls_56_rotated.json,http://54.235.29.9/FacialAge/BNav_EC2/DepthDuration/v2_depth_duration_MTurk/v2_DepthDuration_HTML.html#119,119,1517,694,1366,768,8-22-2022,8-57-45,117,depth_duration_stimuli/000929_2014-06-09_16-33-19_260595134347_rgbf000139-resize_0/000929_2014-06-09_16-33-19_260595134347_rgbf000139-resize_0-target.png,1000,2.8680000000000003,1,6208,1003,meters,jsons/v1_VE1000_randls_56_rotated.json,967906,1164134,25,Man
117,802612,DepthScenes,duration_manipulation_targetAtFixation,jsons/v1_VE1000_randls_56_rotated.json,http://54.235.29.9/FacialAge/BNav_EC2/DepthDuration/v2_depth_duration_MTurk/v2_DepthDuration_HTML.html#119,119,1517,694,1366,768,8-22-2022,8-57-45,118,depth_duration_stimuli/002660_2014-06-13_15-44-18_094959634447_rgbf001878-resize_2/002660_2014-06-13_15-44-18_094959634447_rgbf001878-resize_2-target.png,1000,3.576,1,4489,987,meters,jsons/v1_VE1000_randls_56_rotated.json,967906,1164134,25,Man
118,802612,DepthScenes,duration_manipulation_targetAtFixation,jsons/v1_VE1000_randls_56_rotated.json,http://54.235.29.9/FacialAge/BNav_EC2/DepthDuration/v2_depth_duration_MTurk/v2_DepthDuration_HTML.html#119,119,1517,694,1366,768,8-22-2022,8-57-45,119,depth_duration_stimuli/002153_2014-06-25_21-27-18_260595134347_rgbf000038-resize_5/002153_2014-06-25_21-27-18_260595134347_rgbf000038-resize_5-target.png,1000,2.505,1,4135,993,meters,jsons/v1_VE1000_randls_56_rotated.json,967906,1164134,25,Man
119,802612,DepthScenes,duration_manipulation_targetAtFixation,jsons/v1_VE1000_randls_56_rotated.json,http://54.235.29.9/FacialAge/BNav_EC2/DepthDuration/v2_depth_duration_MTurk/v2_DepthDuration_HTML.html#119,119,1517,694,1366,768,8-22-2022,8-57-45,120,depth_duration_stimuli/000787_2014-06-08_22-33-53_260595134347_rgbf000175-resize_1/000787_2014-06-08_22-33-53_260595134347_rgbf000175-resize-original.jpg,1000,4.784,0,3928,990,meters,jsons/v1_VE1000_randls_56_rotated.json,967906,1164134,25,Man
120,802612,DepthScenes,duration_manipulation_targetAtFixation,jsons/v1_VE1000_randls_56_rotated.json,http://54.235.29.9/FacialAge/BNav_EC2/DepthDuration/v2_depth_duration_MTurk/v2_DepthDuration_HTML.html#119,119,1517,694,1366,768,8-22-2022,8-57-45,121,depth_duration_stimuli/002953_2014-06-08_17-32-18_094959634447_rgbf000059-resize_5/002953_2014-06-08_17-32-18_094959634447_rgbf000059-resize_5-target.png,1000,1.551,1,4279,1000,meters,jsons/v1_VE1000_randls_56_rotated.json,967906,1164134,25,Man
121,802612,DepthScenes,duration_manipulation_targetAtFixation,jsons/v1_VE1000_randls_56_rotated.json,http://54.235.29.9/FacialAge/BNav_EC2/DepthDuration/v2_depth_duration_MTurk/v2_DepthDuration_HTML.html#119,119,1517,694,1366,768,8-22-2022,8-57-45,122,depth_duration_stimuli/000878_2014-06-08_22-52-45_260595134347_rgbf000045-resize_2/000878_2014-06-08_22-52-45_260595134347_rgbf000045-resize_2-target.png,1000,2.092,0,4163,1001,meters,jsons/v1_VE1000_randls_56_rotated.json,967906,1164134,25,Man
122,802612,DepthScenes,duration_manipulation_targetAtFixation,jsons/v1_VE1000_randls_56_rotated.json,http://54.235.29.9/FacialAge/BNav_EC2/DepthDuration/v2_depth_duration_MTurk/v2_DepthDuration_HTML.html#119,119,1517,694,1366,768,8-22-2022,8-57-45,123,depth_duration_stimuli/003423_2014-05-21_10-23-26_094959634447_rgbf002665-resize_2/003423_2014-05-21_10-23-26_094959634447_rgbf002665-resize_2-target.png,1000,3.2575,1,4092,1002,meters,jsons/v1_VE1000_randls_56_rotated.json,967906,1164134,25,Man
123,802612,DepthScenes,duration_manipulation_targetAtFixation,jsons/v1_VE1000_randls_56_rotated.json,http://54.235.29.9/FacialAge/BNav_EC2/DepthDuration/v2_depth_duration_MTurk/v2_DepthDuration_HTML.html#119,119,1517,694,1366,768,8-22-2022,8-57-45,124,depth_duration_stimuli/002905_2014-06-03_18-04-43_094959634447_rgbf000151-resize_2/002905_2014-06-03_18-04-43_094959634447_rgbf000151-resize_2-target.png,1000,2.0295,1,4331,1014,meters,jsons/v1_VE1000_randls_56_rotated.json,967906,1164134,25,Man
124,802612,DepthScenes,duration_manipulation_targetAtFixation,jsons/v1_VE1000_randls_56_rotated.json,http://54.235.29.9/FacialAge/BNav_EC2/DepthDuration/v2_depth_duration_MTurk/v2_DepthDuration_HTML.html#119,119,1517,694,1366,768,8-22-2022,8-57-45,125,depth_duration_stimuli/000191_2014-05-12_17-07-38_260595134347_rgbf000199-resize_0/000191_2014-05-12_17-07-38_260595134347_rgbf000199-resize_0-target.png,1000,3.7995,0,4633,1000,meters,jsons/v1_VE1000_randls_56_rotated.json,967906,1164134,25,Man
125,802612,DepthScenes,duration_manipulation_targetAtFixation,jsons/v1_VE1000_randls_56_rotated.json,http://54.235.29.9/FacialAge/BNav_EC2/DepthDuration/v2_depth_duration_MTurk/v2_DepthDuration_HTML.html#119,119,1517,694,1366,768,8-22-2022,8-57-45,126,depth_duration_stimuli/000493_2014-06-09_21-01-18_260595134347_rgbf000196-resize_3/000493_2014-06-09_21-01-18_260595134347_rgbf000196-resize_3-target.png,1000,3.44,0,4293,1008,meters,jsons/v1_VE1000_randls_56_rotated.json,967906,1164134,25,Man
126,802612,DepthScenes,duration_manipulation_targetAtFixation,jsons/v1_VE1000_randls_56_rotated.json,http://54.235.29.9/FacialAge/BNav_EC2/DepthDuration/v2_depth_duration_MTurk/v2_DepthDuration_HTML.html#119,119,1517,694,1366,768,8-22-2022,8-57-45,127,depth_duration_stimuli/001571_2014-06-20_17-21-32_260595134347_rgbf000089-resize_1/001571_2014-06-20_17-21-32_260595134347_rgbf000089-resize_1-target.png,1000,1.86,1,4832,1000,meters,jsons/v1_VE1000_randls_56_rotated.json,967906,1164134,25,Man
127,802612,DepthScenes,duration_manipulation_targetAtFixation,jsons/v1_VE1000_randls_56_rotated.json,http://54.235.29.9/FacialAge/BNav_EC2/DepthDuration/v2_depth_duration_MTurk/v2_DepthDuration_HTML.html#119,119,1517,694,1366,768,8-22-2022,8-57-45,128,depth_duration_stimuli/002272_2014-06-28_18-53-56_260595134347_rgbf000067-resize_2/002272_2014-06-28_18-53-56_260595134347_rgbf000067-resize_2-target.png,1000,1.138,1,5629,1003,meters,jsons/v1_VE1000_randls_56_rotated.json,967906,1164134,25,Man
128,802612,DepthScenes,duration_manipulation_targetAtFixation,jsons/v1_VE1000_randls_56_rotated.json,http://54.235.29.9/FacialAge/BNav_EC2/DepthDuration/v2_depth_duration_MTurk/v2_DepthDuration_HTML.html#119,119,1517,694,1366,768,8-22-2022,8-57-45,129,depth_duration_stimuli/002568_2014-06-24_13-59-21_094959634447_rgbf000062-resize_4/002568_2014-06-24_13-59-21_094959634447_rgbf000062-resize_4-target.png,1000,3.015,1,6512,998,meters,jsons/v1_VE1000_randls_56_rotated.json,967906,1164134,25,Man
129,802612,DepthScenes,duration_manipulation_targetAtFixation,jsons/v1_VE1000_randls_56_rotated.json,http://54.235.29.9/FacialAge/BNav_EC2/DepthDuration/v2_depth_duration_MTurk/v2_DepthDuration_HTML.html#119,119,1517,694,1366,768,8-22-2022,8-57-45,130,depth_duration_stimuli/003492_2014-05-21_15-50-55_094959634447_rgbf000828-resize_1/003492_2014-05-21_15-50-55_094959634447_rgbf000828-resize_1-target.png,1000,4.06875,1,4827,1010,meters,jsons/v1_VE1000_randls_56_rotated.json,967906,1164134,25,Man
130,802612,DepthScenes,duration_manipulation_targetAtFixation,jsons/v1_VE1000_randls_56_rotated.json,http://54.235.29.9/FacialAge/BNav_EC2/DepthDuration/v2_depth_duration_MTurk/v2_DepthDuration_HTML.html#119,119,1517,694,1366,768,8-22-2022,8-57-45,131,depth_duration_stimuli/000549_2014-06-08_22-10-24_260595134347_rgbf000247-resize_3/000549_2014-06-08_22-10-24_260595134347_rgbf000247-resize_3-target.png,1000,1.841,1,4390,1000,meters,jsons/v1_VE1000_randls_56_rotated.json,967906,1164134,25,Man
131,802612,DepthScenes,duration_manipulation_targetAtFixation,jsons/v1_VE1000_randls_56_rotated.json,http://54.235.29.9/FacialAge/BNav_EC2/DepthDuration/v2_depth_duration_MTurk/v2_DepthDuration_HTML.html#119,119,1517,694,1366,768,8-22-2022,8-57-45,132,depth_duration_stimuli/001055_2014-06-08_18-45-35_260595134347_rgbf000111-resize_4/001055_2014-06-08_18-45-35_260595134347_rgbf000111-resize_4-target.png,1000,2.4290000000000003,0,3993,1002,meters,jsons/v1_VE1000_randls_56_rotated.json,967906,1164134,25,Man
132,802612,DepthScenes,duration_manipulation_targetAtFixation,jsons/v1_VE1000_randls_56_rotated.json,http://54.235.29.9/FacialAge/BNav_EC2/DepthDuration/v2_depth_duration_MTurk/v2_DepthDuration_HTML.html#119,119,1517,694,1366,768,8-22-2022,8-57-45,133,depth_duration_stimuli/002323_2014-06-28_20-01-54_260595134347_rgbf000051-resize_4/002323_2014-06-28_20-01-54_260595134347_rgbf000051-resize_4-target.png,1000,3.7310000000000003,0,5157,1001,meters,jsons/v1_VE1000_randls_56_rotated.json,967906,1164134,25,Man
133,802612,DepthScenes,duration_manipulation_targetAtFixation,jsons/v1_VE1000_randls_56_rotated.json,http://54.235.29.9/FacialAge/BNav_EC2/DepthDuration/v2_depth_duration_MTurk/v2_DepthDuration_HTML.html#119,119,1517,694,1366,768,8-22-2022,8-57-45,134,depth_duration_stimuli/000917_2014-06-09_22-45-29_260595134347_rgbf000149-resize_3/000917_2014-06-09_22-45-29_260595134347_rgbf000149-resize_3-target.png,1000,4.1865,0,3817,999,meters,jsons/v1_VE1000_randls_56_rotated.json,967906,1164134,25,Man
134,802612,DepthScenes,duration_manipulation_targetAtFixation,jsons/v1_VE1000_randls_56_rotated.json,http://54.235.29.9/FacialAge/BNav_EC2/DepthDuration/v2_depth_duration_MTurk/v2_DepthDuration_HTML.html#119,119,1517,694,1366,768,8-22-2022,8-57-45,135,depth_duration_stimuli/000375_2014-06-08_11-17-29_260595134347_rgbf000133-resize_2/000375_2014-06-08_11-17-29_260595134347_rgbf000133-resize-original.jpg,1000,4.718,0,4217,991,meters,jsons/v1_VE1000_randls_56_rotated.json,967906,1164134,25,Man
135,802612,DepthScenes,duration_manipulation_targetAtFixation,jsons/v1_VE1000_randls_56_rotated.json,http://54.235.29.9/FacialAge/BNav_EC2/DepthDuration/v2_depth_duration_MTurk/v2_DepthDuration_HTML.html#119,119,1517,694,1366,768,8-22-2022,8-57-45,136,depth_duration_stimuli/001828_2014-06-26_21-40-03_260595134347_rgbf000024-resize_0/001828_2014-06-26_21-40-03_260595134347_rgbf000024-resize_0-target.png,1000,4.8260000000000005,0,4278,1012,meters,jsons/v1_VE1000_randls_56_rotated.json,967906,1164134,25,Man
136,802612,DepthScenes,duration_manipulation_targetAtFixation,jsons/v1_VE1000_randls_56_rotated.json,http://54.235.29.9/FacialAge/BNav_EC2/DepthDuration/v2_depth_duration_MTurk/v2_DepthDuration_HTML.html#119,119,1517,694,1366,768,8-22-2022,8-57-45,137,depth_duration_stimuli/000009_2014-05-26_14-32-05_260595134347_rgbf000034-resize_3/000009_2014-05-26_14-32-05_260595134347_rgbf000034-resize_3-target.png,1000,3.8715,0,4250,991,meters,jsons/v1_VE1000_randls_56_rotated.json,967906,1164134,25,Man
137,802612,DepthScenes,duration_manipulation_targetAtFixation,jsons/v1_VE1000_randls_56_rotated.json,http://54.235.29.9/FacialAge/BNav_EC2/DepthDuration/v2_depth_duration_MTurk/v2_DepthDuration_HTML.html#119,119,1517,694,1366,768,8-22-2022,8-57-45,138,depth_duration_stimuli/001100_2014-06-15_17-46-26_260595134347_rgbf000225-resize_2/001100_2014-06-15_17-46-26_260595134347_rgbf000225-resize_2-target.png,1000,2.24,1,4561,1001,meters,jsons/v1_VE1000_randls_56_rotated.json,967906,1164134,25,Man
138,802612,DepthScenes,duration_manipulation_targetAtFixation,jsons/v1_VE1000_randls_56_rotated.json,http://54.235.29.9/FacialAge/BNav_EC2/DepthDuration/v2_depth_duration_MTurk/v2_DepthDuration_HTML.html#119,119,1517,694,1366,768,8-22-2022,8-57-45,139,depth_duration_stimuli/002784_2014-06-22_19-26-30_094959634447_rgbf000083-resize_3/002784_2014-06-22_19-26-30_094959634447_rgbf000083-resize_3-target.png,1000,1.8046666666667,0,6743,1001,meters,jsons/v1_VE1000_randls_56_rotated.json,967906,1164134,25,Man
139,802612,DepthScenes,duration_manipulation_targetAtFixation,jsons/v1_VE1000_randls_56_rotated.json,http://54.235.29.9/FacialAge/BNav_EC2/DepthDuration/v2_depth_duration_MTurk/v2_DepthDuration_HTML.html#119,119,1517,694,1366,768,8-22-2022,8-57-45,140,depth_duration_stimuli/002103_2014-06-25_20-00-40_260595134347_rgbf000049-resize_0/002103_2014-06-25_20-00-40_260595134347_rgbf000049-resize_0-target.png,1000,4.105,0,7732,996,meters,jsons/v1_VE1000_randls_56_rotated.json,967906,1164134,25,Man
140,802612,DepthScenes,duration_manipulation_targetAtFixation,jsons/v1_VE1000_randls_56_rotated.json,http://54.235.29.9/FacialAge/BNav_EC2/DepthDuration/v2_depth_duration_MTurk/v2_DepthDuration_HTML.html#119,119,1517,694,1366,768,8-22-2022,8-57-45,141,depth_duration_stimuli/002039_2014-06-24_20-22-38_260595134347_rgbf000084-resize_1/002039_2014-06-24_20-22-38_260595134347_rgbf000084-resize_1-target.png,1000,4.408,1,9060,1003,meters,jsons/v1_VE1000_randls_56_rotated.json,967906,1164134,25,Man
141,802612,DepthScenes,duration_manipulation_targetAtFixation,jsons/v1_VE1000_randls_56_rotated.json,http://54.235.29.9/FacialAge/BNav_EC2/DepthDuration/v2_depth_duration_MTurk/v2_DepthDuration_HTML.html#119,119,1517,694,1366,768,8-22-2022,8-57-45,142,depth_duration_stimuli/002639_2014-06-24_14-51-37_094959634447_rgbf000074-resize_4/002639_2014-06-24_14-51-37_094959634447_rgbf000074-resize_4-target.png,1000,4.0375,1,3975,996,meters,jsons/v1_VE1000_randls_56_rotated.json,967906,1164134,25,Man
142,802612,DepthScenes,duration_manipulation_targetAtFixation,jsons/v1_VE1000_randls_56_rotated.json,http://54.235.29.9/FacialAge/BNav_EC2/DepthDuration/v2_depth_duration_MTurk/v2_DepthDuration_HTML.html#119,119,1517,694,1366,768,8-22-2022,8-57-45,143,depth_duration_stimuli/003292_2014-05-14_21-53-49_094959634447_rgbf000100-resize_2/003292_2014-05-14_21-53-49_094959634447_rgbf000100-resize_2-target.png,1000,3.4815,1,4633,1002,meters,jsons/v1_VE1000_randls_56_rotated.json,967906,1164134,25,Man
143,802612,DepthScenes,duration_manipulation_targetAtFixation,jsons/v1_VE1000_randls_56_rotated.json,http://54.235.29.9/FacialAge/BNav_EC2/DepthDuration/v2_depth_duration_MTurk/v2_DepthDuration_HTML.html#119,119,1517,694,1366,768,8-22-2022,8-57-45,144,depth_duration_stimuli/000109_2014-05-14_23-41-52_260595134347_rgbf000035-resize_9/000109_2014-05-14_23-41-52_260595134347_rgbf000035-resize_9-target.png,1000,1.3545,0,4168,997,meters,jsons/v1_VE1000_randls_56_rotated.json,967906,1164134,25,Man
144,802612,DepthScenes,duration_manipulation_targetAtFixation,jsons/v1_VE1000_randls_56_rotated.json,http://54.235.29.9/FacialAge/BNav_EC2/DepthDuration/v2_depth_duration_MTurk/v2_DepthDuration_HTML.html#119,119,1517,694,1366,768,8-22-2022,8-57-45,145,depth_duration_stimuli/000470_2014-06-09_19-42-40_260595134347_rgbf000094-resize_1/000470_2014-06-09_19-42-40_260595134347_rgbf000094-resize_1-target.png,1000,1.831,1,4162,1000,meters,jsons/v1_VE1000_randls_56_rotated.json,967906,1164134,25,Man
145,802612,DepthScenes,duration_manipulation_targetAtFixation,jsons/v1_VE1000_randls_56_rotated.json,http://54.235.29.9/FacialAge/BNav_EC2/DepthDuration/v2_depth_duration_MTurk/v2_DepthDuration_HTML.html#119,119,1517,694,1366,768,8-22-2022,8-57-45,146,depth_duration_stimuli/001094_2014-06-15_17-36-00_260595134347_rgbf000205-resize_0/001094_2014-06-15_17-36-00_260595134347_rgbf000205-resize_0-target.png,1000,4.2175,0,4203,997,meters,jsons/v1_VE1000_randls_56_rotated.json,967906,1164134,25,Man
146,802612,DepthScenes,duration_manipulation_targetAtFixation,jsons/v1_VE1000_randls_56_rotated.json,http://54.235.29.9/FacialAge/BNav_EC2/DepthDuration/v2_depth_duration_MTurk/v2_DepthDuration_HTML.html#119,119,1517,694,1366,768,8-22-2022,8-57-45,147,depth_duration_stimuli/000692_2014-06-08_13-09-42_260595134347_rgbf000199-resize_2/000692_2014-06-08_13-09-42_260595134347_rgbf000199-resize_2-target.png,1000,3.661,0,5694,1003,meters,jsons/v1_VE1000_randls_56_rotated.json,967906,1164134,25,Man
147,802612,DepthScenes,duration_manipulation_targetAtFixation,jsons/v1_VE1000_randls_56_rotated.json,http://54.235.29.9/FacialAge/BNav_EC2/DepthDuration/v2_depth_duration_MTurk/v2_DepthDuration_HTML.html#119,119,1517,694,1366,768,8-22-2022,8-57-45,148,depth_duration_stimuli/000556_2014-06-09_22-42-56_260595134347_rgbf000214-resize_1/000556_2014-06-09_22-42-56_260595134347_rgbf000214-resize_1-target.png,1000,4.8415,1,6062,999,meters,jsons/v1_VE1000_randls_56_rotated.json,967906,1164134,25,Man
148,802612,DepthScenes,duration_manipulation_targetAtFixation,jsons/v1_VE1000_randls_56_rotated.json,http://54.235.29.9/FacialAge/BNav_EC2/DepthDuration/v2_depth_duration_MTurk/v2_DepthDuration_HTML.html#119,119,1517,694,1366,768,8-22-2022,8-57-45,149,depth_duration_stimuli/001158_2014-06-17_15-32-16_260595134347_rgbf000138-resize_2/001158_2014-06-17_15-32-16_260595134347_rgbf000138-resize_2-target.png,1000,4.5315,1,5029,998,meters,jsons/v1_VE1000_randls_56_rotated.json,967906,1164134,25,Man
149,802612,DepthScenes,duration_manipulation_targetAtFixation,jsons/v1_VE1000_randls_56_rotated.json,http://54.235.29.9/FacialAge/BNav_EC2/DepthDuration/v2_depth_duration_MTurk/v2_DepthDuration_HTML.html#119,119,1517,694,1366,768,8-22-2022,8-57-45,150,depth_duration_stimuli/003010_2014-06-15_12-54-35_094959634447_rgbf000112-resize_0/003010_2014-06-15_12-54-35_094959634447_rgbf000112-resize_0-target.png,1000,3.1185,0,4346,1001,meters,jsons/v1_VE1000_randls_56_rotated.json,967906,1164134,25,Man
150,802612,DepthScenes,duration_manipulation_targetAtFixation,jsons/v1_VE1000_randls_56_rotated.json,http://54.235.29.9/FacialAge/BNav_EC2/DepthDuration/v2_depth_duration_MTurk/v2_DepthDuration_HTML.html#119,119,1517,694,1366,768,8-22-2022,8-57-45,151,depth_duration_stimuli/001810_2014-06-26_20-51-35_260595134347_rgbf000040-resize_3/001810_2014-06-26_20-51-35_260595134347_rgbf000040-resize_3-target.png,1000,2.2525,1,4491,989,meters,jsons/v1_VE1000_randls_56_rotated.json,967906,1164134,25,Man
151,802612,DepthScenes,duration_manipulation_targetAtFixation,jsons/v1_VE1000_randls_56_rotated.json,http://54.235.29.9/FacialAge/BNav_EC2/DepthDuration/v2_depth_duration_MTurk/v2_DepthDuration_HTML.html#119,119,1517,694,1366,768,8-22-2022,8-57-45,152,depth_duration_stimuli/000569_2014-06-09_22-51-47_260595134347_rgbf000141-resize_3/000569_2014-06-09_22-51-47_260595134347_rgbf000141-resize-original.jpg,1000,4.512,0,4362,1000,meters,jsons/v1_VE1000_randls_56_rotated.json,967906,1164134,25,Man
152,802612,DepthScenes,duration_manipulation_targetAtFixation,jsons/v1_VE1000_randls_56_rotated.json,http://54.235.29.9/FacialAge/BNav_EC2/DepthDuration/v2_depth_duration_MTurk/v2_DepthDuration_HTML.html#119,119,1517,694,1366,768,8-22-2022,8-57-45,153,depth_duration_stimuli/002136_2014-06-25_21-18-03_260595134347_rgbf000109-resize_3/002136_2014-06-25_21-18-03_260595134347_rgbf000109-resize_3-target.png,1000,1.9569999999999999,1,4570,1002,meters,jsons/v1_VE1000_randls_56_rotated.json,967906,1164134,25,Man
153,802612,DepthScenes,duration_manipulation_targetAtFixation,jsons/v1_VE1000_randls_56_rotated.json,http://54.235.29.9/FacialAge/BNav_EC2/DepthDuration/v2_depth_duration_MTurk/v2_DepthDuration_HTML.html#119,119,1517,694,1366,768,8-22-2022,8-57-45,154,depth_duration_stimuli/002964_2014-06-08_17-46-11_094959634447_rgbf000091-resize_4/002964_2014-06-08_17-46-11_094959634447_rgbf000091-resize_4-target.png,1000,1.6909999999999998,1,4189,988,meters,jsons/v1_VE1000_randls_56_rotated.json,967906,1164134,25,Man
154,802612,DepthScenes,duration_manipulation_targetAtFixation,jsons/v1_VE1000_randls_56_rotated.json,http://54.235.29.9/FacialAge/BNav_EC2/DepthDuration/v2_depth_duration_MTurk/v2_DepthDuration_HTML.html#119,119,1517,694,1366,768,8-22-2022,8-57-45,155,depth_duration_stimuli/002209_2014-06-28_18-36-10_260595134347_rgbf000051-resize_1/002209_2014-06-28_18-36-10_260595134347_rgbf000051-resize_1-target.png,1000,2.057,1,4870,1002,meters,jsons/v1_VE1000_randls_56_rotated.json,967906,1164134,25,Man
155,802612,DepthScenes,duration_manipulation_targetAtFixation,jsons/v1_VE1000_randls_56_rotated.json,http://54.235.29.9/FacialAge/BNav_EC2/DepthDuration/v2_depth_duration_MTurk/v2_DepthDuration_HTML.html#119,119,1517,694,1366,768,8-22-2022,8-57-45,156,depth_duration_stimuli/002763_2014-06-22_19-13-10_094959634447_rgbf000075-resize_4/002763_2014-06-22_19-13-10_094959634447_rgbf000075-resize_4-target.png,1000,1.68375,1,4623,1000,meters,jsons/v1_VE1000_randls_56_rotated.json,967906,1164134,25,Man
156,802612,DepthScenes,duration_manipulation_targetAtFixation,jsons/v1_VE1000_randls_56_rotated.json,http://54.235.29.9/FacialAge/BNav_EC2/DepthDuration/v2_depth_duration_MTurk/v2_DepthDuration_HTML.html#119,119,1517,694,1366,768,8-22-2022,8-57-45,157,depth_duration_stimuli/000103_2014-05-14_22-01-17_260595134347_rgbf000152-resize_5/000103_2014-05-14_22-01-17_260595134347_rgbf000152-resize_5-target.png,1000,1.993,1,5213,987,meters,jsons/v1_VE1000_randls_56_rotated.json,967906,1164134,25,Man
157,802612,DepthScenes,duration_manipulation_targetAtFixation,jsons/v1_VE1000_randls_56_rotated.json,http://54.235.29.9/FacialAge/BNav_EC2/DepthDuration/v2_depth_duration_MTurk/v2_DepthDuration_HTML.html#119,119,1517,694,1366,768,8-22-2022,8-57-45,158,depth_duration_stimuli/001555_2014-06-20_17-12-10_260595134347_rgbf000065-resize_4/001555_2014-06-20_17-12-10_260595134347_rgbf000065-resize_4-target.png,1000,1.633,1,4344,996,meters,jsons/v1_VE1000_randls_56_rotated.json,967906,1164134,25,Man
158,802612,DepthScenes,duration_manipulation_targetAtFixation,jsons/v1_VE1000_randls_56_rotated.json,http://54.235.29.9/FacialAge/BNav_EC2/DepthDuration/v2_depth_duration_MTurk/v2_DepthDuration_HTML.html#119,119,1517,694,1366,768,8-22-2022,8-57-45,159,depth_duration_stimuli/000677_2014-06-08_23-10-32_260595134347_rgbf000158-resize_6/000677_2014-06-08_23-10-32_260595134347_rgbf000158-resize_6-target.png,1000,3.556,1,6472,1015,meters,jsons/v1_VE1000_randls_56_rotated.json,967906,1164134,25,Man
159,802612,DepthScenes,duration_manipulation_targetAtFixation,jsons/v1_VE1000_randls_56_rotated.json,http://54.235.29.9/FacialAge/BNav_EC2/DepthDuration/v2_depth_duration_MTurk/v2_DepthDuration_HTML.html#119,119,1517,694,1366,768,8-22-2022,8-57-45,160,depth_duration_stimuli/001029_2014-06-08_13-17-57_260595134347_rgbf000065-resize_1/001029_2014-06-08_13-17-57_260595134347_rgbf000065-resize_1-target.png,1000,3.0835,0,7167,1001,meters,jsons/v1_VE1000_randls_56_rotated.json,967906,1164134,25,Man
160,802612,DepthScenes,duration_manipulation_targetAtFixation,jsons/v1_VE1000_randls_56_rotated.json,http://54.235.29.9/FacialAge/BNav_EC2/DepthDuration/v2_depth_duration_MTurk/v2_DepthDuration_HTML.html#119,119,1517,694,1366,768,8-22-2022,8-57-45,161,depth_duration_stimuli/003129_2014-05-12_10-48-10_094959634447_rgbf000100-resize_0/003129_2014-05-12_10-48-10_094959634447_rgbf000100-resize_0-target.png,1000,4.9305,0,4621,1005,meters,jsons/v1_VE1000_randls_56_rotated.json,967906,1164134,25,Man
161,802612,DepthScenes,duration_manipulation_targetAtFixation,jsons/v1_VE1000_randls_56_rotated.json,http://54.235.29.9/FacialAge/BNav_EC2/DepthDuration/v2_depth_duration_MTurk/v2_DepthDuration_HTML.html#119,119,1517,694,1366,768,8-22-2022,8-57-45,162,depth_duration_stimuli/000414_2014-06-04_19-49-13_260595134347_rgbf000044-resize_0/000414_2014-06-04_19-49-13_260595134347_rgbf000044-resize_0-target.png,1000,4.329,0,4255,1000,meters,jsons/v1_VE1000_randls_56_rotated.json,967906,1164134,25,Man
162,802612,DepthScenes,duration_manipulation_targetAtFixation,jsons/v1_VE1000_randls_56_rotated.json,http://54.235.29.9/FacialAge/BNav_EC2/DepthDuration/v2_depth_duration_MTurk/v2_DepthDuration_HTML.html#119,119,1517,694,1366,768,8-22-2022,8-57-45,163,depth_duration_stimuli/002340_2014-06-28_20-05-46_260595134347_rgbf000113-resize_0/002340_2014-06-28_20-05-46_260595134347_rgbf000113-resize_0-target.png,1000,2.4735,0,4137,988,meters,jsons/v1_VE1000_randls_56_rotated.json,967906,1164134,25,Man
163,802612,DepthScenes,duration_manipulation_targetAtFixation,jsons/v1_VE1000_randls_56_rotated.json,http://54.235.29.9/FacialAge/BNav_EC2/DepthDuration/v2_depth_duration_MTurk/v2_DepthDuration_HTML.html#119,119,1517,694,1366,768,8-22-2022,8-57-45,164,depth_duration_stimuli/001016_2014-06-09_16-16-10_260595134347_rgbf000112-resize_5/001016_2014-06-09_16-16-10_260595134347_rgbf000112-resize_5-target.png,1000,1.6565,1,5111,1000,meters,jsons/v1_VE1000_randls_56_rotated.json,967906,1164134,25,Man
