,subjID,experimentName,versionName,sequenceName,url,selected_row,windowWidth,windowHeight,screenWidth,screenHeight,startDate,startTime,trial,stimulus,duration,actual_depth,depth_estimate,trial_RT,log_sceneDuration,unitSelection,seq_filepath,experimentTime,totalTime,age,gender
0,804396,DepthScenes,duration_manipulation_targetAtFixation,jsons/VE125_randls_77_rotated.json,http://54.235.29.9/FacialAge/BNav_EC2/DepthDuration/v2_depth_duration_MTurk/v2_DepthDuration_HTML.html#120,120,1023,980,2048,1152,9-19-2022,18-51-5,1,depth_duration_stimuli/000556_2014-06-09_22-42-56_260595134347_rgbf000214-resize_1/000556_2014-06-09_22-42-56_260595134347_rgbf000214-resize_1-target.png,125,4.8415,2,3071,126,feet,jsons/VE125_randls_77_rotated.json,350069,510844,45,Man
1,804396,DepthScenes,duration_manipulation_targetAtFixation,jsons/VE125_randls_77_rotated.json,http://54.235.29.9/FacialAge/BNav_EC2/DepthDuration/v2_depth_duration_MTurk/v2_DepthDuration_HTML.html#120,120,1023,980,2048,1152,9-19-2022,18-51-5,2,depth_duration_stimuli/001158_2014-06-17_15-32-16_260595134347_rgbf000138-resize_2/001158_2014-06-17_15-32-16_260595134347_rgbf000138-resize_2-target.png,125,4.5315,4,1635,120,feet,jsons/VE125_randls_77_rotated.json,350069,510844,45,Man
2,804396,DepthScenes,duration_manipulation_targetAtFixation,jsons/VE125_randls_77_rotated.json,http://54.235.29.9/FacialAge/BNav_EC2/DepthDuration/v2_depth_duration_MTurk/v2_DepthDuration_HTML.html#120,120,1023,980,2048,1152,9-19-2022,18-51-5,3,depth_duration_stimuli/000549_2014-06-08_22-10-24_260595134347_rgbf000247-resize_3/000549_2014-06-08_22-10-24_260595134347_rgbf000247-resize_3-target.png,125,1.841,0,1609,126,feet,jsons/VE125_randls_77_rotated.json,350069,510844,45,Man
3,804396,DepthScenes,duration_manipulation_targetAtFixation,jsons/VE125_randls_77_rotated.json,http://54.235.29.9/FacialAge/BNav_EC2/DepthDuration/v2_depth_duration_MTurk/v2_DepthDuration_HTML.html#120,120,1023,980,2048,1152,9-19-2022,18-51-5,4,depth_duration_stimuli/001055_2014-06-08_18-45-35_260595134347_rgbf000111-resize_4/001055_2014-06-08_18-45-35_260595134347_rgbf000111-resize_4-target.png,125,2.4290000000000003,0,1431,125,feet,jsons/VE125_randls_77_rotated.json,350069,510844,45,Man
4,804396,DepthScenes,duration_manipulation_targetAtFixation,jsons/VE125_randls_77_rotated.json,http://54.235.29.9/FacialAge/BNav_EC2/DepthDuration/v2_depth_duration_MTurk/v2_DepthDuration_HTML.html#120,120,1023,980,2048,1152,9-19-2022,18-51-5,5,depth_duration_stimuli/000854_2014-06-09_19-43-13_260595134347_rgbf000066-resize_0/000854_2014-06-09_19-43-13_260595134347_rgbf000066-resize_0-target.png,125,3.068,5,3446,126,feet,jsons/VE125_randls_77_rotated.json,350069,510844,45,Man
5,804396,DepthScenes,duration_manipulation_targetAtFixation,jsons/VE125_randls_77_rotated.json,http://54.235.29.9/FacialAge/BNav_EC2/DepthDuration/v2_depth_duration_MTurk/v2_DepthDuration_HTML.html#120,120,1023,980,2048,1152,9-19-2022,18-51-5,6,depth_duration_stimuli/000758_2014-06-08_22-05-08_260595134347_rgbf000085-resize_0/000758_2014-06-08_22-05-08_260595134347_rgbf000085-resize_0-target.png,125,3.3810000000000002,4,2062,124,feet,jsons/VE125_randls_77_rotated.json,350069,510844,45,Man
6,804396,DepthScenes,duration_manipulation_targetAtFixation,jsons/VE125_randls_77_rotated.json,http://54.235.29.9/FacialAge/BNav_EC2/DepthDuration/v2_depth_duration_MTurk/v2_DepthDuration_HTML.html#120,120,1023,980,2048,1152,9-19-2022,18-51-5,7,depth_duration_stimuli/002637_2014-06-24_14-51-13_094959634447_rgbf000066-resize_4/002637_2014-06-24_14-51-13_094959634447_rgbf000066-resize_4-target.png,125,1.9955,3,2141,124,feet,jsons/VE125_randls_77_rotated.json,350069,510844,45,Man
7,804396,DepthScenes,duration_manipulation_targetAtFixation,jsons/VE125_randls_77_rotated.json,http://54.235.29.9/FacialAge/BNav_EC2/DepthDuration/v2_depth_duration_MTurk/v2_DepthDuration_HTML.html#120,120,1023,980,2048,1152,9-19-2022,18-51-5,8,depth_duration_stimuli/003534_2014-05-22_15-06-10_094959634447_rgbf000102-resize_4/003534_2014-05-22_15-06-10_094959634447_rgbf000102-resize_4-target.png,125,1.426,3,1835,124,feet,jsons/VE125_randls_77_rotated.json,350069,510844,45,Man
8,804396,DepthScenes,duration_manipulation_targetAtFixation,jsons/VE125_randls_77_rotated.json,http://54.235.29.9/FacialAge/BNav_EC2/DepthDuration/v2_depth_duration_MTurk/v2_DepthDuration_HTML.html#120,120,1023,980,2048,1152,9-19-2022,18-51-5,9,depth_duration_stimuli/002660_2014-06-13_15-44-18_094959634447_rgbf001878-resize_2/002660_2014-06-13_15-44-18_094959634447_rgbf001878-resize_2-target.png,125,3.576,2,1657,125,feet,jsons/VE125_randls_77_rotated.json,350069,510844,45,Man
9,804396,DepthScenes,duration_manipulation_targetAtFixation,jsons/VE125_randls_77_rotated.json,http://54.235.29.9/FacialAge/BNav_EC2/DepthDuration/v2_depth_duration_MTurk/v2_DepthDuration_HTML.html#120,120,1023,980,2048,1152,9-19-2022,18-51-5,10,depth_duration_stimuli/002153_2014-06-25_21-27-18_260595134347_rgbf000038-resize_5/002153_2014-06-25_21-27-18_260595134347_rgbf000038-resize_5-target.png,125,2.505,4,1085,126,feet,jsons/VE125_randls_77_rotated.json,350069,510844,45,Man
10,804396,DepthScenes,duration_manipulation_targetAtFixation,jsons/VE125_randls_77_rotated.json,http://54.235.29.9/FacialAge/BNav_EC2/DepthDuration/v2_depth_duration_MTurk/v2_DepthDuration_HTML.html#120,120,1023,980,2048,1152,9-19-2022,18-51-5,11,depth_duration_stimuli/000665_2014-06-09_20-42-35_260595134347_rgbf000110-resize_1/000665_2014-06-09_20-42-35_260595134347_rgbf000110-resize_1-target.png,125,3.057,3,1431,122,feet,jsons/VE125_randls_77_rotated.json,350069,510844,45,Man
11,804396,DepthScenes,duration_manipulation_targetAtFixation,jsons/VE125_randls_77_rotated.json,http://54.235.29.9/FacialAge/BNav_EC2/DepthDuration/v2_depth_duration_MTurk/v2_DepthDuration_HTML.html#120,120,1023,980,2048,1152,9-19-2022,18-51-5,12,depth_duration_stimuli/001150_2014-06-17_15-27-34_260595134347_rgbf000108-resize_2/001150_2014-06-17_15-27-34_260595134347_rgbf000108-resize_2-target.png,125,4.0325,4,1409,123,feet,jsons/VE125_randls_77_rotated.json,350069,510844,45,Man
12,804396,DepthScenes,duration_manipulation_targetAtFixation,jsons/VE125_randls_77_rotated.json,http://54.235.29.9/FacialAge/BNav_EC2/DepthDuration/v2_depth_duration_MTurk/v2_DepthDuration_HTML.html#120,120,1023,980,2048,1152,9-19-2022,18-51-5,13,depth_duration_stimuli/000409_2014-06-04_19-23-33_260595134347_rgbf000067-resize_0/000409_2014-06-04_19-23-33_260595134347_rgbf000067-resize_0-target.png,125,3.7335,3,1285,126,feet,jsons/VE125_randls_77_rotated.json,350069,510844,45,Man
13,804396,DepthScenes,duration_manipulation_targetAtFixation,jsons/VE125_randls_77_rotated.json,http://54.235.29.9/FacialAge/BNav_EC2/DepthDuration/v2_depth_duration_MTurk/v2_DepthDuration_HTML.html#120,120,1023,980,2048,1152,9-19-2022,18-51-5,14,depth_duration_stimuli/002663_2014-06-13_15-50-26_094959634447_rgbf000075-resize_1/002663_2014-06-13_15-50-26_094959634447_rgbf000075-resize_1-target.png,125,4.7495,5,1444,125,feet,jsons/VE125_randls_77_rotated.json,350069,510844,45,Man
14,804396,DepthScenes,duration_manipulation_targetAtFixation,jsons/VE125_randls_77_rotated.json,http://54.235.29.9/FacialAge/BNav_EC2/DepthDuration/v2_depth_duration_MTurk/v2_DepthDuration_HTML.html#120,120,1023,980,2048,1152,9-19-2022,18-51-5,15,depth_duration_stimuli/003338_2014-05-20_11-01-23_094959634447_rgbf000051-resize_6/003338_2014-05-20_11-01-23_094959634447_rgbf000051-resize_6-target.png,125,1.693,1,1959,125,feet,jsons/VE125_randls_77_rotated.json,350069,510844,45,Man
15,804396,DepthScenes,duration_manipulation_targetAtFixation,jsons/VE125_randls_77_rotated.json,http://54.235.29.9/FacialAge/BNav_EC2/DepthDuration/v2_depth_duration_MTurk/v2_DepthDuration_HTML.html#120,120,1023,980,2048,1152,9-19-2022,18-51-5,16,depth_duration_stimuli/002509_2014-06-24_13-19-22_094959634447_rgbf000077-resize_0/002509_2014-06-24_13-19-22_094959634447_rgbf000077-resize_0-target.png,125,1.3065,3,2029,124,feet,jsons/VE125_randls_77_rotated.json,350069,510844,45,Man
16,804396,DepthScenes,duration_manipulation_targetAtFixation,jsons/VE125_randls_77_rotated.json,http://54.235.29.9/FacialAge/BNav_EC2/DepthDuration/v2_depth_duration_MTurk/v2_DepthDuration_HTML.html#120,120,1023,980,2048,1152,9-19-2022,18-51-5,17,depth_duration_stimuli/003228_2014-05-14_13-42-35_094959634447_rgbf000101-resize_1/003228_2014-05-14_13-42-35_094959634447_rgbf000101-resize_1-target.png,125,1.9680000000000002,3,1193,126,feet,jsons/VE125_randls_77_rotated.json,350069,510844,45,Man
17,804396,DepthScenes,duration_manipulation_targetAtFixation,jsons/VE125_randls_77_rotated.json,http://54.235.29.9/FacialAge/BNav_EC2/DepthDuration/v2_depth_duration_MTurk/v2_DepthDuration_HTML.html#120,120,1023,980,2048,1152,9-19-2022,18-51-5,18,depth_duration_stimuli/002600_2014-06-24_14-27-04_094959634447_rgbf000074-resize_2/002600_2014-06-24_14-27-04_094959634447_rgbf000074-resize_2-target.png,125,2.7575,2,1997,125,feet,jsons/VE125_randls_77_rotated.json,350069,510844,45,Man
18,804396,DepthScenes,duration_manipulation_targetAtFixation,jsons/VE125_randls_77_rotated.json,http://54.235.29.9/FacialAge/BNav_EC2/DepthDuration/v2_depth_duration_MTurk/v2_DepthDuration_HTML.html#120,120,1023,980,2048,1152,9-19-2022,18-51-5,19,depth_duration_stimuli/001498_2014-06-19_17-45-14_260595134347_rgbf000129-resize_4/001498_2014-06-19_17-45-14_260595134347_rgbf000129-resize-original.jpg,125,1.4075,0,1655,120,feet,jsons/VE125_randls_77_rotated.json,350069,510844,45,Man
19,804396,DepthScenes,duration_manipulation_targetAtFixation,jsons/VE125_randls_77_rotated.json,http://54.235.29.9/FacialAge/BNav_EC2/DepthDuration/v2_depth_duration_MTurk/v2_DepthDuration_HTML.html#120,120,1023,980,2048,1152,9-19-2022,18-51-5,20,depth_duration_stimuli/001100_2014-06-15_17-46-26_260595134347_rgbf000225-resize_2/001100_2014-06-15_17-46-26_260595134347_rgbf000225-resize_2-target.png,125,2.24,0,2174,122,feet,jsons/VE125_randls_77_rotated.json,350069,510844,45,Man
20,804396,DepthScenes,duration_manipulation_targetAtFixation,jsons/VE125_randls_77_rotated.json,http://54.235.29.9/FacialAge/BNav_EC2/DepthDuration/v2_depth_duration_MTurk/v2_DepthDuration_HTML.html#120,120,1023,980,2048,1152,9-19-2022,18-51-5,21,depth_duration_stimuli/002784_2014-06-22_19-26-30_094959634447_rgbf000083-resize_3/002784_2014-06-22_19-26-30_094959634447_rgbf000083-resize_3-target.png,125,1.8046666666667,2,1329,125,feet,jsons/VE125_randls_77_rotated.json,350069,510844,45,Man
21,804396,DepthScenes,duration_manipulation_targetAtFixation,jsons/VE125_randls_77_rotated.json,http://54.235.29.9/FacialAge/BNav_EC2/DepthDuration/v2_depth_duration_MTurk/v2_DepthDuration_HTML.html#120,120,1023,980,2048,1152,9-19-2022,18-51-5,22,depth_duration_stimuli/002199_2014-06-28_18-33-56_260595134347_rgbf000074-resize_0/002199_2014-06-28_18-33-56_260595134347_rgbf000074-resize_0-target.png,125,1.996,4,1533,122,feet,jsons/VE125_randls_77_rotated.json,350069,510844,45,Man
22,804396,DepthScenes,duration_manipulation_targetAtFixation,jsons/VE125_randls_77_rotated.json,http://54.235.29.9/FacialAge/BNav_EC2/DepthDuration/v2_depth_duration_MTurk/v2_DepthDuration_HTML.html#120,120,1023,980,2048,1152,9-19-2022,18-51-5,23,depth_duration_stimuli/001056_2014-06-08_18-46-44_260595134347_rgbf000068-resize_0/001056_2014-06-08_18-46-44_260595134347_rgbf000068-resize_0-target.png,125,2.6625,2,1498,125,feet,jsons/VE125_randls_77_rotated.json,350069,510844,45,Man
23,804396,DepthScenes,duration_manipulation_targetAtFixation,jsons/VE125_randls_77_rotated.json,http://54.235.29.9/FacialAge/BNav_EC2/DepthDuration/v2_depth_duration_MTurk/v2_DepthDuration_HTML.html#120,120,1023,980,2048,1152,9-19-2022,18-51-5,24,depth_duration_stimuli/002136_2014-06-25_21-18-03_260595134347_rgbf000109-resize_3/002136_2014-06-25_21-18-03_260595134347_rgbf000109-resize_3-target.png,125,1.9569999999999999,2,1948,124,feet,jsons/VE125_randls_77_rotated.json,350069,510844,45,Man
24,804396,DepthScenes,duration_manipulation_targetAtFixation,jsons/VE125_randls_77_rotated.json,http://54.235.29.9/FacialAge/BNav_EC2/DepthDuration/v2_depth_duration_MTurk/v2_DepthDuration_HTML.html#120,120,1023,980,2048,1152,9-19-2022,18-51-5,25,depth_duration_stimuli/002964_2014-06-08_17-46-11_094959634447_rgbf000091-resize_4/002964_2014-06-08_17-46-11_094959634447_rgbf000091-resize_4-target.png,125,1.6909999999999998,5,1727,127,feet,jsons/VE125_randls_77_rotated.json,350069,510844,45,Man
25,804396,DepthScenes,duration_manipulation_targetAtFixation,jsons/VE125_randls_77_rotated.json,http://54.235.29.9/FacialAge/BNav_EC2/DepthDuration/v2_depth_duration_MTurk/v2_DepthDuration_HTML.html#120,120,1023,980,2048,1152,9-19-2022,18-51-5,26,depth_duration_stimuli/001571_2014-06-20_17-21-32_260595134347_rgbf000089-resize_1/001571_2014-06-20_17-21-32_260595134347_rgbf000089-resize_1-target.png,125,1.86,4,1783,127,feet,jsons/VE125_randls_77_rotated.json,350069,510844,45,Man
26,804396,DepthScenes,duration_manipulation_targetAtFixation,jsons/VE125_randls_77_rotated.json,http://54.235.29.9/FacialAge/BNav_EC2/DepthDuration/v2_depth_duration_MTurk/v2_DepthDuration_HTML.html#120,120,1023,980,2048,1152,9-19-2022,18-51-5,27,depth_duration_stimuli/002272_2014-06-28_18-53-56_260595134347_rgbf000067-resize_2/002272_2014-06-28_18-53-56_260595134347_rgbf000067-resize_2-target.png,125,1.138,2,1352,125,feet,jsons/VE125_randls_77_rotated.json,350069,510844,45,Man
27,804396,DepthScenes,duration_manipulation_targetAtFixation,jsons/VE125_randls_77_rotated.json,http://54.235.29.9/FacialAge/BNav_EC2/DepthDuration/v2_depth_duration_MTurk/v2_DepthDuration_HTML.html#120,120,1023,980,2048,1152,9-19-2022,18-51-5,28,depth_duration_stimuli/002323_2014-06-28_20-01-54_260595134347_rgbf000051-resize_4/002323_2014-06-28_20-01-54_260595134347_rgbf000051-resize_4-target.png,125,3.7310000000000003,5,1768,126,feet,jsons/VE125_randls_77_rotated.json,350069,510844,45,Man
28,804396,DepthScenes,duration_manipulation_targetAtFixation,jsons/VE125_randls_77_rotated.json,http://54.235.29.9/FacialAge/BNav_EC2/DepthDuration/v2_depth_duration_MTurk/v2_DepthDuration_HTML.html#120,120,1023,980,2048,1152,9-19-2022,18-51-5,29,depth_duration_stimuli/000917_2014-06-09_22-45-29_260595134347_rgbf000149-resize_3/000917_2014-06-09_22-45-29_260595134347_rgbf000149-resize_3-target.png,125,4.1865,3,1534,124,feet,jsons/VE125_randls_77_rotated.json,350069,510844,45,Man
29,804396,DepthScenes,duration_manipulation_targetAtFixation,jsons/VE125_randls_77_rotated.json,http://54.235.29.9/FacialAge/BNav_EC2/DepthDuration/v2_depth_duration_MTurk/v2_DepthDuration_HTML.html#120,120,1023,980,2048,1152,9-19-2022,18-51-5,30,depth_duration_stimuli/002072_2014-06-24_21-48-06_260595134347_rgbf000115-resize_0/002072_2014-06-24_21-48-06_260595134347_rgbf000115-resize-original.jpg,125,4.702,2,1398,126,feet,jsons/VE125_randls_77_rotated.json,350069,510844,45,Man
30,804396,DepthScenes,duration_manipulation_targetAtFixation,jsons/VE125_randls_77_rotated.json,http://54.235.29.9/FacialAge/BNav_EC2/DepthDuration/v2_depth_duration_MTurk/v2_DepthDuration_HTML.html#120,120,1023,980,2048,1152,9-19-2022,18-51-5,31,depth_duration_stimuli/002425_2014-06-28_20-27-29_260595134347_rgbf000031-resize_8/002425_2014-06-28_20-27-29_260595134347_rgbf000031-resize_8-target.png,125,3.8960000000000004,4,1343,127,feet,jsons/VE125_randls_77_rotated.json,350069,510844,45,Man
31,804396,DepthScenes,duration_manipulation_targetAtFixation,jsons/VE125_randls_77_rotated.json,http://54.235.29.9/FacialAge/BNav_EC2/DepthDuration/v2_depth_duration_MTurk/v2_DepthDuration_HTML.html#120,120,1023,980,2048,1152,9-19-2022,18-51-5,32,depth_duration_stimuli/000642_2014-06-08_16-59-25_260595134347_rgbf000098-resize_2/000642_2014-06-08_16-59-25_260595134347_rgbf000098-resize_2-target.png,125,2.8815,3,1364,121,feet,jsons/VE125_randls_77_rotated.json,350069,510844,45,Man
32,804396,DepthScenes,duration_manipulation_targetAtFixation,jsons/VE125_randls_77_rotated.json,http://54.235.29.9/FacialAge/BNav_EC2/DepthDuration/v2_depth_duration_MTurk/v2_DepthDuration_HTML.html#120,120,1023,980,2048,1152,9-19-2022,18-51-5,33,depth_duration_stimuli/000457_2014-06-08_16-52-43_260595134347_rgbf000199-resize_1/000457_2014-06-08_16-52-43_260595134347_rgbf000199-resize_1-target.png,125,3.6489999999999996,2,1250,120,feet,jsons/VE125_randls_77_rotated.json,350069,510844,45,Man
33,804396,DepthScenes,duration_manipulation_targetAtFixation,jsons/VE125_randls_77_rotated.json,http://54.235.29.9/FacialAge/BNav_EC2/DepthDuration/v2_depth_duration_MTurk/v2_DepthDuration_HTML.html#120,120,1023,980,2048,1152,9-19-2022,18-51-5,34,depth_duration_stimuli/000929_2014-06-09_16-33-19_260595134347_rgbf000139-resize_0/000929_2014-06-09_16-33-19_260595134347_rgbf000139-resize_0-target.png,125,2.8680000000000003,4,1442,124,feet,jsons/VE125_randls_77_rotated.json,350069,510844,45,Man
34,804396,DepthScenes,duration_manipulation_targetAtFixation,jsons/VE125_randls_77_rotated.json,http://54.235.29.9/FacialAge/BNav_EC2/DepthDuration/v2_depth_duration_MTurk/v2_DepthDuration_HTML.html#120,120,1023,980,2048,1152,9-19-2022,18-51-5,35,depth_duration_stimuli/003079_2014-06-15_15-18-20_094959634447_rgbf000152-resize_8/003079_2014-06-15_15-18-20_094959634447_rgbf000152-resize_8-target.png,125,2.8775,6,1925,123,feet,jsons/VE125_randls_77_rotated.json,350069,510844,45,Man
35,804396,DepthScenes,duration_manipulation_targetAtFixation,jsons/VE125_randls_77_rotated.json,http://54.235.29.9/FacialAge/BNav_EC2/DepthDuration/v2_depth_duration_MTurk/v2_DepthDuration_HTML.html#120,120,1023,980,2048,1152,9-19-2022,18-51-5,36,depth_duration_stimuli/000506_2014-06-08_23-21-00_260595134347_rgbf000070-resize_7/000506_2014-06-08_23-21-00_260595134347_rgbf000070-resize_7-target.png,125,4.0585,3,1149,122,feet,jsons/VE125_randls_77_rotated.json,350069,510844,45,Man
36,804396,DepthScenes,duration_manipulation_targetAtFixation,jsons/VE125_randls_77_rotated.json,http://54.235.29.9/FacialAge/BNav_EC2/DepthDuration/v2_depth_duration_MTurk/v2_DepthDuration_HTML.html#120,120,1023,980,2048,1152,9-19-2022,18-51-5,37,depth_duration_stimuli/002344_2014-06-28_20-06-29_260595134347_rgbf000030-resize_1/002344_2014-06-28_20-06-29_260595134347_rgbf000030-resize_1-target.png,125,1.5795,2,1184,127,feet,jsons/VE125_randls_77_rotated.json,350069,510844,45,Man
37,804396,DepthScenes,duration_manipulation_targetAtFixation,jsons/VE125_randls_77_rotated.json,http://54.235.29.9/FacialAge/BNav_EC2/DepthDuration/v2_depth_duration_MTurk/v2_DepthDuration_HTML.html#120,120,1023,980,2048,1152,9-19-2022,18-51-5,38,depth_duration_stimuli/002725_2014-06-22_11-47-51_094959634447_rgbf000070-resize_1/002725_2014-06-22_11-47-51_094959634447_rgbf000070-resize_1-target.png,125,2.195,3,2166,126,feet,jsons/VE125_randls_77_rotated.json,350069,510844,45,Man
38,804396,DepthScenes,duration_manipulation_targetAtFixation,jsons/VE125_randls_77_rotated.json,http://54.235.29.9/FacialAge/BNav_EC2/DepthDuration/v2_depth_duration_MTurk/v2_DepthDuration_HTML.html#120,120,1023,980,2048,1152,9-19-2022,18-51-5,39,depth_duration_stimuli/002678_2014-06-13_16-15-32_094959634447_rgbf000151-resize_6/002678_2014-06-13_16-15-32_094959634447_rgbf000151-resize_6-target.png,125,2.1830000000000003,5,1252,128,feet,jsons/VE125_randls_77_rotated.json,350069,510844,45,Man
39,804396,DepthScenes,duration_manipulation_targetAtFixation,jsons/VE125_randls_77_rotated.json,http://54.235.29.9/FacialAge/BNav_EC2/DepthDuration/v2_depth_duration_MTurk/v2_DepthDuration_HTML.html#120,120,1023,980,2048,1152,9-19-2022,18-51-5,40,depth_duration_stimuli/000368_2014-06-09_15-53-01_260595134347_rgbf000155-resize_2/000368_2014-06-09_15-53-01_260595134347_rgbf000155-resize_2-target.png,125,2.4859999999999998,2,1176,127,feet,jsons/VE125_randls_77_rotated.json,350069,510844,45,Man
40,804396,DepthScenes,duration_manipulation_targetAtFixation,jsons/VE125_randls_77_rotated.json,http://54.235.29.9/FacialAge/BNav_EC2/DepthDuration/v2_depth_duration_MTurk/v2_DepthDuration_HTML.html#120,120,1023,980,2048,1152,9-19-2022,18-51-5,41,depth_duration_stimuli/001650_2014-06-20_12-09-00_260595134347_rgbf000087-resize_3/001650_2014-06-20_12-09-00_260595134347_rgbf000087-resize_3-target.png,125,1.9505,3,1206,126,feet,jsons/VE125_randls_77_rotated.json,350069,510844,45,Man
41,804396,DepthScenes,duration_manipulation_targetAtFixation,jsons/VE125_randls_77_rotated.json,http://54.235.29.9/FacialAge/BNav_EC2/DepthDuration/v2_depth_duration_MTurk/v2_DepthDuration_HTML.html#120,120,1023,980,2048,1152,9-19-2022,18-51-5,42,depth_duration_stimuli/000682_2014-06-08_23-14-58_260595134347_rgbf000041-resize_5/000682_2014-06-08_23-14-58_260595134347_rgbf000041-resize_5-target.png,125,2.7239999999999998,4,1129,127,feet,jsons/VE125_randls_77_rotated.json,350069,510844,45,Man
42,804396,DepthScenes,duration_manipulation_targetAtFixation,jsons/VE125_randls_77_rotated.json,http://54.235.29.9/FacialAge/BNav_EC2/DepthDuration/v2_depth_duration_MTurk/v2_DepthDuration_HTML.html#120,120,1023,980,2048,1152,9-19-2022,18-51-5,43,depth_duration_stimuli/003048_2014-06-15_13-49-43_094959634447_rgbf000150-resize_1/003048_2014-06-15_13-49-43_094959634447_rgbf000150-resize_1-target.png,125,4.0035,2,1108,123,feet,jsons/VE125_randls_77_rotated.json,350069,510844,45,Man
43,804396,DepthScenes,duration_manipulation_targetAtFixation,jsons/VE125_randls_77_rotated.json,http://54.235.29.9/FacialAge/BNav_EC2/DepthDuration/v2_depth_duration_MTurk/v2_DepthDuration_HTML.html#120,120,1023,980,2048,1152,9-19-2022,18-51-5,44,depth_duration_stimuli/002043_2014-06-24_20-29-38_260595134347_rgbf000039-resize_4/002043_2014-06-24_20-29-38_260595134347_rgbf000039-resize_4-target.png,125,2.8435,2,1320,125,feet,jsons/VE125_randls_77_rotated.json,350069,510844,45,Man
44,804396,DepthScenes,duration_manipulation_targetAtFixation,jsons/VE125_randls_77_rotated.json,http://54.235.29.9/FacialAge/BNav_EC2/DepthDuration/v2_depth_duration_MTurk/v2_DepthDuration_HTML.html#120,120,1023,980,2048,1152,9-19-2022,18-51-5,45,depth_duration_stimuli/000103_2014-05-14_22-01-17_260595134347_rgbf000152-resize_5/000103_2014-05-14_22-01-17_260595134347_rgbf000152-resize_5-target.png,125,1.993,2,1576,120,feet,jsons/VE125_randls_77_rotated.json,350069,510844,45,Man
45,804396,DepthScenes,duration_manipulation_targetAtFixation,jsons/VE125_randls_77_rotated.json,http://54.235.29.9/FacialAge/BNav_EC2/DepthDuration/v2_depth_duration_MTurk/v2_DepthDuration_HTML.html#120,120,1023,980,2048,1152,9-19-2022,18-51-5,46,depth_duration_stimuli/001555_2014-06-20_17-12-10_260595134347_rgbf000065-resize_4/001555_2014-06-20_17-12-10_260595134347_rgbf000065-resize_4-target.png,125,1.633,2,1579,127,feet,jsons/VE125_randls_77_rotated.json,350069,510844,45,Man
46,804396,DepthScenes,duration_manipulation_targetAtFixation,jsons/VE125_randls_77_rotated.json,http://54.235.29.9/FacialAge/BNav_EC2/DepthDuration/v2_depth_duration_MTurk/v2_DepthDuration_HTML.html#120,120,1023,980,2048,1152,9-19-2022,18-51-5,47,depth_duration_stimuli/002805_2014-06-22_19-54-03_094959634447_rgbf000079-resize_1/002805_2014-06-22_19-54-03_094959634447_rgbf000079-resize_1-target.png,125,3.1439999999999997,3,1469,129,feet,jsons/VE125_randls_77_rotated.json,350069,510844,45,Man
47,804396,DepthScenes,duration_manipulation_targetAtFixation,jsons/VE125_randls_77_rotated.json,http://54.235.29.9/FacialAge/BNav_EC2/DepthDuration/v2_depth_duration_MTurk/v2_DepthDuration_HTML.html#120,120,1023,980,2048,1152,9-19-2022,18-51-5,48,depth_duration_stimuli/000906_2014-06-08_13-35-43_260595134347_rgbf000155-resize_1/000906_2014-06-08_13-35-43_260595134347_rgbf000155-resize_1-target.png,125,2.8489999999999998,3,2468,128,feet,jsons/VE125_randls_77_rotated.json,350069,510844,45,Man
48,804396,DepthScenes,duration_manipulation_targetAtFixation,jsons/VE125_randls_77_rotated.json,http://54.235.29.9/FacialAge/BNav_EC2/DepthDuration/v2_depth_duration_MTurk/v2_DepthDuration_HTML.html#120,120,1023,980,2048,1152,9-19-2022,18-51-5,49,depth_duration_stimuli/001170_2014-06-17_15-43-44_260595134347_rgbf000096-resize_6/001170_2014-06-17_15-43-44_260595134347_rgbf000096-resize-original.jpg,125,1.1909999999999998,0,1927,125,feet,jsons/VE125_randls_77_rotated.json,350069,510844,45,Man
49,804396,DepthScenes,duration_manipulation_targetAtFixation,jsons/VE125_randls_77_rotated.json,http://54.235.29.9/FacialAge/BNav_EC2/DepthDuration/v2_depth_duration_MTurk/v2_DepthDuration_HTML.html#120,120,1023,980,2048,1152,9-19-2022,18-51-5,50,depth_duration_stimuli/002758_2014-06-22_19-11-20_094959634447_rgbf000128-resize_1/002758_2014-06-22_19-11-20_094959634447_rgbf000128-resize_1-target.png,125,2.555,4,2761,127,feet,jsons/VE125_randls_77_rotated.json,350069,510844,45,Man
50,804396,DepthScenes,duration_manipulation_targetAtFixation,jsons/VE125_randls_77_rotated.json,http://54.235.29.9/FacialAge/BNav_EC2/DepthDuration/v2_depth_duration_MTurk/v2_DepthDuration_HTML.html#120,120,1023,980,2048,1152,9-19-2022,18-51-5,51,depth_duration_stimuli/002630_2014-06-24_14-47-50_094959634447_rgbf000055-resize_1/002630_2014-06-24_14-47-50_094959634447_rgbf000055-resize_1-target.png,125,3.0095,3,1296,125,feet,jsons/VE125_randls_77_rotated.json,350069,510844,45,Man
51,804396,DepthScenes,duration_manipulation_targetAtFixation,jsons/VE125_randls_77_rotated.json,http://54.235.29.9/FacialAge/BNav_EC2/DepthDuration/v2_depth_duration_MTurk/v2_DepthDuration_HTML.html#120,120,1023,980,2048,1152,9-19-2022,18-51-5,52,depth_duration_stimuli/002953_2014-06-08_17-32-18_094959634447_rgbf000059-resize_5/002953_2014-06-08_17-32-18_094959634447_rgbf000059-resize_5-target.png,125,1.551,3,2559,128,feet,jsons/VE125_randls_77_rotated.json,350069,510844,45,Man
52,804396,DepthScenes,duration_manipulation_targetAtFixation,jsons/VE125_randls_77_rotated.json,http://54.235.29.9/FacialAge/BNav_EC2/DepthDuration/v2_depth_duration_MTurk/v2_DepthDuration_HTML.html#120,120,1023,980,2048,1152,9-19-2022,18-51-5,53,depth_duration_stimuli/000878_2014-06-08_22-52-45_260595134347_rgbf000045-resize_2/000878_2014-06-08_22-52-45_260595134347_rgbf000045-resize_2-target.png,125,2.092,4,2273,125,feet,jsons/VE125_randls_77_rotated.json,350069,510844,45,Man
53,804396,DepthScenes,duration_manipulation_targetAtFixation,jsons/VE125_randls_77_rotated.json,http://54.235.29.9/FacialAge/BNav_EC2/DepthDuration/v2_depth_duration_MTurk/v2_DepthDuration_HTML.html#120,120,1023,980,2048,1152,9-19-2022,18-51-5,54,depth_duration_stimuli/002568_2014-06-24_13-59-21_094959634447_rgbf000062-resize_4/002568_2014-06-24_13-59-21_094959634447_rgbf000062-resize_4-target.png,125,3.015,5,1558,128,feet,jsons/VE125_randls_77_rotated.json,350069,510844,45,Man
54,804396,DepthScenes,duration_manipulation_targetAtFixation,jsons/VE125_randls_77_rotated.json,http://54.235.29.9/FacialAge/BNav_EC2/DepthDuration/v2_depth_duration_MTurk/v2_DepthDuration_HTML.html#120,120,1023,980,2048,1152,9-19-2022,18-51-5,55,depth_duration_stimuli/003492_2014-05-21_15-50-55_094959634447_rgbf000828-resize_1/003492_2014-05-21_15-50-55_094959634447_rgbf000828-resize_1-target.png,125,4.06875,4,1185,123,feet,jsons/VE125_randls_77_rotated.json,350069,510844,45,Man
55,804396,DepthScenes,duration_manipulation_targetAtFixation,jsons/VE125_randls_77_rotated.json,http://54.235.29.9/FacialAge/BNav_EC2/DepthDuration/v2_depth_duration_MTurk/v2_DepthDuration_HTML.html#120,120,1023,980,2048,1152,9-19-2022,18-51-5,56,depth_duration_stimuli/000927_2014-06-09_16-32-30_260595134347_rgbf000123-resize_3/000927_2014-06-09_16-32-30_260595134347_rgbf000123-resize_3-target.png,125,2.6785,3,1489,127,feet,jsons/VE125_randls_77_rotated.json,350069,510844,45,Man
56,804396,DepthScenes,duration_manipulation_targetAtFixation,jsons/VE125_randls_77_rotated.json,http://54.235.29.9/FacialAge/BNav_EC2/DepthDuration/v2_depth_duration_MTurk/v2_DepthDuration_HTML.html#120,120,1023,980,2048,1152,9-19-2022,18-51-5,57,depth_duration_stimuli/001110_2014-06-15_17-25-28_260595134347_rgbf000150-resize_1/001110_2014-06-15_17-25-28_260595134347_rgbf000150-resize_1-target.png,125,1.7115,3,1273,125,feet,jsons/VE125_randls_77_rotated.json,350069,510844,45,Man
57,804396,DepthScenes,duration_manipulation_targetAtFixation,jsons/VE125_randls_77_rotated.json,http://54.235.29.9/FacialAge/BNav_EC2/DepthDuration/v2_depth_duration_MTurk/v2_DepthDuration_HTML.html#120,120,1023,980,2048,1152,9-19-2022,18-51-5,58,depth_duration_stimuli/002657_2014-06-13_15-29-54_094959634447_rgbf000150-resize_1/002657_2014-06-13_15-29-54_094959634447_rgbf000150-resize_1-target.png,125,4.919,2,1138,124,feet,jsons/VE125_randls_77_rotated.json,350069,510844,45,Man
58,804396,DepthScenes,duration_manipulation_targetAtFixation,jsons/VE125_randls_77_rotated.json,http://54.235.29.9/FacialAge/BNav_EC2/DepthDuration/v2_depth_duration_MTurk/v2_DepthDuration_HTML.html#120,120,1023,980,2048,1152,9-19-2022,18-51-5,59,depth_duration_stimuli/002375_2014-06-28_20-13-44_260595134347_rgbf000032-resize_1/002375_2014-06-28_20-13-44_260595134347_rgbf000032-resize_1-target.png,125,4.0175,3,1217,123,feet,jsons/VE125_randls_77_rotated.json,350069,510844,45,Man
59,804396,DepthScenes,duration_manipulation_targetAtFixation,jsons/VE125_randls_77_rotated.json,http://54.235.29.9/FacialAge/BNav_EC2/DepthDuration/v2_depth_duration_MTurk/v2_DepthDuration_HTML.html#120,120,1023,980,2048,1152,9-19-2022,18-51-5,60,depth_duration_stimuli/000109_2014-05-14_23-41-52_260595134347_rgbf000035-resize_9/000109_2014-05-14_23-41-52_260595134347_rgbf000035-resize_9-target.png,125,1.3545,4,1366,127,feet,jsons/VE125_randls_77_rotated.json,350069,510844,45,Man
60,804396,DepthScenes,duration_manipulation_targetAtFixation,jsons/VE125_randls_77_rotated.json,http://54.235.29.9/FacialAge/BNav_EC2/DepthDuration/v2_depth_duration_MTurk/v2_DepthDuration_HTML.html#120,120,1023,980,2048,1152,9-19-2022,18-51-5,61,depth_duration_stimuli/000470_2014-06-09_19-42-40_260595134347_rgbf000094-resize_1/000470_2014-06-09_19-42-40_260595134347_rgbf000094-resize_1-target.png,125,1.831,2,1118,127,feet,jsons/VE125_randls_77_rotated.json,350069,510844,45,Man
61,804396,DepthScenes,duration_manipulation_targetAtFixation,jsons/VE125_randls_77_rotated.json,http://54.235.29.9/FacialAge/BNav_EC2/DepthDuration/v2_depth_duration_MTurk/v2_DepthDuration_HTML.html#120,120,1023,980,2048,1152,9-19-2022,18-51-5,62,depth_duration_stimuli/002414_2014-06-28_20-24-58_260595134347_rgbf000067-resize_4/002414_2014-06-28_20-24-58_260595134347_rgbf000067-resize_4-target.png,125,4.363,5,1092,122,feet,jsons/VE125_randls_77_rotated.json,350069,510844,45,Man
62,804396,DepthScenes,duration_manipulation_targetAtFixation,jsons/VE125_randls_77_rotated.json,http://54.235.29.9/FacialAge/BNav_EC2/DepthDuration/v2_depth_duration_MTurk/v2_DepthDuration_HTML.html#120,120,1023,980,2048,1152,9-19-2022,18-51-5,63,depth_duration_stimuli/000773_2014-06-08_22-24-54_260595134347_rgbf000093-resize_1/000773_2014-06-08_22-24-54_260595134347_rgbf000093-resize_1-target.png,125,4.973,3,1139,125,feet,jsons/VE125_randls_77_rotated.json,350069,510844,45,Man
63,804396,DepthScenes,duration_manipulation_targetAtFixation,jsons/VE125_randls_77_rotated.json,http://54.235.29.9/FacialAge/BNav_EC2/DepthDuration/v2_depth_duration_MTurk/v2_DepthDuration_HTML.html#120,120,1023,980,2048,1152,9-19-2022,18-51-5,64,depth_duration_stimuli/002875_2014-06-01_15-19-00_094959634447_rgbf000151-resize_1/002875_2014-06-01_15-19-00_094959634447_rgbf000151-resize_1-target.png,125,1.9675,6,1240,124,feet,jsons/VE125_randls_77_rotated.json,350069,510844,45,Man
64,804396,DepthScenes,duration_manipulation_targetAtFixation,jsons/VE125_randls_77_rotated.json,http://54.235.29.9/FacialAge/BNav_EC2/DepthDuration/v2_depth_duration_MTurk/v2_DepthDuration_HTML.html#120,120,1023,980,2048,1152,9-19-2022,18-51-5,65,depth_duration_stimuli/001011_2014-06-08_23-18-54_260595134347_rgbf000044-resize_4/001011_2014-06-08_23-18-54_260595134347_rgbf000044-resize_4-target.png,125,2.4730000000000003,4,1127,125,feet,jsons/VE125_randls_77_rotated.json,350069,510844,45,Man
65,804396,DepthScenes,duration_manipulation_targetAtFixation,jsons/VE125_randls_77_rotated.json,http://54.235.29.9/FacialAge/BNav_EC2/DepthDuration/v2_depth_duration_MTurk/v2_DepthDuration_HTML.html#120,120,1023,980,2048,1152,9-19-2022,18-51-5,66,depth_duration_stimuli/001540_2014-06-20_17-01-05_260595134347_rgbf000086-resize_2/001540_2014-06-20_17-01-05_260595134347_rgbf000086-resize-original.jpg,125,1.459,0,1693,128,feet,jsons/VE125_randls_77_rotated.json,350069,510844,45,Man
66,804396,DepthScenes,duration_manipulation_targetAtFixation,jsons/VE125_randls_77_rotated.json,http://54.235.29.9/FacialAge/BNav_EC2/DepthDuration/v2_depth_duration_MTurk/v2_DepthDuration_HTML.html#120,120,1023,980,2048,1152,9-19-2022,18-51-5,67,depth_duration_stimuli/000749_2014-06-08_21-55-06_260595134347_rgbf000070-resize_2/000749_2014-06-08_21-55-06_260595134347_rgbf000070-resize_2-target.png,125,2.331,4,1085,128,feet,jsons/VE125_randls_77_rotated.json,350069,510844,45,Man
67,804396,DepthScenes,duration_manipulation_targetAtFixation,jsons/VE125_randls_77_rotated.json,http://54.235.29.9/FacialAge/BNav_EC2/DepthDuration/v2_depth_duration_MTurk/v2_DepthDuration_HTML.html#120,120,1023,980,2048,1152,9-19-2022,18-51-5,68,depth_duration_stimuli/002788_2014-06-22_19-36-03_094959634447_rgbf000088-resize_2/002788_2014-06-22_19-36-03_094959634447_rgbf000088-resize_2-target.png,125,1.6465,6,1140,124,feet,jsons/VE125_randls_77_rotated.json,350069,510844,45,Man
68,804396,DepthScenes,duration_manipulation_targetAtFixation,jsons/VE125_randls_77_rotated.json,http://54.235.29.9/FacialAge/BNav_EC2/DepthDuration/v2_depth_duration_MTurk/v2_DepthDuration_HTML.html#120,120,1023,980,2048,1152,9-19-2022,18-51-5,69,depth_duration_stimuli/001584_2014-06-20_11-07-43_260595134347_rgbf000002-resize_1/001584_2014-06-20_11-07-43_260595134347_rgbf000002-resize_1-target.png,125,3.53,4,914,127,feet,jsons/VE125_randls_77_rotated.json,350069,510844,45,Man
69,804396,DepthScenes,duration_manipulation_targetAtFixation,jsons/VE125_randls_77_rotated.json,http://54.235.29.9/FacialAge/BNav_EC2/DepthDuration/v2_depth_duration_MTurk/v2_DepthDuration_HTML.html#120,120,1023,980,2048,1152,9-19-2022,18-51-5,70,depth_duration_stimuli/003621_2014-05-23_18-06-08_094959634447_rgbf000101-resize_1/003621_2014-05-23_18-06-08_094959634447_rgbf000101-resize_1-target.png,125,3.9835,4,2625,127,feet,jsons/VE125_randls_77_rotated.json,350069,510844,45,Man
70,804396,DepthScenes,duration_manipulation_targetAtFixation,jsons/VE125_randls_77_rotated.json,http://54.235.29.9/FacialAge/BNav_EC2/DepthDuration/v2_depth_duration_MTurk/v2_DepthDuration_HTML.html#120,120,1023,980,2048,1152,9-19-2022,18-51-5,71,depth_duration_stimuli/002209_2014-06-28_18-36-10_260595134347_rgbf000051-resize_1/002209_2014-06-28_18-36-10_260595134347_rgbf000051-resize_1-target.png,125,2.057,4,1659,129,feet,jsons/VE125_randls_77_rotated.json,350069,510844,45,Man
71,804396,DepthScenes,duration_manipulation_targetAtFixation,jsons/VE125_randls_77_rotated.json,http://54.235.29.9/FacialAge/BNav_EC2/DepthDuration/v2_depth_duration_MTurk/v2_DepthDuration_HTML.html#120,120,1023,980,2048,1152,9-19-2022,18-51-5,72,depth_duration_stimuli/002763_2014-06-22_19-13-10_094959634447_rgbf000075-resize_4/002763_2014-06-22_19-13-10_094959634447_rgbf000075-resize_4-target.png,125,1.68375,6,1477,124,feet,jsons/VE125_randls_77_rotated.json,350069,510844,45,Man
72,804396,DepthScenes,duration_manipulation_targetAtFixation,jsons/VE125_randls_77_rotated.json,http://54.235.29.9/FacialAge/BNav_EC2/DepthDuration/v2_depth_duration_MTurk/v2_DepthDuration_HTML.html#120,120,1023,980,2048,1152,9-19-2022,18-51-5,73,depth_duration_stimuli/000742_2014-06-08_18-48-09_260595134347_rgbf000164-resize_4/000742_2014-06-08_18-48-09_260595134347_rgbf000164-resize_4-target.png,125,4.632,3,1431,123,feet,jsons/VE125_randls_77_rotated.json,350069,510844,45,Man
73,804396,DepthScenes,duration_manipulation_targetAtFixation,jsons/VE125_randls_77_rotated.json,http://54.235.29.9/FacialAge/BNav_EC2/DepthDuration/v2_depth_duration_MTurk/v2_DepthDuration_HTML.html#120,120,1023,980,2048,1152,9-19-2022,18-51-5,74,depth_duration_stimuli/001066_2014-06-08_22-03-20_260595134347_rgbf000066-resize_4/001066_2014-06-08_22-03-20_260595134347_rgbf000066-resize_4-target.png,125,4.2330000000000005,4,1164,128,feet,jsons/VE125_randls_77_rotated.json,350069,510844,45,Man
74,804396,DepthScenes,duration_manipulation_targetAtFixation,jsons/VE125_randls_77_rotated.json,http://54.235.29.9/FacialAge/BNav_EC2/DepthDuration/v2_depth_duration_MTurk/v2_DepthDuration_HTML.html#120,120,1023,980,2048,1152,9-19-2022,18-51-5,75,depth_duration_stimuli/001136_2014-06-17_15-19-41_260595134347_rgbf000076-resize_3/001136_2014-06-17_15-19-41_260595134347_rgbf000076-resize_3-target.png,125,1.8655,6,1397,122,feet,jsons/VE125_randls_77_rotated.json,350069,510844,45,Man
75,804396,DepthScenes,duration_manipulation_targetAtFixation,jsons/VE125_randls_77_rotated.json,http://54.235.29.9/FacialAge/BNav_EC2/DepthDuration/v2_depth_duration_MTurk/v2_DepthDuration_HTML.html#120,120,1023,980,2048,1152,9-19-2022,18-51-5,76,depth_duration_stimuli/001164_2014-06-17_15-35-46_260595134347_rgbf000085-resize_3/001164_2014-06-17_15-35-46_260595134347_rgbf000085-resize_3-target.png,125,2.354,3,2230,122,feet,jsons/VE125_randls_77_rotated.json,350069,510844,45,Man
76,804396,DepthScenes,duration_manipulation_targetAtFixation,jsons/VE125_randls_77_rotated.json,http://54.235.29.9/FacialAge/BNav_EC2/DepthDuration/v2_depth_duration_MTurk/v2_DepthDuration_HTML.html#120,120,1023,980,2048,1152,9-19-2022,18-51-5,77,depth_duration_stimuli/001094_2014-06-15_17-36-00_260595134347_rgbf000205-resize_0/001094_2014-06-15_17-36-00_260595134347_rgbf000205-resize_0-target.png,125,4.2175,0,1521,125,feet,jsons/VE125_randls_77_rotated.json,350069,510844,45,Man
77,804396,DepthScenes,duration_manipulation_targetAtFixation,jsons/VE125_randls_77_rotated.json,http://54.235.29.9/FacialAge/BNav_EC2/DepthDuration/v2_depth_duration_MTurk/v2_DepthDuration_HTML.html#120,120,1023,980,2048,1152,9-19-2022,18-51-5,78,depth_duration_stimuli/000692_2014-06-08_13-09-42_260595134347_rgbf000199-resize_2/000692_2014-06-08_13-09-42_260595134347_rgbf000199-resize_2-target.png,125,3.661,4,1231,126,feet,jsons/VE125_randls_77_rotated.json,350069,510844,45,Man
78,804396,DepthScenes,duration_manipulation_targetAtFixation,jsons/VE125_randls_77_rotated.json,http://54.235.29.9/FacialAge/BNav_EC2/DepthDuration/v2_depth_duration_MTurk/v2_DepthDuration_HTML.html#120,120,1023,980,2048,1152,9-19-2022,18-51-5,79,depth_duration_stimuli/000677_2014-06-08_23-10-32_260595134347_rgbf000158-resize_6/000677_2014-06-08_23-10-32_260595134347_rgbf000158-resize_6-target.png,125,3.556,6,1226,125,feet,jsons/VE125_randls_77_rotated.json,350069,510844,45,Man
79,804396,DepthScenes,duration_manipulation_targetAtFixation,jsons/VE125_randls_77_rotated.json,http://54.235.29.9/FacialAge/BNav_EC2/DepthDuration/v2_depth_duration_MTurk/v2_DepthDuration_HTML.html#120,120,1023,980,2048,1152,9-19-2022,18-51-5,80,depth_duration_stimuli/001029_2014-06-08_13-17-57_260595134347_rgbf000065-resize_1/001029_2014-06-08_13-17-57_260595134347_rgbf000065-resize_1-target.png,125,3.0835,4,1229,124,feet,jsons/VE125_randls_77_rotated.json,350069,510844,45,Man
80,804396,DepthScenes,duration_manipulation_targetAtFixation,jsons/VE125_randls_77_rotated.json,http://54.235.29.9/FacialAge/BNav_EC2/DepthDuration/v2_depth_duration_MTurk/v2_DepthDuration_HTML.html#120,120,1023,980,2048,1152,9-19-2022,18-51-5,81,depth_duration_stimuli/000780_2014-06-08_22-28-29_260595134347_rgbf000126-resize_1/000780_2014-06-08_22-28-29_260595134347_rgbf000126-resize_1-target.png,125,3.3825,5,1289,127,feet,jsons/VE125_randls_77_rotated.json,350069,510844,45,Man
81,804396,DepthScenes,duration_manipulation_targetAtFixation,jsons/VE125_randls_77_rotated.json,http://54.235.29.9/FacialAge/BNav_EC2/DepthDuration/v2_depth_duration_MTurk/v2_DepthDuration_HTML.html#120,120,1023,980,2048,1152,9-19-2022,18-51-5,82,depth_duration_stimuli/002445_2014-06-28_20-32-16_260595134347_rgbf000029-resize_4/002445_2014-06-28_20-32-16_260595134347_rgbf000029-resize_4-target.png,125,2.5315,3,1061,123,feet,jsons/VE125_randls_77_rotated.json,350069,510844,45,Man
82,804396,DepthScenes,duration_manipulation_targetAtFixation,jsons/VE125_randls_77_rotated.json,http://54.235.29.9/FacialAge/BNav_EC2/DepthDuration/v2_depth_duration_MTurk/v2_DepthDuration_HTML.html#120,120,1023,980,2048,1152,9-19-2022,18-51-5,83,depth_duration_stimuli/000483_2014-06-09_20-41-45_260595134347_rgbf000116-resize_4/000483_2014-06-09_20-41-45_260595134347_rgbf000116-resize_4-target.png,125,1.337,5,1207,127,feet,jsons/VE125_randls_77_rotated.json,350069,510844,45,Man
83,804396,DepthScenes,duration_manipulation_targetAtFixation,jsons/VE125_randls_77_rotated.json,http://54.235.29.9/FacialAge/BNav_EC2/DepthDuration/v2_depth_duration_MTurk/v2_DepthDuration_HTML.html#120,120,1023,980,2048,1152,9-19-2022,18-51-5,84,depth_duration_stimuli/000469_2014-06-09_19-42-10_260595134347_rgbf000081-resize_1/000469_2014-06-09_19-42-10_260595134347_rgbf000081-resize_1-target.png,125,1.652,6,1161,125,feet,jsons/VE125_randls_77_rotated.json,350069,510844,45,Man
84,804396,DepthScenes,duration_manipulation_targetAtFixation,jsons/VE125_randls_77_rotated.json,http://54.235.29.9/FacialAge/BNav_EC2/DepthDuration/v2_depth_duration_MTurk/v2_DepthDuration_HTML.html#120,120,1023,980,2048,1152,9-19-2022,18-51-5,85,depth_duration_stimuli/000502_2014-06-08_23-02-32_260595134347_rgbf000063-resize_4/000502_2014-06-08_23-02-32_260595134347_rgbf000063-resize_4-target.png,125,2.431,3,1150,126,feet,jsons/VE125_randls_77_rotated.json,350069,510844,45,Man
85,804396,DepthScenes,duration_manipulation_targetAtFixation,jsons/VE125_randls_77_rotated.json,http://54.235.29.9/FacialAge/BNav_EC2/DepthDuration/v2_depth_duration_MTurk/v2_DepthDuration_HTML.html#120,120,1023,980,2048,1152,9-19-2022,18-51-5,86,depth_duration_stimuli/001199_2014-06-17_16-03-48_260595134347_rgbf000077-resize_0/001199_2014-06-17_16-03-48_260595134347_rgbf000077-resize_0-target.png,125,3.4375,6,1104,126,feet,jsons/VE125_randls_77_rotated.json,350069,510844,45,Man
86,804396,DepthScenes,duration_manipulation_targetAtFixation,jsons/VE125_randls_77_rotated.json,http://54.235.29.9/FacialAge/BNav_EC2/DepthDuration/v2_depth_duration_MTurk/v2_DepthDuration_HTML.html#120,120,1023,980,2048,1152,9-19-2022,18-51-5,87,depth_duration_stimuli/000137_2014-05-20_17-04-49_260595134347_rgbf000120-resize_1/000137_2014-05-20_17-04-49_260595134347_rgbf000120-resize_1-target.png,125,3.786,3,1386,122,feet,jsons/VE125_randls_77_rotated.json,350069,510844,45,Man
87,804396,DepthScenes,duration_manipulation_targetAtFixation,jsons/VE125_randls_77_rotated.json,http://54.235.29.9/FacialAge/BNav_EC2/DepthDuration/v2_depth_duration_MTurk/v2_DepthDuration_HTML.html#120,120,1023,980,2048,1152,9-19-2022,18-51-5,88,depth_duration_stimuli/000736_2014-06-08_18-24-15_260595134347_rgbf000206-resize_3/000736_2014-06-08_18-24-15_260595134347_rgbf000206-resize_3-target.png,125,3.515,4,1139,122,feet,jsons/VE125_randls_77_rotated.json,350069,510844,45,Man
88,804396,DepthScenes,duration_manipulation_targetAtFixation,jsons/VE125_randls_77_rotated.json,http://54.235.29.9/FacialAge/BNav_EC2/DepthDuration/v2_depth_duration_MTurk/v2_DepthDuration_HTML.html#120,120,1023,980,2048,1152,9-19-2022,18-51-5,89,depth_duration_stimuli/003490_2014-05-21_15-50-11_094959634447_rgbf000101-resize_3/003490_2014-05-21_15-50-11_094959634447_rgbf000101-resize_3-target.png,125,3.6445,6,1196,123,feet,jsons/VE125_randls_77_rotated.json,350069,510844,45,Man
89,804396,DepthScenes,duration_manipulation_targetAtFixation,jsons/VE125_randls_77_rotated.json,http://54.235.29.9/FacialAge/BNav_EC2/DepthDuration/v2_depth_duration_MTurk/v2_DepthDuration_HTML.html#120,120,1023,980,2048,1152,9-19-2022,18-51-5,90,depth_duration_stimuli/001175_2014-06-17_15-45-55_260595134347_rgbf000129-resize_4/001175_2014-06-17_15-45-55_260595134347_rgbf000129-resize_4-target.png,125,4.255,3,1737,125,feet,jsons/VE125_randls_77_rotated.json,350069,510844,45,Man
90,804396,DepthScenes,duration_manipulation_targetAtFixation,jsons/VE125_randls_77_rotated.json,http://54.235.29.9/FacialAge/BNav_EC2/DepthDuration/v2_depth_duration_MTurk/v2_DepthDuration_HTML.html#120,120,1023,980,2048,1152,9-19-2022,18-51-5,91,depth_duration_stimuli/001447_2014-06-19_17-00-32_260595134347_rgbf000082-resize_5/001447_2014-06-19_17-00-32_260595134347_rgbf000082-resize_5-target.png,125,4.13775,4,1453,124,feet,jsons/VE125_randls_77_rotated.json,350069,510844,45,Man
91,804396,DepthScenes,duration_manipulation_targetAtFixation,jsons/VE125_randls_77_rotated.json,http://54.235.29.9/FacialAge/BNav_EC2/DepthDuration/v2_depth_duration_MTurk/v2_DepthDuration_HTML.html#120,120,1023,980,2048,1152,9-19-2022,18-51-5,92,depth_duration_stimuli/000447_2014-06-08_16-15-46_260595134347_rgbf000130-resize_1/000447_2014-06-08_16-15-46_260595134347_rgbf000130-resize_1-target.png,125,4.479,5,1299,128,feet,jsons/VE125_randls_77_rotated.json,350069,510844,45,Man
92,804396,DepthScenes,duration_manipulation_targetAtFixation,jsons/VE125_randls_77_rotated.json,http://54.235.29.9/FacialAge/BNav_EC2/DepthDuration/v2_depth_duration_MTurk/v2_DepthDuration_HTML.html#120,120,1023,980,2048,1152,9-19-2022,18-51-5,93,depth_duration_stimuli/000191_2014-05-12_17-07-38_260595134347_rgbf000199-resize_0/000191_2014-05-12_17-07-38_260595134347_rgbf000199-resize_0-target.png,125,3.7995,2,1274,122,feet,jsons/VE125_randls_77_rotated.json,350069,510844,45,Man
93,804396,DepthScenes,duration_manipulation_targetAtFixation,jsons/VE125_randls_77_rotated.json,http://54.235.29.9/FacialAge/BNav_EC2/DepthDuration/v2_depth_duration_MTurk/v2_DepthDuration_HTML.html#120,120,1023,980,2048,1152,9-19-2022,18-51-5,94,depth_duration_stimuli/000493_2014-06-09_21-01-18_260595134347_rgbf000196-resize_3/000493_2014-06-09_21-01-18_260595134347_rgbf000196-resize_3-target.png,125,3.44,5,1272,121,feet,jsons/VE125_randls_77_rotated.json,350069,510844,45,Man
94,804396,DepthScenes,duration_manipulation_targetAtFixation,jsons/VE125_randls_77_rotated.json,http://54.235.29.9/FacialAge/BNav_EC2/DepthDuration/v2_depth_duration_MTurk/v2_DepthDuration_HTML.html#120,120,1023,980,2048,1152,9-19-2022,18-51-5,95,depth_duration_stimuli/001828_2014-06-26_21-40-03_260595134347_rgbf000024-resize_0/001828_2014-06-26_21-40-03_260595134347_rgbf000024-resize_0-target.png,125,4.8260000000000005,6,1319,124,feet,jsons/VE125_randls_77_rotated.json,350069,510844,45,Man
95,804396,DepthScenes,duration_manipulation_targetAtFixation,jsons/VE125_randls_77_rotated.json,http://54.235.29.9/FacialAge/BNav_EC2/DepthDuration/v2_depth_duration_MTurk/v2_DepthDuration_HTML.html#120,120,1023,980,2048,1152,9-19-2022,18-51-5,96,depth_duration_stimuli/000009_2014-05-26_14-32-05_260595134347_rgbf000034-resize_3/000009_2014-05-26_14-32-05_260595134347_rgbf000034-resize_3-target.png,125,3.8715,4,1949,121,feet,jsons/VE125_randls_77_rotated.json,350069,510844,45,Man
96,804396,DepthScenes,duration_manipulation_targetAtFixation,jsons/VE125_randls_77_rotated.json,http://54.235.29.9/FacialAge/BNav_EC2/DepthDuration/v2_depth_duration_MTurk/v2_DepthDuration_HTML.html#120,120,1023,980,2048,1152,9-19-2022,18-51-5,97,depth_duration_stimuli/001617_2014-06-20_11-35-32_260595134347_rgbf000066-resize_1/001617_2014-06-20_11-35-32_260595134347_rgbf000066-resize_1-target.png,125,3.7910000000000004,3,2039,126,feet,jsons/VE125_randls_77_rotated.json,350069,510844,45,Man
97,804396,DepthScenes,duration_manipulation_targetAtFixation,jsons/VE125_randls_77_rotated.json,http://54.235.29.9/FacialAge/BNav_EC2/DepthDuration/v2_depth_duration_MTurk/v2_DepthDuration_HTML.html#120,120,1023,980,2048,1152,9-19-2022,18-51-5,98,depth_duration_stimuli/001806_2014-06-26_20-50-20_260595134347_rgbf000091-resize_1/001806_2014-06-26_20-50-20_260595134347_rgbf000091-resize_1-target.png,125,2.7305,6,1569,126,feet,jsons/VE125_randls_77_rotated.json,350069,510844,45,Man
98,804396,DepthScenes,duration_manipulation_targetAtFixation,jsons/VE125_randls_77_rotated.json,http://54.235.29.9/FacialAge/BNav_EC2/DepthDuration/v2_depth_duration_MTurk/v2_DepthDuration_HTML.html#120,120,1023,980,2048,1152,9-19-2022,18-51-5,99,depth_duration_stimuli/001222_2014-06-17_16-24-06_260595134347_rgbf000073-resize_0/001222_2014-06-17_16-24-06_260595134347_rgbf000073-resize-original.jpg,125,1.4385,7,1454,129,feet,jsons/VE125_randls_77_rotated.json,350069,510844,45,Man
99,804396,DepthScenes,duration_manipulation_targetAtFixation,jsons/VE125_randls_77_rotated.json,http://54.235.29.9/FacialAge/BNav_EC2/DepthDuration/v2_depth_duration_MTurk/v2_DepthDuration_HTML.html#120,120,1023,980,2048,1152,9-19-2022,18-51-5,100,depth_duration_stimuli/002750_2014-06-22_19-08-03_094959634447_rgbf000094-resize_4/002750_2014-06-22_19-08-03_094959634447_rgbf000094-resize_4-target.png,125,2.354,0,1614,127,feet,jsons/VE125_randls_77_rotated.json,350069,510844,45,Man
100,804396,DepthScenes,duration_manipulation_targetAtFixation,jsons/VE125_randls_77_rotated.json,http://54.235.29.9/FacialAge/BNav_EC2/DepthDuration/v2_depth_duration_MTurk/v2_DepthDuration_HTML.html#120,120,1023,980,2048,1152,9-19-2022,18-51-5,101,depth_duration_stimuli/002549_2014-06-24_13-41-39_094959634447_rgbf000022-resize_3/002549_2014-06-24_13-41-39_094959634447_rgbf000022-resize_3-target.png,125,1.476,2,1136,124,feet,jsons/VE125_randls_77_rotated.json,350069,510844,45,Man
101,804396,DepthScenes,duration_manipulation_targetAtFixation,jsons/VE125_randls_77_rotated.json,http://54.235.29.9/FacialAge/BNav_EC2/DepthDuration/v2_depth_duration_MTurk/v2_DepthDuration_HTML.html#120,120,1023,980,2048,1152,9-19-2022,18-51-5,102,depth_duration_stimuli/001450_2014-06-19_17-02-03_260595134347_rgbf000203-resize_4/001450_2014-06-19_17-02-03_260595134347_rgbf000203-resize_4-target.png,125,4.0106666666667,4,1254,124,feet,jsons/VE125_randls_77_rotated.json,350069,510844,45,Man
102,804396,DepthScenes,duration_manipulation_targetAtFixation,jsons/VE125_randls_77_rotated.json,http://54.235.29.9/FacialAge/BNav_EC2/DepthDuration/v2_depth_duration_MTurk/v2_DepthDuration_HTML.html#120,120,1023,980,2048,1152,9-19-2022,18-51-5,103,depth_duration_stimuli/001449_2014-06-19_17-01-27_260595134347_rgbf000116-resize_2/001449_2014-06-19_17-01-27_260595134347_rgbf000116-resize_2-target.png,125,3.452,2,1386,121,feet,jsons/VE125_randls_77_rotated.json,350069,510844,45,Man
103,804396,DepthScenes,duration_manipulation_targetAtFixation,jsons/VE125_randls_77_rotated.json,http://54.235.29.9/FacialAge/BNav_EC2/DepthDuration/v2_depth_duration_MTurk/v2_DepthDuration_HTML.html#120,120,1023,980,2048,1152,9-19-2022,18-51-5,104,depth_duration_stimuli/002103_2014-06-25_20-00-40_260595134347_rgbf000049-resize_0/002103_2014-06-25_20-00-40_260595134347_rgbf000049-resize_0-target.png,125,4.105,5,1364,125,feet,jsons/VE125_randls_77_rotated.json,350069,510844,45,Man
104,804396,DepthScenes,duration_manipulation_targetAtFixation,jsons/VE125_randls_77_rotated.json,http://54.235.29.9/FacialAge/BNav_EC2/DepthDuration/v2_depth_duration_MTurk/v2_DepthDuration_HTML.html#120,120,1023,980,2048,1152,9-19-2022,18-51-5,105,depth_duration_stimuli/002039_2014-06-24_20-22-38_260595134347_rgbf000084-resize_1/002039_2014-06-24_20-22-38_260595134347_rgbf000084-resize_1-target.png,125,4.408,3,1206,121,feet,jsons/VE125_randls_77_rotated.json,350069,510844,45,Man
105,804396,DepthScenes,duration_manipulation_targetAtFixation,jsons/VE125_randls_77_rotated.json,http://54.235.29.9/FacialAge/BNav_EC2/DepthDuration/v2_depth_duration_MTurk/v2_DepthDuration_HTML.html#120,120,1023,980,2048,1152,9-19-2022,18-51-5,106,depth_duration_stimuli/001052_2014-06-08_18-24-54_260595134347_rgbf000130-resize_1/001052_2014-06-08_18-24-54_260595134347_rgbf000130-resize_1-target.png,125,4.1045,6,1397,125,feet,jsons/VE125_randls_77_rotated.json,350069,510844,45,Man
106,804396,DepthScenes,duration_manipulation_targetAtFixation,jsons/VE125_randls_77_rotated.json,http://54.235.29.9/FacialAge/BNav_EC2/DepthDuration/v2_depth_duration_MTurk/v2_DepthDuration_HTML.html#120,120,1023,980,2048,1152,9-19-2022,18-51-5,107,depth_duration_stimuli/002988_2014-06-15_12-24-20_094959634447_rgbf000150-resize_1/002988_2014-06-15_12-24-20_094959634447_rgbf000150-resize_1-target.png,125,4.7669999999999995,4,1228,122,feet,jsons/VE125_randls_77_rotated.json,350069,510844,45,Man
107,804396,DepthScenes,duration_manipulation_targetAtFixation,jsons/VE125_randls_77_rotated.json,http://54.235.29.9/FacialAge/BNav_EC2/DepthDuration/v2_depth_duration_MTurk/v2_DepthDuration_HTML.html#120,120,1023,980,2048,1152,9-19-2022,18-51-5,108,depth_duration_stimuli/000943_2014-06-09_19-31-07_260595134347_rgbf000128-resize_1/000943_2014-06-09_19-31-07_260595134347_rgbf000128-resize_1-target.png,125,1.9765,3,1294,120,feet,jsons/VE125_randls_77_rotated.json,350069,510844,45,Man
108,804396,DepthScenes,duration_manipulation_targetAtFixation,jsons/VE125_randls_77_rotated.json,http://54.235.29.9/FacialAge/BNav_EC2/DepthDuration/v2_depth_duration_MTurk/v2_DepthDuration_HTML.html#120,120,1023,980,2048,1152,9-19-2022,18-51-5,109,depth_duration_stimuli/003070_2014-06-15_14-58-27_094959634447_rgbf000150-resize_3/003070_2014-06-15_14-58-27_094959634447_rgbf000150-resize_3-target.png,125,2.9415,2,1577,120,feet,jsons/VE125_randls_77_rotated.json,350069,510844,45,Man
109,804396,DepthScenes,duration_manipulation_targetAtFixation,jsons/VE125_randls_77_rotated.json,http://54.235.29.9/FacialAge/BNav_EC2/DepthDuration/v2_depth_duration_MTurk/v2_DepthDuration_HTML.html#120,120,1023,980,2048,1152,9-19-2022,18-51-5,110,depth_duration_stimuli/000734_2014-06-08_17-39-11_260595134347_rgbf000128-resize_2/000734_2014-06-08_17-39-11_260595134347_rgbf000128-resize_2-target.png,125,4.098,1,1285,124,feet,jsons/VE125_randls_77_rotated.json,350069,510844,45,Man
110,804396,DepthScenes,duration_manipulation_targetAtFixation,jsons/VE125_randls_77_rotated.json,http://54.235.29.9/FacialAge/BNav_EC2/DepthDuration/v2_depth_duration_MTurk/v2_DepthDuration_HTML.html#120,120,1023,980,2048,1152,9-19-2022,18-51-5,111,depth_duration_stimuli/000739_2014-06-08_18-45-58_260595134347_rgbf000068-resize_1/000739_2014-06-08_18-45-58_260595134347_rgbf000068-resize_1-target.png,125,3.534,1,2175,125,feet,jsons/VE125_randls_77_rotated.json,350069,510844,45,Man
111,804396,DepthScenes,duration_manipulation_targetAtFixation,jsons/VE125_randls_77_rotated.json,http://54.235.29.9/FacialAge/BNav_EC2/DepthDuration/v2_depth_duration_MTurk/v2_DepthDuration_HTML.html#120,120,1023,980,2048,1152,9-19-2022,18-51-5,112,depth_duration_stimuli/003010_2014-06-15_12-54-35_094959634447_rgbf000112-resize_0/003010_2014-06-15_12-54-35_094959634447_rgbf000112-resize_0-target.png,125,3.1185,3,2083,120,feet,jsons/VE125_randls_77_rotated.json,350069,510844,45,Man
112,804396,DepthScenes,duration_manipulation_targetAtFixation,jsons/VE125_randls_77_rotated.json,http://54.235.29.9/FacialAge/BNav_EC2/DepthDuration/v2_depth_duration_MTurk/v2_DepthDuration_HTML.html#120,120,1023,980,2048,1152,9-19-2022,18-51-5,113,depth_duration_stimuli/001810_2014-06-26_20-51-35_260595134347_rgbf000040-resize_3/001810_2014-06-26_20-51-35_260595134347_rgbf000040-resize_3-target.png,125,2.2525,4,2747,123,feet,jsons/VE125_randls_77_rotated.json,350069,510844,45,Man
113,804396,DepthScenes,duration_manipulation_targetAtFixation,jsons/VE125_randls_77_rotated.json,http://54.235.29.9/FacialAge/BNav_EC2/DepthDuration/v2_depth_duration_MTurk/v2_DepthDuration_HTML.html#120,120,1023,980,2048,1152,9-19-2022,18-51-5,114,depth_duration_stimuli/001132_2014-06-17_14-48-54_260595134347_rgbf000100-resize_2/001132_2014-06-17_14-48-54_260595134347_rgbf000100-resize_2-target.png,125,3.753,5,1435,130,feet,jsons/VE125_randls_77_rotated.json,350069,510844,45,Man
114,804396,DepthScenes,duration_manipulation_targetAtFixation,jsons/VE125_randls_77_rotated.json,http://54.235.29.9/FacialAge/BNav_EC2/DepthDuration/v2_depth_duration_MTurk/v2_DepthDuration_HTML.html#120,120,1023,980,2048,1152,9-19-2022,18-51-5,115,depth_duration_stimuli/001133_2014-06-17_14-49-16_260595134347_rgbf000100-resize_0/001133_2014-06-17_14-49-16_260595134347_rgbf000100-resize_0-target.png,125,4.2115,4,1952,125,feet,jsons/VE125_randls_77_rotated.json,350069,510844,45,Man
115,804396,DepthScenes,duration_manipulation_targetAtFixation,jsons/VE125_randls_77_rotated.json,http://54.235.29.9/FacialAge/BNav_EC2/DepthDuration/v2_depth_duration_MTurk/v2_DepthDuration_HTML.html#120,120,1023,980,2048,1152,9-19-2022,18-51-5,116,depth_duration_stimuli/001516_2014-06-20_16-25-09_260595134347_rgbf000076-resize_2/001516_2014-06-20_16-25-09_260595134347_rgbf000076-resize_2-target.png,125,1.7445,6,2331,121,feet,jsons/VE125_randls_77_rotated.json,350069,510844,45,Man
116,804396,DepthScenes,duration_manipulation_targetAtFixation,jsons/VE125_randls_77_rotated.json,http://54.235.29.9/FacialAge/BNav_EC2/DepthDuration/v2_depth_duration_MTurk/v2_DepthDuration_HTML.html#120,120,1023,980,2048,1152,9-19-2022,18-51-5,117,depth_duration_stimuli/002118_2014-06-25_20-32-08_260595134347_rgbf000078-resize_1/002118_2014-06-25_20-32-08_260595134347_rgbf000078-resize_1-target.png,125,2.6460000000000004,3,1871,125,feet,jsons/VE125_randls_77_rotated.json,350069,510844,45,Man
117,804396,DepthScenes,duration_manipulation_targetAtFixation,jsons/VE125_randls_77_rotated.json,http://54.235.29.9/FacialAge/BNav_EC2/DepthDuration/v2_depth_duration_MTurk/v2_DepthDuration_HTML.html#120,120,1023,980,2048,1152,9-19-2022,18-51-5,118,depth_duration_stimuli/001815_2014-06-26_20-52-55_260595134347_rgbf000020-resize_0/001815_2014-06-26_20-52-55_260595134347_rgbf000020-resize_0-target.png,125,3.3865,4,1825,125,feet,jsons/VE125_randls_77_rotated.json,350069,510844,45,Man
118,804396,DepthScenes,duration_manipulation_targetAtFixation,jsons/VE125_randls_77_rotated.json,http://54.235.29.9/FacialAge/BNav_EC2/DepthDuration/v2_depth_duration_MTurk/v2_DepthDuration_HTML.html#120,120,1023,980,2048,1152,9-19-2022,18-51-5,119,depth_duration_stimuli/001808_2014-06-26_20-50-58_260595134347_rgbf000029-resize_1/001808_2014-06-26_20-50-58_260595134347_rgbf000029-resize_1-target.png,125,4.249,3,3187,125,feet,jsons/VE125_randls_77_rotated.json,350069,510844,45,Man
119,804396,DepthScenes,duration_manipulation_targetAtFixation,jsons/VE125_randls_77_rotated.json,http://54.235.29.9/FacialAge/BNav_EC2/DepthDuration/v2_depth_duration_MTurk/v2_DepthDuration_HTML.html#120,120,1023,980,2048,1152,9-19-2022,18-51-5,120,depth_duration_stimuli/000787_2014-06-08_22-33-53_260595134347_rgbf000175-resize_1/000787_2014-06-08_22-33-53_260595134347_rgbf000175-resize-original.jpg,125,4.784,5,2240,122,feet,jsons/VE125_randls_77_rotated.json,350069,510844,45,Man
120,804396,DepthScenes,duration_manipulation_targetAtFixation,jsons/VE125_randls_77_rotated.json,http://54.235.29.9/FacialAge/BNav_EC2/DepthDuration/v2_depth_duration_MTurk/v2_DepthDuration_HTML.html#120,120,1023,980,2048,1152,9-19-2022,18-51-5,121,depth_duration_stimuli/000635_2014-06-08_16-38-42_260595134347_rgbf000106-resize_1/000635_2014-06-08_16-38-42_260595134347_rgbf000106-resize_1-target.png,125,2.074,3,1792,125,feet,jsons/VE125_randls_77_rotated.json,350069,510844,45,Man
121,804396,DepthScenes,duration_manipulation_targetAtFixation,jsons/VE125_randls_77_rotated.json,http://54.235.29.9/FacialAge/BNav_EC2/DepthDuration/v2_depth_duration_MTurk/v2_DepthDuration_HTML.html#120,120,1023,980,2048,1152,9-19-2022,18-51-5,122,depth_duration_stimuli/002279_2014-06-28_18-55-32_260595134347_rgbf000040-resize_5/002279_2014-06-28_18-55-32_260595134347_rgbf000040-resize_5-target.png,125,1.5043333333333,5,1498,121,feet,jsons/VE125_randls_77_rotated.json,350069,510844,45,Man
122,804396,DepthScenes,duration_manipulation_targetAtFixation,jsons/VE125_randls_77_rotated.json,http://54.235.29.9/FacialAge/BNav_EC2/DepthDuration/v2_depth_duration_MTurk/v2_DepthDuration_HTML.html#120,120,1023,980,2048,1152,9-19-2022,18-51-5,123,depth_duration_stimuli/003083_2014-06-15_15-21-03_094959634447_rgbf000063-resize_1/003083_2014-06-15_15-21-03_094959634447_rgbf000063-resize_1-target.png,125,4.1405,7,1794,128,feet,jsons/VE125_randls_77_rotated.json,350069,510844,45,Man
123,804396,DepthScenes,duration_manipulation_targetAtFixation,jsons/VE125_randls_77_rotated.json,http://54.235.29.9/FacialAge/BNav_EC2/DepthDuration/v2_depth_duration_MTurk/v2_DepthDuration_HTML.html#120,120,1023,980,2048,1152,9-19-2022,18-51-5,124,depth_duration_stimuli/000486_2014-06-09_20-47-20_260595134347_rgbf000143-resize_2/000486_2014-06-09_20-47-20_260595134347_rgbf000143-resize_2-target.png,125,4.8325,4,1208,129,feet,jsons/VE125_randls_77_rotated.json,350069,510844,45,Man
124,804396,DepthScenes,duration_manipulation_targetAtFixation,jsons/VE125_randls_77_rotated.json,http://54.235.29.9/FacialAge/BNav_EC2/DepthDuration/v2_depth_duration_MTurk/v2_DepthDuration_HTML.html#120,120,1023,980,2048,1152,9-19-2022,18-51-5,125,depth_duration_stimuli/000691_2014-06-08_13-08-50_260595134347_rgbf000132-resize_3/000691_2014-06-08_13-08-50_260595134347_rgbf000132-resize_3-target.png,125,4.1530000000000005,3,1366,128,feet,jsons/VE125_randls_77_rotated.json,350069,510844,45,Man
125,804396,DepthScenes,duration_manipulation_targetAtFixation,jsons/VE125_randls_77_rotated.json,http://54.235.29.9/FacialAge/BNav_EC2/DepthDuration/v2_depth_duration_MTurk/v2_DepthDuration_HTML.html#120,120,1023,980,2048,1152,9-19-2022,18-51-5,126,depth_duration_stimuli/002213_2014-06-28_18-37-58_260595134347_rgbf000055-resize_1/002213_2014-06-28_18-37-58_260595134347_rgbf000055-resize_1-target.png,125,3.62,3,1207,125,feet,jsons/VE125_randls_77_rotated.json,350069,510844,45,Man
126,804396,DepthScenes,duration_manipulation_targetAtFixation,jsons/VE125_randls_77_rotated.json,http://54.235.29.9/FacialAge/BNav_EC2/DepthDuration/v2_depth_duration_MTurk/v2_DepthDuration_HTML.html#120,120,1023,980,2048,1152,9-19-2022,18-51-5,127,depth_duration_stimuli/003495_2014-05-21_16-01-51_094959634447_rgbf000100-resize_3/003495_2014-05-21_16-01-51_094959634447_rgbf000100-resize_3-target.png,125,1.6255,4,3209,125,feet,jsons/VE125_randls_77_rotated.json,350069,510844,45,Man
127,804396,DepthScenes,duration_manipulation_targetAtFixation,jsons/VE125_randls_77_rotated.json,http://54.235.29.9/FacialAge/BNav_EC2/DepthDuration/v2_depth_duration_MTurk/v2_DepthDuration_HTML.html#120,120,1023,980,2048,1152,9-19-2022,18-51-5,128,depth_duration_stimuli/001244_2014-06-17_16-47-45_260595134347_rgbf000030-resize_4/001244_2014-06-17_16-47-45_260595134347_rgbf000030-resize_4-target.png,125,2.0425,6,1409,123,feet,jsons/VE125_randls_77_rotated.json,350069,510844,45,Man
128,804396,DepthScenes,duration_manipulation_targetAtFixation,jsons/VE125_randls_77_rotated.json,http://54.235.29.9/FacialAge/BNav_EC2/DepthDuration/v2_depth_duration_MTurk/v2_DepthDuration_HTML.html#120,120,1023,980,2048,1152,9-19-2022,18-51-5,129,depth_duration_stimuli/000866_2014-06-09_20-45-42_260595134347_rgbf000139-resize_1/000866_2014-06-09_20-45-42_260595134347_rgbf000139-resize_1-target.png,125,3.2155,4,937,123,feet,jsons/VE125_randls_77_rotated.json,350069,510844,45,Man
129,804396,DepthScenes,duration_manipulation_targetAtFixation,jsons/VE125_randls_77_rotated.json,http://54.235.29.9/FacialAge/BNav_EC2/DepthDuration/v2_depth_duration_MTurk/v2_DepthDuration_HTML.html#120,120,1023,980,2048,1152,9-19-2022,18-51-5,130,depth_duration_stimuli/002989_2014-06-15_12-25-03_094959634447_rgbf000150-resize_3/002989_2014-06-15_12-25-03_094959634447_rgbf000150-resize_3-target.png,125,4.1975,3,1227,121,feet,jsons/VE125_randls_77_rotated.json,350069,510844,45,Man
130,804396,DepthScenes,duration_manipulation_targetAtFixation,jsons/VE125_randls_77_rotated.json,http://54.235.29.9/FacialAge/BNav_EC2/DepthDuration/v2_depth_duration_MTurk/v2_DepthDuration_HTML.html#120,120,1023,980,2048,1152,9-19-2022,18-51-5,131,depth_duration_stimuli/001235_2014-06-17_16-37-36_260595134347_rgbf000084-resize_4/001235_2014-06-17_16-37-36_260595134347_rgbf000084-resize_4-target.png,125,3.6605,6,3838,125,feet,jsons/VE125_randls_77_rotated.json,350069,510844,45,Man
131,804396,DepthScenes,duration_manipulation_targetAtFixation,jsons/VE125_randls_77_rotated.json,http://54.235.29.9/FacialAge/BNav_EC2/DepthDuration/v2_depth_duration_MTurk/v2_DepthDuration_HTML.html#120,120,1023,980,2048,1152,9-19-2022,18-51-5,132,depth_duration_stimuli/000788_2014-06-08_22-34-36_260595134347_rgbf000131-resize_1/000788_2014-06-08_22-34-36_260595134347_rgbf000131-resize_1-target.png,125,3.359,5,1928,127,feet,jsons/VE125_randls_77_rotated.json,350069,510844,45,Man
132,804396,DepthScenes,duration_manipulation_targetAtFixation,jsons/VE125_randls_77_rotated.json,http://54.235.29.9/FacialAge/BNav_EC2/DepthDuration/v2_depth_duration_MTurk/v2_DepthDuration_HTML.html#120,120,1023,980,2048,1152,9-19-2022,18-51-5,133,depth_duration_stimuli/003081_2014-06-15_15-19-16_094959634447_rgbf000150-resize_1/003081_2014-06-15_15-19-16_094959634447_rgbf000150-resize_1-target.png,125,3.9125,4,1994,125,feet,jsons/VE125_randls_77_rotated.json,350069,510844,45,Man
133,804396,DepthScenes,duration_manipulation_targetAtFixation,jsons/VE125_randls_77_rotated.json,http://54.235.29.9/FacialAge/BNav_EC2/DepthDuration/v2_depth_duration_MTurk/v2_DepthDuration_HTML.html#120,120,1023,980,2048,1152,9-19-2022,18-51-5,134,depth_duration_stimuli/001417_2014-06-19_16-25-36_260595134347_rgbf000115-resize_5/001417_2014-06-19_16-25-36_260595134347_rgbf000115-resize_5-target.png,125,4.6255,6,1548,125,feet,jsons/VE125_randls_77_rotated.json,350069,510844,45,Man
134,804396,DepthScenes,duration_manipulation_targetAtFixation,jsons/VE125_randls_77_rotated.json,http://54.235.29.9/FacialAge/BNav_EC2/DepthDuration/v2_depth_duration_MTurk/v2_DepthDuration_HTML.html#120,120,1023,980,2048,1152,9-19-2022,18-51-5,135,depth_duration_stimuli/000375_2014-06-08_11-17-29_260595134347_rgbf000133-resize_2/000375_2014-06-08_11-17-29_260595134347_rgbf000133-resize-original.jpg,125,4.718,7,1655,125,feet,jsons/VE125_randls_77_rotated.json,350069,510844,45,Man
135,804396,DepthScenes,duration_manipulation_targetAtFixation,jsons/VE125_randls_77_rotated.json,http://54.235.29.9/FacialAge/BNav_EC2/DepthDuration/v2_depth_duration_MTurk/v2_DepthDuration_HTML.html#120,120,1023,980,2048,1152,9-19-2022,18-51-5,136,depth_duration_stimuli/002340_2014-06-28_20-05-46_260595134347_rgbf000113-resize_0/002340_2014-06-28_20-05-46_260595134347_rgbf000113-resize_0-target.png,125,2.4735,5,1455,125,feet,jsons/VE125_randls_77_rotated.json,350069,510844,45,Man
136,804396,DepthScenes,duration_manipulation_targetAtFixation,jsons/VE125_randls_77_rotated.json,http://54.235.29.9/FacialAge/BNav_EC2/DepthDuration/v2_depth_duration_MTurk/v2_DepthDuration_HTML.html#120,120,1023,980,2048,1152,9-19-2022,18-51-5,137,depth_duration_stimuli/001016_2014-06-09_16-16-10_260595134347_rgbf000112-resize_5/001016_2014-06-09_16-16-10_260595134347_rgbf000112-resize_5-target.png,125,1.6565,4,1836,124,feet,jsons/VE125_randls_77_rotated.json,350069,510844,45,Man
137,804396,DepthScenes,duration_manipulation_targetAtFixation,jsons/VE125_randls_77_rotated.json,http://54.235.29.9/FacialAge/BNav_EC2/DepthDuration/v2_depth_duration_MTurk/v2_DepthDuration_HTML.html#120,120,1023,980,2048,1152,9-19-2022,18-51-5,138,depth_duration_stimuli/002995_2014-06-15_12-31-26_094959634447_rgbf000150-resize_1/002995_2014-06-15_12-31-26_094959634447_rgbf000150-resize_1-target.png,125,3.8360000000000003,6,1388,127,feet,jsons/VE125_randls_77_rotated.json,350069,510844,45,Man
138,804396,DepthScenes,duration_manipulation_targetAtFixation,jsons/VE125_randls_77_rotated.json,http://54.235.29.9/FacialAge/BNav_EC2/DepthDuration/v2_depth_duration_MTurk/v2_DepthDuration_HTML.html#120,120,1023,980,2048,1152,9-19-2022,18-51-5,139,depth_duration_stimuli/002748_2014-06-22_19-07-22_094959634447_rgbf000078-resize_1/002748_2014-06-22_19-07-22_094959634447_rgbf000078-resize_1-target.png,125,4.6705,4,2466,122,feet,jsons/VE125_randls_77_rotated.json,350069,510844,45,Man
139,804396,DepthScenes,duration_manipulation_targetAtFixation,jsons/VE125_randls_77_rotated.json,http://54.235.29.9/FacialAge/BNav_EC2/DepthDuration/v2_depth_duration_MTurk/v2_DepthDuration_HTML.html#120,120,1023,980,2048,1152,9-19-2022,18-51-5,140,depth_duration_stimuli/002639_2014-06-24_14-51-37_094959634447_rgbf000074-resize_4/002639_2014-06-24_14-51-37_094959634447_rgbf000074-resize_4-target.png,125,4.0375,5,1971,123,feet,jsons/VE125_randls_77_rotated.json,350069,510844,45,Man
140,804396,DepthScenes,duration_manipulation_targetAtFixation,jsons/VE125_randls_77_rotated.json,http://54.235.29.9/FacialAge/BNav_EC2/DepthDuration/v2_depth_duration_MTurk/v2_DepthDuration_HTML.html#120,120,1023,980,2048,1152,9-19-2022,18-51-5,141,depth_duration_stimuli/003292_2014-05-14_21-53-49_094959634447_rgbf000100-resize_2/003292_2014-05-14_21-53-49_094959634447_rgbf000100-resize_2-target.png,125,3.4815,4,1274,123,feet,jsons/VE125_randls_77_rotated.json,350069,510844,45,Man
141,804396,DepthScenes,duration_manipulation_targetAtFixation,jsons/VE125_randls_77_rotated.json,http://54.235.29.9/FacialAge/BNav_EC2/DepthDuration/v2_depth_duration_MTurk/v2_DepthDuration_HTML.html#120,120,1023,980,2048,1152,9-19-2022,18-51-5,142,depth_duration_stimuli/002467_2014-06-28_20-38-07_260595134347_rgbf000026-resize_2/002467_2014-06-28_20-38-07_260595134347_rgbf000026-resize_2-target.png,125,4.742,3,2085,123,feet,jsons/VE125_randls_77_rotated.json,350069,510844,45,Man
142,804396,DepthScenes,duration_manipulation_targetAtFixation,jsons/VE125_randls_77_rotated.json,http://54.235.29.9/FacialAge/BNav_EC2/DepthDuration/v2_depth_duration_MTurk/v2_DepthDuration_HTML.html#120,120,1023,980,2048,1152,9-19-2022,18-51-5,143,depth_duration_stimuli/002570_2014-06-24_13-59-54_094959634447_rgbf000059-resize_0/002570_2014-06-24_13-59-54_094959634447_rgbf000059-resize_0-target.png,125,4.037,5,1813,124,feet,jsons/VE125_randls_77_rotated.json,350069,510844,45,Man
143,804396,DepthScenes,duration_manipulation_targetAtFixation,jsons/VE125_randls_77_rotated.json,http://54.235.29.9/FacialAge/BNav_EC2/DepthDuration/v2_depth_duration_MTurk/v2_DepthDuration_HTML.html#120,120,1023,980,2048,1152,9-19-2022,18-51-5,144,depth_duration_stimuli/003129_2014-05-12_10-48-10_094959634447_rgbf000100-resize_0/003129_2014-05-12_10-48-10_094959634447_rgbf000100-resize_0-target.png,125,4.9305,4,1364,122,feet,jsons/VE125_randls_77_rotated.json,350069,510844,45,Man
144,804396,DepthScenes,duration_manipulation_targetAtFixation,jsons/VE125_randls_77_rotated.json,http://54.235.29.9/FacialAge/BNav_EC2/DepthDuration/v2_depth_duration_MTurk/v2_DepthDuration_HTML.html#120,120,1023,980,2048,1152,9-19-2022,18-51-5,145,depth_duration_stimuli/000414_2014-06-04_19-49-13_260595134347_rgbf000044-resize_0/000414_2014-06-04_19-49-13_260595134347_rgbf000044-resize_0-target.png,125,4.329,6,1344,126,feet,jsons/VE125_randls_77_rotated.json,350069,510844,45,Man
145,804396,DepthScenes,duration_manipulation_targetAtFixation,jsons/VE125_randls_77_rotated.json,http://54.235.29.9/FacialAge/BNav_EC2/DepthDuration/v2_depth_duration_MTurk/v2_DepthDuration_HTML.html#120,120,1023,980,2048,1152,9-19-2022,18-51-5,146,depth_duration_stimuli/002949_2014-06-26_15-57-42_094959634447_rgbf000079-resize_1/002949_2014-06-26_15-57-42_094959634447_rgbf000079-resize_1-target.png,125,1.8915,4,2898,127,feet,jsons/VE125_randls_77_rotated.json,350069,510844,45,Man
146,804396,DepthScenes,duration_manipulation_targetAtFixation,jsons/VE125_randls_77_rotated.json,http://54.235.29.9/FacialAge/BNav_EC2/DepthDuration/v2_depth_duration_MTurk/v2_DepthDuration_HTML.html#120,120,1023,980,2048,1152,9-19-2022,18-51-5,147,depth_duration_stimuli/000522_2014-06-08_13-35-06_260595134347_rgbf000244-resize_1/000522_2014-06-08_13-35-06_260595134347_rgbf000244-resize_1-target.png,125,2.3715,5,1590,128,feet,jsons/VE125_randls_77_rotated.json,350069,510844,45,Man
147,804396,DepthScenes,duration_manipulation_targetAtFixation,jsons/VE125_randls_77_rotated.json,http://54.235.29.9/FacialAge/BNav_EC2/DepthDuration/v2_depth_duration_MTurk/v2_DepthDuration_HTML.html#120,120,1023,980,2048,1152,9-19-2022,18-51-5,148,depth_duration_stimuli/003587_2014-05-23_16-48-02_094959634447_rgbf002384-resize_2/003587_2014-05-23_16-48-02_094959634447_rgbf002384-resize_2-target.png,125,1.357,8,1384,123,feet,jsons/VE125_randls_77_rotated.json,350069,510844,45,Man
148,804396,DepthScenes,duration_manipulation_targetAtFixation,jsons/VE125_randls_77_rotated.json,http://54.235.29.9/FacialAge/BNav_EC2/DepthDuration/v2_depth_duration_MTurk/v2_DepthDuration_HTML.html#120,120,1023,980,2048,1152,9-19-2022,18-51-5,149,depth_duration_stimuli/001167_2014-06-17_15-38-07_260595134347_rgbf000108-resize_0/001167_2014-06-17_15-38-07_260595134347_rgbf000108-resize_0-target.png,125,1.8505,3,2604,129,feet,jsons/VE125_randls_77_rotated.json,350069,510844,45,Man
149,804396,DepthScenes,duration_manipulation_targetAtFixation,jsons/VE125_randls_77_rotated.json,http://54.235.29.9/FacialAge/BNav_EC2/DepthDuration/v2_depth_duration_MTurk/v2_DepthDuration_HTML.html#120,120,1023,980,2048,1152,9-19-2022,18-51-5,150,depth_duration_stimuli/001214_2014-06-17_16-13-55_260595134347_rgbf000111-resize_0/001214_2014-06-17_16-13-55_260595134347_rgbf000111-resize_0-target.png,125,2.6505,6,1997,127,feet,jsons/VE125_randls_77_rotated.json,350069,510844,45,Man
150,804396,DepthScenes,duration_manipulation_targetAtFixation,jsons/VE125_randls_77_rotated.json,http://54.235.29.9/FacialAge/BNav_EC2/DepthDuration/v2_depth_duration_MTurk/v2_DepthDuration_HTML.html#120,120,1023,980,2048,1152,9-19-2022,18-51-5,151,depth_duration_stimuli/000810_2014-06-08_17-20-01_260595134347_rgbf000105-resize_0/000810_2014-06-08_17-20-01_260595134347_rgbf000105-resize_0-target.png,125,1.4865,8,1861,127,feet,jsons/VE125_randls_77_rotated.json,350069,510844,45,Man
151,804396,DepthScenes,duration_manipulation_targetAtFixation,jsons/VE125_randls_77_rotated.json,http://54.235.29.9/FacialAge/BNav_EC2/DepthDuration/v2_depth_duration_MTurk/v2_DepthDuration_HTML.html#120,120,1023,980,2048,1152,9-19-2022,18-51-5,152,depth_duration_stimuli/000569_2014-06-09_22-51-47_260595134347_rgbf000141-resize_3/000569_2014-06-09_22-51-47_260595134347_rgbf000141-resize-original.jpg,125,4.512,3,1610,123,feet,jsons/VE125_randls_77_rotated.json,350069,510844,45,Man
152,804396,DepthScenes,duration_manipulation_targetAtFixation,jsons/VE125_randls_77_rotated.json,http://54.235.29.9/FacialAge/BNav_EC2/DepthDuration/v2_depth_duration_MTurk/v2_DepthDuration_HTML.html#120,120,1023,980,2048,1152,9-19-2022,18-51-5,153,depth_duration_stimuli/003423_2014-05-21_10-23-26_094959634447_rgbf002665-resize_2/003423_2014-05-21_10-23-26_094959634447_rgbf002665-resize_2-target.png,125,3.2575,5,1501,128,feet,jsons/VE125_randls_77_rotated.json,350069,510844,45,Man
153,804396,DepthScenes,duration_manipulation_targetAtFixation,jsons/VE125_randls_77_rotated.json,http://54.235.29.9/FacialAge/BNav_EC2/DepthDuration/v2_depth_duration_MTurk/v2_DepthDuration_HTML.html#120,120,1023,980,2048,1152,9-19-2022,18-51-5,154,depth_duration_stimuli/002905_2014-06-03_18-04-43_094959634447_rgbf000151-resize_2/002905_2014-06-03_18-04-43_094959634447_rgbf000151-resize_2-target.png,125,2.0295,8,1749,126,feet,jsons/VE125_randls_77_rotated.json,350069,510844,45,Man
154,804396,DepthScenes,duration_manipulation_targetAtFixation,jsons/VE125_randls_77_rotated.json,http://54.235.29.9/FacialAge/BNav_EC2/DepthDuration/v2_depth_duration_MTurk/v2_DepthDuration_HTML.html#120,120,1023,980,2048,1152,9-19-2022,18-51-5,155,depth_duration_stimuli/001392_2014-06-19_16-07-59_260595134347_rgbf000046-resize_1/001392_2014-06-19_16-07-59_260595134347_rgbf000046-resize_1-target.png,125,4.135,5,1546,127,feet,jsons/VE125_randls_77_rotated.json,350069,510844,45,Man
155,804396,DepthScenes,duration_manipulation_targetAtFixation,jsons/VE125_randls_77_rotated.json,http://54.235.29.9/FacialAge/BNav_EC2/DepthDuration/v2_depth_duration_MTurk/v2_DepthDuration_HTML.html#120,120,1023,980,2048,1152,9-19-2022,18-51-5,156,depth_duration_stimuli/001570_2014-06-20_17-21-09_260595134347_rgbf000135-resize_4/001570_2014-06-20_17-21-09_260595134347_rgbf000135-resize_4-target.png,125,4.467,4,1542,125,feet,jsons/VE125_randls_77_rotated.json,350069,510844,45,Man
156,804396,DepthScenes,duration_manipulation_targetAtFixation,jsons/VE125_randls_77_rotated.json,http://54.235.29.9/FacialAge/BNav_EC2/DepthDuration/v2_depth_duration_MTurk/v2_DepthDuration_HTML.html#120,120,1023,980,2048,1152,9-19-2022,18-51-5,157,depth_duration_stimuli/000709_2014-06-08_13-51-55_260595134347_rgbf000068-resize_3/000709_2014-06-08_13-51-55_260595134347_rgbf000068-resize_3-target.png,125,1.8030000000000002,7,1523,126,feet,jsons/VE125_randls_77_rotated.json,350069,510844,45,Man
157,804396,DepthScenes,duration_manipulation_targetAtFixation,jsons/VE125_randls_77_rotated.json,http://54.235.29.9/FacialAge/BNav_EC2/DepthDuration/v2_depth_duration_MTurk/v2_DepthDuration_HTML.html#120,120,1023,980,2048,1152,9-19-2022,18-51-5,158,depth_duration_stimuli/002057_2014-06-24_21-00-13_260595134347_rgbf000120-resize_1/002057_2014-06-24_21-00-13_260595134347_rgbf000120-resize_1-target.png,125,2.967,5,1456,126,feet,jsons/VE125_randls_77_rotated.json,350069,510844,45,Man
158,804396,DepthScenes,duration_manipulation_targetAtFixation,jsons/VE125_randls_77_rotated.json,http://54.235.29.9/FacialAge/BNav_EC2/DepthDuration/v2_depth_duration_MTurk/v2_DepthDuration_HTML.html#120,120,1023,980,2048,1152,9-19-2022,18-51-5,159,depth_duration_stimuli/001032_2014-06-08_13-23-17_260595134347_rgbf000021-resize_3/001032_2014-06-08_13-23-17_260595134347_rgbf000021-resize_3-target.png,125,3.2725,7,1522,124,feet,jsons/VE125_randls_77_rotated.json,350069,510844,45,Man
159,804396,DepthScenes,duration_manipulation_targetAtFixation,jsons/VE125_randls_77_rotated.json,http://54.235.29.9/FacialAge/BNav_EC2/DepthDuration/v2_depth_duration_MTurk/v2_DepthDuration_HTML.html#120,120,1023,980,2048,1152,9-19-2022,18-51-5,160,depth_duration_stimuli/001059_2014-06-08_21-53-27_260595134347_rgbf000061-resize_4/001059_2014-06-08_21-53-27_260595134347_rgbf000061-resize_4-target.png,125,2.4185,0,1863,129,feet,jsons/VE125_randls_77_rotated.json,350069,510844,45,Man
160,804396,DepthScenes,duration_manipulation_targetAtFixation,jsons/VE125_randls_77_rotated.json,http://54.235.29.9/FacialAge/BNav_EC2/DepthDuration/v2_depth_duration_MTurk/v2_DepthDuration_HTML.html#120,120,1023,980,2048,1152,9-19-2022,18-51-5,161,depth_duration_stimuli/002545_2014-06-24_13-38-53_094959634447_rgbf000080-resize_4/002545_2014-06-24_13-38-53_094959634447_rgbf000080-resize_4-target.png,125,1.9205,4,2027,126,feet,jsons/VE125_randls_77_rotated.json,350069,510844,45,Man
161,804396,DepthScenes,duration_manipulation_targetAtFixation,jsons/VE125_randls_77_rotated.json,http://54.235.29.9/FacialAge/BNav_EC2/DepthDuration/v2_depth_duration_MTurk/v2_DepthDuration_HTML.html#120,120,1023,980,2048,1152,9-19-2022,18-51-5,162,depth_duration_stimuli/001092_2014-06-15_17-34-58_260595134347_rgbf000171-resize_3/001092_2014-06-15_17-34-58_260595134347_rgbf000171-resize_3-target.png,125,2.6935,5,1670,127,feet,jsons/VE125_randls_77_rotated.json,350069,510844,45,Man
162,804396,DepthScenes,duration_manipulation_targetAtFixation,jsons/VE125_randls_77_rotated.json,http://54.235.29.9/FacialAge/BNav_EC2/DepthDuration/v2_depth_duration_MTurk/v2_DepthDuration_HTML.html#120,120,1023,980,2048,1152,9-19-2022,18-51-5,163,depth_duration_stimuli/002444_2014-06-28_20-32-08_260595134347_rgbf000027-resize_0/002444_2014-06-28_20-32-08_260595134347_rgbf000027-resize_0-target.png,125,4.388999999999999,4,2199,126,feet,jsons/VE125_randls_77_rotated.json,350069,510844,45,Man
163,804396,DepthScenes,duration_manipulation_targetAtFixation,jsons/VE125_randls_77_rotated.json,http://54.235.29.9/FacialAge/BNav_EC2/DepthDuration/v2_depth_duration_MTurk/v2_DepthDuration_HTML.html#120,120,1023,980,2048,1152,9-19-2022,18-51-5,164,depth_duration_stimuli/000436_2014-06-09_22-25-11_260595134347_rgbf000137-resize_1/000436_2014-06-09_22-25-11_260595134347_rgbf000137-resize_1-target.png,125,4.0705,7,2467,122,feet,jsons/VE125_randls_77_rotated.json,350069,510844,45,Man
