,subjID,experimentName,versionName,sequenceName,url,selected_row,windowWidth,windowHeight,screenWidth,screenHeight,startDate,startTime,trial,stimulus,duration,actual_depth,depth_estimate,trial_RT,log_sceneDuration,unitSelection,seq_filepath,experimentTime,totalTime,age,gender
0,804456,DepthScenes,duration_manipulation_targetAtFixation,jsons/VE125_randls_57_rotated.json,http://54.235.29.9/FacialAge/BNav_EC2/DepthDuration/v2_depth_duration_MTurk/v2_DepthDuration_HTML.html#306,306,1536,729,1536,864,9-3-2022,13-42-47,1,depth_duration_stimuli/003048_2014-06-15_13-49-43_094959634447_rgbf000150-resize_1/003048_2014-06-15_13-49-43_094959634447_rgbf000150-resize_1-target.png,125,4.0035,9,7368,124,meters,jsons/VE125_randls_57_rotated.json,2107324,2604888,59,Woman
1,804456,DepthScenes,duration_manipulation_targetAtFixation,jsons/VE125_randls_57_rotated.json,http://54.235.29.9/FacialAge/BNav_EC2/DepthDuration/v2_depth_duration_MTurk/v2_DepthDuration_HTML.html#306,306,1536,729,1536,864,9-3-2022,13-42-47,2,depth_duration_stimuli/002043_2014-06-24_20-29-38_260595134347_rgbf000039-resize_4/002043_2014-06-24_20-29-38_260595134347_rgbf000039-resize_4-target.png,125,2.8435,10,7438,125,meters,jsons/VE125_randls_57_rotated.json,2107324,2604888,59,Woman
2,804456,DepthScenes,duration_manipulation_targetAtFixation,jsons/VE125_randls_57_rotated.json,http://54.235.29.9/FacialAge/BNav_EC2/DepthDuration/v2_depth_duration_MTurk/v2_DepthDuration_HTML.html#306,306,1536,729,1536,864,9-3-2022,13-42-47,3,depth_duration_stimuli/002323_2014-06-28_20-01-54_260595134347_rgbf000051-resize_4/002323_2014-06-28_20-01-54_260595134347_rgbf000051-resize_4-target.png,125,3.7310000000000003,11,57507,123,meters,jsons/VE125_randls_57_rotated.json,2107324,2604888,59,Woman
3,804456,DepthScenes,duration_manipulation_targetAtFixation,jsons/VE125_randls_57_rotated.json,http://54.235.29.9/FacialAge/BNav_EC2/DepthDuration/v2_depth_duration_MTurk/v2_DepthDuration_HTML.html#306,306,1536,729,1536,864,9-3-2022,13-42-47,4,depth_duration_stimuli/000917_2014-06-09_22-45-29_260595134347_rgbf000149-resize_3/000917_2014-06-09_22-45-29_260595134347_rgbf000149-resize_3-target.png,125,4.1865,8,4328,125,meters,jsons/VE125_randls_57_rotated.json,2107324,2604888,59,Woman
4,804456,DepthScenes,duration_manipulation_targetAtFixation,jsons/VE125_randls_57_rotated.json,http://54.235.29.9/FacialAge/BNav_EC2/DepthDuration/v2_depth_duration_MTurk/v2_DepthDuration_HTML.html#306,306,1536,729,1536,864,9-3-2022,13-42-47,5,depth_duration_stimuli/002136_2014-06-25_21-18-03_260595134347_rgbf000109-resize_3/002136_2014-06-25_21-18-03_260595134347_rgbf000109-resize_3-target.png,125,1.9569999999999999,10,26044,124,meters,jsons/VE125_randls_57_rotated.json,2107324,2604888,59,Woman
5,804456,DepthScenes,duration_manipulation_targetAtFixation,jsons/VE125_randls_57_rotated.json,http://54.235.29.9/FacialAge/BNav_EC2/DepthDuration/v2_depth_duration_MTurk/v2_DepthDuration_HTML.html#306,306,1536,729,1536,864,9-3-2022,13-42-47,6,depth_duration_stimuli/002964_2014-06-08_17-46-11_094959634447_rgbf000091-resize_4/002964_2014-06-08_17-46-11_094959634447_rgbf000091-resize_4-target.png,125,1.6909999999999998,8,20705,124,meters,jsons/VE125_randls_57_rotated.json,2107324,2604888,59,Woman
6,804456,DepthScenes,duration_manipulation_targetAtFixation,jsons/VE125_randls_57_rotated.json,http://54.235.29.9/FacialAge/BNav_EC2/DepthDuration/v2_depth_duration_MTurk/v2_DepthDuration_HTML.html#306,306,1536,729,1536,864,9-3-2022,13-42-47,7,depth_duration_stimuli/000691_2014-06-08_13-08-50_260595134347_rgbf000132-resize_3/000691_2014-06-08_13-08-50_260595134347_rgbf000132-resize_3-target.png,125,4.1530000000000005,11,16021,125,meters,jsons/VE125_randls_57_rotated.json,2107324,2604888,59,Woman
7,804456,DepthScenes,duration_manipulation_targetAtFixation,jsons/VE125_randls_57_rotated.json,http://54.235.29.9/FacialAge/BNav_EC2/DepthDuration/v2_depth_duration_MTurk/v2_DepthDuration_HTML.html#306,306,1536,729,1536,864,9-3-2022,13-42-47,8,depth_duration_stimuli/002213_2014-06-28_18-37-58_260595134347_rgbf000055-resize_1/002213_2014-06-28_18-37-58_260595134347_rgbf000055-resize_1-target.png,125,3.62,9,6647,125,meters,jsons/VE125_randls_57_rotated.json,2107324,2604888,59,Woman
8,804456,DepthScenes,duration_manipulation_targetAtFixation,jsons/VE125_randls_57_rotated.json,http://54.235.29.9/FacialAge/BNav_EC2/DepthDuration/v2_depth_duration_MTurk/v2_DepthDuration_HTML.html#306,306,1536,729,1536,864,9-3-2022,13-42-47,9,depth_duration_stimuli/000137_2014-05-20_17-04-49_260595134347_rgbf000120-resize_1/000137_2014-05-20_17-04-49_260595134347_rgbf000120-resize_1-target.png,125,3.786,13,11933,125,meters,jsons/VE125_randls_57_rotated.json,2107324,2604888,59,Woman
9,804456,DepthScenes,duration_manipulation_targetAtFixation,jsons/VE125_randls_57_rotated.json,http://54.235.29.9/FacialAge/BNav_EC2/DepthDuration/v2_depth_duration_MTurk/v2_DepthDuration_HTML.html#306,306,1536,729,1536,864,9-3-2022,13-42-47,10,depth_duration_stimuli/000736_2014-06-08_18-24-15_260595134347_rgbf000206-resize_3/000736_2014-06-08_18-24-15_260595134347_rgbf000206-resize_3-target.png,125,3.515,8,7248,124,meters,jsons/VE125_randls_57_rotated.json,2107324,2604888,59,Woman
10,804456,DepthScenes,duration_manipulation_targetAtFixation,jsons/VE125_randls_57_rotated.json,http://54.235.29.9/FacialAge/BNav_EC2/DepthDuration/v2_depth_duration_MTurk/v2_DepthDuration_HTML.html#306,306,1536,729,1536,864,9-3-2022,13-42-47,11,depth_duration_stimuli/000854_2014-06-09_19-43-13_260595134347_rgbf000066-resize_0/000854_2014-06-09_19-43-13_260595134347_rgbf000066-resize_0-target.png,125,3.068,9,9309,124,meters,jsons/VE125_randls_57_rotated.json,2107324,2604888,59,Woman
11,804456,DepthScenes,duration_manipulation_targetAtFixation,jsons/VE125_randls_57_rotated.json,http://54.235.29.9/FacialAge/BNav_EC2/DepthDuration/v2_depth_duration_MTurk/v2_DepthDuration_HTML.html#306,306,1536,729,1536,864,9-3-2022,13-42-47,12,depth_duration_stimuli/000758_2014-06-08_22-05-08_260595134347_rgbf000085-resize_0/000758_2014-06-08_22-05-08_260595134347_rgbf000085-resize_0-target.png,125,3.3810000000000002,8,5182,125,meters,jsons/VE125_randls_57_rotated.json,2107324,2604888,59,Woman
12,804456,DepthScenes,duration_manipulation_targetAtFixation,jsons/VE125_randls_57_rotated.json,http://54.235.29.9/FacialAge/BNav_EC2/DepthDuration/v2_depth_duration_MTurk/v2_DepthDuration_HTML.html#306,306,1536,729,1536,864,9-3-2022,13-42-47,13,depth_duration_stimuli/000866_2014-06-09_20-45-42_260595134347_rgbf000139-resize_1/000866_2014-06-09_20-45-42_260595134347_rgbf000139-resize_1-target.png,125,3.2155,15,4967,127,meters,jsons/VE125_randls_57_rotated.json,2107324,2604888,59,Woman
13,804456,DepthScenes,duration_manipulation_targetAtFixation,jsons/VE125_randls_57_rotated.json,http://54.235.29.9/FacialAge/BNav_EC2/DepthDuration/v2_depth_duration_MTurk/v2_DepthDuration_HTML.html#306,306,1536,729,1536,864,9-3-2022,13-42-47,14,depth_duration_stimuli/002989_2014-06-15_12-25-03_094959634447_rgbf000150-resize_3/002989_2014-06-15_12-25-03_094959634447_rgbf000150-resize_3-target.png,125,4.1975,9,9794,127,meters,jsons/VE125_randls_57_rotated.json,2107324,2604888,59,Woman
14,804456,DepthScenes,duration_manipulation_targetAtFixation,jsons/VE125_randls_57_rotated.json,http://54.235.29.9/FacialAge/BNav_EC2/DepthDuration/v2_depth_duration_MTurk/v2_DepthDuration_HTML.html#306,306,1536,729,1536,864,9-3-2022,13-42-47,15,depth_duration_stimuli/002425_2014-06-28_20-27-29_260595134347_rgbf000031-resize_8/002425_2014-06-28_20-27-29_260595134347_rgbf000031-resize_8-target.png,125,3.8960000000000004,12,5555,123,meters,jsons/VE125_randls_57_rotated.json,2107324,2604888,59,Woman
15,804456,DepthScenes,duration_manipulation_targetAtFixation,jsons/VE125_randls_57_rotated.json,http://54.235.29.9/FacialAge/BNav_EC2/DepthDuration/v2_depth_duration_MTurk/v2_DepthDuration_HTML.html#306,306,1536,729,1536,864,9-3-2022,13-42-47,16,depth_duration_stimuli/000642_2014-06-08_16-59-25_260595134347_rgbf000098-resize_2/000642_2014-06-08_16-59-25_260595134347_rgbf000098-resize_2-target.png,125,2.8815,8,11096,124,meters,jsons/VE125_randls_57_rotated.json,2107324,2604888,59,Woman
16,804456,DepthScenes,duration_manipulation_targetAtFixation,jsons/VE125_randls_57_rotated.json,http://54.235.29.9/FacialAge/BNav_EC2/DepthDuration/v2_depth_duration_MTurk/v2_DepthDuration_HTML.html#306,306,1536,729,1536,864,9-3-2022,13-42-47,17,depth_duration_stimuli/001094_2014-06-15_17-36-00_260595134347_rgbf000205-resize_0/001094_2014-06-15_17-36-00_260595134347_rgbf000205-resize_0-target.png,125,4.2175,7,12787,124,meters,jsons/VE125_randls_57_rotated.json,2107324,2604888,59,Woman
17,804456,DepthScenes,duration_manipulation_targetAtFixation,jsons/VE125_randls_57_rotated.json,http://54.235.29.9/FacialAge/BNav_EC2/DepthDuration/v2_depth_duration_MTurk/v2_DepthDuration_HTML.html#306,306,1536,729,1536,864,9-3-2022,13-42-47,18,depth_duration_stimuli/000692_2014-06-08_13-09-42_260595134347_rgbf000199-resize_2/000692_2014-06-08_13-09-42_260595134347_rgbf000199-resize_2-target.png,125,3.661,8,4142,125,meters,jsons/VE125_randls_57_rotated.json,2107324,2604888,59,Woman
18,804456,DepthScenes,duration_manipulation_targetAtFixation,jsons/VE125_randls_57_rotated.json,http://54.235.29.9/FacialAge/BNav_EC2/DepthDuration/v2_depth_duration_MTurk/v2_DepthDuration_HTML.html#306,306,1536,729,1536,864,9-3-2022,13-42-47,19,depth_duration_stimuli/001498_2014-06-19_17-45-14_260595134347_rgbf000129-resize_4/001498_2014-06-19_17-45-14_260595134347_rgbf000129-resize-original.jpg,125,1.4075,14,32972,125,meters,jsons/VE125_randls_57_rotated.json,2107324,2604888,59,Woman
19,804456,DepthScenes,duration_manipulation_targetAtFixation,jsons/VE125_randls_57_rotated.json,http://54.235.29.9/FacialAge/BNav_EC2/DepthDuration/v2_depth_duration_MTurk/v2_DepthDuration_HTML.html#306,306,1536,729,1536,864,9-3-2022,13-42-47,20,depth_duration_stimuli/001132_2014-06-17_14-48-54_260595134347_rgbf000100-resize_2/001132_2014-06-17_14-48-54_260595134347_rgbf000100-resize_2-target.png,125,3.753,6,6374,126,meters,jsons/VE125_randls_57_rotated.json,2107324,2604888,59,Woman
20,804456,DepthScenes,duration_manipulation_targetAtFixation,jsons/VE125_randls_57_rotated.json,http://54.235.29.9/FacialAge/BNav_EC2/DepthDuration/v2_depth_duration_MTurk/v2_DepthDuration_HTML.html#306,306,1536,729,1536,864,9-3-2022,13-42-47,21,depth_duration_stimuli/001133_2014-06-17_14-49-16_260595134347_rgbf000100-resize_0/001133_2014-06-17_14-49-16_260595134347_rgbf000100-resize_0-target.png,125,4.2115,10,4609,124,meters,jsons/VE125_randls_57_rotated.json,2107324,2604888,59,Woman
21,804456,DepthScenes,duration_manipulation_targetAtFixation,jsons/VE125_randls_57_rotated.json,http://54.235.29.9/FacialAge/BNav_EC2/DepthDuration/v2_depth_duration_MTurk/v2_DepthDuration_HTML.html#306,306,1536,729,1536,864,9-3-2022,13-42-47,22,depth_duration_stimuli/001450_2014-06-19_17-02-03_260595134347_rgbf000203-resize_4/001450_2014-06-19_17-02-03_260595134347_rgbf000203-resize_4-target.png,125,4.0106666666667,8,18290,123,meters,jsons/VE125_randls_57_rotated.json,2107324,2604888,59,Woman
22,804456,DepthScenes,duration_manipulation_targetAtFixation,jsons/VE125_randls_57_rotated.json,http://54.235.29.9/FacialAge/BNav_EC2/DepthDuration/v2_depth_duration_MTurk/v2_DepthDuration_HTML.html#306,306,1536,729,1536,864,9-3-2022,13-42-47,23,depth_duration_stimuli/001449_2014-06-19_17-01-27_260595134347_rgbf000116-resize_2/001449_2014-06-19_17-01-27_260595134347_rgbf000116-resize_2-target.png,125,3.452,6,6684,123,meters,jsons/VE125_randls_57_rotated.json,2107324,2604888,59,Woman
23,804456,DepthScenes,duration_manipulation_targetAtFixation,jsons/VE125_randls_57_rotated.json,http://54.235.29.9/FacialAge/BNav_EC2/DepthDuration/v2_depth_duration_MTurk/v2_DepthDuration_HTML.html#306,306,1536,729,1536,864,9-3-2022,13-42-47,24,depth_duration_stimuli/001584_2014-06-20_11-07-43_260595134347_rgbf000002-resize_1/001584_2014-06-20_11-07-43_260595134347_rgbf000002-resize_1-target.png,125,3.53,15,11381,125,meters,jsons/VE125_randls_57_rotated.json,2107324,2604888,59,Woman
24,804456,DepthScenes,duration_manipulation_targetAtFixation,jsons/VE125_randls_57_rotated.json,http://54.235.29.9/FacialAge/BNav_EC2/DepthDuration/v2_depth_duration_MTurk/v2_DepthDuration_HTML.html#306,306,1536,729,1536,864,9-3-2022,13-42-47,25,depth_duration_stimuli/003621_2014-05-23_18-06-08_094959634447_rgbf000101-resize_1/003621_2014-05-23_18-06-08_094959634447_rgbf000101-resize_1-target.png,125,3.9835,6,9005,126,meters,jsons/VE125_randls_57_rotated.json,2107324,2604888,59,Woman
25,804456,DepthScenes,duration_manipulation_targetAtFixation,jsons/VE125_randls_57_rotated.json,http://54.235.29.9/FacialAge/BNav_EC2/DepthDuration/v2_depth_duration_MTurk/v2_DepthDuration_HTML.html#306,306,1536,729,1536,864,9-3-2022,13-42-47,26,depth_duration_stimuli/000742_2014-06-08_18-48-09_260595134347_rgbf000164-resize_4/000742_2014-06-08_18-48-09_260595134347_rgbf000164-resize_4-target.png,125,4.632,16,18226,125,meters,jsons/VE125_randls_57_rotated.json,2107324,2604888,59,Woman
26,804456,DepthScenes,duration_manipulation_targetAtFixation,jsons/VE125_randls_57_rotated.json,http://54.235.29.9/FacialAge/BNav_EC2/DepthDuration/v2_depth_duration_MTurk/v2_DepthDuration_HTML.html#306,306,1536,729,1536,864,9-3-2022,13-42-47,27,depth_duration_stimuli/001066_2014-06-08_22-03-20_260595134347_rgbf000066-resize_4/001066_2014-06-08_22-03-20_260595134347_rgbf000066-resize_4-target.png,125,4.2330000000000005,16,9575,125,meters,jsons/VE125_randls_57_rotated.json,2107324,2604888,59,Woman
27,804456,DepthScenes,duration_manipulation_targetAtFixation,jsons/VE125_randls_57_rotated.json,http://54.235.29.9/FacialAge/BNav_EC2/DepthDuration/v2_depth_duration_MTurk/v2_DepthDuration_HTML.html#306,306,1536,729,1536,864,9-3-2022,13-42-47,28,depth_duration_stimuli/001136_2014-06-17_15-19-41_260595134347_rgbf000076-resize_3/001136_2014-06-17_15-19-41_260595134347_rgbf000076-resize_3-target.png,125,1.8655,10,3271,122,meters,jsons/VE125_randls_57_rotated.json,2107324,2604888,59,Woman
28,804456,DepthScenes,duration_manipulation_targetAtFixation,jsons/VE125_randls_57_rotated.json,http://54.235.29.9/FacialAge/BNav_EC2/DepthDuration/v2_depth_duration_MTurk/v2_DepthDuration_HTML.html#306,306,1536,729,1536,864,9-3-2022,13-42-47,29,depth_duration_stimuli/001164_2014-06-17_15-35-46_260595134347_rgbf000085-resize_3/001164_2014-06-17_15-35-46_260595134347_rgbf000085-resize_3-target.png,125,2.354,8,9944,126,meters,jsons/VE125_randls_57_rotated.json,2107324,2604888,59,Woman
29,804456,DepthScenes,duration_manipulation_targetAtFixation,jsons/VE125_randls_57_rotated.json,http://54.235.29.9/FacialAge/BNav_EC2/DepthDuration/v2_depth_duration_MTurk/v2_DepthDuration_HTML.html#306,306,1536,729,1536,864,9-3-2022,13-42-47,30,depth_duration_stimuli/002072_2014-06-24_21-48-06_260595134347_rgbf000115-resize_0/002072_2014-06-24_21-48-06_260595134347_rgbf000115-resize-original.jpg,125,4.702,14,8085,124,meters,jsons/VE125_randls_57_rotated.json,2107324,2604888,59,Woman
30,804456,DepthScenes,duration_manipulation_targetAtFixation,jsons/VE125_randls_57_rotated.json,http://54.235.29.9/FacialAge/BNav_EC2/DepthDuration/v2_depth_duration_MTurk/v2_DepthDuration_HTML.html#306,306,1536,729,1536,864,9-3-2022,13-42-47,31,depth_duration_stimuli/003587_2014-05-23_16-48-02_094959634447_rgbf002384-resize_2/003587_2014-05-23_16-48-02_094959634447_rgbf002384-resize_2-target.png,125,1.357,10,4139,125,meters,jsons/VE125_randls_57_rotated.json,2107324,2604888,59,Woman
31,804456,DepthScenes,duration_manipulation_targetAtFixation,jsons/VE125_randls_57_rotated.json,http://54.235.29.9/FacialAge/BNav_EC2/DepthDuration/v2_depth_duration_MTurk/v2_DepthDuration_HTML.html#306,306,1536,729,1536,864,9-3-2022,13-42-47,32,depth_duration_stimuli/001167_2014-06-17_15-38-07_260595134347_rgbf000108-resize_0/001167_2014-06-17_15-38-07_260595134347_rgbf000108-resize_0-target.png,125,1.8505,9,4576,125,meters,jsons/VE125_randls_57_rotated.json,2107324,2604888,59,Woman
32,804456,DepthScenes,duration_manipulation_targetAtFixation,jsons/VE125_randls_57_rotated.json,http://54.235.29.9/FacialAge/BNav_EC2/DepthDuration/v2_depth_duration_MTurk/v2_DepthDuration_HTML.html#306,306,1536,729,1536,864,9-3-2022,13-42-47,33,depth_duration_stimuli/002344_2014-06-28_20-06-29_260595134347_rgbf000030-resize_1/002344_2014-06-28_20-06-29_260595134347_rgbf000030-resize_1-target.png,125,1.5795,7,7556,124,meters,jsons/VE125_randls_57_rotated.json,2107324,2604888,59,Woman
33,804456,DepthScenes,duration_manipulation_targetAtFixation,jsons/VE125_randls_57_rotated.json,http://54.235.29.9/FacialAge/BNav_EC2/DepthDuration/v2_depth_duration_MTurk/v2_DepthDuration_HTML.html#306,306,1536,729,1536,864,9-3-2022,13-42-47,34,depth_duration_stimuli/002725_2014-06-22_11-47-51_094959634447_rgbf000070-resize_1/002725_2014-06-22_11-47-51_094959634447_rgbf000070-resize_1-target.png,125,2.195,8,9055,125,meters,jsons/VE125_randls_57_rotated.json,2107324,2604888,59,Woman
34,804456,DepthScenes,duration_manipulation_targetAtFixation,jsons/VE125_randls_57_rotated.json,http://54.235.29.9/FacialAge/BNav_EC2/DepthDuration/v2_depth_duration_MTurk/v2_DepthDuration_HTML.html#306,306,1536,729,1536,864,9-3-2022,13-42-47,35,depth_duration_stimuli/000749_2014-06-08_21-55-06_260595134347_rgbf000070-resize_2/000749_2014-06-08_21-55-06_260595134347_rgbf000070-resize_2-target.png,125,2.331,10,4831,124,meters,jsons/VE125_randls_57_rotated.json,2107324,2604888,59,Woman
35,804456,DepthScenes,duration_manipulation_targetAtFixation,jsons/VE125_randls_57_rotated.json,http://54.235.29.9/FacialAge/BNav_EC2/DepthDuration/v2_depth_duration_MTurk/v2_DepthDuration_HTML.html#306,306,1536,729,1536,864,9-3-2022,13-42-47,36,depth_duration_stimuli/002788_2014-06-22_19-36-03_094959634447_rgbf000088-resize_2/002788_2014-06-22_19-36-03_094959634447_rgbf000088-resize_2-target.png,125,1.6465,15,9042,124,meters,jsons/VE125_randls_57_rotated.json,2107324,2604888,59,Woman
36,804456,DepthScenes,duration_manipulation_targetAtFixation,jsons/VE125_randls_57_rotated.json,http://54.235.29.9/FacialAge/BNav_EC2/DepthDuration/v2_depth_duration_MTurk/v2_DepthDuration_HTML.html#306,306,1536,729,1536,864,9-3-2022,13-42-47,37,depth_duration_stimuli/002545_2014-06-24_13-38-53_094959634447_rgbf000080-resize_4/002545_2014-06-24_13-38-53_094959634447_rgbf000080-resize_4-target.png,125,1.9205,10,33525,103,meters,jsons/VE125_randls_57_rotated.json,2107324,2604888,59,Woman
37,804456,DepthScenes,duration_manipulation_targetAtFixation,jsons/VE125_randls_57_rotated.json,http://54.235.29.9/FacialAge/BNav_EC2/DepthDuration/v2_depth_duration_MTurk/v2_DepthDuration_HTML.html#306,306,1536,729,1536,864,9-3-2022,13-42-47,38,depth_duration_stimuli/001092_2014-06-15_17-34-58_260595134347_rgbf000171-resize_3/001092_2014-06-15_17-34-58_260595134347_rgbf000171-resize_3-target.png,125,2.6935,14,18035,124,meters,jsons/VE125_randls_57_rotated.json,2107324,2604888,59,Woman
38,804456,DepthScenes,duration_manipulation_targetAtFixation,jsons/VE125_randls_57_rotated.json,http://54.235.29.9/FacialAge/BNav_EC2/DepthDuration/v2_depth_duration_MTurk/v2_DepthDuration_HTML.html#306,306,1536,729,1536,864,9-3-2022,13-42-47,39,depth_duration_stimuli/002199_2014-06-28_18-33-56_260595134347_rgbf000074-resize_0/002199_2014-06-28_18-33-56_260595134347_rgbf000074-resize_0-target.png,125,1.996,10,9253,126,meters,jsons/VE125_randls_57_rotated.json,2107324,2604888,59,Woman
39,804456,DepthScenes,duration_manipulation_targetAtFixation,jsons/VE125_randls_57_rotated.json,http://54.235.29.9/FacialAge/BNav_EC2/DepthDuration/v2_depth_duration_MTurk/v2_DepthDuration_HTML.html#306,306,1536,729,1536,864,9-3-2022,13-42-47,40,depth_duration_stimuli/001056_2014-06-08_18-46-44_260595134347_rgbf000068-resize_0/001056_2014-06-08_18-46-44_260595134347_rgbf000068-resize_0-target.png,125,2.6625,19,30069,124,meters,jsons/VE125_randls_57_rotated.json,2107324,2604888,59,Woman
40,804456,DepthScenes,duration_manipulation_targetAtFixation,jsons/VE125_randls_57_rotated.json,http://54.235.29.9/FacialAge/BNav_EC2/DepthDuration/v2_depth_duration_MTurk/v2_DepthDuration_HTML.html#306,306,1536,729,1536,864,9-3-2022,13-42-47,41,depth_duration_stimuli/003495_2014-05-21_16-01-51_094959634447_rgbf000100-resize_3/003495_2014-05-21_16-01-51_094959634447_rgbf000100-resize_3-target.png,125,1.6255,10,6914,125,meters,jsons/VE125_randls_57_rotated.json,2107324,2604888,59,Woman
41,804456,DepthScenes,duration_manipulation_targetAtFixation,jsons/VE125_randls_57_rotated.json,http://54.235.29.9/FacialAge/BNav_EC2/DepthDuration/v2_depth_duration_MTurk/v2_DepthDuration_HTML.html#306,306,1536,729,1536,864,9-3-2022,13-42-47,42,depth_duration_stimuli/001244_2014-06-17_16-47-45_260595134347_rgbf000030-resize_4/001244_2014-06-17_16-47-45_260595134347_rgbf000030-resize_4-target.png,125,2.0425,11,7520,123,meters,jsons/VE125_randls_57_rotated.json,2107324,2604888,59,Woman
42,804456,DepthScenes,duration_manipulation_targetAtFixation,jsons/VE125_randls_57_rotated.json,http://54.235.29.9/FacialAge/BNav_EC2/DepthDuration/v2_depth_duration_MTurk/v2_DepthDuration_HTML.html#306,306,1536,729,1536,864,9-3-2022,13-42-47,43,depth_duration_stimuli/000483_2014-06-09_20-41-45_260595134347_rgbf000116-resize_4/000483_2014-06-09_20-41-45_260595134347_rgbf000116-resize_4-target.png,125,1.337,8,16019,125,meters,jsons/VE125_randls_57_rotated.json,2107324,2604888,59,Woman
43,804456,DepthScenes,duration_manipulation_targetAtFixation,jsons/VE125_randls_57_rotated.json,http://54.235.29.9/FacialAge/BNav_EC2/DepthDuration/v2_depth_duration_MTurk/v2_DepthDuration_HTML.html#306,306,1536,729,1536,864,9-3-2022,13-42-47,44,depth_duration_stimuli/000469_2014-06-09_19-42-10_260595134347_rgbf000081-resize_1/000469_2014-06-09_19-42-10_260595134347_rgbf000081-resize_1-target.png,125,1.652,9,6783,125,meters,jsons/VE125_randls_57_rotated.json,2107324,2604888,59,Woman
44,804456,DepthScenes,duration_manipulation_targetAtFixation,jsons/VE125_randls_57_rotated.json,http://54.235.29.9/FacialAge/BNav_EC2/DepthDuration/v2_depth_duration_MTurk/v2_DepthDuration_HTML.html#306,306,1536,729,1536,864,9-3-2022,13-42-47,45,depth_duration_stimuli/002750_2014-06-22_19-08-03_094959634447_rgbf000094-resize_4/002750_2014-06-22_19-08-03_094959634447_rgbf000094-resize_4-target.png,125,2.354,7,23912,125,meters,jsons/VE125_randls_57_rotated.json,2107324,2604888,59,Woman
45,804456,DepthScenes,duration_manipulation_targetAtFixation,jsons/VE125_randls_57_rotated.json,http://54.235.29.9/FacialAge/BNav_EC2/DepthDuration/v2_depth_duration_MTurk/v2_DepthDuration_HTML.html#306,306,1536,729,1536,864,9-3-2022,13-42-47,46,depth_duration_stimuli/002549_2014-06-24_13-41-39_094959634447_rgbf000022-resize_3/002549_2014-06-24_13-41-39_094959634447_rgbf000022-resize_3-target.png,125,1.476,10,18997,124,meters,jsons/VE125_randls_57_rotated.json,2107324,2604888,59,Woman
46,804456,DepthScenes,duration_manipulation_targetAtFixation,jsons/VE125_randls_57_rotated.json,http://54.235.29.9/FacialAge/BNav_EC2/DepthDuration/v2_depth_duration_MTurk/v2_DepthDuration_HTML.html#306,306,1536,729,1536,864,9-3-2022,13-42-47,47,depth_duration_stimuli/002467_2014-06-28_20-38-07_260595134347_rgbf000026-resize_2/002467_2014-06-28_20-38-07_260595134347_rgbf000026-resize_2-target.png,125,4.742,8,4511,125,meters,jsons/VE125_randls_57_rotated.json,2107324,2604888,59,Woman
47,804456,DepthScenes,duration_manipulation_targetAtFixation,jsons/VE125_randls_57_rotated.json,http://54.235.29.9/FacialAge/BNav_EC2/DepthDuration/v2_depth_duration_MTurk/v2_DepthDuration_HTML.html#306,306,1536,729,1536,864,9-3-2022,13-42-47,48,depth_duration_stimuli/002570_2014-06-24_13-59-54_094959634447_rgbf000059-resize_0/002570_2014-06-24_13-59-54_094959634447_rgbf000059-resize_0-target.png,125,4.037,3,3059,124,meters,jsons/VE125_randls_57_rotated.json,2107324,2604888,59,Woman
48,804456,DepthScenes,duration_manipulation_targetAtFixation,jsons/VE125_randls_57_rotated.json,http://54.235.29.9/FacialAge/BNav_EC2/DepthDuration/v2_depth_duration_MTurk/v2_DepthDuration_HTML.html#306,306,1536,729,1536,864,9-3-2022,13-42-47,49,depth_duration_stimuli/001170_2014-06-17_15-43-44_260595134347_rgbf000096-resize_6/001170_2014-06-17_15-43-44_260595134347_rgbf000096-resize-original.jpg,125,1.1909999999999998,9,20991,125,meters,jsons/VE125_randls_57_rotated.json,2107324,2604888,59,Woman
49,804456,DepthScenes,duration_manipulation_targetAtFixation,jsons/VE125_randls_57_rotated.json,http://54.235.29.9/FacialAge/BNav_EC2/DepthDuration/v2_depth_duration_MTurk/v2_DepthDuration_HTML.html#306,306,1536,729,1536,864,9-3-2022,13-42-47,50,depth_duration_stimuli/000780_2014-06-08_22-28-29_260595134347_rgbf000126-resize_1/000780_2014-06-08_22-28-29_260595134347_rgbf000126-resize_1-target.png,125,3.3825,10,4161,124,meters,jsons/VE125_randls_57_rotated.json,2107324,2604888,59,Woman
50,804456,DepthScenes,duration_manipulation_targetAtFixation,jsons/VE125_randls_57_rotated.json,http://54.235.29.9/FacialAge/BNav_EC2/DepthDuration/v2_depth_duration_MTurk/v2_DepthDuration_HTML.html#306,306,1536,729,1536,864,9-3-2022,13-42-47,51,depth_duration_stimuli/002445_2014-06-28_20-32-16_260595134347_rgbf000029-resize_4/002445_2014-06-28_20-32-16_260595134347_rgbf000029-resize_4-target.png,125,2.5315,15,3570,124,meters,jsons/VE125_randls_57_rotated.json,2107324,2604888,59,Woman
51,804456,DepthScenes,duration_manipulation_targetAtFixation,jsons/VE125_randls_57_rotated.json,http://54.235.29.9/FacialAge/BNav_EC2/DepthDuration/v2_depth_duration_MTurk/v2_DepthDuration_HTML.html#306,306,1536,729,1536,864,9-3-2022,13-42-47,52,depth_duration_stimuli/001235_2014-06-17_16-37-36_260595134347_rgbf000084-resize_4/001235_2014-06-17_16-37-36_260595134347_rgbf000084-resize_4-target.png,125,3.6605,4,9522,124,meters,jsons/VE125_randls_57_rotated.json,2107324,2604888,59,Woman
52,804456,DepthScenes,duration_manipulation_targetAtFixation,jsons/VE125_randls_57_rotated.json,http://54.235.29.9/FacialAge/BNav_EC2/DepthDuration/v2_depth_duration_MTurk/v2_DepthDuration_HTML.html#306,306,1536,729,1536,864,9-3-2022,13-42-47,53,depth_duration_stimuli/000788_2014-06-08_22-34-36_260595134347_rgbf000131-resize_1/000788_2014-06-08_22-34-36_260595134347_rgbf000131-resize_1-target.png,125,3.359,8,5565,124,meters,jsons/VE125_randls_57_rotated.json,2107324,2604888,59,Woman
53,804456,DepthScenes,duration_manipulation_targetAtFixation,jsons/VE125_randls_57_rotated.json,http://54.235.29.9/FacialAge/BNav_EC2/DepthDuration/v2_depth_duration_MTurk/v2_DepthDuration_HTML.html#306,306,1536,729,1536,864,9-3-2022,13-42-47,54,depth_duration_stimuli/000943_2014-06-09_19-31-07_260595134347_rgbf000128-resize_1/000943_2014-06-09_19-31-07_260595134347_rgbf000128-resize_1-target.png,125,1.9765,15,23850,125,meters,jsons/VE125_randls_57_rotated.json,2107324,2604888,59,Woman
54,804456,DepthScenes,duration_manipulation_targetAtFixation,jsons/VE125_randls_57_rotated.json,http://54.235.29.9/FacialAge/BNav_EC2/DepthDuration/v2_depth_duration_MTurk/v2_DepthDuration_HTML.html#306,306,1536,729,1536,864,9-3-2022,13-42-47,55,depth_duration_stimuli/003070_2014-06-15_14-58-27_094959634447_rgbf000150-resize_3/003070_2014-06-15_14-58-27_094959634447_rgbf000150-resize_3-target.png,125,2.9415,12,4976,125,meters,jsons/VE125_randls_57_rotated.json,2107324,2604888,59,Woman
55,804456,DepthScenes,duration_manipulation_targetAtFixation,jsons/VE125_randls_57_rotated.json,http://54.235.29.9/FacialAge/BNav_EC2/DepthDuration/v2_depth_duration_MTurk/v2_DepthDuration_HTML.html#306,306,1536,729,1536,864,9-3-2022,13-42-47,56,depth_duration_stimuli/003081_2014-06-15_15-19-16_094959634447_rgbf000150-resize_1/003081_2014-06-15_15-19-16_094959634447_rgbf000150-resize_1-target.png,125,3.9125,9,34729,124,meters,jsons/VE125_randls_57_rotated.json,2107324,2604888,59,Woman
56,804456,DepthScenes,duration_manipulation_targetAtFixation,jsons/VE125_randls_57_rotated.json,http://54.235.29.9/FacialAge/BNav_EC2/DepthDuration/v2_depth_duration_MTurk/v2_DepthDuration_HTML.html#306,306,1536,729,1536,864,9-3-2022,13-42-47,57,depth_duration_stimuli/001417_2014-06-19_16-25-36_260595134347_rgbf000115-resize_5/001417_2014-06-19_16-25-36_260595134347_rgbf000115-resize_5-target.png,125,4.6255,5,4096,123,meters,jsons/VE125_randls_57_rotated.json,2107324,2604888,59,Woman
57,804456,DepthScenes,duration_manipulation_targetAtFixation,jsons/VE125_randls_57_rotated.json,http://54.235.29.9/FacialAge/BNav_EC2/DepthDuration/v2_depth_duration_MTurk/v2_DepthDuration_HTML.html#306,306,1536,729,1536,864,9-3-2022,13-42-47,58,depth_duration_stimuli/002875_2014-06-01_15-19-00_094959634447_rgbf000151-resize_1/002875_2014-06-01_15-19-00_094959634447_rgbf000151-resize_1-target.png,125,1.9675,10,114090,126,meters,jsons/VE125_randls_57_rotated.json,2107324,2604888,59,Woman
58,804456,DepthScenes,duration_manipulation_targetAtFixation,jsons/VE125_randls_57_rotated.json,http://54.235.29.9/FacialAge/BNav_EC2/DepthDuration/v2_depth_duration_MTurk/v2_DepthDuration_HTML.html#306,306,1536,729,1536,864,9-3-2022,13-42-47,59,depth_duration_stimuli/001011_2014-06-08_23-18-54_260595134347_rgbf000044-resize_4/001011_2014-06-08_23-18-54_260595134347_rgbf000044-resize_4-target.png,125,2.4730000000000003,15,10082,125,meters,jsons/VE125_randls_57_rotated.json,2107324,2604888,59,Woman
59,804456,DepthScenes,duration_manipulation_targetAtFixation,jsons/VE125_randls_57_rotated.json,http://54.235.29.9/FacialAge/BNav_EC2/DepthDuration/v2_depth_duration_MTurk/v2_DepthDuration_HTML.html#306,306,1536,729,1536,864,9-3-2022,13-42-47,60,depth_duration_stimuli/003228_2014-05-14_13-42-35_094959634447_rgbf000101-resize_1/003228_2014-05-14_13-42-35_094959634447_rgbf000101-resize_1-target.png,125,1.9680000000000002,9,23706,123,meters,jsons/VE125_randls_57_rotated.json,2107324,2604888,59,Woman
60,804456,DepthScenes,duration_manipulation_targetAtFixation,jsons/VE125_randls_57_rotated.json,http://54.235.29.9/FacialAge/BNav_EC2/DepthDuration/v2_depth_duration_MTurk/v2_DepthDuration_HTML.html#306,306,1536,729,1536,864,9-3-2022,13-42-47,61,depth_duration_stimuli/002600_2014-06-24_14-27-04_094959634447_rgbf000074-resize_2/002600_2014-06-24_14-27-04_094959634447_rgbf000074-resize_2-target.png,125,2.7575,5,99843,123,meters,jsons/VE125_randls_57_rotated.json,2107324,2604888,59,Woman
61,804456,DepthScenes,duration_manipulation_targetAtFixation,jsons/VE125_randls_57_rotated.json,http://54.235.29.9/FacialAge/BNav_EC2/DepthDuration/v2_depth_duration_MTurk/v2_DepthDuration_HTML.html#306,306,1536,729,1536,864,9-3-2022,13-42-47,62,depth_duration_stimuli/002660_2014-06-13_15-44-18_094959634447_rgbf001878-resize_2/002660_2014-06-13_15-44-18_094959634447_rgbf001878-resize_2-target.png,125,3.576,7,13502,125,meters,jsons/VE125_randls_57_rotated.json,2107324,2604888,59,Woman
62,804456,DepthScenes,duration_manipulation_targetAtFixation,jsons/VE125_randls_57_rotated.json,http://54.235.29.9/FacialAge/BNav_EC2/DepthDuration/v2_depth_duration_MTurk/v2_DepthDuration_HTML.html#306,306,1536,729,1536,864,9-3-2022,13-42-47,63,depth_duration_stimuli/002153_2014-06-25_21-27-18_260595134347_rgbf000038-resize_5/002153_2014-06-25_21-27-18_260595134347_rgbf000038-resize_5-target.png,125,2.505,8,59879,125,meters,jsons/VE125_randls_57_rotated.json,2107324,2604888,59,Woman
63,804456,DepthScenes,duration_manipulation_targetAtFixation,jsons/VE125_randls_57_rotated.json,http://54.235.29.9/FacialAge/BNav_EC2/DepthDuration/v2_depth_duration_MTurk/v2_DepthDuration_HTML.html#306,306,1536,729,1536,864,9-3-2022,13-42-47,64,depth_duration_stimuli/002637_2014-06-24_14-51-13_094959634447_rgbf000066-resize_4/002637_2014-06-24_14-51-13_094959634447_rgbf000066-resize_4-target.png,125,1.9955,9,4812,126,meters,jsons/VE125_randls_57_rotated.json,2107324,2604888,59,Woman
64,804456,DepthScenes,duration_manipulation_targetAtFixation,jsons/VE125_randls_57_rotated.json,http://54.235.29.9/FacialAge/BNav_EC2/DepthDuration/v2_depth_duration_MTurk/v2_DepthDuration_HTML.html#306,306,1536,729,1536,864,9-3-2022,13-42-47,65,depth_duration_stimuli/003534_2014-05-22_15-06-10_094959634447_rgbf000102-resize_4/003534_2014-05-22_15-06-10_094959634447_rgbf000102-resize_4-target.png,125,1.426,10,6916,125,meters,jsons/VE125_randls_57_rotated.json,2107324,2604888,59,Woman
65,804456,DepthScenes,duration_manipulation_targetAtFixation,jsons/VE125_randls_57_rotated.json,http://54.235.29.9/FacialAge/BNav_EC2/DepthDuration/v2_depth_duration_MTurk/v2_DepthDuration_HTML.html#306,306,1536,729,1536,864,9-3-2022,13-42-47,66,depth_duration_stimuli/001540_2014-06-20_17-01-05_260595134347_rgbf000086-resize_2/001540_2014-06-20_17-01-05_260595134347_rgbf000086-resize-original.jpg,125,1.459,14,5696,123,meters,jsons/VE125_randls_57_rotated.json,2107324,2604888,59,Woman
66,804456,DepthScenes,duration_manipulation_targetAtFixation,jsons/VE125_randls_57_rotated.json,http://54.235.29.9/FacialAge/BNav_EC2/DepthDuration/v2_depth_duration_MTurk/v2_DepthDuration_HTML.html#306,306,1536,729,1536,864,9-3-2022,13-42-47,67,depth_duration_stimuli/000677_2014-06-08_23-10-32_260595134347_rgbf000158-resize_6/000677_2014-06-08_23-10-32_260595134347_rgbf000158-resize_6-target.png,125,3.556,17,6712,118,meters,jsons/VE125_randls_57_rotated.json,2107324,2604888,59,Woman
67,804456,DepthScenes,duration_manipulation_targetAtFixation,jsons/VE125_randls_57_rotated.json,http://54.235.29.9/FacialAge/BNav_EC2/DepthDuration/v2_depth_duration_MTurk/v2_DepthDuration_HTML.html#306,306,1536,729,1536,864,9-3-2022,13-42-47,68,depth_duration_stimuli/001029_2014-06-08_13-17-57_260595134347_rgbf000065-resize_1/001029_2014-06-08_13-17-57_260595134347_rgbf000065-resize_1-target.png,125,3.0835,15,3638,123,meters,jsons/VE125_randls_57_rotated.json,2107324,2604888,59,Woman
68,804456,DepthScenes,duration_manipulation_targetAtFixation,jsons/VE125_randls_57_rotated.json,http://54.235.29.9/FacialAge/BNav_EC2/DepthDuration/v2_depth_duration_MTurk/v2_DepthDuration_HTML.html#306,306,1536,729,1536,864,9-3-2022,13-42-47,69,depth_duration_stimuli/002340_2014-06-28_20-05-46_260595134347_rgbf000113-resize_0/002340_2014-06-28_20-05-46_260595134347_rgbf000113-resize_0-target.png,125,2.4735,8,4077,125,meters,jsons/VE125_randls_57_rotated.json,2107324,2604888,59,Woman
69,804456,DepthScenes,duration_manipulation_targetAtFixation,jsons/VE125_randls_57_rotated.json,http://54.235.29.9/FacialAge/BNav_EC2/DepthDuration/v2_depth_duration_MTurk/v2_DepthDuration_HTML.html#306,306,1536,729,1536,864,9-3-2022,13-42-47,70,depth_duration_stimuli/001016_2014-06-09_16-16-10_260595134347_rgbf000112-resize_5/001016_2014-06-09_16-16-10_260595134347_rgbf000112-resize_5-target.png,125,1.6565,8,167938,126,meters,jsons/VE125_randls_57_rotated.json,2107324,2604888,59,Woman
70,804456,DepthScenes,duration_manipulation_targetAtFixation,jsons/VE125_randls_57_rotated.json,http://54.235.29.9/FacialAge/BNav_EC2/DepthDuration/v2_depth_duration_MTurk/v2_DepthDuration_HTML.html#306,306,1536,729,1536,864,9-3-2022,13-42-47,71,depth_duration_stimuli/000191_2014-05-12_17-07-38_260595134347_rgbf000199-resize_0/000191_2014-05-12_17-07-38_260595134347_rgbf000199-resize_0-target.png,125,3.7995,10,5419,124,meters,jsons/VE125_randls_57_rotated.json,2107324,2604888,59,Woman
71,804456,DepthScenes,duration_manipulation_targetAtFixation,jsons/VE125_randls_57_rotated.json,http://54.235.29.9/FacialAge/BNav_EC2/DepthDuration/v2_depth_duration_MTurk/v2_DepthDuration_HTML.html#306,306,1536,729,1536,864,9-3-2022,13-42-47,72,depth_duration_stimuli/000493_2014-06-09_21-01-18_260595134347_rgbf000196-resize_3/000493_2014-06-09_21-01-18_260595134347_rgbf000196-resize_3-target.png,125,3.44,8,5237,125,meters,jsons/VE125_randls_57_rotated.json,2107324,2604888,59,Woman
72,804456,DepthScenes,duration_manipulation_targetAtFixation,jsons/VE125_randls_57_rotated.json,http://54.235.29.9/FacialAge/BNav_EC2/DepthDuration/v2_depth_duration_MTurk/v2_DepthDuration_HTML.html#306,306,1536,729,1536,864,9-3-2022,13-42-47,73,depth_duration_stimuli/003423_2014-05-21_10-23-26_094959634447_rgbf002665-resize_2/003423_2014-05-21_10-23-26_094959634447_rgbf002665-resize_2-target.png,125,3.2575,10,9577,124,meters,jsons/VE125_randls_57_rotated.json,2107324,2604888,59,Woman
73,804456,DepthScenes,duration_manipulation_targetAtFixation,jsons/VE125_randls_57_rotated.json,http://54.235.29.9/FacialAge/BNav_EC2/DepthDuration/v2_depth_duration_MTurk/v2_DepthDuration_HTML.html#306,306,1536,729,1536,864,9-3-2022,13-42-47,74,depth_duration_stimuli/002905_2014-06-03_18-04-43_094959634447_rgbf000151-resize_2/002905_2014-06-03_18-04-43_094959634447_rgbf000151-resize_2-target.png,125,2.0295,10,17470,123,meters,jsons/VE125_randls_57_rotated.json,2107324,2604888,59,Woman
74,804456,DepthScenes,duration_manipulation_targetAtFixation,jsons/VE125_randls_57_rotated.json,http://54.235.29.9/FacialAge/BNav_EC2/DepthDuration/v2_depth_duration_MTurk/v2_DepthDuration_HTML.html#306,306,1536,729,1536,864,9-3-2022,13-42-47,75,depth_duration_stimuli/001815_2014-06-26_20-52-55_260595134347_rgbf000020-resize_0/001815_2014-06-26_20-52-55_260595134347_rgbf000020-resize_0-target.png,125,3.3865,4,8789,123,meters,jsons/VE125_randls_57_rotated.json,2107324,2604888,59,Woman
75,804456,DepthScenes,duration_manipulation_targetAtFixation,jsons/VE125_randls_57_rotated.json,http://54.235.29.9/FacialAge/BNav_EC2/DepthDuration/v2_depth_duration_MTurk/v2_DepthDuration_HTML.html#306,306,1536,729,1536,864,9-3-2022,13-42-47,76,depth_duration_stimuli/001808_2014-06-26_20-50-58_260595134347_rgbf000029-resize_1/001808_2014-06-26_20-50-58_260595134347_rgbf000029-resize_1-target.png,125,4.249,8,7723,125,meters,jsons/VE125_randls_57_rotated.json,2107324,2604888,59,Woman
76,804456,DepthScenes,duration_manipulation_targetAtFixation,jsons/VE125_randls_57_rotated.json,http://54.235.29.9/FacialAge/BNav_EC2/DepthDuration/v2_depth_duration_MTurk/v2_DepthDuration_HTML.html#306,306,1536,729,1536,864,9-3-2022,13-42-47,77,depth_duration_stimuli/003490_2014-05-21_15-50-11_094959634447_rgbf000101-resize_3/003490_2014-05-21_15-50-11_094959634447_rgbf000101-resize_3-target.png,125,3.6445,7,24395,127,meters,jsons/VE125_randls_57_rotated.json,2107324,2604888,59,Woman
77,804456,DepthScenes,duration_manipulation_targetAtFixation,jsons/VE125_randls_57_rotated.json,http://54.235.29.9/FacialAge/BNav_EC2/DepthDuration/v2_depth_duration_MTurk/v2_DepthDuration_HTML.html#306,306,1536,729,1536,864,9-3-2022,13-42-47,78,depth_duration_stimuli/001175_2014-06-17_15-45-55_260595134347_rgbf000129-resize_4/001175_2014-06-17_15-45-55_260595134347_rgbf000129-resize_4-target.png,125,4.255,9,3933,124,meters,jsons/VE125_randls_57_rotated.json,2107324,2604888,59,Woman
78,804456,DepthScenes,duration_manipulation_targetAtFixation,jsons/VE125_randls_57_rotated.json,http://54.235.29.9/FacialAge/BNav_EC2/DepthDuration/v2_depth_duration_MTurk/v2_DepthDuration_HTML.html#306,306,1536,729,1536,864,9-3-2022,13-42-47,79,depth_duration_stimuli/000709_2014-06-08_13-51-55_260595134347_rgbf000068-resize_3/000709_2014-06-08_13-51-55_260595134347_rgbf000068-resize_3-target.png,125,1.8030000000000002,5,3519,124,meters,jsons/VE125_randls_57_rotated.json,2107324,2604888,59,Woman
79,804456,DepthScenes,duration_manipulation_targetAtFixation,jsons/VE125_randls_57_rotated.json,http://54.235.29.9/FacialAge/BNav_EC2/DepthDuration/v2_depth_duration_MTurk/v2_DepthDuration_HTML.html#306,306,1536,729,1536,864,9-3-2022,13-42-47,80,depth_duration_stimuli/002057_2014-06-24_21-00-13_260595134347_rgbf000120-resize_1/002057_2014-06-24_21-00-13_260595134347_rgbf000120-resize_1-target.png,125,2.967,6,3938,125,meters,jsons/VE125_randls_57_rotated.json,2107324,2604888,59,Woman
80,804456,DepthScenes,duration_manipulation_targetAtFixation,jsons/VE125_randls_57_rotated.json,http://54.235.29.9/FacialAge/BNav_EC2/DepthDuration/v2_depth_duration_MTurk/v2_DepthDuration_HTML.html#306,306,1536,729,1536,864,9-3-2022,13-42-47,81,depth_duration_stimuli/000457_2014-06-08_16-52-43_260595134347_rgbf000199-resize_1/000457_2014-06-08_16-52-43_260595134347_rgbf000199-resize_1-target.png,125,3.6489999999999996,11,7204,125,meters,jsons/VE125_randls_57_rotated.json,2107324,2604888,59,Woman
81,804456,DepthScenes,duration_manipulation_targetAtFixation,jsons/VE125_randls_57_rotated.json,http://54.235.29.9/FacialAge/BNav_EC2/DepthDuration/v2_depth_duration_MTurk/v2_DepthDuration_HTML.html#306,306,1536,729,1536,864,9-3-2022,13-42-47,82,depth_duration_stimuli/000929_2014-06-09_16-33-19_260595134347_rgbf000139-resize_0/000929_2014-06-09_16-33-19_260595134347_rgbf000139-resize_0-target.png,125,2.8680000000000003,15,2770,125,meters,jsons/VE125_randls_57_rotated.json,2107324,2604888,59,Woman
82,804456,DepthScenes,duration_manipulation_targetAtFixation,jsons/VE125_randls_57_rotated.json,http://54.235.29.9/FacialAge/BNav_EC2/DepthDuration/v2_depth_duration_MTurk/v2_DepthDuration_HTML.html#306,306,1536,729,1536,864,9-3-2022,13-42-47,83,depth_duration_stimuli/003010_2014-06-15_12-54-35_094959634447_rgbf000112-resize_0/003010_2014-06-15_12-54-35_094959634447_rgbf000112-resize_0-target.png,125,3.1185,8,2854,124,meters,jsons/VE125_randls_57_rotated.json,2107324,2604888,59,Woman
83,804456,DepthScenes,duration_manipulation_targetAtFixation,jsons/VE125_randls_57_rotated.json,http://54.235.29.9/FacialAge/BNav_EC2/DepthDuration/v2_depth_duration_MTurk/v2_DepthDuration_HTML.html#306,306,1536,729,1536,864,9-3-2022,13-42-47,84,depth_duration_stimuli/001810_2014-06-26_20-51-35_260595134347_rgbf000040-resize_3/001810_2014-06-26_20-51-35_260595134347_rgbf000040-resize_3-target.png,125,2.2525,10,22431,125,meters,jsons/VE125_randls_57_rotated.json,2107324,2604888,59,Woman
84,804456,DepthScenes,duration_manipulation_targetAtFixation,jsons/VE125_randls_57_rotated.json,http://54.235.29.9/FacialAge/BNav_EC2/DepthDuration/v2_depth_duration_MTurk/v2_DepthDuration_HTML.html#306,306,1536,729,1536,864,9-3-2022,13-42-47,85,depth_duration_stimuli/000927_2014-06-09_16-32-30_260595134347_rgbf000123-resize_3/000927_2014-06-09_16-32-30_260595134347_rgbf000123-resize_3-target.png,125,2.6785,8,8667,124,meters,jsons/VE125_randls_57_rotated.json,2107324,2604888,59,Woman
85,804456,DepthScenes,duration_manipulation_targetAtFixation,jsons/VE125_randls_57_rotated.json,http://54.235.29.9/FacialAge/BNav_EC2/DepthDuration/v2_depth_duration_MTurk/v2_DepthDuration_HTML.html#306,306,1536,729,1536,864,9-3-2022,13-42-47,86,depth_duration_stimuli/001110_2014-06-15_17-25-28_260595134347_rgbf000150-resize_1/001110_2014-06-15_17-25-28_260595134347_rgbf000150-resize_1-target.png,125,1.7115,10,3275,124,meters,jsons/VE125_randls_57_rotated.json,2107324,2604888,59,Woman
86,804456,DepthScenes,duration_manipulation_targetAtFixation,jsons/VE125_randls_57_rotated.json,http://54.235.29.9/FacialAge/BNav_EC2/DepthDuration/v2_depth_duration_MTurk/v2_DepthDuration_HTML.html#306,306,1536,729,1536,864,9-3-2022,13-42-47,87,depth_duration_stimuli/002949_2014-06-26_15-57-42_094959634447_rgbf000079-resize_1/002949_2014-06-26_15-57-42_094959634447_rgbf000079-resize_1-target.png,125,1.8915,7,7161,126,meters,jsons/VE125_randls_57_rotated.json,2107324,2604888,59,Woman
87,804456,DepthScenes,duration_manipulation_targetAtFixation,jsons/VE125_randls_57_rotated.json,http://54.235.29.9/FacialAge/BNav_EC2/DepthDuration/v2_depth_duration_MTurk/v2_DepthDuration_HTML.html#306,306,1536,729,1536,864,9-3-2022,13-42-47,88,depth_duration_stimuli/000522_2014-06-08_13-35-06_260595134347_rgbf000244-resize_1/000522_2014-06-08_13-35-06_260595134347_rgbf000244-resize_1-target.png,125,2.3715,10,41973,124,meters,jsons/VE125_randls_57_rotated.json,2107324,2604888,59,Woman
88,804456,DepthScenes,duration_manipulation_targetAtFixation,jsons/VE125_randls_57_rotated.json,http://54.235.29.9/FacialAge/BNav_EC2/DepthDuration/v2_depth_duration_MTurk/v2_DepthDuration_HTML.html#306,306,1536,729,1536,864,9-3-2022,13-42-47,89,depth_duration_stimuli/001032_2014-06-08_13-23-17_260595134347_rgbf000021-resize_3/001032_2014-06-08_13-23-17_260595134347_rgbf000021-resize_3-target.png,125,3.2725,8,8494,126,meters,jsons/VE125_randls_57_rotated.json,2107324,2604888,59,Woman
89,804456,DepthScenes,duration_manipulation_targetAtFixation,jsons/VE125_randls_57_rotated.json,http://54.235.29.9/FacialAge/BNav_EC2/DepthDuration/v2_depth_duration_MTurk/v2_DepthDuration_HTML.html#306,306,1536,729,1536,864,9-3-2022,13-42-47,90,depth_duration_stimuli/001059_2014-06-08_21-53-27_260595134347_rgbf000061-resize_4/001059_2014-06-08_21-53-27_260595134347_rgbf000061-resize_4-target.png,125,2.4185,17,7113,125,meters,jsons/VE125_randls_57_rotated.json,2107324,2604888,59,Woman
90,804456,DepthScenes,duration_manipulation_targetAtFixation,jsons/VE125_randls_57_rotated.json,http://54.235.29.9/FacialAge/BNav_EC2/DepthDuration/v2_depth_duration_MTurk/v2_DepthDuration_HTML.html#306,306,1536,729,1536,864,9-3-2022,13-42-47,91,depth_duration_stimuli/001650_2014-06-20_12-09-00_260595134347_rgbf000087-resize_3/001650_2014-06-20_12-09-00_260595134347_rgbf000087-resize_3-target.png,125,1.9505,8,3190,125,meters,jsons/VE125_randls_57_rotated.json,2107324,2604888,59,Woman
91,804456,DepthScenes,duration_manipulation_targetAtFixation,jsons/VE125_randls_57_rotated.json,http://54.235.29.9/FacialAge/BNav_EC2/DepthDuration/v2_depth_duration_MTurk/v2_DepthDuration_HTML.html#306,306,1536,729,1536,864,9-3-2022,13-42-47,92,depth_duration_stimuli/000682_2014-06-08_23-14-58_260595134347_rgbf000041-resize_5/000682_2014-06-08_23-14-58_260595134347_rgbf000041-resize_5-target.png,125,2.7239999999999998,15,37585,124,meters,jsons/VE125_randls_57_rotated.json,2107324,2604888,59,Woman
92,804456,DepthScenes,duration_manipulation_targetAtFixation,jsons/VE125_randls_57_rotated.json,http://54.235.29.9/FacialAge/BNav_EC2/DepthDuration/v2_depth_duration_MTurk/v2_DepthDuration_HTML.html#306,306,1536,729,1536,864,9-3-2022,13-42-47,93,depth_duration_stimuli/003338_2014-05-20_11-01-23_094959634447_rgbf000051-resize_6/003338_2014-05-20_11-01-23_094959634447_rgbf000051-resize_6-target.png,125,1.693,8,9983,124,meters,jsons/VE125_randls_57_rotated.json,2107324,2604888,59,Woman
93,804456,DepthScenes,duration_manipulation_targetAtFixation,jsons/VE125_randls_57_rotated.json,http://54.235.29.9/FacialAge/BNav_EC2/DepthDuration/v2_depth_duration_MTurk/v2_DepthDuration_HTML.html#306,306,1536,729,1536,864,9-3-2022,13-42-47,94,depth_duration_stimuli/002509_2014-06-24_13-19-22_094959634447_rgbf000077-resize_0/002509_2014-06-24_13-19-22_094959634447_rgbf000077-resize_0-target.png,125,1.3065,10,2999,125,meters,jsons/VE125_randls_57_rotated.json,2107324,2604888,59,Woman
94,804456,DepthScenes,duration_manipulation_targetAtFixation,jsons/VE125_randls_57_rotated.json,http://54.235.29.9/FacialAge/BNav_EC2/DepthDuration/v2_depth_duration_MTurk/v2_DepthDuration_HTML.html#306,306,1536,729,1536,864,9-3-2022,13-42-47,95,depth_duration_stimuli/001214_2014-06-17_16-13-55_260595134347_rgbf000111-resize_0/001214_2014-06-17_16-13-55_260595134347_rgbf000111-resize_0-target.png,125,2.6505,14,4360,124,meters,jsons/VE125_randls_57_rotated.json,2107324,2604888,59,Woman
95,804456,DepthScenes,duration_manipulation_targetAtFixation,jsons/VE125_randls_57_rotated.json,http://54.235.29.9/FacialAge/BNav_EC2/DepthDuration/v2_depth_duration_MTurk/v2_DepthDuration_HTML.html#306,306,1536,729,1536,864,9-3-2022,13-42-47,96,depth_duration_stimuli/000810_2014-06-08_17-20-01_260595134347_rgbf000105-resize_0/000810_2014-06-08_17-20-01_260595134347_rgbf000105-resize_0-target.png,125,1.4865,8,4348,124,meters,jsons/VE125_randls_57_rotated.json,2107324,2604888,59,Woman
96,804456,DepthScenes,duration_manipulation_targetAtFixation,jsons/VE125_randls_57_rotated.json,http://54.235.29.9/FacialAge/BNav_EC2/DepthDuration/v2_depth_duration_MTurk/v2_DepthDuration_HTML.html#306,306,1536,729,1536,864,9-3-2022,13-42-47,97,depth_duration_stimuli/000502_2014-06-08_23-02-32_260595134347_rgbf000063-resize_4/000502_2014-06-08_23-02-32_260595134347_rgbf000063-resize_4-target.png,125,2.431,5,3026,124,meters,jsons/VE125_randls_57_rotated.json,2107324,2604888,59,Woman
97,804456,DepthScenes,duration_manipulation_targetAtFixation,jsons/VE125_randls_57_rotated.json,http://54.235.29.9/FacialAge/BNav_EC2/DepthDuration/v2_depth_duration_MTurk/v2_DepthDuration_HTML.html#306,306,1536,729,1536,864,9-3-2022,13-42-47,98,depth_duration_stimuli/001199_2014-06-17_16-03-48_260595134347_rgbf000077-resize_0/001199_2014-06-17_16-03-48_260595134347_rgbf000077-resize_0-target.png,125,3.4375,8,3698,125,meters,jsons/VE125_randls_57_rotated.json,2107324,2604888,59,Woman
98,804456,DepthScenes,duration_manipulation_targetAtFixation,jsons/VE125_randls_57_rotated.json,http://54.235.29.9/FacialAge/BNav_EC2/DepthDuration/v2_depth_duration_MTurk/v2_DepthDuration_HTML.html#306,306,1536,729,1536,864,9-3-2022,13-42-47,99,depth_duration_stimuli/001222_2014-06-17_16-24-06_260595134347_rgbf000073-resize_0/001222_2014-06-17_16-24-06_260595134347_rgbf000073-resize-original.jpg,125,1.4385,18,15465,126,meters,jsons/VE125_randls_57_rotated.json,2107324,2604888,59,Woman
99,804456,DepthScenes,duration_manipulation_targetAtFixation,jsons/VE125_randls_57_rotated.json,http://54.235.29.9/FacialAge/BNav_EC2/DepthDuration/v2_depth_duration_MTurk/v2_DepthDuration_HTML.html#306,306,1536,729,1536,864,9-3-2022,13-42-47,100,depth_duration_stimuli/003083_2014-06-15_15-21-03_094959634447_rgbf000063-resize_1/003083_2014-06-15_15-21-03_094959634447_rgbf000063-resize_1-target.png,125,4.1405,9,9782,125,meters,jsons/VE125_randls_57_rotated.json,2107324,2604888,59,Woman
100,804456,DepthScenes,duration_manipulation_targetAtFixation,jsons/VE125_randls_57_rotated.json,http://54.235.29.9/FacialAge/BNav_EC2/DepthDuration/v2_depth_duration_MTurk/v2_DepthDuration_HTML.html#306,306,1536,729,1536,864,9-3-2022,13-42-47,101,depth_duration_stimuli/000486_2014-06-09_20-47-20_260595134347_rgbf000143-resize_2/000486_2014-06-09_20-47-20_260595134347_rgbf000143-resize_2-target.png,125,4.8325,5,4559,126,meters,jsons/VE125_randls_57_rotated.json,2107324,2604888,59,Woman
101,804456,DepthScenes,duration_manipulation_targetAtFixation,jsons/VE125_randls_57_rotated.json,http://54.235.29.9/FacialAge/BNav_EC2/DepthDuration/v2_depth_duration_MTurk/v2_DepthDuration_HTML.html#306,306,1536,729,1536,864,9-3-2022,13-42-47,102,depth_duration_stimuli/002568_2014-06-24_13-59-21_094959634447_rgbf000062-resize_4/002568_2014-06-24_13-59-21_094959634447_rgbf000062-resize_4-target.png,125,3.015,8,8020,124,meters,jsons/VE125_randls_57_rotated.json,2107324,2604888,59,Woman
102,804456,DepthScenes,duration_manipulation_targetAtFixation,jsons/VE125_randls_57_rotated.json,http://54.235.29.9/FacialAge/BNav_EC2/DepthDuration/v2_depth_duration_MTurk/v2_DepthDuration_HTML.html#306,306,1536,729,1536,864,9-3-2022,13-42-47,103,depth_duration_stimuli/003492_2014-05-21_15-50-55_094959634447_rgbf000828-resize_1/003492_2014-05-21_15-50-55_094959634447_rgbf000828-resize_1-target.png,125,4.06875,9,3367,125,meters,jsons/VE125_randls_57_rotated.json,2107324,2604888,59,Woman
103,804456,DepthScenes,duration_manipulation_targetAtFixation,jsons/VE125_randls_57_rotated.json,http://54.235.29.9/FacialAge/BNav_EC2/DepthDuration/v2_depth_duration_MTurk/v2_DepthDuration_HTML.html#306,306,1536,729,1536,864,9-3-2022,13-42-47,104,depth_duration_stimuli/003129_2014-05-12_10-48-10_094959634447_rgbf000100-resize_0/003129_2014-05-12_10-48-10_094959634447_rgbf000100-resize_0-target.png,125,4.9305,10,6628,126,meters,jsons/VE125_randls_57_rotated.json,2107324,2604888,59,Woman
104,804456,DepthScenes,duration_manipulation_targetAtFixation,jsons/VE125_randls_57_rotated.json,http://54.235.29.9/FacialAge/BNav_EC2/DepthDuration/v2_depth_duration_MTurk/v2_DepthDuration_HTML.html#306,306,1536,729,1536,864,9-3-2022,13-42-47,105,depth_duration_stimuli/000414_2014-06-04_19-49-13_260595134347_rgbf000044-resize_0/000414_2014-06-04_19-49-13_260595134347_rgbf000044-resize_0-target.png,125,4.329,8,11545,124,meters,jsons/VE125_randls_57_rotated.json,2107324,2604888,59,Woman
105,804456,DepthScenes,duration_manipulation_targetAtFixation,jsons/VE125_randls_57_rotated.json,http://54.235.29.9/FacialAge/BNav_EC2/DepthDuration/v2_depth_duration_MTurk/v2_DepthDuration_HTML.html#306,306,1536,729,1536,864,9-3-2022,13-42-47,106,depth_duration_stimuli/002995_2014-06-15_12-31-26_094959634447_rgbf000150-resize_1/002995_2014-06-15_12-31-26_094959634447_rgbf000150-resize_1-target.png,125,3.8360000000000003,9,5650,125,meters,jsons/VE125_randls_57_rotated.json,2107324,2604888,59,Woman
106,804456,DepthScenes,duration_manipulation_targetAtFixation,jsons/VE125_randls_57_rotated.json,http://54.235.29.9/FacialAge/BNav_EC2/DepthDuration/v2_depth_duration_MTurk/v2_DepthDuration_HTML.html#306,306,1536,729,1536,864,9-3-2022,13-42-47,107,depth_duration_stimuli/002748_2014-06-22_19-07-22_094959634447_rgbf000078-resize_1/002748_2014-06-22_19-07-22_094959634447_rgbf000078-resize_1-target.png,125,4.6705,6,4751,123,meters,jsons/VE125_randls_57_rotated.json,2107324,2604888,59,Woman
107,804456,DepthScenes,duration_manipulation_targetAtFixation,jsons/VE125_randls_57_rotated.json,http://54.235.29.9/FacialAge/BNav_EC2/DepthDuration/v2_depth_duration_MTurk/v2_DepthDuration_HTML.html#306,306,1536,729,1536,864,9-3-2022,13-42-47,108,depth_duration_stimuli/000103_2014-05-14_22-01-17_260595134347_rgbf000152-resize_5/000103_2014-05-14_22-01-17_260595134347_rgbf000152-resize_5-target.png,125,1.993,8,22289,126,meters,jsons/VE125_randls_57_rotated.json,2107324,2604888,59,Woman
108,804456,DepthScenes,duration_manipulation_targetAtFixation,jsons/VE125_randls_57_rotated.json,http://54.235.29.9/FacialAge/BNav_EC2/DepthDuration/v2_depth_duration_MTurk/v2_DepthDuration_HTML.html#306,306,1536,729,1536,864,9-3-2022,13-42-47,109,depth_duration_stimuli/001555_2014-06-20_17-12-10_260595134347_rgbf000065-resize_4/001555_2014-06-20_17-12-10_260595134347_rgbf000065-resize_4-target.png,125,1.633,11,3562,124,meters,jsons/VE125_randls_57_rotated.json,2107324,2604888,59,Woman
109,804456,DepthScenes,duration_manipulation_targetAtFixation,jsons/VE125_randls_57_rotated.json,http://54.235.29.9/FacialAge/BNav_EC2/DepthDuration/v2_depth_duration_MTurk/v2_DepthDuration_HTML.html#306,306,1536,729,1536,864,9-3-2022,13-42-47,110,depth_duration_stimuli/002678_2014-06-13_16-15-32_094959634447_rgbf000151-resize_6/002678_2014-06-13_16-15-32_094959634447_rgbf000151-resize_6-target.png,125,2.1830000000000003,9,4968,123,meters,jsons/VE125_randls_57_rotated.json,2107324,2604888,59,Woman
110,804456,DepthScenes,duration_manipulation_targetAtFixation,jsons/VE125_randls_57_rotated.json,http://54.235.29.9/FacialAge/BNav_EC2/DepthDuration/v2_depth_duration_MTurk/v2_DepthDuration_HTML.html#306,306,1536,729,1536,864,9-3-2022,13-42-47,111,depth_duration_stimuli/000368_2014-06-09_15-53-01_260595134347_rgbf000155-resize_2/000368_2014-06-09_15-53-01_260595134347_rgbf000155-resize_2-target.png,125,2.4859999999999998,11,5492,126,meters,jsons/VE125_randls_57_rotated.json,2107324,2604888,59,Woman
111,804456,DepthScenes,duration_manipulation_targetAtFixation,jsons/VE125_randls_57_rotated.json,http://54.235.29.9/FacialAge/BNav_EC2/DepthDuration/v2_depth_duration_MTurk/v2_DepthDuration_HTML.html#306,306,1536,729,1536,864,9-3-2022,13-42-47,112,depth_duration_stimuli/000635_2014-06-08_16-38-42_260595134347_rgbf000106-resize_1/000635_2014-06-08_16-38-42_260595134347_rgbf000106-resize_1-target.png,125,2.074,8,8715,125,meters,jsons/VE125_randls_57_rotated.json,2107324,2604888,59,Woman
112,804456,DepthScenes,duration_manipulation_targetAtFixation,jsons/VE125_randls_57_rotated.json,http://54.235.29.9/FacialAge/BNav_EC2/DepthDuration/v2_depth_duration_MTurk/v2_DepthDuration_HTML.html#306,306,1536,729,1536,864,9-3-2022,13-42-47,113,depth_duration_stimuli/002279_2014-06-28_18-55-32_260595134347_rgbf000040-resize_5/002279_2014-06-28_18-55-32_260595134347_rgbf000040-resize_5-target.png,125,1.5043333333333,6,7111,123,meters,jsons/VE125_randls_57_rotated.json,2107324,2604888,59,Woman
113,804456,DepthScenes,duration_manipulation_targetAtFixation,jsons/VE125_randls_57_rotated.json,http://54.235.29.9/FacialAge/BNav_EC2/DepthDuration/v2_depth_duration_MTurk/v2_DepthDuration_HTML.html#306,306,1536,729,1536,864,9-3-2022,13-42-47,114,depth_duration_stimuli/000549_2014-06-08_22-10-24_260595134347_rgbf000247-resize_3/000549_2014-06-08_22-10-24_260595134347_rgbf000247-resize_3-target.png,125,1.841,10,5939,125,meters,jsons/VE125_randls_57_rotated.json,2107324,2604888,59,Woman
114,804456,DepthScenes,duration_manipulation_targetAtFixation,jsons/VE125_randls_57_rotated.json,http://54.235.29.9/FacialAge/BNav_EC2/DepthDuration/v2_depth_duration_MTurk/v2_DepthDuration_HTML.html#306,306,1536,729,1536,864,9-3-2022,13-42-47,115,depth_duration_stimuli/001055_2014-06-08_18-45-35_260595134347_rgbf000111-resize_4/001055_2014-06-08_18-45-35_260595134347_rgbf000111-resize_4-target.png,125,2.4290000000000003,9,7880,124,meters,jsons/VE125_randls_57_rotated.json,2107324,2604888,59,Woman
115,804456,DepthScenes,duration_manipulation_targetAtFixation,jsons/VE125_randls_57_rotated.json,http://54.235.29.9/FacialAge/BNav_EC2/DepthDuration/v2_depth_duration_MTurk/v2_DepthDuration_HTML.html#306,306,1536,729,1536,864,9-3-2022,13-42-47,116,depth_duration_stimuli/002953_2014-06-08_17-32-18_094959634447_rgbf000059-resize_5/002953_2014-06-08_17-32-18_094959634447_rgbf000059-resize_5-target.png,125,1.551,10,7090,125,meters,jsons/VE125_randls_57_rotated.json,2107324,2604888,59,Woman
116,804456,DepthScenes,duration_manipulation_targetAtFixation,jsons/VE125_randls_57_rotated.json,http://54.235.29.9/FacialAge/BNav_EC2/DepthDuration/v2_depth_duration_MTurk/v2_DepthDuration_HTML.html#306,306,1536,729,1536,864,9-3-2022,13-42-47,117,depth_duration_stimuli/000878_2014-06-08_22-52-45_260595134347_rgbf000045-resize_2/000878_2014-06-08_22-52-45_260595134347_rgbf000045-resize_2-target.png,125,2.092,8,3119,124,meters,jsons/VE125_randls_57_rotated.json,2107324,2604888,59,Woman
117,804456,DepthScenes,duration_manipulation_targetAtFixation,jsons/VE125_randls_57_rotated.json,http://54.235.29.9/FacialAge/BNav_EC2/DepthDuration/v2_depth_duration_MTurk/v2_DepthDuration_HTML.html#306,306,1536,729,1536,864,9-3-2022,13-42-47,118,depth_duration_stimuli/000734_2014-06-08_17-39-11_260595134347_rgbf000128-resize_2/000734_2014-06-08_17-39-11_260595134347_rgbf000128-resize_2-target.png,125,4.098,9,6309,125,meters,jsons/VE125_randls_57_rotated.json,2107324,2604888,59,Woman
118,804456,DepthScenes,duration_manipulation_targetAtFixation,jsons/VE125_randls_57_rotated.json,http://54.235.29.9/FacialAge/BNav_EC2/DepthDuration/v2_depth_duration_MTurk/v2_DepthDuration_HTML.html#306,306,1536,729,1536,864,9-3-2022,13-42-47,119,depth_duration_stimuli/000739_2014-06-08_18-45-58_260595134347_rgbf000068-resize_1/000739_2014-06-08_18-45-58_260595134347_rgbf000068-resize_1-target.png,125,3.534,10,4628,124,meters,jsons/VE125_randls_57_rotated.json,2107324,2604888,59,Woman
119,804456,DepthScenes,duration_manipulation_targetAtFixation,jsons/VE125_randls_57_rotated.json,http://54.235.29.9/FacialAge/BNav_EC2/DepthDuration/v2_depth_duration_MTurk/v2_DepthDuration_HTML.html#306,306,1536,729,1536,864,9-3-2022,13-42-47,120,depth_duration_stimuli/000787_2014-06-08_22-33-53_260595134347_rgbf000175-resize_1/000787_2014-06-08_22-33-53_260595134347_rgbf000175-resize-original.jpg,125,4.784,8,3514,123,meters,jsons/VE125_randls_57_rotated.json,2107324,2604888,59,Woman
120,804456,DepthScenes,duration_manipulation_targetAtFixation,jsons/VE125_randls_57_rotated.json,http://54.235.29.9/FacialAge/BNav_EC2/DepthDuration/v2_depth_duration_MTurk/v2_DepthDuration_HTML.html#306,306,1536,729,1536,864,9-3-2022,13-42-47,121,depth_duration_stimuli/002103_2014-06-25_20-00-40_260595134347_rgbf000049-resize_0/002103_2014-06-25_20-00-40_260595134347_rgbf000049-resize_0-target.png,125,4.105,4,5902,124,meters,jsons/VE125_randls_57_rotated.json,2107324,2604888,59,Woman
121,804456,DepthScenes,duration_manipulation_targetAtFixation,jsons/VE125_randls_57_rotated.json,http://54.235.29.9/FacialAge/BNav_EC2/DepthDuration/v2_depth_duration_MTurk/v2_DepthDuration_HTML.html#306,306,1536,729,1536,864,9-3-2022,13-42-47,122,depth_duration_stimuli/002039_2014-06-24_20-22-38_260595134347_rgbf000084-resize_1/002039_2014-06-24_20-22-38_260595134347_rgbf000084-resize_1-target.png,125,4.408,9,5901,125,meters,jsons/VE125_randls_57_rotated.json,2107324,2604888,59,Woman
122,804456,DepthScenes,duration_manipulation_targetAtFixation,jsons/VE125_randls_57_rotated.json,http://54.235.29.9/FacialAge/BNav_EC2/DepthDuration/v2_depth_duration_MTurk/v2_DepthDuration_HTML.html#306,306,1536,729,1536,864,9-3-2022,13-42-47,123,depth_duration_stimuli/002444_2014-06-28_20-32-08_260595134347_rgbf000027-resize_0/002444_2014-06-28_20-32-08_260595134347_rgbf000027-resize_0-target.png,125,4.388999999999999,10,5547,124,meters,jsons/VE125_randls_57_rotated.json,2107324,2604888,59,Woman
123,804456,DepthScenes,duration_manipulation_targetAtFixation,jsons/VE125_randls_57_rotated.json,http://54.235.29.9/FacialAge/BNav_EC2/DepthDuration/v2_depth_duration_MTurk/v2_DepthDuration_HTML.html#306,306,1536,729,1536,864,9-3-2022,13-42-47,124,depth_duration_stimuli/000436_2014-06-09_22-25-11_260595134347_rgbf000137-resize_1/000436_2014-06-09_22-25-11_260595134347_rgbf000137-resize_1-target.png,125,4.0705,8,4862,124,meters,jsons/VE125_randls_57_rotated.json,2107324,2604888,59,Woman
124,804456,DepthScenes,duration_manipulation_targetAtFixation,jsons/VE125_randls_57_rotated.json,http://54.235.29.9/FacialAge/BNav_EC2/DepthDuration/v2_depth_duration_MTurk/v2_DepthDuration_HTML.html#306,306,1536,729,1536,864,9-3-2022,13-42-47,125,depth_duration_stimuli/002758_2014-06-22_19-11-20_094959634447_rgbf000128-resize_1/002758_2014-06-22_19-11-20_094959634447_rgbf000128-resize_1-target.png,125,2.555,10,9912,123,meters,jsons/VE125_randls_57_rotated.json,2107324,2604888,59,Woman
125,804456,DepthScenes,duration_manipulation_targetAtFixation,jsons/VE125_randls_57_rotated.json,http://54.235.29.9/FacialAge/BNav_EC2/DepthDuration/v2_depth_duration_MTurk/v2_DepthDuration_HTML.html#306,306,1536,729,1536,864,9-3-2022,13-42-47,126,depth_duration_stimuli/002630_2014-06-24_14-47-50_094959634447_rgbf000055-resize_1/002630_2014-06-24_14-47-50_094959634447_rgbf000055-resize_1-target.png,125,3.0095,14,5238,125,meters,jsons/VE125_randls_57_rotated.json,2107324,2604888,59,Woman
126,804456,DepthScenes,duration_manipulation_targetAtFixation,jsons/VE125_randls_57_rotated.json,http://54.235.29.9/FacialAge/BNav_EC2/DepthDuration/v2_depth_duration_MTurk/v2_DepthDuration_HTML.html#306,306,1536,729,1536,864,9-3-2022,13-42-47,127,depth_duration_stimuli/000409_2014-06-04_19-23-33_260595134347_rgbf000067-resize_0/000409_2014-06-04_19-23-33_260595134347_rgbf000067-resize_0-target.png,125,3.7335,16,9121,124,meters,jsons/VE125_randls_57_rotated.json,2107324,2604888,59,Woman
127,804456,DepthScenes,duration_manipulation_targetAtFixation,jsons/VE125_randls_57_rotated.json,http://54.235.29.9/FacialAge/BNav_EC2/DepthDuration/v2_depth_duration_MTurk/v2_DepthDuration_HTML.html#306,306,1536,729,1536,864,9-3-2022,13-42-47,128,depth_duration_stimuli/002663_2014-06-13_15-50-26_094959634447_rgbf000075-resize_1/002663_2014-06-13_15-50-26_094959634447_rgbf000075-resize_1-target.png,125,4.7495,9,16444,124,meters,jsons/VE125_randls_57_rotated.json,2107324,2604888,59,Woman
128,804456,DepthScenes,duration_manipulation_targetAtFixation,jsons/VE125_randls_57_rotated.json,http://54.235.29.9/FacialAge/BNav_EC2/DepthDuration/v2_depth_duration_MTurk/v2_DepthDuration_HTML.html#306,306,1536,729,1536,864,9-3-2022,13-42-47,129,depth_duration_stimuli/000109_2014-05-14_23-41-52_260595134347_rgbf000035-resize_9/000109_2014-05-14_23-41-52_260595134347_rgbf000035-resize_9-target.png,125,1.3545,10,8850,126,meters,jsons/VE125_randls_57_rotated.json,2107324,2604888,59,Woman
129,804456,DepthScenes,duration_manipulation_targetAtFixation,jsons/VE125_randls_57_rotated.json,http://54.235.29.9/FacialAge/BNav_EC2/DepthDuration/v2_depth_duration_MTurk/v2_DepthDuration_HTML.html#306,306,1536,729,1536,864,9-3-2022,13-42-47,130,depth_duration_stimuli/000470_2014-06-09_19-42-40_260595134347_rgbf000094-resize_1/000470_2014-06-09_19-42-40_260595134347_rgbf000094-resize_1-target.png,125,1.831,14,5194,125,meters,jsons/VE125_randls_57_rotated.json,2107324,2604888,59,Woman
130,804456,DepthScenes,duration_manipulation_targetAtFixation,jsons/VE125_randls_57_rotated.json,http://54.235.29.9/FacialAge/BNav_EC2/DepthDuration/v2_depth_duration_MTurk/v2_DepthDuration_HTML.html#306,306,1536,729,1536,864,9-3-2022,13-42-47,131,depth_duration_stimuli/002657_2014-06-13_15-29-54_094959634447_rgbf000150-resize_1/002657_2014-06-13_15-29-54_094959634447_rgbf000150-resize_1-target.png,125,4.919,8,31669,125,meters,jsons/VE125_randls_57_rotated.json,2107324,2604888,59,Woman
131,804456,DepthScenes,duration_manipulation_targetAtFixation,jsons/VE125_randls_57_rotated.json,http://54.235.29.9/FacialAge/BNav_EC2/DepthDuration/v2_depth_duration_MTurk/v2_DepthDuration_HTML.html#306,306,1536,729,1536,864,9-3-2022,13-42-47,132,depth_duration_stimuli/002375_2014-06-28_20-13-44_260595134347_rgbf000032-resize_1/002375_2014-06-28_20-13-44_260595134347_rgbf000032-resize_1-target.png,125,4.0175,9,6269,125,meters,jsons/VE125_randls_57_rotated.json,2107324,2604888,59,Woman
132,804456,DepthScenes,duration_manipulation_targetAtFixation,jsons/VE125_randls_57_rotated.json,http://54.235.29.9/FacialAge/BNav_EC2/DepthDuration/v2_depth_duration_MTurk/v2_DepthDuration_HTML.html#306,306,1536,729,1536,864,9-3-2022,13-42-47,133,depth_duration_stimuli/000556_2014-06-09_22-42-56_260595134347_rgbf000214-resize_1/000556_2014-06-09_22-42-56_260595134347_rgbf000214-resize_1-target.png,125,4.8415,14,10027,124,meters,jsons/VE125_randls_57_rotated.json,2107324,2604888,59,Woman
133,804456,DepthScenes,duration_manipulation_targetAtFixation,jsons/VE125_randls_57_rotated.json,http://54.235.29.9/FacialAge/BNav_EC2/DepthDuration/v2_depth_duration_MTurk/v2_DepthDuration_HTML.html#306,306,1536,729,1536,864,9-3-2022,13-42-47,134,depth_duration_stimuli/001158_2014-06-17_15-32-16_260595134347_rgbf000138-resize_2/001158_2014-06-17_15-32-16_260595134347_rgbf000138-resize_2-target.png,125,4.5315,15,3628,125,meters,jsons/VE125_randls_57_rotated.json,2107324,2604888,59,Woman
134,804456,DepthScenes,duration_manipulation_targetAtFixation,jsons/VE125_randls_57_rotated.json,http://54.235.29.9/FacialAge/BNav_EC2/DepthDuration/v2_depth_duration_MTurk/v2_DepthDuration_HTML.html#306,306,1536,729,1536,864,9-3-2022,13-42-47,135,depth_duration_stimuli/000375_2014-06-08_11-17-29_260595134347_rgbf000133-resize_2/000375_2014-06-08_11-17-29_260595134347_rgbf000133-resize-original.jpg,125,4.718,8,4793,125,meters,jsons/VE125_randls_57_rotated.json,2107324,2604888,59,Woman
135,804456,DepthScenes,duration_manipulation_targetAtFixation,jsons/VE125_randls_57_rotated.json,http://54.235.29.9/FacialAge/BNav_EC2/DepthDuration/v2_depth_duration_MTurk/v2_DepthDuration_HTML.html#306,306,1536,729,1536,864,9-3-2022,13-42-47,136,depth_duration_stimuli/002414_2014-06-28_20-24-58_260595134347_rgbf000067-resize_4/002414_2014-06-28_20-24-58_260595134347_rgbf000067-resize_4-target.png,125,4.363,14,4301,125,meters,jsons/VE125_randls_57_rotated.json,2107324,2604888,59,Woman
136,804456,DepthScenes,duration_manipulation_targetAtFixation,jsons/VE125_randls_57_rotated.json,http://54.235.29.9/FacialAge/BNav_EC2/DepthDuration/v2_depth_duration_MTurk/v2_DepthDuration_HTML.html#306,306,1536,729,1536,864,9-3-2022,13-42-47,137,depth_duration_stimuli/000773_2014-06-08_22-24-54_260595134347_rgbf000093-resize_1/000773_2014-06-08_22-24-54_260595134347_rgbf000093-resize_1-target.png,125,4.973,7,8788,124,meters,jsons/VE125_randls_57_rotated.json,2107324,2604888,59,Woman
137,804456,DepthScenes,duration_manipulation_targetAtFixation,jsons/VE125_randls_57_rotated.json,http://54.235.29.9/FacialAge/BNav_EC2/DepthDuration/v2_depth_duration_MTurk/v2_DepthDuration_HTML.html#306,306,1536,729,1536,864,9-3-2022,13-42-47,138,depth_duration_stimuli/001571_2014-06-20_17-21-32_260595134347_rgbf000089-resize_1/001571_2014-06-20_17-21-32_260595134347_rgbf000089-resize_1-target.png,125,1.86,17,15945,125,meters,jsons/VE125_randls_57_rotated.json,2107324,2604888,59,Woman
138,804456,DepthScenes,duration_manipulation_targetAtFixation,jsons/VE125_randls_57_rotated.json,http://54.235.29.9/FacialAge/BNav_EC2/DepthDuration/v2_depth_duration_MTurk/v2_DepthDuration_HTML.html#306,306,1536,729,1536,864,9-3-2022,13-42-47,139,depth_duration_stimuli/002272_2014-06-28_18-53-56_260595134347_rgbf000067-resize_2/002272_2014-06-28_18-53-56_260595134347_rgbf000067-resize_2-target.png,125,1.138,9,11877,124,meters,jsons/VE125_randls_57_rotated.json,2107324,2604888,59,Woman
139,804456,DepthScenes,duration_manipulation_targetAtFixation,jsons/VE125_randls_57_rotated.json,http://54.235.29.9/FacialAge/BNav_EC2/DepthDuration/v2_depth_duration_MTurk/v2_DepthDuration_HTML.html#306,306,1536,729,1536,864,9-3-2022,13-42-47,140,depth_duration_stimuli/001828_2014-06-26_21-40-03_260595134347_rgbf000024-resize_0/001828_2014-06-26_21-40-03_260595134347_rgbf000024-resize_0-target.png,125,4.8260000000000005,5,6021,124,meters,jsons/VE125_randls_57_rotated.json,2107324,2604888,59,Woman
140,804456,DepthScenes,duration_manipulation_targetAtFixation,jsons/VE125_randls_57_rotated.json,http://54.235.29.9/FacialAge/BNav_EC2/DepthDuration/v2_depth_duration_MTurk/v2_DepthDuration_HTML.html#306,306,1536,729,1536,864,9-3-2022,13-42-47,141,depth_duration_stimuli/000009_2014-05-26_14-32-05_260595134347_rgbf000034-resize_3/000009_2014-05-26_14-32-05_260595134347_rgbf000034-resize_3-target.png,125,3.8715,8,4847,125,meters,jsons/VE125_randls_57_rotated.json,2107324,2604888,59,Woman
141,804456,DepthScenes,duration_manipulation_targetAtFixation,jsons/VE125_randls_57_rotated.json,http://54.235.29.9/FacialAge/BNav_EC2/DepthDuration/v2_depth_duration_MTurk/v2_DepthDuration_HTML.html#306,306,1536,729,1536,864,9-3-2022,13-42-47,142,depth_duration_stimuli/001617_2014-06-20_11-35-32_260595134347_rgbf000066-resize_1/001617_2014-06-20_11-35-32_260595134347_rgbf000066-resize_1-target.png,125,3.7910000000000004,10,6822,125,meters,jsons/VE125_randls_57_rotated.json,2107324,2604888,59,Woman
142,804456,DepthScenes,duration_manipulation_targetAtFixation,jsons/VE125_randls_57_rotated.json,http://54.235.29.9/FacialAge/BNav_EC2/DepthDuration/v2_depth_duration_MTurk/v2_DepthDuration_HTML.html#306,306,1536,729,1536,864,9-3-2022,13-42-47,143,depth_duration_stimuli/001806_2014-06-26_20-50-20_260595134347_rgbf000091-resize_1/001806_2014-06-26_20-50-20_260595134347_rgbf000091-resize_1-target.png,125,2.7305,8,6053,125,meters,jsons/VE125_randls_57_rotated.json,2107324,2604888,59,Woman
143,804456,DepthScenes,duration_manipulation_targetAtFixation,jsons/VE125_randls_57_rotated.json,http://54.235.29.9/FacialAge/BNav_EC2/DepthDuration/v2_depth_duration_MTurk/v2_DepthDuration_HTML.html#306,306,1536,729,1536,864,9-3-2022,13-42-47,144,depth_duration_stimuli/002805_2014-06-22_19-54-03_094959634447_rgbf000079-resize_1/002805_2014-06-22_19-54-03_094959634447_rgbf000079-resize_1-target.png,125,3.1439999999999997,6,5612,125,meters,jsons/VE125_randls_57_rotated.json,2107324,2604888,59,Woman
144,804456,DepthScenes,duration_manipulation_targetAtFixation,jsons/VE125_randls_57_rotated.json,http://54.235.29.9/FacialAge/BNav_EC2/DepthDuration/v2_depth_duration_MTurk/v2_DepthDuration_HTML.html#306,306,1536,729,1536,864,9-3-2022,13-42-47,145,depth_duration_stimuli/000906_2014-06-08_13-35-43_260595134347_rgbf000155-resize_1/000906_2014-06-08_13-35-43_260595134347_rgbf000155-resize_1-target.png,125,2.8489999999999998,10,4797,125,meters,jsons/VE125_randls_57_rotated.json,2107324,2604888,59,Woman
145,804456,DepthScenes,duration_manipulation_targetAtFixation,jsons/VE125_randls_57_rotated.json,http://54.235.29.9/FacialAge/BNav_EC2/DepthDuration/v2_depth_duration_MTurk/v2_DepthDuration_HTML.html#306,306,1536,729,1536,864,9-3-2022,13-42-47,146,depth_duration_stimuli/001100_2014-06-15_17-46-26_260595134347_rgbf000225-resize_2/001100_2014-06-15_17-46-26_260595134347_rgbf000225-resize_2-target.png,125,2.24,10,60219,124,meters,jsons/VE125_randls_57_rotated.json,2107324,2604888,59,Woman
146,804456,DepthScenes,duration_manipulation_targetAtFixation,jsons/VE125_randls_57_rotated.json,http://54.235.29.9/FacialAge/BNav_EC2/DepthDuration/v2_depth_duration_MTurk/v2_DepthDuration_HTML.html#306,306,1536,729,1536,864,9-3-2022,13-42-47,147,depth_duration_stimuli/002784_2014-06-22_19-26-30_094959634447_rgbf000083-resize_3/002784_2014-06-22_19-26-30_094959634447_rgbf000083-resize_3-target.png,125,1.8046666666667,5,3874,125,meters,jsons/VE125_randls_57_rotated.json,2107324,2604888,59,Woman
147,804456,DepthScenes,duration_manipulation_targetAtFixation,jsons/VE125_randls_57_rotated.json,http://54.235.29.9/FacialAge/BNav_EC2/DepthDuration/v2_depth_duration_MTurk/v2_DepthDuration_HTML.html#306,306,1536,729,1536,864,9-3-2022,13-42-47,148,depth_duration_stimuli/003079_2014-06-15_15-18-20_094959634447_rgbf000152-resize_8/003079_2014-06-15_15-18-20_094959634447_rgbf000152-resize_8-target.png,125,2.8775,10,2951,124,meters,jsons/VE125_randls_57_rotated.json,2107324,2604888,59,Woman
148,804456,DepthScenes,duration_manipulation_targetAtFixation,jsons/VE125_randls_57_rotated.json,http://54.235.29.9/FacialAge/BNav_EC2/DepthDuration/v2_depth_duration_MTurk/v2_DepthDuration_HTML.html#306,306,1536,729,1536,864,9-3-2022,13-42-47,149,depth_duration_stimuli/000506_2014-06-08_23-21-00_260595134347_rgbf000070-resize_7/000506_2014-06-08_23-21-00_260595134347_rgbf000070-resize_7-target.png,125,4.0585,8,3267,123,meters,jsons/VE125_randls_57_rotated.json,2107324,2604888,59,Woman
149,804456,DepthScenes,duration_manipulation_targetAtFixation,jsons/VE125_randls_57_rotated.json,http://54.235.29.9/FacialAge/BNav_EC2/DepthDuration/v2_depth_duration_MTurk/v2_DepthDuration_HTML.html#306,306,1536,729,1536,864,9-3-2022,13-42-47,150,depth_duration_stimuli/001392_2014-06-19_16-07-59_260595134347_rgbf000046-resize_1/001392_2014-06-19_16-07-59_260595134347_rgbf000046-resize_1-target.png,125,4.135,9,6398,124,meters,jsons/VE125_randls_57_rotated.json,2107324,2604888,59,Woman
150,804456,DepthScenes,duration_manipulation_targetAtFixation,jsons/VE125_randls_57_rotated.json,http://54.235.29.9/FacialAge/BNav_EC2/DepthDuration/v2_depth_duration_MTurk/v2_DepthDuration_HTML.html#306,306,1536,729,1536,864,9-3-2022,13-42-47,151,depth_duration_stimuli/001570_2014-06-20_17-21-09_260595134347_rgbf000135-resize_4/001570_2014-06-20_17-21-09_260595134347_rgbf000135-resize_4-target.png,125,4.467,5,2649,124,meters,jsons/VE125_randls_57_rotated.json,2107324,2604888,59,Woman
151,804456,DepthScenes,duration_manipulation_targetAtFixation,jsons/VE125_randls_57_rotated.json,http://54.235.29.9/FacialAge/BNav_EC2/DepthDuration/v2_depth_duration_MTurk/v2_DepthDuration_HTML.html#306,306,1536,729,1536,864,9-3-2022,13-42-47,152,depth_duration_stimuli/000569_2014-06-09_22-51-47_260595134347_rgbf000141-resize_3/000569_2014-06-09_22-51-47_260595134347_rgbf000141-resize-original.jpg,125,4.512,2,8141,124,meters,jsons/VE125_randls_57_rotated.json,2107324,2604888,59,Woman
152,804456,DepthScenes,duration_manipulation_targetAtFixation,jsons/VE125_randls_57_rotated.json,http://54.235.29.9/FacialAge/BNav_EC2/DepthDuration/v2_depth_duration_MTurk/v2_DepthDuration_HTML.html#306,306,1536,729,1536,864,9-3-2022,13-42-47,153,depth_duration_stimuli/002639_2014-06-24_14-51-37_094959634447_rgbf000074-resize_4/002639_2014-06-24_14-51-37_094959634447_rgbf000074-resize_4-target.png,125,4.0375,14,6651,125,meters,jsons/VE125_randls_57_rotated.json,2107324,2604888,59,Woman
153,804456,DepthScenes,duration_manipulation_targetAtFixation,jsons/VE125_randls_57_rotated.json,http://54.235.29.9/FacialAge/BNav_EC2/DepthDuration/v2_depth_duration_MTurk/v2_DepthDuration_HTML.html#306,306,1536,729,1536,864,9-3-2022,13-42-47,154,depth_duration_stimuli/003292_2014-05-14_21-53-49_094959634447_rgbf000100-resize_2/003292_2014-05-14_21-53-49_094959634447_rgbf000100-resize_2-target.png,125,3.4815,9,13053,125,meters,jsons/VE125_randls_57_rotated.json,2107324,2604888,59,Woman
154,804456,DepthScenes,duration_manipulation_targetAtFixation,jsons/VE125_randls_57_rotated.json,http://54.235.29.9/FacialAge/BNav_EC2/DepthDuration/v2_depth_duration_MTurk/v2_DepthDuration_HTML.html#306,306,1536,729,1536,864,9-3-2022,13-42-47,155,depth_duration_stimuli/001052_2014-06-08_18-24-54_260595134347_rgbf000130-resize_1/001052_2014-06-08_18-24-54_260595134347_rgbf000130-resize_1-target.png,125,4.1045,8,3659,124,meters,jsons/VE125_randls_57_rotated.json,2107324,2604888,59,Woman
155,804456,DepthScenes,duration_manipulation_targetAtFixation,jsons/VE125_randls_57_rotated.json,http://54.235.29.9/FacialAge/BNav_EC2/DepthDuration/v2_depth_duration_MTurk/v2_DepthDuration_HTML.html#306,306,1536,729,1536,864,9-3-2022,13-42-47,156,depth_duration_stimuli/002988_2014-06-15_12-24-20_094959634447_rgbf000150-resize_1/002988_2014-06-15_12-24-20_094959634447_rgbf000150-resize_1-target.png,125,4.7669999999999995,5,5531,125,meters,jsons/VE125_randls_57_rotated.json,2107324,2604888,59,Woman
156,804456,DepthScenes,duration_manipulation_targetAtFixation,jsons/VE125_randls_57_rotated.json,http://54.235.29.9/FacialAge/BNav_EC2/DepthDuration/v2_depth_duration_MTurk/v2_DepthDuration_HTML.html#306,306,1536,729,1536,864,9-3-2022,13-42-47,157,depth_duration_stimuli/002209_2014-06-28_18-36-10_260595134347_rgbf000051-resize_1/002209_2014-06-28_18-36-10_260595134347_rgbf000051-resize_1-target.png,125,2.057,11,12139,124,meters,jsons/VE125_randls_57_rotated.json,2107324,2604888,59,Woman
157,804456,DepthScenes,duration_manipulation_targetAtFixation,jsons/VE125_randls_57_rotated.json,http://54.235.29.9/FacialAge/BNav_EC2/DepthDuration/v2_depth_duration_MTurk/v2_DepthDuration_HTML.html#306,306,1536,729,1536,864,9-3-2022,13-42-47,158,depth_duration_stimuli/002763_2014-06-22_19-13-10_094959634447_rgbf000075-resize_4/002763_2014-06-22_19-13-10_094959634447_rgbf000075-resize_4-target.png,125,1.68375,4,14825,125,meters,jsons/VE125_randls_57_rotated.json,2107324,2604888,59,Woman
158,804456,DepthScenes,duration_manipulation_targetAtFixation,jsons/VE125_randls_57_rotated.json,http://54.235.29.9/FacialAge/BNav_EC2/DepthDuration/v2_depth_duration_MTurk/v2_DepthDuration_HTML.html#306,306,1536,729,1536,864,9-3-2022,13-42-47,159,depth_duration_stimuli/001447_2014-06-19_17-00-32_260595134347_rgbf000082-resize_5/001447_2014-06-19_17-00-32_260595134347_rgbf000082-resize_5-target.png,125,4.13775,8,4344,125,meters,jsons/VE125_randls_57_rotated.json,2107324,2604888,59,Woman
159,804456,DepthScenes,duration_manipulation_targetAtFixation,jsons/VE125_randls_57_rotated.json,http://54.235.29.9/FacialAge/BNav_EC2/DepthDuration/v2_depth_duration_MTurk/v2_DepthDuration_HTML.html#306,306,1536,729,1536,864,9-3-2022,13-42-47,160,depth_duration_stimuli/000447_2014-06-08_16-15-46_260595134347_rgbf000130-resize_1/000447_2014-06-08_16-15-46_260595134347_rgbf000130-resize_1-target.png,125,4.479,10,3549,125,meters,jsons/VE125_randls_57_rotated.json,2107324,2604888,59,Woman
160,804456,DepthScenes,duration_manipulation_targetAtFixation,jsons/VE125_randls_57_rotated.json,http://54.235.29.9/FacialAge/BNav_EC2/DepthDuration/v2_depth_duration_MTurk/v2_DepthDuration_HTML.html#306,306,1536,729,1536,864,9-3-2022,13-42-47,161,depth_duration_stimuli/000665_2014-06-09_20-42-35_260595134347_rgbf000110-resize_1/000665_2014-06-09_20-42-35_260595134347_rgbf000110-resize_1-target.png,125,3.057,5,2935,124,meters,jsons/VE125_randls_57_rotated.json,2107324,2604888,59,Woman
161,804456,DepthScenes,duration_manipulation_targetAtFixation,jsons/VE125_randls_57_rotated.json,http://54.235.29.9/FacialAge/BNav_EC2/DepthDuration/v2_depth_duration_MTurk/v2_DepthDuration_HTML.html#306,306,1536,729,1536,864,9-3-2022,13-42-47,162,depth_duration_stimuli/001150_2014-06-17_15-27-34_260595134347_rgbf000108-resize_2/001150_2014-06-17_15-27-34_260595134347_rgbf000108-resize_2-target.png,125,4.0325,6,2967,123,meters,jsons/VE125_randls_57_rotated.json,2107324,2604888,59,Woman
162,804456,DepthScenes,duration_manipulation_targetAtFixation,jsons/VE125_randls_57_rotated.json,http://54.235.29.9/FacialAge/BNav_EC2/DepthDuration/v2_depth_duration_MTurk/v2_DepthDuration_HTML.html#306,306,1536,729,1536,864,9-3-2022,13-42-47,163,depth_duration_stimuli/001516_2014-06-20_16-25-09_260595134347_rgbf000076-resize_2/001516_2014-06-20_16-25-09_260595134347_rgbf000076-resize_2-target.png,125,1.7445,9,2932,125,meters,jsons/VE125_randls_57_rotated.json,2107324,2604888,59,Woman
163,804456,DepthScenes,duration_manipulation_targetAtFixation,jsons/VE125_randls_57_rotated.json,http://54.235.29.9/FacialAge/BNav_EC2/DepthDuration/v2_depth_duration_MTurk/v2_DepthDuration_HTML.html#306,306,1536,729,1536,864,9-3-2022,13-42-47,164,depth_duration_stimuli/002118_2014-06-25_20-32-08_260595134347_rgbf000078-resize_1/002118_2014-06-25_20-32-08_260595134347_rgbf000078-resize_1-target.png,125,2.6460000000000004,5,8437,125,meters,jsons/VE125_randls_57_rotated.json,2107324,2604888,59,Woman
