,subjID,experimentName,versionName,sequenceName,url,selected_row,windowWidth,windowHeight,screenWidth,screenHeight,startDate,startTime,trial,stimulus,duration,actual_depth,depth_estimate,trial_RT,log_sceneDuration,unitSelection,seq_filepath,experimentTime,totalTime,age,gender
0,807165,DepthScenes,duration_manipulation_targetAtFixation,jsons/v1_VE250_randls_19_rotated.json,http://54.235.29.9/FacialAge/BNav_EC2/DepthDuration/v2_depth_duration_MTurk/v2_DepthDuration_HTML.html#134,134,1920,937,1920,1080,8-29-2022,14-43-45,1,depth_duration_stimuli/002995_2014-06-15_12-31-26_094959634447_rgbf000150-resize_1/002995_2014-06-15_12-31-26_094959634447_rgbf000150-resize_1-target.png,250,3.8360000000000003,5,3513,249,feet,jsons/v1_VE250_randls_19_rotated.json,560507,757166,34,Man
1,807165,DepthScenes,duration_manipulation_targetAtFixation,jsons/v1_VE250_randls_19_rotated.json,http://54.235.29.9/FacialAge/BNav_EC2/DepthDuration/v2_depth_duration_MTurk/v2_DepthDuration_HTML.html#134,134,1920,937,1920,1080,8-29-2022,14-43-45,2,depth_duration_stimuli/002748_2014-06-22_19-07-22_094959634447_rgbf000078-resize_1/002748_2014-06-22_19-07-22_094959634447_rgbf000078-resize_1-target.png,250,4.6705,7,3819,250,feet,jsons/v1_VE250_randls_19_rotated.json,560507,757166,34,Man
2,807165,DepthScenes,duration_manipulation_targetAtFixation,jsons/v1_VE250_randls_19_rotated.json,http://54.235.29.9/FacialAge/BNav_EC2/DepthDuration/v2_depth_duration_MTurk/v2_DepthDuration_HTML.html#134,134,1920,937,1920,1080,8-29-2022,14-43-45,3,depth_duration_stimuli/002209_2014-06-28_18-36-10_260595134347_rgbf000051-resize_1/002209_2014-06-28_18-36-10_260595134347_rgbf000051-resize_1-target.png,250,2.057,4,3267,250,feet,jsons/v1_VE250_randls_19_rotated.json,560507,757166,34,Man
3,807165,DepthScenes,duration_manipulation_targetAtFixation,jsons/v1_VE250_randls_19_rotated.json,http://54.235.29.9/FacialAge/BNav_EC2/DepthDuration/v2_depth_duration_MTurk/v2_DepthDuration_HTML.html#134,134,1920,937,1920,1080,8-29-2022,14-43-45,4,depth_duration_stimuli/002763_2014-06-22_19-13-10_094959634447_rgbf000075-resize_4/002763_2014-06-22_19-13-10_094959634447_rgbf000075-resize_4-target.png,250,1.68375,3,2277,249,feet,jsons/v1_VE250_randls_19_rotated.json,560507,757166,34,Man
4,807165,DepthScenes,duration_manipulation_targetAtFixation,jsons/v1_VE250_randls_19_rotated.json,http://54.235.29.9/FacialAge/BNav_EC2/DepthDuration/v2_depth_duration_MTurk/v2_DepthDuration_HTML.html#134,134,1920,937,1920,1080,8-29-2022,14-43-45,5,depth_duration_stimuli/003587_2014-05-23_16-48-02_094959634447_rgbf002384-resize_2/003587_2014-05-23_16-48-02_094959634447_rgbf002384-resize_2-target.png,250,1.357,2,3460,250,feet,jsons/v1_VE250_randls_19_rotated.json,560507,757166,34,Man
5,807165,DepthScenes,duration_manipulation_targetAtFixation,jsons/v1_VE250_randls_19_rotated.json,http://54.235.29.9/FacialAge/BNav_EC2/DepthDuration/v2_depth_duration_MTurk/v2_DepthDuration_HTML.html#134,134,1920,937,1920,1080,8-29-2022,14-43-45,6,depth_duration_stimuli/001167_2014-06-17_15-38-07_260595134347_rgbf000108-resize_0/001167_2014-06-17_15-38-07_260595134347_rgbf000108-resize_0-target.png,250,1.8505,3,2232,249,feet,jsons/v1_VE250_randls_19_rotated.json,560507,757166,34,Man
6,807165,DepthScenes,duration_manipulation_targetAtFixation,jsons/v1_VE250_randls_19_rotated.json,http://54.235.29.9/FacialAge/BNav_EC2/DepthDuration/v2_depth_duration_MTurk/v2_DepthDuration_HTML.html#134,134,1920,937,1920,1080,8-29-2022,14-43-45,7,depth_duration_stimuli/000137_2014-05-20_17-04-49_260595134347_rgbf000120-resize_1/000137_2014-05-20_17-04-49_260595134347_rgbf000120-resize_1-target.png,250,3.786,6,2795,251,feet,jsons/v1_VE250_randls_19_rotated.json,560507,757166,34,Man
7,807165,DepthScenes,duration_manipulation_targetAtFixation,jsons/v1_VE250_randls_19_rotated.json,http://54.235.29.9/FacialAge/BNav_EC2/DepthDuration/v2_depth_duration_MTurk/v2_DepthDuration_HTML.html#134,134,1920,937,1920,1080,8-29-2022,14-43-45,8,depth_duration_stimuli/000736_2014-06-08_18-24-15_260595134347_rgbf000206-resize_3/000736_2014-06-08_18-24-15_260595134347_rgbf000206-resize_3-target.png,250,3.515,6,2402,250,feet,jsons/v1_VE250_randls_19_rotated.json,560507,757166,34,Man
8,807165,DepthScenes,duration_manipulation_targetAtFixation,jsons/v1_VE250_randls_19_rotated.json,http://54.235.29.9/FacialAge/BNav_EC2/DepthDuration/v2_depth_duration_MTurk/v2_DepthDuration_HTML.html#134,134,1920,937,1920,1080,8-29-2022,14-43-45,9,depth_duration_stimuli/003338_2014-05-20_11-01-23_094959634447_rgbf000051-resize_6/003338_2014-05-20_11-01-23_094959634447_rgbf000051-resize_6-target.png,250,1.693,4,2949,246,feet,jsons/v1_VE250_randls_19_rotated.json,560507,757166,34,Man
9,807165,DepthScenes,duration_manipulation_targetAtFixation,jsons/v1_VE250_randls_19_rotated.json,http://54.235.29.9/FacialAge/BNav_EC2/DepthDuration/v2_depth_duration_MTurk/v2_DepthDuration_HTML.html#134,134,1920,937,1920,1080,8-29-2022,14-43-45,10,depth_duration_stimuli/002509_2014-06-24_13-19-22_094959634447_rgbf000077-resize_0/002509_2014-06-24_13-19-22_094959634447_rgbf000077-resize_0-target.png,250,1.3065,2,2739,249,feet,jsons/v1_VE250_randls_19_rotated.json,560507,757166,34,Man
10,807165,DepthScenes,duration_manipulation_targetAtFixation,jsons/v1_VE250_randls_19_rotated.json,http://54.235.29.9/FacialAge/BNav_EC2/DepthDuration/v2_depth_duration_MTurk/v2_DepthDuration_HTML.html#134,134,1920,937,1920,1080,8-29-2022,14-43-45,11,depth_duration_stimuli/002136_2014-06-25_21-18-03_260595134347_rgbf000109-resize_3/002136_2014-06-25_21-18-03_260595134347_rgbf000109-resize_3-target.png,250,1.9569999999999999,4,2649,249,feet,jsons/v1_VE250_randls_19_rotated.json,560507,757166,34,Man
11,807165,DepthScenes,duration_manipulation_targetAtFixation,jsons/v1_VE250_randls_19_rotated.json,http://54.235.29.9/FacialAge/BNav_EC2/DepthDuration/v2_depth_duration_MTurk/v2_DepthDuration_HTML.html#134,134,1920,937,1920,1080,8-29-2022,14-43-45,12,depth_duration_stimuli/002964_2014-06-08_17-46-11_094959634447_rgbf000091-resize_4/002964_2014-06-08_17-46-11_094959634447_rgbf000091-resize_4-target.png,250,1.6909999999999998,2,2672,250,feet,jsons/v1_VE250_randls_19_rotated.json,560507,757166,34,Man
12,807165,DepthScenes,duration_manipulation_targetAtFixation,jsons/v1_VE250_randls_19_rotated.json,http://54.235.29.9/FacialAge/BNav_EC2/DepthDuration/v2_depth_duration_MTurk/v2_DepthDuration_HTML.html#134,134,1920,937,1920,1080,8-29-2022,14-43-45,13,depth_duration_stimuli/000749_2014-06-08_21-55-06_260595134347_rgbf000070-resize_2/000749_2014-06-08_21-55-06_260595134347_rgbf000070-resize_2-target.png,250,2.331,5,3244,250,feet,jsons/v1_VE250_randls_19_rotated.json,560507,757166,34,Man
13,807165,DepthScenes,duration_manipulation_targetAtFixation,jsons/v1_VE250_randls_19_rotated.json,http://54.235.29.9/FacialAge/BNav_EC2/DepthDuration/v2_depth_duration_MTurk/v2_DepthDuration_HTML.html#134,134,1920,937,1920,1080,8-29-2022,14-43-45,14,depth_duration_stimuli/002788_2014-06-22_19-36-03_094959634447_rgbf000088-resize_2/002788_2014-06-22_19-36-03_094959634447_rgbf000088-resize_2-target.png,250,1.6465,6,3008,249,feet,jsons/v1_VE250_randls_19_rotated.json,560507,757166,34,Man
14,807165,DepthScenes,duration_manipulation_targetAtFixation,jsons/v1_VE250_randls_19_rotated.json,http://54.235.29.9/FacialAge/BNav_EC2/DepthDuration/v2_depth_duration_MTurk/v2_DepthDuration_HTML.html#134,134,1920,937,1920,1080,8-29-2022,14-43-45,15,depth_duration_stimuli/001650_2014-06-20_12-09-00_260595134347_rgbf000087-resize_3/001650_2014-06-20_12-09-00_260595134347_rgbf000087-resize_3-target.png,250,1.9505,3,4133,249,feet,jsons/v1_VE250_randls_19_rotated.json,560507,757166,34,Man
15,807165,DepthScenes,duration_manipulation_targetAtFixation,jsons/v1_VE250_randls_19_rotated.json,http://54.235.29.9/FacialAge/BNav_EC2/DepthDuration/v2_depth_duration_MTurk/v2_DepthDuration_HTML.html#134,134,1920,937,1920,1080,8-29-2022,14-43-45,16,depth_duration_stimuli/000682_2014-06-08_23-14-58_260595134347_rgbf000041-resize_5/000682_2014-06-08_23-14-58_260595134347_rgbf000041-resize_5-target.png,250,2.7239999999999998,4,2941,249,feet,jsons/v1_VE250_randls_19_rotated.json,560507,757166,34,Man
16,807165,DepthScenes,duration_manipulation_targetAtFixation,jsons/v1_VE250_randls_19_rotated.json,http://54.235.29.9/FacialAge/BNav_EC2/DepthDuration/v2_depth_duration_MTurk/v2_DepthDuration_HTML.html#134,134,1920,937,1920,1080,8-29-2022,14-43-45,17,depth_duration_stimuli/002949_2014-06-26_15-57-42_094959634447_rgbf000079-resize_1/002949_2014-06-26_15-57-42_094959634447_rgbf000079-resize_1-target.png,250,1.8915,3,2482,250,feet,jsons/v1_VE250_randls_19_rotated.json,560507,757166,34,Man
17,807165,DepthScenes,duration_manipulation_targetAtFixation,jsons/v1_VE250_randls_19_rotated.json,http://54.235.29.9/FacialAge/BNav_EC2/DepthDuration/v2_depth_duration_MTurk/v2_DepthDuration_HTML.html#134,134,1920,937,1920,1080,8-29-2022,14-43-45,18,depth_duration_stimuli/000522_2014-06-08_13-35-06_260595134347_rgbf000244-resize_1/000522_2014-06-08_13-35-06_260595134347_rgbf000244-resize_1-target.png,250,2.3715,2,2119,251,feet,jsons/v1_VE250_randls_19_rotated.json,560507,757166,34,Man
18,807165,DepthScenes,duration_manipulation_targetAtFixation,jsons/v1_VE250_randls_19_rotated.json,http://54.235.29.9/FacialAge/BNav_EC2/DepthDuration/v2_depth_duration_MTurk/v2_DepthDuration_HTML.html#134,134,1920,937,1920,1080,8-29-2022,14-43-45,19,depth_duration_stimuli/001498_2014-06-19_17-45-14_260595134347_rgbf000129-resize_4/001498_2014-06-19_17-45-14_260595134347_rgbf000129-resize-original.jpg,250,1.4075,0,3111,250,feet,jsons/v1_VE250_randls_19_rotated.json,560507,757166,34,Man
19,807165,DepthScenes,duration_manipulation_targetAtFixation,jsons/v1_VE250_randls_19_rotated.json,http://54.235.29.9/FacialAge/BNav_EC2/DepthDuration/v2_depth_duration_MTurk/v2_DepthDuration_HTML.html#134,134,1920,937,1920,1080,8-29-2022,14-43-45,20,depth_duration_stimuli/001450_2014-06-19_17-02-03_260595134347_rgbf000203-resize_4/001450_2014-06-19_17-02-03_260595134347_rgbf000203-resize_4-target.png,250,4.0106666666667,6,3592,248,feet,jsons/v1_VE250_randls_19_rotated.json,560507,757166,34,Man
20,807165,DepthScenes,duration_manipulation_targetAtFixation,jsons/v1_VE250_randls_19_rotated.json,http://54.235.29.9/FacialAge/BNav_EC2/DepthDuration/v2_depth_duration_MTurk/v2_DepthDuration_HTML.html#134,134,1920,937,1920,1080,8-29-2022,14-43-45,21,depth_duration_stimuli/001449_2014-06-19_17-01-27_260595134347_rgbf000116-resize_2/001449_2014-06-19_17-01-27_260595134347_rgbf000116-resize_2-target.png,250,3.452,5,2750,249,feet,jsons/v1_VE250_randls_19_rotated.json,560507,757166,34,Man
21,807165,DepthScenes,duration_manipulation_targetAtFixation,jsons/v1_VE250_randls_19_rotated.json,http://54.235.29.9/FacialAge/BNav_EC2/DepthDuration/v2_depth_duration_MTurk/v2_DepthDuration_HTML.html#134,134,1920,937,1920,1080,8-29-2022,14-43-45,22,depth_duration_stimuli/001447_2014-06-19_17-00-32_260595134347_rgbf000082-resize_5/001447_2014-06-19_17-00-32_260595134347_rgbf000082-resize_5-target.png,250,4.13775,7,2412,249,feet,jsons/v1_VE250_randls_19_rotated.json,560507,757166,34,Man
22,807165,DepthScenes,duration_manipulation_targetAtFixation,jsons/v1_VE250_randls_19_rotated.json,http://54.235.29.9/FacialAge/BNav_EC2/DepthDuration/v2_depth_duration_MTurk/v2_DepthDuration_HTML.html#134,134,1920,937,1920,1080,8-29-2022,14-43-45,23,depth_duration_stimuli/000447_2014-06-08_16-15-46_260595134347_rgbf000130-resize_1/000447_2014-06-08_16-15-46_260595134347_rgbf000130-resize_1-target.png,250,4.479,7,2198,253,feet,jsons/v1_VE250_randls_19_rotated.json,560507,757166,34,Man
23,807165,DepthScenes,duration_manipulation_targetAtFixation,jsons/v1_VE250_randls_19_rotated.json,http://54.235.29.9/FacialAge/BNav_EC2/DepthDuration/v2_depth_duration_MTurk/v2_DepthDuration_HTML.html#134,134,1920,937,1920,1080,8-29-2022,14-43-45,24,depth_duration_stimuli/000502_2014-06-08_23-02-32_260595134347_rgbf000063-resize_4/000502_2014-06-08_23-02-32_260595134347_rgbf000063-resize_4-target.png,250,2.431,5,2379,250,feet,jsons/v1_VE250_randls_19_rotated.json,560507,757166,34,Man
24,807165,DepthScenes,duration_manipulation_targetAtFixation,jsons/v1_VE250_randls_19_rotated.json,http://54.235.29.9/FacialAge/BNav_EC2/DepthDuration/v2_depth_duration_MTurk/v2_DepthDuration_HTML.html#134,134,1920,937,1920,1080,8-29-2022,14-43-45,25,depth_duration_stimuli/001199_2014-06-17_16-03-48_260595134347_rgbf000077-resize_0/001199_2014-06-17_16-03-48_260595134347_rgbf000077-resize_0-target.png,250,3.4375,6,2380,250,feet,jsons/v1_VE250_randls_19_rotated.json,560507,757166,34,Man
25,807165,DepthScenes,duration_manipulation_targetAtFixation,jsons/v1_VE250_randls_19_rotated.json,http://54.235.29.9/FacialAge/BNav_EC2/DepthDuration/v2_depth_duration_MTurk/v2_DepthDuration_HTML.html#134,134,1920,937,1920,1080,8-29-2022,14-43-45,26,depth_duration_stimuli/003081_2014-06-15_15-19-16_094959634447_rgbf000150-resize_1/003081_2014-06-15_15-19-16_094959634447_rgbf000150-resize_1-target.png,250,3.9125,6,2379,250,feet,jsons/v1_VE250_randls_19_rotated.json,560507,757166,34,Man
26,807165,DepthScenes,duration_manipulation_targetAtFixation,jsons/v1_VE250_randls_19_rotated.json,http://54.235.29.9/FacialAge/BNav_EC2/DepthDuration/v2_depth_duration_MTurk/v2_DepthDuration_HTML.html#134,134,1920,937,1920,1080,8-29-2022,14-43-45,27,depth_duration_stimuli/001417_2014-06-19_16-25-36_260595134347_rgbf000115-resize_5/001417_2014-06-19_16-25-36_260595134347_rgbf000115-resize_5-target.png,250,4.6255,7,2154,249,feet,jsons/v1_VE250_randls_19_rotated.json,560507,757166,34,Man
27,807165,DepthScenes,duration_manipulation_targetAtFixation,jsons/v1_VE250_randls_19_rotated.json,http://54.235.29.9/FacialAge/BNav_EC2/DepthDuration/v2_depth_duration_MTurk/v2_DepthDuration_HTML.html#134,134,1920,937,1920,1080,8-29-2022,14-43-45,28,depth_duration_stimuli/001032_2014-06-08_13-23-17_260595134347_rgbf000021-resize_3/001032_2014-06-08_13-23-17_260595134347_rgbf000021-resize_3-target.png,250,3.2725,4,2199,250,feet,jsons/v1_VE250_randls_19_rotated.json,560507,757166,34,Man
28,807165,DepthScenes,duration_manipulation_targetAtFixation,jsons/v1_VE250_randls_19_rotated.json,http://54.235.29.9/FacialAge/BNav_EC2/DepthDuration/v2_depth_duration_MTurk/v2_DepthDuration_HTML.html#134,134,1920,937,1920,1080,8-29-2022,14-43-45,29,depth_duration_stimuli/001059_2014-06-08_21-53-27_260595134347_rgbf000061-resize_4/001059_2014-06-08_21-53-27_260595134347_rgbf000061-resize_4-target.png,250,2.4185,5,2648,249,feet,jsons/v1_VE250_randls_19_rotated.json,560507,757166,34,Man
29,807165,DepthScenes,duration_manipulation_targetAtFixation,jsons/v1_VE250_randls_19_rotated.json,http://54.235.29.9/FacialAge/BNav_EC2/DepthDuration/v2_depth_duration_MTurk/v2_DepthDuration_HTML.html#134,134,1920,937,1920,1080,8-29-2022,14-43-45,30,depth_duration_stimuli/002072_2014-06-24_21-48-06_260595134347_rgbf000115-resize_0/002072_2014-06-24_21-48-06_260595134347_rgbf000115-resize-original.jpg,250,4.702,0,2548,249,feet,jsons/v1_VE250_randls_19_rotated.json,560507,757166,34,Man
30,807165,DepthScenes,duration_manipulation_targetAtFixation,jsons/v1_VE250_randls_19_rotated.json,http://54.235.29.9/FacialAge/BNav_EC2/DepthDuration/v2_depth_duration_MTurk/v2_DepthDuration_HTML.html#134,134,1920,937,1920,1080,8-29-2022,14-43-45,31,depth_duration_stimuli/000556_2014-06-09_22-42-56_260595134347_rgbf000214-resize_1/000556_2014-06-09_22-42-56_260595134347_rgbf000214-resize_1-target.png,250,4.8415,4,2470,249,feet,jsons/v1_VE250_randls_19_rotated.json,560507,757166,34,Man
31,807165,DepthScenes,duration_manipulation_targetAtFixation,jsons/v1_VE250_randls_19_rotated.json,http://54.235.29.9/FacialAge/BNav_EC2/DepthDuration/v2_depth_duration_MTurk/v2_DepthDuration_HTML.html#134,134,1920,937,1920,1080,8-29-2022,14-43-45,32,depth_duration_stimuli/001158_2014-06-17_15-32-16_260595134347_rgbf000138-resize_2/001158_2014-06-17_15-32-16_260595134347_rgbf000138-resize_2-target.png,250,4.5315,6,2615,250,feet,jsons/v1_VE250_randls_19_rotated.json,560507,757166,34,Man
32,807165,DepthScenes,duration_manipulation_targetAtFixation,jsons/v1_VE250_randls_19_rotated.json,http://54.235.29.9/FacialAge/BNav_EC2/DepthDuration/v2_depth_duration_MTurk/v2_DepthDuration_HTML.html#134,134,1920,937,1920,1080,8-29-2022,14-43-45,33,depth_duration_stimuli/000734_2014-06-08_17-39-11_260595134347_rgbf000128-resize_2/000734_2014-06-08_17-39-11_260595134347_rgbf000128-resize_2-target.png,250,4.098,4,2074,250,feet,jsons/v1_VE250_randls_19_rotated.json,560507,757166,34,Man
33,807165,DepthScenes,duration_manipulation_targetAtFixation,jsons/v1_VE250_randls_19_rotated.json,http://54.235.29.9/FacialAge/BNav_EC2/DepthDuration/v2_depth_duration_MTurk/v2_DepthDuration_HTML.html#134,134,1920,937,1920,1080,8-29-2022,14-43-45,34,depth_duration_stimuli/000739_2014-06-08_18-45-58_260595134347_rgbf000068-resize_1/000739_2014-06-08_18-45-58_260595134347_rgbf000068-resize_1-target.png,250,3.534,5,2054,251,feet,jsons/v1_VE250_randls_19_rotated.json,560507,757166,34,Man
34,807165,DepthScenes,duration_manipulation_targetAtFixation,jsons/v1_VE250_randls_19_rotated.json,http://54.235.29.9/FacialAge/BNav_EC2/DepthDuration/v2_depth_duration_MTurk/v2_DepthDuration_HTML.html#134,134,1920,937,1920,1080,8-29-2022,14-43-45,35,depth_duration_stimuli/001136_2014-06-17_15-19-41_260595134347_rgbf000076-resize_3/001136_2014-06-17_15-19-41_260595134347_rgbf000076-resize_3-target.png,250,1.8655,3,2187,251,feet,jsons/v1_VE250_randls_19_rotated.json,560507,757166,34,Man
35,807165,DepthScenes,duration_manipulation_targetAtFixation,jsons/v1_VE250_randls_19_rotated.json,http://54.235.29.9/FacialAge/BNav_EC2/DepthDuration/v2_depth_duration_MTurk/v2_DepthDuration_HTML.html#134,134,1920,937,1920,1080,8-29-2022,14-43-45,36,depth_duration_stimuli/001164_2014-06-17_15-35-46_260595134347_rgbf000085-resize_3/001164_2014-06-17_15-35-46_260595134347_rgbf000085-resize_3-target.png,250,2.354,4,2166,250,feet,jsons/v1_VE250_randls_19_rotated.json,560507,757166,34,Man
36,807165,DepthScenes,duration_manipulation_targetAtFixation,jsons/v1_VE250_randls_19_rotated.json,http://54.235.29.9/FacialAge/BNav_EC2/DepthDuration/v2_depth_duration_MTurk/v2_DepthDuration_HTML.html#134,134,1920,937,1920,1080,8-29-2022,14-43-45,37,depth_duration_stimuli/000635_2014-06-08_16-38-42_260595134347_rgbf000106-resize_1/000635_2014-06-08_16-38-42_260595134347_rgbf000106-resize_1-target.png,250,2.074,4,2130,249,feet,jsons/v1_VE250_randls_19_rotated.json,560507,757166,34,Man
37,807165,DepthScenes,duration_manipulation_targetAtFixation,jsons/v1_VE250_randls_19_rotated.json,http://54.235.29.9/FacialAge/BNav_EC2/DepthDuration/v2_depth_duration_MTurk/v2_DepthDuration_HTML.html#134,134,1920,937,1920,1080,8-29-2022,14-43-45,38,depth_duration_stimuli/002279_2014-06-28_18-55-32_260595134347_rgbf000040-resize_5/002279_2014-06-28_18-55-32_260595134347_rgbf000040-resize_5-target.png,250,1.5043333333333,3,2694,251,feet,jsons/v1_VE250_randls_19_rotated.json,560507,757166,34,Man
38,807165,DepthScenes,duration_manipulation_targetAtFixation,jsons/v1_VE250_randls_19_rotated.json,http://54.235.29.9/FacialAge/BNav_EC2/DepthDuration/v2_depth_duration_MTurk/v2_DepthDuration_HTML.html#134,134,1920,937,1920,1080,8-29-2022,14-43-45,39,depth_duration_stimuli/001828_2014-06-26_21-40-03_260595134347_rgbf000024-resize_0/001828_2014-06-26_21-40-03_260595134347_rgbf000024-resize_0-target.png,250,4.8260000000000005,5,2750,249,feet,jsons/v1_VE250_randls_19_rotated.json,560507,757166,34,Man
39,807165,DepthScenes,duration_manipulation_targetAtFixation,jsons/v1_VE250_randls_19_rotated.json,http://54.235.29.9/FacialAge/BNav_EC2/DepthDuration/v2_depth_duration_MTurk/v2_DepthDuration_HTML.html#134,134,1920,937,1920,1080,8-29-2022,14-43-45,40,depth_duration_stimuli/000009_2014-05-26_14-32-05_260595134347_rgbf000034-resize_3/000009_2014-05-26_14-32-05_260595134347_rgbf000034-resize_3-target.png,250,3.8715,8,4483,251,feet,jsons/v1_VE250_randls_19_rotated.json,560507,757166,34,Man
40,807165,DepthScenes,duration_manipulation_targetAtFixation,jsons/v1_VE250_randls_19_rotated.json,http://54.235.29.9/FacialAge/BNav_EC2/DepthDuration/v2_depth_duration_MTurk/v2_DepthDuration_HTML.html#134,134,1920,937,1920,1080,8-29-2022,14-43-45,41,depth_duration_stimuli/002340_2014-06-28_20-05-46_260595134347_rgbf000113-resize_0/002340_2014-06-28_20-05-46_260595134347_rgbf000113-resize_0-target.png,250,2.4735,4,2558,249,feet,jsons/v1_VE250_randls_19_rotated.json,560507,757166,34,Man
41,807165,DepthScenes,duration_manipulation_targetAtFixation,jsons/v1_VE250_randls_19_rotated.json,http://54.235.29.9/FacialAge/BNav_EC2/DepthDuration/v2_depth_duration_MTurk/v2_DepthDuration_HTML.html#134,134,1920,937,1920,1080,8-29-2022,14-43-45,42,depth_duration_stimuli/001016_2014-06-09_16-16-10_260595134347_rgbf000112-resize_5/001016_2014-06-09_16-16-10_260595134347_rgbf000112-resize_5-target.png,250,1.6565,4,2469,249,feet,jsons/v1_VE250_randls_19_rotated.json,560507,757166,34,Man
42,807165,DepthScenes,duration_manipulation_targetAtFixation,jsons/v1_VE250_randls_19_rotated.json,http://54.235.29.9/FacialAge/BNav_EC2/DepthDuration/v2_depth_duration_MTurk/v2_DepthDuration_HTML.html#134,134,1920,937,1920,1080,8-29-2022,14-43-45,43,depth_duration_stimuli/000549_2014-06-08_22-10-24_260595134347_rgbf000247-resize_3/000549_2014-06-08_22-10-24_260595134347_rgbf000247-resize_3-target.png,250,1.841,2,3133,251,feet,jsons/v1_VE250_randls_19_rotated.json,560507,757166,34,Man
43,807165,DepthScenes,duration_manipulation_targetAtFixation,jsons/v1_VE250_randls_19_rotated.json,http://54.235.29.9/FacialAge/BNav_EC2/DepthDuration/v2_depth_duration_MTurk/v2_DepthDuration_HTML.html#134,134,1920,937,1920,1080,8-29-2022,14-43-45,44,depth_duration_stimuli/001055_2014-06-08_18-45-35_260595134347_rgbf000111-resize_4/001055_2014-06-08_18-45-35_260595134347_rgbf000111-resize_4-target.png,250,2.4290000000000003,4,2660,249,feet,jsons/v1_VE250_randls_19_rotated.json,560507,757166,34,Man
44,807165,DepthScenes,duration_manipulation_targetAtFixation,jsons/v1_VE250_randls_19_rotated.json,http://54.235.29.9/FacialAge/BNav_EC2/DepthDuration/v2_depth_duration_MTurk/v2_DepthDuration_HTML.html#134,134,1920,937,1920,1080,8-29-2022,14-43-45,45,depth_duration_stimuli/000866_2014-06-09_20-45-42_260595134347_rgbf000139-resize_1/000866_2014-06-09_20-45-42_260595134347_rgbf000139-resize_1-target.png,250,3.2155,5,3268,249,feet,jsons/v1_VE250_randls_19_rotated.json,560507,757166,34,Man
45,807165,DepthScenes,duration_manipulation_targetAtFixation,jsons/v1_VE250_randls_19_rotated.json,http://54.235.29.9/FacialAge/BNav_EC2/DepthDuration/v2_depth_duration_MTurk/v2_DepthDuration_HTML.html#134,134,1920,937,1920,1080,8-29-2022,14-43-45,46,depth_duration_stimuli/002989_2014-06-15_12-25-03_094959634447_rgbf000150-resize_3/002989_2014-06-15_12-25-03_094959634447_rgbf000150-resize_3-target.png,250,4.1975,8,4662,250,feet,jsons/v1_VE250_randls_19_rotated.json,560507,757166,34,Man
46,807165,DepthScenes,duration_manipulation_targetAtFixation,jsons/v1_VE250_randls_19_rotated.json,http://54.235.29.9/FacialAge/BNav_EC2/DepthDuration/v2_depth_duration_MTurk/v2_DepthDuration_HTML.html#134,134,1920,937,1920,1080,8-29-2022,14-43-45,47,depth_duration_stimuli/002678_2014-06-13_16-15-32_094959634447_rgbf000151-resize_6/002678_2014-06-13_16-15-32_094959634447_rgbf000151-resize_6-target.png,250,2.1830000000000003,8,2527,250,feet,jsons/v1_VE250_randls_19_rotated.json,560507,757166,34,Man
47,807165,DepthScenes,duration_manipulation_targetAtFixation,jsons/v1_VE250_randls_19_rotated.json,http://54.235.29.9/FacialAge/BNav_EC2/DepthDuration/v2_depth_duration_MTurk/v2_DepthDuration_HTML.html#134,134,1920,937,1920,1080,8-29-2022,14-43-45,48,depth_duration_stimuli/000368_2014-06-09_15-53-01_260595134347_rgbf000155-resize_2/000368_2014-06-09_15-53-01_260595134347_rgbf000155-resize_2-target.png,250,2.4859999999999998,4,3120,249,feet,jsons/v1_VE250_randls_19_rotated.json,560507,757166,34,Man
48,807165,DepthScenes,duration_manipulation_targetAtFixation,jsons/v1_VE250_randls_19_rotated.json,http://54.235.29.9/FacialAge/BNav_EC2/DepthDuration/v2_depth_duration_MTurk/v2_DepthDuration_HTML.html#134,134,1920,937,1920,1080,8-29-2022,14-43-45,49,depth_duration_stimuli/001170_2014-06-17_15-43-44_260595134347_rgbf000096-resize_6/001170_2014-06-17_15-43-44_260595134347_rgbf000096-resize-original.jpg,250,1.1909999999999998,0,3111,247,feet,jsons/v1_VE250_randls_19_rotated.json,560507,757166,34,Man
49,807165,DepthScenes,duration_manipulation_targetAtFixation,jsons/v1_VE250_randls_19_rotated.json,http://54.235.29.9/FacialAge/BNav_EC2/DepthDuration/v2_depth_duration_MTurk/v2_DepthDuration_HTML.html#134,134,1920,937,1920,1080,8-29-2022,14-43-45,50,depth_duration_stimuli/001100_2014-06-15_17-46-26_260595134347_rgbf000225-resize_2/001100_2014-06-15_17-46-26_260595134347_rgbf000225-resize_2-target.png,250,2.24,4,3906,248,feet,jsons/v1_VE250_randls_19_rotated.json,560507,757166,34,Man
50,807165,DepthScenes,duration_manipulation_targetAtFixation,jsons/v1_VE250_randls_19_rotated.json,http://54.235.29.9/FacialAge/BNav_EC2/DepthDuration/v2_depth_duration_MTurk/v2_DepthDuration_HTML.html#134,134,1920,937,1920,1080,8-29-2022,14-43-45,51,depth_duration_stimuli/002784_2014-06-22_19-26-30_094959634447_rgbf000083-resize_3/002784_2014-06-22_19-26-30_094959634447_rgbf000083-resize_3-target.png,250,1.8046666666667,3,2503,248,feet,jsons/v1_VE250_randls_19_rotated.json,560507,757166,34,Man
51,807165,DepthScenes,duration_manipulation_targetAtFixation,jsons/v1_VE250_randls_19_rotated.json,http://54.235.29.9/FacialAge/BNav_EC2/DepthDuration/v2_depth_duration_MTurk/v2_DepthDuration_HTML.html#134,134,1920,937,1920,1080,8-29-2022,14-43-45,52,depth_duration_stimuli/002750_2014-06-22_19-08-03_094959634447_rgbf000094-resize_4/002750_2014-06-22_19-08-03_094959634447_rgbf000094-resize_4-target.png,250,2.354,5,2704,250,feet,jsons/v1_VE250_randls_19_rotated.json,560507,757166,34,Man
52,807165,DepthScenes,duration_manipulation_targetAtFixation,jsons/v1_VE250_randls_19_rotated.json,http://54.235.29.9/FacialAge/BNav_EC2/DepthDuration/v2_depth_duration_MTurk/v2_DepthDuration_HTML.html#134,134,1920,937,1920,1080,8-29-2022,14-43-45,53,depth_duration_stimuli/002549_2014-06-24_13-41-39_094959634447_rgbf000022-resize_3/002549_2014-06-24_13-41-39_094959634447_rgbf000022-resize_3-target.png,250,1.476,3,2143,250,feet,jsons/v1_VE250_randls_19_rotated.json,560507,757166,34,Man
53,807165,DepthScenes,duration_manipulation_targetAtFixation,jsons/v1_VE250_randls_19_rotated.json,http://54.235.29.9/FacialAge/BNav_EC2/DepthDuration/v2_depth_duration_MTurk/v2_DepthDuration_HTML.html#134,134,1920,937,1920,1080,8-29-2022,14-43-45,54,depth_duration_stimuli/001214_2014-06-17_16-13-55_260595134347_rgbf000111-resize_0/001214_2014-06-17_16-13-55_260595134347_rgbf000111-resize_0-target.png,250,2.6505,4,2233,249,feet,jsons/v1_VE250_randls_19_rotated.json,560507,757166,34,Man
54,807165,DepthScenes,duration_manipulation_targetAtFixation,jsons/v1_VE250_randls_19_rotated.json,http://54.235.29.9/FacialAge/BNav_EC2/DepthDuration/v2_depth_duration_MTurk/v2_DepthDuration_HTML.html#134,134,1920,937,1920,1080,8-29-2022,14-43-45,55,depth_duration_stimuli/000810_2014-06-08_17-20-01_260595134347_rgbf000105-resize_0/000810_2014-06-08_17-20-01_260595134347_rgbf000105-resize_0-target.png,250,1.4865,4,1918,249,feet,jsons/v1_VE250_randls_19_rotated.json,560507,757166,34,Man
55,807165,DepthScenes,duration_manipulation_targetAtFixation,jsons/v1_VE250_randls_19_rotated.json,http://54.235.29.9/FacialAge/BNav_EC2/DepthDuration/v2_depth_duration_MTurk/v2_DepthDuration_HTML.html#134,134,1920,937,1920,1080,8-29-2022,14-43-45,56,depth_duration_stimuli/003079_2014-06-15_15-18-20_094959634447_rgbf000152-resize_8/003079_2014-06-15_15-18-20_094959634447_rgbf000152-resize_8-target.png,250,2.8775,6,3031,250,feet,jsons/v1_VE250_randls_19_rotated.json,560507,757166,34,Man
56,807165,DepthScenes,duration_manipulation_targetAtFixation,jsons/v1_VE250_randls_19_rotated.json,http://54.235.29.9/FacialAge/BNav_EC2/DepthDuration/v2_depth_duration_MTurk/v2_DepthDuration_HTML.html#134,134,1920,937,1920,1080,8-29-2022,14-43-45,57,depth_duration_stimuli/000506_2014-06-08_23-21-00_260595134347_rgbf000070-resize_7/000506_2014-06-08_23-21-00_260595134347_rgbf000070-resize_7-target.png,250,4.0585,7,2638,249,feet,jsons/v1_VE250_randls_19_rotated.json,560507,757166,34,Man
57,807165,DepthScenes,duration_manipulation_targetAtFixation,jsons/v1_VE250_randls_19_rotated.json,http://54.235.29.9/FacialAge/BNav_EC2/DepthDuration/v2_depth_duration_MTurk/v2_DepthDuration_HTML.html#134,134,1920,937,1920,1080,8-29-2022,14-43-45,58,depth_duration_stimuli/000854_2014-06-09_19-43-13_260595134347_rgbf000066-resize_0/000854_2014-06-09_19-43-13_260595134347_rgbf000066-resize_0-target.png,250,3.068,3,2323,251,feet,jsons/v1_VE250_randls_19_rotated.json,560507,757166,34,Man
58,807165,DepthScenes,duration_manipulation_targetAtFixation,jsons/v1_VE250_randls_19_rotated.json,http://54.235.29.9/FacialAge/BNav_EC2/DepthDuration/v2_depth_duration_MTurk/v2_DepthDuration_HTML.html#134,134,1920,937,1920,1080,8-29-2022,14-43-45,59,depth_duration_stimuli/000758_2014-06-08_22-05-08_260595134347_rgbf000085-resize_0/000758_2014-06-08_22-05-08_260595134347_rgbf000085-resize_0-target.png,250,3.3810000000000002,5,2323,250,feet,jsons/v1_VE250_randls_19_rotated.json,560507,757166,34,Man
59,807165,DepthScenes,duration_manipulation_targetAtFixation,jsons/v1_VE250_randls_19_rotated.json,http://54.235.29.9/FacialAge/BNav_EC2/DepthDuration/v2_depth_duration_MTurk/v2_DepthDuration_HTML.html#134,134,1920,937,1920,1080,8-29-2022,14-43-45,60,depth_duration_stimuli/002199_2014-06-28_18-33-56_260595134347_rgbf000074-resize_0/002199_2014-06-28_18-33-56_260595134347_rgbf000074-resize_0-target.png,250,1.996,2,3100,250,feet,jsons/v1_VE250_randls_19_rotated.json,560507,757166,34,Man
60,807165,DepthScenes,duration_manipulation_targetAtFixation,jsons/v1_VE250_randls_19_rotated.json,http://54.235.29.9/FacialAge/BNav_EC2/DepthDuration/v2_depth_duration_MTurk/v2_DepthDuration_HTML.html#134,134,1920,937,1920,1080,8-29-2022,14-43-45,61,depth_duration_stimuli/001056_2014-06-08_18-46-44_260595134347_rgbf000068-resize_0/001056_2014-06-08_18-46-44_260595134347_rgbf000068-resize_0-target.png,250,2.6625,6,3178,248,feet,jsons/v1_VE250_randls_19_rotated.json,560507,757166,34,Man
61,807165,DepthScenes,duration_manipulation_targetAtFixation,jsons/v1_VE250_randls_19_rotated.json,http://54.235.29.9/FacialAge/BNav_EC2/DepthDuration/v2_depth_duration_MTurk/v2_DepthDuration_HTML.html#134,134,1920,937,1920,1080,8-29-2022,14-43-45,62,depth_duration_stimuli/003129_2014-05-12_10-48-10_094959634447_rgbf000100-resize_0/003129_2014-05-12_10-48-10_094959634447_rgbf000100-resize_0-target.png,250,4.9305,5,4156,250,feet,jsons/v1_VE250_randls_19_rotated.json,560507,757166,34,Man
62,807165,DepthScenes,duration_manipulation_targetAtFixation,jsons/v1_VE250_randls_19_rotated.json,http://54.235.29.9/FacialAge/BNav_EC2/DepthDuration/v2_depth_duration_MTurk/v2_DepthDuration_HTML.html#134,134,1920,937,1920,1080,8-29-2022,14-43-45,63,depth_duration_stimuli/000414_2014-06-04_19-49-13_260595134347_rgbf000044-resize_0/000414_2014-06-04_19-49-13_260595134347_rgbf000044-resize_0-target.png,250,4.329,8,4189,250,feet,jsons/v1_VE250_randls_19_rotated.json,560507,757166,34,Man
63,807165,DepthScenes,duration_manipulation_targetAtFixation,jsons/v1_VE250_randls_19_rotated.json,http://54.235.29.9/FacialAge/BNav_EC2/DepthDuration/v2_depth_duration_MTurk/v2_DepthDuration_HTML.html#134,134,1920,937,1920,1080,8-29-2022,14-43-45,64,depth_duration_stimuli/000742_2014-06-08_18-48-09_260595134347_rgbf000164-resize_4/000742_2014-06-08_18-48-09_260595134347_rgbf000164-resize_4-target.png,250,4.632,6,4457,247,feet,jsons/v1_VE250_randls_19_rotated.json,560507,757166,34,Man
64,807165,DepthScenes,duration_manipulation_targetAtFixation,jsons/v1_VE250_randls_19_rotated.json,http://54.235.29.9/FacialAge/BNav_EC2/DepthDuration/v2_depth_duration_MTurk/v2_DepthDuration_HTML.html#134,134,1920,937,1920,1080,8-29-2022,14-43-45,65,depth_duration_stimuli/001066_2014-06-08_22-03-20_260595134347_rgbf000066-resize_4/001066_2014-06-08_22-03-20_260595134347_rgbf000066-resize_4-target.png,250,4.2330000000000005,9,3178,261,feet,jsons/v1_VE250_randls_19_rotated.json,560507,757166,34,Man
65,807165,DepthScenes,duration_manipulation_targetAtFixation,jsons/v1_VE250_randls_19_rotated.json,http://54.235.29.9/FacialAge/BNav_EC2/DepthDuration/v2_depth_duration_MTurk/v2_DepthDuration_HTML.html#134,134,1920,937,1920,1080,8-29-2022,14-43-45,66,depth_duration_stimuli/001540_2014-06-20_17-01-05_260595134347_rgbf000086-resize_2/001540_2014-06-20_17-01-05_260595134347_rgbf000086-resize-original.jpg,250,1.459,0,3065,250,feet,jsons/v1_VE250_randls_19_rotated.json,560507,757166,34,Man
66,807165,DepthScenes,duration_manipulation_targetAtFixation,jsons/v1_VE250_randls_19_rotated.json,http://54.235.29.9/FacialAge/BNav_EC2/DepthDuration/v2_depth_duration_MTurk/v2_DepthDuration_HTML.html#134,134,1920,937,1920,1080,8-29-2022,14-43-45,67,depth_duration_stimuli/001584_2014-06-20_11-07-43_260595134347_rgbf000002-resize_1/001584_2014-06-20_11-07-43_260595134347_rgbf000002-resize_1-target.png,250,3.53,4,2514,248,feet,jsons/v1_VE250_randls_19_rotated.json,560507,757166,34,Man
67,807165,DepthScenes,duration_manipulation_targetAtFixation,jsons/v1_VE250_randls_19_rotated.json,http://54.235.29.9/FacialAge/BNav_EC2/DepthDuration/v2_depth_duration_MTurk/v2_DepthDuration_HTML.html#134,134,1920,937,1920,1080,8-29-2022,14-43-45,68,depth_duration_stimuli/003621_2014-05-23_18-06-08_094959634447_rgbf000101-resize_1/003621_2014-05-23_18-06-08_094959634447_rgbf000101-resize_1-target.png,250,3.9835,7,2785,250,feet,jsons/v1_VE250_randls_19_rotated.json,560507,757166,34,Man
68,807165,DepthScenes,duration_manipulation_targetAtFixation,jsons/v1_VE250_randls_19_rotated.json,http://54.235.29.9/FacialAge/BNav_EC2/DepthDuration/v2_depth_duration_MTurk/v2_DepthDuration_HTML.html#134,134,1920,937,1920,1080,8-29-2022,14-43-45,69,depth_duration_stimuli/000103_2014-05-14_22-01-17_260595134347_rgbf000152-resize_5/000103_2014-05-14_22-01-17_260595134347_rgbf000152-resize_5-target.png,250,1.993,5,2547,249,feet,jsons/v1_VE250_randls_19_rotated.json,560507,757166,34,Man
69,807165,DepthScenes,duration_manipulation_targetAtFixation,jsons/v1_VE250_randls_19_rotated.json,http://54.235.29.9/FacialAge/BNav_EC2/DepthDuration/v2_depth_duration_MTurk/v2_DepthDuration_HTML.html#134,134,1920,937,1920,1080,8-29-2022,14-43-45,70,depth_duration_stimuli/001555_2014-06-20_17-12-10_260595134347_rgbf000065-resize_4/001555_2014-06-20_17-12-10_260595134347_rgbf000065-resize_4-target.png,250,1.633,3,2359,250,feet,jsons/v1_VE250_randls_19_rotated.json,560507,757166,34,Man
70,807165,DepthScenes,duration_manipulation_targetAtFixation,jsons/v1_VE250_randls_19_rotated.json,http://54.235.29.9/FacialAge/BNav_EC2/DepthDuration/v2_depth_duration_MTurk/v2_DepthDuration_HTML.html#134,134,1920,937,1920,1080,8-29-2022,14-43-45,71,depth_duration_stimuli/003048_2014-06-15_13-49-43_094959634447_rgbf000150-resize_1/003048_2014-06-15_13-49-43_094959634447_rgbf000150-resize_1-target.png,250,4.0035,5,2309,249,feet,jsons/v1_VE250_randls_19_rotated.json,560507,757166,34,Man
71,807165,DepthScenes,duration_manipulation_targetAtFixation,jsons/v1_VE250_randls_19_rotated.json,http://54.235.29.9/FacialAge/BNav_EC2/DepthDuration/v2_depth_duration_MTurk/v2_DepthDuration_HTML.html#134,134,1920,937,1920,1080,8-29-2022,14-43-45,72,depth_duration_stimuli/002043_2014-06-24_20-29-38_260595134347_rgbf000039-resize_4/002043_2014-06-24_20-29-38_260595134347_rgbf000039-resize_4-target.png,250,2.8435,5,2223,250,feet,jsons/v1_VE250_randls_19_rotated.json,560507,757166,34,Man
72,807165,DepthScenes,duration_manipulation_targetAtFixation,jsons/v1_VE250_randls_19_rotated.json,http://54.235.29.9/FacialAge/BNav_EC2/DepthDuration/v2_depth_duration_MTurk/v2_DepthDuration_HTML.html#134,134,1920,937,1920,1080,8-29-2022,14-43-45,73,depth_duration_stimuli/002875_2014-06-01_15-19-00_094959634447_rgbf000151-resize_1/002875_2014-06-01_15-19-00_094959634447_rgbf000151-resize_1-target.png,250,1.9675,3,2232,250,feet,jsons/v1_VE250_randls_19_rotated.json,560507,757166,34,Man
73,807165,DepthScenes,duration_manipulation_targetAtFixation,jsons/v1_VE250_randls_19_rotated.json,http://54.235.29.9/FacialAge/BNav_EC2/DepthDuration/v2_depth_duration_MTurk/v2_DepthDuration_HTML.html#134,134,1920,937,1920,1080,8-29-2022,14-43-45,74,depth_duration_stimuli/001011_2014-06-08_23-18-54_260595134347_rgbf000044-resize_4/001011_2014-06-08_23-18-54_260595134347_rgbf000044-resize_4-target.png,250,2.4730000000000003,4,2198,249,feet,jsons/v1_VE250_randls_19_rotated.json,560507,757166,34,Man
74,807165,DepthScenes,duration_manipulation_targetAtFixation,jsons/v1_VE250_randls_19_rotated.json,http://54.235.29.9/FacialAge/BNav_EC2/DepthDuration/v2_depth_duration_MTurk/v2_DepthDuration_HTML.html#134,134,1920,937,1920,1080,8-29-2022,14-43-45,75,depth_duration_stimuli/001132_2014-06-17_14-48-54_260595134347_rgbf000100-resize_2/001132_2014-06-17_14-48-54_260595134347_rgbf000100-resize_2-target.png,250,3.753,6,2649,250,feet,jsons/v1_VE250_randls_19_rotated.json,560507,757166,34,Man
75,807165,DepthScenes,duration_manipulation_targetAtFixation,jsons/v1_VE250_randls_19_rotated.json,http://54.235.29.9/FacialAge/BNav_EC2/DepthDuration/v2_depth_duration_MTurk/v2_DepthDuration_HTML.html#134,134,1920,937,1920,1080,8-29-2022,14-43-45,76,depth_duration_stimuli/001133_2014-06-17_14-49-16_260595134347_rgbf000100-resize_0/001133_2014-06-17_14-49-16_260595134347_rgbf000100-resize_0-target.png,250,4.2115,7,2642,250,feet,jsons/v1_VE250_randls_19_rotated.json,560507,757166,34,Man
76,807165,DepthScenes,duration_manipulation_targetAtFixation,jsons/v1_VE250_randls_19_rotated.json,http://54.235.29.9/FacialAge/BNav_EC2/DepthDuration/v2_depth_duration_MTurk/v2_DepthDuration_HTML.html#134,134,1920,937,1920,1080,8-29-2022,14-43-45,77,depth_duration_stimuli/002414_2014-06-28_20-24-58_260595134347_rgbf000067-resize_4/002414_2014-06-28_20-24-58_260595134347_rgbf000067-resize_4-target.png,250,4.363,8,2473,251,feet,jsons/v1_VE250_randls_19_rotated.json,560507,757166,34,Man
77,807165,DepthScenes,duration_manipulation_targetAtFixation,jsons/v1_VE250_randls_19_rotated.json,http://54.235.29.9/FacialAge/BNav_EC2/DepthDuration/v2_depth_duration_MTurk/v2_DepthDuration_HTML.html#134,134,1920,937,1920,1080,8-29-2022,14-43-45,78,depth_duration_stimuli/000773_2014-06-08_22-24-54_260595134347_rgbf000093-resize_1/000773_2014-06-08_22-24-54_260595134347_rgbf000093-resize_1-target.png,250,4.973,8,3607,240,feet,jsons/v1_VE250_randls_19_rotated.json,560507,757166,34,Man
78,807165,DepthScenes,duration_manipulation_targetAtFixation,jsons/v1_VE250_randls_19_rotated.json,http://54.235.29.9/FacialAge/BNav_EC2/DepthDuration/v2_depth_duration_MTurk/v2_DepthDuration_HTML.html#134,134,1920,937,1920,1080,8-29-2022,14-43-45,79,depth_duration_stimuli/002444_2014-06-28_20-32-08_260595134347_rgbf000027-resize_0/002444_2014-06-28_20-32-08_260595134347_rgbf000027-resize_0-target.png,250,4.388999999999999,9,2355,249,feet,jsons/v1_VE250_randls_19_rotated.json,560507,757166,34,Man
79,807165,DepthScenes,duration_manipulation_targetAtFixation,jsons/v1_VE250_randls_19_rotated.json,http://54.235.29.9/FacialAge/BNav_EC2/DepthDuration/v2_depth_duration_MTurk/v2_DepthDuration_HTML.html#134,134,1920,937,1920,1080,8-29-2022,14-43-45,80,depth_duration_stimuli/000436_2014-06-09_22-25-11_260595134347_rgbf000137-resize_1/000436_2014-06-09_22-25-11_260595134347_rgbf000137-resize_1-target.png,250,4.0705,9,2604,250,feet,jsons/v1_VE250_randls_19_rotated.json,560507,757166,34,Man
80,807165,DepthScenes,duration_manipulation_targetAtFixation,jsons/v1_VE250_randls_19_rotated.json,http://54.235.29.9/FacialAge/BNav_EC2/DepthDuration/v2_depth_duration_MTurk/v2_DepthDuration_HTML.html#134,134,1920,937,1920,1080,8-29-2022,14-43-45,81,depth_duration_stimuli/001235_2014-06-17_16-37-36_260595134347_rgbf000084-resize_4/001235_2014-06-17_16-37-36_260595134347_rgbf000084-resize_4-target.png,250,3.6605,6,2424,249,feet,jsons/v1_VE250_randls_19_rotated.json,560507,757166,34,Man
81,807165,DepthScenes,duration_manipulation_targetAtFixation,jsons/v1_VE250_randls_19_rotated.json,http://54.235.29.9/FacialAge/BNav_EC2/DepthDuration/v2_depth_duration_MTurk/v2_DepthDuration_HTML.html#134,134,1920,937,1920,1080,8-29-2022,14-43-45,82,depth_duration_stimuli/000788_2014-06-08_22-34-36_260595134347_rgbf000131-resize_1/000788_2014-06-08_22-34-36_260595134347_rgbf000131-resize_1-target.png,250,3.359,7,3381,250,feet,jsons/v1_VE250_randls_19_rotated.json,560507,757166,34,Man
82,807165,DepthScenes,duration_manipulation_targetAtFixation,jsons/v1_VE250_randls_19_rotated.json,http://54.235.29.9/FacialAge/BNav_EC2/DepthDuration/v2_depth_duration_MTurk/v2_DepthDuration_HTML.html#134,134,1920,937,1920,1080,8-29-2022,14-43-45,83,depth_duration_stimuli/003228_2014-05-14_13-42-35_094959634447_rgbf000101-resize_1/003228_2014-05-14_13-42-35_094959634447_rgbf000101-resize_1-target.png,250,1.9680000000000002,2,9420,250,feet,jsons/v1_VE250_randls_19_rotated.json,560507,757166,34,Man
83,807165,DepthScenes,duration_manipulation_targetAtFixation,jsons/v1_VE250_randls_19_rotated.json,http://54.235.29.9/FacialAge/BNav_EC2/DepthDuration/v2_depth_duration_MTurk/v2_DepthDuration_HTML.html#134,134,1920,937,1920,1080,8-29-2022,14-43-45,84,depth_duration_stimuli/002600_2014-06-24_14-27-04_094959634447_rgbf000074-resize_2/002600_2014-06-24_14-27-04_094959634447_rgbf000074-resize_2-target.png,250,2.7575,4,2379,250,feet,jsons/v1_VE250_randls_19_rotated.json,560507,757166,34,Man
84,807165,DepthScenes,duration_manipulation_targetAtFixation,jsons/v1_VE250_randls_19_rotated.json,http://54.235.29.9/FacialAge/BNav_EC2/DepthDuration/v2_depth_duration_MTurk/v2_DepthDuration_HTML.html#134,134,1920,937,1920,1080,8-29-2022,14-43-45,85,depth_duration_stimuli/000943_2014-06-09_19-31-07_260595134347_rgbf000128-resize_1/000943_2014-06-09_19-31-07_260595134347_rgbf000128-resize_1-target.png,250,1.9765,3,2739,250,feet,jsons/v1_VE250_randls_19_rotated.json,560507,757166,34,Man
85,807165,DepthScenes,duration_manipulation_targetAtFixation,jsons/v1_VE250_randls_19_rotated.json,http://54.235.29.9/FacialAge/BNav_EC2/DepthDuration/v2_depth_duration_MTurk/v2_DepthDuration_HTML.html#134,134,1920,937,1920,1080,8-29-2022,14-43-45,86,depth_duration_stimuli/003070_2014-06-15_14-58-27_094959634447_rgbf000150-resize_3/003070_2014-06-15_14-58-27_094959634447_rgbf000150-resize_3-target.png,250,2.9415,6,3278,250,feet,jsons/v1_VE250_randls_19_rotated.json,560507,757166,34,Man
86,807165,DepthScenes,duration_manipulation_targetAtFixation,jsons/v1_VE250_randls_19_rotated.json,http://54.235.29.9/FacialAge/BNav_EC2/DepthDuration/v2_depth_duration_MTurk/v2_DepthDuration_HTML.html#134,134,1920,937,1920,1080,8-29-2022,14-43-45,87,depth_duration_stimuli/000409_2014-06-04_19-23-33_260595134347_rgbf000067-resize_0/000409_2014-06-04_19-23-33_260595134347_rgbf000067-resize_0-target.png,250,3.7335,7,2582,250,feet,jsons/v1_VE250_randls_19_rotated.json,560507,757166,34,Man
87,807165,DepthScenes,duration_manipulation_targetAtFixation,jsons/v1_VE250_randls_19_rotated.json,http://54.235.29.9/FacialAge/BNav_EC2/DepthDuration/v2_depth_duration_MTurk/v2_DepthDuration_HTML.html#134,134,1920,937,1920,1080,8-29-2022,14-43-45,88,depth_duration_stimuli/002663_2014-06-13_15-50-26_094959634447_rgbf000075-resize_1/002663_2014-06-13_15-50-26_094959634447_rgbf000075-resize_1-target.png,250,4.7495,7,2805,250,feet,jsons/v1_VE250_randls_19_rotated.json,560507,757166,34,Man
88,807165,DepthScenes,duration_manipulation_targetAtFixation,jsons/v1_VE250_randls_19_rotated.json,http://54.235.29.9/FacialAge/BNav_EC2/DepthDuration/v2_depth_duration_MTurk/v2_DepthDuration_HTML.html#134,134,1920,937,1920,1080,8-29-2022,14-43-45,89,depth_duration_stimuli/001392_2014-06-19_16-07-59_260595134347_rgbf000046-resize_1/001392_2014-06-19_16-07-59_260595134347_rgbf000046-resize_1-target.png,250,4.135,6,2197,250,feet,jsons/v1_VE250_randls_19_rotated.json,560507,757166,34,Man
89,807165,DepthScenes,duration_manipulation_targetAtFixation,jsons/v1_VE250_randls_19_rotated.json,http://54.235.29.9/FacialAge/BNav_EC2/DepthDuration/v2_depth_duration_MTurk/v2_DepthDuration_HTML.html#134,134,1920,937,1920,1080,8-29-2022,14-43-45,90,depth_duration_stimuli/001570_2014-06-20_17-21-09_260595134347_rgbf000135-resize_4/001570_2014-06-20_17-21-09_260595134347_rgbf000135-resize_4-target.png,250,4.467,6,2785,250,feet,jsons/v1_VE250_randls_19_rotated.json,560507,757166,34,Man
90,807165,DepthScenes,duration_manipulation_targetAtFixation,jsons/v1_VE250_randls_19_rotated.json,http://54.235.29.9/FacialAge/BNav_EC2/DepthDuration/v2_depth_duration_MTurk/v2_DepthDuration_HTML.html#134,134,1920,937,1920,1080,8-29-2022,14-43-45,91,depth_duration_stimuli/000709_2014-06-08_13-51-55_260595134347_rgbf000068-resize_3/000709_2014-06-08_13-51-55_260595134347_rgbf000068-resize_3-target.png,250,1.8030000000000002,4,2941,249,feet,jsons/v1_VE250_randls_19_rotated.json,560507,757166,34,Man
91,807165,DepthScenes,duration_manipulation_targetAtFixation,jsons/v1_VE250_randls_19_rotated.json,http://54.235.29.9/FacialAge/BNav_EC2/DepthDuration/v2_depth_duration_MTurk/v2_DepthDuration_HTML.html#134,134,1920,937,1920,1080,8-29-2022,14-43-45,92,depth_duration_stimuli/002057_2014-06-24_21-00-13_260595134347_rgbf000120-resize_1/002057_2014-06-24_21-00-13_260595134347_rgbf000120-resize_1-target.png,250,2.967,6,2648,250,feet,jsons/v1_VE250_randls_19_rotated.json,560507,757166,34,Man
92,807165,DepthScenes,duration_manipulation_targetAtFixation,jsons/v1_VE250_randls_19_rotated.json,http://54.235.29.9/FacialAge/BNav_EC2/DepthDuration/v2_depth_duration_MTurk/v2_DepthDuration_HTML.html#134,134,1920,937,1920,1080,8-29-2022,14-43-45,93,depth_duration_stimuli/003083_2014-06-15_15-21-03_094959634447_rgbf000063-resize_1/003083_2014-06-15_15-21-03_094959634447_rgbf000063-resize_1-target.png,250,4.1405,7,2390,250,feet,jsons/v1_VE250_randls_19_rotated.json,560507,757166,34,Man
93,807165,DepthScenes,duration_manipulation_targetAtFixation,jsons/v1_VE250_randls_19_rotated.json,http://54.235.29.9/FacialAge/BNav_EC2/DepthDuration/v2_depth_duration_MTurk/v2_DepthDuration_HTML.html#134,134,1920,937,1920,1080,8-29-2022,14-43-45,94,depth_duration_stimuli/000486_2014-06-09_20-47-20_260595134347_rgbf000143-resize_2/000486_2014-06-09_20-47-20_260595134347_rgbf000143-resize_2-target.png,250,4.8325,5,4147,249,feet,jsons/v1_VE250_randls_19_rotated.json,560507,757166,34,Man
94,807165,DepthScenes,duration_manipulation_targetAtFixation,jsons/v1_VE250_randls_19_rotated.json,http://54.235.29.9/FacialAge/BNav_EC2/DepthDuration/v2_depth_duration_MTurk/v2_DepthDuration_HTML.html#134,134,1920,937,1920,1080,8-29-2022,14-43-45,95,depth_duration_stimuli/002568_2014-06-24_13-59-21_094959634447_rgbf000062-resize_4/002568_2014-06-24_13-59-21_094959634447_rgbf000062-resize_4-target.png,250,3.015,5,2692,250,feet,jsons/v1_VE250_randls_19_rotated.json,560507,757166,34,Man
95,807165,DepthScenes,duration_manipulation_targetAtFixation,jsons/v1_VE250_randls_19_rotated.json,http://54.235.29.9/FacialAge/BNav_EC2/DepthDuration/v2_depth_duration_MTurk/v2_DepthDuration_HTML.html#134,134,1920,937,1920,1080,8-29-2022,14-43-45,96,depth_duration_stimuli/003492_2014-05-21_15-50-55_094959634447_rgbf000828-resize_1/003492_2014-05-21_15-50-55_094959634447_rgbf000828-resize_1-target.png,250,4.06875,6,2470,250,feet,jsons/v1_VE250_randls_19_rotated.json,560507,757166,34,Man
96,807165,DepthScenes,duration_manipulation_targetAtFixation,jsons/v1_VE250_randls_19_rotated.json,http://54.235.29.9/FacialAge/BNav_EC2/DepthDuration/v2_depth_duration_MTurk/v2_DepthDuration_HTML.html#134,134,1920,937,1920,1080,8-29-2022,14-43-45,97,depth_duration_stimuli/003490_2014-05-21_15-50-11_094959634447_rgbf000101-resize_3/003490_2014-05-21_15-50-11_094959634447_rgbf000101-resize_3-target.png,250,3.6445,4,2965,260,feet,jsons/v1_VE250_randls_19_rotated.json,560507,757166,34,Man
97,807165,DepthScenes,duration_manipulation_targetAtFixation,jsons/v1_VE250_randls_19_rotated.json,http://54.235.29.9/FacialAge/BNav_EC2/DepthDuration/v2_depth_duration_MTurk/v2_DepthDuration_HTML.html#134,134,1920,937,1920,1080,8-29-2022,14-43-45,98,depth_duration_stimuli/001175_2014-06-17_15-45-55_260595134347_rgbf000129-resize_4/001175_2014-06-17_15-45-55_260595134347_rgbf000129-resize_4-target.png,250,4.255,6,2789,250,feet,jsons/v1_VE250_randls_19_rotated.json,560507,757166,34,Man
98,807165,DepthScenes,duration_manipulation_targetAtFixation,jsons/v1_VE250_randls_19_rotated.json,http://54.235.29.9/FacialAge/BNav_EC2/DepthDuration/v2_depth_duration_MTurk/v2_DepthDuration_HTML.html#134,134,1920,937,1920,1080,8-29-2022,14-43-45,99,depth_duration_stimuli/001222_2014-06-17_16-24-06_260595134347_rgbf000073-resize_0/001222_2014-06-17_16-24-06_260595134347_rgbf000073-resize-original.jpg,250,1.4385,0,3383,248,feet,jsons/v1_VE250_randls_19_rotated.json,560507,757166,34,Man
99,807165,DepthScenes,duration_manipulation_targetAtFixation,jsons/v1_VE250_randls_19_rotated.json,http://54.235.29.9/FacialAge/BNav_EC2/DepthDuration/v2_depth_duration_MTurk/v2_DepthDuration_HTML.html#134,134,1920,937,1920,1080,8-29-2022,14-43-45,100,depth_duration_stimuli/002953_2014-06-08_17-32-18_094959634447_rgbf000059-resize_5/002953_2014-06-08_17-32-18_094959634447_rgbf000059-resize_5-target.png,250,1.551,2,4055,250,feet,jsons/v1_VE250_randls_19_rotated.json,560507,757166,34,Man
100,807165,DepthScenes,duration_manipulation_targetAtFixation,jsons/v1_VE250_randls_19_rotated.json,http://54.235.29.9/FacialAge/BNav_EC2/DepthDuration/v2_depth_duration_MTurk/v2_DepthDuration_HTML.html#134,134,1920,937,1920,1080,8-29-2022,14-43-45,101,depth_duration_stimuli/000878_2014-06-08_22-52-45_260595134347_rgbf000045-resize_2/000878_2014-06-08_22-52-45_260595134347_rgbf000045-resize_2-target.png,250,2.092,4,2736,259,feet,jsons/v1_VE250_randls_19_rotated.json,560507,757166,34,Man
101,807165,DepthScenes,duration_manipulation_targetAtFixation,jsons/v1_VE250_randls_19_rotated.json,http://54.235.29.9/FacialAge/BNav_EC2/DepthDuration/v2_depth_duration_MTurk/v2_DepthDuration_HTML.html#134,134,1920,937,1920,1080,8-29-2022,14-43-45,102,depth_duration_stimuli/003495_2014-05-21_16-01-51_094959634447_rgbf000100-resize_3/003495_2014-05-21_16-01-51_094959634447_rgbf000100-resize_3-target.png,250,1.6255,3,4011,250,feet,jsons/v1_VE250_randls_19_rotated.json,560507,757166,34,Man
102,807165,DepthScenes,duration_manipulation_targetAtFixation,jsons/v1_VE250_randls_19_rotated.json,http://54.235.29.9/FacialAge/BNav_EC2/DepthDuration/v2_depth_duration_MTurk/v2_DepthDuration_HTML.html#134,134,1920,937,1920,1080,8-29-2022,14-43-45,103,depth_duration_stimuli/001244_2014-06-17_16-47-45_260595134347_rgbf000030-resize_4/001244_2014-06-17_16-47-45_260595134347_rgbf000030-resize_4-target.png,250,2.0425,2,2738,250,feet,jsons/v1_VE250_randls_19_rotated.json,560507,757166,34,Man
103,807165,DepthScenes,duration_manipulation_targetAtFixation,jsons/v1_VE250_randls_19_rotated.json,http://54.235.29.9/FacialAge/BNav_EC2/DepthDuration/v2_depth_duration_MTurk/v2_DepthDuration_HTML.html#134,134,1920,937,1920,1080,8-29-2022,14-43-45,104,depth_duration_stimuli/002467_2014-06-28_20-38-07_260595134347_rgbf000026-resize_2/002467_2014-06-28_20-38-07_260595134347_rgbf000026-resize_2-target.png,250,4.742,6,2559,250,feet,jsons/v1_VE250_randls_19_rotated.json,560507,757166,34,Man
104,807165,DepthScenes,duration_manipulation_targetAtFixation,jsons/v1_VE250_randls_19_rotated.json,http://54.235.29.9/FacialAge/BNav_EC2/DepthDuration/v2_depth_duration_MTurk/v2_DepthDuration_HTML.html#134,134,1920,937,1920,1080,8-29-2022,14-43-45,105,depth_duration_stimuli/002570_2014-06-24_13-59-54_094959634447_rgbf000059-resize_0/002570_2014-06-24_13-59-54_094959634447_rgbf000059-resize_0-target.png,250,4.037,4,2166,251,feet,jsons/v1_VE250_randls_19_rotated.json,560507,757166,34,Man
105,807165,DepthScenes,duration_manipulation_targetAtFixation,jsons/v1_VE250_randls_19_rotated.json,http://54.235.29.9/FacialAge/BNav_EC2/DepthDuration/v2_depth_duration_MTurk/v2_DepthDuration_HTML.html#134,134,1920,937,1920,1080,8-29-2022,14-43-45,106,depth_duration_stimuli/000457_2014-06-08_16-52-43_260595134347_rgbf000199-resize_1/000457_2014-06-08_16-52-43_260595134347_rgbf000199-resize_1-target.png,250,3.6489999999999996,5,2440,249,feet,jsons/v1_VE250_randls_19_rotated.json,560507,757166,34,Man
106,807165,DepthScenes,duration_manipulation_targetAtFixation,jsons/v1_VE250_randls_19_rotated.json,http://54.235.29.9/FacialAge/BNav_EC2/DepthDuration/v2_depth_duration_MTurk/v2_DepthDuration_HTML.html#134,134,1920,937,1920,1080,8-29-2022,14-43-45,107,depth_duration_stimuli/000929_2014-06-09_16-33-19_260595134347_rgbf000139-resize_0/000929_2014-06-09_16-33-19_260595134347_rgbf000139-resize_0-target.png,250,2.8680000000000003,6,2688,250,feet,jsons/v1_VE250_randls_19_rotated.json,560507,757166,34,Man
107,807165,DepthScenes,duration_manipulation_targetAtFixation,jsons/v1_VE250_randls_19_rotated.json,http://54.235.29.9/FacialAge/BNav_EC2/DepthDuration/v2_depth_duration_MTurk/v2_DepthDuration_HTML.html#134,134,1920,937,1920,1080,8-29-2022,14-43-45,108,depth_duration_stimuli/000691_2014-06-08_13-08-50_260595134347_rgbf000132-resize_3/000691_2014-06-08_13-08-50_260595134347_rgbf000132-resize_3-target.png,250,4.1530000000000005,7,2603,249,feet,jsons/v1_VE250_randls_19_rotated.json,560507,757166,34,Man
108,807165,DepthScenes,duration_manipulation_targetAtFixation,jsons/v1_VE250_randls_19_rotated.json,http://54.235.29.9/FacialAge/BNav_EC2/DepthDuration/v2_depth_duration_MTurk/v2_DepthDuration_HTML.html#134,134,1920,937,1920,1080,8-29-2022,14-43-45,109,depth_duration_stimuli/002213_2014-06-28_18-37-58_260595134347_rgbf000055-resize_1/002213_2014-06-28_18-37-58_260595134347_rgbf000055-resize_1-target.png,250,3.62,8,2494,240,feet,jsons/v1_VE250_randls_19_rotated.json,560507,757166,34,Man
109,807165,DepthScenes,duration_manipulation_targetAtFixation,jsons/v1_VE250_randls_19_rotated.json,http://54.235.29.9/FacialAge/BNav_EC2/DepthDuration/v2_depth_duration_MTurk/v2_DepthDuration_HTML.html#134,134,1920,937,1920,1080,8-29-2022,14-43-45,110,depth_duration_stimuli/001094_2014-06-15_17-36-00_260595134347_rgbf000205-resize_0/001094_2014-06-15_17-36-00_260595134347_rgbf000205-resize_0-target.png,250,4.2175,6,2558,249,feet,jsons/v1_VE250_randls_19_rotated.json,560507,757166,34,Man
110,807165,DepthScenes,duration_manipulation_targetAtFixation,jsons/v1_VE250_randls_19_rotated.json,http://54.235.29.9/FacialAge/BNav_EC2/DepthDuration/v2_depth_duration_MTurk/v2_DepthDuration_HTML.html#134,134,1920,937,1920,1080,8-29-2022,14-43-45,111,depth_duration_stimuli/000692_2014-06-08_13-09-42_260595134347_rgbf000199-resize_2/000692_2014-06-08_13-09-42_260595134347_rgbf000199-resize_2-target.png,250,3.661,9,3572,250,feet,jsons/v1_VE250_randls_19_rotated.json,560507,757166,34,Man
111,807165,DepthScenes,duration_manipulation_targetAtFixation,jsons/v1_VE250_randls_19_rotated.json,http://54.235.29.9/FacialAge/BNav_EC2/DepthDuration/v2_depth_duration_MTurk/v2_DepthDuration_HTML.html#134,134,1920,937,1920,1080,8-29-2022,14-43-45,112,depth_duration_stimuli/001516_2014-06-20_16-25-09_260595134347_rgbf000076-resize_2/001516_2014-06-20_16-25-09_260595134347_rgbf000076-resize_2-target.png,250,1.7445,3,5234,250,feet,jsons/v1_VE250_randls_19_rotated.json,560507,757166,34,Man
112,807165,DepthScenes,duration_manipulation_targetAtFixation,jsons/v1_VE250_randls_19_rotated.json,http://54.235.29.9/FacialAge/BNav_EC2/DepthDuration/v2_depth_duration_MTurk/v2_DepthDuration_HTML.html#134,134,1920,937,1920,1080,8-29-2022,14-43-45,113,depth_duration_stimuli/002118_2014-06-25_20-32-08_260595134347_rgbf000078-resize_1/002118_2014-06-25_20-32-08_260595134347_rgbf000078-resize_1-target.png,250,2.6460000000000004,4,2897,249,feet,jsons/v1_VE250_randls_19_rotated.json,560507,757166,34,Man
113,807165,DepthScenes,duration_manipulation_targetAtFixation,jsons/v1_VE250_randls_19_rotated.json,http://54.235.29.9/FacialAge/BNav_EC2/DepthDuration/v2_depth_duration_MTurk/v2_DepthDuration_HTML.html#134,134,1920,937,1920,1080,8-29-2022,14-43-45,114,depth_duration_stimuli/000927_2014-06-09_16-32-30_260595134347_rgbf000123-resize_3/000927_2014-06-09_16-32-30_260595134347_rgbf000123-resize_3-target.png,250,2.6785,4,2637,249,feet,jsons/v1_VE250_randls_19_rotated.json,560507,757166,34,Man
114,807165,DepthScenes,duration_manipulation_targetAtFixation,jsons/v1_VE250_randls_19_rotated.json,http://54.235.29.9/FacialAge/BNav_EC2/DepthDuration/v2_depth_duration_MTurk/v2_DepthDuration_HTML.html#134,134,1920,937,1920,1080,8-29-2022,14-43-45,115,depth_duration_stimuli/001110_2014-06-15_17-25-28_260595134347_rgbf000150-resize_1/001110_2014-06-15_17-25-28_260595134347_rgbf000150-resize_1-target.png,250,1.7115,5,2648,250,feet,jsons/v1_VE250_randls_19_rotated.json,560507,757166,34,Man
115,807165,DepthScenes,duration_manipulation_targetAtFixation,jsons/v1_VE250_randls_19_rotated.json,http://54.235.29.9/FacialAge/BNav_EC2/DepthDuration/v2_depth_duration_MTurk/v2_DepthDuration_HTML.html#134,134,1920,937,1920,1080,8-29-2022,14-43-45,116,depth_duration_stimuli/001052_2014-06-08_18-24-54_260595134347_rgbf000130-resize_1/001052_2014-06-08_18-24-54_260595134347_rgbf000130-resize_1-target.png,250,4.1045,7,2806,250,feet,jsons/v1_VE250_randls_19_rotated.json,560507,757166,34,Man
116,807165,DepthScenes,duration_manipulation_targetAtFixation,jsons/v1_VE250_randls_19_rotated.json,http://54.235.29.9/FacialAge/BNav_EC2/DepthDuration/v2_depth_duration_MTurk/v2_DepthDuration_HTML.html#134,134,1920,937,1920,1080,8-29-2022,14-43-45,117,depth_duration_stimuli/002988_2014-06-15_12-24-20_094959634447_rgbf000150-resize_1/002988_2014-06-15_12-24-20_094959634447_rgbf000150-resize_1-target.png,250,4.7669999999999995,8,3109,250,feet,jsons/v1_VE250_randls_19_rotated.json,560507,757166,34,Man
117,807165,DepthScenes,duration_manipulation_targetAtFixation,jsons/v1_VE250_randls_19_rotated.json,http://54.235.29.9/FacialAge/BNav_EC2/DepthDuration/v2_depth_duration_MTurk/v2_DepthDuration_HTML.html#134,134,1920,937,1920,1080,8-29-2022,14-43-45,118,depth_duration_stimuli/000780_2014-06-08_22-28-29_260595134347_rgbf000126-resize_1/000780_2014-06-08_22-28-29_260595134347_rgbf000126-resize_1-target.png,250,3.3825,6,3065,250,feet,jsons/v1_VE250_randls_19_rotated.json,560507,757166,34,Man
118,807165,DepthScenes,duration_manipulation_targetAtFixation,jsons/v1_VE250_randls_19_rotated.json,http://54.235.29.9/FacialAge/BNav_EC2/DepthDuration/v2_depth_duration_MTurk/v2_DepthDuration_HTML.html#134,134,1920,937,1920,1080,8-29-2022,14-43-45,119,depth_duration_stimuli/002445_2014-06-28_20-32-16_260595134347_rgbf000029-resize_4/002445_2014-06-28_20-32-16_260595134347_rgbf000029-resize_4-target.png,250,2.5315,4,5462,250,feet,jsons/v1_VE250_randls_19_rotated.json,560507,757166,34,Man
119,807165,DepthScenes,duration_manipulation_targetAtFixation,jsons/v1_VE250_randls_19_rotated.json,http://54.235.29.9/FacialAge/BNav_EC2/DepthDuration/v2_depth_duration_MTurk/v2_DepthDuration_HTML.html#134,134,1920,937,1920,1080,8-29-2022,14-43-45,120,depth_duration_stimuli/000787_2014-06-08_22-33-53_260595134347_rgbf000175-resize_1/000787_2014-06-08_22-33-53_260595134347_rgbf000175-resize-original.jpg,250,4.784,0,3074,253,feet,jsons/v1_VE250_randls_19_rotated.json,560507,757166,34,Man
120,807165,DepthScenes,duration_manipulation_targetAtFixation,jsons/v1_VE250_randls_19_rotated.json,http://54.235.29.9/FacialAge/BNav_EC2/DepthDuration/v2_depth_duration_MTurk/v2_DepthDuration_HTML.html#134,134,1920,937,1920,1080,8-29-2022,14-43-45,121,depth_duration_stimuli/002323_2014-06-28_20-01-54_260595134347_rgbf000051-resize_4/002323_2014-06-28_20-01-54_260595134347_rgbf000051-resize_4-target.png,250,3.7310000000000003,8,4776,250,feet,jsons/v1_VE250_randls_19_rotated.json,560507,757166,34,Man
121,807165,DepthScenes,duration_manipulation_targetAtFixation,jsons/v1_VE250_randls_19_rotated.json,http://54.235.29.9/FacialAge/BNav_EC2/DepthDuration/v2_depth_duration_MTurk/v2_DepthDuration_HTML.html#134,134,1920,937,1920,1080,8-29-2022,14-43-45,122,depth_duration_stimuli/000917_2014-06-09_22-45-29_260595134347_rgbf000149-resize_3/000917_2014-06-09_22-45-29_260595134347_rgbf000149-resize_3-target.png,250,4.1865,4,2818,251,feet,jsons/v1_VE250_randls_19_rotated.json,560507,757166,34,Man
122,807165,DepthScenes,duration_manipulation_targetAtFixation,jsons/v1_VE250_randls_19_rotated.json,http://54.235.29.9/FacialAge/BNav_EC2/DepthDuration/v2_depth_duration_MTurk/v2_DepthDuration_HTML.html#134,134,1920,937,1920,1080,8-29-2022,14-43-45,123,depth_duration_stimuli/002344_2014-06-28_20-06-29_260595134347_rgbf000030-resize_1/002344_2014-06-28_20-06-29_260595134347_rgbf000030-resize_1-target.png,250,1.5795,3,2717,250,feet,jsons/v1_VE250_randls_19_rotated.json,560507,757166,34,Man
123,807165,DepthScenes,duration_manipulation_targetAtFixation,jsons/v1_VE250_randls_19_rotated.json,http://54.235.29.9/FacialAge/BNav_EC2/DepthDuration/v2_depth_duration_MTurk/v2_DepthDuration_HTML.html#134,134,1920,937,1920,1080,8-29-2022,14-43-45,124,depth_duration_stimuli/002725_2014-06-22_11-47-51_094959634447_rgbf000070-resize_1/002725_2014-06-22_11-47-51_094959634447_rgbf000070-resize_1-target.png,250,2.195,0,3133,249,feet,jsons/v1_VE250_randls_19_rotated.json,560507,757166,34,Man
124,807165,DepthScenes,duration_manipulation_targetAtFixation,jsons/v1_VE250_randls_19_rotated.json,http://54.235.29.9/FacialAge/BNav_EC2/DepthDuration/v2_depth_duration_MTurk/v2_DepthDuration_HTML.html#134,134,1920,937,1920,1080,8-29-2022,14-43-45,125,depth_duration_stimuli/002657_2014-06-13_15-29-54_094959634447_rgbf000150-resize_1/002657_2014-06-13_15-29-54_094959634447_rgbf000150-resize_1-target.png,250,4.919,5,2773,249,feet,jsons/v1_VE250_randls_19_rotated.json,560507,757166,34,Man
125,807165,DepthScenes,duration_manipulation_targetAtFixation,jsons/v1_VE250_randls_19_rotated.json,http://54.235.29.9/FacialAge/BNav_EC2/DepthDuration/v2_depth_duration_MTurk/v2_DepthDuration_HTML.html#134,134,1920,937,1920,1080,8-29-2022,14-43-45,126,depth_duration_stimuli/002375_2014-06-28_20-13-44_260595134347_rgbf000032-resize_1/002375_2014-06-28_20-13-44_260595134347_rgbf000032-resize_1-target.png,250,4.0175,3,2548,250,feet,jsons/v1_VE250_randls_19_rotated.json,560507,757166,34,Man
126,807165,DepthScenes,duration_manipulation_targetAtFixation,jsons/v1_VE250_randls_19_rotated.json,http://54.235.29.9/FacialAge/BNav_EC2/DepthDuration/v2_depth_duration_MTurk/v2_DepthDuration_HTML.html#134,134,1920,937,1920,1080,8-29-2022,14-43-45,127,depth_duration_stimuli/002425_2014-06-28_20-27-29_260595134347_rgbf000031-resize_8/002425_2014-06-28_20-27-29_260595134347_rgbf000031-resize_8-target.png,250,3.8960000000000004,6,3232,250,feet,jsons/v1_VE250_randls_19_rotated.json,560507,757166,34,Man
127,807165,DepthScenes,duration_manipulation_targetAtFixation,jsons/v1_VE250_randls_19_rotated.json,http://54.235.29.9/FacialAge/BNav_EC2/DepthDuration/v2_depth_duration_MTurk/v2_DepthDuration_HTML.html#134,134,1920,937,1920,1080,8-29-2022,14-43-45,128,depth_duration_stimuli/000642_2014-06-08_16-59-25_260595134347_rgbf000098-resize_2/000642_2014-06-08_16-59-25_260595134347_rgbf000098-resize_2-target.png,250,2.8815,5,2391,249,feet,jsons/v1_VE250_randls_19_rotated.json,560507,757166,34,Man
128,807165,DepthScenes,duration_manipulation_targetAtFixation,jsons/v1_VE250_randls_19_rotated.json,http://54.235.29.9/FacialAge/BNav_EC2/DepthDuration/v2_depth_duration_MTurk/v2_DepthDuration_HTML.html#134,134,1920,937,1920,1080,8-29-2022,14-43-45,129,depth_duration_stimuli/001617_2014-06-20_11-35-32_260595134347_rgbf000066-resize_1/001617_2014-06-20_11-35-32_260595134347_rgbf000066-resize_1-target.png,250,3.7910000000000004,7,2569,250,feet,jsons/v1_VE250_randls_19_rotated.json,560507,757166,34,Man
129,807165,DepthScenes,duration_manipulation_targetAtFixation,jsons/v1_VE250_randls_19_rotated.json,http://54.235.29.9/FacialAge/BNav_EC2/DepthDuration/v2_depth_duration_MTurk/v2_DepthDuration_HTML.html#134,134,1920,937,1920,1080,8-29-2022,14-43-45,130,depth_duration_stimuli/001806_2014-06-26_20-50-20_260595134347_rgbf000091-resize_1/001806_2014-06-26_20-50-20_260595134347_rgbf000091-resize_1-target.png,250,2.7305,5,2322,250,feet,jsons/v1_VE250_randls_19_rotated.json,560507,757166,34,Man
130,807165,DepthScenes,duration_manipulation_targetAtFixation,jsons/v1_VE250_randls_19_rotated.json,http://54.235.29.9/FacialAge/BNav_EC2/DepthDuration/v2_depth_duration_MTurk/v2_DepthDuration_HTML.html#134,134,1920,937,1920,1080,8-29-2022,14-43-45,131,depth_duration_stimuli/000483_2014-06-09_20-41-45_260595134347_rgbf000116-resize_4/000483_2014-06-09_20-41-45_260595134347_rgbf000116-resize_4-target.png,250,1.337,4,2615,248,feet,jsons/v1_VE250_randls_19_rotated.json,560507,757166,34,Man
131,807165,DepthScenes,duration_manipulation_targetAtFixation,jsons/v1_VE250_randls_19_rotated.json,http://54.235.29.9/FacialAge/BNav_EC2/DepthDuration/v2_depth_duration_MTurk/v2_DepthDuration_HTML.html#134,134,1920,937,1920,1080,8-29-2022,14-43-45,132,depth_duration_stimuli/000469_2014-06-09_19-42-10_260595134347_rgbf000081-resize_1/000469_2014-06-09_19-42-10_260595134347_rgbf000081-resize_1-target.png,250,1.652,3,2728,248,feet,jsons/v1_VE250_randls_19_rotated.json,560507,757166,34,Man
132,807165,DepthScenes,duration_manipulation_targetAtFixation,jsons/v1_VE250_randls_19_rotated.json,http://54.235.29.9/FacialAge/BNav_EC2/DepthDuration/v2_depth_duration_MTurk/v2_DepthDuration_HTML.html#134,134,1920,937,1920,1080,8-29-2022,14-43-45,133,depth_duration_stimuli/002545_2014-06-24_13-38-53_094959634447_rgbf000080-resize_4/002545_2014-06-24_13-38-53_094959634447_rgbf000080-resize_4-target.png,250,1.9205,4,2346,251,feet,jsons/v1_VE250_randls_19_rotated.json,560507,757166,34,Man
133,807165,DepthScenes,duration_manipulation_targetAtFixation,jsons/v1_VE250_randls_19_rotated.json,http://54.235.29.9/FacialAge/BNav_EC2/DepthDuration/v2_depth_duration_MTurk/v2_DepthDuration_HTML.html#134,134,1920,937,1920,1080,8-29-2022,14-43-45,134,depth_duration_stimuli/001092_2014-06-15_17-34-58_260595134347_rgbf000171-resize_3/001092_2014-06-15_17-34-58_260595134347_rgbf000171-resize_3-target.png,250,2.6935,5,2750,249,feet,jsons/v1_VE250_randls_19_rotated.json,560507,757166,34,Man
134,807165,DepthScenes,duration_manipulation_targetAtFixation,jsons/v1_VE250_randls_19_rotated.json,http://54.235.29.9/FacialAge/BNav_EC2/DepthDuration/v2_depth_duration_MTurk/v2_DepthDuration_HTML.html#134,134,1920,937,1920,1080,8-29-2022,14-43-45,135,depth_duration_stimuli/000375_2014-06-08_11-17-29_260595134347_rgbf000133-resize_2/000375_2014-06-08_11-17-29_260595134347_rgbf000133-resize-original.jpg,250,4.718,0,3235,251,feet,jsons/v1_VE250_randls_19_rotated.json,560507,757166,34,Man
135,807165,DepthScenes,duration_manipulation_targetAtFixation,jsons/v1_VE250_randls_19_rotated.json,http://54.235.29.9/FacialAge/BNav_EC2/DepthDuration/v2_depth_duration_MTurk/v2_DepthDuration_HTML.html#134,134,1920,937,1920,1080,8-29-2022,14-43-45,136,depth_duration_stimuli/003423_2014-05-21_10-23-26_094959634447_rgbf002665-resize_2/003423_2014-05-21_10-23-26_094959634447_rgbf002665-resize_2-target.png,250,3.2575,6,3054,250,feet,jsons/v1_VE250_randls_19_rotated.json,560507,757166,34,Man
136,807165,DepthScenes,duration_manipulation_targetAtFixation,jsons/v1_VE250_randls_19_rotated.json,http://54.235.29.9/FacialAge/BNav_EC2/DepthDuration/v2_depth_duration_MTurk/v2_DepthDuration_HTML.html#134,134,1920,937,1920,1080,8-29-2022,14-43-45,137,depth_duration_stimuli/002905_2014-06-03_18-04-43_094959634447_rgbf000151-resize_2/002905_2014-06-03_18-04-43_094959634447_rgbf000151-resize_2-target.png,250,2.0295,5,4001,249,feet,jsons/v1_VE250_randls_19_rotated.json,560507,757166,34,Man
137,807165,DepthScenes,duration_manipulation_targetAtFixation,jsons/v1_VE250_randls_19_rotated.json,http://54.235.29.9/FacialAge/BNav_EC2/DepthDuration/v2_depth_duration_MTurk/v2_DepthDuration_HTML.html#134,134,1920,937,1920,1080,8-29-2022,14-43-45,138,depth_duration_stimuli/002637_2014-06-24_14-51-13_094959634447_rgbf000066-resize_4/002637_2014-06-24_14-51-13_094959634447_rgbf000066-resize_4-target.png,250,1.9955,5,2160,249,feet,jsons/v1_VE250_randls_19_rotated.json,560507,757166,34,Man
138,807165,DepthScenes,duration_manipulation_targetAtFixation,jsons/v1_VE250_randls_19_rotated.json,http://54.235.29.9/FacialAge/BNav_EC2/DepthDuration/v2_depth_duration_MTurk/v2_DepthDuration_HTML.html#134,134,1920,937,1920,1080,8-29-2022,14-43-45,139,depth_duration_stimuli/003534_2014-05-22_15-06-10_094959634447_rgbf000102-resize_4/003534_2014-05-22_15-06-10_094959634447_rgbf000102-resize_4-target.png,250,1.426,3,2937,250,feet,jsons/v1_VE250_randls_19_rotated.json,560507,757166,34,Man
139,807165,DepthScenes,duration_manipulation_targetAtFixation,jsons/v1_VE250_randls_19_rotated.json,http://54.235.29.9/FacialAge/BNav_EC2/DepthDuration/v2_depth_duration_MTurk/v2_DepthDuration_HTML.html#134,134,1920,937,1920,1080,8-29-2022,14-43-45,140,depth_duration_stimuli/003010_2014-06-15_12-54-35_094959634447_rgbf000112-resize_0/003010_2014-06-15_12-54-35_094959634447_rgbf000112-resize_0-target.png,250,3.1185,0,3030,248,feet,jsons/v1_VE250_randls_19_rotated.json,560507,757166,34,Man
140,807165,DepthScenes,duration_manipulation_targetAtFixation,jsons/v1_VE250_randls_19_rotated.json,http://54.235.29.9/FacialAge/BNav_EC2/DepthDuration/v2_depth_duration_MTurk/v2_DepthDuration_HTML.html#134,134,1920,937,1920,1080,8-29-2022,14-43-45,141,depth_duration_stimuli/001810_2014-06-26_20-51-35_260595134347_rgbf000040-resize_3/001810_2014-06-26_20-51-35_260595134347_rgbf000040-resize_3-target.png,250,2.2525,4,2472,250,feet,jsons/v1_VE250_randls_19_rotated.json,560507,757166,34,Man
141,807165,DepthScenes,duration_manipulation_targetAtFixation,jsons/v1_VE250_randls_19_rotated.json,http://54.235.29.9/FacialAge/BNav_EC2/DepthDuration/v2_depth_duration_MTurk/v2_DepthDuration_HTML.html#134,134,1920,937,1920,1080,8-29-2022,14-43-45,142,depth_duration_stimuli/002805_2014-06-22_19-54-03_094959634447_rgbf000079-resize_1/002805_2014-06-22_19-54-03_094959634447_rgbf000079-resize_1-target.png,250,3.1439999999999997,5,2543,249,feet,jsons/v1_VE250_randls_19_rotated.json,560507,757166,34,Man
142,807165,DepthScenes,duration_manipulation_targetAtFixation,jsons/v1_VE250_randls_19_rotated.json,http://54.235.29.9/FacialAge/BNav_EC2/DepthDuration/v2_depth_duration_MTurk/v2_DepthDuration_HTML.html#134,134,1920,937,1920,1080,8-29-2022,14-43-45,143,depth_duration_stimuli/000906_2014-06-08_13-35-43_260595134347_rgbf000155-resize_1/000906_2014-06-08_13-35-43_260595134347_rgbf000155-resize_1-target.png,250,2.8489999999999998,5,2851,249,feet,jsons/v1_VE250_randls_19_rotated.json,560507,757166,34,Man
143,807165,DepthScenes,duration_manipulation_targetAtFixation,jsons/v1_VE250_randls_19_rotated.json,http://54.235.29.9/FacialAge/BNav_EC2/DepthDuration/v2_depth_duration_MTurk/v2_DepthDuration_HTML.html#134,134,1920,937,1920,1080,8-29-2022,14-43-45,144,depth_duration_stimuli/000665_2014-06-09_20-42-35_260595134347_rgbf000110-resize_1/000665_2014-06-09_20-42-35_260595134347_rgbf000110-resize_1-target.png,250,3.057,5,2379,250,feet,jsons/v1_VE250_randls_19_rotated.json,560507,757166,34,Man
144,807165,DepthScenes,duration_manipulation_targetAtFixation,jsons/v1_VE250_randls_19_rotated.json,http://54.235.29.9/FacialAge/BNav_EC2/DepthDuration/v2_depth_duration_MTurk/v2_DepthDuration_HTML.html#134,134,1920,937,1920,1080,8-29-2022,14-43-45,145,depth_duration_stimuli/001150_2014-06-17_15-27-34_260595134347_rgbf000108-resize_2/001150_2014-06-17_15-27-34_260595134347_rgbf000108-resize_2-target.png,250,4.0325,6,3008,248,feet,jsons/v1_VE250_randls_19_rotated.json,560507,757166,34,Man
145,807165,DepthScenes,duration_manipulation_targetAtFixation,jsons/v1_VE250_randls_19_rotated.json,http://54.235.29.9/FacialAge/BNav_EC2/DepthDuration/v2_depth_duration_MTurk/v2_DepthDuration_HTML.html#134,134,1920,937,1920,1080,8-29-2022,14-43-45,146,depth_duration_stimuli/001571_2014-06-20_17-21-32_260595134347_rgbf000089-resize_1/001571_2014-06-20_17-21-32_260595134347_rgbf000089-resize_1-target.png,250,1.86,4,2210,249,feet,jsons/v1_VE250_randls_19_rotated.json,560507,757166,34,Man
146,807165,DepthScenes,duration_manipulation_targetAtFixation,jsons/v1_VE250_randls_19_rotated.json,http://54.235.29.9/FacialAge/BNav_EC2/DepthDuration/v2_depth_duration_MTurk/v2_DepthDuration_HTML.html#134,134,1920,937,1920,1080,8-29-2022,14-43-45,147,depth_duration_stimuli/002272_2014-06-28_18-53-56_260595134347_rgbf000067-resize_2/002272_2014-06-28_18-53-56_260595134347_rgbf000067-resize_2-target.png,250,1.138,2,5857,250,feet,jsons/v1_VE250_randls_19_rotated.json,560507,757166,34,Man
147,807165,DepthScenes,duration_manipulation_targetAtFixation,jsons/v1_VE250_randls_19_rotated.json,http://54.235.29.9/FacialAge/BNav_EC2/DepthDuration/v2_depth_duration_MTurk/v2_DepthDuration_HTML.html#134,134,1920,937,1920,1080,8-29-2022,14-43-45,148,depth_duration_stimuli/001815_2014-06-26_20-52-55_260595134347_rgbf000020-resize_0/001815_2014-06-26_20-52-55_260595134347_rgbf000020-resize_0-target.png,250,3.3865,9,4525,250,feet,jsons/v1_VE250_randls_19_rotated.json,560507,757166,34,Man
148,807165,DepthScenes,duration_manipulation_targetAtFixation,jsons/v1_VE250_randls_19_rotated.json,http://54.235.29.9/FacialAge/BNav_EC2/DepthDuration/v2_depth_duration_MTurk/v2_DepthDuration_HTML.html#134,134,1920,937,1920,1080,8-29-2022,14-43-45,149,depth_duration_stimuli/001808_2014-06-26_20-50-58_260595134347_rgbf000029-resize_1/001808_2014-06-26_20-50-58_260595134347_rgbf000029-resize_1-target.png,250,4.249,9,2492,250,feet,jsons/v1_VE250_randls_19_rotated.json,560507,757166,34,Man
149,807165,DepthScenes,duration_manipulation_targetAtFixation,jsons/v1_VE250_randls_19_rotated.json,http://54.235.29.9/FacialAge/BNav_EC2/DepthDuration/v2_depth_duration_MTurk/v2_DepthDuration_HTML.html#134,134,1920,937,1920,1080,8-29-2022,14-43-45,150,depth_duration_stimuli/002758_2014-06-22_19-11-20_094959634447_rgbf000128-resize_1/002758_2014-06-22_19-11-20_094959634447_rgbf000128-resize_1-target.png,250,2.555,4,2953,250,feet,jsons/v1_VE250_randls_19_rotated.json,560507,757166,34,Man
150,807165,DepthScenes,duration_manipulation_targetAtFixation,jsons/v1_VE250_randls_19_rotated.json,http://54.235.29.9/FacialAge/BNav_EC2/DepthDuration/v2_depth_duration_MTurk/v2_DepthDuration_HTML.html#134,134,1920,937,1920,1080,8-29-2022,14-43-45,151,depth_duration_stimuli/002630_2014-06-24_14-47-50_094959634447_rgbf000055-resize_1/002630_2014-06-24_14-47-50_094959634447_rgbf000055-resize_1-target.png,250,3.0095,7,4674,251,feet,jsons/v1_VE250_randls_19_rotated.json,560507,757166,34,Man
151,807165,DepthScenes,duration_manipulation_targetAtFixation,jsons/v1_VE250_randls_19_rotated.json,http://54.235.29.9/FacialAge/BNav_EC2/DepthDuration/v2_depth_duration_MTurk/v2_DepthDuration_HTML.html#134,134,1920,937,1920,1080,8-29-2022,14-43-45,152,depth_duration_stimuli/000569_2014-06-09_22-51-47_260595134347_rgbf000141-resize_3/000569_2014-06-09_22-51-47_260595134347_rgbf000141-resize-original.jpg,250,4.512,0,2671,250,feet,jsons/v1_VE250_randls_19_rotated.json,560507,757166,34,Man
152,807165,DepthScenes,duration_manipulation_targetAtFixation,jsons/v1_VE250_randls_19_rotated.json,http://54.235.29.9/FacialAge/BNav_EC2/DepthDuration/v2_depth_duration_MTurk/v2_DepthDuration_HTML.html#134,134,1920,937,1920,1080,8-29-2022,14-43-45,153,depth_duration_stimuli/000677_2014-06-08_23-10-32_260595134347_rgbf000158-resize_6/000677_2014-06-08_23-10-32_260595134347_rgbf000158-resize_6-target.png,250,3.556,4,4725,250,feet,jsons/v1_VE250_randls_19_rotated.json,560507,757166,34,Man
153,807165,DepthScenes,duration_manipulation_targetAtFixation,jsons/v1_VE250_randls_19_rotated.json,http://54.235.29.9/FacialAge/BNav_EC2/DepthDuration/v2_depth_duration_MTurk/v2_DepthDuration_HTML.html#134,134,1920,937,1920,1080,8-29-2022,14-43-45,154,depth_duration_stimuli/001029_2014-06-08_13-17-57_260595134347_rgbf000065-resize_1/001029_2014-06-08_13-17-57_260595134347_rgbf000065-resize_1-target.png,250,3.0835,5,2935,249,feet,jsons/v1_VE250_randls_19_rotated.json,560507,757166,34,Man
154,807165,DepthScenes,duration_manipulation_targetAtFixation,jsons/v1_VE250_randls_19_rotated.json,http://54.235.29.9/FacialAge/BNav_EC2/DepthDuration/v2_depth_duration_MTurk/v2_DepthDuration_HTML.html#134,134,1920,937,1920,1080,8-29-2022,14-43-45,155,depth_duration_stimuli/000109_2014-05-14_23-41-52_260595134347_rgbf000035-resize_9/000109_2014-05-14_23-41-52_260595134347_rgbf000035-resize_9-target.png,250,1.3545,3,2434,249,feet,jsons/v1_VE250_randls_19_rotated.json,560507,757166,34,Man
155,807165,DepthScenes,duration_manipulation_targetAtFixation,jsons/v1_VE250_randls_19_rotated.json,http://54.235.29.9/FacialAge/BNav_EC2/DepthDuration/v2_depth_duration_MTurk/v2_DepthDuration_HTML.html#134,134,1920,937,1920,1080,8-29-2022,14-43-45,156,depth_duration_stimuli/000470_2014-06-09_19-42-40_260595134347_rgbf000094-resize_1/000470_2014-06-09_19-42-40_260595134347_rgbf000094-resize_1-target.png,250,1.831,3,2401,249,feet,jsons/v1_VE250_randls_19_rotated.json,560507,757166,34,Man
156,807165,DepthScenes,duration_manipulation_targetAtFixation,jsons/v1_VE250_randls_19_rotated.json,http://54.235.29.9/FacialAge/BNav_EC2/DepthDuration/v2_depth_duration_MTurk/v2_DepthDuration_HTML.html#134,134,1920,937,1920,1080,8-29-2022,14-43-45,157,depth_duration_stimuli/000191_2014-05-12_17-07-38_260595134347_rgbf000199-resize_0/000191_2014-05-12_17-07-38_260595134347_rgbf000199-resize_0-target.png,250,3.7995,9,2897,250,feet,jsons/v1_VE250_randls_19_rotated.json,560507,757166,34,Man
157,807165,DepthScenes,duration_manipulation_targetAtFixation,jsons/v1_VE250_randls_19_rotated.json,http://54.235.29.9/FacialAge/BNav_EC2/DepthDuration/v2_depth_duration_MTurk/v2_DepthDuration_HTML.html#134,134,1920,937,1920,1080,8-29-2022,14-43-45,158,depth_duration_stimuli/000493_2014-06-09_21-01-18_260595134347_rgbf000196-resize_3/000493_2014-06-09_21-01-18_260595134347_rgbf000196-resize_3-target.png,250,3.44,5,2636,250,feet,jsons/v1_VE250_randls_19_rotated.json,560507,757166,34,Man
158,807165,DepthScenes,duration_manipulation_targetAtFixation,jsons/v1_VE250_randls_19_rotated.json,http://54.235.29.9/FacialAge/BNav_EC2/DepthDuration/v2_depth_duration_MTurk/v2_DepthDuration_HTML.html#134,134,1920,937,1920,1080,8-29-2022,14-43-45,159,depth_duration_stimuli/002660_2014-06-13_15-44-18_094959634447_rgbf001878-resize_2/002660_2014-06-13_15-44-18_094959634447_rgbf001878-resize_2-target.png,250,3.576,5,2390,250,feet,jsons/v1_VE250_randls_19_rotated.json,560507,757166,34,Man
159,807165,DepthScenes,duration_manipulation_targetAtFixation,jsons/v1_VE250_randls_19_rotated.json,http://54.235.29.9/FacialAge/BNav_EC2/DepthDuration/v2_depth_duration_MTurk/v2_DepthDuration_HTML.html#134,134,1920,937,1920,1080,8-29-2022,14-43-45,160,depth_duration_stimuli/002153_2014-06-25_21-27-18_260595134347_rgbf000038-resize_5/002153_2014-06-25_21-27-18_260595134347_rgbf000038-resize_5-target.png,250,2.505,5,2514,250,feet,jsons/v1_VE250_randls_19_rotated.json,560507,757166,34,Man
160,807165,DepthScenes,duration_manipulation_targetAtFixation,jsons/v1_VE250_randls_19_rotated.json,http://54.235.29.9/FacialAge/BNav_EC2/DepthDuration/v2_depth_duration_MTurk/v2_DepthDuration_HTML.html#134,134,1920,937,1920,1080,8-29-2022,14-43-45,161,depth_duration_stimuli/002639_2014-06-24_14-51-37_094959634447_rgbf000074-resize_4/002639_2014-06-24_14-51-37_094959634447_rgbf000074-resize_4-target.png,250,4.0375,6,1949,262,feet,jsons/v1_VE250_randls_19_rotated.json,560507,757166,34,Man
161,807165,DepthScenes,duration_manipulation_targetAtFixation,jsons/v1_VE250_randls_19_rotated.json,http://54.235.29.9/FacialAge/BNav_EC2/DepthDuration/v2_depth_duration_MTurk/v2_DepthDuration_HTML.html#134,134,1920,937,1920,1080,8-29-2022,14-43-45,162,depth_duration_stimuli/003292_2014-05-14_21-53-49_094959634447_rgbf000100-resize_2/003292_2014-05-14_21-53-49_094959634447_rgbf000100-resize_2-target.png,250,3.4815,5,2468,248,feet,jsons/v1_VE250_randls_19_rotated.json,560507,757166,34,Man
162,807165,DepthScenes,duration_manipulation_targetAtFixation,jsons/v1_VE250_randls_19_rotated.json,http://54.235.29.9/FacialAge/BNav_EC2/DepthDuration/v2_depth_duration_MTurk/v2_DepthDuration_HTML.html#134,134,1920,937,1920,1080,8-29-2022,14-43-45,163,depth_duration_stimuli/002103_2014-06-25_20-00-40_260595134347_rgbf000049-resize_0/002103_2014-06-25_20-00-40_260595134347_rgbf000049-resize_0-target.png,250,4.105,6,2239,246,feet,jsons/v1_VE250_randls_19_rotated.json,560507,757166,34,Man
163,807165,DepthScenes,duration_manipulation_targetAtFixation,jsons/v1_VE250_randls_19_rotated.json,http://54.235.29.9/FacialAge/BNav_EC2/DepthDuration/v2_depth_duration_MTurk/v2_DepthDuration_HTML.html#134,134,1920,937,1920,1080,8-29-2022,14-43-45,164,depth_duration_stimuli/002039_2014-06-24_20-22-38_260595134347_rgbf000084-resize_1/002039_2014-06-24_20-22-38_260595134347_rgbf000084-resize_1-target.png,250,4.408,6,2704,249,feet,jsons/v1_VE250_randls_19_rotated.json,560507,757166,34,Man
