,subjID,experimentName,versionName,sequenceName,url,selected_row,windowWidth,windowHeight,screenWidth,screenHeight,startDate,startTime,trial,stimulus,duration,actual_depth,depth_estimate,trial_RT,log_sceneDuration,unitSelection,seq_filepath,experimentTime,totalTime,age,gender
0,815340,DepthScenes,duration_manipulation_targetAtFixation,jsons/v1_VE250_randls_65.json,http://54.235.29.9/FacialAge/BNav_EC2/DepthDuration/v2_depth_duration_MTurk/v2_DepthDuration_HTML.html#168,168,1280,689,1280,800,9-3-2022,10-37-4,1,depth_duration_stimuli/001055_2014-06-08_18-45-35_260595134347_rgbf000111-resize_4/001055_2014-06-08_18-45-35_260595134347_rgbf000111-resize_4-target.png,250,2.4290000000000003,6.0,10593,249,feet,jsons/v1_VE250_randls_65.json,1742074,2660012,29,man
1,815340,DepthScenes,duration_manipulation_targetAtFixation,jsons/v1_VE250_randls_65.json,http://54.235.29.9/FacialAge/BNav_EC2/DepthDuration/v2_depth_duration_MTurk/v2_DepthDuration_HTML.html#168,168,1280,689,1280,800,9-3-2022,10-37-4,2,depth_duration_stimuli/000549_2014-06-08_22-10-24_260595134347_rgbf000247-resize_3/000549_2014-06-08_22-10-24_260595134347_rgbf000247-resize_3-target.png,250,1.841,2.0,6036,249,feet,jsons/v1_VE250_randls_65.json,1742074,2660012,29,man
2,815340,DepthScenes,duration_manipulation_targetAtFixation,jsons/v1_VE250_randls_65.json,http://54.235.29.9/FacialAge/BNav_EC2/DepthDuration/v2_depth_duration_MTurk/v2_DepthDuration_HTML.html#168,168,1280,689,1280,800,9-3-2022,10-37-4,3,depth_duration_stimuli/002057_2014-06-24_21-00-13_260595134347_rgbf000120-resize_1/002057_2014-06-24_21-00-13_260595134347_rgbf000120-resize_1-target.png,250,2.967,4.0,12570,249,feet,jsons/v1_VE250_randls_65.json,1742074,2660012,29,man
3,815340,DepthScenes,duration_manipulation_targetAtFixation,jsons/v1_VE250_randls_65.json,http://54.235.29.9/FacialAge/BNav_EC2/DepthDuration/v2_depth_duration_MTurk/v2_DepthDuration_HTML.html#168,168,1280,689,1280,800,9-3-2022,10-37-4,4,depth_duration_stimuli/000709_2014-06-08_13-51-55_260595134347_rgbf000068-resize_3/000709_2014-06-08_13-51-55_260595134347_rgbf000068-resize_3-target.png,250,1.8030000000000002,4.0,9467,249,feet,jsons/v1_VE250_randls_65.json,1742074,2660012,29,man
4,815340,DepthScenes,duration_manipulation_targetAtFixation,jsons/v1_VE250_randls_65.json,http://54.235.29.9/FacialAge/BNav_EC2/DepthDuration/v2_depth_duration_MTurk/v2_DepthDuration_HTML.html#168,168,1280,689,1280,800,9-3-2022,10-37-4,5,depth_duration_stimuli/002039_2014-06-24_20-22-38_260595134347_rgbf000084-resize_1/002039_2014-06-24_20-22-38_260595134347_rgbf000084-resize_1-target.png,250,4.408,7.0,8770,250,feet,jsons/v1_VE250_randls_65.json,1742074,2660012,29,man
5,815340,DepthScenes,duration_manipulation_targetAtFixation,jsons/v1_VE250_randls_65.json,http://54.235.29.9/FacialAge/BNav_EC2/DepthDuration/v2_depth_duration_MTurk/v2_DepthDuration_HTML.html#168,168,1280,689,1280,800,9-3-2022,10-37-4,6,depth_duration_stimuli/002103_2014-06-25_20-00-40_260595134347_rgbf000049-resize_0/002103_2014-06-25_20-00-40_260595134347_rgbf000049-resize_0-target.png,250,4.105,0.0,4795,249,feet,jsons/v1_VE250_randls_65.json,1742074,2660012,29,man
6,815340,DepthScenes,duration_manipulation_targetAtFixation,jsons/v1_VE250_randls_65.json,http://54.235.29.9/FacialAge/BNav_EC2/DepthDuration/v2_depth_duration_MTurk/v2_DepthDuration_HTML.html#168,168,1280,689,1280,800,9-3-2022,10-37-4,7,depth_duration_stimuli/001570_2014-06-20_17-21-09_260595134347_rgbf000135-resize_4/001570_2014-06-20_17-21-09_260595134347_rgbf000135-resize_4-target.png,250,4.467,8.0,12364,249,feet,jsons/v1_VE250_randls_65.json,1742074,2660012,29,man
7,815340,DepthScenes,duration_manipulation_targetAtFixation,jsons/v1_VE250_randls_65.json,http://54.235.29.9/FacialAge/BNav_EC2/DepthDuration/v2_depth_duration_MTurk/v2_DepthDuration_HTML.html#168,168,1280,689,1280,800,9-3-2022,10-37-4,8,depth_duration_stimuli/001392_2014-06-19_16-07-59_260595134347_rgbf000046-resize_1/001392_2014-06-19_16-07-59_260595134347_rgbf000046-resize_1-target.png,250,4.135,4.0,6430,251,feet,jsons/v1_VE250_randls_65.json,1742074,2660012,29,man
8,815340,DepthScenes,duration_manipulation_targetAtFixation,jsons/v1_VE250_randls_65.json,http://54.235.29.9/FacialAge/BNav_EC2/DepthDuration/v2_depth_duration_MTurk/v2_DepthDuration_HTML.html#168,168,1280,689,1280,800,9-3-2022,10-37-4,9,depth_duration_stimuli/000414_2014-06-04_19-49-13_260595134347_rgbf000044-resize_0/000414_2014-06-04_19-49-13_260595134347_rgbf000044-resize_0-target.png,250,4.329,9.0,7993,268,feet,jsons/v1_VE250_randls_65.json,1742074,2660012,29,man
9,815340,DepthScenes,duration_manipulation_targetAtFixation,jsons/v1_VE250_randls_65.json,http://54.235.29.9/FacialAge/BNav_EC2/DepthDuration/v2_depth_duration_MTurk/v2_DepthDuration_HTML.html#168,168,1280,689,1280,800,9-3-2022,10-37-4,10,depth_duration_stimuli/003129_2014-05-12_10-48-10_094959634447_rgbf000100-resize_0/003129_2014-05-12_10-48-10_094959634447_rgbf000100-resize_0-target.png,250,4.9305,6.0,5850,249,feet,jsons/v1_VE250_randls_65.json,1742074,2660012,29,man
10,815340,DepthScenes,duration_manipulation_targetAtFixation,jsons/v1_VE250_randls_65.json,http://54.235.29.9/FacialAge/BNav_EC2/DepthDuration/v2_depth_duration_MTurk/v2_DepthDuration_HTML.html#168,168,1280,689,1280,800,9-3-2022,10-37-4,11,depth_duration_stimuli/002272_2014-06-28_18-53-56_260595134347_rgbf000067-resize_2/002272_2014-06-28_18-53-56_260595134347_rgbf000067-resize_2-target.png,250,1.138,1.5,7387,249,feet,jsons/v1_VE250_randls_65.json,1742074,2660012,29,man
11,815340,DepthScenes,duration_manipulation_targetAtFixation,jsons/v1_VE250_randls_65.json,http://54.235.29.9/FacialAge/BNav_EC2/DepthDuration/v2_depth_duration_MTurk/v2_DepthDuration_HTML.html#168,168,1280,689,1280,800,9-3-2022,10-37-4,12,depth_duration_stimuli/001571_2014-06-20_17-21-32_260595134347_rgbf000089-resize_1/001571_2014-06-20_17-21-32_260595134347_rgbf000089-resize_1-target.png,250,1.86,3.0,5433,248,feet,jsons/v1_VE250_randls_65.json,1742074,2660012,29,man
12,815340,DepthScenes,duration_manipulation_targetAtFixation,jsons/v1_VE250_randls_65.json,http://54.235.29.9/FacialAge/BNav_EC2/DepthDuration/v2_depth_duration_MTurk/v2_DepthDuration_HTML.html#168,168,1280,689,1280,800,9-3-2022,10-37-4,13,depth_duration_stimuli/000569_2014-06-09_22-51-47_260595134347_rgbf000141-resize_3/000569_2014-06-09_22-51-47_260595134347_rgbf000141-resize-original.jpg,250,4.512,0.0,29197,250,feet,jsons/v1_VE250_randls_65.json,1742074,2660012,29,man
13,815340,DepthScenes,duration_manipulation_targetAtFixation,jsons/v1_VE250_randls_65.json,http://54.235.29.9/FacialAge/BNav_EC2/DepthDuration/v2_depth_duration_MTurk/v2_DepthDuration_HTML.html#168,168,1280,689,1280,800,9-3-2022,10-37-4,14,depth_duration_stimuli/002153_2014-06-25_21-27-18_260595134347_rgbf000038-resize_5/002153_2014-06-25_21-27-18_260595134347_rgbf000038-resize_5-target.png,250,2.505,4.5,18918,250,feet,jsons/v1_VE250_randls_65.json,1742074,2660012,29,man
14,815340,DepthScenes,duration_manipulation_targetAtFixation,jsons/v1_VE250_randls_65.json,http://54.235.29.9/FacialAge/BNav_EC2/DepthDuration/v2_depth_duration_MTurk/v2_DepthDuration_HTML.html#168,168,1280,689,1280,800,9-3-2022,10-37-4,15,depth_duration_stimuli/002660_2014-06-13_15-44-18_094959634447_rgbf001878-resize_2/002660_2014-06-13_15-44-18_094959634447_rgbf001878-resize_2-target.png,250,3.576,6.0,16833,250,feet,jsons/v1_VE250_randls_65.json,1742074,2660012,29,man
15,815340,DepthScenes,duration_manipulation_targetAtFixation,jsons/v1_VE250_randls_65.json,http://54.235.29.9/FacialAge/BNav_EC2/DepthDuration/v2_depth_duration_MTurk/v2_DepthDuration_HTML.html#168,168,1280,689,1280,800,9-3-2022,10-37-4,16,depth_duration_stimuli/001056_2014-06-08_18-46-44_260595134347_rgbf000068-resize_0/001056_2014-06-08_18-46-44_260595134347_rgbf000068-resize_0-target.png,250,2.6625,5.0,13339,249,feet,jsons/v1_VE250_randls_65.json,1742074,2660012,29,man
16,815340,DepthScenes,duration_manipulation_targetAtFixation,jsons/v1_VE250_randls_65.json,http://54.235.29.9/FacialAge/BNav_EC2/DepthDuration/v2_depth_duration_MTurk/v2_DepthDuration_HTML.html#168,168,1280,689,1280,800,9-3-2022,10-37-4,17,depth_duration_stimuli/002199_2014-06-28_18-33-56_260595134347_rgbf000074-resize_0/002199_2014-06-28_18-33-56_260595134347_rgbf000074-resize_0-target.png,250,1.996,2.0,18564,249,feet,jsons/v1_VE250_randls_65.json,1742074,2660012,29,man
17,815340,DepthScenes,duration_manipulation_targetAtFixation,jsons/v1_VE250_randls_65.json,http://54.235.29.9/FacialAge/BNav_EC2/DepthDuration/v2_depth_duration_MTurk/v2_DepthDuration_HTML.html#168,168,1280,689,1280,800,9-3-2022,10-37-4,18,depth_duration_stimuli/000506_2014-06-08_23-21-00_260595134347_rgbf000070-resize_7/000506_2014-06-08_23-21-00_260595134347_rgbf000070-resize_7-target.png,250,4.0585,6.0,15654,249,feet,jsons/v1_VE250_randls_65.json,1742074,2660012,29,man
18,815340,DepthScenes,duration_manipulation_targetAtFixation,jsons/v1_VE250_randls_65.json,http://54.235.29.9/FacialAge/BNav_EC2/DepthDuration/v2_depth_duration_MTurk/v2_DepthDuration_HTML.html#168,168,1280,689,1280,800,9-3-2022,10-37-4,19,depth_duration_stimuli/003079_2014-06-15_15-18-20_094959634447_rgbf000152-resize_8/003079_2014-06-15_15-18-20_094959634447_rgbf000152-resize_8-target.png,250,2.8775,6.5,11335,276,feet,jsons/v1_VE250_randls_65.json,1742074,2660012,29,man
19,815340,DepthScenes,duration_manipulation_targetAtFixation,jsons/v1_VE250_randls_65.json,http://54.235.29.9/FacialAge/BNav_EC2/DepthDuration/v2_depth_duration_MTurk/v2_DepthDuration_HTML.html#168,168,1280,689,1280,800,9-3-2022,10-37-4,20,depth_duration_stimuli/001417_2014-06-19_16-25-36_260595134347_rgbf000115-resize_5/001417_2014-06-19_16-25-36_260595134347_rgbf000115-resize_5-target.png,250,4.6255,6.0,8907,249,feet,jsons/v1_VE250_randls_65.json,1742074,2660012,29,man
20,815340,DepthScenes,duration_manipulation_targetAtFixation,jsons/v1_VE250_randls_65.json,http://54.235.29.9/FacialAge/BNav_EC2/DepthDuration/v2_depth_duration_MTurk/v2_DepthDuration_HTML.html#168,168,1280,689,1280,800,9-3-2022,10-37-4,21,depth_duration_stimuli/003081_2014-06-15_15-19-16_094959634447_rgbf000150-resize_1/003081_2014-06-15_15-19-16_094959634447_rgbf000150-resize_1-target.png,250,3.9125,6.5,8155,250,feet,jsons/v1_VE250_randls_65.json,1742074,2660012,29,man
21,815340,DepthScenes,duration_manipulation_targetAtFixation,jsons/v1_VE250_randls_65.json,http://54.235.29.9/FacialAge/BNav_EC2/DepthDuration/v2_depth_duration_MTurk/v2_DepthDuration_HTML.html#168,168,1280,689,1280,800,9-3-2022,10-37-4,22,depth_duration_stimuli/001199_2014-06-17_16-03-48_260595134347_rgbf000077-resize_0/001199_2014-06-17_16-03-48_260595134347_rgbf000077-resize_0-target.png,250,3.4375,5.0,7683,249,feet,jsons/v1_VE250_randls_65.json,1742074,2660012,29,man
22,815340,DepthScenes,duration_manipulation_targetAtFixation,jsons/v1_VE250_randls_65.json,http://54.235.29.9/FacialAge/BNav_EC2/DepthDuration/v2_depth_duration_MTurk/v2_DepthDuration_HTML.html#168,168,1280,689,1280,800,9-3-2022,10-37-4,23,depth_duration_stimuli/000502_2014-06-08_23-02-32_260595134347_rgbf000063-resize_4/000502_2014-06-08_23-02-32_260595134347_rgbf000063-resize_4-target.png,250,2.431,4.5,8901,249,feet,jsons/v1_VE250_randls_65.json,1742074,2660012,29,man
23,815340,DepthScenes,duration_manipulation_targetAtFixation,jsons/v1_VE250_randls_65.json,http://54.235.29.9/FacialAge/BNav_EC2/DepthDuration/v2_depth_duration_MTurk/v2_DepthDuration_HTML.html#168,168,1280,689,1280,800,9-3-2022,10-37-4,24,depth_duration_stimuli/001175_2014-06-17_15-45-55_260595134347_rgbf000129-resize_4/001175_2014-06-17_15-45-55_260595134347_rgbf000129-resize_4-target.png,250,4.255,6.5,10893,250,feet,jsons/v1_VE250_randls_65.json,1742074,2660012,29,man
24,815340,DepthScenes,duration_manipulation_targetAtFixation,jsons/v1_VE250_randls_65.json,http://54.235.29.9/FacialAge/BNav_EC2/DepthDuration/v2_depth_duration_MTurk/v2_DepthDuration_HTML.html#168,168,1280,689,1280,800,9-3-2022,10-37-4,25,depth_duration_stimuli/003490_2014-05-21_15-50-11_094959634447_rgbf000101-resize_3/003490_2014-05-21_15-50-11_094959634447_rgbf000101-resize_3-target.png,250,3.6445,0.0,5872,246,feet,jsons/v1_VE250_randls_65.json,1742074,2660012,29,man
25,815340,DepthScenes,duration_manipulation_targetAtFixation,jsons/v1_VE250_randls_65.json,http://54.235.29.9/FacialAge/BNav_EC2/DepthDuration/v2_depth_duration_MTurk/v2_DepthDuration_HTML.html#168,168,1280,689,1280,800,9-3-2022,10-37-4,26,depth_duration_stimuli/002663_2014-06-13_15-50-26_094959634447_rgbf000075-resize_1/002663_2014-06-13_15-50-26_094959634447_rgbf000075-resize_1-target.png,250,4.7495,7.0,6563,250,feet,jsons/v1_VE250_randls_65.json,1742074,2660012,29,man
26,815340,DepthScenes,duration_manipulation_targetAtFixation,jsons/v1_VE250_randls_65.json,http://54.235.29.9/FacialAge/BNav_EC2/DepthDuration/v2_depth_duration_MTurk/v2_DepthDuration_HTML.html#168,168,1280,689,1280,800,9-3-2022,10-37-4,27,depth_duration_stimuli/000409_2014-06-04_19-23-33_260595134347_rgbf000067-resize_0/000409_2014-06-04_19-23-33_260595134347_rgbf000067-resize_0-target.png,250,3.7335,0.0,6017,249,feet,jsons/v1_VE250_randls_65.json,1742074,2660012,29,man
27,815340,DepthScenes,duration_manipulation_targetAtFixation,jsons/v1_VE250_randls_65.json,http://54.235.29.9/FacialAge/BNav_EC2/DepthDuration/v2_depth_duration_MTurk/v2_DepthDuration_HTML.html#168,168,1280,689,1280,800,9-3-2022,10-37-4,28,depth_duration_stimuli/000642_2014-06-08_16-59-25_260595134347_rgbf000098-resize_2/000642_2014-06-08_16-59-25_260595134347_rgbf000098-resize_2-target.png,250,2.8815,5.0,5955,250,feet,jsons/v1_VE250_randls_65.json,1742074,2660012,29,man
28,815340,DepthScenes,duration_manipulation_targetAtFixation,jsons/v1_VE250_randls_65.json,http://54.235.29.9/FacialAge/BNav_EC2/DepthDuration/v2_depth_duration_MTurk/v2_DepthDuration_HTML.html#168,168,1280,689,1280,800,9-3-2022,10-37-4,29,depth_duration_stimuli/002425_2014-06-28_20-27-29_260595134347_rgbf000031-resize_8/002425_2014-06-28_20-27-29_260595134347_rgbf000031-resize_8-target.png,250,3.8960000000000004,6.0,12982,250,feet,jsons/v1_VE250_randls_65.json,1742074,2660012,29,man
29,815340,DepthScenes,duration_manipulation_targetAtFixation,jsons/v1_VE250_randls_65.json,http://54.235.29.9/FacialAge/BNav_EC2/DepthDuration/v2_depth_duration_MTurk/v2_DepthDuration_HTML.html#168,168,1280,689,1280,800,9-3-2022,10-37-4,30,depth_duration_stimuli/000375_2014-06-08_11-17-29_260595134347_rgbf000133-resize_2/000375_2014-06-08_11-17-29_260595134347_rgbf000133-resize-original.jpg,250,4.718,0.0,15951,248,feet,jsons/v1_VE250_randls_65.json,1742074,2660012,29,man
30,815340,DepthScenes,duration_manipulation_targetAtFixation,jsons/v1_VE250_randls_65.json,http://54.235.29.9/FacialAge/BNav_EC2/DepthDuration/v2_depth_duration_MTurk/v2_DepthDuration_HTML.html#168,168,1280,689,1280,800,9-3-2022,10-37-4,31,depth_duration_stimuli/001167_2014-06-17_15-38-07_260595134347_rgbf000108-resize_0/001167_2014-06-17_15-38-07_260595134347_rgbf000108-resize_0-target.png,250,1.8505,3.0,10483,250,feet,jsons/v1_VE250_randls_65.json,1742074,2660012,29,man
31,815340,DepthScenes,duration_manipulation_targetAtFixation,jsons/v1_VE250_randls_65.json,http://54.235.29.9/FacialAge/BNav_EC2/DepthDuration/v2_depth_duration_MTurk/v2_DepthDuration_HTML.html#168,168,1280,689,1280,800,9-3-2022,10-37-4,32,depth_duration_stimuli/003587_2014-05-23_16-48-02_094959634447_rgbf002384-resize_2/003587_2014-05-23_16-48-02_094959634447_rgbf002384-resize_2-target.png,250,1.357,2.5,10822,250,feet,jsons/v1_VE250_randls_65.json,1742074,2660012,29,man
32,815340,DepthScenes,duration_manipulation_targetAtFixation,jsons/v1_VE250_randls_65.json,http://54.235.29.9/FacialAge/BNav_EC2/DepthDuration/v2_depth_duration_MTurk/v2_DepthDuration_HTML.html#168,168,1280,689,1280,800,9-3-2022,10-37-4,33,depth_duration_stimuli/002279_2014-06-28_18-55-32_260595134347_rgbf000040-resize_5/002279_2014-06-28_18-55-32_260595134347_rgbf000040-resize_5-target.png,250,1.5043333333333,2.0,7996,249,feet,jsons/v1_VE250_randls_65.json,1742074,2660012,29,man
33,815340,DepthScenes,duration_manipulation_targetAtFixation,jsons/v1_VE250_randls_65.json,http://54.235.29.9/FacialAge/BNav_EC2/DepthDuration/v2_depth_duration_MTurk/v2_DepthDuration_HTML.html#168,168,1280,689,1280,800,9-3-2022,10-37-4,34,depth_duration_stimuli/000635_2014-06-08_16-38-42_260595134347_rgbf000106-resize_1/000635_2014-06-08_16-38-42_260595134347_rgbf000106-resize_1-target.png,250,2.074,5.5,13782,252,feet,jsons/v1_VE250_randls_65.json,1742074,2660012,29,man
34,815340,DepthScenes,duration_manipulation_targetAtFixation,jsons/v1_VE250_randls_65.json,http://54.235.29.9/FacialAge/BNav_EC2/DepthDuration/v2_depth_duration_MTurk/v2_DepthDuration_HTML.html#168,168,1280,689,1280,800,9-3-2022,10-37-4,35,depth_duration_stimuli/001164_2014-06-17_15-35-46_260595134347_rgbf000085-resize_3/001164_2014-06-17_15-35-46_260595134347_rgbf000085-resize_3-target.png,250,2.354,5.0,13111,248,feet,jsons/v1_VE250_randls_65.json,1742074,2660012,29,man
35,815340,DepthScenes,duration_manipulation_targetAtFixation,jsons/v1_VE250_randls_65.json,http://54.235.29.9/FacialAge/BNav_EC2/DepthDuration/v2_depth_duration_MTurk/v2_DepthDuration_HTML.html#168,168,1280,689,1280,800,9-3-2022,10-37-4,36,depth_duration_stimuli/001136_2014-06-17_15-19-41_260595134347_rgbf000076-resize_3/001136_2014-06-17_15-19-41_260595134347_rgbf000076-resize_3-target.png,250,1.8655,5.0,8080,250,feet,jsons/v1_VE250_randls_65.json,1742074,2660012,29,man
36,815340,DepthScenes,duration_manipulation_targetAtFixation,jsons/v1_VE250_randls_65.json,http://54.235.29.9/FacialAge/BNav_EC2/DepthDuration/v2_depth_duration_MTurk/v2_DepthDuration_HTML.html#168,168,1280,689,1280,800,9-3-2022,10-37-4,37,depth_duration_stimuli/002509_2014-06-24_13-19-22_094959634447_rgbf000077-resize_0/002509_2014-06-24_13-19-22_094959634447_rgbf000077-resize_0-target.png,250,1.3065,2.5,16053,249,feet,jsons/v1_VE250_randls_65.json,1742074,2660012,29,man
37,815340,DepthScenes,duration_manipulation_targetAtFixation,jsons/v1_VE250_randls_65.json,http://54.235.29.9/FacialAge/BNav_EC2/DepthDuration/v2_depth_duration_MTurk/v2_DepthDuration_HTML.html#168,168,1280,689,1280,800,9-3-2022,10-37-4,38,depth_duration_stimuli/003338_2014-05-20_11-01-23_094959634447_rgbf000051-resize_6/003338_2014-05-20_11-01-23_094959634447_rgbf000051-resize_6-target.png,250,1.693,3.0,14548,247,feet,jsons/v1_VE250_randls_65.json,1742074,2660012,29,man
38,815340,DepthScenes,duration_manipulation_targetAtFixation,jsons/v1_VE250_randls_65.json,http://54.235.29.9/FacialAge/BNav_EC2/DepthDuration/v2_depth_duration_MTurk/v2_DepthDuration_HTML.html#168,168,1280,689,1280,800,9-3-2022,10-37-4,39,depth_duration_stimuli/003070_2014-06-15_14-58-27_094959634447_rgbf000150-resize_3/003070_2014-06-15_14-58-27_094959634447_rgbf000150-resize_3-target.png,250,2.9415,6.0,13719,236,feet,jsons/v1_VE250_randls_65.json,1742074,2660012,29,man
39,815340,DepthScenes,duration_manipulation_targetAtFixation,jsons/v1_VE250_randls_65.json,http://54.235.29.9/FacialAge/BNav_EC2/DepthDuration/v2_depth_duration_MTurk/v2_DepthDuration_HTML.html#168,168,1280,689,1280,800,9-3-2022,10-37-4,40,depth_duration_stimuli/000943_2014-06-09_19-31-07_260595134347_rgbf000128-resize_1/000943_2014-06-09_19-31-07_260595134347_rgbf000128-resize_1-target.png,250,1.9765,4.0,9891,249,feet,jsons/v1_VE250_randls_65.json,1742074,2660012,29,man
40,815340,DepthScenes,duration_manipulation_targetAtFixation,jsons/v1_VE250_randls_65.json,http://54.235.29.9/FacialAge/BNav_EC2/DepthDuration/v2_depth_duration_MTurk/v2_DepthDuration_HTML.html#168,168,1280,689,1280,800,9-3-2022,10-37-4,41,depth_duration_stimuli/003292_2014-05-14_21-53-49_094959634447_rgbf000100-resize_2/003292_2014-05-14_21-53-49_094959634447_rgbf000100-resize_2-target.png,250,3.4815,5.0,9650,249,feet,jsons/v1_VE250_randls_65.json,1742074,2660012,29,man
41,815340,DepthScenes,duration_manipulation_targetAtFixation,jsons/v1_VE250_randls_65.json,http://54.235.29.9/FacialAge/BNav_EC2/DepthDuration/v2_depth_duration_MTurk/v2_DepthDuration_HTML.html#168,168,1280,689,1280,800,9-3-2022,10-37-4,42,depth_duration_stimuli/002639_2014-06-24_14-51-37_094959634447_rgbf000074-resize_4/002639_2014-06-24_14-51-37_094959634447_rgbf000074-resize_4-target.png,250,4.0375,5.5,7758,250,feet,jsons/v1_VE250_randls_65.json,1742074,2660012,29,man
42,815340,DepthScenes,duration_manipulation_targetAtFixation,jsons/v1_VE250_randls_65.json,http://54.235.29.9/FacialAge/BNav_EC2/DepthDuration/v2_depth_duration_MTurk/v2_DepthDuration_HTML.html#168,168,1280,689,1280,800,9-3-2022,10-37-4,43,depth_duration_stimuli/001449_2014-06-19_17-01-27_260595134347_rgbf000116-resize_2/001449_2014-06-19_17-01-27_260595134347_rgbf000116-resize_2-target.png,250,3.452,6.5,18706,250,feet,jsons/v1_VE250_randls_65.json,1742074,2660012,29,man
43,815340,DepthScenes,duration_manipulation_targetAtFixation,jsons/v1_VE250_randls_65.json,http://54.235.29.9/FacialAge/BNav_EC2/DepthDuration/v2_depth_duration_MTurk/v2_DepthDuration_HTML.html#168,168,1280,689,1280,800,9-3-2022,10-37-4,44,depth_duration_stimuli/001450_2014-06-19_17-02-03_260595134347_rgbf000203-resize_4/001450_2014-06-19_17-02-03_260595134347_rgbf000203-resize_4-target.png,250,4.0106666666667,7.0,13021,250,feet,jsons/v1_VE250_randls_65.json,1742074,2660012,29,man
44,815340,DepthScenes,duration_manipulation_targetAtFixation,jsons/v1_VE250_randls_65.json,http://54.235.29.9/FacialAge/BNav_EC2/DepthDuration/v2_depth_duration_MTurk/v2_DepthDuration_HTML.html#168,168,1280,689,1280,800,9-3-2022,10-37-4,45,depth_duration_stimuli/000787_2014-06-08_22-33-53_260595134347_rgbf000175-resize_1/000787_2014-06-08_22-33-53_260595134347_rgbf000175-resize-original.jpg,250,4.784,0.0,13731,250,feet,jsons/v1_VE250_randls_65.json,1742074,2660012,29,man
45,815340,DepthScenes,duration_manipulation_targetAtFixation,jsons/v1_VE250_randls_65.json,http://54.235.29.9/FacialAge/BNav_EC2/DepthDuration/v2_depth_duration_MTurk/v2_DepthDuration_HTML.html#168,168,1280,689,1280,800,9-3-2022,10-37-4,46,depth_duration_stimuli/000368_2014-06-09_15-53-01_260595134347_rgbf000155-resize_2/000368_2014-06-09_15-53-01_260595134347_rgbf000155-resize_2-target.png,250,2.4859999999999998,0.0,13274,251,feet,jsons/v1_VE250_randls_65.json,1742074,2660012,29,man
46,815340,DepthScenes,duration_manipulation_targetAtFixation,jsons/v1_VE250_randls_65.json,http://54.235.29.9/FacialAge/BNav_EC2/DepthDuration/v2_depth_duration_MTurk/v2_DepthDuration_HTML.html#168,168,1280,689,1280,800,9-3-2022,10-37-4,47,depth_duration_stimuli/002678_2014-06-13_16-15-32_094959634447_rgbf000151-resize_6/002678_2014-06-13_16-15-32_094959634447_rgbf000151-resize_6-target.png,250,2.1830000000000003,5.0,6522,249,feet,jsons/v1_VE250_randls_65.json,1742074,2660012,29,man
47,815340,DepthScenes,duration_manipulation_targetAtFixation,jsons/v1_VE250_randls_65.json,http://54.235.29.9/FacialAge/BNav_EC2/DepthDuration/v2_depth_duration_MTurk/v2_DepthDuration_HTML.html#168,168,1280,689,1280,800,9-3-2022,10-37-4,48,depth_duration_stimuli/002213_2014-06-28_18-37-58_260595134347_rgbf000055-resize_1/002213_2014-06-28_18-37-58_260595134347_rgbf000055-resize_1-target.png,250,3.62,7.5,11212,250,feet,jsons/v1_VE250_randls_65.json,1742074,2660012,29,man
48,815340,DepthScenes,duration_manipulation_targetAtFixation,jsons/v1_VE250_randls_65.json,http://54.235.29.9/FacialAge/BNav_EC2/DepthDuration/v2_depth_duration_MTurk/v2_DepthDuration_HTML.html#168,168,1280,689,1280,800,9-3-2022,10-37-4,49,depth_duration_stimuli/000691_2014-06-08_13-08-50_260595134347_rgbf000132-resize_3/000691_2014-06-08_13-08-50_260595134347_rgbf000132-resize_3-target.png,250,4.1530000000000005,5.5,11379,250,feet,jsons/v1_VE250_randls_65.json,1742074,2660012,29,man
49,815340,DepthScenes,duration_manipulation_targetAtFixation,jsons/v1_VE250_randls_65.json,http://54.235.29.9/FacialAge/BNav_EC2/DepthDuration/v2_depth_duration_MTurk/v2_DepthDuration_HTML.html#168,168,1280,689,1280,800,9-3-2022,10-37-4,50,depth_duration_stimuli/002043_2014-06-24_20-29-38_260595134347_rgbf000039-resize_4/002043_2014-06-24_20-29-38_260595134347_rgbf000039-resize_4-target.png,250,2.8435,7.0,6644,249,feet,jsons/v1_VE250_randls_65.json,1742074,2660012,29,man
50,815340,DepthScenes,duration_manipulation_targetAtFixation,jsons/v1_VE250_randls_65.json,http://54.235.29.9/FacialAge/BNav_EC2/DepthDuration/v2_depth_duration_MTurk/v2_DepthDuration_HTML.html#168,168,1280,689,1280,800,9-3-2022,10-37-4,51,depth_duration_stimuli/003048_2014-06-15_13-49-43_094959634447_rgbf000150-resize_1/003048_2014-06-15_13-49-43_094959634447_rgbf000150-resize_1-target.png,250,4.0035,9.0,6266,248,feet,jsons/v1_VE250_randls_65.json,1742074,2660012,29,man
51,815340,DepthScenes,duration_manipulation_targetAtFixation,jsons/v1_VE250_randls_65.json,http://54.235.29.9/FacialAge/BNav_EC2/DepthDuration/v2_depth_duration_MTurk/v2_DepthDuration_HTML.html#168,168,1280,689,1280,800,9-3-2022,10-37-4,52,depth_duration_stimuli/001092_2014-06-15_17-34-58_260595134347_rgbf000171-resize_3/001092_2014-06-15_17-34-58_260595134347_rgbf000171-resize_3-target.png,250,2.6935,6.0,9692,250,feet,jsons/v1_VE250_randls_65.json,1742074,2660012,29,man
52,815340,DepthScenes,duration_manipulation_targetAtFixation,jsons/v1_VE250_randls_65.json,http://54.235.29.9/FacialAge/BNav_EC2/DepthDuration/v2_depth_duration_MTurk/v2_DepthDuration_HTML.html#168,168,1280,689,1280,800,9-3-2022,10-37-4,53,depth_duration_stimuli/002545_2014-06-24_13-38-53_094959634447_rgbf000080-resize_4/002545_2014-06-24_13-38-53_094959634447_rgbf000080-resize_4-target.png,250,1.9205,5.0,5208,249,feet,jsons/v1_VE250_randls_65.json,1742074,2660012,29,man
53,815340,DepthScenes,duration_manipulation_targetAtFixation,jsons/v1_VE250_randls_65.json,http://54.235.29.9/FacialAge/BNav_EC2/DepthDuration/v2_depth_duration_MTurk/v2_DepthDuration_HTML.html#168,168,1280,689,1280,800,9-3-2022,10-37-4,54,depth_duration_stimuli/002784_2014-06-22_19-26-30_094959634447_rgbf000083-resize_3/002784_2014-06-22_19-26-30_094959634447_rgbf000083-resize_3-target.png,250,1.8046666666667,3.0,7961,251,feet,jsons/v1_VE250_randls_65.json,1742074,2660012,29,man
54,815340,DepthScenes,duration_manipulation_targetAtFixation,jsons/v1_VE250_randls_65.json,http://54.235.29.9/FacialAge/BNav_EC2/DepthDuration/v2_depth_duration_MTurk/v2_DepthDuration_HTML.html#168,168,1280,689,1280,800,9-3-2022,10-37-4,55,depth_duration_stimuli/001100_2014-06-15_17-46-26_260595134347_rgbf000225-resize_2/001100_2014-06-15_17-46-26_260595134347_rgbf000225-resize_2-target.png,250,2.24,2.5,13864,250,feet,jsons/v1_VE250_randls_65.json,1742074,2660012,29,man
55,815340,DepthScenes,duration_manipulation_targetAtFixation,jsons/v1_VE250_randls_65.json,http://54.235.29.9/FacialAge/BNav_EC2/DepthDuration/v2_depth_duration_MTurk/v2_DepthDuration_HTML.html#168,168,1280,689,1280,800,9-3-2022,10-37-4,56,depth_duration_stimuli/000493_2014-06-09_21-01-18_260595134347_rgbf000196-resize_3/000493_2014-06-09_21-01-18_260595134347_rgbf000196-resize_3-target.png,250,3.44,5.0,11014,250,feet,jsons/v1_VE250_randls_65.json,1742074,2660012,29,man
56,815340,DepthScenes,duration_manipulation_targetAtFixation,jsons/v1_VE250_randls_65.json,http://54.235.29.9/FacialAge/BNav_EC2/DepthDuration/v2_depth_duration_MTurk/v2_DepthDuration_HTML.html#168,168,1280,689,1280,800,9-3-2022,10-37-4,57,depth_duration_stimuli/000191_2014-05-12_17-07-38_260595134347_rgbf000199-resize_0/000191_2014-05-12_17-07-38_260595134347_rgbf000199-resize_0-target.png,250,3.7995,0.0,28187,250,feet,jsons/v1_VE250_randls_65.json,1742074,2660012,29,man
57,815340,DepthScenes,duration_manipulation_targetAtFixation,jsons/v1_VE250_randls_65.json,http://54.235.29.9/FacialAge/BNav_EC2/DepthDuration/v2_depth_duration_MTurk/v2_DepthDuration_HTML.html#168,168,1280,689,1280,800,9-3-2022,10-37-4,58,depth_duration_stimuli/002964_2014-06-08_17-46-11_094959634447_rgbf000091-resize_4/002964_2014-06-08_17-46-11_094959634447_rgbf000091-resize_4-target.png,250,1.6909999999999998,4.0,37781,251,feet,jsons/v1_VE250_randls_65.json,1742074,2660012,29,man
58,815340,DepthScenes,duration_manipulation_targetAtFixation,jsons/v1_VE250_randls_65.json,http://54.235.29.9/FacialAge/BNav_EC2/DepthDuration/v2_depth_duration_MTurk/v2_DepthDuration_HTML.html#168,168,1280,689,1280,800,9-3-2022,10-37-4,59,depth_duration_stimuli/002136_2014-06-25_21-18-03_260595134347_rgbf000109-resize_3/002136_2014-06-25_21-18-03_260595134347_rgbf000109-resize_3-target.png,250,1.9569999999999999,4.0,7219,250,feet,jsons/v1_VE250_randls_65.json,1742074,2660012,29,man
59,815340,DepthScenes,duration_manipulation_targetAtFixation,jsons/v1_VE250_randls_65.json,http://54.235.29.9/FacialAge/BNav_EC2/DepthDuration/v2_depth_duration_MTurk/v2_DepthDuration_HTML.html#168,168,1280,689,1280,800,9-3-2022,10-37-4,60,depth_duration_stimuli/000009_2014-05-26_14-32-05_260595134347_rgbf000034-resize_3/000009_2014-05-26_14-32-05_260595134347_rgbf000034-resize_3-target.png,250,3.8715,9.0,7697,252,feet,jsons/v1_VE250_randls_65.json,1742074,2660012,29,man
60,815340,DepthScenes,duration_manipulation_targetAtFixation,jsons/v1_VE250_randls_65.json,http://54.235.29.9/FacialAge/BNav_EC2/DepthDuration/v2_depth_duration_MTurk/v2_DepthDuration_HTML.html#168,168,1280,689,1280,800,9-3-2022,10-37-4,61,depth_duration_stimuli/001828_2014-06-26_21-40-03_260595134347_rgbf000024-resize_0/001828_2014-06-26_21-40-03_260595134347_rgbf000024-resize_0-target.png,250,4.8260000000000005,7.0,5743,266,feet,jsons/v1_VE250_randls_65.json,1742074,2660012,29,man
61,815340,DepthScenes,duration_manipulation_targetAtFixation,jsons/v1_VE250_randls_65.json,http://54.235.29.9/FacialAge/BNav_EC2/DepthDuration/v2_depth_duration_MTurk/v2_DepthDuration_HTML.html#168,168,1280,689,1280,800,9-3-2022,10-37-4,62,depth_duration_stimuli/000736_2014-06-08_18-24-15_260595134347_rgbf000206-resize_3/000736_2014-06-08_18-24-15_260595134347_rgbf000206-resize_3-target.png,250,3.515,5.0,6511,249,feet,jsons/v1_VE250_randls_65.json,1742074,2660012,29,man
62,815340,DepthScenes,duration_manipulation_targetAtFixation,jsons/v1_VE250_randls_65.json,http://54.235.29.9/FacialAge/BNav_EC2/DepthDuration/v2_depth_duration_MTurk/v2_DepthDuration_HTML.html#168,168,1280,689,1280,800,9-3-2022,10-37-4,63,depth_duration_stimuli/000137_2014-05-20_17-04-49_260595134347_rgbf000120-resize_1/000137_2014-05-20_17-04-49_260595134347_rgbf000120-resize_1-target.png,250,3.786,0.0,5488,242,feet,jsons/v1_VE250_randls_65.json,1742074,2660012,29,man
63,815340,DepthScenes,duration_manipulation_targetAtFixation,jsons/v1_VE250_randls_65.json,http://54.235.29.9/FacialAge/BNav_EC2/DepthDuration/v2_depth_duration_MTurk/v2_DepthDuration_HTML.html#168,168,1280,689,1280,800,9-3-2022,10-37-4,64,depth_duration_stimuli/001244_2014-06-17_16-47-45_260595134347_rgbf000030-resize_4/001244_2014-06-17_16-47-45_260595134347_rgbf000030-resize_4-target.png,250,2.0425,4.0,9147,250,feet,jsons/v1_VE250_randls_65.json,1742074,2660012,29,man
64,815340,DepthScenes,duration_manipulation_targetAtFixation,jsons/v1_VE250_randls_65.json,http://54.235.29.9/FacialAge/BNav_EC2/DepthDuration/v2_depth_duration_MTurk/v2_DepthDuration_HTML.html#168,168,1280,689,1280,800,9-3-2022,10-37-4,65,depth_duration_stimuli/003495_2014-05-21_16-01-51_094959634447_rgbf000100-resize_3/003495_2014-05-21_16-01-51_094959634447_rgbf000100-resize_3-target.png,250,1.6255,5.0,7171,248,feet,jsons/v1_VE250_randls_65.json,1742074,2660012,29,man
65,815340,DepthScenes,duration_manipulation_targetAtFixation,jsons/v1_VE250_randls_65.json,http://54.235.29.9/FacialAge/BNav_EC2/DepthDuration/v2_depth_duration_MTurk/v2_DepthDuration_HTML.html#168,168,1280,689,1280,800,9-3-2022,10-37-4,66,depth_duration_stimuli/001222_2014-06-17_16-24-06_260595134347_rgbf000073-resize_0/001222_2014-06-17_16-24-06_260595134347_rgbf000073-resize-original.jpg,250,1.4385,0.0,9723,249,feet,jsons/v1_VE250_randls_65.json,1742074,2660012,29,man
66,815340,DepthScenes,duration_manipulation_targetAtFixation,jsons/v1_VE250_randls_65.json,http://54.235.29.9/FacialAge/BNav_EC2/DepthDuration/v2_depth_duration_MTurk/v2_DepthDuration_HTML.html#168,168,1280,689,1280,800,9-3-2022,10-37-4,67,depth_duration_stimuli/002570_2014-06-24_13-59-54_094959634447_rgbf000059-resize_0/002570_2014-06-24_13-59-54_094959634447_rgbf000059-resize_0-target.png,250,4.037,7.0,13395,250,feet,jsons/v1_VE250_randls_65.json,1742074,2660012,29,man
67,815340,DepthScenes,duration_manipulation_targetAtFixation,jsons/v1_VE250_randls_65.json,http://54.235.29.9/FacialAge/BNav_EC2/DepthDuration/v2_depth_duration_MTurk/v2_DepthDuration_HTML.html#168,168,1280,689,1280,800,9-3-2022,10-37-4,68,depth_duration_stimuli/002467_2014-06-28_20-38-07_260595134347_rgbf000026-resize_2/002467_2014-06-28_20-38-07_260595134347_rgbf000026-resize_2-target.png,250,4.742,7.0,8570,250,feet,jsons/v1_VE250_randls_65.json,1742074,2660012,29,man
68,815340,DepthScenes,duration_manipulation_targetAtFixation,jsons/v1_VE250_randls_65.json,http://54.235.29.9/FacialAge/BNav_EC2/DepthDuration/v2_depth_duration_MTurk/v2_DepthDuration_HTML.html#168,168,1280,689,1280,800,9-3-2022,10-37-4,69,depth_duration_stimuli/002748_2014-06-22_19-07-22_094959634447_rgbf000078-resize_1/002748_2014-06-22_19-07-22_094959634447_rgbf000078-resize_1-target.png,250,4.6705,10.0,13363,249,feet,jsons/v1_VE250_randls_65.json,1742074,2660012,29,man
69,815340,DepthScenes,duration_manipulation_targetAtFixation,jsons/v1_VE250_randls_65.json,http://54.235.29.9/FacialAge/BNav_EC2/DepthDuration/v2_depth_duration_MTurk/v2_DepthDuration_HTML.html#168,168,1280,689,1280,800,9-3-2022,10-37-4,70,depth_duration_stimuli/002995_2014-06-15_12-31-26_094959634447_rgbf000150-resize_1/002995_2014-06-15_12-31-26_094959634447_rgbf000150-resize_1-target.png,250,3.8360000000000003,8.0,10619,249,feet,jsons/v1_VE250_randls_65.json,1742074,2660012,29,man
70,815340,DepthScenes,duration_manipulation_targetAtFixation,jsons/v1_VE250_randls_65.json,http://54.235.29.9/FacialAge/BNav_EC2/DepthDuration/v2_depth_duration_MTurk/v2_DepthDuration_HTML.html#168,168,1280,689,1280,800,9-3-2022,10-37-4,71,depth_duration_stimuli/001810_2014-06-26_20-51-35_260595134347_rgbf000040-resize_3/001810_2014-06-26_20-51-35_260595134347_rgbf000040-resize_3-target.png,250,2.2525,6.0,12530,250,feet,jsons/v1_VE250_randls_65.json,1742074,2660012,29,man
71,815340,DepthScenes,duration_manipulation_targetAtFixation,jsons/v1_VE250_randls_65.json,http://54.235.29.9/FacialAge/BNav_EC2/DepthDuration/v2_depth_duration_MTurk/v2_DepthDuration_HTML.html#168,168,1280,689,1280,800,9-3-2022,10-37-4,72,depth_duration_stimuli/003010_2014-06-15_12-54-35_094959634447_rgbf000112-resize_0/003010_2014-06-15_12-54-35_094959634447_rgbf000112-resize_0-target.png,250,3.1185,5.0,9807,250,feet,jsons/v1_VE250_randls_65.json,1742074,2660012,29,man
72,815340,DepthScenes,duration_manipulation_targetAtFixation,jsons/v1_VE250_randls_65.json,http://54.235.29.9/FacialAge/BNav_EC2/DepthDuration/v2_depth_duration_MTurk/v2_DepthDuration_HTML.html#168,168,1280,689,1280,800,9-3-2022,10-37-4,73,depth_duration_stimuli/002600_2014-06-24_14-27-04_094959634447_rgbf000074-resize_2/002600_2014-06-24_14-27-04_094959634447_rgbf000074-resize_2-target.png,250,2.7575,6.0,11040,251,feet,jsons/v1_VE250_randls_65.json,1742074,2660012,29,man
73,815340,DepthScenes,duration_manipulation_targetAtFixation,jsons/v1_VE250_randls_65.json,http://54.235.29.9/FacialAge/BNav_EC2/DepthDuration/v2_depth_duration_MTurk/v2_DepthDuration_HTML.html#168,168,1280,689,1280,800,9-3-2022,10-37-4,74,depth_duration_stimuli/003228_2014-05-14_13-42-35_094959634447_rgbf000101-resize_1/003228_2014-05-14_13-42-35_094959634447_rgbf000101-resize_1-target.png,250,1.9680000000000002,3.0,5675,250,feet,jsons/v1_VE250_randls_65.json,1742074,2660012,29,man
74,815340,DepthScenes,duration_manipulation_targetAtFixation,jsons/v1_VE250_randls_65.json,http://54.235.29.9/FacialAge/BNav_EC2/DepthDuration/v2_depth_duration_MTurk/v2_DepthDuration_HTML.html#168,168,1280,689,1280,800,9-3-2022,10-37-4,75,depth_duration_stimuli/001011_2014-06-08_23-18-54_260595134347_rgbf000044-resize_4/001011_2014-06-08_23-18-54_260595134347_rgbf000044-resize_4-target.png,250,2.4730000000000003,6.0,5156,251,feet,jsons/v1_VE250_randls_65.json,1742074,2660012,29,man
75,815340,DepthScenes,duration_manipulation_targetAtFixation,jsons/v1_VE250_randls_65.json,http://54.235.29.9/FacialAge/BNav_EC2/DepthDuration/v2_depth_duration_MTurk/v2_DepthDuration_HTML.html#168,168,1280,689,1280,800,9-3-2022,10-37-4,76,depth_duration_stimuli/002875_2014-06-01_15-19-00_094959634447_rgbf000151-resize_1/002875_2014-06-01_15-19-00_094959634447_rgbf000151-resize_1-target.png,250,1.9675,4.0,8544,250,feet,jsons/v1_VE250_randls_65.json,1742074,2660012,29,man
76,815340,DepthScenes,duration_manipulation_targetAtFixation,jsons/v1_VE250_randls_65.json,http://54.235.29.9/FacialAge/BNav_EC2/DepthDuration/v2_depth_duration_MTurk/v2_DepthDuration_HTML.html#168,168,1280,689,1280,800,9-3-2022,10-37-4,77,depth_duration_stimuli/000917_2014-06-09_22-45-29_260595134347_rgbf000149-resize_3/000917_2014-06-09_22-45-29_260595134347_rgbf000149-resize_3-target.png,250,4.1865,8.0,10949,248,feet,jsons/v1_VE250_randls_65.json,1742074,2660012,29,man
77,815340,DepthScenes,duration_manipulation_targetAtFixation,jsons/v1_VE250_randls_65.json,http://54.235.29.9/FacialAge/BNav_EC2/DepthDuration/v2_depth_duration_MTurk/v2_DepthDuration_HTML.html#168,168,1280,689,1280,800,9-3-2022,10-37-4,78,depth_duration_stimuli/002323_2014-06-28_20-01-54_260595134347_rgbf000051-resize_4/002323_2014-06-28_20-01-54_260595134347_rgbf000051-resize_4-target.png,250,3.7310000000000003,6.0,6981,250,feet,jsons/v1_VE250_randls_65.json,1742074,2660012,29,man
78,815340,DepthScenes,duration_manipulation_targetAtFixation,jsons/v1_VE250_randls_65.json,http://54.235.29.9/FacialAge/BNav_EC2/DepthDuration/v2_depth_duration_MTurk/v2_DepthDuration_HTML.html#168,168,1280,689,1280,800,9-3-2022,10-37-4,79,depth_duration_stimuli/001016_2014-06-09_16-16-10_260595134347_rgbf000112-resize_5/001016_2014-06-09_16-16-10_260595134347_rgbf000112-resize_5-target.png,250,1.6565,4.0,7979,250,feet,jsons/v1_VE250_randls_65.json,1742074,2660012,29,man
79,815340,DepthScenes,duration_manipulation_targetAtFixation,jsons/v1_VE250_randls_65.json,http://54.235.29.9/FacialAge/BNav_EC2/DepthDuration/v2_depth_duration_MTurk/v2_DepthDuration_HTML.html#168,168,1280,689,1280,800,9-3-2022,10-37-4,80,depth_duration_stimuli/002340_2014-06-28_20-05-46_260595134347_rgbf000113-resize_0/002340_2014-06-28_20-05-46_260595134347_rgbf000113-resize_0-target.png,250,2.4735,6.0,13374,250,feet,jsons/v1_VE250_randls_65.json,1742074,2660012,29,man
80,815340,DepthScenes,duration_manipulation_targetAtFixation,jsons/v1_VE250_randls_65.json,http://54.235.29.9/FacialAge/BNav_EC2/DepthDuration/v2_depth_duration_MTurk/v2_DepthDuration_HTML.html#168,168,1280,689,1280,800,9-3-2022,10-37-4,81,depth_duration_stimuli/000929_2014-06-09_16-33-19_260595134347_rgbf000139-resize_0/000929_2014-06-09_16-33-19_260595134347_rgbf000139-resize_0-target.png,250,2.8680000000000003,6.0,13958,249,feet,jsons/v1_VE250_randls_65.json,1742074,2660012,29,man
81,815340,DepthScenes,duration_manipulation_targetAtFixation,jsons/v1_VE250_randls_65.json,http://54.235.29.9/FacialAge/BNav_EC2/DepthDuration/v2_depth_duration_MTurk/v2_DepthDuration_HTML.html#168,168,1280,689,1280,800,9-3-2022,10-37-4,82,depth_duration_stimuli/000457_2014-06-08_16-52-43_260595134347_rgbf000199-resize_1/000457_2014-06-08_16-52-43_260595134347_rgbf000199-resize_1-target.png,250,3.6489999999999996,5.0,6750,249,feet,jsons/v1_VE250_randls_65.json,1742074,2660012,29,man
82,815340,DepthScenes,duration_manipulation_targetAtFixation,jsons/v1_VE250_randls_65.json,http://54.235.29.9/FacialAge/BNav_EC2/DepthDuration/v2_depth_duration_MTurk/v2_DepthDuration_HTML.html#168,168,1280,689,1280,800,9-3-2022,10-37-4,83,depth_duration_stimuli/001066_2014-06-08_22-03-20_260595134347_rgbf000066-resize_4/001066_2014-06-08_22-03-20_260595134347_rgbf000066-resize_4-target.png,250,4.2330000000000005,8.0,8389,248,feet,jsons/v1_VE250_randls_65.json,1742074,2660012,29,man
83,815340,DepthScenes,duration_manipulation_targetAtFixation,jsons/v1_VE250_randls_65.json,http://54.235.29.9/FacialAge/BNav_EC2/DepthDuration/v2_depth_duration_MTurk/v2_DepthDuration_HTML.html#168,168,1280,689,1280,800,9-3-2022,10-37-4,84,depth_duration_stimuli/000742_2014-06-08_18-48-09_260595134347_rgbf000164-resize_4/000742_2014-06-08_18-48-09_260595134347_rgbf000164-resize_4-target.png,250,4.632,7.0,6869,251,feet,jsons/v1_VE250_randls_65.json,1742074,2660012,29,man
84,815340,DepthScenes,duration_manipulation_targetAtFixation,jsons/v1_VE250_randls_65.json,http://54.235.29.9/FacialAge/BNav_EC2/DepthDuration/v2_depth_duration_MTurk/v2_DepthDuration_HTML.html#168,168,1280,689,1280,800,9-3-2022,10-37-4,85,depth_duration_stimuli/001555_2014-06-20_17-12-10_260595134347_rgbf000065-resize_4/001555_2014-06-20_17-12-10_260595134347_rgbf000065-resize_4-target.png,250,1.633,4.0,7777,249,feet,jsons/v1_VE250_randls_65.json,1742074,2660012,29,man
85,815340,DepthScenes,duration_manipulation_targetAtFixation,jsons/v1_VE250_randls_65.json,http://54.235.29.9/FacialAge/BNav_EC2/DepthDuration/v2_depth_duration_MTurk/v2_DepthDuration_HTML.html#168,168,1280,689,1280,800,9-3-2022,10-37-4,86,depth_duration_stimuli/000103_2014-05-14_22-01-17_260595134347_rgbf000152-resize_5/000103_2014-05-14_22-01-17_260595134347_rgbf000152-resize_5-target.png,250,1.993,0.0,5266,248,feet,jsons/v1_VE250_randls_65.json,1742074,2660012,29,man
86,815340,DepthScenes,duration_manipulation_targetAtFixation,jsons/v1_VE250_randls_65.json,http://54.235.29.9/FacialAge/BNav_EC2/DepthDuration/v2_depth_duration_MTurk/v2_DepthDuration_HTML.html#168,168,1280,689,1280,800,9-3-2022,10-37-4,87,depth_duration_stimuli/002788_2014-06-22_19-36-03_094959634447_rgbf000088-resize_2/002788_2014-06-22_19-36-03_094959634447_rgbf000088-resize_2-target.png,250,1.6465,6.0,6388,250,feet,jsons/v1_VE250_randls_65.json,1742074,2660012,29,man
87,815340,DepthScenes,duration_manipulation_targetAtFixation,jsons/v1_VE250_randls_65.json,http://54.235.29.9/FacialAge/BNav_EC2/DepthDuration/v2_depth_duration_MTurk/v2_DepthDuration_HTML.html#168,168,1280,689,1280,800,9-3-2022,10-37-4,88,depth_duration_stimuli/000749_2014-06-08_21-55-06_260595134347_rgbf000070-resize_2/000749_2014-06-08_21-55-06_260595134347_rgbf000070-resize_2-target.png,250,2.331,5.0,12115,249,feet,jsons/v1_VE250_randls_65.json,1742074,2660012,29,man
88,815340,DepthScenes,duration_manipulation_targetAtFixation,jsons/v1_VE250_randls_65.json,http://54.235.29.9/FacialAge/BNav_EC2/DepthDuration/v2_depth_duration_MTurk/v2_DepthDuration_HTML.html#168,168,1280,689,1280,800,9-3-2022,10-37-4,89,depth_duration_stimuli/001029_2014-06-08_13-17-57_260595134347_rgbf000065-resize_1/001029_2014-06-08_13-17-57_260595134347_rgbf000065-resize_1-target.png,250,3.0835,6.0,11955,248,feet,jsons/v1_VE250_randls_65.json,1742074,2660012,29,man
89,815340,DepthScenes,duration_manipulation_targetAtFixation,jsons/v1_VE250_randls_65.json,http://54.235.29.9/FacialAge/BNav_EC2/DepthDuration/v2_depth_duration_MTurk/v2_DepthDuration_HTML.html#168,168,1280,689,1280,800,9-3-2022,10-37-4,90,depth_duration_stimuli/000677_2014-06-08_23-10-32_260595134347_rgbf000158-resize_6/000677_2014-06-08_23-10-32_260595134347_rgbf000158-resize_6-target.png,250,3.556,5.0,5732,249,feet,jsons/v1_VE250_randls_65.json,1742074,2660012,29,man
90,815340,DepthScenes,duration_manipulation_targetAtFixation,jsons/v1_VE250_randls_65.json,http://54.235.29.9/FacialAge/BNav_EC2/DepthDuration/v2_depth_duration_MTurk/v2_DepthDuration_HTML.html#168,168,1280,689,1280,800,9-3-2022,10-37-4,91,depth_duration_stimuli/001150_2014-06-17_15-27-34_260595134347_rgbf000108-resize_2/001150_2014-06-17_15-27-34_260595134347_rgbf000108-resize_2-target.png,250,4.0325,7.0,7834,264,feet,jsons/v1_VE250_randls_65.json,1742074,2660012,29,man
91,815340,DepthScenes,duration_manipulation_targetAtFixation,jsons/v1_VE250_randls_65.json,http://54.235.29.9/FacialAge/BNav_EC2/DepthDuration/v2_depth_duration_MTurk/v2_DepthDuration_HTML.html#168,168,1280,689,1280,800,9-3-2022,10-37-4,92,depth_duration_stimuli/000665_2014-06-09_20-42-35_260595134347_rgbf000110-resize_1/000665_2014-06-09_20-42-35_260595134347_rgbf000110-resize_1-target.png,250,3.057,5.0,5462,249,feet,jsons/v1_VE250_randls_65.json,1742074,2660012,29,man
92,815340,DepthScenes,duration_manipulation_targetAtFixation,jsons/v1_VE250_randls_65.json,http://54.235.29.9/FacialAge/BNav_EC2/DepthDuration/v2_depth_duration_MTurk/v2_DepthDuration_HTML.html#168,168,1280,689,1280,800,9-3-2022,10-37-4,93,depth_duration_stimuli/000758_2014-06-08_22-05-08_260595134347_rgbf000085-resize_0/000758_2014-06-08_22-05-08_260595134347_rgbf000085-resize_0-target.png,250,3.3810000000000002,7.0,6956,249,feet,jsons/v1_VE250_randls_65.json,1742074,2660012,29,man
93,815340,DepthScenes,duration_manipulation_targetAtFixation,jsons/v1_VE250_randls_65.json,http://54.235.29.9/FacialAge/BNav_EC2/DepthDuration/v2_depth_duration_MTurk/v2_DepthDuration_HTML.html#168,168,1280,689,1280,800,9-3-2022,10-37-4,94,depth_duration_stimuli/000854_2014-06-09_19-43-13_260595134347_rgbf000066-resize_0/000854_2014-06-09_19-43-13_260595134347_rgbf000066-resize_0-target.png,250,3.068,4.0,4635,249,feet,jsons/v1_VE250_randls_65.json,1742074,2660012,29,man
94,815340,DepthScenes,duration_manipulation_targetAtFixation,jsons/v1_VE250_randls_65.json,http://54.235.29.9/FacialAge/BNav_EC2/DepthDuration/v2_depth_duration_MTurk/v2_DepthDuration_HTML.html#168,168,1280,689,1280,800,9-3-2022,10-37-4,95,depth_duration_stimuli/001133_2014-06-17_14-49-16_260595134347_rgbf000100-resize_0/001133_2014-06-17_14-49-16_260595134347_rgbf000100-resize_0-target.png,250,4.2115,6.0,6979,249,feet,jsons/v1_VE250_randls_65.json,1742074,2660012,29,man
95,815340,DepthScenes,duration_manipulation_targetAtFixation,jsons/v1_VE250_randls_65.json,http://54.235.29.9/FacialAge/BNav_EC2/DepthDuration/v2_depth_duration_MTurk/v2_DepthDuration_HTML.html#168,168,1280,689,1280,800,9-3-2022,10-37-4,96,depth_duration_stimuli/001132_2014-06-17_14-48-54_260595134347_rgbf000100-resize_2/001132_2014-06-17_14-48-54_260595134347_rgbf000100-resize_2-target.png,250,3.753,6.0,7654,249,feet,jsons/v1_VE250_randls_65.json,1742074,2660012,29,man
96,815340,DepthScenes,duration_manipulation_targetAtFixation,jsons/v1_VE250_randls_65.json,http://54.235.29.9/FacialAge/BNav_EC2/DepthDuration/v2_depth_duration_MTurk/v2_DepthDuration_HTML.html#168,168,1280,689,1280,800,9-3-2022,10-37-4,97,depth_duration_stimuli/000878_2014-06-08_22-52-45_260595134347_rgbf000045-resize_2/000878_2014-06-08_22-52-45_260595134347_rgbf000045-resize_2-target.png,250,2.092,6.0,7736,250,feet,jsons/v1_VE250_randls_65.json,1742074,2660012,29,man
97,815340,DepthScenes,duration_manipulation_targetAtFixation,jsons/v1_VE250_randls_65.json,http://54.235.29.9/FacialAge/BNav_EC2/DepthDuration/v2_depth_duration_MTurk/v2_DepthDuration_HTML.html#168,168,1280,689,1280,800,9-3-2022,10-37-4,98,depth_duration_stimuli/002953_2014-06-08_17-32-18_094959634447_rgbf000059-resize_5/002953_2014-06-08_17-32-18_094959634447_rgbf000059-resize_5-target.png,250,1.551,0.0,4620,249,feet,jsons/v1_VE250_randls_65.json,1742074,2660012,29,man
98,815340,DepthScenes,duration_manipulation_targetAtFixation,jsons/v1_VE250_randls_65.json,http://54.235.29.9/FacialAge/BNav_EC2/DepthDuration/v2_depth_duration_MTurk/v2_DepthDuration_HTML.html#168,168,1280,689,1280,800,9-3-2022,10-37-4,99,depth_duration_stimuli/001540_2014-06-20_17-01-05_260595134347_rgbf000086-resize_2/001540_2014-06-20_17-01-05_260595134347_rgbf000086-resize-original.jpg,250,1.459,0.0,5794,250,feet,jsons/v1_VE250_randls_65.json,1742074,2660012,29,man
99,815340,DepthScenes,duration_manipulation_targetAtFixation,jsons/v1_VE250_randls_65.json,http://54.235.29.9/FacialAge/BNav_EC2/DepthDuration/v2_depth_duration_MTurk/v2_DepthDuration_HTML.html#168,168,1280,689,1280,800,9-3-2022,10-37-4,100,depth_duration_stimuli/000810_2014-06-08_17-20-01_260595134347_rgbf000105-resize_0/000810_2014-06-08_17-20-01_260595134347_rgbf000105-resize_0-target.png,250,1.4865,5.0,8980,249,feet,jsons/v1_VE250_randls_65.json,1742074,2660012,29,man
100,815340,DepthScenes,duration_manipulation_targetAtFixation,jsons/v1_VE250_randls_65.json,http://54.235.29.9/FacialAge/BNav_EC2/DepthDuration/v2_depth_duration_MTurk/v2_DepthDuration_HTML.html#168,168,1280,689,1280,800,9-3-2022,10-37-4,101,depth_duration_stimuli/001214_2014-06-17_16-13-55_260595134347_rgbf000111-resize_0/001214_2014-06-17_16-13-55_260595134347_rgbf000111-resize_0-target.png,250,2.6505,5.0,6922,249,feet,jsons/v1_VE250_randls_65.json,1742074,2660012,29,man
101,815340,DepthScenes,duration_manipulation_targetAtFixation,jsons/v1_VE250_randls_65.json,http://54.235.29.9/FacialAge/BNav_EC2/DepthDuration/v2_depth_duration_MTurk/v2_DepthDuration_HTML.html#168,168,1280,689,1280,800,9-3-2022,10-37-4,102,depth_duration_stimuli/001059_2014-06-08_21-53-27_260595134347_rgbf000061-resize_4/001059_2014-06-08_21-53-27_260595134347_rgbf000061-resize_4-target.png,250,2.4185,5.0,5770,250,feet,jsons/v1_VE250_randls_65.json,1742074,2660012,29,man
102,815340,DepthScenes,duration_manipulation_targetAtFixation,jsons/v1_VE250_randls_65.json,http://54.235.29.9/FacialAge/BNav_EC2/DepthDuration/v2_depth_duration_MTurk/v2_DepthDuration_HTML.html#168,168,1280,689,1280,800,9-3-2022,10-37-4,103,depth_duration_stimuli/001032_2014-06-08_13-23-17_260595134347_rgbf000021-resize_3/001032_2014-06-08_13-23-17_260595134347_rgbf000021-resize_3-target.png,250,3.2725,0.0,4249,249,feet,jsons/v1_VE250_randls_65.json,1742074,2660012,29,man
103,815340,DepthScenes,duration_manipulation_targetAtFixation,jsons/v1_VE250_randls_65.json,http://54.235.29.9/FacialAge/BNav_EC2/DepthDuration/v2_depth_duration_MTurk/v2_DepthDuration_HTML.html#168,168,1280,689,1280,800,9-3-2022,10-37-4,104,depth_duration_stimuli/000906_2014-06-08_13-35-43_260595134347_rgbf000155-resize_1/000906_2014-06-08_13-35-43_260595134347_rgbf000155-resize_1-target.png,250,2.8489999999999998,9.0,5581,249,feet,jsons/v1_VE250_randls_65.json,1742074,2660012,29,man
104,815340,DepthScenes,duration_manipulation_targetAtFixation,jsons/v1_VE250_randls_65.json,http://54.235.29.9/FacialAge/BNav_EC2/DepthDuration/v2_depth_duration_MTurk/v2_DepthDuration_HTML.html#168,168,1280,689,1280,800,9-3-2022,10-37-4,105,depth_duration_stimuli/002805_2014-06-22_19-54-03_094959634447_rgbf000079-resize_1/002805_2014-06-22_19-54-03_094959634447_rgbf000079-resize_1-target.png,250,3.1439999999999997,0.0,4292,249,feet,jsons/v1_VE250_randls_65.json,1742074,2660012,29,man
105,815340,DepthScenes,duration_manipulation_targetAtFixation,jsons/v1_VE250_randls_65.json,http://54.235.29.9/FacialAge/BNav_EC2/DepthDuration/v2_depth_duration_MTurk/v2_DepthDuration_HTML.html#168,168,1280,689,1280,800,9-3-2022,10-37-4,106,depth_duration_stimuli/001806_2014-06-26_20-50-20_260595134347_rgbf000091-resize_1/001806_2014-06-26_20-50-20_260595134347_rgbf000091-resize_1-target.png,250,2.7305,4.0,5410,250,feet,jsons/v1_VE250_randls_65.json,1742074,2660012,29,man
106,815340,DepthScenes,duration_manipulation_targetAtFixation,jsons/v1_VE250_randls_65.json,http://54.235.29.9/FacialAge/BNav_EC2/DepthDuration/v2_depth_duration_MTurk/v2_DepthDuration_HTML.html#168,168,1280,689,1280,800,9-3-2022,10-37-4,107,depth_duration_stimuli/001617_2014-06-20_11-35-32_260595134347_rgbf000066-resize_1/001617_2014-06-20_11-35-32_260595134347_rgbf000066-resize_1-target.png,250,3.7910000000000004,0.0,7300,248,feet,jsons/v1_VE250_randls_65.json,1742074,2660012,29,man
107,815340,DepthScenes,duration_manipulation_targetAtFixation,jsons/v1_VE250_randls_65.json,http://54.235.29.9/FacialAge/BNav_EC2/DepthDuration/v2_depth_duration_MTurk/v2_DepthDuration_HTML.html#168,168,1280,689,1280,800,9-3-2022,10-37-4,108,depth_duration_stimuli/003621_2014-05-23_18-06-08_094959634447_rgbf000101-resize_1/003621_2014-05-23_18-06-08_094959634447_rgbf000101-resize_1-target.png,250,3.9835,9.0,5843,251,feet,jsons/v1_VE250_randls_65.json,1742074,2660012,29,man
108,815340,DepthScenes,duration_manipulation_targetAtFixation,jsons/v1_VE250_randls_65.json,http://54.235.29.9/FacialAge/BNav_EC2/DepthDuration/v2_depth_duration_MTurk/v2_DepthDuration_HTML.html#168,168,1280,689,1280,800,9-3-2022,10-37-4,109,depth_duration_stimuli/001584_2014-06-20_11-07-43_260595134347_rgbf000002-resize_1/001584_2014-06-20_11-07-43_260595134347_rgbf000002-resize_1-target.png,250,3.53,0.0,4517,249,feet,jsons/v1_VE250_randls_65.json,1742074,2660012,29,man
109,815340,DepthScenes,duration_manipulation_targetAtFixation,jsons/v1_VE250_randls_65.json,http://54.235.29.9/FacialAge/BNav_EC2/DepthDuration/v2_depth_duration_MTurk/v2_DepthDuration_HTML.html#168,168,1280,689,1280,800,9-3-2022,10-37-4,110,depth_duration_stimuli/000447_2014-06-08_16-15-46_260595134347_rgbf000130-resize_1/000447_2014-06-08_16-15-46_260595134347_rgbf000130-resize_1-target.png,250,4.479,9.0,4836,248,feet,jsons/v1_VE250_randls_65.json,1742074,2660012,29,man
110,815340,DepthScenes,duration_manipulation_targetAtFixation,jsons/v1_VE250_randls_65.json,http://54.235.29.9/FacialAge/BNav_EC2/DepthDuration/v2_depth_duration_MTurk/v2_DepthDuration_HTML.html#168,168,1280,689,1280,800,9-3-2022,10-37-4,111,depth_duration_stimuli/001447_2014-06-19_17-00-32_260595134347_rgbf000082-resize_5/001447_2014-06-19_17-00-32_260595134347_rgbf000082-resize_5-target.png,250,4.13775,0.0,4031,249,feet,jsons/v1_VE250_randls_65.json,1742074,2660012,29,man
111,815340,DepthScenes,duration_manipulation_targetAtFixation,jsons/v1_VE250_randls_65.json,http://54.235.29.9/FacialAge/BNav_EC2/DepthDuration/v2_depth_duration_MTurk/v2_DepthDuration_HTML.html#168,168,1280,689,1280,800,9-3-2022,10-37-4,112,depth_duration_stimuli/002988_2014-06-15_12-24-20_094959634447_rgbf000150-resize_1/002988_2014-06-15_12-24-20_094959634447_rgbf000150-resize_1-target.png,250,4.7669999999999995,10.0,7611,250,feet,jsons/v1_VE250_randls_65.json,1742074,2660012,29,man
112,815340,DepthScenes,duration_manipulation_targetAtFixation,jsons/v1_VE250_randls_65.json,http://54.235.29.9/FacialAge/BNav_EC2/DepthDuration/v2_depth_duration_MTurk/v2_DepthDuration_HTML.html#168,168,1280,689,1280,800,9-3-2022,10-37-4,113,depth_duration_stimuli/001052_2014-06-08_18-24-54_260595134347_rgbf000130-resize_1/001052_2014-06-08_18-24-54_260595134347_rgbf000130-resize_1-target.png,250,4.1045,0.0,4466,251,feet,jsons/v1_VE250_randls_65.json,1742074,2660012,29,man
113,815340,DepthScenes,duration_manipulation_targetAtFixation,jsons/v1_VE250_randls_65.json,http://54.235.29.9/FacialAge/BNav_EC2/DepthDuration/v2_depth_duration_MTurk/v2_DepthDuration_HTML.html#168,168,1280,689,1280,800,9-3-2022,10-37-4,114,depth_duration_stimuli/001158_2014-06-17_15-32-16_260595134347_rgbf000138-resize_2/001158_2014-06-17_15-32-16_260595134347_rgbf000138-resize_2-target.png,250,4.5315,8.0,5122,251,feet,jsons/v1_VE250_randls_65.json,1742074,2660012,29,man
114,815340,DepthScenes,duration_manipulation_targetAtFixation,jsons/v1_VE250_randls_65.json,http://54.235.29.9/FacialAge/BNav_EC2/DepthDuration/v2_depth_duration_MTurk/v2_DepthDuration_HTML.html#168,168,1280,689,1280,800,9-3-2022,10-37-4,115,depth_duration_stimuli/000556_2014-06-09_22-42-56_260595134347_rgbf000214-resize_1/000556_2014-06-09_22-42-56_260595134347_rgbf000214-resize_1-target.png,250,4.8415,0.0,4235,251,feet,jsons/v1_VE250_randls_65.json,1742074,2660012,29,man
115,815340,DepthScenes,duration_manipulation_targetAtFixation,jsons/v1_VE250_randls_65.json,http://54.235.29.9/FacialAge/BNav_EC2/DepthDuration/v2_depth_duration_MTurk/v2_DepthDuration_HTML.html#168,168,1280,689,1280,800,9-3-2022,10-37-4,116,depth_duration_stimuli/001170_2014-06-17_15-43-44_260595134347_rgbf000096-resize_6/001170_2014-06-17_15-43-44_260595134347_rgbf000096-resize-original.jpg,250,1.1909999999999998,0.0,5660,249,feet,jsons/v1_VE250_randls_65.json,1742074,2660012,29,man
116,815340,DepthScenes,duration_manipulation_targetAtFixation,jsons/v1_VE250_randls_65.json,http://54.235.29.9/FacialAge/BNav_EC2/DepthDuration/v2_depth_duration_MTurk/v2_DepthDuration_HTML.html#168,168,1280,689,1280,800,9-3-2022,10-37-4,117,depth_duration_stimuli/000773_2014-06-08_22-24-54_260595134347_rgbf000093-resize_1/000773_2014-06-08_22-24-54_260595134347_rgbf000093-resize_1-target.png,250,4.973,9.0,5123,250,feet,jsons/v1_VE250_randls_65.json,1742074,2660012,29,man
117,815340,DepthScenes,duration_manipulation_targetAtFixation,jsons/v1_VE250_randls_65.json,http://54.235.29.9/FacialAge/BNav_EC2/DepthDuration/v2_depth_duration_MTurk/v2_DepthDuration_HTML.html#168,168,1280,689,1280,800,9-3-2022,10-37-4,118,depth_duration_stimuli/002414_2014-06-28_20-24-58_260595134347_rgbf000067-resize_4/002414_2014-06-28_20-24-58_260595134347_rgbf000067-resize_4-target.png,250,4.363,0.0,4370,250,feet,jsons/v1_VE250_randls_65.json,1742074,2660012,29,man
118,815340,DepthScenes,duration_manipulation_targetAtFixation,jsons/v1_VE250_randls_65.json,http://54.235.29.9/FacialAge/BNav_EC2/DepthDuration/v2_depth_duration_MTurk/v2_DepthDuration_HTML.html#168,168,1280,689,1280,800,9-3-2022,10-37-4,119,depth_duration_stimuli/003534_2014-05-22_15-06-10_094959634447_rgbf000102-resize_4/003534_2014-05-22_15-06-10_094959634447_rgbf000102-resize_4-target.png,250,1.426,4.0,8195,249,feet,jsons/v1_VE250_randls_65.json,1742074,2660012,29,man
119,815340,DepthScenes,duration_manipulation_targetAtFixation,jsons/v1_VE250_randls_65.json,http://54.235.29.9/FacialAge/BNav_EC2/DepthDuration/v2_depth_duration_MTurk/v2_DepthDuration_HTML.html#168,168,1280,689,1280,800,9-3-2022,10-37-4,120,depth_duration_stimuli/002637_2014-06-24_14-51-13_094959634447_rgbf000066-resize_4/002637_2014-06-24_14-51-13_094959634447_rgbf000066-resize_4-target.png,250,1.9955,0.0,5028,250,feet,jsons/v1_VE250_randls_65.json,1742074,2660012,29,man
120,815340,DepthScenes,duration_manipulation_targetAtFixation,jsons/v1_VE250_randls_65.json,http://54.235.29.9/FacialAge/BNav_EC2/DepthDuration/v2_depth_duration_MTurk/v2_DepthDuration_HTML.html#168,168,1280,689,1280,800,9-3-2022,10-37-4,121,depth_duration_stimuli/002630_2014-06-24_14-47-50_094959634447_rgbf000055-resize_1/002630_2014-06-24_14-47-50_094959634447_rgbf000055-resize_1-target.png,250,3.0095,7.0,6251,250,feet,jsons/v1_VE250_randls_65.json,1742074,2660012,29,man
121,815340,DepthScenes,duration_manipulation_targetAtFixation,jsons/v1_VE250_randls_65.json,http://54.235.29.9/FacialAge/BNav_EC2/DepthDuration/v2_depth_duration_MTurk/v2_DepthDuration_HTML.html#168,168,1280,689,1280,800,9-3-2022,10-37-4,122,depth_duration_stimuli/002758_2014-06-22_19-11-20_094959634447_rgbf000128-resize_1/002758_2014-06-22_19-11-20_094959634447_rgbf000128-resize_1-target.png,250,2.555,6.0,7572,250,feet,jsons/v1_VE250_randls_65.json,1742074,2660012,29,man
122,815340,DepthScenes,duration_manipulation_targetAtFixation,jsons/v1_VE250_randls_65.json,http://54.235.29.9/FacialAge/BNav_EC2/DepthDuration/v2_depth_duration_MTurk/v2_DepthDuration_HTML.html#168,168,1280,689,1280,800,9-3-2022,10-37-4,123,depth_duration_stimuli/002118_2014-06-25_20-32-08_260595134347_rgbf000078-resize_1/002118_2014-06-25_20-32-08_260595134347_rgbf000078-resize_1-target.png,250,2.6460000000000004,5.0,6884,250,feet,jsons/v1_VE250_randls_65.json,1742074,2660012,29,man
123,815340,DepthScenes,duration_manipulation_targetAtFixation,jsons/v1_VE250_randls_65.json,http://54.235.29.9/FacialAge/BNav_EC2/DepthDuration/v2_depth_duration_MTurk/v2_DepthDuration_HTML.html#168,168,1280,689,1280,800,9-3-2022,10-37-4,124,depth_duration_stimuli/001516_2014-06-20_16-25-09_260595134347_rgbf000076-resize_2/001516_2014-06-20_16-25-09_260595134347_rgbf000076-resize_2-target.png,250,1.7445,6.0,8546,248,feet,jsons/v1_VE250_randls_65.json,1742074,2660012,29,man
124,815340,DepthScenes,duration_manipulation_targetAtFixation,jsons/v1_VE250_randls_65.json,http://54.235.29.9/FacialAge/BNav_EC2/DepthDuration/v2_depth_duration_MTurk/v2_DepthDuration_HTML.html#168,168,1280,689,1280,800,9-3-2022,10-37-4,125,depth_duration_stimuli/000739_2014-06-08_18-45-58_260595134347_rgbf000068-resize_1/000739_2014-06-08_18-45-58_260595134347_rgbf000068-resize_1-target.png,250,3.534,8.0,8062,250,feet,jsons/v1_VE250_randls_65.json,1742074,2660012,29,man
125,815340,DepthScenes,duration_manipulation_targetAtFixation,jsons/v1_VE250_randls_65.json,http://54.235.29.9/FacialAge/BNav_EC2/DepthDuration/v2_depth_duration_MTurk/v2_DepthDuration_HTML.html#168,168,1280,689,1280,800,9-3-2022,10-37-4,126,depth_duration_stimuli/000734_2014-06-08_17-39-11_260595134347_rgbf000128-resize_2/000734_2014-06-08_17-39-11_260595134347_rgbf000128-resize_2-target.png,250,4.098,8.0,10705,250,feet,jsons/v1_VE250_randls_65.json,1742074,2660012,29,man
126,815340,DepthScenes,duration_manipulation_targetAtFixation,jsons/v1_VE250_randls_65.json,http://54.235.29.9/FacialAge/BNav_EC2/DepthDuration/v2_depth_duration_MTurk/v2_DepthDuration_HTML.html#168,168,1280,689,1280,800,9-3-2022,10-37-4,127,depth_duration_stimuli/000692_2014-06-08_13-09-42_260595134347_rgbf000199-resize_2/000692_2014-06-08_13-09-42_260595134347_rgbf000199-resize_2-target.png,250,3.661,9.0,7603,250,feet,jsons/v1_VE250_randls_65.json,1742074,2660012,29,man
127,815340,DepthScenes,duration_manipulation_targetAtFixation,jsons/v1_VE250_randls_65.json,http://54.235.29.9/FacialAge/BNav_EC2/DepthDuration/v2_depth_duration_MTurk/v2_DepthDuration_HTML.html#168,168,1280,689,1280,800,9-3-2022,10-37-4,128,depth_duration_stimuli/001094_2014-06-15_17-36-00_260595134347_rgbf000205-resize_0/001094_2014-06-15_17-36-00_260595134347_rgbf000205-resize_0-target.png,250,4.2175,9.0,5035,250,feet,jsons/v1_VE250_randls_65.json,1742074,2660012,29,man
128,815340,DepthScenes,duration_manipulation_targetAtFixation,jsons/v1_VE250_randls_65.json,http://54.235.29.9/FacialAge/BNav_EC2/DepthDuration/v2_depth_duration_MTurk/v2_DepthDuration_HTML.html#168,168,1280,689,1280,800,9-3-2022,10-37-4,129,depth_duration_stimuli/000436_2014-06-09_22-25-11_260595134347_rgbf000137-resize_1/000436_2014-06-09_22-25-11_260595134347_rgbf000137-resize_1-target.png,250,4.0705,10.0,9201,249,feet,jsons/v1_VE250_randls_65.json,1742074,2660012,29,man
129,815340,DepthScenes,duration_manipulation_targetAtFixation,jsons/v1_VE250_randls_65.json,http://54.235.29.9/FacialAge/BNav_EC2/DepthDuration/v2_depth_duration_MTurk/v2_DepthDuration_HTML.html#168,168,1280,689,1280,800,9-3-2022,10-37-4,130,depth_duration_stimuli/002444_2014-06-28_20-32-08_260595134347_rgbf000027-resize_0/002444_2014-06-28_20-32-08_260595134347_rgbf000027-resize_0-target.png,250,4.388999999999999,9.0,6269,249,feet,jsons/v1_VE250_randls_65.json,1742074,2660012,29,man
130,815340,DepthScenes,duration_manipulation_targetAtFixation,jsons/v1_VE250_randls_65.json,http://54.235.29.9/FacialAge/BNav_EC2/DepthDuration/v2_depth_duration_MTurk/v2_DepthDuration_HTML.html#168,168,1280,689,1280,800,9-3-2022,10-37-4,131,depth_duration_stimuli/000486_2014-06-09_20-47-20_260595134347_rgbf000143-resize_2/000486_2014-06-09_20-47-20_260595134347_rgbf000143-resize_2-target.png,250,4.8325,6.5,7068,250,feet,jsons/v1_VE250_randls_65.json,1742074,2660012,29,man
131,815340,DepthScenes,duration_manipulation_targetAtFixation,jsons/v1_VE250_randls_65.json,http://54.235.29.9/FacialAge/BNav_EC2/DepthDuration/v2_depth_duration_MTurk/v2_DepthDuration_HTML.html#168,168,1280,689,1280,800,9-3-2022,10-37-4,132,depth_duration_stimuli/003083_2014-06-15_15-21-03_094959634447_rgbf000063-resize_1/003083_2014-06-15_15-21-03_094959634447_rgbf000063-resize_1-target.png,250,4.1405,0.0,4848,250,feet,jsons/v1_VE250_randls_65.json,1742074,2660012,29,man
132,815340,DepthScenes,duration_manipulation_targetAtFixation,jsons/v1_VE250_randls_65.json,http://54.235.29.9/FacialAge/BNav_EC2/DepthDuration/v2_depth_duration_MTurk/v2_DepthDuration_HTML.html#168,168,1280,689,1280,800,9-3-2022,10-37-4,133,depth_duration_stimuli/002549_2014-06-24_13-41-39_094959634447_rgbf000022-resize_3/002549_2014-06-24_13-41-39_094959634447_rgbf000022-resize_3-target.png,250,1.476,4.0,6410,249,feet,jsons/v1_VE250_randls_65.json,1742074,2660012,29,man
133,815340,DepthScenes,duration_manipulation_targetAtFixation,jsons/v1_VE250_randls_65.json,http://54.235.29.9/FacialAge/BNav_EC2/DepthDuration/v2_depth_duration_MTurk/v2_DepthDuration_HTML.html#168,168,1280,689,1280,800,9-3-2022,10-37-4,134,depth_duration_stimuli/002750_2014-06-22_19-08-03_094959634447_rgbf000094-resize_4/002750_2014-06-22_19-08-03_094959634447_rgbf000094-resize_4-target.png,250,2.354,7.0,6755,250,feet,jsons/v1_VE250_randls_65.json,1742074,2660012,29,man
134,815340,DepthScenes,duration_manipulation_targetAtFixation,jsons/v1_VE250_randls_65.json,http://54.235.29.9/FacialAge/BNav_EC2/DepthDuration/v2_depth_duration_MTurk/v2_DepthDuration_HTML.html#168,168,1280,689,1280,800,9-3-2022,10-37-4,135,depth_duration_stimuli/002072_2014-06-24_21-48-06_260595134347_rgbf000115-resize_0/002072_2014-06-24_21-48-06_260595134347_rgbf000115-resize-original.jpg,250,4.702,0.0,7861,250,feet,jsons/v1_VE250_randls_65.json,1742074,2660012,29,man
135,815340,DepthScenes,duration_manipulation_targetAtFixation,jsons/v1_VE250_randls_65.json,http://54.235.29.9/FacialAge/BNav_EC2/DepthDuration/v2_depth_duration_MTurk/v2_DepthDuration_HTML.html#168,168,1280,689,1280,800,9-3-2022,10-37-4,136,depth_duration_stimuli/002989_2014-06-15_12-25-03_094959634447_rgbf000150-resize_3/002989_2014-06-15_12-25-03_094959634447_rgbf000150-resize_3-target.png,250,4.1975,10.0,11930,249,feet,jsons/v1_VE250_randls_65.json,1742074,2660012,29,man
136,815340,DepthScenes,duration_manipulation_targetAtFixation,jsons/v1_VE250_randls_65.json,http://54.235.29.9/FacialAge/BNav_EC2/DepthDuration/v2_depth_duration_MTurk/v2_DepthDuration_HTML.html#168,168,1280,689,1280,800,9-3-2022,10-37-4,137,depth_duration_stimuli/000866_2014-06-09_20-45-42_260595134347_rgbf000139-resize_1/000866_2014-06-09_20-45-42_260595134347_rgbf000139-resize_1-target.png,250,3.2155,2.5,17491,249,feet,jsons/v1_VE250_randls_65.json,1742074,2660012,29,man
137,815340,DepthScenes,duration_manipulation_targetAtFixation,jsons/v1_VE250_randls_65.json,http://54.235.29.9/FacialAge/BNav_EC2/DepthDuration/v2_depth_duration_MTurk/v2_DepthDuration_HTML.html#168,168,1280,689,1280,800,9-3-2022,10-37-4,138,depth_duration_stimuli/000788_2014-06-08_22-34-36_260595134347_rgbf000131-resize_1/000788_2014-06-08_22-34-36_260595134347_rgbf000131-resize_1-target.png,250,3.359,6.0,15365,251,feet,jsons/v1_VE250_randls_65.json,1742074,2660012,29,man
138,815340,DepthScenes,duration_manipulation_targetAtFixation,jsons/v1_VE250_randls_65.json,http://54.235.29.9/FacialAge/BNav_EC2/DepthDuration/v2_depth_duration_MTurk/v2_DepthDuration_HTML.html#168,168,1280,689,1280,800,9-3-2022,10-37-4,139,depth_duration_stimuli/001235_2014-06-17_16-37-36_260595134347_rgbf000084-resize_4/001235_2014-06-17_16-37-36_260595134347_rgbf000084-resize_4-target.png,250,3.6605,6.0,18961,251,feet,jsons/v1_VE250_randls_65.json,1742074,2660012,29,man
139,815340,DepthScenes,duration_manipulation_targetAtFixation,jsons/v1_VE250_randls_65.json,http://54.235.29.9/FacialAge/BNav_EC2/DepthDuration/v2_depth_duration_MTurk/v2_DepthDuration_HTML.html#168,168,1280,689,1280,800,9-3-2022,10-37-4,140,depth_duration_stimuli/002445_2014-06-28_20-32-16_260595134347_rgbf000029-resize_4/002445_2014-06-28_20-32-16_260595134347_rgbf000029-resize_4-target.png,250,2.5315,4.0,14484,251,feet,jsons/v1_VE250_randls_65.json,1742074,2660012,29,man
140,815340,DepthScenes,duration_manipulation_targetAtFixation,jsons/v1_VE250_randls_65.json,http://54.235.29.9/FacialAge/BNav_EC2/DepthDuration/v2_depth_duration_MTurk/v2_DepthDuration_HTML.html#168,168,1280,689,1280,800,9-3-2022,10-37-4,141,depth_duration_stimuli/000780_2014-06-08_22-28-29_260595134347_rgbf000126-resize_1/000780_2014-06-08_22-28-29_260595134347_rgbf000126-resize_1-target.png,250,3.3825,7.0,18504,251,feet,jsons/v1_VE250_randls_65.json,1742074,2660012,29,man
141,815340,DepthScenes,duration_manipulation_targetAtFixation,jsons/v1_VE250_randls_65.json,http://54.235.29.9/FacialAge/BNav_EC2/DepthDuration/v2_depth_duration_MTurk/v2_DepthDuration_HTML.html#168,168,1280,689,1280,800,9-3-2022,10-37-4,142,depth_duration_stimuli/002905_2014-06-03_18-04-43_094959634447_rgbf000151-resize_2/002905_2014-06-03_18-04-43_094959634447_rgbf000151-resize_2-target.png,250,2.0295,4.5,15960,249,feet,jsons/v1_VE250_randls_65.json,1742074,2660012,29,man
142,815340,DepthScenes,duration_manipulation_targetAtFixation,jsons/v1_VE250_randls_65.json,http://54.235.29.9/FacialAge/BNav_EC2/DepthDuration/v2_depth_duration_MTurk/v2_DepthDuration_HTML.html#168,168,1280,689,1280,800,9-3-2022,10-37-4,143,depth_duration_stimuli/003423_2014-05-21_10-23-26_094959634447_rgbf002665-resize_2/003423_2014-05-21_10-23-26_094959634447_rgbf002665-resize_2-target.png,250,3.2575,8.0,20082,250,feet,jsons/v1_VE250_randls_65.json,1742074,2660012,29,man
143,815340,DepthScenes,duration_manipulation_targetAtFixation,jsons/v1_VE250_randls_65.json,http://54.235.29.9/FacialAge/BNav_EC2/DepthDuration/v2_depth_duration_MTurk/v2_DepthDuration_HTML.html#168,168,1280,689,1280,800,9-3-2022,10-37-4,144,depth_duration_stimuli/000469_2014-06-09_19-42-10_260595134347_rgbf000081-resize_1/000469_2014-06-09_19-42-10_260595134347_rgbf000081-resize_1-target.png,250,1.652,5.0,16693,251,feet,jsons/v1_VE250_randls_65.json,1742074,2660012,29,man
144,815340,DepthScenes,duration_manipulation_targetAtFixation,jsons/v1_VE250_randls_65.json,http://54.235.29.9/FacialAge/BNav_EC2/DepthDuration/v2_depth_duration_MTurk/v2_DepthDuration_HTML.html#168,168,1280,689,1280,800,9-3-2022,10-37-4,145,depth_duration_stimuli/000483_2014-06-09_20-41-45_260595134347_rgbf000116-resize_4/000483_2014-06-09_20-41-45_260595134347_rgbf000116-resize_4-target.png,250,1.337,4.0,10873,249,feet,jsons/v1_VE250_randls_65.json,1742074,2660012,29,man
145,815340,DepthScenes,duration_manipulation_targetAtFixation,jsons/v1_VE250_randls_65.json,http://54.235.29.9/FacialAge/BNav_EC2/DepthDuration/v2_depth_duration_MTurk/v2_DepthDuration_HTML.html#168,168,1280,689,1280,800,9-3-2022,10-37-4,146,depth_duration_stimuli/001498_2014-06-19_17-45-14_260595134347_rgbf000129-resize_4/001498_2014-06-19_17-45-14_260595134347_rgbf000129-resize-original.jpg,250,1.4075,0.0,12938,250,feet,jsons/v1_VE250_randls_65.json,1742074,2660012,29,man
146,815340,DepthScenes,duration_manipulation_targetAtFixation,jsons/v1_VE250_randls_65.json,http://54.235.29.9/FacialAge/BNav_EC2/DepthDuration/v2_depth_duration_MTurk/v2_DepthDuration_HTML.html#168,168,1280,689,1280,800,9-3-2022,10-37-4,147,depth_duration_stimuli/001110_2014-06-15_17-25-28_260595134347_rgbf000150-resize_1/001110_2014-06-15_17-25-28_260595134347_rgbf000150-resize_1-target.png,250,1.7115,4.5,19296,249,feet,jsons/v1_VE250_randls_65.json,1742074,2660012,29,man
147,815340,DepthScenes,duration_manipulation_targetAtFixation,jsons/v1_VE250_randls_65.json,http://54.235.29.9/FacialAge/BNav_EC2/DepthDuration/v2_depth_duration_MTurk/v2_DepthDuration_HTML.html#168,168,1280,689,1280,800,9-3-2022,10-37-4,148,depth_duration_stimuli/000927_2014-06-09_16-32-30_260595134347_rgbf000123-resize_3/000927_2014-06-09_16-32-30_260595134347_rgbf000123-resize_3-target.png,250,2.6785,6.0,12305,250,feet,jsons/v1_VE250_randls_65.json,1742074,2660012,29,man
148,815340,DepthScenes,duration_manipulation_targetAtFixation,jsons/v1_VE250_randls_65.json,http://54.235.29.9/FacialAge/BNav_EC2/DepthDuration/v2_depth_duration_MTurk/v2_DepthDuration_HTML.html#168,168,1280,689,1280,800,9-3-2022,10-37-4,149,depth_duration_stimuli/000470_2014-06-09_19-42-40_260595134347_rgbf000094-resize_1/000470_2014-06-09_19-42-40_260595134347_rgbf000094-resize_1-target.png,250,1.831,5.0,14073,245,feet,jsons/v1_VE250_randls_65.json,1742074,2660012,29,man
149,815340,DepthScenes,duration_manipulation_targetAtFixation,jsons/v1_VE250_randls_65.json,http://54.235.29.9/FacialAge/BNav_EC2/DepthDuration/v2_depth_duration_MTurk/v2_DepthDuration_HTML.html#168,168,1280,689,1280,800,9-3-2022,10-37-4,150,depth_duration_stimuli/000109_2014-05-14_23-41-52_260595134347_rgbf000035-resize_9/000109_2014-05-14_23-41-52_260595134347_rgbf000035-resize_9-target.png,250,1.3545,3.0,12059,249,feet,jsons/v1_VE250_randls_65.json,1742074,2660012,29,man
150,815340,DepthScenes,duration_manipulation_targetAtFixation,jsons/v1_VE250_randls_65.json,http://54.235.29.9/FacialAge/BNav_EC2/DepthDuration/v2_depth_duration_MTurk/v2_DepthDuration_HTML.html#168,168,1280,689,1280,800,9-3-2022,10-37-4,151,depth_duration_stimuli/001808_2014-06-26_20-50-58_260595134347_rgbf000029-resize_1/001808_2014-06-26_20-50-58_260595134347_rgbf000029-resize_1-target.png,250,4.249,10.0,23323,249,feet,jsons/v1_VE250_randls_65.json,1742074,2660012,29,man
151,815340,DepthScenes,duration_manipulation_targetAtFixation,jsons/v1_VE250_randls_65.json,http://54.235.29.9/FacialAge/BNav_EC2/DepthDuration/v2_depth_duration_MTurk/v2_DepthDuration_HTML.html#168,168,1280,689,1280,800,9-3-2022,10-37-4,152,depth_duration_stimuli/001815_2014-06-26_20-52-55_260595134347_rgbf000020-resize_0/001815_2014-06-26_20-52-55_260595134347_rgbf000020-resize_0-target.png,250,3.3865,8.0,12299,248,feet,jsons/v1_VE250_randls_65.json,1742074,2660012,29,man
152,815340,DepthScenes,duration_manipulation_targetAtFixation,jsons/v1_VE250_randls_65.json,http://54.235.29.9/FacialAge/BNav_EC2/DepthDuration/v2_depth_duration_MTurk/v2_DepthDuration_HTML.html#168,168,1280,689,1280,800,9-3-2022,10-37-4,153,depth_duration_stimuli/002763_2014-06-22_19-13-10_094959634447_rgbf000075-resize_4/002763_2014-06-22_19-13-10_094959634447_rgbf000075-resize_4-target.png,250,1.68375,3.0,22556,250,feet,jsons/v1_VE250_randls_65.json,1742074,2660012,29,man
153,815340,DepthScenes,duration_manipulation_targetAtFixation,jsons/v1_VE250_randls_65.json,http://54.235.29.9/FacialAge/BNav_EC2/DepthDuration/v2_depth_duration_MTurk/v2_DepthDuration_HTML.html#168,168,1280,689,1280,800,9-3-2022,10-37-4,154,depth_duration_stimuli/002209_2014-06-28_18-36-10_260595134347_rgbf000051-resize_1/002209_2014-06-28_18-36-10_260595134347_rgbf000051-resize_1-target.png,250,2.057,4.0,27636,249,feet,jsons/v1_VE250_randls_65.json,1742074,2660012,29,man
154,815340,DepthScenes,duration_manipulation_targetAtFixation,jsons/v1_VE250_randls_65.json,http://54.235.29.9/FacialAge/BNav_EC2/DepthDuration/v2_depth_duration_MTurk/v2_DepthDuration_HTML.html#168,168,1280,689,1280,800,9-3-2022,10-37-4,155,depth_duration_stimuli/002725_2014-06-22_11-47-51_094959634447_rgbf000070-resize_1/002725_2014-06-22_11-47-51_094959634447_rgbf000070-resize_1-target.png,250,2.195,8.0,10854,249,feet,jsons/v1_VE250_randls_65.json,1742074,2660012,29,man
155,815340,DepthScenes,duration_manipulation_targetAtFixation,jsons/v1_VE250_randls_65.json,http://54.235.29.9/FacialAge/BNav_EC2/DepthDuration/v2_depth_duration_MTurk/v2_DepthDuration_HTML.html#168,168,1280,689,1280,800,9-3-2022,10-37-4,156,depth_duration_stimuli/002344_2014-06-28_20-06-29_260595134347_rgbf000030-resize_1/002344_2014-06-28_20-06-29_260595134347_rgbf000030-resize_1-target.png,250,1.5795,0.0,7993,250,feet,jsons/v1_VE250_randls_65.json,1742074,2660012,29,man
156,815340,DepthScenes,duration_manipulation_targetAtFixation,jsons/v1_VE250_randls_65.json,http://54.235.29.9/FacialAge/BNav_EC2/DepthDuration/v2_depth_duration_MTurk/v2_DepthDuration_HTML.html#168,168,1280,689,1280,800,9-3-2022,10-37-4,157,depth_duration_stimuli/000682_2014-06-08_23-14-58_260595134347_rgbf000041-resize_5/000682_2014-06-08_23-14-58_260595134347_rgbf000041-resize_5-target.png,250,2.7239999999999998,6.0,9772,249,feet,jsons/v1_VE250_randls_65.json,1742074,2660012,29,man
157,815340,DepthScenes,duration_manipulation_targetAtFixation,jsons/v1_VE250_randls_65.json,http://54.235.29.9/FacialAge/BNav_EC2/DepthDuration/v2_depth_duration_MTurk/v2_DepthDuration_HTML.html#168,168,1280,689,1280,800,9-3-2022,10-37-4,158,depth_duration_stimuli/001650_2014-06-20_12-09-00_260595134347_rgbf000087-resize_3/001650_2014-06-20_12-09-00_260595134347_rgbf000087-resize_3-target.png,250,1.9505,4.0,9931,250,feet,jsons/v1_VE250_randls_65.json,1742074,2660012,29,man
158,815340,DepthScenes,duration_manipulation_targetAtFixation,jsons/v1_VE250_randls_65.json,http://54.235.29.9/FacialAge/BNav_EC2/DepthDuration/v2_depth_duration_MTurk/v2_DepthDuration_HTML.html#168,168,1280,689,1280,800,9-3-2022,10-37-4,159,depth_duration_stimuli/000522_2014-06-08_13-35-06_260595134347_rgbf000244-resize_1/000522_2014-06-08_13-35-06_260595134347_rgbf000244-resize_1-target.png,250,2.3715,4.0,21436,250,feet,jsons/v1_VE250_randls_65.json,1742074,2660012,29,man
159,815340,DepthScenes,duration_manipulation_targetAtFixation,jsons/v1_VE250_randls_65.json,http://54.235.29.9/FacialAge/BNav_EC2/DepthDuration/v2_depth_duration_MTurk/v2_DepthDuration_HTML.html#168,168,1280,689,1280,800,9-3-2022,10-37-4,160,depth_duration_stimuli/002949_2014-06-26_15-57-42_094959634447_rgbf000079-resize_1/002949_2014-06-26_15-57-42_094959634447_rgbf000079-resize_1-target.png,250,1.8915,6.0,11695,249,feet,jsons/v1_VE250_randls_65.json,1742074,2660012,29,man
160,815340,DepthScenes,duration_manipulation_targetAtFixation,jsons/v1_VE250_randls_65.json,http://54.235.29.9/FacialAge/BNav_EC2/DepthDuration/v2_depth_duration_MTurk/v2_DepthDuration_HTML.html#168,168,1280,689,1280,800,9-3-2022,10-37-4,161,depth_duration_stimuli/002375_2014-06-28_20-13-44_260595134347_rgbf000032-resize_1/002375_2014-06-28_20-13-44_260595134347_rgbf000032-resize_1-target.png,250,4.0175,6.0,10253,248,feet,jsons/v1_VE250_randls_65.json,1742074,2660012,29,man
161,815340,DepthScenes,duration_manipulation_targetAtFixation,jsons/v1_VE250_randls_65.json,http://54.235.29.9/FacialAge/BNav_EC2/DepthDuration/v2_depth_duration_MTurk/v2_DepthDuration_HTML.html#168,168,1280,689,1280,800,9-3-2022,10-37-4,162,depth_duration_stimuli/002657_2014-06-13_15-29-54_094959634447_rgbf000150-resize_1/002657_2014-06-13_15-29-54_094959634447_rgbf000150-resize_1-target.png,250,4.919,5.0,6266,250,feet,jsons/v1_VE250_randls_65.json,1742074,2660012,29,man
162,815340,DepthScenes,duration_manipulation_targetAtFixation,jsons/v1_VE250_randls_65.json,http://54.235.29.9/FacialAge/BNav_EC2/DepthDuration/v2_depth_duration_MTurk/v2_DepthDuration_HTML.html#168,168,1280,689,1280,800,9-3-2022,10-37-4,163,depth_duration_stimuli/003492_2014-05-21_15-50-55_094959634447_rgbf000828-resize_1/003492_2014-05-21_15-50-55_094959634447_rgbf000828-resize_1-target.png,250,4.06875,9.0,8955,250,feet,jsons/v1_VE250_randls_65.json,1742074,2660012,29,man
163,815340,DepthScenes,duration_manipulation_targetAtFixation,jsons/v1_VE250_randls_65.json,http://54.235.29.9/FacialAge/BNav_EC2/DepthDuration/v2_depth_duration_MTurk/v2_DepthDuration_HTML.html#168,168,1280,689,1280,800,9-3-2022,10-37-4,164,depth_duration_stimuli/002568_2014-06-24_13-59-21_094959634447_rgbf000062-resize_4/002568_2014-06-24_13-59-21_094959634447_rgbf000062-resize_4-target.png,250,3.015,0.0,9936,249,feet,jsons/v1_VE250_randls_65.json,1742074,2660012,29,man
