,subjID,experimentName,versionName,sequenceName,url,selected_row,windowWidth,windowHeight,screenWidth,screenHeight,startDate,startTime,trial,stimulus,duration,actual_depth,depth_estimate,trial_RT,log_sceneDuration,unitSelection,seq_filepath,experimentTime,totalTime,age,gender
0,819331,DepthScenes,duration_manipulation_targetAtFixation,jsons/v1_VE250_randls_15.json,http://54.235.29.9/FacialAge/BNav_EC2/DepthDuration/v2_depth_duration_MTurk/v2_DepthDuration_HTML.html#73,73,1280,881,1280,1024,9-3-2022,10-36-53,1,depth_duration_stimuli/002964_2014-06-08_17-46-11_094959634447_rgbf000091-resize_4/002964_2014-06-08_17-46-11_094959634447_rgbf000091-resize_4-target.png,250,1.6909999999999998,2,10279,250,feet,jsons/v1_VE250_randls_15.json,855687,1091740,27,Man
1,819331,DepthScenes,duration_manipulation_targetAtFixation,jsons/v1_VE250_randls_15.json,http://54.235.29.9/FacialAge/BNav_EC2/DepthDuration/v2_depth_duration_MTurk/v2_DepthDuration_HTML.html#73,73,1280,881,1280,1024,9-3-2022,10-36-53,2,depth_duration_stimuli/002136_2014-06-25_21-18-03_260595134347_rgbf000109-resize_3/002136_2014-06-25_21-18-03_260595134347_rgbf000109-resize_3-target.png,250,1.9569999999999999,0,4069,249,feet,jsons/v1_VE250_randls_15.json,855687,1091740,27,Man
2,819331,DepthScenes,duration_manipulation_targetAtFixation,jsons/v1_VE250_randls_15.json,http://54.235.29.9/FacialAge/BNav_EC2/DepthDuration/v2_depth_duration_MTurk/v2_DepthDuration_HTML.html#73,73,1280,881,1280,1024,9-3-2022,10-36-53,3,depth_duration_stimuli/002272_2014-06-28_18-53-56_260595134347_rgbf000067-resize_2/002272_2014-06-28_18-53-56_260595134347_rgbf000067-resize_2-target.png,250,1.138,2,4331,250,feet,jsons/v1_VE250_randls_15.json,855687,1091740,27,Man
3,819331,DepthScenes,duration_manipulation_targetAtFixation,jsons/v1_VE250_randls_15.json,http://54.235.29.9/FacialAge/BNav_EC2/DepthDuration/v2_depth_duration_MTurk/v2_DepthDuration_HTML.html#73,73,1280,881,1280,1024,9-3-2022,10-36-53,4,depth_duration_stimuli/001571_2014-06-20_17-21-32_260595134347_rgbf000089-resize_1/001571_2014-06-20_17-21-32_260595134347_rgbf000089-resize_1-target.png,250,1.86,3,4116,250,feet,jsons/v1_VE250_randls_15.json,855687,1091740,27,Man
4,819331,DepthScenes,duration_manipulation_targetAtFixation,jsons/v1_VE250_randls_15.json,http://54.235.29.9/FacialAge/BNav_EC2/DepthDuration/v2_depth_duration_MTurk/v2_DepthDuration_HTML.html#73,73,1280,881,1280,1024,9-3-2022,10-36-53,5,depth_duration_stimuli/002988_2014-06-15_12-24-20_094959634447_rgbf000150-resize_1/002988_2014-06-15_12-24-20_094959634447_rgbf000150-resize_1-target.png,250,4.7669999999999995,6,5381,250,feet,jsons/v1_VE250_randls_15.json,855687,1091740,27,Man
5,819331,DepthScenes,duration_manipulation_targetAtFixation,jsons/v1_VE250_randls_15.json,http://54.235.29.9/FacialAge/BNav_EC2/DepthDuration/v2_depth_duration_MTurk/v2_DepthDuration_HTML.html#73,73,1280,881,1280,1024,9-3-2022,10-36-53,6,depth_duration_stimuli/001052_2014-06-08_18-24-54_260595134347_rgbf000130-resize_1/001052_2014-06-08_18-24-54_260595134347_rgbf000130-resize_1-target.png,250,4.1045,0,5418,250,feet,jsons/v1_VE250_randls_15.json,855687,1091740,27,Man
6,819331,DepthScenes,duration_manipulation_targetAtFixation,jsons/v1_VE250_randls_15.json,http://54.235.29.9/FacialAge/BNav_EC2/DepthDuration/v2_depth_duration_MTurk/v2_DepthDuration_HTML.html#73,73,1280,881,1280,1024,9-3-2022,10-36-53,7,depth_duration_stimuli/001110_2014-06-15_17-25-28_260595134347_rgbf000150-resize_1/001110_2014-06-15_17-25-28_260595134347_rgbf000150-resize_1-target.png,250,1.7115,2,4751,250,feet,jsons/v1_VE250_randls_15.json,855687,1091740,27,Man
7,819331,DepthScenes,duration_manipulation_targetAtFixation,jsons/v1_VE250_randls_15.json,http://54.235.29.9/FacialAge/BNav_EC2/DepthDuration/v2_depth_duration_MTurk/v2_DepthDuration_HTML.html#73,73,1280,881,1280,1024,9-3-2022,10-36-53,8,depth_duration_stimuli/000927_2014-06-09_16-32-30_260595134347_rgbf000123-resize_3/000927_2014-06-09_16-32-30_260595134347_rgbf000123-resize_3-target.png,250,2.6785,2,5572,249,feet,jsons/v1_VE250_randls_15.json,855687,1091740,27,Man
8,819331,DepthScenes,duration_manipulation_targetAtFixation,jsons/v1_VE250_randls_15.json,http://54.235.29.9/FacialAge/BNav_EC2/DepthDuration/v2_depth_duration_MTurk/v2_DepthDuration_HTML.html#73,73,1280,881,1280,1024,9-3-2022,10-36-53,9,depth_duration_stimuli/002748_2014-06-22_19-07-22_094959634447_rgbf000078-resize_1/002748_2014-06-22_19-07-22_094959634447_rgbf000078-resize_1-target.png,250,4.6705,5,5950,250,feet,jsons/v1_VE250_randls_15.json,855687,1091740,27,Man
9,819331,DepthScenes,duration_manipulation_targetAtFixation,jsons/v1_VE250_randls_15.json,http://54.235.29.9/FacialAge/BNav_EC2/DepthDuration/v2_depth_duration_MTurk/v2_DepthDuration_HTML.html#73,73,1280,881,1280,1024,9-3-2022,10-36-53,10,depth_duration_stimuli/002995_2014-06-15_12-31-26_094959634447_rgbf000150-resize_1/002995_2014-06-15_12-31-26_094959634447_rgbf000150-resize_1-target.png,250,3.8360000000000003,3,3941,250,feet,jsons/v1_VE250_randls_15.json,855687,1091740,27,Man
10,819331,DepthScenes,duration_manipulation_targetAtFixation,jsons/v1_VE250_randls_15.json,http://54.235.29.9/FacialAge/BNav_EC2/DepthDuration/v2_depth_duration_MTurk/v2_DepthDuration_HTML.html#73,73,1280,881,1280,1024,9-3-2022,10-36-53,11,depth_duration_stimuli/000773_2014-06-08_22-24-54_260595134347_rgbf000093-resize_1/000773_2014-06-08_22-24-54_260595134347_rgbf000093-resize_1-target.png,250,4.973,4,5813,249,feet,jsons/v1_VE250_randls_15.json,855687,1091740,27,Man
11,819331,DepthScenes,duration_manipulation_targetAtFixation,jsons/v1_VE250_randls_15.json,http://54.235.29.9/FacialAge/BNav_EC2/DepthDuration/v2_depth_duration_MTurk/v2_DepthDuration_HTML.html#73,73,1280,881,1280,1024,9-3-2022,10-36-53,12,depth_duration_stimuli/002414_2014-06-28_20-24-58_260595134347_rgbf000067-resize_4/002414_2014-06-28_20-24-58_260595134347_rgbf000067-resize_4-target.png,250,4.363,0,3776,250,feet,jsons/v1_VE250_randls_15.json,855687,1091740,27,Man
12,819331,DepthScenes,duration_manipulation_targetAtFixation,jsons/v1_VE250_randls_15.json,http://54.235.29.9/FacialAge/BNav_EC2/DepthDuration/v2_depth_duration_MTurk/v2_DepthDuration_HTML.html#73,73,1280,881,1280,1024,9-3-2022,10-36-53,13,depth_duration_stimuli/000569_2014-06-09_22-51-47_260595134347_rgbf000141-resize_3/000569_2014-06-09_22-51-47_260595134347_rgbf000141-resize-original.jpg,250,4.512,5,7161,250,feet,jsons/v1_VE250_randls_15.json,855687,1091740,27,Man
13,819331,DepthScenes,duration_manipulation_targetAtFixation,jsons/v1_VE250_randls_15.json,http://54.235.29.9/FacialAge/BNav_EC2/DepthDuration/v2_depth_duration_MTurk/v2_DepthDuration_HTML.html#73,73,1280,881,1280,1024,9-3-2022,10-36-53,14,depth_duration_stimuli/002279_2014-06-28_18-55-32_260595134347_rgbf000040-resize_5/002279_2014-06-28_18-55-32_260595134347_rgbf000040-resize_5-target.png,250,1.5043333333333,1,5491,250,feet,jsons/v1_VE250_randls_15.json,855687,1091740,27,Man
14,819331,DepthScenes,duration_manipulation_targetAtFixation,jsons/v1_VE250_randls_15.json,http://54.235.29.9/FacialAge/BNav_EC2/DepthDuration/v2_depth_duration_MTurk/v2_DepthDuration_HTML.html#73,73,1280,881,1280,1024,9-3-2022,10-36-53,15,depth_duration_stimuli/000635_2014-06-08_16-38-42_260595134347_rgbf000106-resize_1/000635_2014-06-08_16-38-42_260595134347_rgbf000106-resize_1-target.png,250,2.074,0,3923,250,feet,jsons/v1_VE250_randls_15.json,855687,1091740,27,Man
15,819331,DepthScenes,duration_manipulation_targetAtFixation,jsons/v1_VE250_randls_15.json,http://54.235.29.9/FacialAge/BNav_EC2/DepthDuration/v2_depth_duration_MTurk/v2_DepthDuration_HTML.html#73,73,1280,881,1280,1024,9-3-2022,10-36-53,16,depth_duration_stimuli/001417_2014-06-19_16-25-36_260595134347_rgbf000115-resize_5/001417_2014-06-19_16-25-36_260595134347_rgbf000115-resize_5-target.png,250,4.6255,2,4206,249,feet,jsons/v1_VE250_randls_15.json,855687,1091740,27,Man
16,819331,DepthScenes,duration_manipulation_targetAtFixation,jsons/v1_VE250_randls_15.json,http://54.235.29.9/FacialAge/BNav_EC2/DepthDuration/v2_depth_duration_MTurk/v2_DepthDuration_HTML.html#73,73,1280,881,1280,1024,9-3-2022,10-36-53,17,depth_duration_stimuli/003081_2014-06-15_15-19-16_094959634447_rgbf000150-resize_1/003081_2014-06-15_15-19-16_094959634447_rgbf000150-resize_1-target.png,250,3.9125,5,5844,251,feet,jsons/v1_VE250_randls_15.json,855687,1091740,27,Man
17,819331,DepthScenes,duration_manipulation_targetAtFixation,jsons/v1_VE250_randls_15.json,http://54.235.29.9/FacialAge/BNav_EC2/DepthDuration/v2_depth_duration_MTurk/v2_DepthDuration_HTML.html#73,73,1280,881,1280,1024,9-3-2022,10-36-53,18,depth_duration_stimuli/003492_2014-05-21_15-50-55_094959634447_rgbf000828-resize_1/003492_2014-05-21_15-50-55_094959634447_rgbf000828-resize_1-target.png,250,4.06875,4,4936,250,feet,jsons/v1_VE250_randls_15.json,855687,1091740,27,Man
18,819331,DepthScenes,duration_manipulation_targetAtFixation,jsons/v1_VE250_randls_15.json,http://54.235.29.9/FacialAge/BNav_EC2/DepthDuration/v2_depth_duration_MTurk/v2_DepthDuration_HTML.html#73,73,1280,881,1280,1024,9-3-2022,10-36-53,19,depth_duration_stimuli/002568_2014-06-24_13-59-21_094959634447_rgbf000062-resize_4/002568_2014-06-24_13-59-21_094959634447_rgbf000062-resize_4-target.png,250,3.015,0,3702,250,feet,jsons/v1_VE250_randls_15.json,855687,1091740,27,Man
19,819331,DepthScenes,duration_manipulation_targetAtFixation,jsons/v1_VE250_randls_15.json,http://54.235.29.9/FacialAge/BNav_EC2/DepthDuration/v2_depth_duration_MTurk/v2_DepthDuration_HTML.html#73,73,1280,881,1280,1024,9-3-2022,10-36-53,20,depth_duration_stimuli/002989_2014-06-15_12-25-03_094959634447_rgbf000150-resize_3/002989_2014-06-15_12-25-03_094959634447_rgbf000150-resize_3-target.png,250,4.1975,3,3891,249,feet,jsons/v1_VE250_randls_15.json,855687,1091740,27,Man
20,819331,DepthScenes,duration_manipulation_targetAtFixation,jsons/v1_VE250_randls_15.json,http://54.235.29.9/FacialAge/BNav_EC2/DepthDuration/v2_depth_duration_MTurk/v2_DepthDuration_HTML.html#73,73,1280,881,1280,1024,9-3-2022,10-36-53,21,depth_duration_stimuli/000866_2014-06-09_20-45-42_260595134347_rgbf000139-resize_1/000866_2014-06-09_20-45-42_260595134347_rgbf000139-resize_1-target.png,250,3.2155,0,4003,250,feet,jsons/v1_VE250_randls_15.json,855687,1091740,27,Man
21,819331,DepthScenes,duration_manipulation_targetAtFixation,jsons/v1_VE250_randls_15.json,http://54.235.29.9/FacialAge/BNav_EC2/DepthDuration/v2_depth_duration_MTurk/v2_DepthDuration_HTML.html#73,73,1280,881,1280,1024,9-3-2022,10-36-53,22,depth_duration_stimuli/001810_2014-06-26_20-51-35_260595134347_rgbf000040-resize_3/001810_2014-06-26_20-51-35_260595134347_rgbf000040-resize_3-target.png,250,2.2525,3,4003,250,feet,jsons/v1_VE250_randls_15.json,855687,1091740,27,Man
22,819331,DepthScenes,duration_manipulation_targetAtFixation,jsons/v1_VE250_randls_15.json,http://54.235.29.9/FacialAge/BNav_EC2/DepthDuration/v2_depth_duration_MTurk/v2_DepthDuration_HTML.html#73,73,1280,881,1280,1024,9-3-2022,10-36-53,23,depth_duration_stimuli/003010_2014-06-15_12-54-35_094959634447_rgbf000112-resize_0/003010_2014-06-15_12-54-35_094959634447_rgbf000112-resize_0-target.png,250,3.1185,5,4363,250,feet,jsons/v1_VE250_randls_15.json,855687,1091740,27,Man
23,819331,DepthScenes,duration_manipulation_targetAtFixation,jsons/v1_VE250_randls_15.json,http://54.235.29.9/FacialAge/BNav_EC2/DepthDuration/v2_depth_duration_MTurk/v2_DepthDuration_HTML.html#73,73,1280,881,1280,1024,9-3-2022,10-36-53,24,depth_duration_stimuli/000486_2014-06-09_20-47-20_260595134347_rgbf000143-resize_2/000486_2014-06-09_20-47-20_260595134347_rgbf000143-resize_2-target.png,250,4.8325,3,4167,249,feet,jsons/v1_VE250_randls_15.json,855687,1091740,27,Man
24,819331,DepthScenes,duration_manipulation_targetAtFixation,jsons/v1_VE250_randls_15.json,http://54.235.29.9/FacialAge/BNav_EC2/DepthDuration/v2_depth_duration_MTurk/v2_DepthDuration_HTML.html#73,73,1280,881,1280,1024,9-3-2022,10-36-53,25,depth_duration_stimuli/003083_2014-06-15_15-21-03_094959634447_rgbf000063-resize_1/003083_2014-06-15_15-21-03_094959634447_rgbf000063-resize_1-target.png,250,4.1405,0,3773,251,feet,jsons/v1_VE250_randls_15.json,855687,1091740,27,Man
25,819331,DepthScenes,duration_manipulation_targetAtFixation,jsons/v1_VE250_randls_15.json,http://54.235.29.9/FacialAge/BNav_EC2/DepthDuration/v2_depth_duration_MTurk/v2_DepthDuration_HTML.html#73,73,1280,881,1280,1024,9-3-2022,10-36-53,26,depth_duration_stimuli/002375_2014-06-28_20-13-44_260595134347_rgbf000032-resize_1/002375_2014-06-28_20-13-44_260595134347_rgbf000032-resize_1-target.png,250,4.0175,2,3839,249,feet,jsons/v1_VE250_randls_15.json,855687,1091740,27,Man
26,819331,DepthScenes,duration_manipulation_targetAtFixation,jsons/v1_VE250_randls_15.json,http://54.235.29.9/FacialAge/BNav_EC2/DepthDuration/v2_depth_duration_MTurk/v2_DepthDuration_HTML.html#73,73,1280,881,1280,1024,9-3-2022,10-36-53,27,depth_duration_stimuli/002657_2014-06-13_15-29-54_094959634447_rgbf000150-resize_1/002657_2014-06-13_15-29-54_094959634447_rgbf000150-resize_1-target.png,250,4.919,0,4090,249,feet,jsons/v1_VE250_randls_15.json,855687,1091740,27,Man
27,819331,DepthScenes,duration_manipulation_targetAtFixation,jsons/v1_VE250_randls_15.json,http://54.235.29.9/FacialAge/BNav_EC2/DepthDuration/v2_depth_duration_MTurk/v2_DepthDuration_HTML.html#73,73,1280,881,1280,1024,9-3-2022,10-36-53,28,depth_duration_stimuli/001199_2014-06-17_16-03-48_260595134347_rgbf000077-resize_0/001199_2014-06-17_16-03-48_260595134347_rgbf000077-resize_0-target.png,250,3.4375,3,4481,250,feet,jsons/v1_VE250_randls_15.json,855687,1091740,27,Man
28,819331,DepthScenes,duration_manipulation_targetAtFixation,jsons/v1_VE250_randls_15.json,http://54.235.29.9/FacialAge/BNav_EC2/DepthDuration/v2_depth_duration_MTurk/v2_DepthDuration_HTML.html#73,73,1280,881,1280,1024,9-3-2022,10-36-53,29,depth_duration_stimuli/000502_2014-06-08_23-02-32_260595134347_rgbf000063-resize_4/000502_2014-06-08_23-02-32_260595134347_rgbf000063-resize_4-target.png,250,2.431,0,3843,250,feet,jsons/v1_VE250_randls_15.json,855687,1091740,27,Man
29,819331,DepthScenes,duration_manipulation_targetAtFixation,jsons/v1_VE250_randls_15.json,http://54.235.29.9/FacialAge/BNav_EC2/DepthDuration/v2_depth_duration_MTurk/v2_DepthDuration_HTML.html#73,73,1280,881,1280,1024,9-3-2022,10-36-53,30,depth_duration_stimuli/000375_2014-06-08_11-17-29_260595134347_rgbf000133-resize_2/000375_2014-06-08_11-17-29_260595134347_rgbf000133-resize-original.jpg,250,4.718,4,8102,250,feet,jsons/v1_VE250_randls_15.json,855687,1091740,27,Man
30,819331,DepthScenes,duration_manipulation_targetAtFixation,jsons/v1_VE250_randls_15.json,http://54.235.29.9/FacialAge/BNav_EC2/DepthDuration/v2_depth_duration_MTurk/v2_DepthDuration_HTML.html#73,73,1280,881,1280,1024,9-3-2022,10-36-53,31,depth_duration_stimuli/001066_2014-06-08_22-03-20_260595134347_rgbf000066-resize_4/001066_2014-06-08_22-03-20_260595134347_rgbf000066-resize_4-target.png,250,4.2330000000000005,3,5811,249,feet,jsons/v1_VE250_randls_15.json,855687,1091740,27,Man
31,819331,DepthScenes,duration_manipulation_targetAtFixation,jsons/v1_VE250_randls_15.json,http://54.235.29.9/FacialAge/BNav_EC2/DepthDuration/v2_depth_duration_MTurk/v2_DepthDuration_HTML.html#73,73,1280,881,1280,1024,9-3-2022,10-36-53,32,depth_duration_stimuli/000742_2014-06-08_18-48-09_260595134347_rgbf000164-resize_4/000742_2014-06-08_18-48-09_260595134347_rgbf000164-resize_4-target.png,250,4.632,0,3906,249,feet,jsons/v1_VE250_randls_15.json,855687,1091740,27,Man
32,819331,DepthScenes,duration_manipulation_targetAtFixation,jsons/v1_VE250_randls_15.json,http://54.235.29.9/FacialAge/BNav_EC2/DepthDuration/v2_depth_duration_MTurk/v2_DepthDuration_HTML.html#73,73,1280,881,1280,1024,9-3-2022,10-36-53,33,depth_duration_stimuli/001806_2014-06-26_20-50-20_260595134347_rgbf000091-resize_1/001806_2014-06-26_20-50-20_260595134347_rgbf000091-resize_1-target.png,250,2.7305,2,4392,249,feet,jsons/v1_VE250_randls_15.json,855687,1091740,27,Man
33,819331,DepthScenes,duration_manipulation_targetAtFixation,jsons/v1_VE250_randls_15.json,http://54.235.29.9/FacialAge/BNav_EC2/DepthDuration/v2_depth_duration_MTurk/v2_DepthDuration_HTML.html#73,73,1280,881,1280,1024,9-3-2022,10-36-53,34,depth_duration_stimuli/001617_2014-06-20_11-35-32_260595134347_rgbf000066-resize_1/001617_2014-06-20_11-35-32_260595134347_rgbf000066-resize_1-target.png,250,3.7910000000000004,3,3612,251,feet,jsons/v1_VE250_randls_15.json,855687,1091740,27,Man
34,819331,DepthScenes,duration_manipulation_targetAtFixation,jsons/v1_VE250_randls_15.json,http://54.235.29.9/FacialAge/BNav_EC2/DepthDuration/v2_depth_duration_MTurk/v2_DepthDuration_HTML.html#73,73,1280,881,1280,1024,9-3-2022,10-36-53,35,depth_duration_stimuli/002763_2014-06-22_19-13-10_094959634447_rgbf000075-resize_4/002763_2014-06-22_19-13-10_094959634447_rgbf000075-resize_4-target.png,250,1.68375,2,3547,250,feet,jsons/v1_VE250_randls_15.json,855687,1091740,27,Man
35,819331,DepthScenes,duration_manipulation_targetAtFixation,jsons/v1_VE250_randls_15.json,http://54.235.29.9/FacialAge/BNav_EC2/DepthDuration/v2_depth_duration_MTurk/v2_DepthDuration_HTML.html#73,73,1280,881,1280,1024,9-3-2022,10-36-53,36,depth_duration_stimuli/002209_2014-06-28_18-36-10_260595134347_rgbf000051-resize_1/002209_2014-06-28_18-36-10_260595134347_rgbf000051-resize_1-target.png,250,2.057,0,3678,250,feet,jsons/v1_VE250_randls_15.json,855687,1091740,27,Man
36,819331,DepthScenes,duration_manipulation_targetAtFixation,jsons/v1_VE250_randls_15.json,http://54.235.29.9/FacialAge/BNav_EC2/DepthDuration/v2_depth_duration_MTurk/v2_DepthDuration_HTML.html#73,73,1280,881,1280,1024,9-3-2022,10-36-53,37,depth_duration_stimuli/002905_2014-06-03_18-04-43_094959634447_rgbf000151-resize_2/002905_2014-06-03_18-04-43_094959634447_rgbf000151-resize_2-target.png,250,2.0295,2,4889,250,feet,jsons/v1_VE250_randls_15.json,855687,1091740,27,Man
37,819331,DepthScenes,duration_manipulation_targetAtFixation,jsons/v1_VE250_randls_15.json,http://54.235.29.9/FacialAge/BNav_EC2/DepthDuration/v2_depth_duration_MTurk/v2_DepthDuration_HTML.html#73,73,1280,881,1280,1024,9-3-2022,10-36-53,38,depth_duration_stimuli/003423_2014-05-21_10-23-26_094959634447_rgbf002665-resize_2/003423_2014-05-21_10-23-26_094959634447_rgbf002665-resize_2-target.png,250,3.2575,0,4102,250,feet,jsons/v1_VE250_randls_15.json,855687,1091740,27,Man
38,819331,DepthScenes,duration_manipulation_targetAtFixation,jsons/v1_VE250_randls_15.json,http://54.235.29.9/FacialAge/BNav_EC2/DepthDuration/v2_depth_duration_MTurk/v2_DepthDuration_HTML.html#73,73,1280,881,1280,1024,9-3-2022,10-36-53,39,depth_duration_stimuli/001011_2014-06-08_23-18-54_260595134347_rgbf000044-resize_4/001011_2014-06-08_23-18-54_260595134347_rgbf000044-resize_4-target.png,250,2.4730000000000003,3,4525,250,feet,jsons/v1_VE250_randls_15.json,855687,1091740,27,Man
39,819331,DepthScenes,duration_manipulation_targetAtFixation,jsons/v1_VE250_randls_15.json,http://54.235.29.9/FacialAge/BNav_EC2/DepthDuration/v2_depth_duration_MTurk/v2_DepthDuration_HTML.html#73,73,1280,881,1280,1024,9-3-2022,10-36-53,40,depth_duration_stimuli/002875_2014-06-01_15-19-00_094959634447_rgbf000151-resize_1/002875_2014-06-01_15-19-00_094959634447_rgbf000151-resize_1-target.png,250,1.9675,2,5472,251,feet,jsons/v1_VE250_randls_15.json,855687,1091740,27,Man
40,819331,DepthScenes,duration_manipulation_targetAtFixation,jsons/v1_VE250_randls_15.json,http://54.235.29.9/FacialAge/BNav_EC2/DepthDuration/v2_depth_duration_MTurk/v2_DepthDuration_HTML.html#73,73,1280,881,1280,1024,9-3-2022,10-36-53,41,depth_duration_stimuli/000414_2014-06-04_19-49-13_260595134347_rgbf000044-resize_0/000414_2014-06-04_19-49-13_260595134347_rgbf000044-resize_0-target.png,250,4.329,5,6552,251,feet,jsons/v1_VE250_randls_15.json,855687,1091740,27,Man
41,819331,DepthScenes,duration_manipulation_targetAtFixation,jsons/v1_VE250_randls_15.json,http://54.235.29.9/FacialAge/BNav_EC2/DepthDuration/v2_depth_duration_MTurk/v2_DepthDuration_HTML.html#73,73,1280,881,1280,1024,9-3-2022,10-36-53,42,depth_duration_stimuli/003129_2014-05-12_10-48-10_094959634447_rgbf000100-resize_0/003129_2014-05-12_10-48-10_094959634447_rgbf000100-resize_0-target.png,250,4.9305,5,6732,250,feet,jsons/v1_VE250_randls_15.json,855687,1091740,27,Man
42,819331,DepthScenes,duration_manipulation_targetAtFixation,jsons/v1_VE250_randls_15.json,http://54.235.29.9/FacialAge/BNav_EC2/DepthDuration/v2_depth_duration_MTurk/v2_DepthDuration_HTML.html#73,73,1280,881,1280,1024,9-3-2022,10-36-53,43,depth_duration_stimuli/000506_2014-06-08_23-21-00_260595134347_rgbf000070-resize_7/000506_2014-06-08_23-21-00_260595134347_rgbf000070-resize_7-target.png,250,4.0585,3,11786,250,feet,jsons/v1_VE250_randls_15.json,855687,1091740,27,Man
43,819331,DepthScenes,duration_manipulation_targetAtFixation,jsons/v1_VE250_randls_15.json,http://54.235.29.9/FacialAge/BNav_EC2/DepthDuration/v2_depth_duration_MTurk/v2_DepthDuration_HTML.html#73,73,1280,881,1280,1024,9-3-2022,10-36-53,44,depth_duration_stimuli/003079_2014-06-15_15-18-20_094959634447_rgbf000152-resize_8/003079_2014-06-15_15-18-20_094959634447_rgbf000152-resize_8-target.png,250,2.8775,4,5379,249,feet,jsons/v1_VE250_randls_15.json,855687,1091740,27,Man
44,819331,DepthScenes,duration_manipulation_targetAtFixation,jsons/v1_VE250_randls_15.json,http://54.235.29.9/FacialAge/BNav_EC2/DepthDuration/v2_depth_duration_MTurk/v2_DepthDuration_HTML.html#73,73,1280,881,1280,1024,9-3-2022,10-36-53,45,depth_duration_stimuli/000787_2014-06-08_22-33-53_260595134347_rgbf000175-resize_1/000787_2014-06-08_22-33-53_260595134347_rgbf000175-resize-original.jpg,250,4.784,3,7115,251,feet,jsons/v1_VE250_randls_15.json,855687,1091740,27,Man
45,819331,DepthScenes,duration_manipulation_targetAtFixation,jsons/v1_VE250_randls_15.json,http://54.235.29.9/FacialAge/BNav_EC2/DepthDuration/v2_depth_duration_MTurk/v2_DepthDuration_HTML.html#73,73,1280,881,1280,1024,9-3-2022,10-36-53,46,depth_duration_stimuli/001016_2014-06-09_16-16-10_260595134347_rgbf000112-resize_5/001016_2014-06-09_16-16-10_260595134347_rgbf000112-resize_5-target.png,250,1.6565,2,5154,249,feet,jsons/v1_VE250_randls_15.json,855687,1091740,27,Man
46,819331,DepthScenes,duration_manipulation_targetAtFixation,jsons/v1_VE250_randls_15.json,http://54.235.29.9/FacialAge/BNav_EC2/DepthDuration/v2_depth_duration_MTurk/v2_DepthDuration_HTML.html#73,73,1280,881,1280,1024,9-3-2022,10-36-53,47,depth_duration_stimuli/002340_2014-06-28_20-05-46_260595134347_rgbf000113-resize_0/002340_2014-06-28_20-05-46_260595134347_rgbf000113-resize_0-target.png,250,2.4735,2,4716,250,feet,jsons/v1_VE250_randls_15.json,855687,1091740,27,Man
47,819331,DepthScenes,duration_manipulation_targetAtFixation,jsons/v1_VE250_randls_15.json,http://54.235.29.9/FacialAge/BNav_EC2/DepthDuration/v2_depth_duration_MTurk/v2_DepthDuration_HTML.html#73,73,1280,881,1280,1024,9-3-2022,10-36-53,48,depth_duration_stimuli/000368_2014-06-09_15-53-01_260595134347_rgbf000155-resize_2/000368_2014-06-09_15-53-01_260595134347_rgbf000155-resize_2-target.png,250,2.4859999999999998,2,6074,250,feet,jsons/v1_VE250_randls_15.json,855687,1091740,27,Man
48,819331,DepthScenes,duration_manipulation_targetAtFixation,jsons/v1_VE250_randls_15.json,http://54.235.29.9/FacialAge/BNav_EC2/DepthDuration/v2_depth_duration_MTurk/v2_DepthDuration_HTML.html#73,73,1280,881,1280,1024,9-3-2022,10-36-53,49,depth_duration_stimuli/002678_2014-06-13_16-15-32_094959634447_rgbf000151-resize_6/002678_2014-06-13_16-15-32_094959634447_rgbf000151-resize_6-target.png,250,2.1830000000000003,3,4355,251,feet,jsons/v1_VE250_randls_15.json,855687,1091740,27,Man
49,819331,DepthScenes,duration_manipulation_targetAtFixation,jsons/v1_VE250_randls_15.json,http://54.235.29.9/FacialAge/BNav_EC2/DepthDuration/v2_depth_duration_MTurk/v2_DepthDuration_HTML.html#73,73,1280,881,1280,1024,9-3-2022,10-36-53,50,depth_duration_stimuli/000917_2014-06-09_22-45-29_260595134347_rgbf000149-resize_3/000917_2014-06-09_22-45-29_260595134347_rgbf000149-resize_3-target.png,250,4.1865,3,5514,251,feet,jsons/v1_VE250_randls_15.json,855687,1091740,27,Man
50,819331,DepthScenes,duration_manipulation_targetAtFixation,jsons/v1_VE250_randls_15.json,http://54.235.29.9/FacialAge/BNav_EC2/DepthDuration/v2_depth_duration_MTurk/v2_DepthDuration_HTML.html#73,73,1280,881,1280,1024,9-3-2022,10-36-53,51,depth_duration_stimuli/002323_2014-06-28_20-01-54_260595134347_rgbf000051-resize_4/002323_2014-06-28_20-01-54_260595134347_rgbf000051-resize_4-target.png,250,3.7310000000000003,2,3926,250,feet,jsons/v1_VE250_randls_15.json,855687,1091740,27,Man
51,819331,DepthScenes,duration_manipulation_targetAtFixation,jsons/v1_VE250_randls_15.json,http://54.235.29.9/FacialAge/BNav_EC2/DepthDuration/v2_depth_duration_MTurk/v2_DepthDuration_HTML.html#73,73,1280,881,1280,1024,9-3-2022,10-36-53,52,depth_duration_stimuli/001150_2014-06-17_15-27-34_260595134347_rgbf000108-resize_2/001150_2014-06-17_15-27-34_260595134347_rgbf000108-resize_2-target.png,250,4.0325,2,5347,250,feet,jsons/v1_VE250_randls_15.json,855687,1091740,27,Man
52,819331,DepthScenes,duration_manipulation_targetAtFixation,jsons/v1_VE250_randls_15.json,http://54.235.29.9/FacialAge/BNav_EC2/DepthDuration/v2_depth_duration_MTurk/v2_DepthDuration_HTML.html#73,73,1280,881,1280,1024,9-3-2022,10-36-53,53,depth_duration_stimuli/000665_2014-06-09_20-42-35_260595134347_rgbf000110-resize_1/000665_2014-06-09_20-42-35_260595134347_rgbf000110-resize_1-target.png,250,3.057,2,5401,249,feet,jsons/v1_VE250_randls_15.json,855687,1091740,27,Man
53,819331,DepthScenes,duration_manipulation_targetAtFixation,jsons/v1_VE250_randls_15.json,http://54.235.29.9/FacialAge/BNav_EC2/DepthDuration/v2_depth_duration_MTurk/v2_DepthDuration_HTML.html#73,73,1280,881,1280,1024,9-3-2022,10-36-53,54,depth_duration_stimuli/001244_2014-06-17_16-47-45_260595134347_rgbf000030-resize_4/001244_2014-06-17_16-47-45_260595134347_rgbf000030-resize_4-target.png,250,2.0425,2,8213,250,feet,jsons/v1_VE250_randls_15.json,855687,1091740,27,Man
54,819331,DepthScenes,duration_manipulation_targetAtFixation,jsons/v1_VE250_randls_15.json,http://54.235.29.9/FacialAge/BNav_EC2/DepthDuration/v2_depth_duration_MTurk/v2_DepthDuration_HTML.html#73,73,1280,881,1280,1024,9-3-2022,10-36-53,55,depth_duration_stimuli/003495_2014-05-21_16-01-51_094959634447_rgbf000100-resize_3/003495_2014-05-21_16-01-51_094959634447_rgbf000100-resize_3-target.png,250,1.6255,1,5058,249,feet,jsons/v1_VE250_randls_15.json,855687,1091740,27,Man
55,819331,DepthScenes,duration_manipulation_targetAtFixation,jsons/v1_VE250_randls_15.json,http://54.235.29.9/FacialAge/BNav_EC2/DepthDuration/v2_depth_duration_MTurk/v2_DepthDuration_HTML.html#73,73,1280,881,1280,1024,9-3-2022,10-36-53,56,depth_duration_stimuli/003534_2014-05-22_15-06-10_094959634447_rgbf000102-resize_4/003534_2014-05-22_15-06-10_094959634447_rgbf000102-resize_4-target.png,250,1.426,1,4620,250,feet,jsons/v1_VE250_randls_15.json,855687,1091740,27,Man
56,819331,DepthScenes,duration_manipulation_targetAtFixation,jsons/v1_VE250_randls_15.json,http://54.235.29.9/FacialAge/BNav_EC2/DepthDuration/v2_depth_duration_MTurk/v2_DepthDuration_HTML.html#73,73,1280,881,1280,1024,9-3-2022,10-36-53,57,depth_duration_stimuli/002637_2014-06-24_14-51-13_094959634447_rgbf000066-resize_4/002637_2014-06-24_14-51-13_094959634447_rgbf000066-resize_4-target.png,250,1.9955,2,3995,249,feet,jsons/v1_VE250_randls_15.json,855687,1091740,27,Man
57,819331,DepthScenes,duration_manipulation_targetAtFixation,jsons/v1_VE250_randls_15.json,http://54.235.29.9/FacialAge/BNav_EC2/DepthDuration/v2_depth_duration_MTurk/v2_DepthDuration_HTML.html#73,73,1280,881,1280,1024,9-3-2022,10-36-53,58,depth_duration_stimuli/003621_2014-05-23_18-06-08_094959634447_rgbf000101-resize_1/003621_2014-05-23_18-06-08_094959634447_rgbf000101-resize_1-target.png,250,3.9835,3,4185,249,feet,jsons/v1_VE250_randls_15.json,855687,1091740,27,Man
58,819331,DepthScenes,duration_manipulation_targetAtFixation,jsons/v1_VE250_randls_15.json,http://54.235.29.9/FacialAge/BNav_EC2/DepthDuration/v2_depth_duration_MTurk/v2_DepthDuration_HTML.html#73,73,1280,881,1280,1024,9-3-2022,10-36-53,59,depth_duration_stimuli/001584_2014-06-20_11-07-43_260595134347_rgbf000002-resize_1/001584_2014-06-20_11-07-43_260595134347_rgbf000002-resize_1-target.png,250,3.53,0,4035,250,feet,jsons/v1_VE250_randls_15.json,855687,1091740,27,Man
59,819331,DepthScenes,duration_manipulation_targetAtFixation,jsons/v1_VE250_randls_15.json,http://54.235.29.9/FacialAge/BNav_EC2/DepthDuration/v2_depth_duration_MTurk/v2_DepthDuration_HTML.html#73,73,1280,881,1280,1024,9-3-2022,10-36-53,60,depth_duration_stimuli/000522_2014-06-08_13-35-06_260595134347_rgbf000244-resize_1/000522_2014-06-08_13-35-06_260595134347_rgbf000244-resize_1-target.png,250,2.3715,1,4573,249,feet,jsons/v1_VE250_randls_15.json,855687,1091740,27,Man
60,819331,DepthScenes,duration_manipulation_targetAtFixation,jsons/v1_VE250_randls_15.json,http://54.235.29.9/FacialAge/BNav_EC2/DepthDuration/v2_depth_duration_MTurk/v2_DepthDuration_HTML.html#73,73,1280,881,1280,1024,9-3-2022,10-36-53,61,depth_duration_stimuli/002949_2014-06-26_15-57-42_094959634447_rgbf000079-resize_1/002949_2014-06-26_15-57-42_094959634447_rgbf000079-resize_1-target.png,250,1.8915,0,3762,249,feet,jsons/v1_VE250_randls_15.json,855687,1091740,27,Man
61,819331,DepthScenes,duration_manipulation_targetAtFixation,jsons/v1_VE250_randls_15.json,http://54.235.29.9/FacialAge/BNav_EC2/DepthDuration/v2_depth_duration_MTurk/v2_DepthDuration_HTML.html#73,73,1280,881,1280,1024,9-3-2022,10-36-53,62,depth_duration_stimuli/001055_2014-06-08_18-45-35_260595134347_rgbf000111-resize_4/001055_2014-06-08_18-45-35_260595134347_rgbf000111-resize_4-target.png,250,2.4290000000000003,3,4440,249,feet,jsons/v1_VE250_randls_15.json,855687,1091740,27,Man
62,819331,DepthScenes,duration_manipulation_targetAtFixation,jsons/v1_VE250_randls_15.json,http://54.235.29.9/FacialAge/BNav_EC2/DepthDuration/v2_depth_duration_MTurk/v2_DepthDuration_HTML.html#73,73,1280,881,1280,1024,9-3-2022,10-36-53,63,depth_duration_stimuli/000549_2014-06-08_22-10-24_260595134347_rgbf000247-resize_3/000549_2014-06-08_22-10-24_260595134347_rgbf000247-resize_3-target.png,250,1.841,1,4435,250,feet,jsons/v1_VE250_randls_15.json,855687,1091740,27,Man
63,819331,DepthScenes,duration_manipulation_targetAtFixation,jsons/v1_VE250_randls_15.json,http://54.235.29.9/FacialAge/BNav_EC2/DepthDuration/v2_depth_duration_MTurk/v2_DepthDuration_HTML.html#73,73,1280,881,1280,1024,9-3-2022,10-36-53,64,depth_duration_stimuli/001808_2014-06-26_20-50-58_260595134347_rgbf000029-resize_1/001808_2014-06-26_20-50-58_260595134347_rgbf000029-resize_1-target.png,250,4.249,4,4549,250,feet,jsons/v1_VE250_randls_15.json,855687,1091740,27,Man
64,819331,DepthScenes,duration_manipulation_targetAtFixation,jsons/v1_VE250_randls_15.json,http://54.235.29.9/FacialAge/BNav_EC2/DepthDuration/v2_depth_duration_MTurk/v2_DepthDuration_HTML.html#73,73,1280,881,1280,1024,9-3-2022,10-36-53,65,depth_duration_stimuli/001815_2014-06-26_20-52-55_260595134347_rgbf000020-resize_0/001815_2014-06-26_20-52-55_260595134347_rgbf000020-resize_0-target.png,250,3.3865,0,3456,248,feet,jsons/v1_VE250_randls_15.json,855687,1091740,27,Man
65,819331,DepthScenes,duration_manipulation_targetAtFixation,jsons/v1_VE250_randls_15.json,http://54.235.29.9/FacialAge/BNav_EC2/DepthDuration/v2_depth_duration_MTurk/v2_DepthDuration_HTML.html#73,73,1280,881,1280,1024,9-3-2022,10-36-53,66,depth_duration_stimuli/001222_2014-06-17_16-24-06_260595134347_rgbf000073-resize_0/001222_2014-06-17_16-24-06_260595134347_rgbf000073-resize-original.jpg,250,1.4385,6,4578,249,feet,jsons/v1_VE250_randls_15.json,855687,1091740,27,Man
66,819331,DepthScenes,duration_manipulation_targetAtFixation,jsons/v1_VE250_randls_15.json,http://54.235.29.9/FacialAge/BNav_EC2/DepthDuration/v2_depth_duration_MTurk/v2_DepthDuration_HTML.html#73,73,1280,881,1280,1024,9-3-2022,10-36-53,67,depth_duration_stimuli/002153_2014-06-25_21-27-18_260595134347_rgbf000038-resize_5/002153_2014-06-25_21-27-18_260595134347_rgbf000038-resize_5-target.png,250,2.505,2,4791,250,feet,jsons/v1_VE250_randls_15.json,855687,1091740,27,Man
67,819331,DepthScenes,duration_manipulation_targetAtFixation,jsons/v1_VE250_randls_15.json,http://54.235.29.9/FacialAge/BNav_EC2/DepthDuration/v2_depth_duration_MTurk/v2_DepthDuration_HTML.html#73,73,1280,881,1280,1024,9-3-2022,10-36-53,68,depth_duration_stimuli/002660_2014-06-13_15-44-18_094959634447_rgbf001878-resize_2/002660_2014-06-13_15-44-18_094959634447_rgbf001878-resize_2-target.png,250,3.576,4,4179,251,feet,jsons/v1_VE250_randls_15.json,855687,1091740,27,Man
68,819331,DepthScenes,duration_manipulation_targetAtFixation,jsons/v1_VE250_randls_15.json,http://54.235.29.9/FacialAge/BNav_EC2/DepthDuration/v2_depth_duration_MTurk/v2_DepthDuration_HTML.html#73,73,1280,881,1280,1024,9-3-2022,10-36-53,69,depth_duration_stimuli/002509_2014-06-24_13-19-22_094959634447_rgbf000077-resize_0/002509_2014-06-24_13-19-22_094959634447_rgbf000077-resize_0-target.png,250,1.3065,1,12063,250,feet,jsons/v1_VE250_randls_15.json,855687,1091740,27,Man
69,819331,DepthScenes,duration_manipulation_targetAtFixation,jsons/v1_VE250_randls_15.json,http://54.235.29.9/FacialAge/BNav_EC2/DepthDuration/v2_depth_duration_MTurk/v2_DepthDuration_HTML.html#73,73,1280,881,1280,1024,9-3-2022,10-36-53,70,depth_duration_stimuli/003338_2014-05-20_11-01-23_094959634447_rgbf000051-resize_6/003338_2014-05-20_11-01-23_094959634447_rgbf000051-resize_6-target.png,250,1.693,0,3915,251,feet,jsons/v1_VE250_randls_15.json,855687,1091740,27,Man
70,819331,DepthScenes,duration_manipulation_targetAtFixation,jsons/v1_VE250_randls_15.json,http://54.235.29.9/FacialAge/BNav_EC2/DepthDuration/v2_depth_duration_MTurk/v2_DepthDuration_HTML.html#73,73,1280,881,1280,1024,9-3-2022,10-36-53,71,depth_duration_stimuli/003070_2014-06-15_14-58-27_094959634447_rgbf000150-resize_3/003070_2014-06-15_14-58-27_094959634447_rgbf000150-resize_3-target.png,250,2.9415,3,43224,251,feet,jsons/v1_VE250_randls_15.json,855687,1091740,27,Man
71,819331,DepthScenes,duration_manipulation_targetAtFixation,jsons/v1_VE250_randls_15.json,http://54.235.29.9/FacialAge/BNav_EC2/DepthDuration/v2_depth_duration_MTurk/v2_DepthDuration_HTML.html#73,73,1280,881,1280,1024,9-3-2022,10-36-53,72,depth_duration_stimuli/000943_2014-06-09_19-31-07_260595134347_rgbf000128-resize_1/000943_2014-06-09_19-31-07_260595134347_rgbf000128-resize_1-target.png,250,1.9765,1,4943,249,feet,jsons/v1_VE250_randls_15.json,855687,1091740,27,Man
72,819331,DepthScenes,duration_manipulation_targetAtFixation,jsons/v1_VE250_randls_15.json,http://54.235.29.9/FacialAge/BNav_EC2/DepthDuration/v2_depth_duration_MTurk/v2_DepthDuration_HTML.html#73,73,1280,881,1280,1024,9-3-2022,10-36-53,73,depth_duration_stimuli/001555_2014-06-20_17-12-10_260595134347_rgbf000065-resize_4/001555_2014-06-20_17-12-10_260595134347_rgbf000065-resize_4-target.png,250,1.633,1,4197,251,feet,jsons/v1_VE250_randls_15.json,855687,1091740,27,Man
73,819331,DepthScenes,duration_manipulation_targetAtFixation,jsons/v1_VE250_randls_15.json,http://54.235.29.9/FacialAge/BNav_EC2/DepthDuration/v2_depth_duration_MTurk/v2_DepthDuration_HTML.html#73,73,1280,881,1280,1024,9-3-2022,10-36-53,74,depth_duration_stimuli/000103_2014-05-14_22-01-17_260595134347_rgbf000152-resize_5/000103_2014-05-14_22-01-17_260595134347_rgbf000152-resize_5-target.png,250,1.993,0,3401,249,feet,jsons/v1_VE250_randls_15.json,855687,1091740,27,Man
74,819331,DepthScenes,duration_manipulation_targetAtFixation,jsons/v1_VE250_randls_15.json,http://54.235.29.9/FacialAge/BNav_EC2/DepthDuration/v2_depth_duration_MTurk/v2_DepthDuration_HTML.html#73,73,1280,881,1280,1024,9-3-2022,10-36-53,75,depth_duration_stimuli/000009_2014-05-26_14-32-05_260595134347_rgbf000034-resize_3/000009_2014-05-26_14-32-05_260595134347_rgbf000034-resize_3-target.png,250,3.8715,2,3713,250,feet,jsons/v1_VE250_randls_15.json,855687,1091740,27,Man
75,819331,DepthScenes,duration_manipulation_targetAtFixation,jsons/v1_VE250_randls_15.json,http://54.235.29.9/FacialAge/BNav_EC2/DepthDuration/v2_depth_duration_MTurk/v2_DepthDuration_HTML.html#73,73,1280,881,1280,1024,9-3-2022,10-36-53,76,depth_duration_stimuli/001828_2014-06-26_21-40-03_260595134347_rgbf000024-resize_0/001828_2014-06-26_21-40-03_260595134347_rgbf000024-resize_0-target.png,250,4.8260000000000005,2,3172,249,feet,jsons/v1_VE250_randls_15.json,855687,1091740,27,Man
76,819331,DepthScenes,duration_manipulation_targetAtFixation,jsons/v1_VE250_randls_15.json,http://54.235.29.9/FacialAge/BNav_EC2/DepthDuration/v2_depth_duration_MTurk/v2_DepthDuration_HTML.html#73,73,1280,881,1280,1024,9-3-2022,10-36-53,77,depth_duration_stimuli/000642_2014-06-08_16-59-25_260595134347_rgbf000098-resize_2/000642_2014-06-08_16-59-25_260595134347_rgbf000098-resize_2-target.png,250,2.8815,2,4302,249,feet,jsons/v1_VE250_randls_15.json,855687,1091740,27,Man
77,819331,DepthScenes,duration_manipulation_targetAtFixation,jsons/v1_VE250_randls_15.json,http://54.235.29.9/FacialAge/BNav_EC2/DepthDuration/v2_depth_duration_MTurk/v2_DepthDuration_HTML.html#73,73,1280,881,1280,1024,9-3-2022,10-36-53,78,depth_duration_stimuli/002425_2014-06-28_20-27-29_260595134347_rgbf000031-resize_8/002425_2014-06-28_20-27-29_260595134347_rgbf000031-resize_8-target.png,250,3.8960000000000004,3,3394,249,feet,jsons/v1_VE250_randls_15.json,855687,1091740,27,Man
78,819331,DepthScenes,duration_manipulation_targetAtFixation,jsons/v1_VE250_randls_15.json,http://54.235.29.9/FacialAge/BNav_EC2/DepthDuration/v2_depth_duration_MTurk/v2_DepthDuration_HTML.html#73,73,1280,881,1280,1024,9-3-2022,10-36-53,79,depth_duration_stimuli/002630_2014-06-24_14-47-50_094959634447_rgbf000055-resize_1/002630_2014-06-24_14-47-50_094959634447_rgbf000055-resize_1-target.png,250,3.0095,3,4655,249,feet,jsons/v1_VE250_randls_15.json,855687,1091740,27,Man
79,819331,DepthScenes,duration_manipulation_targetAtFixation,jsons/v1_VE250_randls_15.json,http://54.235.29.9/FacialAge/BNav_EC2/DepthDuration/v2_depth_duration_MTurk/v2_DepthDuration_HTML.html#73,73,1280,881,1280,1024,9-3-2022,10-36-53,80,depth_duration_stimuli/002758_2014-06-22_19-11-20_094959634447_rgbf000128-resize_1/002758_2014-06-22_19-11-20_094959634447_rgbf000128-resize_1-target.png,250,2.555,1,4653,277,feet,jsons/v1_VE250_randls_15.json,855687,1091740,27,Man
80,819331,DepthScenes,duration_manipulation_targetAtFixation,jsons/v1_VE250_randls_15.json,http://54.235.29.9/FacialAge/BNav_EC2/DepthDuration/v2_depth_duration_MTurk/v2_DepthDuration_HTML.html#73,73,1280,881,1280,1024,9-3-2022,10-36-53,81,depth_duration_stimuli/001158_2014-06-17_15-32-16_260595134347_rgbf000138-resize_2/001158_2014-06-17_15-32-16_260595134347_rgbf000138-resize_2-target.png,250,4.5315,5,3706,251,feet,jsons/v1_VE250_randls_15.json,855687,1091740,27,Man
81,819331,DepthScenes,duration_manipulation_targetAtFixation,jsons/v1_VE250_randls_15.json,http://54.235.29.9/FacialAge/BNav_EC2/DepthDuration/v2_depth_duration_MTurk/v2_DepthDuration_HTML.html#73,73,1280,881,1280,1024,9-3-2022,10-36-53,82,depth_duration_stimuli/000556_2014-06-09_22-42-56_260595134347_rgbf000214-resize_1/000556_2014-06-09_22-42-56_260595134347_rgbf000214-resize_1-target.png,250,4.8415,4,3963,250,feet,jsons/v1_VE250_randls_15.json,855687,1091740,27,Man
82,819331,DepthScenes,duration_manipulation_targetAtFixation,jsons/v1_VE250_randls_15.json,http://54.235.29.9/FacialAge/BNav_EC2/DepthDuration/v2_depth_duration_MTurk/v2_DepthDuration_HTML.html#73,73,1280,881,1280,1024,9-3-2022,10-36-53,83,depth_duration_stimuli/001167_2014-06-17_15-38-07_260595134347_rgbf000108-resize_0/001167_2014-06-17_15-38-07_260595134347_rgbf000108-resize_0-target.png,250,1.8505,1,4427,251,feet,jsons/v1_VE250_randls_15.json,855687,1091740,27,Man
83,819331,DepthScenes,duration_manipulation_targetAtFixation,jsons/v1_VE250_randls_15.json,http://54.235.29.9/FacialAge/BNav_EC2/DepthDuration/v2_depth_duration_MTurk/v2_DepthDuration_HTML.html#73,73,1280,881,1280,1024,9-3-2022,10-36-53,84,depth_duration_stimuli/003587_2014-05-23_16-48-02_094959634447_rgbf002384-resize_2/003587_2014-05-23_16-48-02_094959634447_rgbf002384-resize_2-target.png,250,1.357,1,3330,245,feet,jsons/v1_VE250_randls_15.json,855687,1091740,27,Man
84,819331,DepthScenes,duration_manipulation_targetAtFixation,jsons/v1_VE250_randls_15.json,http://54.235.29.9/FacialAge/BNav_EC2/DepthDuration/v2_depth_duration_MTurk/v2_DepthDuration_HTML.html#73,73,1280,881,1280,1024,9-3-2022,10-36-53,85,depth_duration_stimuli/002725_2014-06-22_11-47-51_094959634447_rgbf000070-resize_1/002725_2014-06-22_11-47-51_094959634447_rgbf000070-resize_1-target.png,250,2.195,2,4603,249,feet,jsons/v1_VE250_randls_15.json,855687,1091740,27,Man
85,819331,DepthScenes,duration_manipulation_targetAtFixation,jsons/v1_VE250_randls_15.json,http://54.235.29.9/FacialAge/BNav_EC2/DepthDuration/v2_depth_duration_MTurk/v2_DepthDuration_HTML.html#73,73,1280,881,1280,1024,9-3-2022,10-36-53,86,depth_duration_stimuli/002344_2014-06-28_20-06-29_260595134347_rgbf000030-resize_1/002344_2014-06-28_20-06-29_260595134347_rgbf000030-resize_1-target.png,250,1.5795,1,4514,250,feet,jsons/v1_VE250_randls_15.json,855687,1091740,27,Man
86,819331,DepthScenes,duration_manipulation_targetAtFixation,jsons/v1_VE250_randls_15.json,http://54.235.29.9/FacialAge/BNav_EC2/DepthDuration/v2_depth_duration_MTurk/v2_DepthDuration_HTML.html#73,73,1280,881,1280,1024,9-3-2022,10-36-53,87,depth_duration_stimuli/000736_2014-06-08_18-24-15_260595134347_rgbf000206-resize_3/000736_2014-06-08_18-24-15_260595134347_rgbf000206-resize_3-target.png,250,3.515,2,4350,251,feet,jsons/v1_VE250_randls_15.json,855687,1091740,27,Man
87,819331,DepthScenes,duration_manipulation_targetAtFixation,jsons/v1_VE250_randls_15.json,http://54.235.29.9/FacialAge/BNav_EC2/DepthDuration/v2_depth_duration_MTurk/v2_DepthDuration_HTML.html#73,73,1280,881,1280,1024,9-3-2022,10-36-53,88,depth_duration_stimuli/000137_2014-05-20_17-04-49_260595134347_rgbf000120-resize_1/000137_2014-05-20_17-04-49_260595134347_rgbf000120-resize_1-target.png,250,3.786,0,4440,250,feet,jsons/v1_VE250_randls_15.json,855687,1091740,27,Man
88,819331,DepthScenes,duration_manipulation_targetAtFixation,jsons/v1_VE250_randls_15.json,http://54.235.29.9/FacialAge/BNav_EC2/DepthDuration/v2_depth_duration_MTurk/v2_DepthDuration_HTML.html#73,73,1280,881,1280,1024,9-3-2022,10-36-53,89,depth_duration_stimuli/000436_2014-06-09_22-25-11_260595134347_rgbf000137-resize_1/000436_2014-06-09_22-25-11_260595134347_rgbf000137-resize_1-target.png,250,4.0705,5,4146,249,feet,jsons/v1_VE250_randls_15.json,855687,1091740,27,Man
89,819331,DepthScenes,duration_manipulation_targetAtFixation,jsons/v1_VE250_randls_15.json,http://54.235.29.9/FacialAge/BNav_EC2/DepthDuration/v2_depth_duration_MTurk/v2_DepthDuration_HTML.html#73,73,1280,881,1280,1024,9-3-2022,10-36-53,90,depth_duration_stimuli/002444_2014-06-28_20-32-08_260595134347_rgbf000027-resize_0/002444_2014-06-28_20-32-08_260595134347_rgbf000027-resize_0-target.png,250,4.388999999999999,6,5099,251,feet,jsons/v1_VE250_randls_15.json,855687,1091740,27,Man
90,819331,DepthScenes,duration_manipulation_targetAtFixation,jsons/v1_VE250_randls_15.json,http://54.235.29.9/FacialAge/BNav_EC2/DepthDuration/v2_depth_duration_MTurk/v2_DepthDuration_HTML.html#73,73,1280,881,1280,1024,9-3-2022,10-36-53,91,depth_duration_stimuli/002600_2014-06-24_14-27-04_094959634447_rgbf000074-resize_2/002600_2014-06-24_14-27-04_094959634447_rgbf000074-resize_2-target.png,250,2.7575,4,4375,251,feet,jsons/v1_VE250_randls_15.json,855687,1091740,27,Man
91,819331,DepthScenes,duration_manipulation_targetAtFixation,jsons/v1_VE250_randls_15.json,http://54.235.29.9/FacialAge/BNav_EC2/DepthDuration/v2_depth_duration_MTurk/v2_DepthDuration_HTML.html#73,73,1280,881,1280,1024,9-3-2022,10-36-53,92,depth_duration_stimuli/003228_2014-05-14_13-42-35_094959634447_rgbf000101-resize_1/003228_2014-05-14_13-42-35_094959634447_rgbf000101-resize_1-target.png,250,1.9680000000000002,3,3569,251,feet,jsons/v1_VE250_randls_15.json,855687,1091740,27,Man
92,819331,DepthScenes,duration_manipulation_targetAtFixation,jsons/v1_VE250_randls_15.json,http://54.235.29.9/FacialAge/BNav_EC2/DepthDuration/v2_depth_duration_MTurk/v2_DepthDuration_HTML.html#73,73,1280,881,1280,1024,9-3-2022,10-36-53,93,depth_duration_stimuli/000682_2014-06-08_23-14-58_260595134347_rgbf000041-resize_5/000682_2014-06-08_23-14-58_260595134347_rgbf000041-resize_5-target.png,250,2.7239999999999998,4,3844,250,feet,jsons/v1_VE250_randls_15.json,855687,1091740,27,Man
93,819331,DepthScenes,duration_manipulation_targetAtFixation,jsons/v1_VE250_randls_15.json,http://54.235.29.9/FacialAge/BNav_EC2/DepthDuration/v2_depth_duration_MTurk/v2_DepthDuration_HTML.html#73,73,1280,881,1280,1024,9-3-2022,10-36-53,94,depth_duration_stimuli/001650_2014-06-20_12-09-00_260595134347_rgbf000087-resize_3/001650_2014-06-20_12-09-00_260595134347_rgbf000087-resize_3-target.png,250,1.9505,2,3877,251,feet,jsons/v1_VE250_randls_15.json,855687,1091740,27,Man
94,819331,DepthScenes,duration_manipulation_targetAtFixation,jsons/v1_VE250_randls_15.json,http://54.235.29.9/FacialAge/BNav_EC2/DepthDuration/v2_depth_duration_MTurk/v2_DepthDuration_HTML.html#73,73,1280,881,1280,1024,9-3-2022,10-36-53,95,depth_duration_stimuli/002445_2014-06-28_20-32-16_260595134347_rgbf000029-resize_4/002445_2014-06-28_20-32-16_260595134347_rgbf000029-resize_4-target.png,250,2.5315,1,4824,251,feet,jsons/v1_VE250_randls_15.json,855687,1091740,27,Man
95,819331,DepthScenes,duration_manipulation_targetAtFixation,jsons/v1_VE250_randls_15.json,http://54.235.29.9/FacialAge/BNav_EC2/DepthDuration/v2_depth_duration_MTurk/v2_DepthDuration_HTML.html#73,73,1280,881,1280,1024,9-3-2022,10-36-53,96,depth_duration_stimuli/000780_2014-06-08_22-28-29_260595134347_rgbf000126-resize_1/000780_2014-06-08_22-28-29_260595134347_rgbf000126-resize_1-target.png,250,3.3825,2,3421,251,feet,jsons/v1_VE250_randls_15.json,855687,1091740,27,Man
96,819331,DepthScenes,duration_manipulation_targetAtFixation,jsons/v1_VE250_randls_15.json,http://54.235.29.9/FacialAge/BNav_EC2/DepthDuration/v2_depth_duration_MTurk/v2_DepthDuration_HTML.html#73,73,1280,881,1280,1024,9-3-2022,10-36-53,97,depth_duration_stimuli/000788_2014-06-08_22-34-36_260595134347_rgbf000131-resize_1/000788_2014-06-08_22-34-36_260595134347_rgbf000131-resize_1-target.png,250,3.359,3,3526,251,feet,jsons/v1_VE250_randls_15.json,855687,1091740,27,Man
97,819331,DepthScenes,duration_manipulation_targetAtFixation,jsons/v1_VE250_randls_15.json,http://54.235.29.9/FacialAge/BNav_EC2/DepthDuration/v2_depth_duration_MTurk/v2_DepthDuration_HTML.html#73,73,1280,881,1280,1024,9-3-2022,10-36-53,98,depth_duration_stimuli/001235_2014-06-17_16-37-36_260595134347_rgbf000084-resize_4/001235_2014-06-17_16-37-36_260595134347_rgbf000084-resize_4-target.png,250,3.6605,0,3561,251,feet,jsons/v1_VE250_randls_15.json,855687,1091740,27,Man
98,819331,DepthScenes,duration_manipulation_targetAtFixation,jsons/v1_VE250_randls_15.json,http://54.235.29.9/FacialAge/BNav_EC2/DepthDuration/v2_depth_duration_MTurk/v2_DepthDuration_HTML.html#73,73,1280,881,1280,1024,9-3-2022,10-36-53,99,depth_duration_stimuli/001540_2014-06-20_17-01-05_260595134347_rgbf000086-resize_2/001540_2014-06-20_17-01-05_260595134347_rgbf000086-resize-original.jpg,250,1.459,5,4141,250,feet,jsons/v1_VE250_randls_15.json,855687,1091740,27,Man
99,819331,DepthScenes,duration_manipulation_targetAtFixation,jsons/v1_VE250_randls_15.json,http://54.235.29.9/FacialAge/BNav_EC2/DepthDuration/v2_depth_duration_MTurk/v2_DepthDuration_HTML.html#73,73,1280,881,1280,1024,9-3-2022,10-36-53,100,depth_duration_stimuli/000692_2014-06-08_13-09-42_260595134347_rgbf000199-resize_2/000692_2014-06-08_13-09-42_260595134347_rgbf000199-resize_2-target.png,250,3.661,4,4099,251,feet,jsons/v1_VE250_randls_15.json,855687,1091740,27,Man
100,819331,DepthScenes,duration_manipulation_targetAtFixation,jsons/v1_VE250_randls_15.json,http://54.235.29.9/FacialAge/BNav_EC2/DepthDuration/v2_depth_duration_MTurk/v2_DepthDuration_HTML.html#73,73,1280,881,1280,1024,9-3-2022,10-36-53,101,depth_duration_stimuli/001094_2014-06-15_17-36-00_260595134347_rgbf000205-resize_0/001094_2014-06-15_17-36-00_260595134347_rgbf000205-resize_0-target.png,250,4.2175,5,3849,250,feet,jsons/v1_VE250_randls_15.json,855687,1091740,27,Man
101,819331,DepthScenes,duration_manipulation_targetAtFixation,jsons/v1_VE250_randls_15.json,http://54.235.29.9/FacialAge/BNav_EC2/DepthDuration/v2_depth_duration_MTurk/v2_DepthDuration_HTML.html#73,73,1280,881,1280,1024,9-3-2022,10-36-53,102,depth_duration_stimuli/000810_2014-06-08_17-20-01_260595134347_rgbf000105-resize_0/000810_2014-06-08_17-20-01_260595134347_rgbf000105-resize_0-target.png,250,1.4865,3,4477,249,feet,jsons/v1_VE250_randls_15.json,855687,1091740,27,Man
102,819331,DepthScenes,duration_manipulation_targetAtFixation,jsons/v1_VE250_randls_15.json,http://54.235.29.9/FacialAge/BNav_EC2/DepthDuration/v2_depth_duration_MTurk/v2_DepthDuration_HTML.html#73,73,1280,881,1280,1024,9-3-2022,10-36-53,103,depth_duration_stimuli/001214_2014-06-17_16-13-55_260595134347_rgbf000111-resize_0/001214_2014-06-17_16-13-55_260595134347_rgbf000111-resize_0-target.png,250,2.6505,2,3682,250,feet,jsons/v1_VE250_randls_15.json,855687,1091740,27,Man
103,819331,DepthScenes,duration_manipulation_targetAtFixation,jsons/v1_VE250_randls_15.json,http://54.235.29.9/FacialAge/BNav_EC2/DepthDuration/v2_depth_duration_MTurk/v2_DepthDuration_HTML.html#73,73,1280,881,1280,1024,9-3-2022,10-36-53,104,depth_duration_stimuli/003292_2014-05-14_21-53-49_094959634447_rgbf000100-resize_2/003292_2014-05-14_21-53-49_094959634447_rgbf000100-resize_2-target.png,250,3.4815,2,3451,250,feet,jsons/v1_VE250_randls_15.json,855687,1091740,27,Man
104,819331,DepthScenes,duration_manipulation_targetAtFixation,jsons/v1_VE250_randls_15.json,http://54.235.29.9/FacialAge/BNav_EC2/DepthDuration/v2_depth_duration_MTurk/v2_DepthDuration_HTML.html#73,73,1280,881,1280,1024,9-3-2022,10-36-53,105,depth_duration_stimuli/002639_2014-06-24_14-51-37_094959634447_rgbf000074-resize_4/002639_2014-06-24_14-51-37_094959634447_rgbf000074-resize_4-target.png,250,4.0375,0,4843,250,feet,jsons/v1_VE250_randls_15.json,855687,1091740,27,Man
105,819331,DepthScenes,duration_manipulation_targetAtFixation,jsons/v1_VE250_randls_15.json,http://54.235.29.9/FacialAge/BNav_EC2/DepthDuration/v2_depth_duration_MTurk/v2_DepthDuration_HTML.html#73,73,1280,881,1280,1024,9-3-2022,10-36-53,106,depth_duration_stimuli/002118_2014-06-25_20-32-08_260595134347_rgbf000078-resize_1/002118_2014-06-25_20-32-08_260595134347_rgbf000078-resize_1-target.png,250,2.6460000000000004,3,5003,253,feet,jsons/v1_VE250_randls_15.json,855687,1091740,27,Man
106,819331,DepthScenes,duration_manipulation_targetAtFixation,jsons/v1_VE250_randls_15.json,http://54.235.29.9/FacialAge/BNav_EC2/DepthDuration/v2_depth_duration_MTurk/v2_DepthDuration_HTML.html#73,73,1280,881,1280,1024,9-3-2022,10-36-53,107,depth_duration_stimuli/001516_2014-06-20_16-25-09_260595134347_rgbf000076-resize_2/001516_2014-06-20_16-25-09_260595134347_rgbf000076-resize_2-target.png,250,1.7445,2,4240,251,feet,jsons/v1_VE250_randls_15.json,855687,1091740,27,Man
107,819331,DepthScenes,duration_manipulation_targetAtFixation,jsons/v1_VE250_randls_15.json,http://54.235.29.9/FacialAge/BNav_EC2/DepthDuration/v2_depth_duration_MTurk/v2_DepthDuration_HTML.html#73,73,1280,881,1280,1024,9-3-2022,10-36-53,108,depth_duration_stimuli/000469_2014-06-09_19-42-10_260595134347_rgbf000081-resize_1/000469_2014-06-09_19-42-10_260595134347_rgbf000081-resize_1-target.png,250,1.652,1,4189,250,feet,jsons/v1_VE250_randls_15.json,855687,1091740,27,Man
108,819331,DepthScenes,duration_manipulation_targetAtFixation,jsons/v1_VE250_randls_15.json,http://54.235.29.9/FacialAge/BNav_EC2/DepthDuration/v2_depth_duration_MTurk/v2_DepthDuration_HTML.html#73,73,1280,881,1280,1024,9-3-2022,10-36-53,109,depth_duration_stimuli/000483_2014-06-09_20-41-45_260595134347_rgbf000116-resize_4/000483_2014-06-09_20-41-45_260595134347_rgbf000116-resize_4-target.png,250,1.337,0,5479,250,feet,jsons/v1_VE250_randls_15.json,855687,1091740,27,Man
109,819331,DepthScenes,duration_manipulation_targetAtFixation,jsons/v1_VE250_randls_15.json,http://54.235.29.9/FacialAge/BNav_EC2/DepthDuration/v2_depth_duration_MTurk/v2_DepthDuration_HTML.html#73,73,1280,881,1280,1024,9-3-2022,10-36-53,110,depth_duration_stimuli/001056_2014-06-08_18-46-44_260595134347_rgbf000068-resize_0/001056_2014-06-08_18-46-44_260595134347_rgbf000068-resize_0-target.png,250,2.6625,3,4184,249,feet,jsons/v1_VE250_randls_15.json,855687,1091740,27,Man
110,819331,DepthScenes,duration_manipulation_targetAtFixation,jsons/v1_VE250_randls_15.json,http://54.235.29.9/FacialAge/BNav_EC2/DepthDuration/v2_depth_duration_MTurk/v2_DepthDuration_HTML.html#73,73,1280,881,1280,1024,9-3-2022,10-36-53,111,depth_duration_stimuli/002199_2014-06-28_18-33-56_260595134347_rgbf000074-resize_0/002199_2014-06-28_18-33-56_260595134347_rgbf000074-resize_0-target.png,250,1.996,0,4131,251,feet,jsons/v1_VE250_randls_15.json,855687,1091740,27,Man
111,819331,DepthScenes,duration_manipulation_targetAtFixation,jsons/v1_VE250_randls_15.json,http://54.235.29.9/FacialAge/BNav_EC2/DepthDuration/v2_depth_duration_MTurk/v2_DepthDuration_HTML.html#73,73,1280,881,1280,1024,9-3-2022,10-36-53,112,depth_duration_stimuli/000470_2014-06-09_19-42-40_260595134347_rgbf000094-resize_1/000470_2014-06-09_19-42-40_260595134347_rgbf000094-resize_1-target.png,250,1.831,1,3878,250,feet,jsons/v1_VE250_randls_15.json,855687,1091740,27,Man
112,819331,DepthScenes,duration_manipulation_targetAtFixation,jsons/v1_VE250_randls_15.json,http://54.235.29.9/FacialAge/BNav_EC2/DepthDuration/v2_depth_duration_MTurk/v2_DepthDuration_HTML.html#73,73,1280,881,1280,1024,9-3-2022,10-36-53,113,depth_duration_stimuli/000109_2014-05-14_23-41-52_260595134347_rgbf000035-resize_9/000109_2014-05-14_23-41-52_260595134347_rgbf000035-resize_9-target.png,250,1.3545,2,3955,251,feet,jsons/v1_VE250_randls_15.json,855687,1091740,27,Man
113,819331,DepthScenes,duration_manipulation_targetAtFixation,jsons/v1_VE250_randls_15.json,http://54.235.29.9/FacialAge/BNav_EC2/DepthDuration/v2_depth_duration_MTurk/v2_DepthDuration_HTML.html#73,73,1280,881,1280,1024,9-3-2022,10-36-53,114,depth_duration_stimuli/001059_2014-06-08_21-53-27_260595134347_rgbf000061-resize_4/001059_2014-06-08_21-53-27_260595134347_rgbf000061-resize_4-target.png,250,2.4185,3,4284,250,feet,jsons/v1_VE250_randls_15.json,855687,1091740,27,Man
114,819331,DepthScenes,duration_manipulation_targetAtFixation,jsons/v1_VE250_randls_15.json,http://54.235.29.9/FacialAge/BNav_EC2/DepthDuration/v2_depth_duration_MTurk/v2_DepthDuration_HTML.html#73,73,1280,881,1280,1024,9-3-2022,10-36-53,115,depth_duration_stimuli/001032_2014-06-08_13-23-17_260595134347_rgbf000021-resize_3/001032_2014-06-08_13-23-17_260595134347_rgbf000021-resize_3-target.png,250,3.2725,0,4256,249,feet,jsons/v1_VE250_randls_15.json,855687,1091740,27,Man
115,819331,DepthScenes,duration_manipulation_targetAtFixation,jsons/v1_VE250_randls_15.json,http://54.235.29.9/FacialAge/BNav_EC2/DepthDuration/v2_depth_duration_MTurk/v2_DepthDuration_HTML.html#73,73,1280,881,1280,1024,9-3-2022,10-36-53,116,depth_duration_stimuli/001170_2014-06-17_15-43-44_260595134347_rgbf000096-resize_6/001170_2014-06-17_15-43-44_260595134347_rgbf000096-resize-original.jpg,250,1.1909999999999998,2,4870,251,feet,jsons/v1_VE250_randls_15.json,855687,1091740,27,Man
116,819331,DepthScenes,duration_manipulation_targetAtFixation,jsons/v1_VE250_randls_15.json,http://54.235.29.9/FacialAge/BNav_EC2/DepthDuration/v2_depth_duration_MTurk/v2_DepthDuration_HTML.html#73,73,1280,881,1280,1024,9-3-2022,10-36-53,117,depth_duration_stimuli/002549_2014-06-24_13-41-39_094959634447_rgbf000022-resize_3/002549_2014-06-24_13-41-39_094959634447_rgbf000022-resize_3-target.png,250,1.476,2,4690,249,feet,jsons/v1_VE250_randls_15.json,855687,1091740,27,Man
117,819331,DepthScenes,duration_manipulation_targetAtFixation,jsons/v1_VE250_randls_15.json,http://54.235.29.9/FacialAge/BNav_EC2/DepthDuration/v2_depth_duration_MTurk/v2_DepthDuration_HTML.html#73,73,1280,881,1280,1024,9-3-2022,10-36-53,118,depth_duration_stimuli/002750_2014-06-22_19-08-03_094959634447_rgbf000094-resize_4/002750_2014-06-22_19-08-03_094959634447_rgbf000094-resize_4-target.png,250,2.354,0,3394,249,feet,jsons/v1_VE250_randls_15.json,855687,1091740,27,Man
118,819331,DepthScenes,duration_manipulation_targetAtFixation,jsons/v1_VE250_randls_15.json,http://54.235.29.9/FacialAge/BNav_EC2/DepthDuration/v2_depth_duration_MTurk/v2_DepthDuration_HTML.html#73,73,1280,881,1280,1024,9-3-2022,10-36-53,119,depth_duration_stimuli/001092_2014-06-15_17-34-58_260595134347_rgbf000171-resize_3/001092_2014-06-15_17-34-58_260595134347_rgbf000171-resize_3-target.png,250,2.6935,2,3780,250,feet,jsons/v1_VE250_randls_15.json,855687,1091740,27,Man
119,819331,DepthScenes,duration_manipulation_targetAtFixation,jsons/v1_VE250_randls_15.json,http://54.235.29.9/FacialAge/BNav_EC2/DepthDuration/v2_depth_duration_MTurk/v2_DepthDuration_HTML.html#73,73,1280,881,1280,1024,9-3-2022,10-36-53,120,depth_duration_stimuli/002545_2014-06-24_13-38-53_094959634447_rgbf000080-resize_4/002545_2014-06-24_13-38-53_094959634447_rgbf000080-resize_4-target.png,250,1.9205,3,3348,250,feet,jsons/v1_VE250_randls_15.json,855687,1091740,27,Man
120,819331,DepthScenes,duration_manipulation_targetAtFixation,jsons/v1_VE250_randls_15.json,http://54.235.29.9/FacialAge/BNav_EC2/DepthDuration/v2_depth_duration_MTurk/v2_DepthDuration_HTML.html#73,73,1280,881,1280,1024,9-3-2022,10-36-53,121,depth_duration_stimuli/001164_2014-06-17_15-35-46_260595134347_rgbf000085-resize_3/001164_2014-06-17_15-35-46_260595134347_rgbf000085-resize_3-target.png,250,2.354,3,3760,250,feet,jsons/v1_VE250_randls_15.json,855687,1091740,27,Man
121,819331,DepthScenes,duration_manipulation_targetAtFixation,jsons/v1_VE250_randls_15.json,http://54.235.29.9/FacialAge/BNav_EC2/DepthDuration/v2_depth_duration_MTurk/v2_DepthDuration_HTML.html#73,73,1280,881,1280,1024,9-3-2022,10-36-53,122,depth_duration_stimuli/001136_2014-06-17_15-19-41_260595134347_rgbf000076-resize_3/001136_2014-06-17_15-19-41_260595134347_rgbf000076-resize_3-target.png,250,1.8655,0,3770,250,feet,jsons/v1_VE250_randls_15.json,855687,1091740,27,Man
122,819331,DepthScenes,duration_manipulation_targetAtFixation,jsons/v1_VE250_randls_15.json,http://54.235.29.9/FacialAge/BNav_EC2/DepthDuration/v2_depth_duration_MTurk/v2_DepthDuration_HTML.html#73,73,1280,881,1280,1024,9-3-2022,10-36-53,123,depth_duration_stimuli/002043_2014-06-24_20-29-38_260595134347_rgbf000039-resize_4/002043_2014-06-24_20-29-38_260595134347_rgbf000039-resize_4-target.png,250,2.8435,3,3676,250,feet,jsons/v1_VE250_randls_15.json,855687,1091740,27,Man
123,819331,DepthScenes,duration_manipulation_targetAtFixation,jsons/v1_VE250_randls_15.json,http://54.235.29.9/FacialAge/BNav_EC2/DepthDuration/v2_depth_duration_MTurk/v2_DepthDuration_HTML.html#73,73,1280,881,1280,1024,9-3-2022,10-36-53,124,depth_duration_stimuli/003048_2014-06-15_13-49-43_094959634447_rgbf000150-resize_1/003048_2014-06-15_13-49-43_094959634447_rgbf000150-resize_1-target.png,250,4.0035,4,3788,250,feet,jsons/v1_VE250_randls_15.json,855687,1091740,27,Man
124,819331,DepthScenes,duration_manipulation_targetAtFixation,jsons/v1_VE250_randls_15.json,http://54.235.29.9/FacialAge/BNav_EC2/DepthDuration/v2_depth_duration_MTurk/v2_DepthDuration_HTML.html#73,73,1280,881,1280,1024,9-3-2022,10-36-53,125,depth_duration_stimuli/002039_2014-06-24_20-22-38_260595134347_rgbf000084-resize_1/002039_2014-06-24_20-22-38_260595134347_rgbf000084-resize_1-target.png,250,4.408,6,4134,250,feet,jsons/v1_VE250_randls_15.json,855687,1091740,27,Man
125,819331,DepthScenes,duration_manipulation_targetAtFixation,jsons/v1_VE250_randls_15.json,http://54.235.29.9/FacialAge/BNav_EC2/DepthDuration/v2_depth_duration_MTurk/v2_DepthDuration_HTML.html#73,73,1280,881,1280,1024,9-3-2022,10-36-53,126,depth_duration_stimuli/002103_2014-06-25_20-00-40_260595134347_rgbf000049-resize_0/002103_2014-06-25_20-00-40_260595134347_rgbf000049-resize_0-target.png,250,4.105,3,4615,249,feet,jsons/v1_VE250_randls_15.json,855687,1091740,27,Man
126,819331,DepthScenes,duration_manipulation_targetAtFixation,jsons/v1_VE250_randls_15.json,http://54.235.29.9/FacialAge/BNav_EC2/DepthDuration/v2_depth_duration_MTurk/v2_DepthDuration_HTML.html#73,73,1280,881,1280,1024,9-3-2022,10-36-53,127,depth_duration_stimuli/002213_2014-06-28_18-37-58_260595134347_rgbf000055-resize_1/002213_2014-06-28_18-37-58_260595134347_rgbf000055-resize_1-target.png,250,3.62,5,3552,250,feet,jsons/v1_VE250_randls_15.json,855687,1091740,27,Man
127,819331,DepthScenes,duration_manipulation_targetAtFixation,jsons/v1_VE250_randls_15.json,http://54.235.29.9/FacialAge/BNav_EC2/DepthDuration/v2_depth_duration_MTurk/v2_DepthDuration_HTML.html#73,73,1280,881,1280,1024,9-3-2022,10-36-53,128,depth_duration_stimuli/000691_2014-06-08_13-08-50_260595134347_rgbf000132-resize_3/000691_2014-06-08_13-08-50_260595134347_rgbf000132-resize_3-target.png,250,4.1530000000000005,0,3475,248,feet,jsons/v1_VE250_randls_15.json,855687,1091740,27,Man
128,819331,DepthScenes,duration_manipulation_targetAtFixation,jsons/v1_VE250_randls_15.json,http://54.235.29.9/FacialAge/BNav_EC2/DepthDuration/v2_depth_duration_MTurk/v2_DepthDuration_HTML.html#73,73,1280,881,1280,1024,9-3-2022,10-36-53,129,depth_duration_stimuli/000493_2014-06-09_21-01-18_260595134347_rgbf000196-resize_3/000493_2014-06-09_21-01-18_260595134347_rgbf000196-resize_3-target.png,250,3.44,4,3939,250,feet,jsons/v1_VE250_randls_15.json,855687,1091740,27,Man
129,819331,DepthScenes,duration_manipulation_targetAtFixation,jsons/v1_VE250_randls_15.json,http://54.235.29.9/FacialAge/BNav_EC2/DepthDuration/v2_depth_duration_MTurk/v2_DepthDuration_HTML.html#73,73,1280,881,1280,1024,9-3-2022,10-36-53,130,depth_duration_stimuli/000191_2014-05-12_17-07-38_260595134347_rgbf000199-resize_0/000191_2014-05-12_17-07-38_260595134347_rgbf000199-resize_0-target.png,250,3.7995,4,3729,245,feet,jsons/v1_VE250_randls_15.json,855687,1091740,27,Man
130,819331,DepthScenes,duration_manipulation_targetAtFixation,jsons/v1_VE250_randls_15.json,http://54.235.29.9/FacialAge/BNav_EC2/DepthDuration/v2_depth_duration_MTurk/v2_DepthDuration_HTML.html#73,73,1280,881,1280,1024,9-3-2022,10-36-53,131,depth_duration_stimuli/000447_2014-06-08_16-15-46_260595134347_rgbf000130-resize_1/000447_2014-06-08_16-15-46_260595134347_rgbf000130-resize_1-target.png,250,4.479,4,4292,251,feet,jsons/v1_VE250_randls_15.json,855687,1091740,27,Man
131,819331,DepthScenes,duration_manipulation_targetAtFixation,jsons/v1_VE250_randls_15.json,http://54.235.29.9/FacialAge/BNav_EC2/DepthDuration/v2_depth_duration_MTurk/v2_DepthDuration_HTML.html#73,73,1280,881,1280,1024,9-3-2022,10-36-53,132,depth_duration_stimuli/001447_2014-06-19_17-00-32_260595134347_rgbf000082-resize_5/001447_2014-06-19_17-00-32_260595134347_rgbf000082-resize_5-target.png,250,4.13775,0,3619,250,feet,jsons/v1_VE250_randls_15.json,855687,1091740,27,Man
132,819331,DepthScenes,duration_manipulation_targetAtFixation,jsons/v1_VE250_randls_15.json,http://54.235.29.9/FacialAge/BNav_EC2/DepthDuration/v2_depth_duration_MTurk/v2_DepthDuration_HTML.html#73,73,1280,881,1280,1024,9-3-2022,10-36-53,133,depth_duration_stimuli/001133_2014-06-17_14-49-16_260595134347_rgbf000100-resize_0/001133_2014-06-17_14-49-16_260595134347_rgbf000100-resize_0-target.png,250,4.2115,4,4051,251,feet,jsons/v1_VE250_randls_15.json,855687,1091740,27,Man
133,819331,DepthScenes,duration_manipulation_targetAtFixation,jsons/v1_VE250_randls_15.json,http://54.235.29.9/FacialAge/BNav_EC2/DepthDuration/v2_depth_duration_MTurk/v2_DepthDuration_HTML.html#73,73,1280,881,1280,1024,9-3-2022,10-36-53,134,depth_duration_stimuli/001132_2014-06-17_14-48-54_260595134347_rgbf000100-resize_2/001132_2014-06-17_14-48-54_260595134347_rgbf000100-resize_2-target.png,250,3.753,0,3418,250,feet,jsons/v1_VE250_randls_15.json,855687,1091740,27,Man
134,819331,DepthScenes,duration_manipulation_targetAtFixation,jsons/v1_VE250_randls_15.json,http://54.235.29.9/FacialAge/BNav_EC2/DepthDuration/v2_depth_duration_MTurk/v2_DepthDuration_HTML.html#73,73,1280,881,1280,1024,9-3-2022,10-36-53,135,depth_duration_stimuli/002072_2014-06-24_21-48-06_260595134347_rgbf000115-resize_0/002072_2014-06-24_21-48-06_260595134347_rgbf000115-resize-original.jpg,250,4.702,5,5350,249,feet,jsons/v1_VE250_randls_15.json,855687,1091740,27,Man
135,819331,DepthScenes,duration_manipulation_targetAtFixation,jsons/v1_VE250_randls_15.json,http://54.235.29.9/FacialAge/BNav_EC2/DepthDuration/v2_depth_duration_MTurk/v2_DepthDuration_HTML.html#73,73,1280,881,1280,1024,9-3-2022,10-36-53,136,depth_duration_stimuli/000758_2014-06-08_22-05-08_260595134347_rgbf000085-resize_0/000758_2014-06-08_22-05-08_260595134347_rgbf000085-resize_0-target.png,250,3.3810000000000002,5,3952,250,feet,jsons/v1_VE250_randls_15.json,855687,1091740,27,Man
136,819331,DepthScenes,duration_manipulation_targetAtFixation,jsons/v1_VE250_randls_15.json,http://54.235.29.9/FacialAge/BNav_EC2/DepthDuration/v2_depth_duration_MTurk/v2_DepthDuration_HTML.html#73,73,1280,881,1280,1024,9-3-2022,10-36-53,137,depth_duration_stimuli/000854_2014-06-09_19-43-13_260595134347_rgbf000066-resize_0/000854_2014-06-09_19-43-13_260595134347_rgbf000066-resize_0-target.png,250,3.068,0,3476,249,feet,jsons/v1_VE250_randls_15.json,855687,1091740,27,Man
137,819331,DepthScenes,duration_manipulation_targetAtFixation,jsons/v1_VE250_randls_15.json,http://54.235.29.9/FacialAge/BNav_EC2/DepthDuration/v2_depth_duration_MTurk/v2_DepthDuration_HTML.html#73,73,1280,881,1280,1024,9-3-2022,10-36-53,138,depth_duration_stimuli/000878_2014-06-08_22-52-45_260595134347_rgbf000045-resize_2/000878_2014-06-08_22-52-45_260595134347_rgbf000045-resize_2-target.png,250,2.092,4,4498,249,feet,jsons/v1_VE250_randls_15.json,855687,1091740,27,Man
138,819331,DepthScenes,duration_manipulation_targetAtFixation,jsons/v1_VE250_randls_15.json,http://54.235.29.9/FacialAge/BNav_EC2/DepthDuration/v2_depth_duration_MTurk/v2_DepthDuration_HTML.html#73,73,1280,881,1280,1024,9-3-2022,10-36-53,139,depth_duration_stimuli/002953_2014-06-08_17-32-18_094959634447_rgbf000059-resize_5/002953_2014-06-08_17-32-18_094959634447_rgbf000059-resize_5-target.png,250,1.551,3,3301,249,feet,jsons/v1_VE250_randls_15.json,855687,1091740,27,Man
139,819331,DepthScenes,duration_manipulation_targetAtFixation,jsons/v1_VE250_randls_15.json,http://54.235.29.9/FacialAge/BNav_EC2/DepthDuration/v2_depth_duration_MTurk/v2_DepthDuration_HTML.html#73,73,1280,881,1280,1024,9-3-2022,10-36-53,140,depth_duration_stimuli/001449_2014-06-19_17-01-27_260595134347_rgbf000116-resize_2/001449_2014-06-19_17-01-27_260595134347_rgbf000116-resize_2-target.png,250,3.452,3,3778,250,feet,jsons/v1_VE250_randls_15.json,855687,1091740,27,Man
140,819331,DepthScenes,duration_manipulation_targetAtFixation,jsons/v1_VE250_randls_15.json,http://54.235.29.9/FacialAge/BNav_EC2/DepthDuration/v2_depth_duration_MTurk/v2_DepthDuration_HTML.html#73,73,1280,881,1280,1024,9-3-2022,10-36-53,141,depth_duration_stimuli/001450_2014-06-19_17-02-03_260595134347_rgbf000203-resize_4/001450_2014-06-19_17-02-03_260595134347_rgbf000203-resize_4-target.png,250,4.0106666666667,5,4103,250,feet,jsons/v1_VE250_randls_15.json,855687,1091740,27,Man
141,819331,DepthScenes,duration_manipulation_targetAtFixation,jsons/v1_VE250_randls_15.json,http://54.235.29.9/FacialAge/BNav_EC2/DepthDuration/v2_depth_duration_MTurk/v2_DepthDuration_HTML.html#73,73,1280,881,1280,1024,9-3-2022,10-36-53,142,depth_duration_stimuli/002570_2014-06-24_13-59-54_094959634447_rgbf000059-resize_0/002570_2014-06-24_13-59-54_094959634447_rgbf000059-resize_0-target.png,250,4.037,4,4398,249,feet,jsons/v1_VE250_randls_15.json,855687,1091740,27,Man
142,819331,DepthScenes,duration_manipulation_targetAtFixation,jsons/v1_VE250_randls_15.json,http://54.235.29.9/FacialAge/BNav_EC2/DepthDuration/v2_depth_duration_MTurk/v2_DepthDuration_HTML.html#73,73,1280,881,1280,1024,9-3-2022,10-36-53,143,depth_duration_stimuli/002467_2014-06-28_20-38-07_260595134347_rgbf000026-resize_2/002467_2014-06-28_20-38-07_260595134347_rgbf000026-resize_2-target.png,250,4.742,3,3411,250,feet,jsons/v1_VE250_randls_15.json,855687,1091740,27,Man
143,819331,DepthScenes,duration_manipulation_targetAtFixation,jsons/v1_VE250_randls_15.json,http://54.235.29.9/FacialAge/BNav_EC2/DepthDuration/v2_depth_duration_MTurk/v2_DepthDuration_HTML.html#73,73,1280,881,1280,1024,9-3-2022,10-36-53,144,depth_duration_stimuli/000929_2014-06-09_16-33-19_260595134347_rgbf000139-resize_0/000929_2014-06-09_16-33-19_260595134347_rgbf000139-resize_0-target.png,250,2.8680000000000003,2,3261,251,feet,jsons/v1_VE250_randls_15.json,855687,1091740,27,Man
144,819331,DepthScenes,duration_manipulation_targetAtFixation,jsons/v1_VE250_randls_15.json,http://54.235.29.9/FacialAge/BNav_EC2/DepthDuration/v2_depth_duration_MTurk/v2_DepthDuration_HTML.html#73,73,1280,881,1280,1024,9-3-2022,10-36-53,145,depth_duration_stimuli/000457_2014-06-08_16-52-43_260595134347_rgbf000199-resize_1/000457_2014-06-08_16-52-43_260595134347_rgbf000199-resize_1-target.png,250,3.6489999999999996,4,3620,251,feet,jsons/v1_VE250_randls_15.json,855687,1091740,27,Man
145,819331,DepthScenes,duration_manipulation_targetAtFixation,jsons/v1_VE250_randls_15.json,http://54.235.29.9/FacialAge/BNav_EC2/DepthDuration/v2_depth_duration_MTurk/v2_DepthDuration_HTML.html#73,73,1280,881,1280,1024,9-3-2022,10-36-53,146,depth_duration_stimuli/001498_2014-06-19_17-45-14_260595134347_rgbf000129-resize_4/001498_2014-06-19_17-45-14_260595134347_rgbf000129-resize-original.jpg,250,1.4075,3,4456,250,feet,jsons/v1_VE250_randls_15.json,855687,1091740,27,Man
146,819331,DepthScenes,duration_manipulation_targetAtFixation,jsons/v1_VE250_randls_15.json,http://54.235.29.9/FacialAge/BNav_EC2/DepthDuration/v2_depth_duration_MTurk/v2_DepthDuration_HTML.html#73,73,1280,881,1280,1024,9-3-2022,10-36-53,147,depth_duration_stimuli/001029_2014-06-08_13-17-57_260595134347_rgbf000065-resize_1/001029_2014-06-08_13-17-57_260595134347_rgbf000065-resize_1-target.png,250,3.0835,3,3645,249,feet,jsons/v1_VE250_randls_15.json,855687,1091740,27,Man
147,819331,DepthScenes,duration_manipulation_targetAtFixation,jsons/v1_VE250_randls_15.json,http://54.235.29.9/FacialAge/BNav_EC2/DepthDuration/v2_depth_duration_MTurk/v2_DepthDuration_HTML.html#73,73,1280,881,1280,1024,9-3-2022,10-36-53,148,depth_duration_stimuli/000677_2014-06-08_23-10-32_260595134347_rgbf000158-resize_6/000677_2014-06-08_23-10-32_260595134347_rgbf000158-resize_6-target.png,250,3.556,0,3633,250,feet,jsons/v1_VE250_randls_15.json,855687,1091740,27,Man
148,819331,DepthScenes,duration_manipulation_targetAtFixation,jsons/v1_VE250_randls_15.json,http://54.235.29.9/FacialAge/BNav_EC2/DepthDuration/v2_depth_duration_MTurk/v2_DepthDuration_HTML.html#73,73,1280,881,1280,1024,9-3-2022,10-36-53,149,depth_duration_stimuli/002788_2014-06-22_19-36-03_094959634447_rgbf000088-resize_2/002788_2014-06-22_19-36-03_094959634447_rgbf000088-resize_2-target.png,250,1.6465,3,4255,250,feet,jsons/v1_VE250_randls_15.json,855687,1091740,27,Man
149,819331,DepthScenes,duration_manipulation_targetAtFixation,jsons/v1_VE250_randls_15.json,http://54.235.29.9/FacialAge/BNav_EC2/DepthDuration/v2_depth_duration_MTurk/v2_DepthDuration_HTML.html#73,73,1280,881,1280,1024,9-3-2022,10-36-53,150,depth_duration_stimuli/000749_2014-06-08_21-55-06_260595134347_rgbf000070-resize_2/000749_2014-06-08_21-55-06_260595134347_rgbf000070-resize_2-target.png,250,2.331,0,3215,251,feet,jsons/v1_VE250_randls_15.json,855687,1091740,27,Man
150,819331,DepthScenes,duration_manipulation_targetAtFixation,jsons/v1_VE250_randls_15.json,http://54.235.29.9/FacialAge/BNav_EC2/DepthDuration/v2_depth_duration_MTurk/v2_DepthDuration_HTML.html#73,73,1280,881,1280,1024,9-3-2022,10-36-53,151,depth_duration_stimuli/000739_2014-06-08_18-45-58_260595134347_rgbf000068-resize_1/000739_2014-06-08_18-45-58_260595134347_rgbf000068-resize_1-target.png,250,3.534,3,3909,251,feet,jsons/v1_VE250_randls_15.json,855687,1091740,27,Man
151,819331,DepthScenes,duration_manipulation_targetAtFixation,jsons/v1_VE250_randls_15.json,http://54.235.29.9/FacialAge/BNav_EC2/DepthDuration/v2_depth_duration_MTurk/v2_DepthDuration_HTML.html#73,73,1280,881,1280,1024,9-3-2022,10-36-53,152,depth_duration_stimuli/000734_2014-06-08_17-39-11_260595134347_rgbf000128-resize_2/000734_2014-06-08_17-39-11_260595134347_rgbf000128-resize_2-target.png,250,4.098,0,3354,250,feet,jsons/v1_VE250_randls_15.json,855687,1091740,27,Man
152,819331,DepthScenes,duration_manipulation_targetAtFixation,jsons/v1_VE250_randls_15.json,http://54.235.29.9/FacialAge/BNav_EC2/DepthDuration/v2_depth_duration_MTurk/v2_DepthDuration_HTML.html#73,73,1280,881,1280,1024,9-3-2022,10-36-53,153,depth_duration_stimuli/002784_2014-06-22_19-26-30_094959634447_rgbf000083-resize_3/002784_2014-06-22_19-26-30_094959634447_rgbf000083-resize_3-target.png,250,1.8046666666667,2,4379,250,feet,jsons/v1_VE250_randls_15.json,855687,1091740,27,Man
153,819331,DepthScenes,duration_manipulation_targetAtFixation,jsons/v1_VE250_randls_15.json,http://54.235.29.9/FacialAge/BNav_EC2/DepthDuration/v2_depth_duration_MTurk/v2_DepthDuration_HTML.html#73,73,1280,881,1280,1024,9-3-2022,10-36-53,154,depth_duration_stimuli/001100_2014-06-15_17-46-26_260595134347_rgbf000225-resize_2/001100_2014-06-15_17-46-26_260595134347_rgbf000225-resize_2-target.png,250,2.24,0,4325,250,feet,jsons/v1_VE250_randls_15.json,855687,1091740,27,Man
154,819331,DepthScenes,duration_manipulation_targetAtFixation,jsons/v1_VE250_randls_15.json,http://54.235.29.9/FacialAge/BNav_EC2/DepthDuration/v2_depth_duration_MTurk/v2_DepthDuration_HTML.html#73,73,1280,881,1280,1024,9-3-2022,10-36-53,155,depth_duration_stimuli/001570_2014-06-20_17-21-09_260595134347_rgbf000135-resize_4/001570_2014-06-20_17-21-09_260595134347_rgbf000135-resize_4-target.png,250,4.467,5,6413,249,feet,jsons/v1_VE250_randls_15.json,855687,1091740,27,Man
155,819331,DepthScenes,duration_manipulation_targetAtFixation,jsons/v1_VE250_randls_15.json,http://54.235.29.9/FacialAge/BNav_EC2/DepthDuration/v2_depth_duration_MTurk/v2_DepthDuration_HTML.html#73,73,1280,881,1280,1024,9-3-2022,10-36-53,156,depth_duration_stimuli/001392_2014-06-19_16-07-59_260595134347_rgbf000046-resize_1/001392_2014-06-19_16-07-59_260595134347_rgbf000046-resize_1-target.png,250,4.135,0,3617,249,feet,jsons/v1_VE250_randls_15.json,855687,1091740,27,Man
156,819331,DepthScenes,duration_manipulation_targetAtFixation,jsons/v1_VE250_randls_15.json,http://54.235.29.9/FacialAge/BNav_EC2/DepthDuration/v2_depth_duration_MTurk/v2_DepthDuration_HTML.html#73,73,1280,881,1280,1024,9-3-2022,10-36-53,157,depth_duration_stimuli/000906_2014-06-08_13-35-43_260595134347_rgbf000155-resize_1/000906_2014-06-08_13-35-43_260595134347_rgbf000155-resize_1-target.png,250,2.8489999999999998,3,3267,251,feet,jsons/v1_VE250_randls_15.json,855687,1091740,27,Man
157,819331,DepthScenes,duration_manipulation_targetAtFixation,jsons/v1_VE250_randls_15.json,http://54.235.29.9/FacialAge/BNav_EC2/DepthDuration/v2_depth_duration_MTurk/v2_DepthDuration_HTML.html#73,73,1280,881,1280,1024,9-3-2022,10-36-53,158,depth_duration_stimuli/002805_2014-06-22_19-54-03_094959634447_rgbf000079-resize_1/002805_2014-06-22_19-54-03_094959634447_rgbf000079-resize_1-target.png,250,3.1439999999999997,3,3236,249,feet,jsons/v1_VE250_randls_15.json,855687,1091740,27,Man
158,819331,DepthScenes,duration_manipulation_targetAtFixation,jsons/v1_VE250_randls_15.json,http://54.235.29.9/FacialAge/BNav_EC2/DepthDuration/v2_depth_duration_MTurk/v2_DepthDuration_HTML.html#73,73,1280,881,1280,1024,9-3-2022,10-36-53,159,depth_duration_stimuli/001175_2014-06-17_15-45-55_260595134347_rgbf000129-resize_4/001175_2014-06-17_15-45-55_260595134347_rgbf000129-resize_4-target.png,250,4.255,4,3825,251,feet,jsons/v1_VE250_randls_15.json,855687,1091740,27,Man
159,819331,DepthScenes,duration_manipulation_targetAtFixation,jsons/v1_VE250_randls_15.json,http://54.235.29.9/FacialAge/BNav_EC2/DepthDuration/v2_depth_duration_MTurk/v2_DepthDuration_HTML.html#73,73,1280,881,1280,1024,9-3-2022,10-36-53,160,depth_duration_stimuli/003490_2014-05-21_15-50-11_094959634447_rgbf000101-resize_3/003490_2014-05-21_15-50-11_094959634447_rgbf000101-resize_3-target.png,250,3.6445,3,3587,250,feet,jsons/v1_VE250_randls_15.json,855687,1091740,27,Man
160,819331,DepthScenes,duration_manipulation_targetAtFixation,jsons/v1_VE250_randls_15.json,http://54.235.29.9/FacialAge/BNav_EC2/DepthDuration/v2_depth_duration_MTurk/v2_DepthDuration_HTML.html#73,73,1280,881,1280,1024,9-3-2022,10-36-53,161,depth_duration_stimuli/002057_2014-06-24_21-00-13_260595134347_rgbf000120-resize_1/002057_2014-06-24_21-00-13_260595134347_rgbf000120-resize_1-target.png,250,2.967,5,4584,253,feet,jsons/v1_VE250_randls_15.json,855687,1091740,27,Man
161,819331,DepthScenes,duration_manipulation_targetAtFixation,jsons/v1_VE250_randls_15.json,http://54.235.29.9/FacialAge/BNav_EC2/DepthDuration/v2_depth_duration_MTurk/v2_DepthDuration_HTML.html#73,73,1280,881,1280,1024,9-3-2022,10-36-53,162,depth_duration_stimuli/000709_2014-06-08_13-51-55_260595134347_rgbf000068-resize_3/000709_2014-06-08_13-51-55_260595134347_rgbf000068-resize_3-target.png,250,1.8030000000000002,0,4944,250,feet,jsons/v1_VE250_randls_15.json,855687,1091740,27,Man
162,819331,DepthScenes,duration_manipulation_targetAtFixation,jsons/v1_VE250_randls_15.json,http://54.235.29.9/FacialAge/BNav_EC2/DepthDuration/v2_depth_duration_MTurk/v2_DepthDuration_HTML.html#73,73,1280,881,1280,1024,9-3-2022,10-36-53,163,depth_duration_stimuli/002663_2014-06-13_15-50-26_094959634447_rgbf000075-resize_1/002663_2014-06-13_15-50-26_094959634447_rgbf000075-resize_1-target.png,250,4.7495,6,5016,249,feet,jsons/v1_VE250_randls_15.json,855687,1091740,27,Man
163,819331,DepthScenes,duration_manipulation_targetAtFixation,jsons/v1_VE250_randls_15.json,http://54.235.29.9/FacialAge/BNav_EC2/DepthDuration/v2_depth_duration_MTurk/v2_DepthDuration_HTML.html#73,73,1280,881,1280,1024,9-3-2022,10-36-53,164,depth_duration_stimuli/000409_2014-06-04_19-23-33_260595134347_rgbf000067-resize_0/000409_2014-06-04_19-23-33_260595134347_rgbf000067-resize_0-target.png,250,3.7335,0,3371,249,feet,jsons/v1_VE250_randls_15.json,855687,1091740,27,Man
