,subjID,experimentName,versionName,sequenceName,url,selected_row,windowWidth,windowHeight,screenWidth,screenHeight,startDate,startTime,trial,stimulus,duration,actual_depth,depth_estimate,trial_RT,log_sceneDuration,unitSelection,seq_filepath,experimentTime,totalTime,age,gender
0,821848,DepthScenes,duration_manipulation_targetAtFixation,jsons/v1_VE1000_randls_36.json,http://54.235.29.9/FacialAge/BNav_EC2/DepthDuration/v2_depth_duration_MTurk/v2_DepthDuration_HTML.html#15,15,1920,937,1920,1080,8-22-2022,7-58-43,1,depth_duration_stimuli/002788_2014-06-22_19-36-03_094959634447_rgbf000088-resize_2/002788_2014-06-22_19-36-03_094959634447_rgbf000088-resize_2-target.png,1000,1.6465,8,3266,1006,feet,jsons/v1_VE1000_randls_36.json,568428,707649,41,Man
1,821848,DepthScenes,duration_manipulation_targetAtFixation,jsons/v1_VE1000_randls_36.json,http://54.235.29.9/FacialAge/BNav_EC2/DepthDuration/v2_depth_duration_MTurk/v2_DepthDuration_HTML.html#15,15,1920,937,1920,1080,8-22-2022,7-58-43,2,depth_duration_stimuli/000749_2014-06-08_21-55-06_260595134347_rgbf000070-resize_2/000749_2014-06-08_21-55-06_260595134347_rgbf000070-resize_2-target.png,1000,2.331,5,6331,1014,feet,jsons/v1_VE1000_randls_36.json,568428,707649,41,Man
2,821848,DepthScenes,duration_manipulation_targetAtFixation,jsons/v1_VE1000_randls_36.json,http://54.235.29.9/FacialAge/BNav_EC2/DepthDuration/v2_depth_duration_MTurk/v2_DepthDuration_HTML.html#15,15,1920,937,1920,1080,8-22-2022,7-58-43,3,depth_duration_stimuli/000736_2014-06-08_18-24-15_260595134347_rgbf000206-resize_3/000736_2014-06-08_18-24-15_260595134347_rgbf000206-resize_3-target.png,1000,3.515,6,3853,1010,feet,jsons/v1_VE1000_randls_36.json,568428,707649,41,Man
3,821848,DepthScenes,duration_manipulation_targetAtFixation,jsons/v1_VE1000_randls_36.json,http://54.235.29.9/FacialAge/BNav_EC2/DepthDuration/v2_depth_duration_MTurk/v2_DepthDuration_HTML.html#15,15,1920,937,1920,1080,8-22-2022,7-58-43,4,depth_duration_stimuli/000137_2014-05-20_17-04-49_260595134347_rgbf000120-resize_1/000137_2014-05-20_17-04-49_260595134347_rgbf000120-resize_1-target.png,1000,3.786,10,3454,1008,feet,jsons/v1_VE1000_randls_36.json,568428,707649,41,Man
4,821848,DepthScenes,duration_manipulation_targetAtFixation,jsons/v1_VE1000_randls_36.json,http://54.235.29.9/FacialAge/BNav_EC2/DepthDuration/v2_depth_duration_MTurk/v2_DepthDuration_HTML.html#15,15,1920,937,1920,1080,8-22-2022,7-58-43,5,depth_duration_stimuli/001570_2014-06-20_17-21-09_260595134347_rgbf000135-resize_4/001570_2014-06-20_17-21-09_260595134347_rgbf000135-resize_4-target.png,1000,4.467,14,3304,991,feet,jsons/v1_VE1000_randls_36.json,568428,707649,41,Man
5,821848,DepthScenes,duration_manipulation_targetAtFixation,jsons/v1_VE1000_randls_36.json,http://54.235.29.9/FacialAge/BNav_EC2/DepthDuration/v2_depth_duration_MTurk/v2_DepthDuration_HTML.html#15,15,1920,937,1920,1080,8-22-2022,7-58-43,6,depth_duration_stimuli/001392_2014-06-19_16-07-59_260595134347_rgbf000046-resize_1/001392_2014-06-19_16-07-59_260595134347_rgbf000046-resize_1-target.png,1000,4.135,12,2962,1011,feet,jsons/v1_VE1000_randls_36.json,568428,707649,41,Man
6,821848,DepthScenes,duration_manipulation_targetAtFixation,jsons/v1_VE1000_randls_36.json,http://54.235.29.9/FacialAge/BNav_EC2/DepthDuration/v2_depth_duration_MTurk/v2_DepthDuration_HTML.html#15,15,1920,937,1920,1080,8-22-2022,7-58-43,7,depth_duration_stimuli/002964_2014-06-08_17-46-11_094959634447_rgbf000091-resize_4/002964_2014-06-08_17-46-11_094959634447_rgbf000091-resize_4-target.png,1000,1.6909999999999998,3,2510,1007,feet,jsons/v1_VE1000_randls_36.json,568428,707649,41,Man
7,821848,DepthScenes,duration_manipulation_targetAtFixation,jsons/v1_VE1000_randls_36.json,http://54.235.29.9/FacialAge/BNav_EC2/DepthDuration/v2_depth_duration_MTurk/v2_DepthDuration_HTML.html#15,15,1920,937,1920,1080,8-22-2022,7-58-43,8,depth_duration_stimuli/002136_2014-06-25_21-18-03_260595134347_rgbf000109-resize_3/002136_2014-06-25_21-18-03_260595134347_rgbf000109-resize_3-target.png,1000,1.9569999999999999,3,3039,1001,feet,jsons/v1_VE1000_randls_36.json,568428,707649,41,Man
8,821848,DepthScenes,duration_manipulation_targetAtFixation,jsons/v1_VE1000_randls_36.json,http://54.235.29.9/FacialAge/BNav_EC2/DepthDuration/v2_depth_duration_MTurk/v2_DepthDuration_HTML.html#15,15,1920,937,1920,1080,8-22-2022,7-58-43,9,depth_duration_stimuli/002153_2014-06-25_21-27-18_260595134347_rgbf000038-resize_5/002153_2014-06-25_21-27-18_260595134347_rgbf000038-resize_5-target.png,1000,2.505,6,2868,997,feet,jsons/v1_VE1000_randls_36.json,568428,707649,41,Man
9,821848,DepthScenes,duration_manipulation_targetAtFixation,jsons/v1_VE1000_randls_36.json,http://54.235.29.9/FacialAge/BNav_EC2/DepthDuration/v2_depth_duration_MTurk/v2_DepthDuration_HTML.html#15,15,1920,937,1920,1080,8-22-2022,7-58-43,10,depth_duration_stimuli/002660_2014-06-13_15-44-18_094959634447_rgbf001878-resize_2/002660_2014-06-13_15-44-18_094959634447_rgbf001878-resize_2-target.png,1000,3.576,8,2711,1002,feet,jsons/v1_VE1000_randls_36.json,568428,707649,41,Man
10,821848,DepthScenes,duration_manipulation_targetAtFixation,jsons/v1_VE1000_randls_36.json,http://54.235.29.9/FacialAge/BNav_EC2/DepthDuration/v2_depth_duration_MTurk/v2_DepthDuration_HTML.html#15,15,1920,937,1920,1080,8-22-2022,7-58-43,11,depth_duration_stimuli/000522_2014-06-08_13-35-06_260595134347_rgbf000244-resize_1/000522_2014-06-08_13-35-06_260595134347_rgbf000244-resize_1-target.png,1000,2.3715,2,2321,1002,feet,jsons/v1_VE1000_randls_36.json,568428,707649,41,Man
11,821848,DepthScenes,duration_manipulation_targetAtFixation,jsons/v1_VE1000_randls_36.json,http://54.235.29.9/FacialAge/BNav_EC2/DepthDuration/v2_depth_duration_MTurk/v2_DepthDuration_HTML.html#15,15,1920,937,1920,1080,8-22-2022,7-58-43,12,depth_duration_stimuli/002949_2014-06-26_15-57-42_094959634447_rgbf000079-resize_1/002949_2014-06-26_15-57-42_094959634447_rgbf000079-resize_1-target.png,1000,1.8915,4,3243,988,feet,jsons/v1_VE1000_randls_36.json,568428,707649,41,Man
12,821848,DepthScenes,duration_manipulation_targetAtFixation,jsons/v1_VE1000_randls_36.json,http://54.235.29.9/FacialAge/BNav_EC2/DepthDuration/v2_depth_duration_MTurk/v2_DepthDuration_HTML.html#15,15,1920,937,1920,1080,8-22-2022,7-58-43,13,depth_duration_stimuli/000569_2014-06-09_22-51-47_260595134347_rgbf000141-resize_3/000569_2014-06-09_22-51-47_260595134347_rgbf000141-resize-original.jpg,1000,4.512,0,3718,1002,feet,jsons/v1_VE1000_randls_36.json,568428,707649,41,Man
13,821848,DepthScenes,duration_manipulation_targetAtFixation,jsons/v1_VE1000_randls_36.json,http://54.235.29.9/FacialAge/BNav_EC2/DepthDuration/v2_depth_duration_MTurk/v2_DepthDuration_HTML.html#15,15,1920,937,1920,1080,8-22-2022,7-58-43,14,depth_duration_stimuli/000773_2014-06-08_22-24-54_260595134347_rgbf000093-resize_1/000773_2014-06-08_22-24-54_260595134347_rgbf000093-resize_1-target.png,1000,4.973,13,3535,1005,feet,jsons/v1_VE1000_randls_36.json,568428,707649,41,Man
14,821848,DepthScenes,duration_manipulation_targetAtFixation,jsons/v1_VE1000_randls_36.json,http://54.235.29.9/FacialAge/BNav_EC2/DepthDuration/v2_depth_duration_MTurk/v2_DepthDuration_HTML.html#15,15,1920,937,1920,1080,8-22-2022,7-58-43,15,depth_duration_stimuli/002414_2014-06-28_20-24-58_260595134347_rgbf000067-resize_4/002414_2014-06-28_20-24-58_260595134347_rgbf000067-resize_4-target.png,1000,4.363,11,4300,1006,feet,jsons/v1_VE1000_randls_36.json,568428,707649,41,Man
15,821848,DepthScenes,duration_manipulation_targetAtFixation,jsons/v1_VE1000_randls_36.json,http://54.235.29.9/FacialAge/BNav_EC2/DepthDuration/v2_depth_duration_MTurk/v2_DepthDuration_HTML.html#15,15,1920,937,1920,1080,8-22-2022,7-58-43,16,depth_duration_stimuli/000929_2014-06-09_16-33-19_260595134347_rgbf000139-resize_0/000929_2014-06-09_16-33-19_260595134347_rgbf000139-resize_0-target.png,1000,2.8680000000000003,5,3056,987,feet,jsons/v1_VE1000_randls_36.json,568428,707649,41,Man
16,821848,DepthScenes,duration_manipulation_targetAtFixation,jsons/v1_VE1000_randls_36.json,http://54.235.29.9/FacialAge/BNav_EC2/DepthDuration/v2_depth_duration_MTurk/v2_DepthDuration_HTML.html#15,15,1920,937,1920,1080,8-22-2022,7-58-43,17,depth_duration_stimuli/000457_2014-06-08_16-52-43_260595134347_rgbf000199-resize_1/000457_2014-06-08_16-52-43_260595134347_rgbf000199-resize_1-target.png,1000,3.6489999999999996,8,2798,985,feet,jsons/v1_VE1000_randls_36.json,568428,707649,41,Man
17,821848,DepthScenes,duration_manipulation_targetAtFixation,jsons/v1_VE1000_randls_36.json,http://54.235.29.9/FacialAge/BNav_EC2/DepthDuration/v2_depth_duration_MTurk/v2_DepthDuration_HTML.html#15,15,1920,937,1920,1080,8-22-2022,7-58-43,18,depth_duration_stimuli/000788_2014-06-08_22-34-36_260595134347_rgbf000131-resize_1/000788_2014-06-08_22-34-36_260595134347_rgbf000131-resize_1-target.png,1000,3.359,7,2948,1001,feet,jsons/v1_VE1000_randls_36.json,568428,707649,41,Man
18,821848,DepthScenes,duration_manipulation_targetAtFixation,jsons/v1_VE1000_randls_36.json,http://54.235.29.9/FacialAge/BNav_EC2/DepthDuration/v2_depth_duration_MTurk/v2_DepthDuration_HTML.html#15,15,1920,937,1920,1080,8-22-2022,7-58-43,19,depth_duration_stimuli/001235_2014-06-17_16-37-36_260595134347_rgbf000084-resize_4/001235_2014-06-17_16-37-36_260595134347_rgbf000084-resize_4-target.png,1000,3.6605,7,2797,1002,feet,jsons/v1_VE1000_randls_36.json,568428,707649,41,Man
19,821848,DepthScenes,duration_manipulation_targetAtFixation,jsons/v1_VE1000_randls_36.json,http://54.235.29.9/FacialAge/BNav_EC2/DepthDuration/v2_depth_duration_MTurk/v2_DepthDuration_HTML.html#15,15,1920,937,1920,1080,8-22-2022,7-58-43,20,depth_duration_stimuli/000917_2014-06-09_22-45-29_260595134347_rgbf000149-resize_3/000917_2014-06-09_22-45-29_260595134347_rgbf000149-resize_3-target.png,1000,4.1865,9,3161,1001,feet,jsons/v1_VE1000_randls_36.json,568428,707649,41,Man
20,821848,DepthScenes,duration_manipulation_targetAtFixation,jsons/v1_VE1000_randls_36.json,http://54.235.29.9/FacialAge/BNav_EC2/DepthDuration/v2_depth_duration_MTurk/v2_DepthDuration_HTML.html#15,15,1920,937,1920,1080,8-22-2022,7-58-43,21,depth_duration_stimuli/002323_2014-06-28_20-01-54_260595134347_rgbf000051-resize_4/002323_2014-06-28_20-01-54_260595134347_rgbf000051-resize_4-target.png,1000,3.7310000000000003,12,4050,989,feet,jsons/v1_VE1000_randls_36.json,568428,707649,41,Man
21,821848,DepthScenes,duration_manipulation_targetAtFixation,jsons/v1_VE1000_randls_36.json,http://54.235.29.9/FacialAge/BNav_EC2/DepthDuration/v2_depth_duration_MTurk/v2_DepthDuration_HTML.html#15,15,1920,937,1920,1080,8-22-2022,7-58-43,22,depth_duration_stimuli/002600_2014-06-24_14-27-04_094959634447_rgbf000074-resize_2/002600_2014-06-24_14-27-04_094959634447_rgbf000074-resize_2-target.png,1000,2.7575,7,4060,1003,feet,jsons/v1_VE1000_randls_36.json,568428,707649,41,Man
22,821848,DepthScenes,duration_manipulation_targetAtFixation,jsons/v1_VE1000_randls_36.json,http://54.235.29.9/FacialAge/BNav_EC2/DepthDuration/v2_depth_duration_MTurk/v2_DepthDuration_HTML.html#15,15,1920,937,1920,1080,8-22-2022,7-58-43,23,depth_duration_stimuli/003228_2014-05-14_13-42-35_094959634447_rgbf000101-resize_1/003228_2014-05-14_13-42-35_094959634447_rgbf000101-resize_1-target.png,1000,1.9680000000000002,3,2322,1026,feet,jsons/v1_VE1000_randls_36.json,568428,707649,41,Man
23,821848,DepthScenes,duration_manipulation_targetAtFixation,jsons/v1_VE1000_randls_36.json,http://54.235.29.9/FacialAge/BNav_EC2/DepthDuration/v2_depth_duration_MTurk/v2_DepthDuration_HTML.html#15,15,1920,937,1920,1080,8-22-2022,7-58-43,24,depth_duration_stimuli/001150_2014-06-17_15-27-34_260595134347_rgbf000108-resize_2/001150_2014-06-17_15-27-34_260595134347_rgbf000108-resize_2-target.png,1000,4.0325,9,3168,1002,feet,jsons/v1_VE1000_randls_36.json,568428,707649,41,Man
24,821848,DepthScenes,duration_manipulation_targetAtFixation,jsons/v1_VE1000_randls_36.json,http://54.235.29.9/FacialAge/BNav_EC2/DepthDuration/v2_depth_duration_MTurk/v2_DepthDuration_HTML.html#15,15,1920,937,1920,1080,8-22-2022,7-58-43,25,depth_duration_stimuli/000665_2014-06-09_20-42-35_260595134347_rgbf000110-resize_1/000665_2014-06-09_20-42-35_260595134347_rgbf000110-resize_1-target.png,1000,3.057,8,3018,1001,feet,jsons/v1_VE1000_randls_36.json,568428,707649,41,Man
25,821848,DepthScenes,duration_manipulation_targetAtFixation,jsons/v1_VE1000_randls_36.json,http://54.235.29.9/FacialAge/BNav_EC2/DepthDuration/v2_depth_duration_MTurk/v2_DepthDuration_HTML.html#15,15,1920,937,1920,1080,8-22-2022,7-58-43,26,depth_duration_stimuli/002043_2014-06-24_20-29-38_260595134347_rgbf000039-resize_4/002043_2014-06-24_20-29-38_260595134347_rgbf000039-resize_4-target.png,1000,2.8435,10,3653,1001,feet,jsons/v1_VE1000_randls_36.json,568428,707649,41,Man
26,821848,DepthScenes,duration_manipulation_targetAtFixation,jsons/v1_VE1000_randls_36.json,http://54.235.29.9/FacialAge/BNav_EC2/DepthDuration/v2_depth_duration_MTurk/v2_DepthDuration_HTML.html#15,15,1920,937,1920,1080,8-22-2022,7-58-43,27,depth_duration_stimuli/003048_2014-06-15_13-49-43_094959634447_rgbf000150-resize_1/003048_2014-06-15_13-49-43_094959634447_rgbf000150-resize_1-target.png,1000,4.0035,12,2839,995,feet,jsons/v1_VE1000_randls_36.json,568428,707649,41,Man
27,821848,DepthScenes,duration_manipulation_targetAtFixation,jsons/v1_VE1000_randls_36.json,http://54.235.29.9/FacialAge/BNav_EC2/DepthDuration/v2_depth_duration_MTurk/v2_DepthDuration_HTML.html#15,15,1920,937,1920,1080,8-22-2022,7-58-43,28,depth_duration_stimuli/003492_2014-05-21_15-50-55_094959634447_rgbf000828-resize_1/003492_2014-05-21_15-50-55_094959634447_rgbf000828-resize_1-target.png,1000,4.06875,15,2693,986,feet,jsons/v1_VE1000_randls_36.json,568428,707649,41,Man
28,821848,DepthScenes,duration_manipulation_targetAtFixation,jsons/v1_VE1000_randls_36.json,http://54.235.29.9/FacialAge/BNav_EC2/DepthDuration/v2_depth_duration_MTurk/v2_DepthDuration_HTML.html#15,15,1920,937,1920,1080,8-22-2022,7-58-43,29,depth_duration_stimuli/002568_2014-06-24_13-59-21_094959634447_rgbf000062-resize_4/002568_2014-06-24_13-59-21_094959634447_rgbf000062-resize_4-target.png,1000,3.015,8,2956,991,feet,jsons/v1_VE1000_randls_36.json,568428,707649,41,Man
29,821848,DepthScenes,duration_manipulation_targetAtFixation,jsons/v1_VE1000_randls_36.json,http://54.235.29.9/FacialAge/BNav_EC2/DepthDuration/v2_depth_duration_MTurk/v2_DepthDuration_HTML.html#15,15,1920,937,1920,1080,8-22-2022,7-58-43,30,depth_duration_stimuli/000375_2014-06-08_11-17-29_260595134347_rgbf000133-resize_2/000375_2014-06-08_11-17-29_260595134347_rgbf000133-resize-original.jpg,1000,4.718,0,2255,986,feet,jsons/v1_VE1000_randls_36.json,568428,707649,41,Man
30,821848,DepthScenes,duration_manipulation_targetAtFixation,jsons/v1_VE1000_randls_36.json,http://54.235.29.9/FacialAge/BNav_EC2/DepthDuration/v2_depth_duration_MTurk/v2_DepthDuration_HTML.html#15,15,1920,937,1920,1080,8-22-2022,7-58-43,31,depth_duration_stimuli/001055_2014-06-08_18-45-35_260595134347_rgbf000111-resize_4/001055_2014-06-08_18-45-35_260595134347_rgbf000111-resize_4-target.png,1000,2.4290000000000003,12,4001,1002,feet,jsons/v1_VE1000_randls_36.json,568428,707649,41,Man
31,821848,DepthScenes,duration_manipulation_targetAtFixation,jsons/v1_VE1000_randls_36.json,http://54.235.29.9/FacialAge/BNav_EC2/DepthDuration/v2_depth_duration_MTurk/v2_DepthDuration_HTML.html#15,15,1920,937,1920,1080,8-22-2022,7-58-43,32,depth_duration_stimuli/000549_2014-06-08_22-10-24_260595134347_rgbf000247-resize_3/000549_2014-06-08_22-10-24_260595134347_rgbf000247-resize_3-target.png,1000,1.841,2,2868,1010,feet,jsons/v1_VE1000_randls_36.json,568428,707649,41,Man
32,821848,DepthScenes,duration_manipulation_targetAtFixation,jsons/v1_VE1000_randls_36.json,http://54.235.29.9/FacialAge/BNav_EC2/DepthDuration/v2_depth_duration_MTurk/v2_DepthDuration_HTML.html#15,15,1920,937,1920,1080,8-22-2022,7-58-43,33,depth_duration_stimuli/001158_2014-06-17_15-32-16_260595134347_rgbf000138-resize_2/001158_2014-06-17_15-32-16_260595134347_rgbf000138-resize_2-target.png,1000,4.5315,12,2799,1000,feet,jsons/v1_VE1000_randls_36.json,568428,707649,41,Man
33,821848,DepthScenes,duration_manipulation_targetAtFixation,jsons/v1_VE1000_randls_36.json,http://54.235.29.9/FacialAge/BNav_EC2/DepthDuration/v2_depth_duration_MTurk/v2_DepthDuration_HTML.html#15,15,1920,937,1920,1080,8-22-2022,7-58-43,34,depth_duration_stimuli/000556_2014-06-09_22-42-56_260595134347_rgbf000214-resize_1/000556_2014-06-09_22-42-56_260595134347_rgbf000214-resize_1-target.png,1000,4.8415,12,3275,1013,feet,jsons/v1_VE1000_randls_36.json,568428,707649,41,Man
34,821848,DepthScenes,duration_manipulation_targetAtFixation,jsons/v1_VE1000_randls_36.json,http://54.235.29.9/FacialAge/BNav_EC2/DepthDuration/v2_depth_duration_MTurk/v2_DepthDuration_HTML.html#15,15,1920,937,1920,1080,8-22-2022,7-58-43,35,depth_duration_stimuli/000447_2014-06-08_16-15-46_260595134347_rgbf000130-resize_1/000447_2014-06-08_16-15-46_260595134347_rgbf000130-resize_1-target.png,1000,4.479,14,5659,1001,feet,jsons/v1_VE1000_randls_36.json,568428,707649,41,Man
35,821848,DepthScenes,duration_manipulation_targetAtFixation,jsons/v1_VE1000_randls_36.json,http://54.235.29.9/FacialAge/BNav_EC2/DepthDuration/v2_depth_duration_MTurk/v2_DepthDuration_HTML.html#15,15,1920,937,1920,1080,8-22-2022,7-58-43,36,depth_duration_stimuli/001447_2014-06-19_17-00-32_260595134347_rgbf000082-resize_5/001447_2014-06-19_17-00-32_260595134347_rgbf000082-resize_5-target.png,1000,4.13775,6,2574,1004,feet,jsons/v1_VE1000_randls_36.json,568428,707649,41,Man
36,821848,DepthScenes,duration_manipulation_targetAtFixation,jsons/v1_VE1000_randls_36.json,http://54.235.29.9/FacialAge/BNav_EC2/DepthDuration/v2_depth_duration_MTurk/v2_DepthDuration_HTML.html#15,15,1920,937,1920,1080,8-22-2022,7-58-43,37,depth_duration_stimuli/001806_2014-06-26_20-50-20_260595134347_rgbf000091-resize_1/001806_2014-06-26_20-50-20_260595134347_rgbf000091-resize_1-target.png,1000,2.7305,5,2215,1006,feet,jsons/v1_VE1000_randls_36.json,568428,707649,41,Man
37,821848,DepthScenes,duration_manipulation_targetAtFixation,jsons/v1_VE1000_randls_36.json,http://54.235.29.9/FacialAge/BNav_EC2/DepthDuration/v2_depth_duration_MTurk/v2_DepthDuration_HTML.html#15,15,1920,937,1920,1080,8-22-2022,7-58-43,38,depth_duration_stimuli/001617_2014-06-20_11-35-32_260595134347_rgbf000066-resize_1/001617_2014-06-20_11-35-32_260595134347_rgbf000066-resize_1-target.png,1000,3.7910000000000004,8,3864,998,feet,jsons/v1_VE1000_randls_36.json,568428,707649,41,Man
38,821848,DepthScenes,duration_manipulation_targetAtFixation,jsons/v1_VE1000_randls_36.json,http://54.235.29.9/FacialAge/BNav_EC2/DepthDuration/v2_depth_duration_MTurk/v2_DepthDuration_HTML.html#15,15,1920,937,1920,1080,8-22-2022,7-58-43,39,depth_duration_stimuli/002988_2014-06-15_12-24-20_094959634447_rgbf000150-resize_1/002988_2014-06-15_12-24-20_094959634447_rgbf000150-resize_1-target.png,1000,4.7669999999999995,13,3297,999,feet,jsons/v1_VE1000_randls_36.json,568428,707649,41,Man
39,821848,DepthScenes,duration_manipulation_targetAtFixation,jsons/v1_VE1000_randls_36.json,http://54.235.29.9/FacialAge/BNav_EC2/DepthDuration/v2_depth_duration_MTurk/v2_DepthDuration_HTML.html#15,15,1920,937,1920,1080,8-22-2022,7-58-43,40,depth_duration_stimuli/001052_2014-06-08_18-24-54_260595134347_rgbf000130-resize_1/001052_2014-06-08_18-24-54_260595134347_rgbf000130-resize_1-target.png,1000,4.1045,12,2497,1007,feet,jsons/v1_VE1000_randls_36.json,568428,707649,41,Man
40,821848,DepthScenes,duration_manipulation_targetAtFixation,jsons/v1_VE1000_randls_36.json,http://54.235.29.9/FacialAge/BNav_EC2/DepthDuration/v2_depth_duration_MTurk/v2_DepthDuration_HTML.html#15,15,1920,937,1920,1080,8-22-2022,7-58-43,41,depth_duration_stimuli/001056_2014-06-08_18-46-44_260595134347_rgbf000068-resize_0/001056_2014-06-08_18-46-44_260595134347_rgbf000068-resize_0-target.png,1000,2.6625,7,3428,1004,feet,jsons/v1_VE1000_randls_36.json,568428,707649,41,Man
41,821848,DepthScenes,duration_manipulation_targetAtFixation,jsons/v1_VE1000_randls_36.json,http://54.235.29.9/FacialAge/BNav_EC2/DepthDuration/v2_depth_duration_MTurk/v2_DepthDuration_HTML.html#15,15,1920,937,1920,1080,8-22-2022,7-58-43,42,depth_duration_stimuli/002199_2014-06-28_18-33-56_260595134347_rgbf000074-resize_0/002199_2014-06-28_18-33-56_260595134347_rgbf000074-resize_0-target.png,1000,1.996,3,3282,993,feet,jsons/v1_VE1000_randls_36.json,568428,707649,41,Man
42,821848,DepthScenes,duration_manipulation_targetAtFixation,jsons/v1_VE1000_randls_36.json,http://54.235.29.9/FacialAge/BNav_EC2/DepthDuration/v2_depth_duration_MTurk/v2_DepthDuration_HTML.html#15,15,1920,937,1920,1080,8-22-2022,7-58-43,43,depth_duration_stimuli/002509_2014-06-24_13-19-22_094959634447_rgbf000077-resize_0/002509_2014-06-24_13-19-22_094959634447_rgbf000077-resize_0-target.png,1000,1.3065,2,2401,1002,feet,jsons/v1_VE1000_randls_36.json,568428,707649,41,Man
43,821848,DepthScenes,duration_manipulation_targetAtFixation,jsons/v1_VE1000_randls_36.json,http://54.235.29.9/FacialAge/BNav_EC2/DepthDuration/v2_depth_duration_MTurk/v2_DepthDuration_HTML.html#15,15,1920,937,1920,1080,8-22-2022,7-58-43,44,depth_duration_stimuli/003338_2014-05-20_11-01-23_094959634447_rgbf000051-resize_6/003338_2014-05-20_11-01-23_094959634447_rgbf000051-resize_6-target.png,1000,1.693,3,2526,995,feet,jsons/v1_VE1000_randls_36.json,568428,707649,41,Man
44,821848,DepthScenes,duration_manipulation_targetAtFixation,jsons/v1_VE1000_randls_36.json,http://54.235.29.9/FacialAge/BNav_EC2/DepthDuration/v2_depth_duration_MTurk/v2_DepthDuration_HTML.html#15,15,1920,937,1920,1080,8-22-2022,7-58-43,45,depth_duration_stimuli/000787_2014-06-08_22-33-53_260595134347_rgbf000175-resize_1/000787_2014-06-08_22-33-53_260595134347_rgbf000175-resize-original.jpg,1000,4.784,0,2402,999,feet,jsons/v1_VE1000_randls_36.json,568428,707649,41,Man
45,821848,DepthScenes,duration_manipulation_targetAtFixation,jsons/v1_VE1000_randls_36.json,http://54.235.29.9/FacialAge/BNav_EC2/DepthDuration/v2_depth_duration_MTurk/v2_DepthDuration_HTML.html#15,15,1920,937,1920,1080,8-22-2022,7-58-43,46,depth_duration_stimuli/001066_2014-06-08_22-03-20_260595134347_rgbf000066-resize_4/001066_2014-06-08_22-03-20_260595134347_rgbf000066-resize_4-target.png,1000,4.2330000000000005,14,2851,998,feet,jsons/v1_VE1000_randls_36.json,568428,707649,41,Man
46,821848,DepthScenes,duration_manipulation_targetAtFixation,jsons/v1_VE1000_randls_36.json,http://54.235.29.9/FacialAge/BNav_EC2/DepthDuration/v2_depth_duration_MTurk/v2_DepthDuration_HTML.html#15,15,1920,937,1920,1080,8-22-2022,7-58-43,47,depth_duration_stimuli/000742_2014-06-08_18-48-09_260595134347_rgbf000164-resize_4/000742_2014-06-08_18-48-09_260595134347_rgbf000164-resize_4-target.png,1000,4.632,10,3186,1001,feet,jsons/v1_VE1000_randls_36.json,568428,707649,41,Man
47,821848,DepthScenes,duration_manipulation_targetAtFixation,jsons/v1_VE1000_randls_36.json,http://54.235.29.9/FacialAge/BNav_EC2/DepthDuration/v2_depth_duration_MTurk/v2_DepthDuration_HTML.html#15,15,1920,937,1920,1080,8-22-2022,7-58-43,48,depth_duration_stimuli/000739_2014-06-08_18-45-58_260595134347_rgbf000068-resize_1/000739_2014-06-08_18-45-58_260595134347_rgbf000068-resize_1-target.png,1000,3.534,8,2535,984,feet,jsons/v1_VE1000_randls_36.json,568428,707649,41,Man
48,821848,DepthScenes,duration_manipulation_targetAtFixation,jsons/v1_VE1000_randls_36.json,http://54.235.29.9/FacialAge/BNav_EC2/DepthDuration/v2_depth_duration_MTurk/v2_DepthDuration_HTML.html#15,15,1920,937,1920,1080,8-22-2022,7-58-43,49,depth_duration_stimuli/000734_2014-06-08_17-39-11_260595134347_rgbf000128-resize_2/000734_2014-06-08_17-39-11_260595134347_rgbf000128-resize_2-target.png,1000,4.098,6,2478,984,feet,jsons/v1_VE1000_randls_36.json,568428,707649,41,Man
49,821848,DepthScenes,duration_manipulation_targetAtFixation,jsons/v1_VE1000_randls_36.json,http://54.235.29.9/FacialAge/BNav_EC2/DepthDuration/v2_depth_duration_MTurk/v2_DepthDuration_HTML.html#15,15,1920,937,1920,1080,8-22-2022,7-58-43,50,depth_duration_stimuli/001449_2014-06-19_17-01-27_260595134347_rgbf000116-resize_2/001449_2014-06-19_17-01-27_260595134347_rgbf000116-resize_2-target.png,1000,3.452,5,2458,1013,feet,jsons/v1_VE1000_randls_36.json,568428,707649,41,Man
50,821848,DepthScenes,duration_manipulation_targetAtFixation,jsons/v1_VE1000_randls_36.json,http://54.235.29.9/FacialAge/BNav_EC2/DepthDuration/v2_depth_duration_MTurk/v2_DepthDuration_HTML.html#15,15,1920,937,1920,1080,8-22-2022,7-58-43,51,depth_duration_stimuli/001450_2014-06-19_17-02-03_260595134347_rgbf000203-resize_4/001450_2014-06-19_17-02-03_260595134347_rgbf000203-resize_4-target.png,1000,4.0106666666667,9,3983,998,feet,jsons/v1_VE1000_randls_36.json,568428,707649,41,Man
51,821848,DepthScenes,duration_manipulation_targetAtFixation,jsons/v1_VE1000_randls_36.json,http://54.235.29.9/FacialAge/BNav_EC2/DepthDuration/v2_depth_duration_MTurk/v2_DepthDuration_HTML.html#15,15,1920,937,1920,1080,8-22-2022,7-58-43,52,depth_duration_stimuli/001164_2014-06-17_15-35-46_260595134347_rgbf000085-resize_3/001164_2014-06-17_15-35-46_260595134347_rgbf000085-resize_3-target.png,1000,2.354,5,2785,999,feet,jsons/v1_VE1000_randls_36.json,568428,707649,41,Man
52,821848,DepthScenes,duration_manipulation_targetAtFixation,jsons/v1_VE1000_randls_36.json,http://54.235.29.9/FacialAge/BNav_EC2/DepthDuration/v2_depth_duration_MTurk/v2_DepthDuration_HTML.html#15,15,1920,937,1920,1080,8-22-2022,7-58-43,53,depth_duration_stimuli/001136_2014-06-17_15-19-41_260595134347_rgbf000076-resize_3/001136_2014-06-17_15-19-41_260595134347_rgbf000076-resize_3-target.png,1000,1.8655,4,2318,995,feet,jsons/v1_VE1000_randls_36.json,568428,707649,41,Man
53,821848,DepthScenes,duration_manipulation_targetAtFixation,jsons/v1_VE1000_randls_36.json,http://54.235.29.9/FacialAge/BNav_EC2/DepthDuration/v2_depth_duration_MTurk/v2_DepthDuration_HTML.html#15,15,1920,937,1920,1080,8-22-2022,7-58-43,54,depth_duration_stimuli/001110_2014-06-15_17-25-28_260595134347_rgbf000150-resize_1/001110_2014-06-15_17-25-28_260595134347_rgbf000150-resize_1-target.png,1000,1.7115,4,2306,1025,feet,jsons/v1_VE1000_randls_36.json,568428,707649,41,Man
54,821848,DepthScenes,duration_manipulation_targetAtFixation,jsons/v1_VE1000_randls_36.json,http://54.235.29.9/FacialAge/BNav_EC2/DepthDuration/v2_depth_duration_MTurk/v2_DepthDuration_HTML.html#15,15,1920,937,1920,1080,8-22-2022,7-58-43,55,depth_duration_stimuli/000927_2014-06-09_16-32-30_260595134347_rgbf000123-resize_3/000927_2014-06-09_16-32-30_260595134347_rgbf000123-resize_3-target.png,1000,2.6785,7,2303,1000,feet,jsons/v1_VE1000_randls_36.json,568428,707649,41,Man
55,821848,DepthScenes,duration_manipulation_targetAtFixation,jsons/v1_VE1000_randls_36.json,http://54.235.29.9/FacialAge/BNav_EC2/DepthDuration/v2_depth_duration_MTurk/v2_DepthDuration_HTML.html#15,15,1920,937,1920,1080,8-22-2022,7-58-43,56,depth_duration_stimuli/001133_2014-06-17_14-49-16_260595134347_rgbf000100-resize_0/001133_2014-06-17_14-49-16_260595134347_rgbf000100-resize_0-target.png,1000,4.2115,14,2966,986,feet,jsons/v1_VE1000_randls_36.json,568428,707649,41,Man
56,821848,DepthScenes,duration_manipulation_targetAtFixation,jsons/v1_VE1000_randls_36.json,http://54.235.29.9/FacialAge/BNav_EC2/DepthDuration/v2_depth_duration_MTurk/v2_DepthDuration_HTML.html#15,15,1920,937,1920,1080,8-22-2022,7-58-43,57,depth_duration_stimuli/001132_2014-06-17_14-48-54_260595134347_rgbf000100-resize_2/001132_2014-06-17_14-48-54_260595134347_rgbf000100-resize_2-target.png,1000,3.753,7,3014,995,feet,jsons/v1_VE1000_randls_36.json,568428,707649,41,Man
57,821848,DepthScenes,duration_manipulation_targetAtFixation,jsons/v1_VE1000_randls_36.json,http://54.235.29.9/FacialAge/BNav_EC2/DepthDuration/v2_depth_duration_MTurk/v2_DepthDuration_HTML.html#15,15,1920,937,1920,1080,8-22-2022,7-58-43,58,depth_duration_stimuli/000506_2014-06-08_23-21-00_260595134347_rgbf000070-resize_7/000506_2014-06-08_23-21-00_260595134347_rgbf000070-resize_7-target.png,1000,4.0585,9,3687,1003,feet,jsons/v1_VE1000_randls_36.json,568428,707649,41,Man
58,821848,DepthScenes,duration_manipulation_targetAtFixation,jsons/v1_VE1000_randls_36.json,http://54.235.29.9/FacialAge/BNav_EC2/DepthDuration/v2_depth_duration_MTurk/v2_DepthDuration_HTML.html#15,15,1920,937,1920,1080,8-22-2022,7-58-43,59,depth_duration_stimuli/003079_2014-06-15_15-18-20_094959634447_rgbf000152-resize_8/003079_2014-06-15_15-18-20_094959634447_rgbf000152-resize_8-target.png,1000,2.8775,10,3755,1001,feet,jsons/v1_VE1000_randls_36.json,568428,707649,41,Man
59,821848,DepthScenes,duration_manipulation_targetAtFixation,jsons/v1_VE1000_randls_36.json,http://54.235.29.9/FacialAge/BNav_EC2/DepthDuration/v2_depth_duration_MTurk/v2_DepthDuration_HTML.html#15,15,1920,937,1920,1080,8-22-2022,7-58-43,60,depth_duration_stimuli/001011_2014-06-08_23-18-54_260595134347_rgbf000044-resize_4/001011_2014-06-08_23-18-54_260595134347_rgbf000044-resize_4-target.png,1000,2.4730000000000003,5,2825,1002,feet,jsons/v1_VE1000_randls_36.json,568428,707649,41,Man
60,821848,DepthScenes,duration_manipulation_targetAtFixation,jsons/v1_VE1000_randls_36.json,http://54.235.29.9/FacialAge/BNav_EC2/DepthDuration/v2_depth_duration_MTurk/v2_DepthDuration_HTML.html#15,15,1920,937,1920,1080,8-22-2022,7-58-43,61,depth_duration_stimuli/002875_2014-06-01_15-19-00_094959634447_rgbf000151-resize_1/002875_2014-06-01_15-19-00_094959634447_rgbf000151-resize_1-target.png,1000,1.9675,3,2476,1001,feet,jsons/v1_VE1000_randls_36.json,568428,707649,41,Man
61,821848,DepthScenes,duration_manipulation_targetAtFixation,jsons/v1_VE1000_randls_36.json,http://54.235.29.9/FacialAge/BNav_EC2/DepthDuration/v2_depth_duration_MTurk/v2_DepthDuration_HTML.html#15,15,1920,937,1920,1080,8-22-2022,7-58-43,62,depth_duration_stimuli/001059_2014-06-08_21-53-27_260595134347_rgbf000061-resize_4/001059_2014-06-08_21-53-27_260595134347_rgbf000061-resize_4-target.png,1000,2.4185,7,2558,999,feet,jsons/v1_VE1000_randls_36.json,568428,707649,41,Man
62,821848,DepthScenes,duration_manipulation_targetAtFixation,jsons/v1_VE1000_randls_36.json,http://54.235.29.9/FacialAge/BNav_EC2/DepthDuration/v2_depth_duration_MTurk/v2_DepthDuration_HTML.html#15,15,1920,937,1920,1080,8-22-2022,7-58-43,63,depth_duration_stimuli/001032_2014-06-08_13-23-17_260595134347_rgbf000021-resize_3/001032_2014-06-08_13-23-17_260595134347_rgbf000021-resize_3-target.png,1000,3.2725,5,2345,989,feet,jsons/v1_VE1000_randls_36.json,568428,707649,41,Man
63,821848,DepthScenes,duration_manipulation_targetAtFixation,jsons/v1_VE1000_randls_36.json,http://54.235.29.9/FacialAge/BNav_EC2/DepthDuration/v2_depth_duration_MTurk/v2_DepthDuration_HTML.html#15,15,1920,937,1920,1080,8-22-2022,7-58-43,64,depth_duration_stimuli/001417_2014-06-19_16-25-36_260595134347_rgbf000115-resize_5/001417_2014-06-19_16-25-36_260595134347_rgbf000115-resize_5-target.png,1000,4.6255,9,2793,1006,feet,jsons/v1_VE1000_randls_36.json,568428,707649,41,Man
64,821848,DepthScenes,duration_manipulation_targetAtFixation,jsons/v1_VE1000_randls_36.json,http://54.235.29.9/FacialAge/BNav_EC2/DepthDuration/v2_depth_duration_MTurk/v2_DepthDuration_HTML.html#15,15,1920,937,1920,1080,8-22-2022,7-58-43,65,depth_duration_stimuli/003081_2014-06-15_15-19-16_094959634447_rgbf000150-resize_1/003081_2014-06-15_15-19-16_094959634447_rgbf000150-resize_1-target.png,1000,3.9125,9,3668,1013,feet,jsons/v1_VE1000_randls_36.json,568428,707649,41,Man
65,821848,DepthScenes,duration_manipulation_targetAtFixation,jsons/v1_VE1000_randls_36.json,http://54.235.29.9/FacialAge/BNav_EC2/DepthDuration/v2_depth_duration_MTurk/v2_DepthDuration_HTML.html#15,15,1920,937,1920,1080,8-22-2022,7-58-43,66,depth_duration_stimuli/001222_2014-06-17_16-24-06_260595134347_rgbf000073-resize_0/001222_2014-06-17_16-24-06_260595134347_rgbf000073-resize-original.jpg,1000,1.4385,0,3813,1000,feet,jsons/v1_VE1000_randls_36.json,568428,707649,41,Man
66,821848,DepthScenes,duration_manipulation_targetAtFixation,jsons/v1_VE1000_randls_36.json,http://54.235.29.9/FacialAge/BNav_EC2/DepthDuration/v2_depth_duration_MTurk/v2_DepthDuration_HTML.html#15,15,1920,937,1920,1080,8-22-2022,7-58-43,67,depth_duration_stimuli/002118_2014-06-25_20-32-08_260595134347_rgbf000078-resize_1/002118_2014-06-25_20-32-08_260595134347_rgbf000078-resize_1-target.png,1000,2.6460000000000004,5,3310,1002,feet,jsons/v1_VE1000_randls_36.json,568428,707649,41,Man
67,821848,DepthScenes,duration_manipulation_targetAtFixation,jsons/v1_VE1000_randls_36.json,http://54.235.29.9/FacialAge/BNav_EC2/DepthDuration/v2_depth_duration_MTurk/v2_DepthDuration_HTML.html#15,15,1920,937,1920,1080,8-22-2022,7-58-43,68,depth_duration_stimuli/001516_2014-06-20_16-25-09_260595134347_rgbf000076-resize_2/001516_2014-06-20_16-25-09_260595134347_rgbf000076-resize_2-target.png,1000,1.7445,4,2727,1004,feet,jsons/v1_VE1000_randls_36.json,568428,707649,41,Man
68,821848,DepthScenes,duration_manipulation_targetAtFixation,jsons/v1_VE1000_randls_36.json,http://54.235.29.9/FacialAge/BNav_EC2/DepthDuration/v2_depth_duration_MTurk/v2_DepthDuration_HTML.html#15,15,1920,937,1920,1080,8-22-2022,7-58-43,69,depth_duration_stimuli/002725_2014-06-22_11-47-51_094959634447_rgbf000070-resize_1/002725_2014-06-22_11-47-51_094959634447_rgbf000070-resize_1-target.png,1000,2.195,6,2873,1011,feet,jsons/v1_VE1000_randls_36.json,568428,707649,41,Man
69,821848,DepthScenes,duration_manipulation_targetAtFixation,jsons/v1_VE1000_randls_36.json,http://54.235.29.9/FacialAge/BNav_EC2/DepthDuration/v2_depth_duration_MTurk/v2_DepthDuration_HTML.html#15,15,1920,937,1920,1080,8-22-2022,7-58-43,70,depth_duration_stimuli/002344_2014-06-28_20-06-29_260595134347_rgbf000030-resize_1/002344_2014-06-28_20-06-29_260595134347_rgbf000030-resize_1-target.png,1000,1.5795,1,2265,990,feet,jsons/v1_VE1000_randls_36.json,568428,707649,41,Man
70,821848,DepthScenes,duration_manipulation_targetAtFixation,jsons/v1_VE1000_randls_36.json,http://54.235.29.9/FacialAge/BNav_EC2/DepthDuration/v2_depth_duration_MTurk/v2_DepthDuration_HTML.html#15,15,1920,937,1920,1080,8-22-2022,7-58-43,71,depth_duration_stimuli/002279_2014-06-28_18-55-32_260595134347_rgbf000040-resize_5/002279_2014-06-28_18-55-32_260595134347_rgbf000040-resize_5-target.png,1000,1.5043333333333,2,2186,994,feet,jsons/v1_VE1000_randls_36.json,568428,707649,41,Man
71,821848,DepthScenes,duration_manipulation_targetAtFixation,jsons/v1_VE1000_randls_36.json,http://54.235.29.9/FacialAge/BNav_EC2/DepthDuration/v2_depth_duration_MTurk/v2_DepthDuration_HTML.html#15,15,1920,937,1920,1080,8-22-2022,7-58-43,72,depth_duration_stimuli/000635_2014-06-08_16-38-42_260595134347_rgbf000106-resize_1/000635_2014-06-08_16-38-42_260595134347_rgbf000106-resize_1-target.png,1000,2.074,5,2931,999,feet,jsons/v1_VE1000_randls_36.json,568428,707649,41,Man
72,821848,DepthScenes,duration_manipulation_targetAtFixation,jsons/v1_VE1000_randls_36.json,http://54.235.29.9/FacialAge/BNav_EC2/DepthDuration/v2_depth_duration_MTurk/v2_DepthDuration_HTML.html#15,15,1920,937,1920,1080,8-22-2022,7-58-43,73,depth_duration_stimuli/000758_2014-06-08_22-05-08_260595134347_rgbf000085-resize_0/000758_2014-06-08_22-05-08_260595134347_rgbf000085-resize_0-target.png,1000,3.3810000000000002,10,3700,1007,feet,jsons/v1_VE1000_randls_36.json,568428,707649,41,Man
73,821848,DepthScenes,duration_manipulation_targetAtFixation,jsons/v1_VE1000_randls_36.json,http://54.235.29.9/FacialAge/BNav_EC2/DepthDuration/v2_depth_duration_MTurk/v2_DepthDuration_HTML.html#15,15,1920,937,1920,1080,8-22-2022,7-58-43,74,depth_duration_stimuli/000854_2014-06-09_19-43-13_260595134347_rgbf000066-resize_0/000854_2014-06-09_19-43-13_260595134347_rgbf000066-resize_0-target.png,1000,3.068,3,2239,1001,feet,jsons/v1_VE1000_randls_36.json,568428,707649,41,Man
74,821848,DepthScenes,duration_manipulation_targetAtFixation,jsons/v1_VE1000_randls_36.json,http://54.235.29.9/FacialAge/BNav_EC2/DepthDuration/v2_depth_duration_MTurk/v2_DepthDuration_HTML.html#15,15,1920,937,1920,1080,8-22-2022,7-58-43,75,depth_duration_stimuli/001810_2014-06-26_20-51-35_260595134347_rgbf000040-resize_3/001810_2014-06-26_20-51-35_260595134347_rgbf000040-resize_3-target.png,1000,2.2525,4,2329,1002,feet,jsons/v1_VE1000_randls_36.json,568428,707649,41,Man
75,821848,DepthScenes,duration_manipulation_targetAtFixation,jsons/v1_VE1000_randls_36.json,http://54.235.29.9/FacialAge/BNav_EC2/DepthDuration/v2_depth_duration_MTurk/v2_DepthDuration_HTML.html#15,15,1920,937,1920,1080,8-22-2022,7-58-43,76,depth_duration_stimuli/003010_2014-06-15_12-54-35_094959634447_rgbf000112-resize_0/003010_2014-06-15_12-54-35_094959634447_rgbf000112-resize_0-target.png,1000,3.1185,8,3501,990,feet,jsons/v1_VE1000_randls_36.json,568428,707649,41,Man
76,821848,DepthScenes,duration_manipulation_targetAtFixation,jsons/v1_VE1000_randls_36.json,http://54.235.29.9/FacialAge/BNav_EC2/DepthDuration/v2_depth_duration_MTurk/v2_DepthDuration_HTML.html#15,15,1920,937,1920,1080,8-22-2022,7-58-43,77,depth_duration_stimuli/000906_2014-06-08_13-35-43_260595134347_rgbf000155-resize_1/000906_2014-06-08_13-35-43_260595134347_rgbf000155-resize_1-target.png,1000,2.8489999999999998,8,2580,982,feet,jsons/v1_VE1000_randls_36.json,568428,707649,41,Man
77,821848,DepthScenes,duration_manipulation_targetAtFixation,jsons/v1_VE1000_randls_36.json,http://54.235.29.9/FacialAge/BNav_EC2/DepthDuration/v2_depth_duration_MTurk/v2_DepthDuration_HTML.html#15,15,1920,937,1920,1080,8-22-2022,7-58-43,78,depth_duration_stimuli/002805_2014-06-22_19-54-03_094959634447_rgbf000079-resize_1/002805_2014-06-22_19-54-03_094959634447_rgbf000079-resize_1-target.png,1000,3.1439999999999997,9,3122,1000,feet,jsons/v1_VE1000_randls_36.json,568428,707649,41,Man
78,821848,DepthScenes,duration_manipulation_targetAtFixation,jsons/v1_VE1000_randls_36.json,http://54.235.29.9/FacialAge/BNav_EC2/DepthDuration/v2_depth_duration_MTurk/v2_DepthDuration_HTML.html#15,15,1920,937,1920,1080,8-22-2022,7-58-43,79,depth_duration_stimuli/001092_2014-06-15_17-34-58_260595134347_rgbf000171-resize_3/001092_2014-06-15_17-34-58_260595134347_rgbf000171-resize_3-target.png,1000,2.6935,5,2294,981,feet,jsons/v1_VE1000_randls_36.json,568428,707649,41,Man
79,821848,DepthScenes,duration_manipulation_targetAtFixation,jsons/v1_VE1000_randls_36.json,http://54.235.29.9/FacialAge/BNav_EC2/DepthDuration/v2_depth_duration_MTurk/v2_DepthDuration_HTML.html#15,15,1920,937,1920,1080,8-22-2022,7-58-43,80,depth_duration_stimuli/002545_2014-06-24_13-38-53_094959634447_rgbf000080-resize_4/002545_2014-06-24_13-38-53_094959634447_rgbf000080-resize_4-target.png,1000,1.9205,4,2470,1010,feet,jsons/v1_VE1000_randls_36.json,568428,707649,41,Man
80,821848,DepthScenes,duration_manipulation_targetAtFixation,jsons/v1_VE1000_randls_36.json,http://54.235.29.9/FacialAge/BNav_EC2/DepthDuration/v2_depth_duration_MTurk/v2_DepthDuration_HTML.html#15,15,1920,937,1920,1080,8-22-2022,7-58-43,81,depth_duration_stimuli/002763_2014-06-22_19-13-10_094959634447_rgbf000075-resize_4/002763_2014-06-22_19-13-10_094959634447_rgbf000075-resize_4-target.png,1000,1.68375,3,4269,992,feet,jsons/v1_VE1000_randls_36.json,568428,707649,41,Man
81,821848,DepthScenes,duration_manipulation_targetAtFixation,jsons/v1_VE1000_randls_36.json,http://54.235.29.9/FacialAge/BNav_EC2/DepthDuration/v2_depth_duration_MTurk/v2_DepthDuration_HTML.html#15,15,1920,937,1920,1080,8-22-2022,7-58-43,82,depth_duration_stimuli/002209_2014-06-28_18-36-10_260595134347_rgbf000051-resize_1/002209_2014-06-28_18-36-10_260595134347_rgbf000051-resize_1-target.png,1000,2.057,4,3000,1001,feet,jsons/v1_VE1000_randls_36.json,568428,707649,41,Man
82,821848,DepthScenes,duration_manipulation_targetAtFixation,jsons/v1_VE1000_randls_36.json,http://54.235.29.9/FacialAge/BNav_EC2/DepthDuration/v2_depth_duration_MTurk/v2_DepthDuration_HTML.html#15,15,1920,937,1920,1080,8-22-2022,7-58-43,83,depth_duration_stimuli/002989_2014-06-15_12-25-03_094959634447_rgbf000150-resize_3/002989_2014-06-15_12-25-03_094959634447_rgbf000150-resize_3-target.png,1000,4.1975,15,3246,1002,feet,jsons/v1_VE1000_randls_36.json,568428,707649,41,Man
83,821848,DepthScenes,duration_manipulation_targetAtFixation,jsons/v1_VE1000_randls_36.json,http://54.235.29.9/FacialAge/BNav_EC2/DepthDuration/v2_depth_duration_MTurk/v2_DepthDuration_HTML.html#15,15,1920,937,1920,1080,8-22-2022,7-58-43,84,depth_duration_stimuli/000866_2014-06-09_20-45-42_260595134347_rgbf000139-resize_1/000866_2014-06-09_20-45-42_260595134347_rgbf000139-resize_1-target.png,1000,3.2155,5,2475,1013,feet,jsons/v1_VE1000_randls_36.json,568428,707649,41,Man
84,821848,DepthScenes,duration_manipulation_targetAtFixation,jsons/v1_VE1000_randls_36.json,http://54.235.29.9/FacialAge/BNav_EC2/DepthDuration/v2_depth_duration_MTurk/v2_DepthDuration_HTML.html#15,15,1920,937,1920,1080,8-22-2022,7-58-43,85,depth_duration_stimuli/002784_2014-06-22_19-26-30_094959634447_rgbf000083-resize_3/002784_2014-06-22_19-26-30_094959634447_rgbf000083-resize_3-target.png,1000,1.8046666666667,3,2545,989,feet,jsons/v1_VE1000_randls_36.json,568428,707649,41,Man
85,821848,DepthScenes,duration_manipulation_targetAtFixation,jsons/v1_VE1000_randls_36.json,http://54.235.29.9/FacialAge/BNav_EC2/DepthDuration/v2_depth_duration_MTurk/v2_DepthDuration_HTML.html#15,15,1920,937,1920,1080,8-22-2022,7-58-43,86,depth_duration_stimuli/001100_2014-06-15_17-46-26_260595134347_rgbf000225-resize_2/001100_2014-06-15_17-46-26_260595134347_rgbf000225-resize_2-target.png,1000,2.24,3,2167,1013,feet,jsons/v1_VE1000_randls_36.json,568428,707649,41,Man
86,821848,DepthScenes,duration_manipulation_targetAtFixation,jsons/v1_VE1000_randls_36.json,http://54.235.29.9/FacialAge/BNav_EC2/DepthDuration/v2_depth_duration_MTurk/v2_DepthDuration_HTML.html#15,15,1920,937,1920,1080,8-22-2022,7-58-43,87,depth_duration_stimuli/000414_2014-06-04_19-49-13_260595134347_rgbf000044-resize_0/000414_2014-06-04_19-49-13_260595134347_rgbf000044-resize_0-target.png,1000,4.329,11,2601,994,feet,jsons/v1_VE1000_randls_36.json,568428,707649,41,Man
87,821848,DepthScenes,duration_manipulation_targetAtFixation,jsons/v1_VE1000_randls_36.json,http://54.235.29.9/FacialAge/BNav_EC2/DepthDuration/v2_depth_duration_MTurk/v2_DepthDuration_HTML.html#15,15,1920,937,1920,1080,8-22-2022,7-58-43,88,depth_duration_stimuli/003129_2014-05-12_10-48-10_094959634447_rgbf000100-resize_0/003129_2014-05-12_10-48-10_094959634447_rgbf000100-resize_0-target.png,1000,4.9305,12,2514,1015,feet,jsons/v1_VE1000_randls_36.json,568428,707649,41,Man
88,821848,DepthScenes,duration_manipulation_targetAtFixation,jsons/v1_VE1000_randls_36.json,http://54.235.29.9/FacialAge/BNav_EC2/DepthDuration/v2_depth_duration_MTurk/v2_DepthDuration_HTML.html#15,15,1920,937,1920,1080,8-22-2022,7-58-43,89,depth_duration_stimuli/000469_2014-06-09_19-42-10_260595134347_rgbf000081-resize_1/000469_2014-06-09_19-42-10_260595134347_rgbf000081-resize_1-target.png,1000,1.652,3,2289,1000,feet,jsons/v1_VE1000_randls_36.json,568428,707649,41,Man
89,821848,DepthScenes,duration_manipulation_targetAtFixation,jsons/v1_VE1000_randls_36.json,http://54.235.29.9/FacialAge/BNav_EC2/DepthDuration/v2_depth_duration_MTurk/v2_DepthDuration_HTML.html#15,15,1920,937,1920,1080,8-22-2022,7-58-43,90,depth_duration_stimuli/000483_2014-06-09_20-41-45_260595134347_rgbf000116-resize_4/000483_2014-06-09_20-41-45_260595134347_rgbf000116-resize_4-target.png,1000,1.337,2,2269,1005,feet,jsons/v1_VE1000_randls_36.json,568428,707649,41,Man
90,821848,DepthScenes,duration_manipulation_targetAtFixation,jsons/v1_VE1000_randls_36.json,http://54.235.29.9/FacialAge/BNav_EC2/DepthDuration/v2_depth_duration_MTurk/v2_DepthDuration_HTML.html#15,15,1920,937,1920,1080,8-22-2022,7-58-43,91,depth_duration_stimuli/000878_2014-06-08_22-52-45_260595134347_rgbf000045-resize_2/000878_2014-06-08_22-52-45_260595134347_rgbf000045-resize_2-target.png,1000,2.092,6,2638,972,feet,jsons/v1_VE1000_randls_36.json,568428,707649,41,Man
91,821848,DepthScenes,duration_manipulation_targetAtFixation,jsons/v1_VE1000_randls_36.json,http://54.235.29.9/FacialAge/BNav_EC2/DepthDuration/v2_depth_duration_MTurk/v2_DepthDuration_HTML.html#15,15,1920,937,1920,1080,8-22-2022,7-58-43,92,depth_duration_stimuli/002953_2014-06-08_17-32-18_094959634447_rgbf000059-resize_5/002953_2014-06-08_17-32-18_094959634447_rgbf000059-resize_5-target.png,1000,1.551,3,2889,999,feet,jsons/v1_VE1000_randls_36.json,568428,707649,41,Man
92,821848,DepthScenes,duration_manipulation_targetAtFixation,jsons/v1_VE1000_randls_36.json,http://54.235.29.9/FacialAge/BNav_EC2/DepthDuration/v2_depth_duration_MTurk/v2_DepthDuration_HTML.html#15,15,1920,937,1920,1080,8-22-2022,7-58-43,93,depth_duration_stimuli/000009_2014-05-26_14-32-05_260595134347_rgbf000034-resize_3/000009_2014-05-26_14-32-05_260595134347_rgbf000034-resize_3-target.png,1000,3.8715,14,3406,1002,feet,jsons/v1_VE1000_randls_36.json,568428,707649,41,Man
93,821848,DepthScenes,duration_manipulation_targetAtFixation,jsons/v1_VE1000_randls_36.json,http://54.235.29.9/FacialAge/BNav_EC2/DepthDuration/v2_depth_duration_MTurk/v2_DepthDuration_HTML.html#15,15,1920,937,1920,1080,8-22-2022,7-58-43,94,depth_duration_stimuli/001828_2014-06-26_21-40-03_260595134347_rgbf000024-resize_0/001828_2014-06-26_21-40-03_260595134347_rgbf000024-resize_0-target.png,1000,4.8260000000000005,15,3796,1000,feet,jsons/v1_VE1000_randls_36.json,568428,707649,41,Man
94,821848,DepthScenes,duration_manipulation_targetAtFixation,jsons/v1_VE1000_randls_36.json,http://54.235.29.9/FacialAge/BNav_EC2/DepthDuration/v2_depth_duration_MTurk/v2_DepthDuration_HTML.html#15,15,1920,937,1920,1080,8-22-2022,7-58-43,95,depth_duration_stimuli/002213_2014-06-28_18-37-58_260595134347_rgbf000055-resize_1/002213_2014-06-28_18-37-58_260595134347_rgbf000055-resize_1-target.png,1000,3.62,10,3357,994,feet,jsons/v1_VE1000_randls_36.json,568428,707649,41,Man
95,821848,DepthScenes,duration_manipulation_targetAtFixation,jsons/v1_VE1000_randls_36.json,http://54.235.29.9/FacialAge/BNav_EC2/DepthDuration/v2_depth_duration_MTurk/v2_DepthDuration_HTML.html#15,15,1920,937,1920,1080,8-22-2022,7-58-43,96,depth_duration_stimuli/000691_2014-06-08_13-08-50_260595134347_rgbf000132-resize_3/000691_2014-06-08_13-08-50_260595134347_rgbf000132-resize_3-target.png,1000,4.1530000000000005,8,3835,1006,feet,jsons/v1_VE1000_randls_36.json,568428,707649,41,Man
96,821848,DepthScenes,duration_manipulation_targetAtFixation,jsons/v1_VE1000_randls_36.json,http://54.235.29.9/FacialAge/BNav_EC2/DepthDuration/v2_depth_duration_MTurk/v2_DepthDuration_HTML.html#15,15,1920,937,1920,1080,8-22-2022,7-58-43,97,depth_duration_stimuli/003070_2014-06-15_14-58-27_094959634447_rgbf000150-resize_3/003070_2014-06-15_14-58-27_094959634447_rgbf000150-resize_3-target.png,1000,2.9415,6,2865,1012,feet,jsons/v1_VE1000_randls_36.json,568428,707649,41,Man
97,821848,DepthScenes,duration_manipulation_targetAtFixation,jsons/v1_VE1000_randls_36.json,http://54.235.29.9/FacialAge/BNav_EC2/DepthDuration/v2_depth_duration_MTurk/v2_DepthDuration_HTML.html#15,15,1920,937,1920,1080,8-22-2022,7-58-43,98,depth_duration_stimuli/000943_2014-06-09_19-31-07_260595134347_rgbf000128-resize_1/000943_2014-06-09_19-31-07_260595134347_rgbf000128-resize_1-target.png,1000,1.9765,4,2619,987,feet,jsons/v1_VE1000_randls_36.json,568428,707649,41,Man
98,821848,DepthScenes,duration_manipulation_targetAtFixation,jsons/v1_VE1000_randls_36.json,http://54.235.29.9/FacialAge/BNav_EC2/DepthDuration/v2_depth_duration_MTurk/v2_DepthDuration_HTML.html#15,15,1920,937,1920,1080,8-22-2022,7-58-43,99,depth_duration_stimuli/001540_2014-06-20_17-01-05_260595134347_rgbf000086-resize_2/001540_2014-06-20_17-01-05_260595134347_rgbf000086-resize-original.jpg,1000,1.459,0,2689,1003,feet,jsons/v1_VE1000_randls_36.json,568428,707649,41,Man
99,821848,DepthScenes,duration_manipulation_targetAtFixation,jsons/v1_VE1000_randls_36.json,http://54.235.29.9/FacialAge/BNav_EC2/DepthDuration/v2_depth_duration_MTurk/v2_DepthDuration_HTML.html#15,15,1920,937,1920,1080,8-22-2022,7-58-43,100,depth_duration_stimuli/002905_2014-06-03_18-04-43_094959634447_rgbf000151-resize_2/002905_2014-06-03_18-04-43_094959634447_rgbf000151-resize_2-target.png,1000,2.0295,4,2879,1000,feet,jsons/v1_VE1000_randls_36.json,568428,707649,41,Man
100,821848,DepthScenes,duration_manipulation_targetAtFixation,jsons/v1_VE1000_randls_36.json,http://54.235.29.9/FacialAge/BNav_EC2/DepthDuration/v2_depth_duration_MTurk/v2_DepthDuration_HTML.html#15,15,1920,937,1920,1080,8-22-2022,7-58-43,101,depth_duration_stimuli/003423_2014-05-21_10-23-26_094959634447_rgbf002665-resize_2/003423_2014-05-21_10-23-26_094959634447_rgbf002665-resize_2-target.png,1000,3.2575,9,3909,996,feet,jsons/v1_VE1000_randls_36.json,568428,707649,41,Man
101,821848,DepthScenes,duration_manipulation_targetAtFixation,jsons/v1_VE1000_randls_36.json,http://54.235.29.9/FacialAge/BNav_EC2/DepthDuration/v2_depth_duration_MTurk/v2_DepthDuration_HTML.html#15,15,1920,937,1920,1080,8-22-2022,7-58-43,102,depth_duration_stimuli/001808_2014-06-26_20-50-58_260595134347_rgbf000029-resize_1/001808_2014-06-26_20-50-58_260595134347_rgbf000029-resize_1-target.png,1000,4.249,14,2637,1000,feet,jsons/v1_VE1000_randls_36.json,568428,707649,41,Man
102,821848,DepthScenes,duration_manipulation_targetAtFixation,jsons/v1_VE1000_randls_36.json,http://54.235.29.9/FacialAge/BNav_EC2/DepthDuration/v2_depth_duration_MTurk/v2_DepthDuration_HTML.html#15,15,1920,937,1920,1080,8-22-2022,7-58-43,103,depth_duration_stimuli/001815_2014-06-26_20-52-55_260595134347_rgbf000020-resize_0/001815_2014-06-26_20-52-55_260595134347_rgbf000020-resize_0-target.png,1000,3.3865,10,3819,969,feet,jsons/v1_VE1000_randls_36.json,568428,707649,41,Man
103,821848,DepthScenes,duration_manipulation_targetAtFixation,jsons/v1_VE1000_randls_36.json,http://54.235.29.9/FacialAge/BNav_EC2/DepthDuration/v2_depth_duration_MTurk/v2_DepthDuration_HTML.html#15,15,1920,937,1920,1080,8-22-2022,7-58-43,104,depth_duration_stimuli/000642_2014-06-08_16-59-25_260595134347_rgbf000098-resize_2/000642_2014-06-08_16-59-25_260595134347_rgbf000098-resize_2-target.png,1000,2.8815,7,2583,1011,feet,jsons/v1_VE1000_randls_36.json,568428,707649,41,Man
104,821848,DepthScenes,duration_manipulation_targetAtFixation,jsons/v1_VE1000_randls_36.json,http://54.235.29.9/FacialAge/BNav_EC2/DepthDuration/v2_depth_duration_MTurk/v2_DepthDuration_HTML.html#15,15,1920,937,1920,1080,8-22-2022,7-58-43,105,depth_duration_stimuli/002425_2014-06-28_20-27-29_260595134347_rgbf000031-resize_8/002425_2014-06-28_20-27-29_260595134347_rgbf000031-resize_8-target.png,1000,3.8960000000000004,9,2826,1002,feet,jsons/v1_VE1000_randls_36.json,568428,707649,41,Man
105,821848,DepthScenes,duration_manipulation_targetAtFixation,jsons/v1_VE1000_randls_36.json,http://54.235.29.9/FacialAge/BNav_EC2/DepthDuration/v2_depth_duration_MTurk/v2_DepthDuration_HTML.html#15,15,1920,937,1920,1080,8-22-2022,7-58-43,106,depth_duration_stimuli/002570_2014-06-24_13-59-54_094959634447_rgbf000059-resize_0/002570_2014-06-24_13-59-54_094959634447_rgbf000059-resize_0-target.png,1000,4.037,10,3378,992,feet,jsons/v1_VE1000_randls_36.json,568428,707649,41,Man
106,821848,DepthScenes,duration_manipulation_targetAtFixation,jsons/v1_VE1000_randls_36.json,http://54.235.29.9/FacialAge/BNav_EC2/DepthDuration/v2_depth_duration_MTurk/v2_DepthDuration_HTML.html#15,15,1920,937,1920,1080,8-22-2022,7-58-43,107,depth_duration_stimuli/002467_2014-06-28_20-38-07_260595134347_rgbf000026-resize_2/002467_2014-06-28_20-38-07_260595134347_rgbf000026-resize_2-target.png,1000,4.742,15,3236,994,feet,jsons/v1_VE1000_randls_36.json,568428,707649,41,Man
107,821848,DepthScenes,duration_manipulation_targetAtFixation,jsons/v1_VE1000_randls_36.json,http://54.235.29.9/FacialAge/BNav_EC2/DepthDuration/v2_depth_duration_MTurk/v2_DepthDuration_HTML.html#15,15,1920,937,1920,1080,8-22-2022,7-58-43,108,depth_duration_stimuli/001167_2014-06-17_15-38-07_260595134347_rgbf000108-resize_0/001167_2014-06-17_15-38-07_260595134347_rgbf000108-resize_0-target.png,1000,1.8505,4,2398,1003,feet,jsons/v1_VE1000_randls_36.json,568428,707649,41,Man
108,821848,DepthScenes,duration_manipulation_targetAtFixation,jsons/v1_VE1000_randls_36.json,http://54.235.29.9/FacialAge/BNav_EC2/DepthDuration/v2_depth_duration_MTurk/v2_DepthDuration_HTML.html#15,15,1920,937,1920,1080,8-22-2022,7-58-43,109,depth_duration_stimuli/003587_2014-05-23_16-48-02_094959634447_rgbf002384-resize_2/003587_2014-05-23_16-48-02_094959634447_rgbf002384-resize_2-target.png,1000,1.357,2,2640,995,feet,jsons/v1_VE1000_randls_36.json,568428,707649,41,Man
109,821848,DepthScenes,duration_manipulation_targetAtFixation,jsons/v1_VE1000_randls_36.json,http://54.235.29.9/FacialAge/BNav_EC2/DepthDuration/v2_depth_duration_MTurk/v2_DepthDuration_HTML.html#15,15,1920,937,1920,1080,8-22-2022,7-58-43,110,depth_duration_stimuli/002445_2014-06-28_20-32-16_260595134347_rgbf000029-resize_4/002445_2014-06-28_20-32-16_260595134347_rgbf000029-resize_4-target.png,1000,2.5315,4,2663,988,feet,jsons/v1_VE1000_randls_36.json,568428,707649,41,Man
110,821848,DepthScenes,duration_manipulation_targetAtFixation,jsons/v1_VE1000_randls_36.json,http://54.235.29.9/FacialAge/BNav_EC2/DepthDuration/v2_depth_duration_MTurk/v2_DepthDuration_HTML.html#15,15,1920,937,1920,1080,8-22-2022,7-58-43,111,depth_duration_stimuli/000780_2014-06-08_22-28-29_260595134347_rgbf000126-resize_1/000780_2014-06-08_22-28-29_260595134347_rgbf000126-resize_1-target.png,1000,3.3825,7,2883,1014,feet,jsons/v1_VE1000_randls_36.json,568428,707649,41,Man
111,821848,DepthScenes,duration_manipulation_targetAtFixation,jsons/v1_VE1000_randls_36.json,http://54.235.29.9/FacialAge/BNav_EC2/DepthDuration/v2_depth_duration_MTurk/v2_DepthDuration_HTML.html#15,15,1920,937,1920,1080,8-22-2022,7-58-43,112,depth_duration_stimuli/000436_2014-06-09_22-25-11_260595134347_rgbf000137-resize_1/000436_2014-06-09_22-25-11_260595134347_rgbf000137-resize_1-target.png,1000,4.0705,10,3072,1001,feet,jsons/v1_VE1000_randls_36.json,568428,707649,41,Man
112,821848,DepthScenes,duration_manipulation_targetAtFixation,jsons/v1_VE1000_randls_36.json,http://54.235.29.9/FacialAge/BNav_EC2/DepthDuration/v2_depth_duration_MTurk/v2_DepthDuration_HTML.html#15,15,1920,937,1920,1080,8-22-2022,7-58-43,113,depth_duration_stimuli/002444_2014-06-28_20-32-08_260595134347_rgbf000027-resize_0/002444_2014-06-28_20-32-08_260595134347_rgbf000027-resize_0-target.png,1000,4.388999999999999,12,2944,995,feet,jsons/v1_VE1000_randls_36.json,568428,707649,41,Man
113,821848,DepthScenes,duration_manipulation_targetAtFixation,jsons/v1_VE1000_randls_36.json,http://54.235.29.9/FacialAge/BNav_EC2/DepthDuration/v2_depth_duration_MTurk/v2_DepthDuration_HTML.html#15,15,1920,937,1920,1080,8-22-2022,7-58-43,114,depth_duration_stimuli/002057_2014-06-24_21-00-13_260595134347_rgbf000120-resize_1/002057_2014-06-24_21-00-13_260595134347_rgbf000120-resize_1-target.png,1000,2.967,10,3140,1002,feet,jsons/v1_VE1000_randls_36.json,568428,707649,41,Man
114,821848,DepthScenes,duration_manipulation_targetAtFixation,jsons/v1_VE1000_randls_36.json,http://54.235.29.9/FacialAge/BNav_EC2/DepthDuration/v2_depth_duration_MTurk/v2_DepthDuration_HTML.html#15,15,1920,937,1920,1080,8-22-2022,7-58-43,115,depth_duration_stimuli/000709_2014-06-08_13-51-55_260595134347_rgbf000068-resize_3/000709_2014-06-08_13-51-55_260595134347_rgbf000068-resize_3-target.png,1000,1.8030000000000002,5,2463,1001,feet,jsons/v1_VE1000_randls_36.json,568428,707649,41,Man
115,821848,DepthScenes,duration_manipulation_targetAtFixation,jsons/v1_VE1000_randls_36.json,http://54.235.29.9/FacialAge/BNav_EC2/DepthDuration/v2_depth_duration_MTurk/v2_DepthDuration_HTML.html#15,15,1920,937,1920,1080,8-22-2022,7-58-43,116,depth_duration_stimuli/001170_2014-06-17_15-43-44_260595134347_rgbf000096-resize_6/001170_2014-06-17_15-43-44_260595134347_rgbf000096-resize-original.jpg,1000,1.1909999999999998,0,2639,1008,feet,jsons/v1_VE1000_randls_36.json,568428,707649,41,Man
116,821848,DepthScenes,duration_manipulation_targetAtFixation,jsons/v1_VE1000_randls_36.json,http://54.235.29.9/FacialAge/BNav_EC2/DepthDuration/v2_depth_duration_MTurk/v2_DepthDuration_HTML.html#15,15,1920,937,1920,1080,8-22-2022,7-58-43,117,depth_duration_stimuli/000486_2014-06-09_20-47-20_260595134347_rgbf000143-resize_2/000486_2014-06-09_20-47-20_260595134347_rgbf000143-resize_2-target.png,1000,4.8325,9,4595,1002,feet,jsons/v1_VE1000_randls_36.json,568428,707649,41,Man
117,821848,DepthScenes,duration_manipulation_targetAtFixation,jsons/v1_VE1000_randls_36.json,http://54.235.29.9/FacialAge/BNav_EC2/DepthDuration/v2_depth_duration_MTurk/v2_DepthDuration_HTML.html#15,15,1920,937,1920,1080,8-22-2022,7-58-43,118,depth_duration_stimuli/003083_2014-06-15_15-21-03_094959634447_rgbf000063-resize_1/003083_2014-06-15_15-21-03_094959634447_rgbf000063-resize_1-target.png,1000,4.1405,13,3457,999,feet,jsons/v1_VE1000_randls_36.json,568428,707649,41,Man
118,821848,DepthScenes,duration_manipulation_targetAtFixation,jsons/v1_VE1000_randls_36.json,http://54.235.29.9/FacialAge/BNav_EC2/DepthDuration/v2_depth_duration_MTurk/v2_DepthDuration_HTML.html#15,15,1920,937,1920,1080,8-22-2022,7-58-43,119,depth_duration_stimuli/000368_2014-06-09_15-53-01_260595134347_rgbf000155-resize_2/000368_2014-06-09_15-53-01_260595134347_rgbf000155-resize_2-target.png,1000,2.4859999999999998,4,2499,1001,feet,jsons/v1_VE1000_randls_36.json,568428,707649,41,Man
119,821848,DepthScenes,duration_manipulation_targetAtFixation,jsons/v1_VE1000_randls_36.json,http://54.235.29.9/FacialAge/BNav_EC2/DepthDuration/v2_depth_duration_MTurk/v2_DepthDuration_HTML.html#15,15,1920,937,1920,1080,8-22-2022,7-58-43,120,depth_duration_stimuli/002678_2014-06-13_16-15-32_094959634447_rgbf000151-resize_6/002678_2014-06-13_16-15-32_094959634447_rgbf000151-resize_6-target.png,1000,2.1830000000000003,6,2811,1002,feet,jsons/v1_VE1000_randls_36.json,568428,707649,41,Man
120,821848,DepthScenes,duration_manipulation_targetAtFixation,jsons/v1_VE1000_randls_36.json,http://54.235.29.9/FacialAge/BNav_EC2/DepthDuration/v2_depth_duration_MTurk/v2_DepthDuration_HTML.html#15,15,1920,937,1920,1080,8-22-2022,7-58-43,121,depth_duration_stimuli/003621_2014-05-23_18-06-08_094959634447_rgbf000101-resize_1/003621_2014-05-23_18-06-08_094959634447_rgbf000101-resize_1-target.png,1000,3.9835,9,3942,1000,feet,jsons/v1_VE1000_randls_36.json,568428,707649,41,Man
121,821848,DepthScenes,duration_manipulation_targetAtFixation,jsons/v1_VE1000_randls_36.json,http://54.235.29.9/FacialAge/BNav_EC2/DepthDuration/v2_depth_duration_MTurk/v2_DepthDuration_HTML.html#15,15,1920,937,1920,1080,8-22-2022,7-58-43,122,depth_duration_stimuli/001584_2014-06-20_11-07-43_260595134347_rgbf000002-resize_1/001584_2014-06-20_11-07-43_260595134347_rgbf000002-resize_1-target.png,1000,3.53,8,2941,1002,feet,jsons/v1_VE1000_randls_36.json,568428,707649,41,Man
122,821848,DepthScenes,duration_manipulation_targetAtFixation,jsons/v1_VE1000_randls_36.json,http://54.235.29.9/FacialAge/BNav_EC2/DepthDuration/v2_depth_duration_MTurk/v2_DepthDuration_HTML.html#15,15,1920,937,1920,1080,8-22-2022,7-58-43,123,depth_duration_stimuli/003534_2014-05-22_15-06-10_094959634447_rgbf000102-resize_4/003534_2014-05-22_15-06-10_094959634447_rgbf000102-resize_4-target.png,1000,1.426,2,2807,1002,feet,jsons/v1_VE1000_randls_36.json,568428,707649,41,Man
123,821848,DepthScenes,duration_manipulation_targetAtFixation,jsons/v1_VE1000_randls_36.json,http://54.235.29.9/FacialAge/BNav_EC2/DepthDuration/v2_depth_duration_MTurk/v2_DepthDuration_HTML.html#15,15,1920,937,1920,1080,8-22-2022,7-58-43,124,depth_duration_stimuli/002637_2014-06-24_14-51-13_094959634447_rgbf000066-resize_4/002637_2014-06-24_14-51-13_094959634447_rgbf000066-resize_4-target.png,1000,1.9955,4,2496,985,feet,jsons/v1_VE1000_randls_36.json,568428,707649,41,Man
124,821848,DepthScenes,duration_manipulation_targetAtFixation,jsons/v1_VE1000_randls_36.json,http://54.235.29.9/FacialAge/BNav_EC2/DepthDuration/v2_depth_duration_MTurk/v2_DepthDuration_HTML.html#15,15,1920,937,1920,1080,8-22-2022,7-58-43,125,depth_duration_stimuli/001029_2014-06-08_13-17-57_260595134347_rgbf000065-resize_1/001029_2014-06-08_13-17-57_260595134347_rgbf000065-resize_1-target.png,1000,3.0835,6,2844,989,feet,jsons/v1_VE1000_randls_36.json,568428,707649,41,Man
125,821848,DepthScenes,duration_manipulation_targetAtFixation,jsons/v1_VE1000_randls_36.json,http://54.235.29.9/FacialAge/BNav_EC2/DepthDuration/v2_depth_duration_MTurk/v2_DepthDuration_HTML.html#15,15,1920,937,1920,1080,8-22-2022,7-58-43,126,depth_duration_stimuli/000677_2014-06-08_23-10-32_260595134347_rgbf000158-resize_6/000677_2014-06-08_23-10-32_260595134347_rgbf000158-resize_6-target.png,1000,3.556,7,2407,1012,feet,jsons/v1_VE1000_randls_36.json,568428,707649,41,Man
126,821848,DepthScenes,duration_manipulation_targetAtFixation,jsons/v1_VE1000_randls_36.json,http://54.235.29.9/FacialAge/BNav_EC2/DepthDuration/v2_depth_duration_MTurk/v2_DepthDuration_HTML.html#15,15,1920,937,1920,1080,8-22-2022,7-58-43,127,depth_duration_stimuli/000810_2014-06-08_17-20-01_260595134347_rgbf000105-resize_0/000810_2014-06-08_17-20-01_260595134347_rgbf000105-resize_0-target.png,1000,1.4865,4,2743,993,feet,jsons/v1_VE1000_randls_36.json,568428,707649,41,Man
127,821848,DepthScenes,duration_manipulation_targetAtFixation,jsons/v1_VE1000_randls_36.json,http://54.235.29.9/FacialAge/BNav_EC2/DepthDuration/v2_depth_duration_MTurk/v2_DepthDuration_HTML.html#15,15,1920,937,1920,1080,8-22-2022,7-58-43,128,depth_duration_stimuli/001214_2014-06-17_16-13-55_260595134347_rgbf000111-resize_0/001214_2014-06-17_16-13-55_260595134347_rgbf000111-resize_0-target.png,1000,2.6505,6,2728,1001,feet,jsons/v1_VE1000_randls_36.json,568428,707649,41,Man
128,821848,DepthScenes,duration_manipulation_targetAtFixation,jsons/v1_VE1000_randls_36.json,http://54.235.29.9/FacialAge/BNav_EC2/DepthDuration/v2_depth_duration_MTurk/v2_DepthDuration_HTML.html#15,15,1920,937,1920,1080,8-22-2022,7-58-43,129,depth_duration_stimuli/001555_2014-06-20_17-12-10_260595134347_rgbf000065-resize_4/001555_2014-06-20_17-12-10_260595134347_rgbf000065-resize_4-target.png,1000,1.633,2,2396,989,feet,jsons/v1_VE1000_randls_36.json,568428,707649,41,Man
129,821848,DepthScenes,duration_manipulation_targetAtFixation,jsons/v1_VE1000_randls_36.json,http://54.235.29.9/FacialAge/BNav_EC2/DepthDuration/v2_depth_duration_MTurk/v2_DepthDuration_HTML.html#15,15,1920,937,1920,1080,8-22-2022,7-58-43,130,depth_duration_stimuli/000103_2014-05-14_22-01-17_260595134347_rgbf000152-resize_5/000103_2014-05-14_22-01-17_260595134347_rgbf000152-resize_5-target.png,1000,1.993,6,2696,1003,feet,jsons/v1_VE1000_randls_36.json,568428,707649,41,Man
130,821848,DepthScenes,duration_manipulation_targetAtFixation,jsons/v1_VE1000_randls_36.json,http://54.235.29.9/FacialAge/BNav_EC2/DepthDuration/v2_depth_duration_MTurk/v2_DepthDuration_HTML.html#15,15,1920,937,1920,1080,8-22-2022,7-58-43,131,depth_duration_stimuli/000682_2014-06-08_23-14-58_260595134347_rgbf000041-resize_5/000682_2014-06-08_23-14-58_260595134347_rgbf000041-resize_5-target.png,1000,2.7239999999999998,6,2417,1007,feet,jsons/v1_VE1000_randls_36.json,568428,707649,41,Man
131,821848,DepthScenes,duration_manipulation_targetAtFixation,jsons/v1_VE1000_randls_36.json,http://54.235.29.9/FacialAge/BNav_EC2/DepthDuration/v2_depth_duration_MTurk/v2_DepthDuration_HTML.html#15,15,1920,937,1920,1080,8-22-2022,7-58-43,132,depth_duration_stimuli/001650_2014-06-20_12-09-00_260595134347_rgbf000087-resize_3/001650_2014-06-20_12-09-00_260595134347_rgbf000087-resize_3-target.png,1000,1.9505,2,2556,987,feet,jsons/v1_VE1000_randls_36.json,568428,707649,41,Man
132,821848,DepthScenes,duration_manipulation_targetAtFixation,jsons/v1_VE1000_randls_36.json,http://54.235.29.9/FacialAge/BNav_EC2/DepthDuration/v2_depth_duration_MTurk/v2_DepthDuration_HTML.html#15,15,1920,937,1920,1080,8-22-2022,7-58-43,133,depth_duration_stimuli/000470_2014-06-09_19-42-40_260595134347_rgbf000094-resize_1/000470_2014-06-09_19-42-40_260595134347_rgbf000094-resize_1-target.png,1000,1.831,3,2432,1001,feet,jsons/v1_VE1000_randls_36.json,568428,707649,41,Man
133,821848,DepthScenes,duration_manipulation_targetAtFixation,jsons/v1_VE1000_randls_36.json,http://54.235.29.9/FacialAge/BNav_EC2/DepthDuration/v2_depth_duration_MTurk/v2_DepthDuration_HTML.html#15,15,1920,937,1920,1080,8-22-2022,7-58-43,134,depth_duration_stimuli/000109_2014-05-14_23-41-52_260595134347_rgbf000035-resize_9/000109_2014-05-14_23-41-52_260595134347_rgbf000035-resize_9-target.png,1000,1.3545,2,2511,993,feet,jsons/v1_VE1000_randls_36.json,568428,707649,41,Man
134,821848,DepthScenes,duration_manipulation_targetAtFixation,jsons/v1_VE1000_randls_36.json,http://54.235.29.9/FacialAge/BNav_EC2/DepthDuration/v2_depth_duration_MTurk/v2_DepthDuration_HTML.html#15,15,1920,937,1920,1080,8-22-2022,7-58-43,135,depth_duration_stimuli/002072_2014-06-24_21-48-06_260595134347_rgbf000115-resize_0/002072_2014-06-24_21-48-06_260595134347_rgbf000115-resize-original.jpg,1000,4.702,0,2249,993,feet,jsons/v1_VE1000_randls_36.json,568428,707649,41,Man
135,821848,DepthScenes,duration_manipulation_targetAtFixation,jsons/v1_VE1000_randls_36.json,http://54.235.29.9/FacialAge/BNav_EC2/DepthDuration/v2_depth_duration_MTurk/v2_DepthDuration_HTML.html#15,15,1920,937,1920,1080,8-22-2022,7-58-43,136,depth_duration_stimuli/002663_2014-06-13_15-50-26_094959634447_rgbf000075-resize_1/002663_2014-06-13_15-50-26_094959634447_rgbf000075-resize_1-target.png,1000,4.7495,15,3234,1003,feet,jsons/v1_VE1000_randls_36.json,568428,707649,41,Man
136,821848,DepthScenes,duration_manipulation_targetAtFixation,jsons/v1_VE1000_randls_36.json,http://54.235.29.9/FacialAge/BNav_EC2/DepthDuration/v2_depth_duration_MTurk/v2_DepthDuration_HTML.html#15,15,1920,937,1920,1080,8-22-2022,7-58-43,137,depth_duration_stimuli/000409_2014-06-04_19-23-33_260595134347_rgbf000067-resize_0/000409_2014-06-04_19-23-33_260595134347_rgbf000067-resize_0-target.png,1000,3.7335,8,2433,1007,feet,jsons/v1_VE1000_randls_36.json,568428,707649,41,Man
137,821848,DepthScenes,duration_manipulation_targetAtFixation,jsons/v1_VE1000_randls_36.json,http://54.235.29.9/FacialAge/BNav_EC2/DepthDuration/v2_depth_duration_MTurk/v2_DepthDuration_HTML.html#15,15,1920,937,1920,1080,8-22-2022,7-58-43,138,depth_duration_stimuli/003292_2014-05-14_21-53-49_094959634447_rgbf000100-resize_2/003292_2014-05-14_21-53-49_094959634447_rgbf000100-resize_2-target.png,1000,3.4815,7,2219,1001,feet,jsons/v1_VE1000_randls_36.json,568428,707649,41,Man
138,821848,DepthScenes,duration_manipulation_targetAtFixation,jsons/v1_VE1000_randls_36.json,http://54.235.29.9/FacialAge/BNav_EC2/DepthDuration/v2_depth_duration_MTurk/v2_DepthDuration_HTML.html#15,15,1920,937,1920,1080,8-22-2022,7-58-43,139,depth_duration_stimuli/002639_2014-06-24_14-51-37_094959634447_rgbf000074-resize_4/002639_2014-06-24_14-51-37_094959634447_rgbf000074-resize_4-target.png,1000,4.0375,7,2766,1007,feet,jsons/v1_VE1000_randls_36.json,568428,707649,41,Man
139,821848,DepthScenes,duration_manipulation_targetAtFixation,jsons/v1_VE1000_randls_36.json,http://54.235.29.9/FacialAge/BNav_EC2/DepthDuration/v2_depth_duration_MTurk/v2_DepthDuration_HTML.html#15,15,1920,937,1920,1080,8-22-2022,7-58-43,140,depth_duration_stimuli/000692_2014-06-08_13-09-42_260595134347_rgbf000199-resize_2/000692_2014-06-08_13-09-42_260595134347_rgbf000199-resize_2-target.png,1000,3.661,14,2609,1003,feet,jsons/v1_VE1000_randls_36.json,568428,707649,41,Man
140,821848,DepthScenes,duration_manipulation_targetAtFixation,jsons/v1_VE1000_randls_36.json,http://54.235.29.9/FacialAge/BNav_EC2/DepthDuration/v2_depth_duration_MTurk/v2_DepthDuration_HTML.html#15,15,1920,937,1920,1080,8-22-2022,7-58-43,141,depth_duration_stimuli/001094_2014-06-15_17-36-00_260595134347_rgbf000205-resize_0/001094_2014-06-15_17-36-00_260595134347_rgbf000205-resize_0-target.png,1000,4.2175,13,4577,1003,feet,jsons/v1_VE1000_randls_36.json,568428,707649,41,Man
141,821848,DepthScenes,duration_manipulation_targetAtFixation,jsons/v1_VE1000_randls_36.json,http://54.235.29.9/FacialAge/BNav_EC2/DepthDuration/v2_depth_duration_MTurk/v2_DepthDuration_HTML.html#15,15,1920,937,1920,1080,8-22-2022,7-58-43,142,depth_duration_stimuli/002748_2014-06-22_19-07-22_094959634447_rgbf000078-resize_1/002748_2014-06-22_19-07-22_094959634447_rgbf000078-resize_1-target.png,1000,4.6705,15,3622,1002,feet,jsons/v1_VE1000_randls_36.json,568428,707649,41,Man
142,821848,DepthScenes,duration_manipulation_targetAtFixation,jsons/v1_VE1000_randls_36.json,http://54.235.29.9/FacialAge/BNav_EC2/DepthDuration/v2_depth_duration_MTurk/v2_DepthDuration_HTML.html#15,15,1920,937,1920,1080,8-22-2022,7-58-43,143,depth_duration_stimuli/002995_2014-06-15_12-31-26_094959634447_rgbf000150-resize_1/002995_2014-06-15_12-31-26_094959634447_rgbf000150-resize_1-target.png,1000,3.8360000000000003,15,3800,1011,feet,jsons/v1_VE1000_randls_36.json,568428,707649,41,Man
143,821848,DepthScenes,duration_manipulation_targetAtFixation,jsons/v1_VE1000_randls_36.json,http://54.235.29.9/FacialAge/BNav_EC2/DepthDuration/v2_depth_duration_MTurk/v2_DepthDuration_HTML.html#15,15,1920,937,1920,1080,8-22-2022,7-58-43,144,depth_duration_stimuli/000493_2014-06-09_21-01-18_260595134347_rgbf000196-resize_3/000493_2014-06-09_21-01-18_260595134347_rgbf000196-resize_3-target.png,1000,3.44,8,3306,998,feet,jsons/v1_VE1000_randls_36.json,568428,707649,41,Man
144,821848,DepthScenes,duration_manipulation_targetAtFixation,jsons/v1_VE1000_randls_36.json,http://54.235.29.9/FacialAge/BNav_EC2/DepthDuration/v2_depth_duration_MTurk/v2_DepthDuration_HTML.html#15,15,1920,937,1920,1080,8-22-2022,7-58-43,145,depth_duration_stimuli/000191_2014-05-12_17-07-38_260595134347_rgbf000199-resize_0/000191_2014-05-12_17-07-38_260595134347_rgbf000199-resize_0-target.png,1000,3.7995,11,2548,1010,feet,jsons/v1_VE1000_randls_36.json,568428,707649,41,Man
145,821848,DepthScenes,duration_manipulation_targetAtFixation,jsons/v1_VE1000_randls_36.json,http://54.235.29.9/FacialAge/BNav_EC2/DepthDuration/v2_depth_duration_MTurk/v2_DepthDuration_HTML.html#15,15,1920,937,1920,1080,8-22-2022,7-58-43,146,depth_duration_stimuli/001498_2014-06-19_17-45-14_260595134347_rgbf000129-resize_4/001498_2014-06-19_17-45-14_260595134347_rgbf000129-resize-original.jpg,1000,1.4075,0,2301,1012,feet,jsons/v1_VE1000_randls_36.json,568428,707649,41,Man
146,821848,DepthScenes,duration_manipulation_targetAtFixation,jsons/v1_VE1000_randls_36.json,http://54.235.29.9/FacialAge/BNav_EC2/DepthDuration/v2_depth_duration_MTurk/v2_DepthDuration_HTML.html#15,15,1920,937,1920,1080,8-22-2022,7-58-43,147,depth_duration_stimuli/001199_2014-06-17_16-03-48_260595134347_rgbf000077-resize_0/001199_2014-06-17_16-03-48_260595134347_rgbf000077-resize_0-target.png,1000,3.4375,12,2681,979,feet,jsons/v1_VE1000_randls_36.json,568428,707649,41,Man
147,821848,DepthScenes,duration_manipulation_targetAtFixation,jsons/v1_VE1000_randls_36.json,http://54.235.29.9/FacialAge/BNav_EC2/DepthDuration/v2_depth_duration_MTurk/v2_DepthDuration_HTML.html#15,15,1920,937,1920,1080,8-22-2022,7-58-43,148,depth_duration_stimuli/000502_2014-06-08_23-02-32_260595134347_rgbf000063-resize_4/000502_2014-06-08_23-02-32_260595134347_rgbf000063-resize_4-target.png,1000,2.431,5,2327,1002,feet,jsons/v1_VE1000_randls_36.json,568428,707649,41,Man
148,821848,DepthScenes,duration_manipulation_targetAtFixation,jsons/v1_VE1000_randls_36.json,http://54.235.29.9/FacialAge/BNav_EC2/DepthDuration/v2_depth_duration_MTurk/v2_DepthDuration_HTML.html#15,15,1920,937,1920,1080,8-22-2022,7-58-43,149,depth_duration_stimuli/001016_2014-06-09_16-16-10_260595134347_rgbf000112-resize_5/001016_2014-06-09_16-16-10_260595134347_rgbf000112-resize_5-target.png,1000,1.6565,4,2488,1002,feet,jsons/v1_VE1000_randls_36.json,568428,707649,41,Man
149,821848,DepthScenes,duration_manipulation_targetAtFixation,jsons/v1_VE1000_randls_36.json,http://54.235.29.9/FacialAge/BNav_EC2/DepthDuration/v2_depth_duration_MTurk/v2_DepthDuration_HTML.html#15,15,1920,937,1920,1080,8-22-2022,7-58-43,150,depth_duration_stimuli/002340_2014-06-28_20-05-46_260595134347_rgbf000113-resize_0/002340_2014-06-28_20-05-46_260595134347_rgbf000113-resize_0-target.png,1000,2.4735,8,2884,987,feet,jsons/v1_VE1000_randls_36.json,568428,707649,41,Man
150,821848,DepthScenes,duration_manipulation_targetAtFixation,jsons/v1_VE1000_randls_36.json,http://54.235.29.9/FacialAge/BNav_EC2/DepthDuration/v2_depth_duration_MTurk/v2_DepthDuration_HTML.html#15,15,1920,937,1920,1080,8-22-2022,7-58-43,151,depth_duration_stimuli/002630_2014-06-24_14-47-50_094959634447_rgbf000055-resize_1/002630_2014-06-24_14-47-50_094959634447_rgbf000055-resize_1-target.png,1000,3.0095,9,2917,1003,feet,jsons/v1_VE1000_randls_36.json,568428,707649,41,Man
151,821848,DepthScenes,duration_manipulation_targetAtFixation,jsons/v1_VE1000_randls_36.json,http://54.235.29.9/FacialAge/BNav_EC2/DepthDuration/v2_depth_duration_MTurk/v2_DepthDuration_HTML.html#15,15,1920,937,1920,1080,8-22-2022,7-58-43,152,depth_duration_stimuli/002758_2014-06-22_19-11-20_094959634447_rgbf000128-resize_1/002758_2014-06-22_19-11-20_094959634447_rgbf000128-resize_1-target.png,1000,2.555,5,2676,998,feet,jsons/v1_VE1000_randls_36.json,568428,707649,41,Man
152,821848,DepthScenes,duration_manipulation_targetAtFixation,jsons/v1_VE1000_randls_36.json,http://54.235.29.9/FacialAge/BNav_EC2/DepthDuration/v2_depth_duration_MTurk/v2_DepthDuration_HTML.html#15,15,1920,937,1920,1080,8-22-2022,7-58-43,153,depth_duration_stimuli/002375_2014-06-28_20-13-44_260595134347_rgbf000032-resize_1/002375_2014-06-28_20-13-44_260595134347_rgbf000032-resize_1-target.png,1000,4.0175,7,2171,1000,feet,jsons/v1_VE1000_randls_36.json,568428,707649,41,Man
153,821848,DepthScenes,duration_manipulation_targetAtFixation,jsons/v1_VE1000_randls_36.json,http://54.235.29.9/FacialAge/BNav_EC2/DepthDuration/v2_depth_duration_MTurk/v2_DepthDuration_HTML.html#15,15,1920,937,1920,1080,8-22-2022,7-58-43,154,depth_duration_stimuli/002657_2014-06-13_15-29-54_094959634447_rgbf000150-resize_1/002657_2014-06-13_15-29-54_094959634447_rgbf000150-resize_1-target.png,1000,4.919,9,2304,998,feet,jsons/v1_VE1000_randls_36.json,568428,707649,41,Man
154,821848,DepthScenes,duration_manipulation_targetAtFixation,jsons/v1_VE1000_randls_36.json,http://54.235.29.9/FacialAge/BNav_EC2/DepthDuration/v2_depth_duration_MTurk/v2_DepthDuration_HTML.html#15,15,1920,937,1920,1080,8-22-2022,7-58-43,155,depth_duration_stimuli/002039_2014-06-24_20-22-38_260595134347_rgbf000084-resize_1/002039_2014-06-24_20-22-38_260595134347_rgbf000084-resize_1-target.png,1000,4.408,9,3527,1005,feet,jsons/v1_VE1000_randls_36.json,568428,707649,41,Man
155,821848,DepthScenes,duration_manipulation_targetAtFixation,jsons/v1_VE1000_randls_36.json,http://54.235.29.9/FacialAge/BNav_EC2/DepthDuration/v2_depth_duration_MTurk/v2_DepthDuration_HTML.html#15,15,1920,937,1920,1080,8-22-2022,7-58-43,156,depth_duration_stimuli/002103_2014-06-25_20-00-40_260595134347_rgbf000049-resize_0/002103_2014-06-25_20-00-40_260595134347_rgbf000049-resize_0-target.png,1000,4.105,8,3055,997,feet,jsons/v1_VE1000_randls_36.json,568428,707649,41,Man
156,821848,DepthScenes,duration_manipulation_targetAtFixation,jsons/v1_VE1000_randls_36.json,http://54.235.29.9/FacialAge/BNav_EC2/DepthDuration/v2_depth_duration_MTurk/v2_DepthDuration_HTML.html#15,15,1920,937,1920,1080,8-22-2022,7-58-43,157,depth_duration_stimuli/002272_2014-06-28_18-53-56_260595134347_rgbf000067-resize_2/002272_2014-06-28_18-53-56_260595134347_rgbf000067-resize_2-target.png,1000,1.138,3,2523,1001,feet,jsons/v1_VE1000_randls_36.json,568428,707649,41,Man
157,821848,DepthScenes,duration_manipulation_targetAtFixation,jsons/v1_VE1000_randls_36.json,http://54.235.29.9/FacialAge/BNav_EC2/DepthDuration/v2_depth_duration_MTurk/v2_DepthDuration_HTML.html#15,15,1920,937,1920,1080,8-22-2022,7-58-43,158,depth_duration_stimuli/001571_2014-06-20_17-21-32_260595134347_rgbf000089-resize_1/001571_2014-06-20_17-21-32_260595134347_rgbf000089-resize_1-target.png,1000,1.86,3,2212,1007,feet,jsons/v1_VE1000_randls_36.json,568428,707649,41,Man
158,821848,DepthScenes,duration_manipulation_targetAtFixation,jsons/v1_VE1000_randls_36.json,http://54.235.29.9/FacialAge/BNav_EC2/DepthDuration/v2_depth_duration_MTurk/v2_DepthDuration_HTML.html#15,15,1920,937,1920,1080,8-22-2022,7-58-43,159,depth_duration_stimuli/001244_2014-06-17_16-47-45_260595134347_rgbf000030-resize_4/001244_2014-06-17_16-47-45_260595134347_rgbf000030-resize_4-target.png,1000,2.0425,3,2634,1005,feet,jsons/v1_VE1000_randls_36.json,568428,707649,41,Man
159,821848,DepthScenes,duration_manipulation_targetAtFixation,jsons/v1_VE1000_randls_36.json,http://54.235.29.9/FacialAge/BNav_EC2/DepthDuration/v2_depth_duration_MTurk/v2_DepthDuration_HTML.html#15,15,1920,937,1920,1080,8-22-2022,7-58-43,160,depth_duration_stimuli/003495_2014-05-21_16-01-51_094959634447_rgbf000100-resize_3/003495_2014-05-21_16-01-51_094959634447_rgbf000100-resize_3-target.png,1000,1.6255,2,3075,1001,feet,jsons/v1_VE1000_randls_36.json,568428,707649,41,Man
160,821848,DepthScenes,duration_manipulation_targetAtFixation,jsons/v1_VE1000_randls_36.json,http://54.235.29.9/FacialAge/BNav_EC2/DepthDuration/v2_depth_duration_MTurk/v2_DepthDuration_HTML.html#15,15,1920,937,1920,1080,8-22-2022,7-58-43,161,depth_duration_stimuli/001175_2014-06-17_15-45-55_260595134347_rgbf000129-resize_4/001175_2014-06-17_15-45-55_260595134347_rgbf000129-resize_4-target.png,1000,4.255,15,3386,1004,feet,jsons/v1_VE1000_randls_36.json,568428,707649,41,Man
161,821848,DepthScenes,duration_manipulation_targetAtFixation,jsons/v1_VE1000_randls_36.json,http://54.235.29.9/FacialAge/BNav_EC2/DepthDuration/v2_depth_duration_MTurk/v2_DepthDuration_HTML.html#15,15,1920,937,1920,1080,8-22-2022,7-58-43,162,depth_duration_stimuli/003490_2014-05-21_15-50-11_094959634447_rgbf000101-resize_3/003490_2014-05-21_15-50-11_094959634447_rgbf000101-resize_3-target.png,1000,3.6445,12,2562,1009,feet,jsons/v1_VE1000_randls_36.json,568428,707649,41,Man
162,821848,DepthScenes,duration_manipulation_targetAtFixation,jsons/v1_VE1000_randls_36.json,http://54.235.29.9/FacialAge/BNav_EC2/DepthDuration/v2_depth_duration_MTurk/v2_DepthDuration_HTML.html#15,15,1920,937,1920,1080,8-22-2022,7-58-43,163,depth_duration_stimuli/002549_2014-06-24_13-41-39_094959634447_rgbf000022-resize_3/002549_2014-06-24_13-41-39_094959634447_rgbf000022-resize_3-target.png,1000,1.476,3,2635,1002,feet,jsons/v1_VE1000_randls_36.json,568428,707649,41,Man
163,821848,DepthScenes,duration_manipulation_targetAtFixation,jsons/v1_VE1000_randls_36.json,http://54.235.29.9/FacialAge/BNav_EC2/DepthDuration/v2_depth_duration_MTurk/v2_DepthDuration_HTML.html#15,15,1920,937,1920,1080,8-22-2022,7-58-43,164,depth_duration_stimuli/002750_2014-06-22_19-08-03_094959634447_rgbf000094-resize_4/002750_2014-06-22_19-08-03_094959634447_rgbf000094-resize_4-target.png,1000,2.354,5,2585,999,feet,jsons/v1_VE1000_randls_36.json,568428,707649,41,Man
