,subjID,experimentName,versionName,sequenceName,url,selected_row,windowWidth,windowHeight,screenWidth,screenHeight,startDate,startTime,trial,stimulus,duration,actual_depth,depth_estimate,trial_RT,log_sceneDuration,unitSelection,seq_filepath,experimentTime,totalTime,age,gender
0,822120,DepthScenes,duration_manipulation_targetAtFixation,jsons/VE83_randls_47_rotated.json,http://54.235.29.9/FacialAge/BNav_EC2/DepthDuration/v2_depth_duration_MTurk/v2_DepthDuration_HTML.html#15,15,1600,900,1600,900,8-29-2023,14-37-44,1,depth_duration_stimuli/001828_2014-06-26_21-40-03_260595134347_rgbf000024-resize_0/001828_2014-06-26_21-40-03_260595134347_rgbf000024-resize_0-target.png,83,4.8260000000000005,3,5513,82,meters,jsons/VE83_randls_47_rotated.json,724094,1082891,35,Woman
1,822120,DepthScenes,duration_manipulation_targetAtFixation,jsons/VE83_randls_47_rotated.json,http://54.235.29.9/FacialAge/BNav_EC2/DepthDuration/v2_depth_duration_MTurk/v2_DepthDuration_HTML.html#15,15,1600,900,1600,900,8-29-2023,14-37-44,2,depth_duration_stimuli/000009_2014-05-26_14-32-05_260595134347_rgbf000034-resize_3/000009_2014-05-26_14-32-05_260595134347_rgbf000034-resize_3-target.png,83,3.8715,5,6201,84,meters,jsons/VE83_randls_47_rotated.json,724094,1082891,35,Woman
2,822120,DepthScenes,duration_manipulation_targetAtFixation,jsons/VE83_randls_47_rotated.json,http://54.235.29.9/FacialAge/BNav_EC2/DepthDuration/v2_depth_duration_MTurk/v2_DepthDuration_HTML.html#15,15,1600,900,1600,900,8-29-2023,14-37-44,3,depth_duration_stimuli/000665_2014-06-09_20-42-35_260595134347_rgbf000110-resize_1/000665_2014-06-09_20-42-35_260595134347_rgbf000110-resize_1-target.png,83,3.057,2,5761,83,meters,jsons/VE83_randls_47_rotated.json,724094,1082891,35,Woman
3,822120,DepthScenes,duration_manipulation_targetAtFixation,jsons/VE83_randls_47_rotated.json,http://54.235.29.9/FacialAge/BNav_EC2/DepthDuration/v2_depth_duration_MTurk/v2_DepthDuration_HTML.html#15,15,1600,900,1600,900,8-29-2023,14-37-44,4,depth_duration_stimuli/001150_2014-06-17_15-27-34_260595134347_rgbf000108-resize_2/001150_2014-06-17_15-27-34_260595134347_rgbf000108-resize_2-target.png,83,4.0325,3,5778,84,meters,jsons/VE83_randls_47_rotated.json,724094,1082891,35,Woman
4,822120,DepthScenes,duration_manipulation_targetAtFixation,jsons/VE83_randls_47_rotated.json,http://54.235.29.9/FacialAge/BNav_EC2/DepthDuration/v2_depth_duration_MTurk/v2_DepthDuration_HTML.html#15,15,1600,900,1600,900,8-29-2023,14-37-44,5,depth_duration_stimuli/002467_2014-06-28_20-38-07_260595134347_rgbf000026-resize_2/002467_2014-06-28_20-38-07_260595134347_rgbf000026-resize_2-target.png,83,4.742,6,6434,84,meters,jsons/VE83_randls_47_rotated.json,724094,1082891,35,Woman
5,822120,DepthScenes,duration_manipulation_targetAtFixation,jsons/VE83_randls_47_rotated.json,http://54.235.29.9/FacialAge/BNav_EC2/DepthDuration/v2_depth_duration_MTurk/v2_DepthDuration_HTML.html#15,15,1600,900,1600,900,8-29-2023,14-37-44,6,depth_duration_stimuli/002570_2014-06-24_13-59-54_094959634447_rgbf000059-resize_0/002570_2014-06-24_13-59-54_094959634447_rgbf000059-resize_0-target.png,83,4.037,5,6873,83,meters,jsons/VE83_randls_47_rotated.json,724094,1082891,35,Woman
6,822120,DepthScenes,duration_manipulation_targetAtFixation,jsons/VE83_randls_47_rotated.json,http://54.235.29.9/FacialAge/BNav_EC2/DepthDuration/v2_depth_duration_MTurk/v2_DepthDuration_HTML.html#15,15,1600,900,1600,900,8-29-2023,14-37-44,7,depth_duration_stimuli/002199_2014-06-28_18-33-56_260595134347_rgbf000074-resize_0/002199_2014-06-28_18-33-56_260595134347_rgbf000074-resize_0-target.png,83,1.996,3,5186,84,meters,jsons/VE83_randls_47_rotated.json,724094,1082891,35,Woman
7,822120,DepthScenes,duration_manipulation_targetAtFixation,jsons/VE83_randls_47_rotated.json,http://54.235.29.9/FacialAge/BNav_EC2/DepthDuration/v2_depth_duration_MTurk/v2_DepthDuration_HTML.html#15,15,1600,900,1600,900,8-29-2023,14-37-44,8,depth_duration_stimuli/001056_2014-06-08_18-46-44_260595134347_rgbf000068-resize_0/001056_2014-06-08_18-46-44_260595134347_rgbf000068-resize_0-target.png,83,2.6625,3,6561,84,meters,jsons/VE83_randls_47_rotated.json,724094,1082891,35,Woman
8,822120,DepthScenes,duration_manipulation_targetAtFixation,jsons/VE83_randls_47_rotated.json,http://54.235.29.9/FacialAge/BNav_EC2/DepthDuration/v2_depth_duration_MTurk/v2_DepthDuration_HTML.html#15,15,1600,900,1600,900,8-29-2023,14-37-44,9,depth_duration_stimuli/000109_2014-05-14_23-41-52_260595134347_rgbf000035-resize_9/000109_2014-05-14_23-41-52_260595134347_rgbf000035-resize_9-target.png,83,1.3545,2,5619,83,meters,jsons/VE83_randls_47_rotated.json,724094,1082891,35,Woman
9,822120,DepthScenes,duration_manipulation_targetAtFixation,jsons/VE83_randls_47_rotated.json,http://54.235.29.9/FacialAge/BNav_EC2/DepthDuration/v2_depth_duration_MTurk/v2_DepthDuration_HTML.html#15,15,1600,900,1600,900,8-29-2023,14-37-44,10,depth_duration_stimuli/000470_2014-06-09_19-42-40_260595134347_rgbf000094-resize_1/000470_2014-06-09_19-42-40_260595134347_rgbf000094-resize_1-target.png,83,1.831,3,5889,83,meters,jsons/VE83_randls_47_rotated.json,724094,1082891,35,Woman
10,822120,DepthScenes,duration_manipulation_targetAtFixation,jsons/VE83_randls_47_rotated.json,http://54.235.29.9/FacialAge/BNav_EC2/DepthDuration/v2_depth_duration_MTurk/v2_DepthDuration_HTML.html#15,15,1600,900,1600,900,8-29-2023,14-37-44,11,depth_duration_stimuli/000549_2014-06-08_22-10-24_260595134347_rgbf000247-resize_3/000549_2014-06-08_22-10-24_260595134347_rgbf000247-resize_3-target.png,83,1.841,5,5003,83,meters,jsons/VE83_randls_47_rotated.json,724094,1082891,35,Woman
11,822120,DepthScenes,duration_manipulation_targetAtFixation,jsons/VE83_randls_47_rotated.json,http://54.235.29.9/FacialAge/BNav_EC2/DepthDuration/v2_depth_duration_MTurk/v2_DepthDuration_HTML.html#15,15,1600,900,1600,900,8-29-2023,14-37-44,12,depth_duration_stimuli/001055_2014-06-08_18-45-35_260595134347_rgbf000111-resize_4/001055_2014-06-08_18-45-35_260595134347_rgbf000111-resize_4-target.png,83,2.4290000000000003,0,5091,84,meters,jsons/VE83_randls_47_rotated.json,724094,1082891,35,Woman
12,822120,DepthScenes,duration_manipulation_targetAtFixation,jsons/VE83_randls_47_rotated.json,http://54.235.29.9/FacialAge/BNav_EC2/DepthDuration/v2_depth_duration_MTurk/v2_DepthDuration_HTML.html#15,15,1600,900,1600,900,8-29-2023,14-37-44,13,depth_duration_stimuli/003490_2014-05-21_15-50-11_094959634447_rgbf000101-resize_3/003490_2014-05-21_15-50-11_094959634447_rgbf000101-resize_3-target.png,83,3.6445,3,4365,84,meters,jsons/VE83_randls_47_rotated.json,724094,1082891,35,Woman
13,822120,DepthScenes,duration_manipulation_targetAtFixation,jsons/VE83_randls_47_rotated.json,http://54.235.29.9/FacialAge/BNav_EC2/DepthDuration/v2_depth_duration_MTurk/v2_DepthDuration_HTML.html#15,15,1600,900,1600,900,8-29-2023,14-37-44,14,depth_duration_stimuli/001175_2014-06-17_15-45-55_260595134347_rgbf000129-resize_4/001175_2014-06-17_15-45-55_260595134347_rgbf000129-resize_4-target.png,83,4.255,2,6775,83,meters,jsons/VE83_randls_47_rotated.json,724094,1082891,35,Woman
14,822120,DepthScenes,duration_manipulation_targetAtFixation,jsons/VE83_randls_47_rotated.json,http://54.235.29.9/FacialAge/BNav_EC2/DepthDuration/v2_depth_duration_MTurk/v2_DepthDuration_HTML.html#15,15,1600,900,1600,900,8-29-2023,14-37-44,15,depth_duration_stimuli/003010_2014-06-15_12-54-35_094959634447_rgbf000112-resize_0/003010_2014-06-15_12-54-35_094959634447_rgbf000112-resize_0-target.png,83,3.1185,3,4987,84,meters,jsons/VE83_randls_47_rotated.json,724094,1082891,35,Woman
15,822120,DepthScenes,duration_manipulation_targetAtFixation,jsons/VE83_randls_47_rotated.json,http://54.235.29.9/FacialAge/BNav_EC2/DepthDuration/v2_depth_duration_MTurk/v2_DepthDuration_HTML.html#15,15,1600,900,1600,900,8-29-2023,14-37-44,16,depth_duration_stimuli/001810_2014-06-26_20-51-35_260595134347_rgbf000040-resize_3/001810_2014-06-26_20-51-35_260595134347_rgbf000040-resize_3-target.png,83,2.2525,2,3371,84,meters,jsons/VE83_randls_47_rotated.json,724094,1082891,35,Woman
16,822120,DepthScenes,duration_manipulation_targetAtFixation,jsons/VE83_randls_47_rotated.json,http://54.235.29.9/FacialAge/BNav_EC2/DepthDuration/v2_depth_duration_MTurk/v2_DepthDuration_HTML.html#15,15,1600,900,1600,900,8-29-2023,14-37-44,17,depth_duration_stimuli/002209_2014-06-28_18-36-10_260595134347_rgbf000051-resize_1/002209_2014-06-28_18-36-10_260595134347_rgbf000051-resize_1-target.png,83,2.057,3,4665,82,meters,jsons/VE83_randls_47_rotated.json,724094,1082891,35,Woman
17,822120,DepthScenes,duration_manipulation_targetAtFixation,jsons/VE83_randls_47_rotated.json,http://54.235.29.9/FacialAge/BNav_EC2/DepthDuration/v2_depth_duration_MTurk/v2_DepthDuration_HTML.html#15,15,1600,900,1600,900,8-29-2023,14-37-44,18,depth_duration_stimuli/002763_2014-06-22_19-13-10_094959634447_rgbf000075-resize_4/002763_2014-06-22_19-13-10_094959634447_rgbf000075-resize_4-target.png,83,1.68375,2,5257,83,meters,jsons/VE83_randls_47_rotated.json,724094,1082891,35,Woman
18,822120,DepthScenes,duration_manipulation_targetAtFixation,jsons/VE83_randls_47_rotated.json,http://54.235.29.9/FacialAge/BNav_EC2/DepthDuration/v2_depth_duration_MTurk/v2_DepthDuration_HTML.html#15,15,1600,900,1600,900,8-29-2023,14-37-44,19,depth_duration_stimuli/001498_2014-06-19_17-45-14_260595134347_rgbf000129-resize_4/001498_2014-06-19_17-45-14_260595134347_rgbf000129-resize-original.jpg,83,1.4075,3,4700,84,meters,jsons/VE83_randls_47_rotated.json,724094,1082891,35,Woman
19,822120,DepthScenes,duration_manipulation_targetAtFixation,jsons/VE83_randls_47_rotated.json,http://54.235.29.9/FacialAge/BNav_EC2/DepthDuration/v2_depth_duration_MTurk/v2_DepthDuration_HTML.html#15,15,1600,900,1600,900,8-29-2023,14-37-44,20,depth_duration_stimuli/002657_2014-06-13_15-29-54_094959634447_rgbf000150-resize_1/002657_2014-06-13_15-29-54_094959634447_rgbf000150-resize_1-target.png,83,4.919,2,4312,82,meters,jsons/VE83_randls_47_rotated.json,724094,1082891,35,Woman
20,822120,DepthScenes,duration_manipulation_targetAtFixation,jsons/VE83_randls_47_rotated.json,http://54.235.29.9/FacialAge/BNav_EC2/DepthDuration/v2_depth_duration_MTurk/v2_DepthDuration_HTML.html#15,15,1600,900,1600,900,8-29-2023,14-37-44,21,depth_duration_stimuli/002375_2014-06-28_20-13-44_260595134347_rgbf000032-resize_1/002375_2014-06-28_20-13-44_260595134347_rgbf000032-resize_1-target.png,83,4.0175,5,5593,81,meters,jsons/VE83_randls_47_rotated.json,724094,1082891,35,Woman
21,822120,DepthScenes,duration_manipulation_targetAtFixation,jsons/VE83_randls_47_rotated.json,http://54.235.29.9/FacialAge/BNav_EC2/DepthDuration/v2_depth_duration_MTurk/v2_DepthDuration_HTML.html#15,15,1600,900,1600,900,8-29-2023,14-37-44,22,depth_duration_stimuli/001100_2014-06-15_17-46-26_260595134347_rgbf000225-resize_2/001100_2014-06-15_17-46-26_260595134347_rgbf000225-resize_2-target.png,83,2.24,2,4212,84,meters,jsons/VE83_randls_47_rotated.json,724094,1082891,35,Woman
22,822120,DepthScenes,duration_manipulation_targetAtFixation,jsons/VE83_randls_47_rotated.json,http://54.235.29.9/FacialAge/BNav_EC2/DepthDuration/v2_depth_duration_MTurk/v2_DepthDuration_HTML.html#15,15,1600,900,1600,900,8-29-2023,14-37-44,23,depth_duration_stimuli/002784_2014-06-22_19-26-30_094959634447_rgbf000083-resize_3/002784_2014-06-22_19-26-30_094959634447_rgbf000083-resize_3-target.png,83,1.8046666666667,0,5504,83,meters,jsons/VE83_randls_47_rotated.json,724094,1082891,35,Woman
23,822120,DepthScenes,duration_manipulation_targetAtFixation,jsons/VE83_randls_47_rotated.json,http://54.235.29.9/FacialAge/BNav_EC2/DepthDuration/v2_depth_duration_MTurk/v2_DepthDuration_HTML.html#15,15,1600,900,1600,900,8-29-2023,14-37-44,24,depth_duration_stimuli/001214_2014-06-17_16-13-55_260595134347_rgbf000111-resize_0/001214_2014-06-17_16-13-55_260595134347_rgbf000111-resize_0-target.png,83,2.6505,3,4675,84,meters,jsons/VE83_randls_47_rotated.json,724094,1082891,35,Woman
24,822120,DepthScenes,duration_manipulation_targetAtFixation,jsons/VE83_randls_47_rotated.json,http://54.235.29.9/FacialAge/BNav_EC2/DepthDuration/v2_depth_duration_MTurk/v2_DepthDuration_HTML.html#15,15,1600,900,1600,900,8-29-2023,14-37-44,25,depth_duration_stimuli/000810_2014-06-08_17-20-01_260595134347_rgbf000105-resize_0/000810_2014-06-08_17-20-01_260595134347_rgbf000105-resize_0-target.png,83,1.4865,0,5281,83,meters,jsons/VE83_randls_47_rotated.json,724094,1082891,35,Woman
25,822120,DepthScenes,duration_manipulation_targetAtFixation,jsons/VE83_randls_47_rotated.json,http://54.235.29.9/FacialAge/BNav_EC2/DepthDuration/v2_depth_duration_MTurk/v2_DepthDuration_HTML.html#15,15,1600,900,1600,900,8-29-2023,14-37-44,26,depth_duration_stimuli/003495_2014-05-21_16-01-51_094959634447_rgbf000100-resize_3/003495_2014-05-21_16-01-51_094959634447_rgbf000100-resize_3-target.png,83,1.6255,2,5778,84,meters,jsons/VE83_randls_47_rotated.json,724094,1082891,35,Woman
26,822120,DepthScenes,duration_manipulation_targetAtFixation,jsons/VE83_randls_47_rotated.json,http://54.235.29.9/FacialAge/BNav_EC2/DepthDuration/v2_depth_duration_MTurk/v2_DepthDuration_HTML.html#15,15,1600,900,1600,900,8-29-2023,14-37-44,27,depth_duration_stimuli/001244_2014-06-17_16-47-45_260595134347_rgbf000030-resize_4/001244_2014-06-17_16-47-45_260595134347_rgbf000030-resize_4-target.png,83,2.0425,0,4562,84,meters,jsons/VE83_randls_47_rotated.json,724094,1082891,35,Woman
27,822120,DepthScenes,duration_manipulation_targetAtFixation,jsons/VE83_randls_47_rotated.json,http://54.235.29.9/FacialAge/BNav_EC2/DepthDuration/v2_depth_duration_MTurk/v2_DepthDuration_HTML.html#15,15,1600,900,1600,900,8-29-2023,14-37-44,28,depth_duration_stimuli/000483_2014-06-09_20-41-45_260595134347_rgbf000116-resize_4/000483_2014-06-09_20-41-45_260595134347_rgbf000116-resize_4-target.png,83,1.337,2,3749,79,meters,jsons/VE83_randls_47_rotated.json,724094,1082891,35,Woman
28,822120,DepthScenes,duration_manipulation_targetAtFixation,jsons/VE83_randls_47_rotated.json,http://54.235.29.9/FacialAge/BNav_EC2/DepthDuration/v2_depth_duration_MTurk/v2_DepthDuration_HTML.html#15,15,1600,900,1600,900,8-29-2023,14-37-44,29,depth_duration_stimuli/000469_2014-06-09_19-42-10_260595134347_rgbf000081-resize_1/000469_2014-06-09_19-42-10_260595134347_rgbf000081-resize_1-target.png,83,1.652,3,5818,75,meters,jsons/VE83_randls_47_rotated.json,724094,1082891,35,Woman
29,822120,DepthScenes,duration_manipulation_targetAtFixation,jsons/VE83_randls_47_rotated.json,http://54.235.29.9/FacialAge/BNav_EC2/DepthDuration/v2_depth_duration_MTurk/v2_DepthDuration_HTML.html#15,15,1600,900,1600,900,8-29-2023,14-37-44,30,depth_duration_stimuli/002072_2014-06-24_21-48-06_260595134347_rgbf000115-resize_0/002072_2014-06-24_21-48-06_260595134347_rgbf000115-resize-original.jpg,83,4.702,2,14863,82,meters,jsons/VE83_randls_47_rotated.json,724094,1082891,35,Woman
30,822120,DepthScenes,duration_manipulation_targetAtFixation,jsons/VE83_randls_47_rotated.json,http://54.235.29.9/FacialAge/BNav_EC2/DepthDuration/v2_depth_duration_MTurk/v2_DepthDuration_HTML.html#15,15,1600,900,1600,900,8-29-2023,14-37-44,31,depth_duration_stimuli/003048_2014-06-15_13-49-43_094959634447_rgbf000150-resize_1/003048_2014-06-15_13-49-43_094959634447_rgbf000150-resize_1-target.png,83,4.0035,3,4289,83,meters,jsons/VE83_randls_47_rotated.json,724094,1082891,35,Woman
31,822120,DepthScenes,duration_manipulation_targetAtFixation,jsons/VE83_randls_47_rotated.json,http://54.235.29.9/FacialAge/BNav_EC2/DepthDuration/v2_depth_duration_MTurk/v2_DepthDuration_HTML.html#15,15,1600,900,1600,900,8-29-2023,14-37-44,32,depth_duration_stimuli/002043_2014-06-24_20-29-38_260595134347_rgbf000039-resize_4/002043_2014-06-24_20-29-38_260595134347_rgbf000039-resize_4-target.png,83,2.8435,2,4738,85,meters,jsons/VE83_randls_47_rotated.json,724094,1082891,35,Woman
32,822120,DepthScenes,duration_manipulation_targetAtFixation,jsons/VE83_randls_47_rotated.json,http://54.235.29.9/FacialAge/BNav_EC2/DepthDuration/v2_depth_duration_MTurk/v2_DepthDuration_HTML.html#15,15,1600,900,1600,900,8-29-2023,14-37-44,33,depth_duration_stimuli/000866_2014-06-09_20-45-42_260595134347_rgbf000139-resize_1/000866_2014-06-09_20-45-42_260595134347_rgbf000139-resize_1-target.png,83,3.2155,5,4131,84,meters,jsons/VE83_randls_47_rotated.json,724094,1082891,35,Woman
33,822120,DepthScenes,duration_manipulation_targetAtFixation,jsons/VE83_randls_47_rotated.json,http://54.235.29.9/FacialAge/BNav_EC2/DepthDuration/v2_depth_duration_MTurk/v2_DepthDuration_HTML.html#15,15,1600,900,1600,900,8-29-2023,14-37-44,34,depth_duration_stimuli/002989_2014-06-15_12-25-03_094959634447_rgbf000150-resize_3/002989_2014-06-15_12-25-03_094959634447_rgbf000150-resize_3-target.png,83,4.1975,2,4218,84,meters,jsons/VE83_randls_47_rotated.json,724094,1082891,35,Woman
34,822120,DepthScenes,duration_manipulation_targetAtFixation,jsons/VE83_randls_47_rotated.json,http://54.235.29.9/FacialAge/BNav_EC2/DepthDuration/v2_depth_duration_MTurk/v2_DepthDuration_HTML.html#15,15,1600,900,1600,900,8-29-2023,14-37-44,35,depth_duration_stimuli/002805_2014-06-22_19-54-03_094959634447_rgbf000079-resize_1/002805_2014-06-22_19-54-03_094959634447_rgbf000079-resize_1-target.png,83,3.1439999999999997,3,4003,84,meters,jsons/VE83_randls_47_rotated.json,724094,1082891,35,Woman
35,822120,DepthScenes,duration_manipulation_targetAtFixation,jsons/VE83_randls_47_rotated.json,http://54.235.29.9/FacialAge/BNav_EC2/DepthDuration/v2_depth_duration_MTurk/v2_DepthDuration_HTML.html#15,15,1600,900,1600,900,8-29-2023,14-37-44,36,depth_duration_stimuli/000906_2014-06-08_13-35-43_260595134347_rgbf000155-resize_1/000906_2014-06-08_13-35-43_260595134347_rgbf000155-resize_1-target.png,83,2.8489999999999998,2,5110,84,meters,jsons/VE83_randls_47_rotated.json,724094,1082891,35,Woman
36,822120,DepthScenes,duration_manipulation_targetAtFixation,jsons/VE83_randls_47_rotated.json,http://54.235.29.9/FacialAge/BNav_EC2/DepthDuration/v2_depth_duration_MTurk/v2_DepthDuration_HTML.html#15,15,1600,900,1600,900,8-29-2023,14-37-44,37,depth_duration_stimuli/002568_2014-06-24_13-59-21_094959634447_rgbf000062-resize_4/002568_2014-06-24_13-59-21_094959634447_rgbf000062-resize_4-target.png,83,3.015,0,5183,84,meters,jsons/VE83_randls_47_rotated.json,724094,1082891,35,Woman
37,822120,DepthScenes,duration_manipulation_targetAtFixation,jsons/VE83_randls_47_rotated.json,http://54.235.29.9/FacialAge/BNav_EC2/DepthDuration/v2_depth_duration_MTurk/v2_DepthDuration_HTML.html#15,15,1600,900,1600,900,8-29-2023,14-37-44,38,depth_duration_stimuli/003492_2014-05-21_15-50-55_094959634447_rgbf000828-resize_1/003492_2014-05-21_15-50-55_094959634447_rgbf000828-resize_1-target.png,83,4.06875,2,3834,84,meters,jsons/VE83_randls_47_rotated.json,724094,1082891,35,Woman
38,822120,DepthScenes,duration_manipulation_targetAtFixation,jsons/VE83_randls_47_rotated.json,http://54.235.29.9/FacialAge/BNav_EC2/DepthDuration/v2_depth_duration_MTurk/v2_DepthDuration_HTML.html#15,15,1600,900,1600,900,8-29-2023,14-37-44,39,depth_duration_stimuli/003081_2014-06-15_15-19-16_094959634447_rgbf000150-resize_1/003081_2014-06-15_15-19-16_094959634447_rgbf000150-resize_1-target.png,83,3.9125,5,6027,84,meters,jsons/VE83_randls_47_rotated.json,724094,1082891,35,Woman
39,822120,DepthScenes,duration_manipulation_targetAtFixation,jsons/VE83_randls_47_rotated.json,http://54.235.29.9/FacialAge/BNav_EC2/DepthDuration/v2_depth_duration_MTurk/v2_DepthDuration_HTML.html#15,15,1600,900,1600,900,8-29-2023,14-37-44,40,depth_duration_stimuli/001417_2014-06-19_16-25-36_260595134347_rgbf000115-resize_5/001417_2014-06-19_16-25-36_260595134347_rgbf000115-resize_5-target.png,83,4.6255,2,5520,82,meters,jsons/VE83_randls_47_rotated.json,724094,1082891,35,Woman
40,822120,DepthScenes,duration_manipulation_targetAtFixation,jsons/VE83_randls_47_rotated.json,http://54.235.29.9/FacialAge/BNav_EC2/DepthDuration/v2_depth_duration_MTurk/v2_DepthDuration_HTML.html#15,15,1600,900,1600,900,8-29-2023,14-37-44,41,depth_duration_stimuli/001447_2014-06-19_17-00-32_260595134347_rgbf000082-resize_5/001447_2014-06-19_17-00-32_260595134347_rgbf000082-resize_5-target.png,83,4.13775,3,4077,83,meters,jsons/VE83_randls_47_rotated.json,724094,1082891,35,Woman
41,822120,DepthScenes,duration_manipulation_targetAtFixation,jsons/VE83_randls_47_rotated.json,http://54.235.29.9/FacialAge/BNav_EC2/DepthDuration/v2_depth_duration_MTurk/v2_DepthDuration_HTML.html#15,15,1600,900,1600,900,8-29-2023,14-37-44,42,depth_duration_stimuli/000447_2014-06-08_16-15-46_260595134347_rgbf000130-resize_1/000447_2014-06-08_16-15-46_260595134347_rgbf000130-resize_1-target.png,83,4.479,2,4320,93,meters,jsons/VE83_randls_47_rotated.json,724094,1082891,35,Woman
42,822120,DepthScenes,duration_manipulation_targetAtFixation,jsons/VE83_randls_47_rotated.json,http://54.235.29.9/FacialAge/BNav_EC2/DepthDuration/v2_depth_duration_MTurk/v2_DepthDuration_HTML.html#15,15,1600,900,1600,900,8-29-2023,14-37-44,43,depth_duration_stimuli/000191_2014-05-12_17-07-38_260595134347_rgbf000199-resize_0/000191_2014-05-12_17-07-38_260595134347_rgbf000199-resize_0-target.png,83,3.7995,2,6215,82,meters,jsons/VE83_randls_47_rotated.json,724094,1082891,35,Woman
43,822120,DepthScenes,duration_manipulation_targetAtFixation,jsons/VE83_randls_47_rotated.json,http://54.235.29.9/FacialAge/BNav_EC2/DepthDuration/v2_depth_duration_MTurk/v2_DepthDuration_HTML.html#15,15,1600,900,1600,900,8-29-2023,14-37-44,44,depth_duration_stimuli/000493_2014-06-09_21-01-18_260595134347_rgbf000196-resize_3/000493_2014-06-09_21-01-18_260595134347_rgbf000196-resize_3-target.png,83,3.44,3,3962,83,meters,jsons/VE83_randls_47_rotated.json,724094,1082891,35,Woman
44,822120,DepthScenes,duration_manipulation_targetAtFixation,jsons/VE83_randls_47_rotated.json,http://54.235.29.9/FacialAge/BNav_EC2/DepthDuration/v2_depth_duration_MTurk/v2_DepthDuration_HTML.html#15,15,1600,900,1600,900,8-29-2023,14-37-44,45,depth_duration_stimuli/002875_2014-06-01_15-19-00_094959634447_rgbf000151-resize_1/002875_2014-06-01_15-19-00_094959634447_rgbf000151-resize_1-target.png,83,1.9675,2,4001,83,meters,jsons/VE83_randls_47_rotated.json,724094,1082891,35,Woman
45,822120,DepthScenes,duration_manipulation_targetAtFixation,jsons/VE83_randls_47_rotated.json,http://54.235.29.9/FacialAge/BNav_EC2/DepthDuration/v2_depth_duration_MTurk/v2_DepthDuration_HTML.html#15,15,1600,900,1600,900,8-29-2023,14-37-44,46,depth_duration_stimuli/001011_2014-06-08_23-18-54_260595134347_rgbf000044-resize_4/001011_2014-06-08_23-18-54_260595134347_rgbf000044-resize_4-target.png,83,2.4730000000000003,0,4346,83,meters,jsons/VE83_randls_47_rotated.json,724094,1082891,35,Woman
46,822120,DepthScenes,duration_manipulation_targetAtFixation,jsons/VE83_randls_47_rotated.json,http://54.235.29.9/FacialAge/BNav_EC2/DepthDuration/v2_depth_duration_MTurk/v2_DepthDuration_HTML.html#15,15,1600,900,1600,900,8-29-2023,14-37-44,47,depth_duration_stimuli/000457_2014-06-08_16-52-43_260595134347_rgbf000199-resize_1/000457_2014-06-08_16-52-43_260595134347_rgbf000199-resize_1-target.png,83,3.6489999999999996,3,4483,83,meters,jsons/VE83_randls_47_rotated.json,724094,1082891,35,Woman
47,822120,DepthScenes,duration_manipulation_targetAtFixation,jsons/VE83_randls_47_rotated.json,http://54.235.29.9/FacialAge/BNav_EC2/DepthDuration/v2_depth_duration_MTurk/v2_DepthDuration_HTML.html#15,15,1600,900,1600,900,8-29-2023,14-37-44,48,depth_duration_stimuli/000929_2014-06-09_16-33-19_260595134347_rgbf000139-resize_0/000929_2014-06-09_16-33-19_260595134347_rgbf000139-resize_0-target.png,83,2.8680000000000003,2,3592,83,meters,jsons/VE83_randls_47_rotated.json,724094,1082891,35,Woman
48,822120,DepthScenes,duration_manipulation_targetAtFixation,jsons/VE83_randls_47_rotated.json,http://54.235.29.9/FacialAge/BNav_EC2/DepthDuration/v2_depth_duration_MTurk/v2_DepthDuration_HTML.html#15,15,1600,900,1600,900,8-29-2023,14-37-44,49,depth_duration_stimuli/001170_2014-06-17_15-43-44_260595134347_rgbf000096-resize_6/001170_2014-06-17_15-43-44_260595134347_rgbf000096-resize-original.jpg,83,1.1909999999999998,2,3803,83,meters,jsons/VE83_randls_47_rotated.json,724094,1082891,35,Woman
49,822120,DepthScenes,duration_manipulation_targetAtFixation,jsons/VE83_randls_47_rotated.json,http://54.235.29.9/FacialAge/BNav_EC2/DepthDuration/v2_depth_duration_MTurk/v2_DepthDuration_HTML.html#15,15,1600,900,1600,900,8-29-2023,14-37-44,50,depth_duration_stimuli/002344_2014-06-28_20-06-29_260595134347_rgbf000030-resize_1/002344_2014-06-28_20-06-29_260595134347_rgbf000030-resize_1-target.png,83,1.5795,5,3522,84,meters,jsons/VE83_randls_47_rotated.json,724094,1082891,35,Woman
50,822120,DepthScenes,duration_manipulation_targetAtFixation,jsons/VE83_randls_47_rotated.json,http://54.235.29.9/FacialAge/BNav_EC2/DepthDuration/v2_depth_duration_MTurk/v2_DepthDuration_HTML.html#15,15,1600,900,1600,900,8-29-2023,14-37-44,51,depth_duration_stimuli/002725_2014-06-22_11-47-51_094959634447_rgbf000070-resize_1/002725_2014-06-22_11-47-51_094959634447_rgbf000070-resize_1-target.png,83,2.195,5,6586,83,meters,jsons/VE83_randls_47_rotated.json,724094,1082891,35,Woman
51,822120,DepthScenes,duration_manipulation_targetAtFixation,jsons/VE83_randls_47_rotated.json,http://54.235.29.9/FacialAge/BNav_EC2/DepthDuration/v2_depth_duration_MTurk/v2_DepthDuration_HTML.html#15,15,1600,900,1600,900,8-29-2023,14-37-44,52,depth_duration_stimuli/003228_2014-05-14_13-42-35_094959634447_rgbf000101-resize_1/003228_2014-05-14_13-42-35_094959634447_rgbf000101-resize_1-target.png,83,1.9680000000000002,4,3642,84,meters,jsons/VE83_randls_47_rotated.json,724094,1082891,35,Woman
52,822120,DepthScenes,duration_manipulation_targetAtFixation,jsons/VE83_randls_47_rotated.json,http://54.235.29.9/FacialAge/BNav_EC2/DepthDuration/v2_depth_duration_MTurk/v2_DepthDuration_HTML.html#15,15,1600,900,1600,900,8-29-2023,14-37-44,53,depth_duration_stimuli/002600_2014-06-24_14-27-04_094959634447_rgbf000074-resize_2/002600_2014-06-24_14-27-04_094959634447_rgbf000074-resize_2-target.png,83,2.7575,3,4713,82,meters,jsons/VE83_randls_47_rotated.json,724094,1082891,35,Woman
53,822120,DepthScenes,duration_manipulation_targetAtFixation,jsons/VE83_randls_47_rotated.json,http://54.235.29.9/FacialAge/BNav_EC2/DepthDuration/v2_depth_duration_MTurk/v2_DepthDuration_HTML.html#15,15,1600,900,1600,900,8-29-2023,14-37-44,54,depth_duration_stimuli/003129_2014-05-12_10-48-10_094959634447_rgbf000100-resize_0/003129_2014-05-12_10-48-10_094959634447_rgbf000100-resize_0-target.png,83,4.9305,2,4179,84,meters,jsons/VE83_randls_47_rotated.json,724094,1082891,35,Woman
54,822120,DepthScenes,duration_manipulation_targetAtFixation,jsons/VE83_randls_47_rotated.json,http://54.235.29.9/FacialAge/BNav_EC2/DepthDuration/v2_depth_duration_MTurk/v2_DepthDuration_HTML.html#15,15,1600,900,1600,900,8-29-2023,14-37-44,55,depth_duration_stimuli/000414_2014-06-04_19-49-13_260595134347_rgbf000044-resize_0/000414_2014-06-04_19-49-13_260595134347_rgbf000044-resize_0-target.png,83,4.329,5,3315,83,meters,jsons/VE83_randls_47_rotated.json,724094,1082891,35,Woman
55,822120,DepthScenes,duration_manipulation_targetAtFixation,jsons/VE83_randls_47_rotated.json,http://54.235.29.9/FacialAge/BNav_EC2/DepthDuration/v2_depth_duration_MTurk/v2_DepthDuration_HTML.html#15,15,1600,900,1600,900,8-29-2023,14-37-44,56,depth_duration_stimuli/001450_2014-06-19_17-02-03_260595134347_rgbf000203-resize_4/001450_2014-06-19_17-02-03_260595134347_rgbf000203-resize_4-target.png,83,4.0106666666667,5,3562,83,meters,jsons/VE83_randls_47_rotated.json,724094,1082891,35,Woman
56,822120,DepthScenes,duration_manipulation_targetAtFixation,jsons/VE83_randls_47_rotated.json,http://54.235.29.9/FacialAge/BNav_EC2/DepthDuration/v2_depth_duration_MTurk/v2_DepthDuration_HTML.html#15,15,1600,900,1600,900,8-29-2023,14-37-44,57,depth_duration_stimuli/001449_2014-06-19_17-01-27_260595134347_rgbf000116-resize_2/001449_2014-06-19_17-01-27_260595134347_rgbf000116-resize_2-target.png,83,3.452,4,3682,83,meters,jsons/VE83_randls_47_rotated.json,724094,1082891,35,Woman
57,822120,DepthScenes,duration_manipulation_targetAtFixation,jsons/VE83_randls_47_rotated.json,http://54.235.29.9/FacialAge/BNav_EC2/DepthDuration/v2_depth_duration_MTurk/v2_DepthDuration_HTML.html#15,15,1600,900,1600,900,8-29-2023,14-37-44,58,depth_duration_stimuli/000677_2014-06-08_23-10-32_260595134347_rgbf000158-resize_6/000677_2014-06-08_23-10-32_260595134347_rgbf000158-resize_6-target.png,83,3.556,6,3307,82,meters,jsons/VE83_randls_47_rotated.json,724094,1082891,35,Woman
58,822120,DepthScenes,duration_manipulation_targetAtFixation,jsons/VE83_randls_47_rotated.json,http://54.235.29.9/FacialAge/BNav_EC2/DepthDuration/v2_depth_duration_MTurk/v2_DepthDuration_HTML.html#15,15,1600,900,1600,900,8-29-2023,14-37-44,59,depth_duration_stimuli/001029_2014-06-08_13-17-57_260595134347_rgbf000065-resize_1/001029_2014-06-08_13-17-57_260595134347_rgbf000065-resize_1-target.png,83,3.0835,4,3657,83,meters,jsons/VE83_randls_47_rotated.json,724094,1082891,35,Woman
59,822120,DepthScenes,duration_manipulation_targetAtFixation,jsons/VE83_randls_47_rotated.json,http://54.235.29.9/FacialAge/BNav_EC2/DepthDuration/v2_depth_duration_MTurk/v2_DepthDuration_HTML.html#15,15,1600,900,1600,900,8-29-2023,14-37-44,60,depth_duration_stimuli/000691_2014-06-08_13-08-50_260595134347_rgbf000132-resize_3/000691_2014-06-08_13-08-50_260595134347_rgbf000132-resize_3-target.png,83,4.1530000000000005,5,3090,82,meters,jsons/VE83_randls_47_rotated.json,724094,1082891,35,Woman
60,822120,DepthScenes,duration_manipulation_targetAtFixation,jsons/VE83_randls_47_rotated.json,http://54.235.29.9/FacialAge/BNav_EC2/DepthDuration/v2_depth_duration_MTurk/v2_DepthDuration_HTML.html#15,15,1600,900,1600,900,8-29-2023,14-37-44,61,depth_duration_stimuli/002213_2014-06-28_18-37-58_260595134347_rgbf000055-resize_1/002213_2014-06-28_18-37-58_260595134347_rgbf000055-resize_1-target.png,83,3.62,5,5299,84,meters,jsons/VE83_randls_47_rotated.json,724094,1082891,35,Woman
61,822120,DepthScenes,duration_manipulation_targetAtFixation,jsons/VE83_randls_47_rotated.json,http://54.235.29.9/FacialAge/BNav_EC2/DepthDuration/v2_depth_duration_MTurk/v2_DepthDuration_HTML.html#15,15,1600,900,1600,900,8-29-2023,14-37-44,62,depth_duration_stimuli/003083_2014-06-15_15-21-03_094959634447_rgbf000063-resize_1/003083_2014-06-15_15-21-03_094959634447_rgbf000063-resize_1-target.png,83,4.1405,5,3320,83,meters,jsons/VE83_randls_47_rotated.json,724094,1082891,35,Woman
62,822120,DepthScenes,duration_manipulation_targetAtFixation,jsons/VE83_randls_47_rotated.json,http://54.235.29.9/FacialAge/BNav_EC2/DepthDuration/v2_depth_duration_MTurk/v2_DepthDuration_HTML.html#15,15,1600,900,1600,900,8-29-2023,14-37-44,63,depth_duration_stimuli/000486_2014-06-09_20-47-20_260595134347_rgbf000143-resize_2/000486_2014-06-09_20-47-20_260595134347_rgbf000143-resize_2-target.png,83,4.8325,4,3202,84,meters,jsons/VE83_randls_47_rotated.json,724094,1082891,35,Woman
63,822120,DepthScenes,duration_manipulation_targetAtFixation,jsons/VE83_randls_47_rotated.json,http://54.235.29.9/FacialAge/BNav_EC2/DepthDuration/v2_depth_duration_MTurk/v2_DepthDuration_HTML.html#15,15,1600,900,1600,900,8-29-2023,14-37-44,64,depth_duration_stimuli/001617_2014-06-20_11-35-32_260595134347_rgbf000066-resize_1/001617_2014-06-20_11-35-32_260595134347_rgbf000066-resize_1-target.png,83,3.7910000000000004,6,3521,84,meters,jsons/VE83_randls_47_rotated.json,724094,1082891,35,Woman
64,822120,DepthScenes,duration_manipulation_targetAtFixation,jsons/VE83_randls_47_rotated.json,http://54.235.29.9/FacialAge/BNav_EC2/DepthDuration/v2_depth_duration_MTurk/v2_DepthDuration_HTML.html#15,15,1600,900,1600,900,8-29-2023,14-37-44,65,depth_duration_stimuli/001806_2014-06-26_20-50-20_260595134347_rgbf000091-resize_1/001806_2014-06-26_20-50-20_260595134347_rgbf000091-resize_1-target.png,83,2.7305,5,3447,72,meters,jsons/VE83_randls_47_rotated.json,724094,1082891,35,Woman
65,822120,DepthScenes,duration_manipulation_targetAtFixation,jsons/VE83_randls_47_rotated.json,http://54.235.29.9/FacialAge/BNav_EC2/DepthDuration/v2_depth_duration_MTurk/v2_DepthDuration_HTML.html#15,15,1600,900,1600,900,8-29-2023,14-37-44,66,depth_duration_stimuli/001540_2014-06-20_17-01-05_260595134347_rgbf000086-resize_2/001540_2014-06-20_17-01-05_260595134347_rgbf000086-resize-original.jpg,83,1.459,5,2770,97,meters,jsons/VE83_randls_47_rotated.json,724094,1082891,35,Woman
66,822120,DepthScenes,duration_manipulation_targetAtFixation,jsons/VE83_randls_47_rotated.json,http://54.235.29.9/FacialAge/BNav_EC2/DepthDuration/v2_depth_duration_MTurk/v2_DepthDuration_HTML.html#15,15,1600,900,1600,900,8-29-2023,14-37-44,67,depth_duration_stimuli/001094_2014-06-15_17-36-00_260595134347_rgbf000205-resize_0/001094_2014-06-15_17-36-00_260595134347_rgbf000205-resize_0-target.png,83,4.2175,5,3083,84,meters,jsons/VE83_randls_47_rotated.json,724094,1082891,35,Woman
67,822120,DepthScenes,duration_manipulation_targetAtFixation,jsons/VE83_randls_47_rotated.json,http://54.235.29.9/FacialAge/BNav_EC2/DepthDuration/v2_depth_duration_MTurk/v2_DepthDuration_HTML.html#15,15,1600,900,1600,900,8-29-2023,14-37-44,68,depth_duration_stimuli/000692_2014-06-08_13-09-42_260595134347_rgbf000199-resize_2/000692_2014-06-08_13-09-42_260595134347_rgbf000199-resize_2-target.png,83,3.661,4,2878,70,meters,jsons/VE83_randls_47_rotated.json,724094,1082891,35,Woman
68,822120,DepthScenes,duration_manipulation_targetAtFixation,jsons/VE83_randls_47_rotated.json,http://54.235.29.9/FacialAge/BNav_EC2/DepthDuration/v2_depth_duration_MTurk/v2_DepthDuration_HTML.html#15,15,1600,900,1600,900,8-29-2023,14-37-44,69,depth_duration_stimuli/000502_2014-06-08_23-02-32_260595134347_rgbf000063-resize_4/000502_2014-06-08_23-02-32_260595134347_rgbf000063-resize_4-target.png,83,2.431,5,3042,86,meters,jsons/VE83_randls_47_rotated.json,724094,1082891,35,Woman
69,822120,DepthScenes,duration_manipulation_targetAtFixation,jsons/VE83_randls_47_rotated.json,http://54.235.29.9/FacialAge/BNav_EC2/DepthDuration/v2_depth_duration_MTurk/v2_DepthDuration_HTML.html#15,15,1600,900,1600,900,8-29-2023,14-37-44,70,depth_duration_stimuli/001199_2014-06-17_16-03-48_260595134347_rgbf000077-resize_0/001199_2014-06-17_16-03-48_260595134347_rgbf000077-resize_0-target.png,83,3.4375,5,3755,83,meters,jsons/VE83_randls_47_rotated.json,724094,1082891,35,Woman
70,822120,DepthScenes,duration_manipulation_targetAtFixation,jsons/VE83_randls_47_rotated.json,http://54.235.29.9/FacialAge/BNav_EC2/DepthDuration/v2_depth_duration_MTurk/v2_DepthDuration_HTML.html#15,15,1600,900,1600,900,8-29-2023,14-37-44,71,depth_duration_stimuli/002340_2014-06-28_20-05-46_260595134347_rgbf000113-resize_0/002340_2014-06-28_20-05-46_260595134347_rgbf000113-resize_0-target.png,83,2.4735,4,2913,82,meters,jsons/VE83_randls_47_rotated.json,724094,1082891,35,Woman
71,822120,DepthScenes,duration_manipulation_targetAtFixation,jsons/VE83_randls_47_rotated.json,http://54.235.29.9/FacialAge/BNav_EC2/DepthDuration/v2_depth_duration_MTurk/v2_DepthDuration_HTML.html#15,15,1600,900,1600,900,8-29-2023,14-37-44,72,depth_duration_stimuli/001016_2014-06-09_16-16-10_260595134347_rgbf000112-resize_5/001016_2014-06-09_16-16-10_260595134347_rgbf000112-resize_5-target.png,83,1.6565,4,3052,84,meters,jsons/VE83_randls_47_rotated.json,724094,1082891,35,Woman
72,822120,DepthScenes,duration_manipulation_targetAtFixation,jsons/VE83_randls_47_rotated.json,http://54.235.29.9/FacialAge/BNav_EC2/DepthDuration/v2_depth_duration_MTurk/v2_DepthDuration_HTML.html#15,15,1600,900,1600,900,8-29-2023,14-37-44,73,depth_duration_stimuli/002949_2014-06-26_15-57-42_094959634447_rgbf000079-resize_1/002949_2014-06-26_15-57-42_094959634447_rgbf000079-resize_1-target.png,83,1.8915,3,4506,84,meters,jsons/VE83_randls_47_rotated.json,724094,1082891,35,Woman
73,822120,DepthScenes,duration_manipulation_targetAtFixation,jsons/VE83_randls_47_rotated.json,http://54.235.29.9/FacialAge/BNav_EC2/DepthDuration/v2_depth_duration_MTurk/v2_DepthDuration_HTML.html#15,15,1600,900,1600,900,8-29-2023,14-37-44,74,depth_duration_stimuli/000522_2014-06-08_13-35-06_260595134347_rgbf000244-resize_1/000522_2014-06-08_13-35-06_260595134347_rgbf000244-resize_1-target.png,83,2.3715,5,2971,84,meters,jsons/VE83_randls_47_rotated.json,724094,1082891,35,Woman
74,822120,DepthScenes,duration_manipulation_targetAtFixation,jsons/VE83_randls_47_rotated.json,http://54.235.29.9/FacialAge/BNav_EC2/DepthDuration/v2_depth_duration_MTurk/v2_DepthDuration_HTML.html#15,15,1600,900,1600,900,8-29-2023,14-37-44,75,depth_duration_stimuli/001052_2014-06-08_18-24-54_260595134347_rgbf000130-resize_1/001052_2014-06-08_18-24-54_260595134347_rgbf000130-resize_1-target.png,83,4.1045,5,2953,84,meters,jsons/VE83_randls_47_rotated.json,724094,1082891,35,Woman
75,822120,DepthScenes,duration_manipulation_targetAtFixation,jsons/VE83_randls_47_rotated.json,http://54.235.29.9/FacialAge/BNav_EC2/DepthDuration/v2_depth_duration_MTurk/v2_DepthDuration_HTML.html#15,15,1600,900,1600,900,8-29-2023,14-37-44,76,depth_duration_stimuli/002988_2014-06-15_12-24-20_094959634447_rgbf000150-resize_1/002988_2014-06-15_12-24-20_094959634447_rgbf000150-resize_1-target.png,83,4.7669999999999995,4,3452,72,meters,jsons/VE83_randls_47_rotated.json,724094,1082891,35,Woman
76,822120,DepthScenes,duration_manipulation_targetAtFixation,jsons/VE83_randls_47_rotated.json,http://54.235.29.9/FacialAge/BNav_EC2/DepthDuration/v2_depth_duration_MTurk/v2_DepthDuration_HTML.html#15,15,1600,900,1600,900,8-29-2023,14-37-44,77,depth_duration_stimuli/002425_2014-06-28_20-27-29_260595134347_rgbf000031-resize_8/002425_2014-06-28_20-27-29_260595134347_rgbf000031-resize_8-target.png,83,3.8960000000000004,5,4922,83,meters,jsons/VE83_randls_47_rotated.json,724094,1082891,35,Woman
77,822120,DepthScenes,duration_manipulation_targetAtFixation,jsons/VE83_randls_47_rotated.json,http://54.235.29.9/FacialAge/BNav_EC2/DepthDuration/v2_depth_duration_MTurk/v2_DepthDuration_HTML.html#15,15,1600,900,1600,900,8-29-2023,14-37-44,78,depth_duration_stimuli/000642_2014-06-08_16-59-25_260595134347_rgbf000098-resize_2/000642_2014-06-08_16-59-25_260595134347_rgbf000098-resize_2-target.png,83,2.8815,4,2930,83,meters,jsons/VE83_randls_47_rotated.json,724094,1082891,35,Woman
78,822120,DepthScenes,duration_manipulation_targetAtFixation,jsons/VE83_randls_47_rotated.json,http://54.235.29.9/FacialAge/BNav_EC2/DepthDuration/v2_depth_duration_MTurk/v2_DepthDuration_HTML.html#15,15,1600,900,1600,900,8-29-2023,14-37-44,79,depth_duration_stimuli/002545_2014-06-24_13-38-53_094959634447_rgbf000080-resize_4/002545_2014-06-24_13-38-53_094959634447_rgbf000080-resize_4-target.png,83,1.9205,5,3059,83,meters,jsons/VE83_randls_47_rotated.json,724094,1082891,35,Woman
79,822120,DepthScenes,duration_manipulation_targetAtFixation,jsons/VE83_randls_47_rotated.json,http://54.235.29.9/FacialAge/BNav_EC2/DepthDuration/v2_depth_duration_MTurk/v2_DepthDuration_HTML.html#15,15,1600,900,1600,900,8-29-2023,14-37-44,80,depth_duration_stimuli/001092_2014-06-15_17-34-58_260595134347_rgbf000171-resize_3/001092_2014-06-15_17-34-58_260595134347_rgbf000171-resize_3-target.png,83,2.6935,4,3043,83,meters,jsons/VE83_randls_47_rotated.json,724094,1082891,35,Woman
80,822120,DepthScenes,duration_manipulation_targetAtFixation,jsons/VE83_randls_47_rotated.json,http://54.235.29.9/FacialAge/BNav_EC2/DepthDuration/v2_depth_duration_MTurk/v2_DepthDuration_HTML.html#15,15,1600,900,1600,900,8-29-2023,14-37-44,81,depth_duration_stimuli/001815_2014-06-26_20-52-55_260595134347_rgbf000020-resize_0/001815_2014-06-26_20-52-55_260595134347_rgbf000020-resize_0-target.png,83,3.3865,4,2978,83,meters,jsons/VE83_randls_47_rotated.json,724094,1082891,35,Woman
81,822120,DepthScenes,duration_manipulation_targetAtFixation,jsons/VE83_randls_47_rotated.json,http://54.235.29.9/FacialAge/BNav_EC2/DepthDuration/v2_depth_duration_MTurk/v2_DepthDuration_HTML.html#15,15,1600,900,1600,900,8-29-2023,14-37-44,82,depth_duration_stimuli/001808_2014-06-26_20-50-58_260595134347_rgbf000029-resize_1/001808_2014-06-26_20-50-58_260595134347_rgbf000029-resize_1-target.png,83,4.249,5,2739,83,meters,jsons/VE83_randls_47_rotated.json,724094,1082891,35,Woman
82,822120,DepthScenes,duration_manipulation_targetAtFixation,jsons/VE83_randls_47_rotated.json,http://54.235.29.9/FacialAge/BNav_EC2/DepthDuration/v2_depth_duration_MTurk/v2_DepthDuration_HTML.html#15,15,1600,900,1600,900,8-29-2023,14-37-44,83,depth_duration_stimuli/001032_2014-06-08_13-23-17_260595134347_rgbf000021-resize_3/001032_2014-06-08_13-23-17_260595134347_rgbf000021-resize_3-target.png,83,3.2725,4,3619,83,meters,jsons/VE83_randls_47_rotated.json,724094,1082891,35,Woman
83,822120,DepthScenes,duration_manipulation_targetAtFixation,jsons/VE83_randls_47_rotated.json,http://54.235.29.9/FacialAge/BNav_EC2/DepthDuration/v2_depth_duration_MTurk/v2_DepthDuration_HTML.html#15,15,1600,900,1600,900,8-29-2023,14-37-44,84,depth_duration_stimuli/001059_2014-06-08_21-53-27_260595134347_rgbf000061-resize_4/001059_2014-06-08_21-53-27_260595134347_rgbf000061-resize_4-target.png,83,2.4185,5,3219,83,meters,jsons/VE83_randls_47_rotated.json,724094,1082891,35,Woman
84,822120,DepthScenes,duration_manipulation_targetAtFixation,jsons/VE83_randls_47_rotated.json,http://54.235.29.9/FacialAge/BNav_EC2/DepthDuration/v2_depth_duration_MTurk/v2_DepthDuration_HTML.html#15,15,1600,900,1600,900,8-29-2023,14-37-44,85,depth_duration_stimuli/002660_2014-06-13_15-44-18_094959634447_rgbf001878-resize_2/002660_2014-06-13_15-44-18_094959634447_rgbf001878-resize_2-target.png,83,3.576,4,3274,84,meters,jsons/VE83_randls_47_rotated.json,724094,1082891,35,Woman
85,822120,DepthScenes,duration_manipulation_targetAtFixation,jsons/VE83_randls_47_rotated.json,http://54.235.29.9/FacialAge/BNav_EC2/DepthDuration/v2_depth_duration_MTurk/v2_DepthDuration_HTML.html#15,15,1600,900,1600,900,8-29-2023,14-37-44,86,depth_duration_stimuli/002153_2014-06-25_21-27-18_260595134347_rgbf000038-resize_5/002153_2014-06-25_21-27-18_260595134347_rgbf000038-resize_5-target.png,83,2.505,5,3514,83,meters,jsons/VE83_randls_47_rotated.json,724094,1082891,35,Woman
86,822120,DepthScenes,duration_manipulation_targetAtFixation,jsons/VE83_randls_47_rotated.json,http://54.235.29.9/FacialAge/BNav_EC2/DepthDuration/v2_depth_duration_MTurk/v2_DepthDuration_HTML.html#15,15,1600,900,1600,900,8-29-2023,14-37-44,87,depth_duration_stimuli/003079_2014-06-15_15-18-20_094959634447_rgbf000152-resize_8/003079_2014-06-15_15-18-20_094959634447_rgbf000152-resize_8-target.png,83,2.8775,4,4227,84,meters,jsons/VE83_randls_47_rotated.json,724094,1082891,35,Woman
87,822120,DepthScenes,duration_manipulation_targetAtFixation,jsons/VE83_randls_47_rotated.json,http://54.235.29.9/FacialAge/BNav_EC2/DepthDuration/v2_depth_duration_MTurk/v2_DepthDuration_HTML.html#15,15,1600,900,1600,900,8-29-2023,14-37-44,88,depth_duration_stimuli/000506_2014-06-08_23-21-00_260595134347_rgbf000070-resize_7/000506_2014-06-08_23-21-00_260595134347_rgbf000070-resize_7-target.png,83,4.0585,3,3281,82,meters,jsons/VE83_randls_47_rotated.json,724094,1082891,35,Woman
88,822120,DepthScenes,duration_manipulation_targetAtFixation,jsons/VE83_randls_47_rotated.json,http://54.235.29.9/FacialAge/BNav_EC2/DepthDuration/v2_depth_duration_MTurk/v2_DepthDuration_HTML.html#15,15,1600,900,1600,900,8-29-2023,14-37-44,89,depth_duration_stimuli/003423_2014-05-21_10-23-26_094959634447_rgbf002665-resize_2/003423_2014-05-21_10-23-26_094959634447_rgbf002665-resize_2-target.png,83,3.2575,5,2923,84,meters,jsons/VE83_randls_47_rotated.json,724094,1082891,35,Woman
89,822120,DepthScenes,duration_manipulation_targetAtFixation,jsons/VE83_randls_47_rotated.json,http://54.235.29.9/FacialAge/BNav_EC2/DepthDuration/v2_depth_duration_MTurk/v2_DepthDuration_HTML.html#15,15,1600,900,1600,900,8-29-2023,14-37-44,90,depth_duration_stimuli/002905_2014-06-03_18-04-43_094959634447_rgbf000151-resize_2/002905_2014-06-03_18-04-43_094959634447_rgbf000151-resize_2-target.png,83,2.0295,4,3619,84,meters,jsons/VE83_randls_47_rotated.json,724094,1082891,35,Woman
90,822120,DepthScenes,duration_manipulation_targetAtFixation,jsons/VE83_randls_47_rotated.json,http://54.235.29.9/FacialAge/BNav_EC2/DepthDuration/v2_depth_duration_MTurk/v2_DepthDuration_HTML.html#15,15,1600,900,1600,900,8-29-2023,14-37-44,91,depth_duration_stimuli/002639_2014-06-24_14-51-37_094959634447_rgbf000074-resize_4/002639_2014-06-24_14-51-37_094959634447_rgbf000074-resize_4-target.png,83,4.0375,4,3275,84,meters,jsons/VE83_randls_47_rotated.json,724094,1082891,35,Woman
91,822120,DepthScenes,duration_manipulation_targetAtFixation,jsons/VE83_randls_47_rotated.json,http://54.235.29.9/FacialAge/BNav_EC2/DepthDuration/v2_depth_duration_MTurk/v2_DepthDuration_HTML.html#15,15,1600,900,1600,900,8-29-2023,14-37-44,92,depth_duration_stimuli/003292_2014-05-14_21-53-49_094959634447_rgbf000100-resize_2/003292_2014-05-14_21-53-49_094959634447_rgbf000100-resize_2-target.png,83,3.4815,5,2954,84,meters,jsons/VE83_randls_47_rotated.json,724094,1082891,35,Woman
92,822120,DepthScenes,duration_manipulation_targetAtFixation,jsons/VE83_randls_47_rotated.json,http://54.235.29.9/FacialAge/BNav_EC2/DepthDuration/v2_depth_duration_MTurk/v2_DepthDuration_HTML.html#15,15,1600,900,1600,900,8-29-2023,14-37-44,93,depth_duration_stimuli/001136_2014-06-17_15-19-41_260595134347_rgbf000076-resize_3/001136_2014-06-17_15-19-41_260595134347_rgbf000076-resize_3-target.png,83,1.8655,5,2771,84,meters,jsons/VE83_randls_47_rotated.json,724094,1082891,35,Woman
93,822120,DepthScenes,duration_manipulation_targetAtFixation,jsons/VE83_randls_47_rotated.json,http://54.235.29.9/FacialAge/BNav_EC2/DepthDuration/v2_depth_duration_MTurk/v2_DepthDuration_HTML.html#15,15,1600,900,1600,900,8-29-2023,14-37-44,94,depth_duration_stimuli/001164_2014-06-17_15-35-46_260595134347_rgbf000085-resize_3/001164_2014-06-17_15-35-46_260595134347_rgbf000085-resize_3-target.png,83,2.354,4,3347,84,meters,jsons/VE83_randls_47_rotated.json,724094,1082891,35,Woman
94,822120,DepthScenes,duration_manipulation_targetAtFixation,jsons/VE83_randls_47_rotated.json,http://54.235.29.9/FacialAge/BNav_EC2/DepthDuration/v2_depth_duration_MTurk/v2_DepthDuration_HTML.html#15,15,1600,900,1600,900,8-29-2023,14-37-44,95,depth_duration_stimuli/000103_2014-05-14_22-01-17_260595134347_rgbf000152-resize_5/000103_2014-05-14_22-01-17_260595134347_rgbf000152-resize_5-target.png,83,1.993,5,3106,83,meters,jsons/VE83_randls_47_rotated.json,724094,1082891,35,Woman
95,822120,DepthScenes,duration_manipulation_targetAtFixation,jsons/VE83_randls_47_rotated.json,http://54.235.29.9/FacialAge/BNav_EC2/DepthDuration/v2_depth_duration_MTurk/v2_DepthDuration_HTML.html#15,15,1600,900,1600,900,8-29-2023,14-37-44,96,depth_duration_stimuli/001555_2014-06-20_17-12-10_260595134347_rgbf000065-resize_4/001555_2014-06-20_17-12-10_260595134347_rgbf000065-resize_4-target.png,83,1.633,4,4094,84,meters,jsons/VE83_randls_47_rotated.json,724094,1082891,35,Woman
96,822120,DepthScenes,duration_manipulation_targetAtFixation,jsons/VE83_randls_47_rotated.json,http://54.235.29.9/FacialAge/BNav_EC2/DepthDuration/v2_depth_duration_MTurk/v2_DepthDuration_HTML.html#15,15,1600,900,1600,900,8-29-2023,14-37-44,97,depth_duration_stimuli/000709_2014-06-08_13-51-55_260595134347_rgbf000068-resize_3/000709_2014-06-08_13-51-55_260595134347_rgbf000068-resize_3-target.png,83,1.8030000000000002,5,4095,83,meters,jsons/VE83_randls_47_rotated.json,724094,1082891,35,Woman
97,822120,DepthScenes,duration_manipulation_targetAtFixation,jsons/VE83_randls_47_rotated.json,http://54.235.29.9/FacialAge/BNav_EC2/DepthDuration/v2_depth_duration_MTurk/v2_DepthDuration_HTML.html#15,15,1600,900,1600,900,8-29-2023,14-37-44,98,depth_duration_stimuli/002057_2014-06-24_21-00-13_260595134347_rgbf000120-resize_1/002057_2014-06-24_21-00-13_260595134347_rgbf000120-resize_1-target.png,83,2.967,4,5125,84,meters,jsons/VE83_randls_47_rotated.json,724094,1082891,35,Woman
98,822120,DepthScenes,duration_manipulation_targetAtFixation,jsons/VE83_randls_47_rotated.json,http://54.235.29.9/FacialAge/BNav_EC2/DepthDuration/v2_depth_duration_MTurk/v2_DepthDuration_HTML.html#15,15,1600,900,1600,900,8-29-2023,14-37-44,99,depth_duration_stimuli/001222_2014-06-17_16-24-06_260595134347_rgbf000073-resize_0/001222_2014-06-17_16-24-06_260595134347_rgbf000073-resize-original.jpg,83,1.4385,4,5145,84,meters,jsons/VE83_randls_47_rotated.json,724094,1082891,35,Woman
99,822120,DepthScenes,duration_manipulation_targetAtFixation,jsons/VE83_randls_47_rotated.json,http://54.235.29.9/FacialAge/BNav_EC2/DepthDuration/v2_depth_duration_MTurk/v2_DepthDuration_HTML.html#15,15,1600,900,1600,900,8-29-2023,14-37-44,100,depth_duration_stimuli/002637_2014-06-24_14-51-13_094959634447_rgbf000066-resize_4/002637_2014-06-24_14-51-13_094959634447_rgbf000066-resize_4-target.png,83,1.9955,3,4227,84,meters,jsons/VE83_randls_47_rotated.json,724094,1082891,35,Woman
100,822120,DepthScenes,duration_manipulation_targetAtFixation,jsons/VE83_randls_47_rotated.json,http://54.235.29.9/FacialAge/BNav_EC2/DepthDuration/v2_depth_duration_MTurk/v2_DepthDuration_HTML.html#15,15,1600,900,1600,900,8-29-2023,14-37-44,101,depth_duration_stimuli/003534_2014-05-22_15-06-10_094959634447_rgbf000102-resize_4/003534_2014-05-22_15-06-10_094959634447_rgbf000102-resize_4-target.png,83,1.426,4,3036,84,meters,jsons/VE83_randls_47_rotated.json,724094,1082891,35,Woman
101,822120,DepthScenes,duration_manipulation_targetAtFixation,jsons/VE83_randls_47_rotated.json,http://54.235.29.9/FacialAge/BNav_EC2/DepthDuration/v2_depth_duration_MTurk/v2_DepthDuration_HTML.html#15,15,1600,900,1600,900,8-29-2023,14-37-44,102,depth_duration_stimuli/000409_2014-06-04_19-23-33_260595134347_rgbf000067-resize_0/000409_2014-06-04_19-23-33_260595134347_rgbf000067-resize_0-target.png,83,3.7335,6,7202,83,meters,jsons/VE83_randls_47_rotated.json,724094,1082891,35,Woman
102,822120,DepthScenes,duration_manipulation_targetAtFixation,jsons/VE83_randls_47_rotated.json,http://54.235.29.9/FacialAge/BNav_EC2/DepthDuration/v2_depth_duration_MTurk/v2_DepthDuration_HTML.html#15,15,1600,900,1600,900,8-29-2023,14-37-44,103,depth_duration_stimuli/002663_2014-06-13_15-50-26_094959634447_rgbf000075-resize_1/002663_2014-06-13_15-50-26_094959634447_rgbf000075-resize_1-target.png,83,4.7495,5,4194,83,meters,jsons/VE83_randls_47_rotated.json,724094,1082891,35,Woman
103,822120,DepthScenes,duration_manipulation_targetAtFixation,jsons/VE83_randls_47_rotated.json,http://54.235.29.9/FacialAge/BNav_EC2/DepthDuration/v2_depth_duration_MTurk/v2_DepthDuration_HTML.html#15,15,1600,900,1600,900,8-29-2023,14-37-44,104,depth_duration_stimuli/002678_2014-06-13_16-15-32_094959634447_rgbf000151-resize_6/002678_2014-06-13_16-15-32_094959634447_rgbf000151-resize_6-target.png,83,2.1830000000000003,4,3199,81,meters,jsons/VE83_randls_47_rotated.json,724094,1082891,35,Woman
104,822120,DepthScenes,duration_manipulation_targetAtFixation,jsons/VE83_randls_47_rotated.json,http://54.235.29.9/FacialAge/BNav_EC2/DepthDuration/v2_depth_duration_MTurk/v2_DepthDuration_HTML.html#15,15,1600,900,1600,900,8-29-2023,14-37-44,105,depth_duration_stimuli/000368_2014-06-09_15-53-01_260595134347_rgbf000155-resize_2/000368_2014-06-09_15-53-01_260595134347_rgbf000155-resize_2-target.png,83,2.4859999999999998,5,3467,85,meters,jsons/VE83_randls_47_rotated.json,724094,1082891,35,Woman
105,822120,DepthScenes,duration_manipulation_targetAtFixation,jsons/VE83_randls_47_rotated.json,http://54.235.29.9/FacialAge/BNav_EC2/DepthDuration/v2_depth_duration_MTurk/v2_DepthDuration_HTML.html#15,15,1600,900,1600,900,8-29-2023,14-37-44,106,depth_duration_stimuli/002414_2014-06-28_20-24-58_260595134347_rgbf000067-resize_4/002414_2014-06-28_20-24-58_260595134347_rgbf000067-resize_4-target.png,83,4.363,4,3545,82,meters,jsons/VE83_randls_47_rotated.json,724094,1082891,35,Woman
106,822120,DepthScenes,duration_manipulation_targetAtFixation,jsons/VE83_randls_47_rotated.json,http://54.235.29.9/FacialAge/BNav_EC2/DepthDuration/v2_depth_duration_MTurk/v2_DepthDuration_HTML.html#15,15,1600,900,1600,900,8-29-2023,14-37-44,107,depth_duration_stimuli/000773_2014-06-08_22-24-54_260595134347_rgbf000093-resize_1/000773_2014-06-08_22-24-54_260595134347_rgbf000093-resize_1-target.png,83,4.973,5,3114,94,meters,jsons/VE83_randls_47_rotated.json,724094,1082891,35,Woman
107,822120,DepthScenes,duration_manipulation_targetAtFixation,jsons/VE83_randls_47_rotated.json,http://54.235.29.9/FacialAge/BNav_EC2/DepthDuration/v2_depth_duration_MTurk/v2_DepthDuration_HTML.html#15,15,1600,900,1600,900,8-29-2023,14-37-44,108,depth_duration_stimuli/000780_2014-06-08_22-28-29_260595134347_rgbf000126-resize_1/000780_2014-06-08_22-28-29_260595134347_rgbf000126-resize_1-target.png,83,3.3825,4,4092,82,meters,jsons/VE83_randls_47_rotated.json,724094,1082891,35,Woman
108,822120,DepthScenes,duration_manipulation_targetAtFixation,jsons/VE83_randls_47_rotated.json,http://54.235.29.9/FacialAge/BNav_EC2/DepthDuration/v2_depth_duration_MTurk/v2_DepthDuration_HTML.html#15,15,1600,900,1600,900,8-29-2023,14-37-44,109,depth_duration_stimuli/002445_2014-06-28_20-32-16_260595134347_rgbf000029-resize_4/002445_2014-06-28_20-32-16_260595134347_rgbf000029-resize_4-target.png,83,2.5315,6,3512,83,meters,jsons/VE83_randls_47_rotated.json,724094,1082891,35,Woman
109,822120,DepthScenes,duration_manipulation_targetAtFixation,jsons/VE83_randls_47_rotated.json,http://54.235.29.9/FacialAge/BNav_EC2/DepthDuration/v2_depth_duration_MTurk/v2_DepthDuration_HTML.html#15,15,1600,900,1600,900,8-29-2023,14-37-44,110,depth_duration_stimuli/000742_2014-06-08_18-48-09_260595134347_rgbf000164-resize_4/000742_2014-06-08_18-48-09_260595134347_rgbf000164-resize_4-target.png,83,4.632,4,2786,84,meters,jsons/VE83_randls_47_rotated.json,724094,1082891,35,Woman
110,822120,DepthScenes,duration_manipulation_targetAtFixation,jsons/VE83_randls_47_rotated.json,http://54.235.29.9/FacialAge/BNav_EC2/DepthDuration/v2_depth_duration_MTurk/v2_DepthDuration_HTML.html#15,15,1600,900,1600,900,8-29-2023,14-37-44,111,depth_duration_stimuli/001066_2014-06-08_22-03-20_260595134347_rgbf000066-resize_4/001066_2014-06-08_22-03-20_260595134347_rgbf000066-resize_4-target.png,83,4.2330000000000005,5,4361,83,meters,jsons/VE83_randls_47_rotated.json,724094,1082891,35,Woman
111,822120,DepthScenes,duration_manipulation_targetAtFixation,jsons/VE83_randls_47_rotated.json,http://54.235.29.9/FacialAge/BNav_EC2/DepthDuration/v2_depth_duration_MTurk/v2_DepthDuration_HTML.html#15,15,1600,900,1600,900,8-29-2023,14-37-44,112,depth_duration_stimuli/001392_2014-06-19_16-07-59_260595134347_rgbf000046-resize_1/001392_2014-06-19_16-07-59_260595134347_rgbf000046-resize_1-target.png,83,4.135,5,2738,83,meters,jsons/VE83_randls_47_rotated.json,724094,1082891,35,Woman
112,822120,DepthScenes,duration_manipulation_targetAtFixation,jsons/VE83_randls_47_rotated.json,http://54.235.29.9/FacialAge/BNav_EC2/DepthDuration/v2_depth_duration_MTurk/v2_DepthDuration_HTML.html#15,15,1600,900,1600,900,8-29-2023,14-37-44,113,depth_duration_stimuli/001570_2014-06-20_17-21-09_260595134347_rgbf000135-resize_4/001570_2014-06-20_17-21-09_260595134347_rgbf000135-resize_4-target.png,83,4.467,5,3594,83,meters,jsons/VE83_randls_47_rotated.json,724094,1082891,35,Woman
113,822120,DepthScenes,duration_manipulation_targetAtFixation,jsons/VE83_randls_47_rotated.json,http://54.235.29.9/FacialAge/BNav_EC2/DepthDuration/v2_depth_duration_MTurk/v2_DepthDuration_HTML.html#15,15,1600,900,1600,900,8-29-2023,14-37-44,114,depth_duration_stimuli/000854_2014-06-09_19-43-13_260595134347_rgbf000066-resize_0/000854_2014-06-09_19-43-13_260595134347_rgbf000066-resize_0-target.png,83,3.068,4,3425,82,meters,jsons/VE83_randls_47_rotated.json,724094,1082891,35,Woman
114,822120,DepthScenes,duration_manipulation_targetAtFixation,jsons/VE83_randls_47_rotated.json,http://54.235.29.9/FacialAge/BNav_EC2/DepthDuration/v2_depth_duration_MTurk/v2_DepthDuration_HTML.html#15,15,1600,900,1600,900,8-29-2023,14-37-44,115,depth_duration_stimuli/000758_2014-06-08_22-05-08_260595134347_rgbf000085-resize_0/000758_2014-06-08_22-05-08_260595134347_rgbf000085-resize_0-target.png,83,3.3810000000000002,5,3042,84,meters,jsons/VE83_randls_47_rotated.json,724094,1082891,35,Woman
115,822120,DepthScenes,duration_manipulation_targetAtFixation,jsons/VE83_randls_47_rotated.json,http://54.235.29.9/FacialAge/BNav_EC2/DepthDuration/v2_depth_duration_MTurk/v2_DepthDuration_HTML.html#15,15,1600,900,1600,900,8-29-2023,14-37-44,116,depth_duration_stimuli/000635_2014-06-08_16-38-42_260595134347_rgbf000106-resize_1/000635_2014-06-08_16-38-42_260595134347_rgbf000106-resize_1-target.png,83,2.074,5,3002,84,meters,jsons/VE83_randls_47_rotated.json,724094,1082891,35,Woman
116,822120,DepthScenes,duration_manipulation_targetAtFixation,jsons/VE83_randls_47_rotated.json,http://54.235.29.9/FacialAge/BNav_EC2/DepthDuration/v2_depth_duration_MTurk/v2_DepthDuration_HTML.html#15,15,1600,900,1600,900,8-29-2023,14-37-44,117,depth_duration_stimuli/002279_2014-06-28_18-55-32_260595134347_rgbf000040-resize_5/002279_2014-06-28_18-55-32_260595134347_rgbf000040-resize_5-target.png,83,1.5043333333333,5,2989,84,meters,jsons/VE83_randls_47_rotated.json,724094,1082891,35,Woman
117,822120,DepthScenes,duration_manipulation_targetAtFixation,jsons/VE83_randls_47_rotated.json,http://54.235.29.9/FacialAge/BNav_EC2/DepthDuration/v2_depth_duration_MTurk/v2_DepthDuration_HTML.html#15,15,1600,900,1600,900,8-29-2023,14-37-44,118,depth_duration_stimuli/002136_2014-06-25_21-18-03_260595134347_rgbf000109-resize_3/002136_2014-06-25_21-18-03_260595134347_rgbf000109-resize_3-target.png,83,1.9569999999999999,5,2607,84,meters,jsons/VE83_randls_47_rotated.json,724094,1082891,35,Woman
118,822120,DepthScenes,duration_manipulation_targetAtFixation,jsons/VE83_randls_47_rotated.json,http://54.235.29.9/FacialAge/BNav_EC2/DepthDuration/v2_depth_duration_MTurk/v2_DepthDuration_HTML.html#15,15,1600,900,1600,900,8-29-2023,14-37-44,119,depth_duration_stimuli/002964_2014-06-08_17-46-11_094959634447_rgbf000091-resize_4/002964_2014-06-08_17-46-11_094959634447_rgbf000091-resize_4-target.png,83,1.6909999999999998,4,2850,83,meters,jsons/VE83_randls_47_rotated.json,724094,1082891,35,Woman
119,822120,DepthScenes,duration_manipulation_targetAtFixation,jsons/VE83_randls_47_rotated.json,http://54.235.29.9/FacialAge/BNav_EC2/DepthDuration/v2_depth_duration_MTurk/v2_DepthDuration_HTML.html#15,15,1600,900,1600,900,8-29-2023,14-37-44,120,depth_duration_stimuli/000787_2014-06-08_22-33-53_260595134347_rgbf000175-resize_1/000787_2014-06-08_22-33-53_260595134347_rgbf000175-resize-original.jpg,83,4.784,5,3770,84,meters,jsons/VE83_randls_47_rotated.json,724094,1082891,35,Woman
120,822120,DepthScenes,duration_manipulation_targetAtFixation,jsons/VE83_randls_47_rotated.json,http://54.235.29.9/FacialAge/BNav_EC2/DepthDuration/v2_depth_duration_MTurk/v2_DepthDuration_HTML.html#15,15,1600,900,1600,900,8-29-2023,14-37-44,121,depth_duration_stimuli/000734_2014-06-08_17-39-11_260595134347_rgbf000128-resize_2/000734_2014-06-08_17-39-11_260595134347_rgbf000128-resize_2-target.png,83,4.098,4,4369,82,meters,jsons/VE83_randls_47_rotated.json,724094,1082891,35,Woman
121,822120,DepthScenes,duration_manipulation_targetAtFixation,jsons/VE83_randls_47_rotated.json,http://54.235.29.9/FacialAge/BNav_EC2/DepthDuration/v2_depth_duration_MTurk/v2_DepthDuration_HTML.html#15,15,1600,900,1600,900,8-29-2023,14-37-44,122,depth_duration_stimuli/000739_2014-06-08_18-45-58_260595134347_rgbf000068-resize_1/000739_2014-06-08_18-45-58_260595134347_rgbf000068-resize_1-target.png,83,3.534,5,2873,83,meters,jsons/VE83_randls_47_rotated.json,724094,1082891,35,Woman
122,822120,DepthScenes,duration_manipulation_targetAtFixation,jsons/VE83_randls_47_rotated.json,http://54.235.29.9/FacialAge/BNav_EC2/DepthDuration/v2_depth_duration_MTurk/v2_DepthDuration_HTML.html#15,15,1600,900,1600,900,8-29-2023,14-37-44,123,depth_duration_stimuli/000927_2014-06-09_16-32-30_260595134347_rgbf000123-resize_3/000927_2014-06-09_16-32-30_260595134347_rgbf000123-resize_3-target.png,83,2.6785,5,3321,82,meters,jsons/VE83_randls_47_rotated.json,724094,1082891,35,Woman
123,822120,DepthScenes,duration_manipulation_targetAtFixation,jsons/VE83_randls_47_rotated.json,http://54.235.29.9/FacialAge/BNav_EC2/DepthDuration/v2_depth_duration_MTurk/v2_DepthDuration_HTML.html#15,15,1600,900,1600,900,8-29-2023,14-37-44,124,depth_duration_stimuli/001110_2014-06-15_17-25-28_260595134347_rgbf000150-resize_1/001110_2014-06-15_17-25-28_260595134347_rgbf000150-resize_1-target.png,83,1.7115,4,3002,84,meters,jsons/VE83_randls_47_rotated.json,724094,1082891,35,Woman
124,822120,DepthScenes,duration_manipulation_targetAtFixation,jsons/VE83_randls_47_rotated.json,http://54.235.29.9/FacialAge/BNav_EC2/DepthDuration/v2_depth_duration_MTurk/v2_DepthDuration_HTML.html#15,15,1600,900,1600,900,8-29-2023,14-37-44,125,depth_duration_stimuli/001235_2014-06-17_16-37-36_260595134347_rgbf000084-resize_4/001235_2014-06-17_16-37-36_260595134347_rgbf000084-resize_4-target.png,83,3.6605,5,2868,83,meters,jsons/VE83_randls_47_rotated.json,724094,1082891,35,Woman
125,822120,DepthScenes,duration_manipulation_targetAtFixation,jsons/VE83_randls_47_rotated.json,http://54.235.29.9/FacialAge/BNav_EC2/DepthDuration/v2_depth_duration_MTurk/v2_DepthDuration_HTML.html#15,15,1600,900,1600,900,8-29-2023,14-37-44,126,depth_duration_stimuli/000788_2014-06-08_22-34-36_260595134347_rgbf000131-resize_1/000788_2014-06-08_22-34-36_260595134347_rgbf000131-resize_1-target.png,83,3.359,4,3123,77,meters,jsons/VE83_randls_47_rotated.json,724094,1082891,35,Woman
126,822120,DepthScenes,duration_manipulation_targetAtFixation,jsons/VE83_randls_47_rotated.json,http://54.235.29.9/FacialAge/BNav_EC2/DepthDuration/v2_depth_duration_MTurk/v2_DepthDuration_HTML.html#15,15,1600,900,1600,900,8-29-2023,14-37-44,127,depth_duration_stimuli/000749_2014-06-08_21-55-06_260595134347_rgbf000070-resize_2/000749_2014-06-08_21-55-06_260595134347_rgbf000070-resize_2-target.png,83,2.331,5,3003,83,meters,jsons/VE83_randls_47_rotated.json,724094,1082891,35,Woman
127,822120,DepthScenes,duration_manipulation_targetAtFixation,jsons/VE83_randls_47_rotated.json,http://54.235.29.9/FacialAge/BNav_EC2/DepthDuration/v2_depth_duration_MTurk/v2_DepthDuration_HTML.html#15,15,1600,900,1600,900,8-29-2023,14-37-44,128,depth_duration_stimuli/002788_2014-06-22_19-36-03_094959634447_rgbf000088-resize_2/002788_2014-06-22_19-36-03_094959634447_rgbf000088-resize_2-target.png,83,1.6465,6,3011,83,meters,jsons/VE83_randls_47_rotated.json,724094,1082891,35,Woman
128,822120,DepthScenes,duration_manipulation_targetAtFixation,jsons/VE83_randls_47_rotated.json,http://54.235.29.9/FacialAge/BNav_EC2/DepthDuration/v2_depth_duration_MTurk/v2_DepthDuration_HTML.html#15,15,1600,900,1600,900,8-29-2023,14-37-44,129,depth_duration_stimuli/002323_2014-06-28_20-01-54_260595134347_rgbf000051-resize_4/002323_2014-06-28_20-01-54_260595134347_rgbf000051-resize_4-target.png,83,3.7310000000000003,5,2786,83,meters,jsons/VE83_randls_47_rotated.json,724094,1082891,35,Woman
129,822120,DepthScenes,duration_manipulation_targetAtFixation,jsons/VE83_randls_47_rotated.json,http://54.235.29.9/FacialAge/BNav_EC2/DepthDuration/v2_depth_duration_MTurk/v2_DepthDuration_HTML.html#15,15,1600,900,1600,900,8-29-2023,14-37-44,130,depth_duration_stimuli/000917_2014-06-09_22-45-29_260595134347_rgbf000149-resize_3/000917_2014-06-09_22-45-29_260595134347_rgbf000149-resize_3-target.png,83,4.1865,4,2727,79,meters,jsons/VE83_randls_47_rotated.json,724094,1082891,35,Woman
130,822120,DepthScenes,duration_manipulation_targetAtFixation,jsons/VE83_randls_47_rotated.json,http://54.235.29.9/FacialAge/BNav_EC2/DepthDuration/v2_depth_duration_MTurk/v2_DepthDuration_HTML.html#15,15,1600,900,1600,900,8-29-2023,14-37-44,131,depth_duration_stimuli/003587_2014-05-23_16-48-02_094959634447_rgbf002384-resize_2/003587_2014-05-23_16-48-02_094959634447_rgbf002384-resize_2-target.png,83,1.357,5,2787,87,meters,jsons/VE83_randls_47_rotated.json,724094,1082891,35,Woman
131,822120,DepthScenes,duration_manipulation_targetAtFixation,jsons/VE83_randls_47_rotated.json,http://54.235.29.9/FacialAge/BNav_EC2/DepthDuration/v2_depth_duration_MTurk/v2_DepthDuration_HTML.html#15,15,1600,900,1600,900,8-29-2023,14-37-44,132,depth_duration_stimuli/001167_2014-06-17_15-38-07_260595134347_rgbf000108-resize_0/001167_2014-06-17_15-38-07_260595134347_rgbf000108-resize_0-target.png,83,1.8505,4,2987,84,meters,jsons/VE83_randls_47_rotated.json,724094,1082891,35,Woman
132,822120,DepthScenes,duration_manipulation_targetAtFixation,jsons/VE83_randls_47_rotated.json,http://54.235.29.9/FacialAge/BNav_EC2/DepthDuration/v2_depth_duration_MTurk/v2_DepthDuration_HTML.html#15,15,1600,900,1600,900,8-29-2023,14-37-44,133,depth_duration_stimuli/001132_2014-06-17_14-48-54_260595134347_rgbf000100-resize_2/001132_2014-06-17_14-48-54_260595134347_rgbf000100-resize_2-target.png,83,3.753,4,3563,84,meters,jsons/VE83_randls_47_rotated.json,724094,1082891,35,Woman
133,822120,DepthScenes,duration_manipulation_targetAtFixation,jsons/VE83_randls_47_rotated.json,http://54.235.29.9/FacialAge/BNav_EC2/DepthDuration/v2_depth_duration_MTurk/v2_DepthDuration_HTML.html#15,15,1600,900,1600,900,8-29-2023,14-37-44,134,depth_duration_stimuli/001133_2014-06-17_14-49-16_260595134347_rgbf000100-resize_0/001133_2014-06-17_14-49-16_260595134347_rgbf000100-resize_0-target.png,83,4.2115,5,3241,83,meters,jsons/VE83_randls_47_rotated.json,724094,1082891,35,Woman
134,822120,DepthScenes,duration_manipulation_targetAtFixation,jsons/VE83_randls_47_rotated.json,http://54.235.29.9/FacialAge/BNav_EC2/DepthDuration/v2_depth_duration_MTurk/v2_DepthDuration_HTML.html#15,15,1600,900,1600,900,8-29-2023,14-37-44,135,depth_duration_stimuli/000375_2014-06-08_11-17-29_260595134347_rgbf000133-resize_2/000375_2014-06-08_11-17-29_260595134347_rgbf000133-resize-original.jpg,83,4.718,4,2865,83,meters,jsons/VE83_randls_47_rotated.json,724094,1082891,35,Woman
135,822120,DepthScenes,duration_manipulation_targetAtFixation,jsons/VE83_randls_47_rotated.json,http://54.235.29.9/FacialAge/BNav_EC2/DepthDuration/v2_depth_duration_MTurk/v2_DepthDuration_HTML.html#15,15,1600,900,1600,900,8-29-2023,14-37-44,136,depth_duration_stimuli/002953_2014-06-08_17-32-18_094959634447_rgbf000059-resize_5/002953_2014-06-08_17-32-18_094959634447_rgbf000059-resize_5-target.png,83,1.551,5,3237,84,meters,jsons/VE83_randls_47_rotated.json,724094,1082891,35,Woman
136,822120,DepthScenes,duration_manipulation_targetAtFixation,jsons/VE83_randls_47_rotated.json,http://54.235.29.9/FacialAge/BNav_EC2/DepthDuration/v2_depth_duration_MTurk/v2_DepthDuration_HTML.html#15,15,1600,900,1600,900,8-29-2023,14-37-44,137,depth_duration_stimuli/000878_2014-06-08_22-52-45_260595134347_rgbf000045-resize_2/000878_2014-06-08_22-52-45_260595134347_rgbf000045-resize_2-target.png,83,2.092,5,2809,83,meters,jsons/VE83_randls_47_rotated.json,724094,1082891,35,Woman
137,822120,DepthScenes,duration_manipulation_targetAtFixation,jsons/VE83_randls_47_rotated.json,http://54.235.29.9/FacialAge/BNav_EC2/DepthDuration/v2_depth_duration_MTurk/v2_DepthDuration_HTML.html#15,15,1600,900,1600,900,8-29-2023,14-37-44,138,depth_duration_stimuli/001584_2014-06-20_11-07-43_260595134347_rgbf000002-resize_1/001584_2014-06-20_11-07-43_260595134347_rgbf000002-resize_1-target.png,83,3.53,4,2625,84,meters,jsons/VE83_randls_47_rotated.json,724094,1082891,35,Woman
138,822120,DepthScenes,duration_manipulation_targetAtFixation,jsons/VE83_randls_47_rotated.json,http://54.235.29.9/FacialAge/BNav_EC2/DepthDuration/v2_depth_duration_MTurk/v2_DepthDuration_HTML.html#15,15,1600,900,1600,900,8-29-2023,14-37-44,139,depth_duration_stimuli/003621_2014-05-23_18-06-08_094959634447_rgbf000101-resize_1/003621_2014-05-23_18-06-08_094959634447_rgbf000101-resize_1-target.png,83,3.9835,5,2787,83,meters,jsons/VE83_randls_47_rotated.json,724094,1082891,35,Woman
139,822120,DepthScenes,duration_manipulation_targetAtFixation,jsons/VE83_randls_47_rotated.json,http://54.235.29.9/FacialAge/BNav_EC2/DepthDuration/v2_depth_duration_MTurk/v2_DepthDuration_HTML.html#15,15,1600,900,1600,900,8-29-2023,14-37-44,140,depth_duration_stimuli/002995_2014-06-15_12-31-26_094959634447_rgbf000150-resize_1/002995_2014-06-15_12-31-26_094959634447_rgbf000150-resize_1-target.png,83,3.8360000000000003,4,2873,83,meters,jsons/VE83_randls_47_rotated.json,724094,1082891,35,Woman
140,822120,DepthScenes,duration_manipulation_targetAtFixation,jsons/VE83_randls_47_rotated.json,http://54.235.29.9/FacialAge/BNav_EC2/DepthDuration/v2_depth_duration_MTurk/v2_DepthDuration_HTML.html#15,15,1600,900,1600,900,8-29-2023,14-37-44,141,depth_duration_stimuli/002748_2014-06-22_19-07-22_094959634447_rgbf000078-resize_1/002748_2014-06-22_19-07-22_094959634447_rgbf000078-resize_1-target.png,83,4.6705,6,3115,84,meters,jsons/VE83_randls_47_rotated.json,724094,1082891,35,Woman
141,822120,DepthScenes,duration_manipulation_targetAtFixation,jsons/VE83_randls_47_rotated.json,http://54.235.29.9/FacialAge/BNav_EC2/DepthDuration/v2_depth_duration_MTurk/v2_DepthDuration_HTML.html#15,15,1600,900,1600,900,8-29-2023,14-37-44,142,depth_duration_stimuli/000556_2014-06-09_22-42-56_260595134347_rgbf000214-resize_1/000556_2014-06-09_22-42-56_260595134347_rgbf000214-resize_1-target.png,83,4.8415,5,3667,84,meters,jsons/VE83_randls_47_rotated.json,724094,1082891,35,Woman
142,822120,DepthScenes,duration_manipulation_targetAtFixation,jsons/VE83_randls_47_rotated.json,http://54.235.29.9/FacialAge/BNav_EC2/DepthDuration/v2_depth_duration_MTurk/v2_DepthDuration_HTML.html#15,15,1600,900,1600,900,8-29-2023,14-37-44,143,depth_duration_stimuli/001158_2014-06-17_15-32-16_260595134347_rgbf000138-resize_2/001158_2014-06-17_15-32-16_260595134347_rgbf000138-resize_2-target.png,83,4.5315,4,3802,83,meters,jsons/VE83_randls_47_rotated.json,724094,1082891,35,Woman
143,822120,DepthScenes,duration_manipulation_targetAtFixation,jsons/VE83_randls_47_rotated.json,http://54.235.29.9/FacialAge/BNav_EC2/DepthDuration/v2_depth_duration_MTurk/v2_DepthDuration_HTML.html#15,15,1600,900,1600,900,8-29-2023,14-37-44,144,depth_duration_stimuli/001650_2014-06-20_12-09-00_260595134347_rgbf000087-resize_3/001650_2014-06-20_12-09-00_260595134347_rgbf000087-resize_3-target.png,83,1.9505,6,3247,75,meters,jsons/VE83_randls_47_rotated.json,724094,1082891,35,Woman
144,822120,DepthScenes,duration_manipulation_targetAtFixation,jsons/VE83_randls_47_rotated.json,http://54.235.29.9/FacialAge/BNav_EC2/DepthDuration/v2_depth_duration_MTurk/v2_DepthDuration_HTML.html#15,15,1600,900,1600,900,8-29-2023,14-37-44,145,depth_duration_stimuli/000682_2014-06-08_23-14-58_260595134347_rgbf000041-resize_5/000682_2014-06-08_23-14-58_260595134347_rgbf000041-resize_5-target.png,83,2.7239999999999998,5,2851,96,meters,jsons/VE83_randls_47_rotated.json,724094,1082891,35,Woman
145,822120,DepthScenes,duration_manipulation_targetAtFixation,jsons/VE83_randls_47_rotated.json,http://54.235.29.9/FacialAge/BNav_EC2/DepthDuration/v2_depth_duration_MTurk/v2_DepthDuration_HTML.html#15,15,1600,900,1600,900,8-29-2023,14-37-44,146,depth_duration_stimuli/002750_2014-06-22_19-08-03_094959634447_rgbf000094-resize_4/002750_2014-06-22_19-08-03_094959634447_rgbf000094-resize_4-target.png,83,2.354,5,2814,84,meters,jsons/VE83_randls_47_rotated.json,724094,1082891,35,Woman
146,822120,DepthScenes,duration_manipulation_targetAtFixation,jsons/VE83_randls_47_rotated.json,http://54.235.29.9/FacialAge/BNav_EC2/DepthDuration/v2_depth_duration_MTurk/v2_DepthDuration_HTML.html#15,15,1600,900,1600,900,8-29-2023,14-37-44,147,depth_duration_stimuli/002549_2014-06-24_13-41-39_094959634447_rgbf000022-resize_3/002549_2014-06-24_13-41-39_094959634447_rgbf000022-resize_3-target.png,83,1.476,5,2801,119,meters,jsons/VE83_randls_47_rotated.json,724094,1082891,35,Woman
147,822120,DepthScenes,duration_manipulation_targetAtFixation,jsons/VE83_randls_47_rotated.json,http://54.235.29.9/FacialAge/BNav_EC2/DepthDuration/v2_depth_duration_MTurk/v2_DepthDuration_HTML.html#15,15,1600,900,1600,900,8-29-2023,14-37-44,148,depth_duration_stimuli/001516_2014-06-20_16-25-09_260595134347_rgbf000076-resize_2/001516_2014-06-20_16-25-09_260595134347_rgbf000076-resize_2-target.png,83,1.7445,4,2646,83,meters,jsons/VE83_randls_47_rotated.json,724094,1082891,35,Woman
148,822120,DepthScenes,duration_manipulation_targetAtFixation,jsons/VE83_randls_47_rotated.json,http://54.235.29.9/FacialAge/BNav_EC2/DepthDuration/v2_depth_duration_MTurk/v2_DepthDuration_HTML.html#15,15,1600,900,1600,900,8-29-2023,14-37-44,149,depth_duration_stimuli/002118_2014-06-25_20-32-08_260595134347_rgbf000078-resize_1/002118_2014-06-25_20-32-08_260595134347_rgbf000078-resize_1-target.png,83,2.6460000000000004,5,2896,85,meters,jsons/VE83_randls_47_rotated.json,724094,1082891,35,Woman
149,822120,DepthScenes,duration_manipulation_targetAtFixation,jsons/VE83_randls_47_rotated.json,http://54.235.29.9/FacialAge/BNav_EC2/DepthDuration/v2_depth_duration_MTurk/v2_DepthDuration_HTML.html#15,15,1600,900,1600,900,8-29-2023,14-37-44,150,depth_duration_stimuli/001571_2014-06-20_17-21-32_260595134347_rgbf000089-resize_1/001571_2014-06-20_17-21-32_260595134347_rgbf000089-resize_1-target.png,83,1.86,5,2979,84,meters,jsons/VE83_randls_47_rotated.json,724094,1082891,35,Woman
150,822120,DepthScenes,duration_manipulation_targetAtFixation,jsons/VE83_randls_47_rotated.json,http://54.235.29.9/FacialAge/BNav_EC2/DepthDuration/v2_depth_duration_MTurk/v2_DepthDuration_HTML.html#15,15,1600,900,1600,900,8-29-2023,14-37-44,151,depth_duration_stimuli/002272_2014-06-28_18-53-56_260595134347_rgbf000067-resize_2/002272_2014-06-28_18-53-56_260595134347_rgbf000067-resize_2-target.png,83,1.138,6,2954,84,meters,jsons/VE83_randls_47_rotated.json,724094,1082891,35,Woman
151,822120,DepthScenes,duration_manipulation_targetAtFixation,jsons/VE83_randls_47_rotated.json,http://54.235.29.9/FacialAge/BNav_EC2/DepthDuration/v2_depth_duration_MTurk/v2_DepthDuration_HTML.html#15,15,1600,900,1600,900,8-29-2023,14-37-44,152,depth_duration_stimuli/000569_2014-06-09_22-51-47_260595134347_rgbf000141-resize_3/000569_2014-06-09_22-51-47_260595134347_rgbf000141-resize-original.jpg,83,4.512,5,3421,83,meters,jsons/VE83_randls_47_rotated.json,724094,1082891,35,Woman
152,822120,DepthScenes,duration_manipulation_targetAtFixation,jsons/VE83_randls_47_rotated.json,http://54.235.29.9/FacialAge/BNav_EC2/DepthDuration/v2_depth_duration_MTurk/v2_DepthDuration_HTML.html#15,15,1600,900,1600,900,8-29-2023,14-37-44,153,depth_duration_stimuli/003338_2014-05-20_11-01-23_094959634447_rgbf000051-resize_6/003338_2014-05-20_11-01-23_094959634447_rgbf000051-resize_6-target.png,83,1.693,5,2759,82,meters,jsons/VE83_randls_47_rotated.json,724094,1082891,35,Woman
153,822120,DepthScenes,duration_manipulation_targetAtFixation,jsons/VE83_randls_47_rotated.json,http://54.235.29.9/FacialAge/BNav_EC2/DepthDuration/v2_depth_duration_MTurk/v2_DepthDuration_HTML.html#15,15,1600,900,1600,900,8-29-2023,14-37-44,154,depth_duration_stimuli/002509_2014-06-24_13-19-22_094959634447_rgbf000077-resize_0/002509_2014-06-24_13-19-22_094959634447_rgbf000077-resize_0-target.png,83,1.3065,4,2689,82,meters,jsons/VE83_randls_47_rotated.json,724094,1082891,35,Woman
154,822120,DepthScenes,duration_manipulation_targetAtFixation,jsons/VE83_randls_47_rotated.json,http://54.235.29.9/FacialAge/BNav_EC2/DepthDuration/v2_depth_duration_MTurk/v2_DepthDuration_HTML.html#15,15,1600,900,1600,900,8-29-2023,14-37-44,155,depth_duration_stimuli/002103_2014-06-25_20-00-40_260595134347_rgbf000049-resize_0/002103_2014-06-25_20-00-40_260595134347_rgbf000049-resize_0-target.png,83,4.105,4,2686,88,meters,jsons/VE83_randls_47_rotated.json,724094,1082891,35,Woman
155,822120,DepthScenes,duration_manipulation_targetAtFixation,jsons/VE83_randls_47_rotated.json,http://54.235.29.9/FacialAge/BNav_EC2/DepthDuration/v2_depth_duration_MTurk/v2_DepthDuration_HTML.html#15,15,1600,900,1600,900,8-29-2023,14-37-44,156,depth_duration_stimuli/002039_2014-06-24_20-22-38_260595134347_rgbf000084-resize_1/002039_2014-06-24_20-22-38_260595134347_rgbf000084-resize_1-target.png,83,4.408,5,3416,84,meters,jsons/VE83_randls_47_rotated.json,724094,1082891,35,Woman
156,822120,DepthScenes,duration_manipulation_targetAtFixation,jsons/VE83_randls_47_rotated.json,http://54.235.29.9/FacialAge/BNav_EC2/DepthDuration/v2_depth_duration_MTurk/v2_DepthDuration_HTML.html#15,15,1600,900,1600,900,8-29-2023,14-37-44,157,depth_duration_stimuli/000137_2014-05-20_17-04-49_260595134347_rgbf000120-resize_1/000137_2014-05-20_17-04-49_260595134347_rgbf000120-resize_1-target.png,83,3.786,5,2570,69,meters,jsons/VE83_randls_47_rotated.json,724094,1082891,35,Woman
157,822120,DepthScenes,duration_manipulation_targetAtFixation,jsons/VE83_randls_47_rotated.json,http://54.235.29.9/FacialAge/BNav_EC2/DepthDuration/v2_depth_duration_MTurk/v2_DepthDuration_HTML.html#15,15,1600,900,1600,900,8-29-2023,14-37-44,158,depth_duration_stimuli/000736_2014-06-08_18-24-15_260595134347_rgbf000206-resize_3/000736_2014-06-08_18-24-15_260595134347_rgbf000206-resize_3-target.png,83,3.515,5,3481,82,meters,jsons/VE83_randls_47_rotated.json,724094,1082891,35,Woman
158,822120,DepthScenes,duration_manipulation_targetAtFixation,jsons/VE83_randls_47_rotated.json,http://54.235.29.9/FacialAge/BNav_EC2/DepthDuration/v2_depth_duration_MTurk/v2_DepthDuration_HTML.html#15,15,1600,900,1600,900,8-29-2023,14-37-44,159,depth_duration_stimuli/002444_2014-06-28_20-32-08_260595134347_rgbf000027-resize_0/002444_2014-06-28_20-32-08_260595134347_rgbf000027-resize_0-target.png,83,4.388999999999999,4,3011,84,meters,jsons/VE83_randls_47_rotated.json,724094,1082891,35,Woman
159,822120,DepthScenes,duration_manipulation_targetAtFixation,jsons/VE83_randls_47_rotated.json,http://54.235.29.9/FacialAge/BNav_EC2/DepthDuration/v2_depth_duration_MTurk/v2_DepthDuration_HTML.html#15,15,1600,900,1600,900,8-29-2023,14-37-44,160,depth_duration_stimuli/000436_2014-06-09_22-25-11_260595134347_rgbf000137-resize_1/000436_2014-06-09_22-25-11_260595134347_rgbf000137-resize_1-target.png,83,4.0705,5,3037,84,meters,jsons/VE83_randls_47_rotated.json,724094,1082891,35,Woman
160,822120,DepthScenes,duration_manipulation_targetAtFixation,jsons/VE83_randls_47_rotated.json,http://54.235.29.9/FacialAge/BNav_EC2/DepthDuration/v2_depth_duration_MTurk/v2_DepthDuration_HTML.html#15,15,1600,900,1600,900,8-29-2023,14-37-44,161,depth_duration_stimuli/002758_2014-06-22_19-11-20_094959634447_rgbf000128-resize_1/002758_2014-06-22_19-11-20_094959634447_rgbf000128-resize_1-target.png,83,2.555,5,4221,73,meters,jsons/VE83_randls_47_rotated.json,724094,1082891,35,Woman
161,822120,DepthScenes,duration_manipulation_targetAtFixation,jsons/VE83_randls_47_rotated.json,http://54.235.29.9/FacialAge/BNav_EC2/DepthDuration/v2_depth_duration_MTurk/v2_DepthDuration_HTML.html#15,15,1600,900,1600,900,8-29-2023,14-37-44,162,depth_duration_stimuli/002630_2014-06-24_14-47-50_094959634447_rgbf000055-resize_1/002630_2014-06-24_14-47-50_094959634447_rgbf000055-resize_1-target.png,83,3.0095,5,2809,83,meters,jsons/VE83_randls_47_rotated.json,724094,1082891,35,Woman
162,822120,DepthScenes,duration_manipulation_targetAtFixation,jsons/VE83_randls_47_rotated.json,http://54.235.29.9/FacialAge/BNav_EC2/DepthDuration/v2_depth_duration_MTurk/v2_DepthDuration_HTML.html#15,15,1600,900,1600,900,8-29-2023,14-37-44,163,depth_duration_stimuli/000943_2014-06-09_19-31-07_260595134347_rgbf000128-resize_1/000943_2014-06-09_19-31-07_260595134347_rgbf000128-resize_1-target.png,83,1.9765,5,2586,83,meters,jsons/VE83_randls_47_rotated.json,724094,1082891,35,Woman
163,822120,DepthScenes,duration_manipulation_targetAtFixation,jsons/VE83_randls_47_rotated.json,http://54.235.29.9/FacialAge/BNav_EC2/DepthDuration/v2_depth_duration_MTurk/v2_DepthDuration_HTML.html#15,15,1600,900,1600,900,8-29-2023,14-37-44,164,depth_duration_stimuli/003070_2014-06-15_14-58-27_094959634447_rgbf000150-resize_3/003070_2014-06-15_14-58-27_094959634447_rgbf000150-resize_3-target.png,83,2.9415,5,2786,83,meters,jsons/VE83_randls_47_rotated.json,724094,1082891,35,Woman
