,subjID,experimentName,versionName,sequenceName,url,selected_row,windowWidth,windowHeight,screenWidth,screenHeight,startDate,startTime,trial,stimulus,duration,actual_depth,depth_estimate,trial_RT,log_sceneDuration,unitSelection,seq_filepath,experimentTime,totalTime,age,gender
0,823453,DepthScenes,duration_manipulation_targetAtFixation,jsons/v1_VE1000_randls_11_rotated.json,http://54.235.29.9/FacialAge/BNav_EC2/DepthDuration/v2_depth_duration_MTurk/v2_DepthDuration_HTML.html#361,361,1920,1080,1920,1080,9-4-2022,10-15-14,1,depth_duration_stimuli/003010_2014-06-15_12-54-35_094959634447_rgbf000112-resize_0/003010_2014-06-15_12-54-35_094959634447_rgbf000112-resize_0-target.png,1000,3.1185,12,5437,1000,feet,jsons/v1_VE1000_randls_11_rotated.json,1110604,1453932,54,Man
1,823453,DepthScenes,duration_manipulation_targetAtFixation,jsons/v1_VE1000_randls_11_rotated.json,http://54.235.29.9/FacialAge/BNav_EC2/DepthDuration/v2_depth_duration_MTurk/v2_DepthDuration_HTML.html#361,361,1920,1080,1920,1080,9-4-2022,10-15-14,2,depth_duration_stimuli/001810_2014-06-26_20-51-35_260595134347_rgbf000040-resize_3/001810_2014-06-26_20-51-35_260595134347_rgbf000040-resize_3-target.png,1000,2.2525,3,5544,999,feet,jsons/v1_VE1000_randls_11_rotated.json,1110604,1453932,54,Man
2,823453,DepthScenes,duration_manipulation_targetAtFixation,jsons/v1_VE1000_randls_11_rotated.json,http://54.235.29.9/FacialAge/BNav_EC2/DepthDuration/v2_depth_duration_MTurk/v2_DepthDuration_HTML.html#361,361,1920,1080,1920,1080,9-4-2022,10-15-14,3,depth_duration_stimuli/000103_2014-05-14_22-01-17_260595134347_rgbf000152-resize_5/000103_2014-05-14_22-01-17_260595134347_rgbf000152-resize_5-target.png,1000,1.993,6,7292,999,feet,jsons/v1_VE1000_randls_11_rotated.json,1110604,1453932,54,Man
3,823453,DepthScenes,duration_manipulation_targetAtFixation,jsons/v1_VE1000_randls_11_rotated.json,http://54.235.29.9/FacialAge/BNav_EC2/DepthDuration/v2_depth_duration_MTurk/v2_DepthDuration_HTML.html#361,361,1920,1080,1920,1080,9-4-2022,10-15-14,4,depth_duration_stimuli/001555_2014-06-20_17-12-10_260595134347_rgbf000065-resize_4/001555_2014-06-20_17-12-10_260595134347_rgbf000065-resize_4-target.png,1000,1.633,3,5954,1000,feet,jsons/v1_VE1000_randls_11_rotated.json,1110604,1453932,54,Man
4,823453,DepthScenes,duration_manipulation_targetAtFixation,jsons/v1_VE1000_randls_11_rotated.json,http://54.235.29.9/FacialAge/BNav_EC2/DepthDuration/v2_depth_duration_MTurk/v2_DepthDuration_HTML.html#361,361,1920,1080,1920,1080,9-4-2022,10-15-14,5,depth_duration_stimuli/003048_2014-06-15_13-49-43_094959634447_rgbf000150-resize_1/003048_2014-06-15_13-49-43_094959634447_rgbf000150-resize_1-target.png,1000,4.0035,13,5251,999,feet,jsons/v1_VE1000_randls_11_rotated.json,1110604,1453932,54,Man
5,823453,DepthScenes,duration_manipulation_targetAtFixation,jsons/v1_VE1000_randls_11_rotated.json,http://54.235.29.9/FacialAge/BNav_EC2/DepthDuration/v2_depth_duration_MTurk/v2_DepthDuration_HTML.html#361,361,1920,1080,1920,1080,9-4-2022,10-15-14,6,depth_duration_stimuli/002043_2014-06-24_20-29-38_260595134347_rgbf000039-resize_4/002043_2014-06-24_20-29-38_260595134347_rgbf000039-resize_4-target.png,1000,2.8435,10,5404,999,feet,jsons/v1_VE1000_randls_11_rotated.json,1110604,1453932,54,Man
6,823453,DepthScenes,duration_manipulation_targetAtFixation,jsons/v1_VE1000_randls_11_rotated.json,http://54.235.29.9/FacialAge/BNav_EC2/DepthDuration/v2_depth_duration_MTurk/v2_DepthDuration_HTML.html#361,361,1920,1080,1920,1080,9-4-2022,10-15-14,7,depth_duration_stimuli/002545_2014-06-24_13-38-53_094959634447_rgbf000080-resize_4/002545_2014-06-24_13-38-53_094959634447_rgbf000080-resize_4-target.png,1000,1.9205,8,6163,999,feet,jsons/v1_VE1000_randls_11_rotated.json,1110604,1453932,54,Man
7,823453,DepthScenes,duration_manipulation_targetAtFixation,jsons/v1_VE1000_randls_11_rotated.json,http://54.235.29.9/FacialAge/BNav_EC2/DepthDuration/v2_depth_duration_MTurk/v2_DepthDuration_HTML.html#361,361,1920,1080,1920,1080,9-4-2022,10-15-14,8,depth_duration_stimuli/001092_2014-06-15_17-34-58_260595134347_rgbf000171-resize_3/001092_2014-06-15_17-34-58_260595134347_rgbf000171-resize_3-target.png,1000,2.6935,6,6419,1000,feet,jsons/v1_VE1000_randls_11_rotated.json,1110604,1453932,54,Man
8,823453,DepthScenes,duration_manipulation_targetAtFixation,jsons/v1_VE1000_randls_11_rotated.json,http://54.235.29.9/FacialAge/BNav_EC2/DepthDuration/v2_depth_duration_MTurk/v2_DepthDuration_HTML.html#361,361,1920,1080,1920,1080,9-4-2022,10-15-14,9,depth_duration_stimuli/002323_2014-06-28_20-01-54_260595134347_rgbf000051-resize_4/002323_2014-06-28_20-01-54_260595134347_rgbf000051-resize_4-target.png,1000,3.7310000000000003,14,6563,1000,feet,jsons/v1_VE1000_randls_11_rotated.json,1110604,1453932,54,Man
9,823453,DepthScenes,duration_manipulation_targetAtFixation,jsons/v1_VE1000_randls_11_rotated.json,http://54.235.29.9/FacialAge/BNav_EC2/DepthDuration/v2_depth_duration_MTurk/v2_DepthDuration_HTML.html#361,361,1920,1080,1920,1080,9-4-2022,10-15-14,10,depth_duration_stimuli/000917_2014-06-09_22-45-29_260595134347_rgbf000149-resize_3/000917_2014-06-09_22-45-29_260595134347_rgbf000149-resize_3-target.png,1000,4.1865,20,5571,1000,feet,jsons/v1_VE1000_randls_11_rotated.json,1110604,1453932,54,Man
10,823453,DepthScenes,duration_manipulation_targetAtFixation,jsons/v1_VE1000_randls_11_rotated.json,http://54.235.29.9/FacialAge/BNav_EC2/DepthDuration/v2_depth_duration_MTurk/v2_DepthDuration_HTML.html#361,361,1920,1080,1920,1080,9-4-2022,10-15-14,11,depth_duration_stimuli/001828_2014-06-26_21-40-03_260595134347_rgbf000024-resize_0/001828_2014-06-26_21-40-03_260595134347_rgbf000024-resize_0-target.png,1000,4.8260000000000005,15,5619,1000,feet,jsons/v1_VE1000_randls_11_rotated.json,1110604,1453932,54,Man
11,823453,DepthScenes,duration_manipulation_targetAtFixation,jsons/v1_VE1000_randls_11_rotated.json,http://54.235.29.9/FacialAge/BNav_EC2/DepthDuration/v2_depth_duration_MTurk/v2_DepthDuration_HTML.html#361,361,1920,1080,1920,1080,9-4-2022,10-15-14,12,depth_duration_stimuli/000009_2014-05-26_14-32-05_260595134347_rgbf000034-resize_3/000009_2014-05-26_14-32-05_260595134347_rgbf000034-resize_3-target.png,1000,3.8715,13,8058,1000,feet,jsons/v1_VE1000_randls_11_rotated.json,1110604,1453932,54,Man
12,823453,DepthScenes,duration_manipulation_targetAtFixation,jsons/v1_VE1000_randls_11_rotated.json,http://54.235.29.9/FacialAge/BNav_EC2/DepthDuration/v2_depth_duration_MTurk/v2_DepthDuration_HTML.html#361,361,1920,1080,1920,1080,9-4-2022,10-15-14,13,depth_duration_stimuli/000709_2014-06-08_13-51-55_260595134347_rgbf000068-resize_3/000709_2014-06-08_13-51-55_260595134347_rgbf000068-resize_3-target.png,1000,1.8030000000000002,4,5396,1000,feet,jsons/v1_VE1000_randls_11_rotated.json,1110604,1453932,54,Man
13,823453,DepthScenes,duration_manipulation_targetAtFixation,jsons/v1_VE1000_randls_11_rotated.json,http://54.235.29.9/FacialAge/BNav_EC2/DepthDuration/v2_depth_duration_MTurk/v2_DepthDuration_HTML.html#361,361,1920,1080,1920,1080,9-4-2022,10-15-14,14,depth_duration_stimuli/002057_2014-06-24_21-00-13_260595134347_rgbf000120-resize_1/002057_2014-06-24_21-00-13_260595134347_rgbf000120-resize_1-target.png,1000,2.967,8,7060,1000,feet,jsons/v1_VE1000_randls_11_rotated.json,1110604,1453932,54,Man
14,823453,DepthScenes,duration_manipulation_targetAtFixation,jsons/v1_VE1000_randls_11_rotated.json,http://54.235.29.9/FacialAge/BNav_EC2/DepthDuration/v2_depth_duration_MTurk/v2_DepthDuration_HTML.html#361,361,1920,1080,1920,1080,9-4-2022,10-15-14,15,depth_duration_stimuli/001516_2014-06-20_16-25-09_260595134347_rgbf000076-resize_2/001516_2014-06-20_16-25-09_260595134347_rgbf000076-resize_2-target.png,1000,1.7445,6,5962,1000,feet,jsons/v1_VE1000_randls_11_rotated.json,1110604,1453932,54,Man
15,823453,DepthScenes,duration_manipulation_targetAtFixation,jsons/v1_VE1000_randls_11_rotated.json,http://54.235.29.9/FacialAge/BNav_EC2/DepthDuration/v2_depth_duration_MTurk/v2_DepthDuration_HTML.html#361,361,1920,1080,1920,1080,9-4-2022,10-15-14,16,depth_duration_stimuli/002118_2014-06-25_20-32-08_260595134347_rgbf000078-resize_1/002118_2014-06-25_20-32-08_260595134347_rgbf000078-resize_1-target.png,1000,2.6460000000000004,11,11971,1000,feet,jsons/v1_VE1000_randls_11_rotated.json,1110604,1453932,54,Man
16,823453,DepthScenes,duration_manipulation_targetAtFixation,jsons/v1_VE1000_randls_11_rotated.json,http://54.235.29.9/FacialAge/BNav_EC2/DepthDuration/v2_depth_duration_MTurk/v2_DepthDuration_HTML.html#361,361,1920,1080,1920,1080,9-4-2022,10-15-14,17,depth_duration_stimuli/003587_2014-05-23_16-48-02_094959634447_rgbf002384-resize_2/003587_2014-05-23_16-48-02_094959634447_rgbf002384-resize_2-target.png,1000,1.357,2,4875,1000,feet,jsons/v1_VE1000_randls_11_rotated.json,1110604,1453932,54,Man
17,823453,DepthScenes,duration_manipulation_targetAtFixation,jsons/v1_VE1000_randls_11_rotated.json,http://54.235.29.9/FacialAge/BNav_EC2/DepthDuration/v2_depth_duration_MTurk/v2_DepthDuration_HTML.html#361,361,1920,1080,1920,1080,9-4-2022,10-15-14,18,depth_duration_stimuli/001167_2014-06-17_15-38-07_260595134347_rgbf000108-resize_0/001167_2014-06-17_15-38-07_260595134347_rgbf000108-resize_0-target.png,1000,1.8505,4,5291,999,feet,jsons/v1_VE1000_randls_11_rotated.json,1110604,1453932,54,Man
18,823453,DepthScenes,duration_manipulation_targetAtFixation,jsons/v1_VE1000_randls_11_rotated.json,http://54.235.29.9/FacialAge/BNav_EC2/DepthDuration/v2_depth_duration_MTurk/v2_DepthDuration_HTML.html#361,361,1920,1080,1920,1080,9-4-2022,10-15-14,19,depth_duration_stimuli/001498_2014-06-19_17-45-14_260595134347_rgbf000129-resize_4/001498_2014-06-19_17-45-14_260595134347_rgbf000129-resize-original.jpg,1000,1.4075,0,4754,1000,feet,jsons/v1_VE1000_randls_11_rotated.json,1110604,1453932,54,Man
19,823453,DepthScenes,duration_manipulation_targetAtFixation,jsons/v1_VE1000_randls_11_rotated.json,http://54.235.29.9/FacialAge/BNav_EC2/DepthDuration/v2_depth_duration_MTurk/v2_DepthDuration_HTML.html#361,361,1920,1080,1920,1080,9-4-2022,10-15-14,20,depth_duration_stimuli/002678_2014-06-13_16-15-32_094959634447_rgbf000151-resize_6/002678_2014-06-13_16-15-32_094959634447_rgbf000151-resize_6-target.png,1000,2.1830000000000003,4,5700,999,feet,jsons/v1_VE1000_randls_11_rotated.json,1110604,1453932,54,Man
20,823453,DepthScenes,duration_manipulation_targetAtFixation,jsons/v1_VE1000_randls_11_rotated.json,http://54.235.29.9/FacialAge/BNav_EC2/DepthDuration/v2_depth_duration_MTurk/v2_DepthDuration_HTML.html#361,361,1920,1080,1920,1080,9-4-2022,10-15-14,21,depth_duration_stimuli/000368_2014-06-09_15-53-01_260595134347_rgbf000155-resize_2/000368_2014-06-09_15-53-01_260595134347_rgbf000155-resize_2-target.png,1000,2.4859999999999998,8,5971,1000,feet,jsons/v1_VE1000_randls_11_rotated.json,1110604,1453932,54,Man
21,823453,DepthScenes,duration_manipulation_targetAtFixation,jsons/v1_VE1000_randls_11_rotated.json,http://54.235.29.9/FacialAge/BNav_EC2/DepthDuration/v2_depth_duration_MTurk/v2_DepthDuration_HTML.html#361,361,1920,1080,1920,1080,9-4-2022,10-15-14,22,depth_duration_stimuli/001235_2014-06-17_16-37-36_260595134347_rgbf000084-resize_4/001235_2014-06-17_16-37-36_260595134347_rgbf000084-resize_4-target.png,1000,3.6605,9,9084,1000,feet,jsons/v1_VE1000_randls_11_rotated.json,1110604,1453932,54,Man
22,823453,DepthScenes,duration_manipulation_targetAtFixation,jsons/v1_VE1000_randls_11_rotated.json,http://54.235.29.9/FacialAge/BNav_EC2/DepthDuration/v2_depth_duration_MTurk/v2_DepthDuration_HTML.html#361,361,1920,1080,1920,1080,9-4-2022,10-15-14,23,depth_duration_stimuli/000788_2014-06-08_22-34-36_260595134347_rgbf000131-resize_1/000788_2014-06-08_22-34-36_260595134347_rgbf000131-resize_1-target.png,1000,3.359,12,5971,999,feet,jsons/v1_VE1000_randls_11_rotated.json,1110604,1453932,54,Man
23,823453,DepthScenes,duration_manipulation_targetAtFixation,jsons/v1_VE1000_randls_11_rotated.json,http://54.235.29.9/FacialAge/BNav_EC2/DepthDuration/v2_depth_duration_MTurk/v2_DepthDuration_HTML.html#361,361,1920,1080,1920,1080,9-4-2022,10-15-14,24,depth_duration_stimuli/003083_2014-06-15_15-21-03_094959634447_rgbf000063-resize_1/003083_2014-06-15_15-21-03_094959634447_rgbf000063-resize_1-target.png,1000,4.1405,16,9610,1000,feet,jsons/v1_VE1000_randls_11_rotated.json,1110604,1453932,54,Man
24,823453,DepthScenes,duration_manipulation_targetAtFixation,jsons/v1_VE1000_randls_11_rotated.json,http://54.235.29.9/FacialAge/BNav_EC2/DepthDuration/v2_depth_duration_MTurk/v2_DepthDuration_HTML.html#361,361,1920,1080,1920,1080,9-4-2022,10-15-14,25,depth_duration_stimuli/000486_2014-06-09_20-47-20_260595134347_rgbf000143-resize_2/000486_2014-06-09_20-47-20_260595134347_rgbf000143-resize_2-target.png,1000,4.8325,20,5004,999,feet,jsons/v1_VE1000_randls_11_rotated.json,1110604,1453932,54,Man
25,823453,DepthScenes,duration_manipulation_targetAtFixation,jsons/v1_VE1000_randls_11_rotated.json,http://54.235.29.9/FacialAge/BNav_EC2/DepthDuration/v2_depth_duration_MTurk/v2_DepthDuration_HTML.html#361,361,1920,1080,1920,1080,9-4-2022,10-15-14,26,depth_duration_stimuli/002637_2014-06-24_14-51-13_094959634447_rgbf000066-resize_4/002637_2014-06-24_14-51-13_094959634447_rgbf000066-resize_4-target.png,1000,1.9955,8,6811,1000,feet,jsons/v1_VE1000_randls_11_rotated.json,1110604,1453932,54,Man
26,823453,DepthScenes,duration_manipulation_targetAtFixation,jsons/v1_VE1000_randls_11_rotated.json,http://54.235.29.9/FacialAge/BNav_EC2/DepthDuration/v2_depth_duration_MTurk/v2_DepthDuration_HTML.html#361,361,1920,1080,1920,1080,9-4-2022,10-15-14,27,depth_duration_stimuli/003534_2014-05-22_15-06-10_094959634447_rgbf000102-resize_4/003534_2014-05-22_15-06-10_094959634447_rgbf000102-resize_4-target.png,1000,1.426,5,13059,999,feet,jsons/v1_VE1000_randls_11_rotated.json,1110604,1453932,54,Man
27,823453,DepthScenes,duration_manipulation_targetAtFixation,jsons/v1_VE1000_randls_11_rotated.json,http://54.235.29.9/FacialAge/BNav_EC2/DepthDuration/v2_depth_duration_MTurk/v2_DepthDuration_HTML.html#361,361,1920,1080,1920,1080,9-4-2022,10-15-14,28,depth_duration_stimuli/001584_2014-06-20_11-07-43_260595134347_rgbf000002-resize_1/001584_2014-06-20_11-07-43_260595134347_rgbf000002-resize_1-target.png,1000,3.53,12,10548,999,feet,jsons/v1_VE1000_randls_11_rotated.json,1110604,1453932,54,Man
28,823453,DepthScenes,duration_manipulation_targetAtFixation,jsons/v1_VE1000_randls_11_rotated.json,http://54.235.29.9/FacialAge/BNav_EC2/DepthDuration/v2_depth_duration_MTurk/v2_DepthDuration_HTML.html#361,361,1920,1080,1920,1080,9-4-2022,10-15-14,29,depth_duration_stimuli/003621_2014-05-23_18-06-08_094959634447_rgbf000101-resize_1/003621_2014-05-23_18-06-08_094959634447_rgbf000101-resize_1-target.png,1000,3.9835,14,5290,999,feet,jsons/v1_VE1000_randls_11_rotated.json,1110604,1453932,54,Man
29,823453,DepthScenes,duration_manipulation_targetAtFixation,jsons/v1_VE1000_randls_11_rotated.json,http://54.235.29.9/FacialAge/BNav_EC2/DepthDuration/v2_depth_duration_MTurk/v2_DepthDuration_HTML.html#361,361,1920,1080,1920,1080,9-4-2022,10-15-14,30,depth_duration_stimuli/002072_2014-06-24_21-48-06_260595134347_rgbf000115-resize_0/002072_2014-06-24_21-48-06_260595134347_rgbf000115-resize-original.jpg,1000,4.702,0,4771,999,feet,jsons/v1_VE1000_randls_11_rotated.json,1110604,1453932,54,Man
30,823453,DepthScenes,duration_manipulation_targetAtFixation,jsons/v1_VE1000_randls_11_rotated.json,http://54.235.29.9/FacialAge/BNav_EC2/DepthDuration/v2_depth_duration_MTurk/v2_DepthDuration_HTML.html#361,361,1920,1080,1920,1080,9-4-2022,10-15-14,31,depth_duration_stimuli/002103_2014-06-25_20-00-40_260595134347_rgbf000049-resize_0/002103_2014-06-25_20-00-40_260595134347_rgbf000049-resize_0-target.png,1000,4.105,20,6276,1000,feet,jsons/v1_VE1000_randls_11_rotated.json,1110604,1453932,54,Man
31,823453,DepthScenes,duration_manipulation_targetAtFixation,jsons/v1_VE1000_randls_11_rotated.json,http://54.235.29.9/FacialAge/BNav_EC2/DepthDuration/v2_depth_duration_MTurk/v2_DepthDuration_HTML.html#361,361,1920,1080,1920,1080,9-4-2022,10-15-14,32,depth_duration_stimuli/002039_2014-06-24_20-22-38_260595134347_rgbf000084-resize_1/002039_2014-06-24_20-22-38_260595134347_rgbf000084-resize_1-target.png,1000,4.408,17,7371,999,feet,jsons/v1_VE1000_randls_11_rotated.json,1110604,1453932,54,Man
32,823453,DepthScenes,duration_manipulation_targetAtFixation,jsons/v1_VE1000_randls_11_rotated.json,http://54.235.29.9/FacialAge/BNav_EC2/DepthDuration/v2_depth_duration_MTurk/v2_DepthDuration_HTML.html#361,361,1920,1080,1920,1080,9-4-2022,10-15-14,33,depth_duration_stimuli/000943_2014-06-09_19-31-07_260595134347_rgbf000128-resize_1/000943_2014-06-09_19-31-07_260595134347_rgbf000128-resize_1-target.png,1000,1.9765,4,5883,1000,feet,jsons/v1_VE1000_randls_11_rotated.json,1110604,1453932,54,Man
33,823453,DepthScenes,duration_manipulation_targetAtFixation,jsons/v1_VE1000_randls_11_rotated.json,http://54.235.29.9/FacialAge/BNav_EC2/DepthDuration/v2_depth_duration_MTurk/v2_DepthDuration_HTML.html#361,361,1920,1080,1920,1080,9-4-2022,10-15-14,34,depth_duration_stimuli/003070_2014-06-15_14-58-27_094959634447_rgbf000150-resize_3/003070_2014-06-15_14-58-27_094959634447_rgbf000150-resize_3-target.png,1000,2.9415,9,5419,999,feet,jsons/v1_VE1000_randls_11_rotated.json,1110604,1453932,54,Man
34,823453,DepthScenes,duration_manipulation_targetAtFixation,jsons/v1_VE1000_randls_11_rotated.json,http://54.235.29.9/FacialAge/BNav_EC2/DepthDuration/v2_depth_duration_MTurk/v2_DepthDuration_HTML.html#361,361,1920,1080,1920,1080,9-4-2022,10-15-14,35,depth_duration_stimuli/002425_2014-06-28_20-27-29_260595134347_rgbf000031-resize_8/002425_2014-06-28_20-27-29_260595134347_rgbf000031-resize_8-target.png,1000,3.8960000000000004,9,10907,1000,feet,jsons/v1_VE1000_randls_11_rotated.json,1110604,1453932,54,Man
35,823453,DepthScenes,duration_manipulation_targetAtFixation,jsons/v1_VE1000_randls_11_rotated.json,http://54.235.29.9/FacialAge/BNav_EC2/DepthDuration/v2_depth_duration_MTurk/v2_DepthDuration_HTML.html#361,361,1920,1080,1920,1080,9-4-2022,10-15-14,36,depth_duration_stimuli/000642_2014-06-08_16-59-25_260595134347_rgbf000098-resize_2/000642_2014-06-08_16-59-25_260595134347_rgbf000098-resize_2-target.png,1000,2.8815,10,7539,1000,feet,jsons/v1_VE1000_randls_11_rotated.json,1110604,1453932,54,Man
36,823453,DepthScenes,duration_manipulation_targetAtFixation,jsons/v1_VE1000_randls_11_rotated.json,http://54.235.29.9/FacialAge/BNav_EC2/DepthDuration/v2_depth_duration_MTurk/v2_DepthDuration_HTML.html#361,361,1920,1080,1920,1080,9-4-2022,10-15-14,37,depth_duration_stimuli/002414_2014-06-28_20-24-58_260595134347_rgbf000067-resize_4/002414_2014-06-28_20-24-58_260595134347_rgbf000067-resize_4-target.png,1000,4.363,12,8019,1000,feet,jsons/v1_VE1000_randls_11_rotated.json,1110604,1453932,54,Man
37,823453,DepthScenes,duration_manipulation_targetAtFixation,jsons/v1_VE1000_randls_11_rotated.json,http://54.235.29.9/FacialAge/BNav_EC2/DepthDuration/v2_depth_duration_MTurk/v2_DepthDuration_HTML.html#361,361,1920,1080,1920,1080,9-4-2022,10-15-14,38,depth_duration_stimuli/000773_2014-06-08_22-24-54_260595134347_rgbf000093-resize_1/000773_2014-06-08_22-24-54_260595134347_rgbf000093-resize_1-target.png,1000,4.973,10,5411,1000,feet,jsons/v1_VE1000_randls_11_rotated.json,1110604,1453932,54,Man
38,823453,DepthScenes,duration_manipulation_targetAtFixation,jsons/v1_VE1000_randls_11_rotated.json,http://54.235.29.9/FacialAge/BNav_EC2/DepthDuration/v2_depth_duration_MTurk/v2_DepthDuration_HTML.html#361,361,1920,1080,1920,1080,9-4-2022,10-15-14,39,depth_duration_stimuli/002209_2014-06-28_18-36-10_260595134347_rgbf000051-resize_1/002209_2014-06-28_18-36-10_260595134347_rgbf000051-resize_1-target.png,1000,2.057,4,6459,999,feet,jsons/v1_VE1000_randls_11_rotated.json,1110604,1453932,54,Man
39,823453,DepthScenes,duration_manipulation_targetAtFixation,jsons/v1_VE1000_randls_11_rotated.json,http://54.235.29.9/FacialAge/BNav_EC2/DepthDuration/v2_depth_duration_MTurk/v2_DepthDuration_HTML.html#361,361,1920,1080,1920,1080,9-4-2022,10-15-14,40,depth_duration_stimuli/002763_2014-06-22_19-13-10_094959634447_rgbf000075-resize_4/002763_2014-06-22_19-13-10_094959634447_rgbf000075-resize_4-target.png,1000,1.68375,4,10364,1000,feet,jsons/v1_VE1000_randls_11_rotated.json,1110604,1453932,54,Man
40,823453,DepthScenes,duration_manipulation_targetAtFixation,jsons/v1_VE1000_randls_11_rotated.json,http://54.235.29.9/FacialAge/BNav_EC2/DepthDuration/v2_depth_duration_MTurk/v2_DepthDuration_HTML.html#361,361,1920,1080,1920,1080,9-4-2022,10-15-14,41,depth_duration_stimuli/000556_2014-06-09_22-42-56_260595134347_rgbf000214-resize_1/000556_2014-06-09_22-42-56_260595134347_rgbf000214-resize_1-target.png,1000,4.8415,12,5332,1000,feet,jsons/v1_VE1000_randls_11_rotated.json,1110604,1453932,54,Man
41,823453,DepthScenes,duration_manipulation_targetAtFixation,jsons/v1_VE1000_randls_11_rotated.json,http://54.235.29.9/FacialAge/BNav_EC2/DepthDuration/v2_depth_duration_MTurk/v2_DepthDuration_HTML.html#361,361,1920,1080,1920,1080,9-4-2022,10-15-14,42,depth_duration_stimuli/001158_2014-06-17_15-32-16_260595134347_rgbf000138-resize_2/001158_2014-06-17_15-32-16_260595134347_rgbf000138-resize_2-target.png,1000,4.5315,14,5746,999,feet,jsons/v1_VE1000_randls_11_rotated.json,1110604,1453932,54,Man
42,823453,DepthScenes,duration_manipulation_targetAtFixation,jsons/v1_VE1000_randls_11_rotated.json,http://54.235.29.9/FacialAge/BNav_EC2/DepthDuration/v2_depth_duration_MTurk/v2_DepthDuration_HTML.html#361,361,1920,1080,1920,1080,9-4-2022,10-15-14,43,depth_duration_stimuli/000409_2014-06-04_19-23-33_260595134347_rgbf000067-resize_0/000409_2014-06-04_19-23-33_260595134347_rgbf000067-resize_0-target.png,1000,3.7335,10,6498,998,feet,jsons/v1_VE1000_randls_11_rotated.json,1110604,1453932,54,Man
43,823453,DepthScenes,duration_manipulation_targetAtFixation,jsons/v1_VE1000_randls_11_rotated.json,http://54.235.29.9/FacialAge/BNav_EC2/DepthDuration/v2_depth_duration_MTurk/v2_DepthDuration_HTML.html#361,361,1920,1080,1920,1080,9-4-2022,10-15-14,44,depth_duration_stimuli/002663_2014-06-13_15-50-26_094959634447_rgbf000075-resize_1/002663_2014-06-13_15-50-26_094959634447_rgbf000075-resize_1-target.png,1000,4.7495,18,6372,1000,feet,jsons/v1_VE1000_randls_11_rotated.json,1110604,1453932,54,Man
44,823453,DepthScenes,duration_manipulation_targetAtFixation,jsons/v1_VE1000_randls_11_rotated.json,http://54.235.29.9/FacialAge/BNav_EC2/DepthDuration/v2_depth_duration_MTurk/v2_DepthDuration_HTML.html#361,361,1920,1080,1920,1080,9-4-2022,10-15-14,45,depth_duration_stimuli/000109_2014-05-14_23-41-52_260595134347_rgbf000035-resize_9/000109_2014-05-14_23-41-52_260595134347_rgbf000035-resize_9-target.png,1000,1.3545,3,5474,1000,feet,jsons/v1_VE1000_randls_11_rotated.json,1110604,1453932,54,Man
45,823453,DepthScenes,duration_manipulation_targetAtFixation,jsons/v1_VE1000_randls_11_rotated.json,http://54.235.29.9/FacialAge/BNav_EC2/DepthDuration/v2_depth_duration_MTurk/v2_DepthDuration_HTML.html#361,361,1920,1080,1920,1080,9-4-2022,10-15-14,46,depth_duration_stimuli/000470_2014-06-09_19-42-40_260595134347_rgbf000094-resize_1/000470_2014-06-09_19-42-40_260595134347_rgbf000094-resize_1-target.png,1000,1.831,4,5371,1000,feet,jsons/v1_VE1000_randls_11_rotated.json,1110604,1453932,54,Man
46,823453,DepthScenes,duration_manipulation_targetAtFixation,jsons/v1_VE1000_randls_11_rotated.json,http://54.235.29.9/FacialAge/BNav_EC2/DepthDuration/v2_depth_duration_MTurk/v2_DepthDuration_HTML.html#361,361,1920,1080,1920,1080,9-4-2022,10-15-14,47,depth_duration_stimuli/001100_2014-06-15_17-46-26_260595134347_rgbf000225-resize_2/001100_2014-06-15_17-46-26_260595134347_rgbf000225-resize_2-target.png,1000,2.24,3,5403,999,feet,jsons/v1_VE1000_randls_11_rotated.json,1110604,1453932,54,Man
47,823453,DepthScenes,duration_manipulation_targetAtFixation,jsons/v1_VE1000_randls_11_rotated.json,http://54.235.29.9/FacialAge/BNav_EC2/DepthDuration/v2_depth_duration_MTurk/v2_DepthDuration_HTML.html#361,361,1920,1080,1920,1080,9-4-2022,10-15-14,48,depth_duration_stimuli/002784_2014-06-22_19-26-30_094959634447_rgbf000083-resize_3/002784_2014-06-22_19-26-30_094959634447_rgbf000083-resize_3-target.png,1000,1.8046666666667,4,5018,1000,feet,jsons/v1_VE1000_randls_11_rotated.json,1110604,1453932,54,Man
48,823453,DepthScenes,duration_manipulation_targetAtFixation,jsons/v1_VE1000_randls_11_rotated.json,http://54.235.29.9/FacialAge/BNav_EC2/DepthDuration/v2_depth_duration_MTurk/v2_DepthDuration_HTML.html#361,361,1920,1080,1920,1080,9-4-2022,10-15-14,49,depth_duration_stimuli/001170_2014-06-17_15-43-44_260595134347_rgbf000096-resize_6/001170_2014-06-17_15-43-44_260595134347_rgbf000096-resize-original.jpg,1000,1.1909999999999998,0,5147,1000,feet,jsons/v1_VE1000_randls_11_rotated.json,1110604,1453932,54,Man
49,823453,DepthScenes,duration_manipulation_targetAtFixation,jsons/v1_VE1000_randls_11_rotated.json,http://54.235.29.9/FacialAge/BNav_EC2/DepthDuration/v2_depth_duration_MTurk/v2_DepthDuration_HTML.html#361,361,1920,1080,1920,1080,9-4-2022,10-15-14,50,depth_duration_stimuli/002875_2014-06-01_15-19-00_094959634447_rgbf000151-resize_1/002875_2014-06-01_15-19-00_094959634447_rgbf000151-resize_1-target.png,1000,1.9675,3,6340,1000,feet,jsons/v1_VE1000_randls_11_rotated.json,1110604,1453932,54,Man
50,823453,DepthScenes,duration_manipulation_targetAtFixation,jsons/v1_VE1000_randls_11_rotated.json,http://54.235.29.9/FacialAge/BNav_EC2/DepthDuration/v2_depth_duration_MTurk/v2_DepthDuration_HTML.html#361,361,1920,1080,1920,1080,9-4-2022,10-15-14,51,depth_duration_stimuli/001011_2014-06-08_23-18-54_260595134347_rgbf000044-resize_4/001011_2014-06-08_23-18-54_260595134347_rgbf000044-resize_4-target.png,1000,2.4730000000000003,8,5075,999,feet,jsons/v1_VE1000_randls_11_rotated.json,1110604,1453932,54,Man
51,823453,DepthScenes,duration_manipulation_targetAtFixation,jsons/v1_VE1000_randls_11_rotated.json,http://54.235.29.9/FacialAge/BNav_EC2/DepthDuration/v2_depth_duration_MTurk/v2_DepthDuration_HTML.html#361,361,1920,1080,1920,1080,9-4-2022,10-15-14,52,depth_duration_stimuli/001132_2014-06-17_14-48-54_260595134347_rgbf000100-resize_2/001132_2014-06-17_14-48-54_260595134347_rgbf000100-resize_2-target.png,1000,3.753,7,6771,999,feet,jsons/v1_VE1000_randls_11_rotated.json,1110604,1453932,54,Man
52,823453,DepthScenes,duration_manipulation_targetAtFixation,jsons/v1_VE1000_randls_11_rotated.json,http://54.235.29.9/FacialAge/BNav_EC2/DepthDuration/v2_depth_duration_MTurk/v2_DepthDuration_HTML.html#361,361,1920,1080,1920,1080,9-4-2022,10-15-14,53,depth_duration_stimuli/001133_2014-06-17_14-49-16_260595134347_rgbf000100-resize_0/001133_2014-06-17_14-49-16_260595134347_rgbf000100-resize_0-target.png,1000,4.2115,15,5259,999,feet,jsons/v1_VE1000_randls_11_rotated.json,1110604,1453932,54,Man
53,823453,DepthScenes,duration_manipulation_targetAtFixation,jsons/v1_VE1000_randls_11_rotated.json,http://54.235.29.9/FacialAge/BNav_EC2/DepthDuration/v2_depth_duration_MTurk/v2_DepthDuration_HTML.html#361,361,1920,1080,1920,1080,9-4-2022,10-15-14,54,depth_duration_stimuli/000665_2014-06-09_20-42-35_260595134347_rgbf000110-resize_1/000665_2014-06-09_20-42-35_260595134347_rgbf000110-resize_1-target.png,1000,3.057,9,10346,999,feet,jsons/v1_VE1000_randls_11_rotated.json,1110604,1453932,54,Man
54,823453,DepthScenes,duration_manipulation_targetAtFixation,jsons/v1_VE1000_randls_11_rotated.json,http://54.235.29.9/FacialAge/BNav_EC2/DepthDuration/v2_depth_duration_MTurk/v2_DepthDuration_HTML.html#361,361,1920,1080,1920,1080,9-4-2022,10-15-14,55,depth_duration_stimuli/001150_2014-06-17_15-27-34_260595134347_rgbf000108-resize_2/001150_2014-06-17_15-27-34_260595134347_rgbf000108-resize_2-target.png,1000,4.0325,11,11524,1000,feet,jsons/v1_VE1000_randls_11_rotated.json,1110604,1453932,54,Man
55,823453,DepthScenes,duration_manipulation_targetAtFixation,jsons/v1_VE1000_randls_11_rotated.json,http://54.235.29.9/FacialAge/BNav_EC2/DepthDuration/v2_depth_duration_MTurk/v2_DepthDuration_HTML.html#361,361,1920,1080,1920,1080,9-4-2022,10-15-14,56,depth_duration_stimuli/001392_2014-06-19_16-07-59_260595134347_rgbf000046-resize_1/001392_2014-06-19_16-07-59_260595134347_rgbf000046-resize_1-target.png,1000,4.135,12,5731,1000,feet,jsons/v1_VE1000_randls_11_rotated.json,1110604,1453932,54,Man
56,823453,DepthScenes,duration_manipulation_targetAtFixation,jsons/v1_VE1000_randls_11_rotated.json,http://54.235.29.9/FacialAge/BNav_EC2/DepthDuration/v2_depth_duration_MTurk/v2_DepthDuration_HTML.html#361,361,1920,1080,1920,1080,9-4-2022,10-15-14,57,depth_duration_stimuli/001570_2014-06-20_17-21-09_260595134347_rgbf000135-resize_4/001570_2014-06-20_17-21-09_260595134347_rgbf000135-resize_4-target.png,1000,4.467,15,5907,999,feet,jsons/v1_VE1000_randls_11_rotated.json,1110604,1453932,54,Man
57,823453,DepthScenes,duration_manipulation_targetAtFixation,jsons/v1_VE1000_randls_11_rotated.json,http://54.235.29.9/FacialAge/BNav_EC2/DepthDuration/v2_depth_duration_MTurk/v2_DepthDuration_HTML.html#361,361,1920,1080,1920,1080,9-4-2022,10-15-14,58,depth_duration_stimuli/000691_2014-06-08_13-08-50_260595134347_rgbf000132-resize_3/000691_2014-06-08_13-08-50_260595134347_rgbf000132-resize_3-target.png,1000,4.1530000000000005,12,5194,999,feet,jsons/v1_VE1000_randls_11_rotated.json,1110604,1453932,54,Man
58,823453,DepthScenes,duration_manipulation_targetAtFixation,jsons/v1_VE1000_randls_11_rotated.json,http://54.235.29.9/FacialAge/BNav_EC2/DepthDuration/v2_depth_duration_MTurk/v2_DepthDuration_HTML.html#361,361,1920,1080,1920,1080,9-4-2022,10-15-14,59,depth_duration_stimuli/002213_2014-06-28_18-37-58_260595134347_rgbf000055-resize_1/002213_2014-06-28_18-37-58_260595134347_rgbf000055-resize_1-target.png,1000,3.62,15,8780,999,feet,jsons/v1_VE1000_randls_11_rotated.json,1110604,1453932,54,Man
59,823453,DepthScenes,duration_manipulation_targetAtFixation,jsons/v1_VE1000_randls_11_rotated.json,http://54.235.29.9/FacialAge/BNav_EC2/DepthDuration/v2_depth_duration_MTurk/v2_DepthDuration_HTML.html#361,361,1920,1080,1920,1080,9-4-2022,10-15-14,60,depth_duration_stimuli/002657_2014-06-13_15-29-54_094959634447_rgbf000150-resize_1/002657_2014-06-13_15-29-54_094959634447_rgbf000150-resize_1-target.png,1000,4.919,20,7475,1000,feet,jsons/v1_VE1000_randls_11_rotated.json,1110604,1453932,54,Man
60,823453,DepthScenes,duration_manipulation_targetAtFixation,jsons/v1_VE1000_randls_11_rotated.json,http://54.235.29.9/FacialAge/BNav_EC2/DepthDuration/v2_depth_duration_MTurk/v2_DepthDuration_HTML.html#361,361,1920,1080,1920,1080,9-4-2022,10-15-14,61,depth_duration_stimuli/002375_2014-06-28_20-13-44_260595134347_rgbf000032-resize_1/002375_2014-06-28_20-13-44_260595134347_rgbf000032-resize_1-target.png,1000,4.0175,7,7739,1000,feet,jsons/v1_VE1000_randls_11_rotated.json,1110604,1453932,54,Man
61,823453,DepthScenes,duration_manipulation_targetAtFixation,jsons/v1_VE1000_randls_11_rotated.json,http://54.235.29.9/FacialAge/BNav_EC2/DepthDuration/v2_depth_duration_MTurk/v2_DepthDuration_HTML.html#361,361,1920,1080,1920,1080,9-4-2022,10-15-14,62,depth_duration_stimuli/002949_2014-06-26_15-57-42_094959634447_rgbf000079-resize_1/002949_2014-06-26_15-57-42_094959634447_rgbf000079-resize_1-target.png,1000,1.8915,4,6355,999,feet,jsons/v1_VE1000_randls_11_rotated.json,1110604,1453932,54,Man
62,823453,DepthScenes,duration_manipulation_targetAtFixation,jsons/v1_VE1000_randls_11_rotated.json,http://54.235.29.9/FacialAge/BNav_EC2/DepthDuration/v2_depth_duration_MTurk/v2_DepthDuration_HTML.html#361,361,1920,1080,1920,1080,9-4-2022,10-15-14,63,depth_duration_stimuli/000522_2014-06-08_13-35-06_260595134347_rgbf000244-resize_1/000522_2014-06-08_13-35-06_260595134347_rgbf000244-resize_1-target.png,1000,2.3715,3,5067,1000,feet,jsons/v1_VE1000_randls_11_rotated.json,1110604,1453932,54,Man
63,823453,DepthScenes,duration_manipulation_targetAtFixation,jsons/v1_VE1000_randls_11_rotated.json,http://54.235.29.9/FacialAge/BNav_EC2/DepthDuration/v2_depth_duration_MTurk/v2_DepthDuration_HTML.html#361,361,1920,1080,1920,1080,9-4-2022,10-15-14,64,depth_duration_stimuli/003081_2014-06-15_15-19-16_094959634447_rgbf000150-resize_1/003081_2014-06-15_15-19-16_094959634447_rgbf000150-resize_1-target.png,1000,3.9125,10,6595,1000,feet,jsons/v1_VE1000_randls_11_rotated.json,1110604,1453932,54,Man
64,823453,DepthScenes,duration_manipulation_targetAtFixation,jsons/v1_VE1000_randls_11_rotated.json,http://54.235.29.9/FacialAge/BNav_EC2/DepthDuration/v2_depth_duration_MTurk/v2_DepthDuration_HTML.html#361,361,1920,1080,1920,1080,9-4-2022,10-15-14,65,depth_duration_stimuli/001417_2014-06-19_16-25-36_260595134347_rgbf000115-resize_5/001417_2014-06-19_16-25-36_260595134347_rgbf000115-resize_5-target.png,1000,4.6255,12,6563,999,feet,jsons/v1_VE1000_randls_11_rotated.json,1110604,1453932,54,Man
65,823453,DepthScenes,duration_manipulation_targetAtFixation,jsons/v1_VE1000_randls_11_rotated.json,http://54.235.29.9/FacialAge/BNav_EC2/DepthDuration/v2_depth_duration_MTurk/v2_DepthDuration_HTML.html#361,361,1920,1080,1920,1080,9-4-2022,10-15-14,66,depth_duration_stimuli/001540_2014-06-20_17-01-05_260595134347_rgbf000086-resize_2/001540_2014-06-20_17-01-05_260595134347_rgbf000086-resize-original.jpg,1000,1.459,0,4244,1000,feet,jsons/v1_VE1000_randls_11_rotated.json,1110604,1453932,54,Man
66,823453,DepthScenes,duration_manipulation_targetAtFixation,jsons/v1_VE1000_randls_11_rotated.json,http://54.235.29.9/FacialAge/BNav_EC2/DepthDuration/v2_depth_duration_MTurk/v2_DepthDuration_HTML.html#361,361,1920,1080,1920,1080,9-4-2022,10-15-14,67,depth_duration_stimuli/002750_2014-06-22_19-08-03_094959634447_rgbf000094-resize_4/002750_2014-06-22_19-08-03_094959634447_rgbf000094-resize_4-target.png,1000,2.354,8,5099,999,feet,jsons/v1_VE1000_randls_11_rotated.json,1110604,1453932,54,Man
67,823453,DepthScenes,duration_manipulation_targetAtFixation,jsons/v1_VE1000_randls_11_rotated.json,http://54.235.29.9/FacialAge/BNav_EC2/DepthDuration/v2_depth_duration_MTurk/v2_DepthDuration_HTML.html#361,361,1920,1080,1920,1080,9-4-2022,10-15-14,68,depth_duration_stimuli/002549_2014-06-24_13-41-39_094959634447_rgbf000022-resize_3/002549_2014-06-24_13-41-39_094959634447_rgbf000022-resize_3-target.png,1000,1.476,3,6979,999,feet,jsons/v1_VE1000_randls_11_rotated.json,1110604,1453932,54,Man
68,823453,DepthScenes,duration_manipulation_targetAtFixation,jsons/v1_VE1000_randls_11_rotated.json,http://54.235.29.9/FacialAge/BNav_EC2/DepthDuration/v2_depth_duration_MTurk/v2_DepthDuration_HTML.html#361,361,1920,1080,1920,1080,9-4-2022,10-15-14,69,depth_duration_stimuli/000677_2014-06-08_23-10-32_260595134347_rgbf000158-resize_6/000677_2014-06-08_23-10-32_260595134347_rgbf000158-resize_6-target.png,1000,3.556,4,4291,999,feet,jsons/v1_VE1000_randls_11_rotated.json,1110604,1453932,54,Man
69,823453,DepthScenes,duration_manipulation_targetAtFixation,jsons/v1_VE1000_randls_11_rotated.json,http://54.235.29.9/FacialAge/BNav_EC2/DepthDuration/v2_depth_duration_MTurk/v2_DepthDuration_HTML.html#361,361,1920,1080,1920,1080,9-4-2022,10-15-14,70,depth_duration_stimuli/001029_2014-06-08_13-17-57_260595134347_rgbf000065-resize_1/001029_2014-06-08_13-17-57_260595134347_rgbf000065-resize_1-target.png,1000,3.0835,5,3460,1000,feet,jsons/v1_VE1000_randls_11_rotated.json,1110604,1453932,54,Man
70,823453,DepthScenes,duration_manipulation_targetAtFixation,jsons/v1_VE1000_randls_11_rotated.json,http://54.235.29.9/FacialAge/BNav_EC2/DepthDuration/v2_depth_duration_MTurk/v2_DepthDuration_HTML.html#361,361,1920,1080,1920,1080,9-4-2022,10-15-14,71,depth_duration_stimuli/000866_2014-06-09_20-45-42_260595134347_rgbf000139-resize_1/000866_2014-06-09_20-45-42_260595134347_rgbf000139-resize_1-target.png,1000,3.2155,6,7419,999,feet,jsons/v1_VE1000_randls_11_rotated.json,1110604,1453932,54,Man
71,823453,DepthScenes,duration_manipulation_targetAtFixation,jsons/v1_VE1000_randls_11_rotated.json,http://54.235.29.9/FacialAge/BNav_EC2/DepthDuration/v2_depth_duration_MTurk/v2_DepthDuration_HTML.html#361,361,1920,1080,1920,1080,9-4-2022,10-15-14,72,depth_duration_stimuli/002989_2014-06-15_12-25-03_094959634447_rgbf000150-resize_3/002989_2014-06-15_12-25-03_094959634447_rgbf000150-resize_3-target.png,1000,4.1975,12,4602,999,feet,jsons/v1_VE1000_randls_11_rotated.json,1110604,1453932,54,Man
72,823453,DepthScenes,duration_manipulation_targetAtFixation,jsons/v1_VE1000_randls_11_rotated.json,http://54.235.29.9/FacialAge/BNav_EC2/DepthDuration/v2_depth_duration_MTurk/v2_DepthDuration_HTML.html#361,361,1920,1080,1920,1080,9-4-2022,10-15-14,73,depth_duration_stimuli/003079_2014-06-15_15-18-20_094959634447_rgbf000152-resize_8/003079_2014-06-15_15-18-20_094959634447_rgbf000152-resize_8-target.png,1000,2.8775,12,6859,999,feet,jsons/v1_VE1000_randls_11_rotated.json,1110604,1453932,54,Man
73,823453,DepthScenes,duration_manipulation_targetAtFixation,jsons/v1_VE1000_randls_11_rotated.json,http://54.235.29.9/FacialAge/BNav_EC2/DepthDuration/v2_depth_duration_MTurk/v2_DepthDuration_HTML.html#361,361,1920,1080,1920,1080,9-4-2022,10-15-14,74,depth_duration_stimuli/000506_2014-06-08_23-21-00_260595134347_rgbf000070-resize_7/000506_2014-06-08_23-21-00_260595134347_rgbf000070-resize_7-target.png,1000,4.0585,14,3820,1000,feet,jsons/v1_VE1000_randls_11_rotated.json,1110604,1453932,54,Man
74,823453,DepthScenes,duration_manipulation_targetAtFixation,jsons/v1_VE1000_randls_11_rotated.json,http://54.235.29.9/FacialAge/BNav_EC2/DepthDuration/v2_depth_duration_MTurk/v2_DepthDuration_HTML.html#361,361,1920,1080,1920,1080,9-4-2022,10-15-14,75,depth_duration_stimuli/003495_2014-05-21_16-01-51_094959634447_rgbf000100-resize_3/003495_2014-05-21_16-01-51_094959634447_rgbf000100-resize_3-target.png,1000,1.6255,4,3563,1000,feet,jsons/v1_VE1000_randls_11_rotated.json,1110604,1453932,54,Man
75,823453,DepthScenes,duration_manipulation_targetAtFixation,jsons/v1_VE1000_randls_11_rotated.json,http://54.235.29.9/FacialAge/BNav_EC2/DepthDuration/v2_depth_duration_MTurk/v2_DepthDuration_HTML.html#361,361,1920,1080,1920,1080,9-4-2022,10-15-14,76,depth_duration_stimuli/001244_2014-06-17_16-47-45_260595134347_rgbf000030-resize_4/001244_2014-06-17_16-47-45_260595134347_rgbf000030-resize_4-target.png,1000,2.0425,4,4675,1000,feet,jsons/v1_VE1000_randls_11_rotated.json,1110604,1453932,54,Man
76,823453,DepthScenes,duration_manipulation_targetAtFixation,jsons/v1_VE1000_randls_11_rotated.json,http://54.235.29.9/FacialAge/BNav_EC2/DepthDuration/v2_depth_duration_MTurk/v2_DepthDuration_HTML.html#361,361,1920,1080,1920,1080,9-4-2022,10-15-14,77,depth_duration_stimuli/003228_2014-05-14_13-42-35_094959634447_rgbf000101-resize_1/003228_2014-05-14_13-42-35_094959634447_rgbf000101-resize_1-target.png,1000,1.9680000000000002,3,3459,999,feet,jsons/v1_VE1000_randls_11_rotated.json,1110604,1453932,54,Man
77,823453,DepthScenes,duration_manipulation_targetAtFixation,jsons/v1_VE1000_randls_11_rotated.json,http://54.235.29.9/FacialAge/BNav_EC2/DepthDuration/v2_depth_duration_MTurk/v2_DepthDuration_HTML.html#361,361,1920,1080,1920,1080,9-4-2022,10-15-14,78,depth_duration_stimuli/002600_2014-06-24_14-27-04_094959634447_rgbf000074-resize_2/002600_2014-06-24_14-27-04_094959634447_rgbf000074-resize_2-target.png,1000,2.7575,9,6795,999,feet,jsons/v1_VE1000_randls_11_rotated.json,1110604,1453932,54,Man
78,823453,DepthScenes,duration_manipulation_targetAtFixation,jsons/v1_VE1000_randls_11_rotated.json,http://54.235.29.9/FacialAge/BNav_EC2/DepthDuration/v2_depth_duration_MTurk/v2_DepthDuration_HTML.html#361,361,1920,1080,1920,1080,9-4-2022,10-15-14,79,depth_duration_stimuli/000854_2014-06-09_19-43-13_260595134347_rgbf000066-resize_0/000854_2014-06-09_19-43-13_260595134347_rgbf000066-resize_0-target.png,1000,3.068,4,5428,999,feet,jsons/v1_VE1000_randls_11_rotated.json,1110604,1453932,54,Man
79,823453,DepthScenes,duration_manipulation_targetAtFixation,jsons/v1_VE1000_randls_11_rotated.json,http://54.235.29.9/FacialAge/BNav_EC2/DepthDuration/v2_depth_duration_MTurk/v2_DepthDuration_HTML.html#361,361,1920,1080,1920,1080,9-4-2022,10-15-14,80,depth_duration_stimuli/000758_2014-06-08_22-05-08_260595134347_rgbf000085-resize_0/000758_2014-06-08_22-05-08_260595134347_rgbf000085-resize_0-target.png,1000,3.3810000000000002,15,5259,999,feet,jsons/v1_VE1000_randls_11_rotated.json,1110604,1453932,54,Man
80,823453,DepthScenes,duration_manipulation_targetAtFixation,jsons/v1_VE1000_randls_11_rotated.json,http://54.235.29.9/FacialAge/BNav_EC2/DepthDuration/v2_depth_duration_MTurk/v2_DepthDuration_HTML.html#361,361,1920,1080,1920,1080,9-4-2022,10-15-14,81,depth_duration_stimuli/001617_2014-06-20_11-35-32_260595134347_rgbf000066-resize_1/001617_2014-06-20_11-35-32_260595134347_rgbf000066-resize_1-target.png,1000,3.7910000000000004,15,5812,1000,feet,jsons/v1_VE1000_randls_11_rotated.json,1110604,1453932,54,Man
81,823453,DepthScenes,duration_manipulation_targetAtFixation,jsons/v1_VE1000_randls_11_rotated.json,http://54.235.29.9/FacialAge/BNav_EC2/DepthDuration/v2_depth_duration_MTurk/v2_DepthDuration_HTML.html#361,361,1920,1080,1920,1080,9-4-2022,10-15-14,82,depth_duration_stimuli/001806_2014-06-26_20-50-20_260595134347_rgbf000091-resize_1/001806_2014-06-26_20-50-20_260595134347_rgbf000091-resize_1-target.png,1000,2.7305,4,4836,999,feet,jsons/v1_VE1000_randls_11_rotated.json,1110604,1453932,54,Man
82,823453,DepthScenes,duration_manipulation_targetAtFixation,jsons/v1_VE1000_randls_11_rotated.json,http://54.235.29.9/FacialAge/BNav_EC2/DepthDuration/v2_depth_duration_MTurk/v2_DepthDuration_HTML.html#361,361,1920,1080,1920,1080,9-4-2022,10-15-14,83,depth_duration_stimuli/001815_2014-06-26_20-52-55_260595134347_rgbf000020-resize_0/001815_2014-06-26_20-52-55_260595134347_rgbf000020-resize_0-target.png,1000,3.3865,12,5602,1000,feet,jsons/v1_VE1000_randls_11_rotated.json,1110604,1453932,54,Man
83,823453,DepthScenes,duration_manipulation_targetAtFixation,jsons/v1_VE1000_randls_11_rotated.json,http://54.235.29.9/FacialAge/BNav_EC2/DepthDuration/v2_depth_duration_MTurk/v2_DepthDuration_HTML.html#361,361,1920,1080,1920,1080,9-4-2022,10-15-14,84,depth_duration_stimuli/001808_2014-06-26_20-50-58_260595134347_rgbf000029-resize_1/001808_2014-06-26_20-50-58_260595134347_rgbf000029-resize_1-target.png,1000,4.249,15,6290,1000,feet,jsons/v1_VE1000_randls_11_rotated.json,1110604,1453932,54,Man
84,823453,DepthScenes,duration_manipulation_targetAtFixation,jsons/v1_VE1000_randls_11_rotated.json,http://54.235.29.9/FacialAge/BNav_EC2/DepthDuration/v2_depth_duration_MTurk/v2_DepthDuration_HTML.html#361,361,1920,1080,1920,1080,9-4-2022,10-15-14,85,depth_duration_stimuli/001052_2014-06-08_18-24-54_260595134347_rgbf000130-resize_1/001052_2014-06-08_18-24-54_260595134347_rgbf000130-resize_1-target.png,1000,4.1045,20,4763,999,feet,jsons/v1_VE1000_randls_11_rotated.json,1110604,1453932,54,Man
85,823453,DepthScenes,duration_manipulation_targetAtFixation,jsons/v1_VE1000_randls_11_rotated.json,http://54.235.29.9/FacialAge/BNav_EC2/DepthDuration/v2_depth_duration_MTurk/v2_DepthDuration_HTML.html#361,361,1920,1080,1920,1080,9-4-2022,10-15-14,86,depth_duration_stimuli/002988_2014-06-15_12-24-20_094959634447_rgbf000150-resize_1/002988_2014-06-15_12-24-20_094959634447_rgbf000150-resize_1-target.png,1000,4.7669999999999995,20,5452,1000,feet,jsons/v1_VE1000_randls_11_rotated.json,1110604,1453932,54,Man
86,823453,DepthScenes,duration_manipulation_targetAtFixation,jsons/v1_VE1000_randls_11_rotated.json,http://54.235.29.9/FacialAge/BNav_EC2/DepthDuration/v2_depth_duration_MTurk/v2_DepthDuration_HTML.html#361,361,1920,1080,1920,1080,9-4-2022,10-15-14,87,depth_duration_stimuli/002995_2014-06-15_12-31-26_094959634447_rgbf000150-resize_1/002995_2014-06-15_12-31-26_094959634447_rgbf000150-resize_1-target.png,1000,3.8360000000000003,15,5155,1000,feet,jsons/v1_VE1000_randls_11_rotated.json,1110604,1453932,54,Man
87,823453,DepthScenes,duration_manipulation_targetAtFixation,jsons/v1_VE1000_randls_11_rotated.json,http://54.235.29.9/FacialAge/BNav_EC2/DepthDuration/v2_depth_duration_MTurk/v2_DepthDuration_HTML.html#361,361,1920,1080,1920,1080,9-4-2022,10-15-14,88,depth_duration_stimuli/002748_2014-06-22_19-07-22_094959634447_rgbf000078-resize_1/002748_2014-06-22_19-07-22_094959634447_rgbf000078-resize_1-target.png,1000,4.6705,25,5580,1000,feet,jsons/v1_VE1000_randls_11_rotated.json,1110604,1453932,54,Man
88,823453,DepthScenes,duration_manipulation_targetAtFixation,jsons/v1_VE1000_randls_11_rotated.json,http://54.235.29.9/FacialAge/BNav_EC2/DepthDuration/v2_depth_duration_MTurk/v2_DepthDuration_HTML.html#361,361,1920,1080,1920,1080,9-4-2022,10-15-14,89,depth_duration_stimuli/002568_2014-06-24_13-59-21_094959634447_rgbf000062-resize_4/002568_2014-06-24_13-59-21_094959634447_rgbf000062-resize_4-target.png,1000,3.015,10,5531,1000,feet,jsons/v1_VE1000_randls_11_rotated.json,1110604,1453932,54,Man
89,823453,DepthScenes,duration_manipulation_targetAtFixation,jsons/v1_VE1000_randls_11_rotated.json,http://54.235.29.9/FacialAge/BNav_EC2/DepthDuration/v2_depth_duration_MTurk/v2_DepthDuration_HTML.html#361,361,1920,1080,1920,1080,9-4-2022,10-15-14,90,depth_duration_stimuli/003492_2014-05-21_15-50-55_094959634447_rgbf000828-resize_1/003492_2014-05-21_15-50-55_094959634447_rgbf000828-resize_1-target.png,1000,4.06875,25,5578,1000,feet,jsons/v1_VE1000_randls_11_rotated.json,1110604,1453932,54,Man
90,823453,DepthScenes,duration_manipulation_targetAtFixation,jsons/v1_VE1000_randls_11_rotated.json,http://54.235.29.9/FacialAge/BNav_EC2/DepthDuration/v2_depth_duration_MTurk/v2_DepthDuration_HTML.html#361,361,1920,1080,1920,1080,9-4-2022,10-15-14,91,depth_duration_stimuli/001136_2014-06-17_15-19-41_260595134347_rgbf000076-resize_3/001136_2014-06-17_15-19-41_260595134347_rgbf000076-resize_3-target.png,1000,1.8655,6,6131,999,feet,jsons/v1_VE1000_randls_11_rotated.json,1110604,1453932,54,Man
91,823453,DepthScenes,duration_manipulation_targetAtFixation,jsons/v1_VE1000_randls_11_rotated.json,http://54.235.29.9/FacialAge/BNav_EC2/DepthDuration/v2_depth_duration_MTurk/v2_DepthDuration_HTML.html#361,361,1920,1080,1920,1080,9-4-2022,10-15-14,92,depth_duration_stimuli/001164_2014-06-17_15-35-46_260595134347_rgbf000085-resize_3/001164_2014-06-17_15-35-46_260595134347_rgbf000085-resize_3-target.png,1000,2.354,6,5443,999,feet,jsons/v1_VE1000_randls_11_rotated.json,1110604,1453932,54,Man
92,823453,DepthScenes,duration_manipulation_targetAtFixation,jsons/v1_VE1000_randls_11_rotated.json,http://54.235.29.9/FacialAge/BNav_EC2/DepthDuration/v2_depth_duration_MTurk/v2_DepthDuration_HTML.html#361,361,1920,1080,1920,1080,9-4-2022,10-15-14,93,depth_duration_stimuli/002199_2014-06-28_18-33-56_260595134347_rgbf000074-resize_0/002199_2014-06-28_18-33-56_260595134347_rgbf000074-resize_0-target.png,1000,1.996,4,5080,999,feet,jsons/v1_VE1000_randls_11_rotated.json,1110604,1453932,54,Man
93,823453,DepthScenes,duration_manipulation_targetAtFixation,jsons/v1_VE1000_randls_11_rotated.json,http://54.235.29.9/FacialAge/BNav_EC2/DepthDuration/v2_depth_duration_MTurk/v2_DepthDuration_HTML.html#361,361,1920,1080,1920,1080,9-4-2022,10-15-14,94,depth_duration_stimuli/001056_2014-06-08_18-46-44_260595134347_rgbf000068-resize_0/001056_2014-06-08_18-46-44_260595134347_rgbf000068-resize_0-target.png,1000,2.6625,8,5735,1000,feet,jsons/v1_VE1000_randls_11_rotated.json,1110604,1453932,54,Man
94,823453,DepthScenes,duration_manipulation_targetAtFixation,jsons/v1_VE1000_randls_11_rotated.json,http://54.235.29.9/FacialAge/BNav_EC2/DepthDuration/v2_depth_duration_MTurk/v2_DepthDuration_HTML.html#361,361,1920,1080,1920,1080,9-4-2022,10-15-14,95,depth_duration_stimuli/002444_2014-06-28_20-32-08_260595134347_rgbf000027-resize_0/002444_2014-06-28_20-32-08_260595134347_rgbf000027-resize_0-target.png,1000,4.388999999999999,15,5251,1000,feet,jsons/v1_VE1000_randls_11_rotated.json,1110604,1453932,54,Man
95,823453,DepthScenes,duration_manipulation_targetAtFixation,jsons/v1_VE1000_randls_11_rotated.json,http://54.235.29.9/FacialAge/BNav_EC2/DepthDuration/v2_depth_duration_MTurk/v2_DepthDuration_HTML.html#361,361,1920,1080,1920,1080,9-4-2022,10-15-14,96,depth_duration_stimuli/000436_2014-06-09_22-25-11_260595134347_rgbf000137-resize_1/000436_2014-06-09_22-25-11_260595134347_rgbf000137-resize_1-target.png,1000,4.0705,18,5874,1000,feet,jsons/v1_VE1000_randls_11_rotated.json,1110604,1453932,54,Man
96,823453,DepthScenes,duration_manipulation_targetAtFixation,jsons/v1_VE1000_randls_11_rotated.json,http://54.235.29.9/FacialAge/BNav_EC2/DepthDuration/v2_depth_duration_MTurk/v2_DepthDuration_HTML.html#361,361,1920,1080,1920,1080,9-4-2022,10-15-14,97,depth_duration_stimuli/000742_2014-06-08_18-48-09_260595134347_rgbf000164-resize_4/000742_2014-06-08_18-48-09_260595134347_rgbf000164-resize_4-target.png,1000,4.632,18,5195,1000,feet,jsons/v1_VE1000_randls_11_rotated.json,1110604,1453932,54,Man
97,823453,DepthScenes,duration_manipulation_targetAtFixation,jsons/v1_VE1000_randls_11_rotated.json,http://54.235.29.9/FacialAge/BNav_EC2/DepthDuration/v2_depth_duration_MTurk/v2_DepthDuration_HTML.html#361,361,1920,1080,1920,1080,9-4-2022,10-15-14,98,depth_duration_stimuli/001066_2014-06-08_22-03-20_260595134347_rgbf000066-resize_4/001066_2014-06-08_22-03-20_260595134347_rgbf000066-resize_4-target.png,1000,4.2330000000000005,30,5987,999,feet,jsons/v1_VE1000_randls_11_rotated.json,1110604,1453932,54,Man
98,823453,DepthScenes,duration_manipulation_targetAtFixation,jsons/v1_VE1000_randls_11_rotated.json,http://54.235.29.9/FacialAge/BNav_EC2/DepthDuration/v2_depth_duration_MTurk/v2_DepthDuration_HTML.html#361,361,1920,1080,1920,1080,9-4-2022,10-15-14,99,depth_duration_stimuli/001222_2014-06-17_16-24-06_260595134347_rgbf000073-resize_0/001222_2014-06-17_16-24-06_260595134347_rgbf000073-resize-original.jpg,1000,1.4385,0,3998,999,feet,jsons/v1_VE1000_randls_11_rotated.json,1110604,1453932,54,Man
99,823453,DepthScenes,duration_manipulation_targetAtFixation,jsons/v1_VE1000_randls_11_rotated.json,http://54.235.29.9/FacialAge/BNav_EC2/DepthDuration/v2_depth_duration_MTurk/v2_DepthDuration_HTML.html#361,361,1920,1080,1920,1080,9-4-2022,10-15-14,100,depth_duration_stimuli/002467_2014-06-28_20-38-07_260595134347_rgbf000026-resize_2/002467_2014-06-28_20-38-07_260595134347_rgbf000026-resize_2-target.png,1000,4.742,20,5553,1000,feet,jsons/v1_VE1000_randls_11_rotated.json,1110604,1453932,54,Man
100,823453,DepthScenes,duration_manipulation_targetAtFixation,jsons/v1_VE1000_randls_11_rotated.json,http://54.235.29.9/FacialAge/BNav_EC2/DepthDuration/v2_depth_duration_MTurk/v2_DepthDuration_HTML.html#361,361,1920,1080,1920,1080,9-4-2022,10-15-14,101,depth_duration_stimuli/002570_2014-06-24_13-59-54_094959634447_rgbf000059-resize_0/002570_2014-06-24_13-59-54_094959634447_rgbf000059-resize_0-target.png,1000,4.037,30,5131,1000,feet,jsons/v1_VE1000_randls_11_rotated.json,1110604,1453932,54,Man
101,823453,DepthScenes,duration_manipulation_targetAtFixation,jsons/v1_VE1000_randls_11_rotated.json,http://54.235.29.9/FacialAge/BNav_EC2/DepthDuration/v2_depth_duration_MTurk/v2_DepthDuration_HTML.html#361,361,1920,1080,1920,1080,9-4-2022,10-15-14,102,depth_duration_stimuli/000483_2014-06-09_20-41-45_260595134347_rgbf000116-resize_4/000483_2014-06-09_20-41-45_260595134347_rgbf000116-resize_4-target.png,1000,1.337,4,5267,999,feet,jsons/v1_VE1000_randls_11_rotated.json,1110604,1453932,54,Man
102,823453,DepthScenes,duration_manipulation_targetAtFixation,jsons/v1_VE1000_randls_11_rotated.json,http://54.235.29.9/FacialAge/BNav_EC2/DepthDuration/v2_depth_duration_MTurk/v2_DepthDuration_HTML.html#361,361,1920,1080,1920,1080,9-4-2022,10-15-14,103,depth_duration_stimuli/000469_2014-06-09_19-42-10_260595134347_rgbf000081-resize_1/000469_2014-06-09_19-42-10_260595134347_rgbf000081-resize_1-target.png,1000,1.652,4,4691,1000,feet,jsons/v1_VE1000_randls_11_rotated.json,1110604,1453932,54,Man
103,823453,DepthScenes,duration_manipulation_targetAtFixation,jsons/v1_VE1000_randls_11_rotated.json,http://54.235.29.9/FacialAge/BNav_EC2/DepthDuration/v2_depth_duration_MTurk/v2_DepthDuration_HTML.html#361,361,1920,1080,1920,1080,9-4-2022,10-15-14,104,depth_duration_stimuli/002340_2014-06-28_20-05-46_260595134347_rgbf000113-resize_0/002340_2014-06-28_20-05-46_260595134347_rgbf000113-resize_0-target.png,1000,2.4735,12,7756,1000,feet,jsons/v1_VE1000_randls_11_rotated.json,1110604,1453932,54,Man
104,823453,DepthScenes,duration_manipulation_targetAtFixation,jsons/v1_VE1000_randls_11_rotated.json,http://54.235.29.9/FacialAge/BNav_EC2/DepthDuration/v2_depth_duration_MTurk/v2_DepthDuration_HTML.html#361,361,1920,1080,1920,1080,9-4-2022,10-15-14,105,depth_duration_stimuli/001016_2014-06-09_16-16-10_260595134347_rgbf000112-resize_5/001016_2014-06-09_16-16-10_260595134347_rgbf000112-resize_5-target.png,1000,1.6565,6,4980,1000,feet,jsons/v1_VE1000_randls_11_rotated.json,1110604,1453932,54,Man
105,823453,DepthScenes,duration_manipulation_targetAtFixation,jsons/v1_VE1000_randls_11_rotated.json,http://54.235.29.9/FacialAge/BNav_EC2/DepthDuration/v2_depth_duration_MTurk/v2_DepthDuration_HTML.html#361,361,1920,1080,1920,1080,9-4-2022,10-15-14,106,depth_duration_stimuli/000502_2014-06-08_23-02-32_260595134347_rgbf000063-resize_4/000502_2014-06-08_23-02-32_260595134347_rgbf000063-resize_4-target.png,1000,2.431,8,5227,1000,feet,jsons/v1_VE1000_randls_11_rotated.json,1110604,1453932,54,Man
106,823453,DepthScenes,duration_manipulation_targetAtFixation,jsons/v1_VE1000_randls_11_rotated.json,http://54.235.29.9/FacialAge/BNav_EC2/DepthDuration/v2_depth_duration_MTurk/v2_DepthDuration_HTML.html#361,361,1920,1080,1920,1080,9-4-2022,10-15-14,107,depth_duration_stimuli/001199_2014-06-17_16-03-48_260595134347_rgbf000077-resize_0/001199_2014-06-17_16-03-48_260595134347_rgbf000077-resize_0-target.png,1000,3.4375,40,6163,1000,feet,jsons/v1_VE1000_randls_11_rotated.json,1110604,1453932,54,Man
107,823453,DepthScenes,duration_manipulation_targetAtFixation,jsons/v1_VE1000_randls_11_rotated.json,http://54.235.29.9/FacialAge/BNav_EC2/DepthDuration/v2_depth_duration_MTurk/v2_DepthDuration_HTML.html#361,361,1920,1080,1920,1080,9-4-2022,10-15-14,108,depth_duration_stimuli/001450_2014-06-19_17-02-03_260595134347_rgbf000203-resize_4/001450_2014-06-19_17-02-03_260595134347_rgbf000203-resize_4-target.png,1000,4.0106666666667,17,8811,1000,feet,jsons/v1_VE1000_randls_11_rotated.json,1110604,1453932,54,Man
108,823453,DepthScenes,duration_manipulation_targetAtFixation,jsons/v1_VE1000_randls_11_rotated.json,http://54.235.29.9/FacialAge/BNav_EC2/DepthDuration/v2_depth_duration_MTurk/v2_DepthDuration_HTML.html#361,361,1920,1080,1920,1080,9-4-2022,10-15-14,109,depth_duration_stimuli/001449_2014-06-19_17-01-27_260595134347_rgbf000116-resize_2/001449_2014-06-19_17-01-27_260595134347_rgbf000116-resize_2-target.png,1000,3.452,8,5603,999,feet,jsons/v1_VE1000_randls_11_rotated.json,1110604,1453932,54,Man
109,823453,DepthScenes,duration_manipulation_targetAtFixation,jsons/v1_VE1000_randls_11_rotated.json,http://54.235.29.9/FacialAge/BNav_EC2/DepthDuration/v2_depth_duration_MTurk/v2_DepthDuration_HTML.html#361,361,1920,1080,1920,1080,9-4-2022,10-15-14,110,depth_duration_stimuli/000191_2014-05-12_17-07-38_260595134347_rgbf000199-resize_0/000191_2014-05-12_17-07-38_260595134347_rgbf000199-resize_0-target.png,1000,3.7995,12,8186,1000,feet,jsons/v1_VE1000_randls_11_rotated.json,1110604,1453932,54,Man
110,823453,DepthScenes,duration_manipulation_targetAtFixation,jsons/v1_VE1000_randls_11_rotated.json,http://54.235.29.9/FacialAge/BNav_EC2/DepthDuration/v2_depth_duration_MTurk/v2_DepthDuration_HTML.html#361,361,1920,1080,1920,1080,9-4-2022,10-15-14,111,depth_duration_stimuli/000493_2014-06-09_21-01-18_260595134347_rgbf000196-resize_3/000493_2014-06-09_21-01-18_260595134347_rgbf000196-resize_3-target.png,1000,3.44,10,7076,1000,feet,jsons/v1_VE1000_randls_11_rotated.json,1110604,1453932,54,Man
111,823453,DepthScenes,duration_manipulation_targetAtFixation,jsons/v1_VE1000_randls_11_rotated.json,http://54.235.29.9/FacialAge/BNav_EC2/DepthDuration/v2_depth_duration_MTurk/v2_DepthDuration_HTML.html#361,361,1920,1080,1920,1080,9-4-2022,10-15-14,112,depth_duration_stimuli/001094_2014-06-15_17-36-00_260595134347_rgbf000205-resize_0/001094_2014-06-15_17-36-00_260595134347_rgbf000205-resize_0-target.png,1000,4.2175,12,9555,999,feet,jsons/v1_VE1000_randls_11_rotated.json,1110604,1453932,54,Man
112,823453,DepthScenes,duration_manipulation_targetAtFixation,jsons/v1_VE1000_randls_11_rotated.json,http://54.235.29.9/FacialAge/BNav_EC2/DepthDuration/v2_depth_duration_MTurk/v2_DepthDuration_HTML.html#361,361,1920,1080,1920,1080,9-4-2022,10-15-14,113,depth_duration_stimuli/000692_2014-06-08_13-09-42_260595134347_rgbf000199-resize_2/000692_2014-06-08_13-09-42_260595134347_rgbf000199-resize_2-target.png,1000,3.661,10,5667,999,feet,jsons/v1_VE1000_randls_11_rotated.json,1110604,1453932,54,Man
113,823453,DepthScenes,duration_manipulation_targetAtFixation,jsons/v1_VE1000_randls_11_rotated.json,http://54.235.29.9/FacialAge/BNav_EC2/DepthDuration/v2_depth_duration_MTurk/v2_DepthDuration_HTML.html#361,361,1920,1080,1920,1080,9-4-2022,10-15-14,114,depth_duration_stimuli/000457_2014-06-08_16-52-43_260595134347_rgbf000199-resize_1/000457_2014-06-08_16-52-43_260595134347_rgbf000199-resize_1-target.png,1000,3.6489999999999996,9,6035,1000,feet,jsons/v1_VE1000_randls_11_rotated.json,1110604,1453932,54,Man
114,823453,DepthScenes,duration_manipulation_targetAtFixation,jsons/v1_VE1000_randls_11_rotated.json,http://54.235.29.9/FacialAge/BNav_EC2/DepthDuration/v2_depth_duration_MTurk/v2_DepthDuration_HTML.html#361,361,1920,1080,1920,1080,9-4-2022,10-15-14,115,depth_duration_stimuli/000929_2014-06-09_16-33-19_260595134347_rgbf000139-resize_0/000929_2014-06-09_16-33-19_260595134347_rgbf000139-resize_0-target.png,1000,2.8680000000000003,9,5603,1000,feet,jsons/v1_VE1000_randls_11_rotated.json,1110604,1453932,54,Man
115,823453,DepthScenes,duration_manipulation_targetAtFixation,jsons/v1_VE1000_randls_11_rotated.json,http://54.235.29.9/FacialAge/BNav_EC2/DepthDuration/v2_depth_duration_MTurk/v2_DepthDuration_HTML.html#361,361,1920,1080,1920,1080,9-4-2022,10-15-14,116,depth_duration_stimuli/001032_2014-06-08_13-23-17_260595134347_rgbf000021-resize_3/001032_2014-06-08_13-23-17_260595134347_rgbf000021-resize_3-target.png,1000,3.2725,10,5827,999,feet,jsons/v1_VE1000_randls_11_rotated.json,1110604,1453932,54,Man
116,823453,DepthScenes,duration_manipulation_targetAtFixation,jsons/v1_VE1000_randls_11_rotated.json,http://54.235.29.9/FacialAge/BNav_EC2/DepthDuration/v2_depth_duration_MTurk/v2_DepthDuration_HTML.html#361,361,1920,1080,1920,1080,9-4-2022,10-15-14,117,depth_duration_stimuli/001059_2014-06-08_21-53-27_260595134347_rgbf000061-resize_4/001059_2014-06-08_21-53-27_260595134347_rgbf000061-resize_4-target.png,1000,2.4185,7,5451,999,feet,jsons/v1_VE1000_randls_11_rotated.json,1110604,1453932,54,Man
117,823453,DepthScenes,duration_manipulation_targetAtFixation,jsons/v1_VE1000_randls_11_rotated.json,http://54.235.29.9/FacialAge/BNav_EC2/DepthDuration/v2_depth_duration_MTurk/v2_DepthDuration_HTML.html#361,361,1920,1080,1920,1080,9-4-2022,10-15-14,118,depth_duration_stimuli/001650_2014-06-20_12-09-00_260595134347_rgbf000087-resize_3/001650_2014-06-20_12-09-00_260595134347_rgbf000087-resize_3-target.png,1000,1.9505,3,5194,1001,feet,jsons/v1_VE1000_randls_11_rotated.json,1110604,1453932,54,Man
118,823453,DepthScenes,duration_manipulation_targetAtFixation,jsons/v1_VE1000_randls_11_rotated.json,http://54.235.29.9/FacialAge/BNav_EC2/DepthDuration/v2_depth_duration_MTurk/v2_DepthDuration_HTML.html#361,361,1920,1080,1920,1080,9-4-2022,10-15-14,119,depth_duration_stimuli/000682_2014-06-08_23-14-58_260595134347_rgbf000041-resize_5/000682_2014-06-08_23-14-58_260595134347_rgbf000041-resize_5-target.png,1000,2.7239999999999998,7,6884,999,feet,jsons/v1_VE1000_randls_11_rotated.json,1110604,1453932,54,Man
119,823453,DepthScenes,duration_manipulation_targetAtFixation,jsons/v1_VE1000_randls_11_rotated.json,http://54.235.29.9/FacialAge/BNav_EC2/DepthDuration/v2_depth_duration_MTurk/v2_DepthDuration_HTML.html#361,361,1920,1080,1920,1080,9-4-2022,10-15-14,120,depth_duration_stimuli/000787_2014-06-08_22-33-53_260595134347_rgbf000175-resize_1/000787_2014-06-08_22-33-53_260595134347_rgbf000175-resize-original.jpg,1000,4.784,0,5195,999,feet,jsons/v1_VE1000_randls_11_rotated.json,1110604,1453932,54,Man
120,823453,DepthScenes,duration_manipulation_targetAtFixation,jsons/v1_VE1000_randls_11_rotated.json,http://54.235.29.9/FacialAge/BNav_EC2/DepthDuration/v2_depth_duration_MTurk/v2_DepthDuration_HTML.html#361,361,1920,1080,1920,1080,9-4-2022,10-15-14,121,depth_duration_stimuli/002136_2014-06-25_21-18-03_260595134347_rgbf000109-resize_3/002136_2014-06-25_21-18-03_260595134347_rgbf000109-resize_3-target.png,1000,1.9569999999999999,6,5147,999,feet,jsons/v1_VE1000_randls_11_rotated.json,1110604,1453932,54,Man
121,823453,DepthScenes,duration_manipulation_targetAtFixation,jsons/v1_VE1000_randls_11_rotated.json,http://54.235.29.9/FacialAge/BNav_EC2/DepthDuration/v2_depth_duration_MTurk/v2_DepthDuration_HTML.html#361,361,1920,1080,1920,1080,9-4-2022,10-15-14,122,depth_duration_stimuli/002964_2014-06-08_17-46-11_094959634447_rgbf000091-resize_4/002964_2014-06-08_17-46-11_094959634447_rgbf000091-resize_4-target.png,1000,1.6909999999999998,5,5691,999,feet,jsons/v1_VE1000_randls_11_rotated.json,1110604,1453932,54,Man
122,823453,DepthScenes,duration_manipulation_targetAtFixation,jsons/v1_VE1000_randls_11_rotated.json,http://54.235.29.9/FacialAge/BNav_EC2/DepthDuration/v2_depth_duration_MTurk/v2_DepthDuration_HTML.html#361,361,1920,1080,1920,1080,9-4-2022,10-15-14,123,depth_duration_stimuli/003490_2014-05-21_15-50-11_094959634447_rgbf000101-resize_3/003490_2014-05-21_15-50-11_094959634447_rgbf000101-resize_3-target.png,1000,3.6445,20,6451,999,feet,jsons/v1_VE1000_randls_11_rotated.json,1110604,1453932,54,Man
123,823453,DepthScenes,duration_manipulation_targetAtFixation,jsons/v1_VE1000_randls_11_rotated.json,http://54.235.29.9/FacialAge/BNav_EC2/DepthDuration/v2_depth_duration_MTurk/v2_DepthDuration_HTML.html#361,361,1920,1080,1920,1080,9-4-2022,10-15-14,124,depth_duration_stimuli/001175_2014-06-17_15-45-55_260595134347_rgbf000129-resize_4/001175_2014-06-17_15-45-55_260595134347_rgbf000129-resize_4-target.png,1000,4.255,25,8380,1000,feet,jsons/v1_VE1000_randls_11_rotated.json,1110604,1453932,54,Man
124,823453,DepthScenes,duration_manipulation_targetAtFixation,jsons/v1_VE1000_randls_11_rotated.json,http://54.235.29.9/FacialAge/BNav_EC2/DepthDuration/v2_depth_duration_MTurk/v2_DepthDuration_HTML.html#361,361,1920,1080,1920,1080,9-4-2022,10-15-14,125,depth_duration_stimuli/000635_2014-06-08_16-38-42_260595134347_rgbf000106-resize_1/000635_2014-06-08_16-38-42_260595134347_rgbf000106-resize_1-target.png,1000,2.074,8,5787,1000,feet,jsons/v1_VE1000_randls_11_rotated.json,1110604,1453932,54,Man
125,823453,DepthScenes,duration_manipulation_targetAtFixation,jsons/v1_VE1000_randls_11_rotated.json,http://54.235.29.9/FacialAge/BNav_EC2/DepthDuration/v2_depth_duration_MTurk/v2_DepthDuration_HTML.html#361,361,1920,1080,1920,1080,9-4-2022,10-15-14,126,depth_duration_stimuli/002279_2014-06-28_18-55-32_260595134347_rgbf000040-resize_5/002279_2014-06-28_18-55-32_260595134347_rgbf000040-resize_5-target.png,1000,1.5043333333333,4,5562,1000,feet,jsons/v1_VE1000_randls_11_rotated.json,1110604,1453932,54,Man
126,823453,DepthScenes,duration_manipulation_targetAtFixation,jsons/v1_VE1000_randls_11_rotated.json,http://54.235.29.9/FacialAge/BNav_EC2/DepthDuration/v2_depth_duration_MTurk/v2_DepthDuration_HTML.html#361,361,1920,1080,1920,1080,9-4-2022,10-15-14,127,depth_duration_stimuli/000780_2014-06-08_22-28-29_260595134347_rgbf000126-resize_1/000780_2014-06-08_22-28-29_260595134347_rgbf000126-resize_1-target.png,1000,3.3825,12,5474,999,feet,jsons/v1_VE1000_randls_11_rotated.json,1110604,1453932,54,Man
127,823453,DepthScenes,duration_manipulation_targetAtFixation,jsons/v1_VE1000_randls_11_rotated.json,http://54.235.29.9/FacialAge/BNav_EC2/DepthDuration/v2_depth_duration_MTurk/v2_DepthDuration_HTML.html#361,361,1920,1080,1920,1080,9-4-2022,10-15-14,128,depth_duration_stimuli/002445_2014-06-28_20-32-16_260595134347_rgbf000029-resize_4/002445_2014-06-28_20-32-16_260595134347_rgbf000029-resize_4-target.png,1000,2.5315,9,6379,999,feet,jsons/v1_VE1000_randls_11_rotated.json,1110604,1453932,54,Man
128,823453,DepthScenes,duration_manipulation_targetAtFixation,jsons/v1_VE1000_randls_11_rotated.json,http://54.235.29.9/FacialAge/BNav_EC2/DepthDuration/v2_depth_duration_MTurk/v2_DepthDuration_HTML.html#361,361,1920,1080,1920,1080,9-4-2022,10-15-14,129,depth_duration_stimuli/002805_2014-06-22_19-54-03_094959634447_rgbf000079-resize_1/002805_2014-06-22_19-54-03_094959634447_rgbf000079-resize_1-target.png,1000,3.1439999999999997,15,6314,1000,feet,jsons/v1_VE1000_randls_11_rotated.json,1110604,1453932,54,Man
129,823453,DepthScenes,duration_manipulation_targetAtFixation,jsons/v1_VE1000_randls_11_rotated.json,http://54.235.29.9/FacialAge/BNav_EC2/DepthDuration/v2_depth_duration_MTurk/v2_DepthDuration_HTML.html#361,361,1920,1080,1920,1080,9-4-2022,10-15-14,130,depth_duration_stimuli/000906_2014-06-08_13-35-43_260595134347_rgbf000155-resize_1/000906_2014-06-08_13-35-43_260595134347_rgbf000155-resize_1-target.png,1000,2.8489999999999998,8,6579,999,feet,jsons/v1_VE1000_randls_11_rotated.json,1110604,1453932,54,Man
130,823453,DepthScenes,duration_manipulation_targetAtFixation,jsons/v1_VE1000_randls_11_rotated.json,http://54.235.29.9/FacialAge/BNav_EC2/DepthDuration/v2_depth_duration_MTurk/v2_DepthDuration_HTML.html#361,361,1920,1080,1920,1080,9-4-2022,10-15-14,131,depth_duration_stimuli/001447_2014-06-19_17-00-32_260595134347_rgbf000082-resize_5/001447_2014-06-19_17-00-32_260595134347_rgbf000082-resize_5-target.png,1000,4.13775,8,6060,1000,feet,jsons/v1_VE1000_randls_11_rotated.json,1110604,1453932,54,Man
131,823453,DepthScenes,duration_manipulation_targetAtFixation,jsons/v1_VE1000_randls_11_rotated.json,http://54.235.29.9/FacialAge/BNav_EC2/DepthDuration/v2_depth_duration_MTurk/v2_DepthDuration_HTML.html#361,361,1920,1080,1920,1080,9-4-2022,10-15-14,132,depth_duration_stimuli/000447_2014-06-08_16-15-46_260595134347_rgbf000130-resize_1/000447_2014-06-08_16-15-46_260595134347_rgbf000130-resize_1-target.png,1000,4.479,18,7395,999,feet,jsons/v1_VE1000_randls_11_rotated.json,1110604,1453932,54,Man
132,823453,DepthScenes,duration_manipulation_targetAtFixation,jsons/v1_VE1000_randls_11_rotated.json,http://54.235.29.9/FacialAge/BNav_EC2/DepthDuration/v2_depth_duration_MTurk/v2_DepthDuration_HTML.html#361,361,1920,1080,1920,1080,9-4-2022,10-15-14,133,depth_duration_stimuli/002758_2014-06-22_19-11-20_094959634447_rgbf000128-resize_1/002758_2014-06-22_19-11-20_094959634447_rgbf000128-resize_1-target.png,1000,2.555,8,6492,999,feet,jsons/v1_VE1000_randls_11_rotated.json,1110604,1453932,54,Man
133,823453,DepthScenes,duration_manipulation_targetAtFixation,jsons/v1_VE1000_randls_11_rotated.json,http://54.235.29.9/FacialAge/BNav_EC2/DepthDuration/v2_depth_duration_MTurk/v2_DepthDuration_HTML.html#361,361,1920,1080,1920,1080,9-4-2022,10-15-14,134,depth_duration_stimuli/002630_2014-06-24_14-47-50_094959634447_rgbf000055-resize_1/002630_2014-06-24_14-47-50_094959634447_rgbf000055-resize_1-target.png,1000,3.0095,20,5691,1000,feet,jsons/v1_VE1000_randls_11_rotated.json,1110604,1453932,54,Man
134,823453,DepthScenes,duration_manipulation_targetAtFixation,jsons/v1_VE1000_randls_11_rotated.json,http://54.235.29.9/FacialAge/BNav_EC2/DepthDuration/v2_depth_duration_MTurk/v2_DepthDuration_HTML.html#361,361,1920,1080,1920,1080,9-4-2022,10-15-14,135,depth_duration_stimuli/000375_2014-06-08_11-17-29_260595134347_rgbf000133-resize_2/000375_2014-06-08_11-17-29_260595134347_rgbf000133-resize-original.jpg,1000,4.718,0,6754,999,feet,jsons/v1_VE1000_randls_11_rotated.json,1110604,1453932,54,Man
135,823453,DepthScenes,duration_manipulation_targetAtFixation,jsons/v1_VE1000_randls_11_rotated.json,http://54.235.29.9/FacialAge/BNav_EC2/DepthDuration/v2_depth_duration_MTurk/v2_DepthDuration_HTML.html#361,361,1920,1080,1920,1080,9-4-2022,10-15-14,136,depth_duration_stimuli/000734_2014-06-08_17-39-11_260595134347_rgbf000128-resize_2/000734_2014-06-08_17-39-11_260595134347_rgbf000128-resize_2-target.png,1000,4.098,10,8995,999,feet,jsons/v1_VE1000_randls_11_rotated.json,1110604,1453932,54,Man
136,823453,DepthScenes,duration_manipulation_targetAtFixation,jsons/v1_VE1000_randls_11_rotated.json,http://54.235.29.9/FacialAge/BNav_EC2/DepthDuration/v2_depth_duration_MTurk/v2_DepthDuration_HTML.html#361,361,1920,1080,1920,1080,9-4-2022,10-15-14,137,depth_duration_stimuli/000739_2014-06-08_18-45-58_260595134347_rgbf000068-resize_1/000739_2014-06-08_18-45-58_260595134347_rgbf000068-resize_1-target.png,1000,3.534,12,6692,1000,feet,jsons/v1_VE1000_randls_11_rotated.json,1110604,1453932,54,Man
137,823453,DepthScenes,duration_manipulation_targetAtFixation,jsons/v1_VE1000_randls_11_rotated.json,http://54.235.29.9/FacialAge/BNav_EC2/DepthDuration/v2_depth_duration_MTurk/v2_DepthDuration_HTML.html#361,361,1920,1080,1920,1080,9-4-2022,10-15-14,138,depth_duration_stimuli/002639_2014-06-24_14-51-37_094959634447_rgbf000074-resize_4/002639_2014-06-24_14-51-37_094959634447_rgbf000074-resize_4-target.png,1000,4.0375,9,5730,999,feet,jsons/v1_VE1000_randls_11_rotated.json,1110604,1453932,54,Man
138,823453,DepthScenes,duration_manipulation_targetAtFixation,jsons/v1_VE1000_randls_11_rotated.json,http://54.235.29.9/FacialAge/BNav_EC2/DepthDuration/v2_depth_duration_MTurk/v2_DepthDuration_HTML.html#361,361,1920,1080,1920,1080,9-4-2022,10-15-14,139,depth_duration_stimuli/003292_2014-05-14_21-53-49_094959634447_rgbf000100-resize_2/003292_2014-05-14_21-53-49_094959634447_rgbf000100-resize_2-target.png,1000,3.4815,8,5332,1000,feet,jsons/v1_VE1000_randls_11_rotated.json,1110604,1453932,54,Man
139,823453,DepthScenes,duration_manipulation_targetAtFixation,jsons/v1_VE1000_randls_11_rotated.json,http://54.235.29.9/FacialAge/BNav_EC2/DepthDuration/v2_depth_duration_MTurk/v2_DepthDuration_HTML.html#361,361,1920,1080,1920,1080,9-4-2022,10-15-14,140,depth_duration_stimuli/002344_2014-06-28_20-06-29_260595134347_rgbf000030-resize_1/002344_2014-06-28_20-06-29_260595134347_rgbf000030-resize_1-target.png,1000,1.5795,3,5907,1000,feet,jsons/v1_VE1000_randls_11_rotated.json,1110604,1453932,54,Man
140,823453,DepthScenes,duration_manipulation_targetAtFixation,jsons/v1_VE1000_randls_11_rotated.json,http://54.235.29.9/FacialAge/BNav_EC2/DepthDuration/v2_depth_duration_MTurk/v2_DepthDuration_HTML.html#361,361,1920,1080,1920,1080,9-4-2022,10-15-14,141,depth_duration_stimuli/002725_2014-06-22_11-47-51_094959634447_rgbf000070-resize_1/002725_2014-06-22_11-47-51_094959634447_rgbf000070-resize_1-target.png,1000,2.195,6,5515,999,feet,jsons/v1_VE1000_randls_11_rotated.json,1110604,1453932,54,Man
141,823453,DepthScenes,duration_manipulation_targetAtFixation,jsons/v1_VE1000_randls_11_rotated.json,http://54.235.29.9/FacialAge/BNav_EC2/DepthDuration/v2_depth_duration_MTurk/v2_DepthDuration_HTML.html#361,361,1920,1080,1920,1080,9-4-2022,10-15-14,142,depth_duration_stimuli/000549_2014-06-08_22-10-24_260595134347_rgbf000247-resize_3/000549_2014-06-08_22-10-24_260595134347_rgbf000247-resize_3-target.png,1000,1.841,3,6699,1000,feet,jsons/v1_VE1000_randls_11_rotated.json,1110604,1453932,54,Man
142,823453,DepthScenes,duration_manipulation_targetAtFixation,jsons/v1_VE1000_randls_11_rotated.json,http://54.235.29.9/FacialAge/BNav_EC2/DepthDuration/v2_depth_duration_MTurk/v2_DepthDuration_HTML.html#361,361,1920,1080,1920,1080,9-4-2022,10-15-14,143,depth_duration_stimuli/001055_2014-06-08_18-45-35_260595134347_rgbf000111-resize_4/001055_2014-06-08_18-45-35_260595134347_rgbf000111-resize_4-target.png,1000,2.4290000000000003,6,9250,1000,feet,jsons/v1_VE1000_randls_11_rotated.json,1110604,1453932,54,Man
143,823453,DepthScenes,duration_manipulation_targetAtFixation,jsons/v1_VE1000_randls_11_rotated.json,http://54.235.29.9/FacialAge/BNav_EC2/DepthDuration/v2_depth_duration_MTurk/v2_DepthDuration_HTML.html#361,361,1920,1080,1920,1080,9-4-2022,10-15-14,144,depth_duration_stimuli/001571_2014-06-20_17-21-32_260595134347_rgbf000089-resize_1/001571_2014-06-20_17-21-32_260595134347_rgbf000089-resize_1-target.png,1000,1.86,4,5842,1000,feet,jsons/v1_VE1000_randls_11_rotated.json,1110604,1453932,54,Man
144,823453,DepthScenes,duration_manipulation_targetAtFixation,jsons/v1_VE1000_randls_11_rotated.json,http://54.235.29.9/FacialAge/BNav_EC2/DepthDuration/v2_depth_duration_MTurk/v2_DepthDuration_HTML.html#361,361,1920,1080,1920,1080,9-4-2022,10-15-14,145,depth_duration_stimuli/002272_2014-06-28_18-53-56_260595134347_rgbf000067-resize_2/002272_2014-06-28_18-53-56_260595134347_rgbf000067-resize_2-target.png,1000,1.138,3,8469,999,feet,jsons/v1_VE1000_randls_11_rotated.json,1110604,1453932,54,Man
145,823453,DepthScenes,duration_manipulation_targetAtFixation,jsons/v1_VE1000_randls_11_rotated.json,http://54.235.29.9/FacialAge/BNav_EC2/DepthDuration/v2_depth_duration_MTurk/v2_DepthDuration_HTML.html#361,361,1920,1080,1920,1080,9-4-2022,10-15-14,146,depth_duration_stimuli/002953_2014-06-08_17-32-18_094959634447_rgbf000059-resize_5/002953_2014-06-08_17-32-18_094959634447_rgbf000059-resize_5-target.png,1000,1.551,3,6786,1000,feet,jsons/v1_VE1000_randls_11_rotated.json,1110604,1453932,54,Man
146,823453,DepthScenes,duration_manipulation_targetAtFixation,jsons/v1_VE1000_randls_11_rotated.json,http://54.235.29.9/FacialAge/BNav_EC2/DepthDuration/v2_depth_duration_MTurk/v2_DepthDuration_HTML.html#361,361,1920,1080,1920,1080,9-4-2022,10-15-14,147,depth_duration_stimuli/000878_2014-06-08_22-52-45_260595134347_rgbf000045-resize_2/000878_2014-06-08_22-52-45_260595134347_rgbf000045-resize_2-target.png,1000,2.092,6,5563,999,feet,jsons/v1_VE1000_randls_11_rotated.json,1110604,1453932,54,Man
147,823453,DepthScenes,duration_manipulation_targetAtFixation,jsons/v1_VE1000_randls_11_rotated.json,http://54.235.29.9/FacialAge/BNav_EC2/DepthDuration/v2_depth_duration_MTurk/v2_DepthDuration_HTML.html#361,361,1920,1080,1920,1080,9-4-2022,10-15-14,148,depth_duration_stimuli/003423_2014-05-21_10-23-26_094959634447_rgbf002665-resize_2/003423_2014-05-21_10-23-26_094959634447_rgbf002665-resize_2-target.png,1000,3.2575,20,5891,1000,feet,jsons/v1_VE1000_randls_11_rotated.json,1110604,1453932,54,Man
148,823453,DepthScenes,duration_manipulation_targetAtFixation,jsons/v1_VE1000_randls_11_rotated.json,http://54.235.29.9/FacialAge/BNav_EC2/DepthDuration/v2_depth_duration_MTurk/v2_DepthDuration_HTML.html#361,361,1920,1080,1920,1080,9-4-2022,10-15-14,149,depth_duration_stimuli/002905_2014-06-03_18-04-43_094959634447_rgbf000151-resize_2/002905_2014-06-03_18-04-43_094959634447_rgbf000151-resize_2-target.png,1000,2.0295,6,5172,1000,feet,jsons/v1_VE1000_randls_11_rotated.json,1110604,1453932,54,Man
149,823453,DepthScenes,duration_manipulation_targetAtFixation,jsons/v1_VE1000_randls_11_rotated.json,http://54.235.29.9/FacialAge/BNav_EC2/DepthDuration/v2_depth_duration_MTurk/v2_DepthDuration_HTML.html#361,361,1920,1080,1920,1080,9-4-2022,10-15-14,150,depth_duration_stimuli/003338_2014-05-20_11-01-23_094959634447_rgbf000051-resize_6/003338_2014-05-20_11-01-23_094959634447_rgbf000051-resize_6-target.png,1000,1.693,4,4940,999,feet,jsons/v1_VE1000_randls_11_rotated.json,1110604,1453932,54,Man
150,823453,DepthScenes,duration_manipulation_targetAtFixation,jsons/v1_VE1000_randls_11_rotated.json,http://54.235.29.9/FacialAge/BNav_EC2/DepthDuration/v2_depth_duration_MTurk/v2_DepthDuration_HTML.html#361,361,1920,1080,1920,1080,9-4-2022,10-15-14,151,depth_duration_stimuli/002509_2014-06-24_13-19-22_094959634447_rgbf000077-resize_0/002509_2014-06-24_13-19-22_094959634447_rgbf000077-resize_0-target.png,1000,1.3065,4,6235,999,feet,jsons/v1_VE1000_randls_11_rotated.json,1110604,1453932,54,Man
151,823453,DepthScenes,duration_manipulation_targetAtFixation,jsons/v1_VE1000_randls_11_rotated.json,http://54.235.29.9/FacialAge/BNav_EC2/DepthDuration/v2_depth_duration_MTurk/v2_DepthDuration_HTML.html#361,361,1920,1080,1920,1080,9-4-2022,10-15-14,152,depth_duration_stimuli/000569_2014-06-09_22-51-47_260595134347_rgbf000141-resize_3/000569_2014-06-09_22-51-47_260595134347_rgbf000141-resize-original.jpg,1000,4.512,0,5251,1000,feet,jsons/v1_VE1000_randls_11_rotated.json,1110604,1453932,54,Man
152,823453,DepthScenes,duration_manipulation_targetAtFixation,jsons/v1_VE1000_randls_11_rotated.json,http://54.235.29.9/FacialAge/BNav_EC2/DepthDuration/v2_depth_duration_MTurk/v2_DepthDuration_HTML.html#361,361,1920,1080,1920,1080,9-4-2022,10-15-14,153,depth_duration_stimuli/000927_2014-06-09_16-32-30_260595134347_rgbf000123-resize_3/000927_2014-06-09_16-32-30_260595134347_rgbf000123-resize_3-target.png,1000,2.6785,8,6266,999,feet,jsons/v1_VE1000_randls_11_rotated.json,1110604,1453932,54,Man
153,823453,DepthScenes,duration_manipulation_targetAtFixation,jsons/v1_VE1000_randls_11_rotated.json,http://54.235.29.9/FacialAge/BNav_EC2/DepthDuration/v2_depth_duration_MTurk/v2_DepthDuration_HTML.html#361,361,1920,1080,1920,1080,9-4-2022,10-15-14,154,depth_duration_stimuli/001110_2014-06-15_17-25-28_260595134347_rgbf000150-resize_1/001110_2014-06-15_17-25-28_260595134347_rgbf000150-resize_1-target.png,1000,1.7115,6,5187,1000,feet,jsons/v1_VE1000_randls_11_rotated.json,1110604,1453932,54,Man
154,823453,DepthScenes,duration_manipulation_targetAtFixation,jsons/v1_VE1000_randls_11_rotated.json,http://54.235.29.9/FacialAge/BNav_EC2/DepthDuration/v2_depth_duration_MTurk/v2_DepthDuration_HTML.html#361,361,1920,1080,1920,1080,9-4-2022,10-15-14,155,depth_duration_stimuli/000137_2014-05-20_17-04-49_260595134347_rgbf000120-resize_1/000137_2014-05-20_17-04-49_260595134347_rgbf000120-resize_1-target.png,1000,3.786,11,5915,1000,feet,jsons/v1_VE1000_randls_11_rotated.json,1110604,1453932,54,Man
155,823453,DepthScenes,duration_manipulation_targetAtFixation,jsons/v1_VE1000_randls_11_rotated.json,http://54.235.29.9/FacialAge/BNav_EC2/DepthDuration/v2_depth_duration_MTurk/v2_DepthDuration_HTML.html#361,361,1920,1080,1920,1080,9-4-2022,10-15-14,156,depth_duration_stimuli/000736_2014-06-08_18-24-15_260595134347_rgbf000206-resize_3/000736_2014-06-08_18-24-15_260595134347_rgbf000206-resize_3-target.png,1000,3.515,6,6227,1000,feet,jsons/v1_VE1000_randls_11_rotated.json,1110604,1453932,54,Man
156,823453,DepthScenes,duration_manipulation_targetAtFixation,jsons/v1_VE1000_randls_11_rotated.json,http://54.235.29.9/FacialAge/BNav_EC2/DepthDuration/v2_depth_duration_MTurk/v2_DepthDuration_HTML.html#361,361,1920,1080,1920,1080,9-4-2022,10-15-14,157,depth_duration_stimuli/001214_2014-06-17_16-13-55_260595134347_rgbf000111-resize_0/001214_2014-06-17_16-13-55_260595134347_rgbf000111-resize_0-target.png,1000,2.6505,8,6531,999,feet,jsons/v1_VE1000_randls_11_rotated.json,1110604,1453932,54,Man
157,823453,DepthScenes,duration_manipulation_targetAtFixation,jsons/v1_VE1000_randls_11_rotated.json,http://54.235.29.9/FacialAge/BNav_EC2/DepthDuration/v2_depth_duration_MTurk/v2_DepthDuration_HTML.html#361,361,1920,1080,1920,1080,9-4-2022,10-15-14,158,depth_duration_stimuli/000810_2014-06-08_17-20-01_260595134347_rgbf000105-resize_0/000810_2014-06-08_17-20-01_260595134347_rgbf000105-resize_0-target.png,1000,1.4865,7,8187,999,feet,jsons/v1_VE1000_randls_11_rotated.json,1110604,1453932,54,Man
158,823453,DepthScenes,duration_manipulation_targetAtFixation,jsons/v1_VE1000_randls_11_rotated.json,http://54.235.29.9/FacialAge/BNav_EC2/DepthDuration/v2_depth_duration_MTurk/v2_DepthDuration_HTML.html#361,361,1920,1080,1920,1080,9-4-2022,10-15-14,159,depth_duration_stimuli/000749_2014-06-08_21-55-06_260595134347_rgbf000070-resize_2/000749_2014-06-08_21-55-06_260595134347_rgbf000070-resize_2-target.png,1000,2.331,8,5611,999,feet,jsons/v1_VE1000_randls_11_rotated.json,1110604,1453932,54,Man
159,823453,DepthScenes,duration_manipulation_targetAtFixation,jsons/v1_VE1000_randls_11_rotated.json,http://54.235.29.9/FacialAge/BNav_EC2/DepthDuration/v2_depth_duration_MTurk/v2_DepthDuration_HTML.html#361,361,1920,1080,1920,1080,9-4-2022,10-15-14,160,depth_duration_stimuli/002788_2014-06-22_19-36-03_094959634447_rgbf000088-resize_2/002788_2014-06-22_19-36-03_094959634447_rgbf000088-resize_2-target.png,1000,1.6465,8,5883,999,feet,jsons/v1_VE1000_randls_11_rotated.json,1110604,1453932,54,Man
160,823453,DepthScenes,duration_manipulation_targetAtFixation,jsons/v1_VE1000_randls_11_rotated.json,http://54.235.29.9/FacialAge/BNav_EC2/DepthDuration/v2_depth_duration_MTurk/v2_DepthDuration_HTML.html#361,361,1920,1080,1920,1080,9-4-2022,10-15-14,161,depth_duration_stimuli/002660_2014-06-13_15-44-18_094959634447_rgbf001878-resize_2/002660_2014-06-13_15-44-18_094959634447_rgbf001878-resize_2-target.png,1000,3.576,15,5579,999,feet,jsons/v1_VE1000_randls_11_rotated.json,1110604,1453932,54,Man
161,823453,DepthScenes,duration_manipulation_targetAtFixation,jsons/v1_VE1000_randls_11_rotated.json,http://54.235.29.9/FacialAge/BNav_EC2/DepthDuration/v2_depth_duration_MTurk/v2_DepthDuration_HTML.html#361,361,1920,1080,1920,1080,9-4-2022,10-15-14,162,depth_duration_stimuli/002153_2014-06-25_21-27-18_260595134347_rgbf000038-resize_5/002153_2014-06-25_21-27-18_260595134347_rgbf000038-resize_5-target.png,1000,2.505,8,7683,1000,feet,jsons/v1_VE1000_randls_11_rotated.json,1110604,1453932,54,Man
162,823453,DepthScenes,duration_manipulation_targetAtFixation,jsons/v1_VE1000_randls_11_rotated.json,http://54.235.29.9/FacialAge/BNav_EC2/DepthDuration/v2_depth_duration_MTurk/v2_DepthDuration_HTML.html#361,361,1920,1080,1920,1080,9-4-2022,10-15-14,163,depth_duration_stimuli/003129_2014-05-12_10-48-10_094959634447_rgbf000100-resize_0/003129_2014-05-12_10-48-10_094959634447_rgbf000100-resize_0-target.png,1000,4.9305,16,7604,1000,feet,jsons/v1_VE1000_randls_11_rotated.json,1110604,1453932,54,Man
163,823453,DepthScenes,duration_manipulation_targetAtFixation,jsons/v1_VE1000_randls_11_rotated.json,http://54.235.29.9/FacialAge/BNav_EC2/DepthDuration/v2_depth_duration_MTurk/v2_DepthDuration_HTML.html#361,361,1920,1080,1920,1080,9-4-2022,10-15-14,164,depth_duration_stimuli/000414_2014-06-04_19-49-13_260595134347_rgbf000044-resize_0/000414_2014-06-04_19-49-13_260595134347_rgbf000044-resize_0-target.png,1000,4.329,16,11092,999,feet,jsons/v1_VE1000_randls_11_rotated.json,1110604,1453932,54,Man
