,subjID,experimentName,versionName,sequenceName,url,selected_row,windowWidth,windowHeight,screenWidth,screenHeight,startDate,startTime,trial,stimulus,duration,actual_depth,depth_estimate,trial_RT,log_sceneDuration,unitSelection,seq_filepath,experimentTime,totalTime,age,gender
0,823759,DepthScenes,duration_manipulation_targetAtFixation,jsons/v1_VE250_randls_0.json,http://54.235.29.9/FacialAge/BNav_EC2/DepthDuration/v2_depth_duration_MTurk/v2_DepthDuration_HTML.html#325,325,1366,768,1366,768,8-30-2022,9-53-13,1,depth_duration_stimuli/001133_2014-06-17_14-49-16_260595134347_rgbf000100-resize_0/001133_2014-06-17_14-49-16_260595134347_rgbf000100-resize_0-target.png,250,4.2115,10,4870,251,feet,jsons/v1_VE250_randls_0.json,1318423,1440038,29,Woman
1,823759,DepthScenes,duration_manipulation_targetAtFixation,jsons/v1_VE250_randls_0.json,http://54.235.29.9/FacialAge/BNav_EC2/DepthDuration/v2_depth_duration_MTurk/v2_DepthDuration_HTML.html#325,325,1366,768,1366,768,8-30-2022,9-53-13,2,depth_duration_stimuli/001132_2014-06-17_14-48-54_260595134347_rgbf000100-resize_2/001132_2014-06-17_14-48-54_260595134347_rgbf000100-resize_2-target.png,250,3.753,10,13474,244,feet,jsons/v1_VE250_randls_0.json,1318423,1440038,29,Woman
2,823759,DepthScenes,duration_manipulation_targetAtFixation,jsons/v1_VE250_randls_0.json,http://54.235.29.9/FacialAge/BNav_EC2/DepthDuration/v2_depth_duration_MTurk/v2_DepthDuration_HTML.html#325,325,1366,768,1366,768,8-30-2022,9-53-13,3,depth_duration_stimuli/003070_2014-06-15_14-58-27_094959634447_rgbf000150-resize_3/003070_2014-06-15_14-58-27_094959634447_rgbf000150-resize_3-target.png,250,2.9415,5,14982,250,feet,jsons/v1_VE250_randls_0.json,1318423,1440038,29,Woman
3,823759,DepthScenes,duration_manipulation_targetAtFixation,jsons/v1_VE250_randls_0.json,http://54.235.29.9/FacialAge/BNav_EC2/DepthDuration/v2_depth_duration_MTurk/v2_DepthDuration_HTML.html#325,325,1366,768,1366,768,8-30-2022,9-53-13,4,depth_duration_stimuli/000943_2014-06-09_19-31-07_260595134347_rgbf000128-resize_1/000943_2014-06-09_19-31-07_260595134347_rgbf000128-resize_1-target.png,250,1.9765,5,3457,252,feet,jsons/v1_VE250_randls_0.json,1318423,1440038,29,Woman
4,823759,DepthScenes,duration_manipulation_targetAtFixation,jsons/v1_VE250_randls_0.json,http://54.235.29.9/FacialAge/BNav_EC2/DepthDuration/v2_depth_duration_MTurk/v2_DepthDuration_HTML.html#325,325,1366,768,1366,768,8-30-2022,9-53-13,5,depth_duration_stimuli/002964_2014-06-08_17-46-11_094959634447_rgbf000091-resize_4/002964_2014-06-08_17-46-11_094959634447_rgbf000091-resize_4-target.png,250,1.6909999999999998,3,12857,253,feet,jsons/v1_VE250_randls_0.json,1318423,1440038,29,Woman
5,823759,DepthScenes,duration_manipulation_targetAtFixation,jsons/v1_VE250_randls_0.json,http://54.235.29.9/FacialAge/BNav_EC2/DepthDuration/v2_depth_duration_MTurk/v2_DepthDuration_HTML.html#325,325,1366,768,1366,768,8-30-2022,9-53-13,6,depth_duration_stimuli/002136_2014-06-25_21-18-03_260595134347_rgbf000109-resize_3/002136_2014-06-25_21-18-03_260595134347_rgbf000109-resize_3-target.png,250,1.9569999999999999,0,3578,249,feet,jsons/v1_VE250_randls_0.json,1318423,1440038,29,Woman
6,823759,DepthScenes,duration_manipulation_targetAtFixation,jsons/v1_VE250_randls_0.json,http://54.235.29.9/FacialAge/BNav_EC2/DepthDuration/v2_depth_duration_MTurk/v2_DepthDuration_HTML.html#325,325,1366,768,1366,768,8-30-2022,9-53-13,7,depth_duration_stimuli/000917_2014-06-09_22-45-29_260595134347_rgbf000149-resize_3/000917_2014-06-09_22-45-29_260595134347_rgbf000149-resize_3-target.png,250,4.1865,10,10671,250,feet,jsons/v1_VE250_randls_0.json,1318423,1440038,29,Woman
7,823759,DepthScenes,duration_manipulation_targetAtFixation,jsons/v1_VE250_randls_0.json,http://54.235.29.9/FacialAge/BNav_EC2/DepthDuration/v2_depth_duration_MTurk/v2_DepthDuration_HTML.html#325,325,1366,768,1366,768,8-30-2022,9-53-13,8,depth_duration_stimuli/002323_2014-06-28_20-01-54_260595134347_rgbf000051-resize_4/002323_2014-06-28_20-01-54_260595134347_rgbf000051-resize_4-target.png,250,3.7310000000000003,10,3133,251,feet,jsons/v1_VE250_randls_0.json,1318423,1440038,29,Woman
8,823759,DepthScenes,duration_manipulation_targetAtFixation,jsons/v1_VE250_randls_0.json,http://54.235.29.9/FacialAge/BNav_EC2/DepthDuration/v2_depth_duration_MTurk/v2_DepthDuration_HTML.html#325,325,1366,768,1366,768,8-30-2022,9-53-13,9,depth_duration_stimuli/002570_2014-06-24_13-59-54_094959634447_rgbf000059-resize_0/002570_2014-06-24_13-59-54_094959634447_rgbf000059-resize_0-target.png,250,4.037,5,12379,245,feet,jsons/v1_VE250_randls_0.json,1318423,1440038,29,Woman
9,823759,DepthScenes,duration_manipulation_targetAtFixation,jsons/v1_VE250_randls_0.json,http://54.235.29.9/FacialAge/BNav_EC2/DepthDuration/v2_depth_duration_MTurk/v2_DepthDuration_HTML.html#325,325,1366,768,1366,768,8-30-2022,9-53-13,10,depth_duration_stimuli/002467_2014-06-28_20-38-07_260595134347_rgbf000026-resize_2/002467_2014-06-28_20-38-07_260595134347_rgbf000026-resize_2-target.png,250,4.742,0,3227,250,feet,jsons/v1_VE250_randls_0.json,1318423,1440038,29,Woman
10,823759,DepthScenes,duration_manipulation_targetAtFixation,jsons/v1_VE250_randls_0.json,http://54.235.29.9/FacialAge/BNav_EC2/DepthDuration/v2_depth_duration_MTurk/v2_DepthDuration_HTML.html#325,325,1366,768,1366,768,8-30-2022,9-53-13,11,depth_duration_stimuli/001449_2014-06-19_17-01-27_260595134347_rgbf000116-resize_2/001449_2014-06-19_17-01-27_260595134347_rgbf000116-resize_2-target.png,250,3.452,0,7603,247,feet,jsons/v1_VE250_randls_0.json,1318423,1440038,29,Woman
11,823759,DepthScenes,duration_manipulation_targetAtFixation,jsons/v1_VE250_randls_0.json,http://54.235.29.9/FacialAge/BNav_EC2/DepthDuration/v2_depth_duration_MTurk/v2_DepthDuration_HTML.html#325,325,1366,768,1366,768,8-30-2022,9-53-13,12,depth_duration_stimuli/001450_2014-06-19_17-02-03_260595134347_rgbf000203-resize_4/001450_2014-06-19_17-02-03_260595134347_rgbf000203-resize_4-target.png,250,4.0106666666667,0,2482,249,feet,jsons/v1_VE250_randls_0.json,1318423,1440038,29,Woman
12,823759,DepthScenes,duration_manipulation_targetAtFixation,jsons/v1_VE250_randls_0.json,http://54.235.29.9/FacialAge/BNav_EC2/DepthDuration/v2_depth_duration_MTurk/v2_DepthDuration_HTML.html#325,325,1366,768,1366,768,8-30-2022,9-53-13,13,depth_duration_stimuli/000569_2014-06-09_22-51-47_260595134347_rgbf000141-resize_3/000569_2014-06-09_22-51-47_260595134347_rgbf000141-resize-original.jpg,250,4.512,0,7770,248,feet,jsons/v1_VE250_randls_0.json,1318423,1440038,29,Woman
13,823759,DepthScenes,duration_manipulation_targetAtFixation,jsons/v1_VE250_randls_0.json,http://54.235.29.9/FacialAge/BNav_EC2/DepthDuration/v2_depth_duration_MTurk/v2_DepthDuration_HTML.html#325,325,1366,768,1366,768,8-30-2022,9-53-13,14,depth_duration_stimuli/000736_2014-06-08_18-24-15_260595134347_rgbf000206-resize_3/000736_2014-06-08_18-24-15_260595134347_rgbf000206-resize_3-target.png,250,3.515,5,8867,250,feet,jsons/v1_VE250_randls_0.json,1318423,1440038,29,Woman
14,823759,DepthScenes,duration_manipulation_targetAtFixation,jsons/v1_VE250_randls_0.json,http://54.235.29.9/FacialAge/BNav_EC2/DepthDuration/v2_depth_duration_MTurk/v2_DepthDuration_HTML.html#325,325,1366,768,1366,768,8-30-2022,9-53-13,15,depth_duration_stimuli/000137_2014-05-20_17-04-49_260595134347_rgbf000120-resize_1/000137_2014-05-20_17-04-49_260595134347_rgbf000120-resize_1-target.png,250,3.786,0,2300,251,feet,jsons/v1_VE250_randls_0.json,1318423,1440038,29,Woman
15,823759,DepthScenes,duration_manipulation_targetAtFixation,jsons/v1_VE250_randls_0.json,http://54.235.29.9/FacialAge/BNav_EC2/DepthDuration/v2_depth_duration_MTurk/v2_DepthDuration_HTML.html#325,325,1366,768,1366,768,8-30-2022,9-53-13,16,depth_duration_stimuli/002509_2014-06-24_13-19-22_094959634447_rgbf000077-resize_0/002509_2014-06-24_13-19-22_094959634447_rgbf000077-resize_0-target.png,250,1.3065,3,5667,250,feet,jsons/v1_VE250_randls_0.json,1318423,1440038,29,Woman
16,823759,DepthScenes,duration_manipulation_targetAtFixation,jsons/v1_VE250_randls_0.json,http://54.235.29.9/FacialAge/BNav_EC2/DepthDuration/v2_depth_duration_MTurk/v2_DepthDuration_HTML.html#325,325,1366,768,1366,768,8-30-2022,9-53-13,17,depth_duration_stimuli/003338_2014-05-20_11-01-23_094959634447_rgbf000051-resize_6/003338_2014-05-20_11-01-23_094959634447_rgbf000051-resize_6-target.png,250,1.693,5,3146,249,feet,jsons/v1_VE250_randls_0.json,1318423,1440038,29,Woman
17,823759,DepthScenes,duration_manipulation_targetAtFixation,jsons/v1_VE250_randls_0.json,http://54.235.29.9/FacialAge/BNav_EC2/DepthDuration/v2_depth_duration_MTurk/v2_DepthDuration_HTML.html#325,325,1366,768,1366,768,8-30-2022,9-53-13,18,depth_duration_stimuli/000810_2014-06-08_17-20-01_260595134347_rgbf000105-resize_0/000810_2014-06-08_17-20-01_260595134347_rgbf000105-resize_0-target.png,250,1.4865,5,6565,251,feet,jsons/v1_VE250_randls_0.json,1318423,1440038,29,Woman
18,823759,DepthScenes,duration_manipulation_targetAtFixation,jsons/v1_VE250_randls_0.json,http://54.235.29.9/FacialAge/BNav_EC2/DepthDuration/v2_depth_duration_MTurk/v2_DepthDuration_HTML.html#325,325,1366,768,1366,768,8-30-2022,9-53-13,19,depth_duration_stimuli/001214_2014-06-17_16-13-55_260595134347_rgbf000111-resize_0/001214_2014-06-17_16-13-55_260595134347_rgbf000111-resize_0-target.png,250,2.6505,5,2628,250,feet,jsons/v1_VE250_randls_0.json,1318423,1440038,29,Woman
19,823759,DepthScenes,duration_manipulation_targetAtFixation,jsons/v1_VE250_randls_0.json,http://54.235.29.9/FacialAge/BNav_EC2/DepthDuration/v2_depth_duration_MTurk/v2_DepthDuration_HTML.html#325,325,1366,768,1366,768,8-30-2022,9-53-13,20,depth_duration_stimuli/000486_2014-06-09_20-47-20_260595134347_rgbf000143-resize_2/000486_2014-06-09_20-47-20_260595134347_rgbf000143-resize_2-target.png,250,4.8325,10,6144,250,feet,jsons/v1_VE250_randls_0.json,1318423,1440038,29,Woman
20,823759,DepthScenes,duration_manipulation_targetAtFixation,jsons/v1_VE250_randls_0.json,http://54.235.29.9/FacialAge/BNav_EC2/DepthDuration/v2_depth_duration_MTurk/v2_DepthDuration_HTML.html#325,325,1366,768,1366,768,8-30-2022,9-53-13,21,depth_duration_stimuli/003083_2014-06-15_15-21-03_094959634447_rgbf000063-resize_1/003083_2014-06-15_15-21-03_094959634447_rgbf000063-resize_1-target.png,250,4.1405,10,3114,253,feet,jsons/v1_VE250_randls_0.json,1318423,1440038,29,Woman
21,823759,DepthScenes,duration_manipulation_targetAtFixation,jsons/v1_VE250_randls_0.json,http://54.235.29.9/FacialAge/BNav_EC2/DepthDuration/v2_depth_duration_MTurk/v2_DepthDuration_HTML.html#325,325,1366,768,1366,768,8-30-2022,9-53-13,22,depth_duration_stimuli/002788_2014-06-22_19-36-03_094959634447_rgbf000088-resize_2/002788_2014-06-22_19-36-03_094959634447_rgbf000088-resize_2-target.png,250,1.6465,10,5608,252,feet,jsons/v1_VE250_randls_0.json,1318423,1440038,29,Woman
22,823759,DepthScenes,duration_manipulation_targetAtFixation,jsons/v1_VE250_randls_0.json,http://54.235.29.9/FacialAge/BNav_EC2/DepthDuration/v2_depth_duration_MTurk/v2_DepthDuration_HTML.html#325,325,1366,768,1366,768,8-30-2022,9-53-13,23,depth_duration_stimuli/000749_2014-06-08_21-55-06_260595134347_rgbf000070-resize_2/000749_2014-06-08_21-55-06_260595134347_rgbf000070-resize_2-target.png,250,2.331,10,2853,250,feet,jsons/v1_VE250_randls_0.json,1318423,1440038,29,Woman
23,823759,DepthScenes,duration_manipulation_targetAtFixation,jsons/v1_VE250_randls_0.json,http://54.235.29.9/FacialAge/BNav_EC2/DepthDuration/v2_depth_duration_MTurk/v2_DepthDuration_HTML.html#325,325,1366,768,1366,768,8-30-2022,9-53-13,24,depth_duration_stimuli/002763_2014-06-22_19-13-10_094959634447_rgbf000075-resize_4/002763_2014-06-22_19-13-10_094959634447_rgbf000075-resize_4-target.png,250,1.68375,5,6225,251,feet,jsons/v1_VE250_randls_0.json,1318423,1440038,29,Woman
24,823759,DepthScenes,duration_manipulation_targetAtFixation,jsons/v1_VE250_randls_0.json,http://54.235.29.9/FacialAge/BNav_EC2/DepthDuration/v2_depth_duration_MTurk/v2_DepthDuration_HTML.html#325,325,1366,768,1366,768,8-30-2022,9-53-13,25,depth_duration_stimuli/002209_2014-06-28_18-36-10_260595134347_rgbf000051-resize_1/002209_2014-06-28_18-36-10_260595134347_rgbf000051-resize_1-target.png,250,2.057,0,55162,252,feet,jsons/v1_VE250_randls_0.json,1318423,1440038,29,Woman
25,823759,DepthScenes,duration_manipulation_targetAtFixation,jsons/v1_VE250_randls_0.json,http://54.235.29.9/FacialAge/BNav_EC2/DepthDuration/v2_depth_duration_MTurk/v2_DepthDuration_HTML.html#325,325,1366,768,1366,768,8-30-2022,9-53-13,26,depth_duration_stimuli/001029_2014-06-08_13-17-57_260595134347_rgbf000065-resize_1/001029_2014-06-08_13-17-57_260595134347_rgbf000065-resize_1-target.png,250,3.0835,0,4593,283,feet,jsons/v1_VE250_randls_0.json,1318423,1440038,29,Woman
26,823759,DepthScenes,duration_manipulation_targetAtFixation,jsons/v1_VE250_randls_0.json,http://54.235.29.9/FacialAge/BNav_EC2/DepthDuration/v2_depth_duration_MTurk/v2_DepthDuration_HTML.html#325,325,1366,768,1366,768,8-30-2022,9-53-13,27,depth_duration_stimuli/000677_2014-06-08_23-10-32_260595134347_rgbf000158-resize_6/000677_2014-06-08_23-10-32_260595134347_rgbf000158-resize_6-target.png,250,3.556,0,3286,250,feet,jsons/v1_VE250_randls_0.json,1318423,1440038,29,Woman
27,823759,DepthScenes,duration_manipulation_targetAtFixation,jsons/v1_VE250_randls_0.json,http://54.235.29.9/FacialAge/BNav_EC2/DepthDuration/v2_depth_duration_MTurk/v2_DepthDuration_HTML.html#325,325,1366,768,1366,768,8-30-2022,9-53-13,28,depth_duration_stimuli/002663_2014-06-13_15-50-26_094959634447_rgbf000075-resize_1/002663_2014-06-13_15-50-26_094959634447_rgbf000075-resize_1-target.png,250,4.7495,0,4787,250,feet,jsons/v1_VE250_randls_0.json,1318423,1440038,29,Woman
28,823759,DepthScenes,duration_manipulation_targetAtFixation,jsons/v1_VE250_randls_0.json,http://54.235.29.9/FacialAge/BNav_EC2/DepthDuration/v2_depth_duration_MTurk/v2_DepthDuration_HTML.html#325,325,1366,768,1366,768,8-30-2022,9-53-13,29,depth_duration_stimuli/000409_2014-06-04_19-23-33_260595134347_rgbf000067-resize_0/000409_2014-06-04_19-23-33_260595134347_rgbf000067-resize_0-target.png,250,3.7335,0,2094,249,feet,jsons/v1_VE250_randls_0.json,1318423,1440038,29,Woman
29,823759,DepthScenes,duration_manipulation_targetAtFixation,jsons/v1_VE250_randls_0.json,http://54.235.29.9/FacialAge/BNav_EC2/DepthDuration/v2_depth_duration_MTurk/v2_DepthDuration_HTML.html#325,325,1366,768,1366,768,8-30-2022,9-53-13,30,depth_duration_stimuli/000375_2014-06-08_11-17-29_260595134347_rgbf000133-resize_2/000375_2014-06-08_11-17-29_260595134347_rgbf000133-resize-original.jpg,250,4.718,0,1834,253,feet,jsons/v1_VE250_randls_0.json,1318423,1440038,29,Woman
30,823759,DepthScenes,duration_manipulation_targetAtFixation,jsons/v1_VE250_randls_0.json,http://54.235.29.9/FacialAge/BNav_EC2/DepthDuration/v2_depth_duration_MTurk/v2_DepthDuration_HTML.html#325,325,1366,768,1366,768,8-30-2022,9-53-13,31,depth_duration_stimuli/001806_2014-06-26_20-50-20_260595134347_rgbf000091-resize_1/001806_2014-06-26_20-50-20_260595134347_rgbf000091-resize_1-target.png,250,2.7305,5,5353,246,feet,jsons/v1_VE250_randls_0.json,1318423,1440038,29,Woman
31,823759,DepthScenes,duration_manipulation_targetAtFixation,jsons/v1_VE250_randls_0.json,http://54.235.29.9/FacialAge/BNav_EC2/DepthDuration/v2_depth_duration_MTurk/v2_DepthDuration_HTML.html#325,325,1366,768,1366,768,8-30-2022,9-53-13,32,depth_duration_stimuli/001617_2014-06-20_11-35-32_260595134347_rgbf000066-resize_1/001617_2014-06-20_11-35-32_260595134347_rgbf000066-resize_1-target.png,250,3.7910000000000004,0,2310,244,feet,jsons/v1_VE250_randls_0.json,1318423,1440038,29,Woman
32,823759,DepthScenes,duration_manipulation_targetAtFixation,jsons/v1_VE250_randls_0.json,http://54.235.29.9/FacialAge/BNav_EC2/DepthDuration/v2_depth_duration_MTurk/v2_DepthDuration_HTML.html#325,325,1366,768,1366,768,8-30-2022,9-53-13,33,depth_duration_stimuli/002272_2014-06-28_18-53-56_260595134347_rgbf000067-resize_2/002272_2014-06-28_18-53-56_260595134347_rgbf000067-resize_2-target.png,250,1.138,3,8384,250,feet,jsons/v1_VE250_randls_0.json,1318423,1440038,29,Woman
33,823759,DepthScenes,duration_manipulation_targetAtFixation,jsons/v1_VE250_randls_0.json,http://54.235.29.9/FacialAge/BNav_EC2/DepthDuration/v2_depth_duration_MTurk/v2_DepthDuration_HTML.html#325,325,1366,768,1366,768,8-30-2022,9-53-13,34,depth_duration_stimuli/001571_2014-06-20_17-21-32_260595134347_rgbf000089-resize_1/001571_2014-06-20_17-21-32_260595134347_rgbf000089-resize_1-target.png,250,1.86,5,3558,246,feet,jsons/v1_VE250_randls_0.json,1318423,1440038,29,Woman
34,823759,DepthScenes,duration_manipulation_targetAtFixation,jsons/v1_VE250_randls_0.json,http://54.235.29.9/FacialAge/BNav_EC2/DepthDuration/v2_depth_duration_MTurk/v2_DepthDuration_HTML.html#325,325,1366,768,1366,768,8-30-2022,9-53-13,35,depth_duration_stimuli/001056_2014-06-08_18-46-44_260595134347_rgbf000068-resize_0/001056_2014-06-08_18-46-44_260595134347_rgbf000068-resize_0-target.png,250,2.6625,10,8949,251,feet,jsons/v1_VE250_randls_0.json,1318423,1440038,29,Woman
35,823759,DepthScenes,duration_manipulation_targetAtFixation,jsons/v1_VE250_randls_0.json,http://54.235.29.9/FacialAge/BNav_EC2/DepthDuration/v2_depth_duration_MTurk/v2_DepthDuration_HTML.html#325,325,1366,768,1366,768,8-30-2022,9-53-13,36,depth_duration_stimuli/002199_2014-06-28_18-33-56_260595134347_rgbf000074-resize_0/002199_2014-06-28_18-33-56_260595134347_rgbf000074-resize_0-target.png,250,1.996,0,161954,249,feet,jsons/v1_VE250_randls_0.json,1318423,1440038,29,Woman
36,823759,DepthScenes,duration_manipulation_targetAtFixation,jsons/v1_VE250_randls_0.json,http://54.235.29.9/FacialAge/BNav_EC2/DepthDuration/v2_depth_duration_MTurk/v2_DepthDuration_HTML.html#325,325,1366,768,1366,768,8-30-2022,9-53-13,37,depth_duration_stimuli/000682_2014-06-08_23-14-58_260595134347_rgbf000041-resize_5/000682_2014-06-08_23-14-58_260595134347_rgbf000041-resize_5-target.png,250,2.7239999999999998,0,8906,249,feet,jsons/v1_VE250_randls_0.json,1318423,1440038,29,Woman
37,823759,DepthScenes,duration_manipulation_targetAtFixation,jsons/v1_VE250_randls_0.json,http://54.235.29.9/FacialAge/BNav_EC2/DepthDuration/v2_depth_duration_MTurk/v2_DepthDuration_HTML.html#325,325,1366,768,1366,768,8-30-2022,9-53-13,38,depth_duration_stimuli/001650_2014-06-20_12-09-00_260595134347_rgbf000087-resize_3/001650_2014-06-20_12-09-00_260595134347_rgbf000087-resize_3-target.png,250,1.9505,0,6436,249,feet,jsons/v1_VE250_randls_0.json,1318423,1440038,29,Woman
38,823759,DepthScenes,duration_manipulation_targetAtFixation,jsons/v1_VE250_randls_0.json,http://54.235.29.9/FacialAge/BNav_EC2/DepthDuration/v2_depth_duration_MTurk/v2_DepthDuration_HTML.html#325,325,1366,768,1366,768,8-30-2022,9-53-13,39,depth_duration_stimuli/000878_2014-06-08_22-52-45_260595134347_rgbf000045-resize_2/000878_2014-06-08_22-52-45_260595134347_rgbf000045-resize_2-target.png,250,2.092,0,29864,241,feet,jsons/v1_VE250_randls_0.json,1318423,1440038,29,Woman
39,823759,DepthScenes,duration_manipulation_targetAtFixation,jsons/v1_VE250_randls_0.json,http://54.235.29.9/FacialAge/BNav_EC2/DepthDuration/v2_depth_duration_MTurk/v2_DepthDuration_HTML.html#325,325,1366,625,1366,768,8-30-2022,9-53-13,40,depth_duration_stimuli/002953_2014-06-08_17-32-18_094959634447_rgbf000059-resize_5/002953_2014-06-08_17-32-18_094959634447_rgbf000059-resize_5-target.png,250,1.551,0,27605,249,feet,jsons/v1_VE250_randls_0.json,1318423,1440038,29,Woman
40,823759,DepthScenes,duration_manipulation_targetAtFixation,jsons/v1_VE250_randls_0.json,http://54.235.29.9/FacialAge/BNav_EC2/DepthDuration/v2_depth_duration_MTurk/v2_DepthDuration_HTML.html#325,325,1366,625,1366,768,8-30-2022,9-53-13,41,depth_duration_stimuli/001417_2014-06-19_16-25-36_260595134347_rgbf000115-resize_5/001417_2014-06-19_16-25-36_260595134347_rgbf000115-resize_5-target.png,250,4.6255,0,13140,251,feet,jsons/v1_VE250_randls_0.json,1318423,1440038,29,Woman
41,823759,DepthScenes,duration_manipulation_targetAtFixation,jsons/v1_VE250_randls_0.json,http://54.235.29.9/FacialAge/BNav_EC2/DepthDuration/v2_depth_duration_MTurk/v2_DepthDuration_HTML.html#325,325,1366,625,1366,768,8-30-2022,9-53-13,42,depth_duration_stimuli/003081_2014-06-15_15-19-16_094959634447_rgbf000150-resize_1/003081_2014-06-15_15-19-16_094959634447_rgbf000150-resize_1-target.png,250,3.9125,0,3564,252,feet,jsons/v1_VE250_randls_0.json,1318423,1440038,29,Woman
42,823759,DepthScenes,duration_manipulation_targetAtFixation,jsons/v1_VE250_randls_0.json,http://54.235.29.9/FacialAge/BNav_EC2/DepthDuration/v2_depth_duration_MTurk/v2_DepthDuration_HTML.html#325,325,1366,625,1366,768,8-30-2022,9-53-13,43,depth_duration_stimuli/001167_2014-06-17_15-38-07_260595134347_rgbf000108-resize_0/001167_2014-06-17_15-38-07_260595134347_rgbf000108-resize_0-target.png,250,1.8505,0,8851,248,feet,jsons/v1_VE250_randls_0.json,1318423,1440038,29,Woman
43,823759,DepthScenes,duration_manipulation_targetAtFixation,jsons/v1_VE250_randls_0.json,http://54.235.29.9/FacialAge/BNav_EC2/DepthDuration/v2_depth_duration_MTurk/v2_DepthDuration_HTML.html#325,325,1366,625,1366,768,8-30-2022,9-53-13,44,depth_duration_stimuli/003587_2014-05-23_16-48-02_094959634447_rgbf002384-resize_2/003587_2014-05-23_16-48-02_094959634447_rgbf002384-resize_2-target.png,250,1.357,0,12041,250,feet,jsons/v1_VE250_randls_0.json,1318423,1440038,29,Woman
44,823759,DepthScenes,duration_manipulation_targetAtFixation,jsons/v1_VE250_randls_0.json,http://54.235.29.9/FacialAge/BNav_EC2/DepthDuration/v2_depth_duration_MTurk/v2_DepthDuration_HTML.html#325,325,1366,625,1366,768,8-30-2022,9-53-13,45,depth_duration_stimuli/000787_2014-06-08_22-33-53_260595134347_rgbf000175-resize_1/000787_2014-06-08_22-33-53_260595134347_rgbf000175-resize-original.jpg,250,4.784,0,23012,254,feet,jsons/v1_VE250_randls_0.json,1318423,1440038,29,Woman
45,823759,DepthScenes,duration_manipulation_targetAtFixation,jsons/v1_VE250_randls_0.json,http://54.235.29.9/FacialAge/BNav_EC2/DepthDuration/v2_depth_duration_MTurk/v2_DepthDuration_HTML.html#325,325,1366,625,1366,768,8-30-2022,9-53-13,46,depth_duration_stimuli/002375_2014-06-28_20-13-44_260595134347_rgbf000032-resize_1/002375_2014-06-28_20-13-44_260595134347_rgbf000032-resize_1-target.png,250,4.0175,0,5858,250,feet,jsons/v1_VE250_randls_0.json,1318423,1440038,29,Woman
46,823759,DepthScenes,duration_manipulation_targetAtFixation,jsons/v1_VE250_randls_0.json,http://54.235.29.9/FacialAge/BNav_EC2/DepthDuration/v2_depth_duration_MTurk/v2_DepthDuration_HTML.html#325,325,1366,625,1366,768,8-30-2022,9-53-13,47,depth_duration_stimuli/002657_2014-06-13_15-29-54_094959634447_rgbf000150-resize_1/002657_2014-06-13_15-29-54_094959634447_rgbf000150-resize_1-target.png,250,4.919,0,9811,248,feet,jsons/v1_VE250_randls_0.json,1318423,1440038,29,Woman
47,823759,DepthScenes,duration_manipulation_targetAtFixation,jsons/v1_VE250_randls_0.json,http://54.235.29.9/FacialAge/BNav_EC2/DepthDuration/v2_depth_duration_MTurk/v2_DepthDuration_HTML.html#325,325,1366,625,1366,768,8-30-2022,9-53-13,48,depth_duration_stimuli/000009_2014-05-26_14-32-05_260595134347_rgbf000034-resize_3/000009_2014-05-26_14-32-05_260595134347_rgbf000034-resize_3-target.png,250,3.8715,0,13149,247,feet,jsons/v1_VE250_randls_0.json,1318423,1440038,29,Woman
48,823759,DepthScenes,duration_manipulation_targetAtFixation,jsons/v1_VE250_randls_0.json,http://54.235.29.9/FacialAge/BNav_EC2/DepthDuration/v2_depth_duration_MTurk/v2_DepthDuration_HTML.html#325,325,1366,625,1366,768,8-30-2022,9-53-13,49,depth_duration_stimuli/001828_2014-06-26_21-40-03_260595134347_rgbf000024-resize_0/001828_2014-06-26_21-40-03_260595134347_rgbf000024-resize_0-target.png,250,4.8260000000000005,0,2511,250,feet,jsons/v1_VE250_randls_0.json,1318423,1440038,29,Woman
49,823759,DepthScenes,duration_manipulation_targetAtFixation,jsons/v1_VE250_randls_0.json,http://54.235.29.9/FacialAge/BNav_EC2/DepthDuration/v2_depth_duration_MTurk/v2_DepthDuration_HTML.html#325,325,1366,625,1366,768,8-30-2022,9-53-13,50,depth_duration_stimuli/000368_2014-06-09_15-53-01_260595134347_rgbf000155-resize_2/000368_2014-06-09_15-53-01_260595134347_rgbf000155-resize_2-target.png,250,2.4859999999999998,5,4885,251,feet,jsons/v1_VE250_randls_0.json,1318423,1440038,29,Woman
50,823759,DepthScenes,duration_manipulation_targetAtFixation,jsons/v1_VE250_randls_0.json,http://54.235.29.9/FacialAge/BNav_EC2/DepthDuration/v2_depth_duration_MTurk/v2_DepthDuration_HTML.html#325,325,1366,625,1366,768,8-30-2022,9-53-13,51,depth_duration_stimuli/002678_2014-06-13_16-15-32_094959634447_rgbf000151-resize_6/002678_2014-06-13_16-15-32_094959634447_rgbf000151-resize_6-target.png,250,2.1830000000000003,0,2402,277,feet,jsons/v1_VE250_randls_0.json,1318423,1440038,29,Woman
51,823759,DepthScenes,duration_manipulation_targetAtFixation,jsons/v1_VE250_randls_0.json,http://54.235.29.9/FacialAge/BNav_EC2/DepthDuration/v2_depth_duration_MTurk/v2_DepthDuration_HTML.html#325,325,1366,625,1366,768,8-30-2022,9-53-13,52,depth_duration_stimuli/002630_2014-06-24_14-47-50_094959634447_rgbf000055-resize_1/002630_2014-06-24_14-47-50_094959634447_rgbf000055-resize_1-target.png,250,3.0095,10,3917,251,feet,jsons/v1_VE250_randls_0.json,1318423,1440038,29,Woman
52,823759,DepthScenes,duration_manipulation_targetAtFixation,jsons/v1_VE250_randls_0.json,http://54.235.29.9/FacialAge/BNav_EC2/DepthDuration/v2_depth_duration_MTurk/v2_DepthDuration_HTML.html#325,325,1366,625,1366,768,8-30-2022,9-53-13,53,depth_duration_stimuli/002758_2014-06-22_19-11-20_094959634447_rgbf000128-resize_1/002758_2014-06-22_19-11-20_094959634447_rgbf000128-resize_1-target.png,250,2.555,10,2667,250,feet,jsons/v1_VE250_randls_0.json,1318423,1440038,29,Woman
53,823759,DepthScenes,duration_manipulation_targetAtFixation,jsons/v1_VE250_randls_0.json,http://54.235.29.9/FacialAge/BNav_EC2/DepthDuration/v2_depth_duration_MTurk/v2_DepthDuration_HTML.html#325,325,1366,625,1366,768,8-30-2022,9-53-13,54,depth_duration_stimuli/002748_2014-06-22_19-07-22_094959634447_rgbf000078-resize_1/002748_2014-06-22_19-07-22_094959634447_rgbf000078-resize_1-target.png,250,4.6705,10,3774,252,feet,jsons/v1_VE250_randls_0.json,1318423,1440038,29,Woman
54,823759,DepthScenes,duration_manipulation_targetAtFixation,jsons/v1_VE250_randls_0.json,http://54.235.29.9/FacialAge/BNav_EC2/DepthDuration/v2_depth_duration_MTurk/v2_DepthDuration_HTML.html#325,325,1366,625,1366,768,8-30-2022,9-53-13,55,depth_duration_stimuli/002995_2014-06-15_12-31-26_094959634447_rgbf000150-resize_1/002995_2014-06-15_12-31-26_094959634447_rgbf000150-resize_1-target.png,250,3.8360000000000003,10,3040,247,feet,jsons/v1_VE250_randls_0.json,1318423,1440038,29,Woman
55,823759,DepthScenes,duration_manipulation_targetAtFixation,jsons/v1_VE250_randls_0.json,http://54.235.29.9/FacialAge/BNav_EC2/DepthDuration/v2_depth_duration_MTurk/v2_DepthDuration_HTML.html#325,325,1366,625,1366,768,8-30-2022,9-53-13,56,depth_duration_stimuli/001808_2014-06-26_20-50-58_260595134347_rgbf000029-resize_1/001808_2014-06-26_20-50-58_260595134347_rgbf000029-resize_1-target.png,250,4.249,0,8981,251,feet,jsons/v1_VE250_randls_0.json,1318423,1440038,29,Woman
56,823759,DepthScenes,duration_manipulation_targetAtFixation,jsons/v1_VE250_randls_0.json,http://54.235.29.9/FacialAge/BNav_EC2/DepthDuration/v2_depth_duration_MTurk/v2_DepthDuration_HTML.html#325,325,1366,625,1366,768,8-30-2022,9-53-13,57,depth_duration_stimuli/001815_2014-06-26_20-52-55_260595134347_rgbf000020-resize_0/001815_2014-06-26_20-52-55_260595134347_rgbf000020-resize_0-target.png,250,3.3865,5,4024,252,feet,jsons/v1_VE250_randls_0.json,1318423,1440038,29,Woman
57,823759,DepthScenes,duration_manipulation_targetAtFixation,jsons/v1_VE250_randls_0.json,http://54.235.29.9/FacialAge/BNav_EC2/DepthDuration/v2_depth_duration_MTurk/v2_DepthDuration_HTML.html#325,325,1366,625,1366,768,8-30-2022,9-53-13,58,depth_duration_stimuli/001164_2014-06-17_15-35-46_260595134347_rgbf000085-resize_3/001164_2014-06-17_15-35-46_260595134347_rgbf000085-resize_3-target.png,250,2.354,10,3578,250,feet,jsons/v1_VE250_randls_0.json,1318423,1440038,29,Woman
58,823759,DepthScenes,duration_manipulation_targetAtFixation,jsons/v1_VE250_randls_0.json,http://54.235.29.9/FacialAge/BNav_EC2/DepthDuration/v2_depth_duration_MTurk/v2_DepthDuration_HTML.html#325,325,1366,625,1366,768,8-30-2022,9-53-13,59,depth_duration_stimuli/001136_2014-06-17_15-19-41_260595134347_rgbf000076-resize_3/001136_2014-06-17_15-19-41_260595134347_rgbf000076-resize_3-target.png,250,1.8655,10,4130,251,feet,jsons/v1_VE250_randls_0.json,1318423,1440038,29,Woman
59,823759,DepthScenes,duration_manipulation_targetAtFixation,jsons/v1_VE250_randls_0.json,http://54.235.29.9/FacialAge/BNav_EC2/DepthDuration/v2_depth_duration_MTurk/v2_DepthDuration_HTML.html#325,325,1366,625,1366,768,8-30-2022,9-53-13,60,depth_duration_stimuli/000506_2014-06-08_23-21-00_260595134347_rgbf000070-resize_7/000506_2014-06-08_23-21-00_260595134347_rgbf000070-resize_7-target.png,250,4.0585,5,3963,251,feet,jsons/v1_VE250_randls_0.json,1318423,1440038,29,Woman
60,823759,DepthScenes,duration_manipulation_targetAtFixation,jsons/v1_VE250_randls_0.json,http://54.235.29.9/FacialAge/BNav_EC2/DepthDuration/v2_depth_duration_MTurk/v2_DepthDuration_HTML.html#325,325,1366,625,1366,768,8-30-2022,9-53-13,61,depth_duration_stimuli/003079_2014-06-15_15-18-20_094959634447_rgbf000152-resize_8/003079_2014-06-15_15-18-20_094959634447_rgbf000152-resize_8-target.png,250,2.8775,5,3573,234,feet,jsons/v1_VE250_randls_0.json,1318423,1440038,29,Woman
61,823759,DepthScenes,duration_manipulation_targetAtFixation,jsons/v1_VE250_randls_0.json,http://54.235.29.9/FacialAge/BNav_EC2/DepthDuration/v2_depth_duration_MTurk/v2_DepthDuration_HTML.html#325,325,1366,625,1366,768,8-30-2022,9-53-13,62,depth_duration_stimuli/000739_2014-06-08_18-45-58_260595134347_rgbf000068-resize_1/000739_2014-06-08_18-45-58_260595134347_rgbf000068-resize_1-target.png,250,3.534,10,7620,250,feet,jsons/v1_VE250_randls_0.json,1318423,1440038,29,Woman
62,823759,DepthScenes,duration_manipulation_targetAtFixation,jsons/v1_VE250_randls_0.json,http://54.235.29.9/FacialAge/BNav_EC2/DepthDuration/v2_depth_duration_MTurk/v2_DepthDuration_HTML.html#325,325,1366,625,1366,768,8-30-2022,9-53-13,63,depth_duration_stimuli/000734_2014-06-08_17-39-11_260595134347_rgbf000128-resize_2/000734_2014-06-08_17-39-11_260595134347_rgbf000128-resize_2-target.png,250,4.098,10,5698,250,feet,jsons/v1_VE250_randls_0.json,1318423,1440038,29,Woman
63,823759,DepthScenes,duration_manipulation_targetAtFixation,jsons/v1_VE250_randls_0.json,http://54.235.29.9/FacialAge/BNav_EC2/DepthDuration/v2_depth_duration_MTurk/v2_DepthDuration_HTML.html#325,325,1366,625,1366,768,8-30-2022,9-53-13,64,depth_duration_stimuli/001555_2014-06-20_17-12-10_260595134347_rgbf000065-resize_4/001555_2014-06-20_17-12-10_260595134347_rgbf000065-resize_4-target.png,250,1.633,10,10011,244,feet,jsons/v1_VE250_randls_0.json,1318423,1440038,29,Woman
64,823759,DepthScenes,duration_manipulation_targetAtFixation,jsons/v1_VE250_randls_0.json,http://54.235.29.9/FacialAge/BNav_EC2/DepthDuration/v2_depth_duration_MTurk/v2_DepthDuration_HTML.html#325,325,1366,625,1366,768,8-30-2022,9-53-13,65,depth_duration_stimuli/000103_2014-05-14_22-01-17_260595134347_rgbf000152-resize_5/000103_2014-05-14_22-01-17_260595134347_rgbf000152-resize_5-target.png,250,1.993,0,3988,248,feet,jsons/v1_VE250_randls_0.json,1318423,1440038,29,Woman
65,823759,DepthScenes,duration_manipulation_targetAtFixation,jsons/v1_VE250_randls_0.json,http://54.235.29.9/FacialAge/BNav_EC2/DepthDuration/v2_depth_duration_MTurk/v2_DepthDuration_HTML.html#325,325,1366,625,1366,768,8-30-2022,9-53-13,66,depth_duration_stimuli/001222_2014-06-17_16-24-06_260595134347_rgbf000073-resize_0/001222_2014-06-17_16-24-06_260595134347_rgbf000073-resize-original.jpg,250,1.4385,0,6528,247,feet,jsons/v1_VE250_randls_0.json,1318423,1440038,29,Woman
66,823759,DepthScenes,duration_manipulation_targetAtFixation,jsons/v1_VE250_randls_0.json,http://54.235.29.9/FacialAge/BNav_EC2/DepthDuration/v2_depth_duration_MTurk/v2_DepthDuration_HTML.html#325,325,1366,625,1366,768,8-30-2022,9-53-13,67,depth_duration_stimuli/000642_2014-06-08_16-59-25_260595134347_rgbf000098-resize_2/000642_2014-06-08_16-59-25_260595134347_rgbf000098-resize_2-target.png,250,2.8815,5,5629,252,feet,jsons/v1_VE250_randls_0.json,1318423,1440038,29,Woman
67,823759,DepthScenes,duration_manipulation_targetAtFixation,jsons/v1_VE250_randls_0.json,http://54.235.29.9/FacialAge/BNav_EC2/DepthDuration/v2_depth_duration_MTurk/v2_DepthDuration_HTML.html#325,325,1366,625,1366,768,8-30-2022,9-53-13,68,depth_duration_stimuli/002425_2014-06-28_20-27-29_260595134347_rgbf000031-resize_8/002425_2014-06-28_20-27-29_260595134347_rgbf000031-resize_8-target.png,250,3.8960000000000004,9,2722,253,feet,jsons/v1_VE250_randls_0.json,1318423,1440038,29,Woman
68,823759,DepthScenes,duration_manipulation_targetAtFixation,jsons/v1_VE250_randls_0.json,http://54.235.29.9/FacialAge/BNav_EC2/DepthDuration/v2_depth_duration_MTurk/v2_DepthDuration_HTML.html#325,325,1366,625,1366,768,8-30-2022,9-53-13,69,depth_duration_stimuli/001570_2014-06-20_17-21-09_260595134347_rgbf000135-resize_4/001570_2014-06-20_17-21-09_260595134347_rgbf000135-resize_4-target.png,250,4.467,12,6685,253,feet,jsons/v1_VE250_randls_0.json,1318423,1440038,29,Woman
69,823759,DepthScenes,duration_manipulation_targetAtFixation,jsons/v1_VE250_randls_0.json,http://54.235.29.9/FacialAge/BNav_EC2/DepthDuration/v2_depth_duration_MTurk/v2_DepthDuration_HTML.html#325,325,1366,625,1366,768,8-30-2022,9-53-13,70,depth_duration_stimuli/001392_2014-06-19_16-07-59_260595134347_rgbf000046-resize_1/001392_2014-06-19_16-07-59_260595134347_rgbf000046-resize_1-target.png,250,4.135,5,3068,285,feet,jsons/v1_VE250_randls_0.json,1318423,1440038,29,Woman
70,823759,DepthScenes,duration_manipulation_targetAtFixation,jsons/v1_VE250_randls_0.json,http://54.235.29.9/FacialAge/BNav_EC2/DepthDuration/v2_depth_duration_MTurk/v2_DepthDuration_HTML.html#325,325,1366,625,1366,768,8-30-2022,9-53-13,71,depth_duration_stimuli/002153_2014-06-25_21-27-18_260595134347_rgbf000038-resize_5/002153_2014-06-25_21-27-18_260595134347_rgbf000038-resize_5-target.png,250,2.505,5,7698,249,feet,jsons/v1_VE250_randls_0.json,1318423,1440038,29,Woman
71,823759,DepthScenes,duration_manipulation_targetAtFixation,jsons/v1_VE250_randls_0.json,http://54.235.29.9/FacialAge/BNav_EC2/DepthDuration/v2_depth_duration_MTurk/v2_DepthDuration_HTML.html#325,325,1366,625,1366,768,8-30-2022,9-53-13,72,depth_duration_stimuli/002660_2014-06-13_15-44-18_094959634447_rgbf001878-resize_2/002660_2014-06-13_15-44-18_094959634447_rgbf001878-resize_2-target.png,250,3.576,5,5796,250,feet,jsons/v1_VE250_randls_0.json,1318423,1440038,29,Woman
72,823759,DepthScenes,duration_manipulation_targetAtFixation,jsons/v1_VE250_randls_0.json,http://54.235.29.9/FacialAge/BNav_EC2/DepthDuration/v2_depth_duration_MTurk/v2_DepthDuration_HTML.html#325,325,1366,625,1366,768,8-30-2022,9-53-13,73,depth_duration_stimuli/000929_2014-06-09_16-33-19_260595134347_rgbf000139-resize_0/000929_2014-06-09_16-33-19_260595134347_rgbf000139-resize_0-target.png,250,2.8680000000000003,5,12094,249,feet,jsons/v1_VE250_randls_0.json,1318423,1440038,29,Woman
73,823759,DepthScenes,duration_manipulation_targetAtFixation,jsons/v1_VE250_randls_0.json,http://54.235.29.9/FacialAge/BNav_EC2/DepthDuration/v2_depth_duration_MTurk/v2_DepthDuration_HTML.html#325,325,1366,625,1366,768,8-30-2022,9-53-13,74,depth_duration_stimuli/000457_2014-06-08_16-52-43_260595134347_rgbf000199-resize_1/000457_2014-06-08_16-52-43_260595134347_rgbf000199-resize_1-target.png,250,3.6489999999999996,8,2776,249,feet,jsons/v1_VE250_randls_0.json,1318423,1440038,29,Woman
74,823759,DepthScenes,duration_manipulation_targetAtFixation,jsons/v1_VE250_randls_0.json,http://54.235.29.9/FacialAge/BNav_EC2/DepthDuration/v2_depth_duration_MTurk/v2_DepthDuration_HTML.html#325,325,1366,625,1366,768,8-30-2022,9-53-13,75,depth_duration_stimuli/000447_2014-06-08_16-15-46_260595134347_rgbf000130-resize_1/000447_2014-06-08_16-15-46_260595134347_rgbf000130-resize_1-target.png,250,4.479,15,12062,251,feet,jsons/v1_VE250_randls_0.json,1318423,1440038,29,Woman
75,823759,DepthScenes,duration_manipulation_targetAtFixation,jsons/v1_VE250_randls_0.json,http://54.235.29.9/FacialAge/BNav_EC2/DepthDuration/v2_depth_duration_MTurk/v2_DepthDuration_HTML.html#325,325,1366,625,1366,768,8-30-2022,9-53-13,76,depth_duration_stimuli/001447_2014-06-19_17-00-32_260595134347_rgbf000082-resize_5/001447_2014-06-19_17-00-32_260595134347_rgbf000082-resize_5-target.png,250,4.13775,8,2655,247,feet,jsons/v1_VE250_randls_0.json,1318423,1440038,29,Woman
76,823759,DepthScenes,duration_manipulation_targetAtFixation,jsons/v1_VE250_randls_0.json,http://54.235.29.9/FacialAge/BNav_EC2/DepthDuration/v2_depth_duration_MTurk/v2_DepthDuration_HTML.html#325,325,1366,625,1366,768,8-30-2022,9-53-13,77,depth_duration_stimuli/002445_2014-06-28_20-32-16_260595134347_rgbf000029-resize_4/002445_2014-06-28_20-32-16_260595134347_rgbf000029-resize_4-target.png,250,2.5315,5,9406,252,feet,jsons/v1_VE250_randls_0.json,1318423,1440038,29,Woman
77,823759,DepthScenes,duration_manipulation_targetAtFixation,jsons/v1_VE250_randls_0.json,http://54.235.29.9/FacialAge/BNav_EC2/DepthDuration/v2_depth_duration_MTurk/v2_DepthDuration_HTML.html#325,325,1366,625,1366,768,8-30-2022,9-53-13,78,depth_duration_stimuli/000780_2014-06-08_22-28-29_260595134347_rgbf000126-resize_1/000780_2014-06-08_22-28-29_260595134347_rgbf000126-resize_1-target.png,250,3.3825,0,2595,250,feet,jsons/v1_VE250_randls_0.json,1318423,1440038,29,Woman
78,823759,DepthScenes,duration_manipulation_targetAtFixation,jsons/v1_VE250_randls_0.json,http://54.235.29.9/FacialAge/BNav_EC2/DepthDuration/v2_depth_duration_MTurk/v2_DepthDuration_HTML.html#325,325,1366,625,1366,768,8-30-2022,9-53-13,79,depth_duration_stimuli/002549_2014-06-24_13-41-39_094959634447_rgbf000022-resize_3/002549_2014-06-24_13-41-39_094959634447_rgbf000022-resize_3-target.png,250,1.476,0,7411,250,feet,jsons/v1_VE250_randls_0.json,1318423,1440038,29,Woman
79,823759,DepthScenes,duration_manipulation_targetAtFixation,jsons/v1_VE250_randls_0.json,http://54.235.29.9/FacialAge/BNav_EC2/DepthDuration/v2_depth_duration_MTurk/v2_DepthDuration_HTML.html#325,325,1366,625,1366,768,8-30-2022,9-53-13,80,depth_duration_stimuli/002750_2014-06-22_19-08-03_094959634447_rgbf000094-resize_4/002750_2014-06-22_19-08-03_094959634447_rgbf000094-resize_4-target.png,250,2.354,5,3487,249,feet,jsons/v1_VE250_randls_0.json,1318423,1440038,29,Woman
80,823759,DepthScenes,duration_manipulation_targetAtFixation,jsons/v1_VE250_randls_0.json,http://54.235.29.9/FacialAge/BNav_EC2/DepthDuration/v2_depth_duration_MTurk/v2_DepthDuration_HTML.html#325,325,1366,625,1366,768,8-30-2022,9-53-13,81,depth_duration_stimuli/002988_2014-06-15_12-24-20_094959634447_rgbf000150-resize_1/002988_2014-06-15_12-24-20_094959634447_rgbf000150-resize_1-target.png,250,4.7669999999999995,15,11737,252,feet,jsons/v1_VE250_randls_0.json,1318423,1440038,29,Woman
81,823759,DepthScenes,duration_manipulation_targetAtFixation,jsons/v1_VE250_randls_0.json,http://54.235.29.9/FacialAge/BNav_EC2/DepthDuration/v2_depth_duration_MTurk/v2_DepthDuration_HTML.html#325,325,1366,625,1366,768,8-30-2022,9-53-13,82,depth_duration_stimuli/001052_2014-06-08_18-24-54_260595134347_rgbf000130-resize_1/001052_2014-06-08_18-24-54_260595134347_rgbf000130-resize_1-target.png,250,4.1045,0,2641,247,feet,jsons/v1_VE250_randls_0.json,1318423,1440038,29,Woman
82,823759,DepthScenes,duration_manipulation_targetAtFixation,jsons/v1_VE250_randls_0.json,http://54.235.29.9/FacialAge/BNav_EC2/DepthDuration/v2_depth_duration_MTurk/v2_DepthDuration_HTML.html#325,325,1366,625,1366,768,8-30-2022,9-53-13,83,depth_duration_stimuli/002725_2014-06-22_11-47-51_094959634447_rgbf000070-resize_1/002725_2014-06-22_11-47-51_094959634447_rgbf000070-resize_1-target.png,250,2.195,7,12619,257,feet,jsons/v1_VE250_randls_0.json,1318423,1440038,29,Woman
83,823759,DepthScenes,duration_manipulation_targetAtFixation,jsons/v1_VE250_randls_0.json,http://54.235.29.9/FacialAge/BNav_EC2/DepthDuration/v2_depth_duration_MTurk/v2_DepthDuration_HTML.html#325,325,1366,625,1366,768,8-30-2022,9-53-13,84,depth_duration_stimuli/002344_2014-06-28_20-06-29_260595134347_rgbf000030-resize_1/002344_2014-06-28_20-06-29_260595134347_rgbf000030-resize_1-target.png,250,1.5795,5,7747,251,feet,jsons/v1_VE250_randls_0.json,1318423,1440038,29,Woman
84,823759,DepthScenes,duration_manipulation_targetAtFixation,jsons/v1_VE250_randls_0.json,http://54.235.29.9/FacialAge/BNav_EC2/DepthDuration/v2_depth_duration_MTurk/v2_DepthDuration_HTML.html#325,325,1366,625,1366,768,8-30-2022,9-53-13,85,depth_duration_stimuli/002989_2014-06-15_12-25-03_094959634447_rgbf000150-resize_3/002989_2014-06-15_12-25-03_094959634447_rgbf000150-resize_3-target.png,250,4.1975,0,7519,249,feet,jsons/v1_VE250_randls_0.json,1318423,1440038,29,Woman
85,823759,DepthScenes,duration_manipulation_targetAtFixation,jsons/v1_VE250_randls_0.json,http://54.235.29.9/FacialAge/BNav_EC2/DepthDuration/v2_depth_duration_MTurk/v2_DepthDuration_HTML.html#325,325,1366,625,1366,768,8-30-2022,9-53-13,86,depth_duration_stimuli/000866_2014-06-09_20-45-42_260595134347_rgbf000139-resize_1/000866_2014-06-09_20-45-42_260595134347_rgbf000139-resize_1-target.png,250,3.2155,0,2949,252,feet,jsons/v1_VE250_randls_0.json,1318423,1440038,29,Woman
86,823759,DepthScenes,duration_manipulation_targetAtFixation,jsons/v1_VE250_randls_0.json,http://54.235.29.9/FacialAge/BNav_EC2/DepthDuration/v2_depth_duration_MTurk/v2_DepthDuration_HTML.html#325,325,1366,625,1366,768,8-30-2022,9-53-13,87,depth_duration_stimuli/003621_2014-05-23_18-06-08_094959634447_rgbf000101-resize_1/003621_2014-05-23_18-06-08_094959634447_rgbf000101-resize_1-target.png,250,3.9835,10,6518,251,feet,jsons/v1_VE250_randls_0.json,1318423,1440038,29,Woman
87,823759,DepthScenes,duration_manipulation_targetAtFixation,jsons/v1_VE250_randls_0.json,http://54.235.29.9/FacialAge/BNav_EC2/DepthDuration/v2_depth_duration_MTurk/v2_DepthDuration_HTML.html#325,325,1366,625,1366,768,8-30-2022,9-53-13,88,depth_duration_stimuli/001584_2014-06-20_11-07-43_260595134347_rgbf000002-resize_1/001584_2014-06-20_11-07-43_260595134347_rgbf000002-resize_1-target.png,250,3.53,10,3368,249,feet,jsons/v1_VE250_randls_0.json,1318423,1440038,29,Woman
88,823759,DepthScenes,duration_manipulation_targetAtFixation,jsons/v1_VE250_randls_0.json,http://54.235.29.9/FacialAge/BNav_EC2/DepthDuration/v2_depth_duration_MTurk/v2_DepthDuration_HTML.html#325,325,1366,625,1366,768,8-30-2022,9-53-13,89,depth_duration_stimuli/000906_2014-06-08_13-35-43_260595134347_rgbf000155-resize_1/000906_2014-06-08_13-35-43_260595134347_rgbf000155-resize_1-target.png,250,2.8489999999999998,10,5856,250,feet,jsons/v1_VE250_randls_0.json,1318423,1440038,29,Woman
89,823759,DepthScenes,duration_manipulation_targetAtFixation,jsons/v1_VE250_randls_0.json,http://54.235.29.9/FacialAge/BNav_EC2/DepthDuration/v2_depth_duration_MTurk/v2_DepthDuration_HTML.html#325,325,1366,625,1366,768,8-30-2022,9-53-13,90,depth_duration_stimuli/002805_2014-06-22_19-54-03_094959634447_rgbf000079-resize_1/002805_2014-06-22_19-54-03_094959634447_rgbf000079-resize_1-target.png,250,3.1439999999999997,10,2868,250,feet,jsons/v1_VE250_randls_0.json,1318423,1440038,29,Woman
90,823759,DepthScenes,duration_manipulation_targetAtFixation,jsons/v1_VE250_randls_0.json,http://54.235.29.9/FacialAge/BNav_EC2/DepthDuration/v2_depth_duration_MTurk/v2_DepthDuration_HTML.html#325,325,1366,625,1366,768,8-30-2022,9-53-13,91,depth_duration_stimuli/001810_2014-06-26_20-51-35_260595134347_rgbf000040-resize_3/001810_2014-06-26_20-51-35_260595134347_rgbf000040-resize_3-target.png,250,2.2525,5,6045,249,feet,jsons/v1_VE250_randls_0.json,1318423,1440038,29,Woman
91,823759,DepthScenes,duration_manipulation_targetAtFixation,jsons/v1_VE250_randls_0.json,http://54.235.29.9/FacialAge/BNav_EC2/DepthDuration/v2_depth_duration_MTurk/v2_DepthDuration_HTML.html#325,325,1366,625,1366,768,8-30-2022,9-53-13,92,depth_duration_stimuli/003010_2014-06-15_12-54-35_094959634447_rgbf000112-resize_0/003010_2014-06-15_12-54-35_094959634447_rgbf000112-resize_0-target.png,250,3.1185,10,3069,246,feet,jsons/v1_VE250_randls_0.json,1318423,1440038,29,Woman
92,823759,DepthScenes,duration_manipulation_targetAtFixation,jsons/v1_VE250_randls_0.json,http://54.235.29.9/FacialAge/BNav_EC2/DepthDuration/v2_depth_duration_MTurk/v2_DepthDuration_HTML.html#325,325,1366,625,1366,768,8-30-2022,9-53-13,93,depth_duration_stimuli/000692_2014-06-08_13-09-42_260595134347_rgbf000199-resize_2/000692_2014-06-08_13-09-42_260595134347_rgbf000199-resize_2-target.png,250,3.661,10,5964,249,feet,jsons/v1_VE250_randls_0.json,1318423,1440038,29,Woman
93,823759,DepthScenes,duration_manipulation_targetAtFixation,jsons/v1_VE250_randls_0.json,http://54.235.29.9/FacialAge/BNav_EC2/DepthDuration/v2_depth_duration_MTurk/v2_DepthDuration_HTML.html#325,325,1366,625,1366,768,8-30-2022,9-53-13,94,depth_duration_stimuli/001094_2014-06-15_17-36-00_260595134347_rgbf000205-resize_0/001094_2014-06-15_17-36-00_260595134347_rgbf000205-resize_0-target.png,250,4.2175,10,5317,252,feet,jsons/v1_VE250_randls_0.json,1318423,1440038,29,Woman
94,823759,DepthScenes,duration_manipulation_targetAtFixation,jsons/v1_VE250_randls_0.json,http://54.235.29.9/FacialAge/BNav_EC2/DepthDuration/v2_depth_duration_MTurk/v2_DepthDuration_HTML.html#325,325,1366,625,1366,768,8-30-2022,9-53-13,95,depth_duration_stimuli/002279_2014-06-28_18-55-32_260595134347_rgbf000040-resize_5/002279_2014-06-28_18-55-32_260595134347_rgbf000040-resize_5-target.png,250,1.5043333333333,0,5776,251,feet,jsons/v1_VE250_randls_0.json,1318423,1440038,29,Woman
95,823759,DepthScenes,duration_manipulation_targetAtFixation,jsons/v1_VE250_randls_0.json,http://54.235.29.9/FacialAge/BNav_EC2/DepthDuration/v2_depth_duration_MTurk/v2_DepthDuration_HTML.html#325,325,1366,625,1366,768,8-30-2022,9-53-13,96,depth_duration_stimuli/000635_2014-06-08_16-38-42_260595134347_rgbf000106-resize_1/000635_2014-06-08_16-38-42_260595134347_rgbf000106-resize_1-target.png,250,2.074,0,2152,252,feet,jsons/v1_VE250_randls_0.json,1318423,1440038,29,Woman
96,823759,DepthScenes,duration_manipulation_targetAtFixation,jsons/v1_VE250_randls_0.json,http://54.235.29.9/FacialAge/BNav_EC2/DepthDuration/v2_depth_duration_MTurk/v2_DepthDuration_HTML.html#325,325,1366,625,1366,768,8-30-2022,9-53-13,97,depth_duration_stimuli/001059_2014-06-08_21-53-27_260595134347_rgbf000061-resize_4/001059_2014-06-08_21-53-27_260595134347_rgbf000061-resize_4-target.png,250,2.4185,0,4560,251,feet,jsons/v1_VE250_randls_0.json,1318423,1440038,29,Woman
97,823759,DepthScenes,duration_manipulation_targetAtFixation,jsons/v1_VE250_randls_0.json,http://54.235.29.9/FacialAge/BNav_EC2/DepthDuration/v2_depth_duration_MTurk/v2_DepthDuration_HTML.html#325,325,1366,625,1366,768,8-30-2022,9-53-13,98,depth_duration_stimuli/001032_2014-06-08_13-23-17_260595134347_rgbf000021-resize_3/001032_2014-06-08_13-23-17_260595134347_rgbf000021-resize_3-target.png,250,3.2725,0,4228,255,feet,jsons/v1_VE250_randls_0.json,1318423,1440038,29,Woman
98,823759,DepthScenes,duration_manipulation_targetAtFixation,jsons/v1_VE250_randls_0.json,http://54.235.29.9/FacialAge/BNav_EC2/DepthDuration/v2_depth_duration_MTurk/v2_DepthDuration_HTML.html#325,325,1366,625,1366,768,8-30-2022,9-53-13,99,depth_duration_stimuli/001540_2014-06-20_17-01-05_260595134347_rgbf000086-resize_2/001540_2014-06-20_17-01-05_260595134347_rgbf000086-resize-original.jpg,250,1.459,0,3996,249,feet,jsons/v1_VE250_randls_0.json,1318423,1440038,29,Woman
99,823759,DepthScenes,duration_manipulation_targetAtFixation,jsons/v1_VE250_randls_0.json,http://54.235.29.9/FacialAge/BNav_EC2/DepthDuration/v2_depth_duration_MTurk/v2_DepthDuration_HTML.html#325,325,1366,625,1366,768,8-30-2022,9-53-13,100,depth_duration_stimuli/001244_2014-06-17_16-47-45_260595134347_rgbf000030-resize_4/001244_2014-06-17_16-47-45_260595134347_rgbf000030-resize_4-target.png,250,2.0425,0,10704,247,feet,jsons/v1_VE250_randls_0.json,1318423,1440038,29,Woman
100,823759,DepthScenes,duration_manipulation_targetAtFixation,jsons/v1_VE250_randls_0.json,http://54.235.29.9/FacialAge/BNav_EC2/DepthDuration/v2_depth_duration_MTurk/v2_DepthDuration_HTML.html#325,325,1366,625,1366,768,8-30-2022,9-53-13,101,depth_duration_stimuli/003495_2014-05-21_16-01-51_094959634447_rgbf000100-resize_3/003495_2014-05-21_16-01-51_094959634447_rgbf000100-resize_3-target.png,250,1.6255,10,3371,250,feet,jsons/v1_VE250_randls_0.json,1318423,1440038,29,Woman
101,823759,DepthScenes,duration_manipulation_targetAtFixation,jsons/v1_VE250_randls_0.json,http://54.235.29.9/FacialAge/BNav_EC2/DepthDuration/v2_depth_duration_MTurk/v2_DepthDuration_HTML.html#325,325,1366,625,1366,768,8-30-2022,9-53-13,102,depth_duration_stimuli/002213_2014-06-28_18-37-58_260595134347_rgbf000055-resize_1/002213_2014-06-28_18-37-58_260595134347_rgbf000055-resize_1-target.png,250,3.62,10,6182,252,feet,jsons/v1_VE250_randls_0.json,1318423,1440038,29,Woman
102,823759,DepthScenes,duration_manipulation_targetAtFixation,jsons/v1_VE250_randls_0.json,http://54.235.29.9/FacialAge/BNav_EC2/DepthDuration/v2_depth_duration_MTurk/v2_DepthDuration_HTML.html#325,325,1366,625,1366,768,8-30-2022,9-53-13,103,depth_duration_stimuli/000691_2014-06-08_13-08-50_260595134347_rgbf000132-resize_3/000691_2014-06-08_13-08-50_260595134347_rgbf000132-resize_3-target.png,250,4.1530000000000005,10,2344,265,feet,jsons/v1_VE250_randls_0.json,1318423,1440038,29,Woman
103,823759,DepthScenes,duration_manipulation_targetAtFixation,jsons/v1_VE250_randls_0.json,http://54.235.29.9/FacialAge/BNav_EC2/DepthDuration/v2_depth_duration_MTurk/v2_DepthDuration_HTML.html#325,325,1366,625,1366,768,8-30-2022,9-53-13,104,depth_duration_stimuli/002118_2014-06-25_20-32-08_260595134347_rgbf000078-resize_1/002118_2014-06-25_20-32-08_260595134347_rgbf000078-resize_1-target.png,250,2.6460000000000004,10,5244,249,feet,jsons/v1_VE250_randls_0.json,1318423,1440038,29,Woman
104,823759,DepthScenes,duration_manipulation_targetAtFixation,jsons/v1_VE250_randls_0.json,http://54.235.29.9/FacialAge/BNav_EC2/DepthDuration/v2_depth_duration_MTurk/v2_DepthDuration_HTML.html#325,325,1366,625,1366,768,8-30-2022,9-53-13,105,depth_duration_stimuli/001516_2014-06-20_16-25-09_260595134347_rgbf000076-resize_2/001516_2014-06-20_16-25-09_260595134347_rgbf000076-resize_2-target.png,250,1.7445,5,4584,250,feet,jsons/v1_VE250_randls_0.json,1318423,1440038,29,Woman
105,823759,DepthScenes,duration_manipulation_targetAtFixation,jsons/v1_VE250_randls_0.json,http://54.235.29.9/FacialAge/BNav_EC2/DepthDuration/v2_depth_duration_MTurk/v2_DepthDuration_HTML.html#325,325,1366,625,1366,768,8-30-2022,9-53-13,106,depth_duration_stimuli/000469_2014-06-09_19-42-10_260595134347_rgbf000081-resize_1/000469_2014-06-09_19-42-10_260595134347_rgbf000081-resize_1-target.png,250,1.652,10,6820,242,feet,jsons/v1_VE250_randls_0.json,1318423,1440038,29,Woman
106,823759,DepthScenes,duration_manipulation_targetAtFixation,jsons/v1_VE250_randls_0.json,http://54.235.29.9/FacialAge/BNav_EC2/DepthDuration/v2_depth_duration_MTurk/v2_DepthDuration_HTML.html#325,325,1366,625,1366,768,8-30-2022,9-53-13,107,depth_duration_stimuli/000483_2014-06-09_20-41-45_260595134347_rgbf000116-resize_4/000483_2014-06-09_20-41-45_260595134347_rgbf000116-resize_4-target.png,250,1.337,0,2233,251,feet,jsons/v1_VE250_randls_0.json,1318423,1440038,29,Woman
107,823759,DepthScenes,duration_manipulation_targetAtFixation,jsons/v1_VE250_randls_0.json,http://54.235.29.9/FacialAge/BNav_EC2/DepthDuration/v2_depth_duration_MTurk/v2_DepthDuration_HTML.html#325,325,1366,625,1366,768,8-30-2022,9-53-13,108,depth_duration_stimuli/002057_2014-06-24_21-00-13_260595134347_rgbf000120-resize_1/002057_2014-06-24_21-00-13_260595134347_rgbf000120-resize_1-target.png,250,2.967,10,6608,249,feet,jsons/v1_VE250_randls_0.json,1318423,1440038,29,Woman
108,823759,DepthScenes,duration_manipulation_targetAtFixation,jsons/v1_VE250_randls_0.json,http://54.235.29.9/FacialAge/BNav_EC2/DepthDuration/v2_depth_duration_MTurk/v2_DepthDuration_HTML.html#325,325,1366,625,1366,768,8-30-2022,9-53-13,109,depth_duration_stimuli/000709_2014-06-08_13-51-55_260595134347_rgbf000068-resize_3/000709_2014-06-08_13-51-55_260595134347_rgbf000068-resize_3-target.png,250,1.8030000000000002,20,2677,247,feet,jsons/v1_VE250_randls_0.json,1318423,1440038,29,Woman
109,823759,DepthScenes,duration_manipulation_targetAtFixation,jsons/v1_VE250_randls_0.json,http://54.235.29.9/FacialAge/BNav_EC2/DepthDuration/v2_depth_duration_MTurk/v2_DepthDuration_HTML.html#325,325,1366,625,1366,768,8-30-2022,9-53-13,110,depth_duration_stimuli/002600_2014-06-24_14-27-04_094959634447_rgbf000074-resize_2/002600_2014-06-24_14-27-04_094959634447_rgbf000074-resize_2-target.png,250,2.7575,8,7391,251,feet,jsons/v1_VE250_randls_0.json,1318423,1440038,29,Woman
110,823759,DepthScenes,duration_manipulation_targetAtFixation,jsons/v1_VE250_randls_0.json,http://54.235.29.9/FacialAge/BNav_EC2/DepthDuration/v2_depth_duration_MTurk/v2_DepthDuration_HTML.html#325,325,1366,625,1366,768,8-30-2022,9-53-13,111,depth_duration_stimuli/003228_2014-05-14_13-42-35_094959634447_rgbf000101-resize_1/003228_2014-05-14_13-42-35_094959634447_rgbf000101-resize_1-target.png,250,1.9680000000000002,0,2715,250,feet,jsons/v1_VE250_randls_0.json,1318423,1440038,29,Woman
111,823759,DepthScenes,duration_manipulation_targetAtFixation,jsons/v1_VE250_randls_0.json,http://54.235.29.9/FacialAge/BNav_EC2/DepthDuration/v2_depth_duration_MTurk/v2_DepthDuration_HTML.html#325,325,1366,625,1366,768,8-30-2022,9-53-13,112,depth_duration_stimuli/000414_2014-06-04_19-49-13_260595134347_rgbf000044-resize_0/000414_2014-06-04_19-49-13_260595134347_rgbf000044-resize_0-target.png,250,4.329,0,5771,249,feet,jsons/v1_VE250_randls_0.json,1318423,1440038,29,Woman
112,823759,DepthScenes,duration_manipulation_targetAtFixation,jsons/v1_VE250_randls_0.json,http://54.235.29.9/FacialAge/BNav_EC2/DepthDuration/v2_depth_duration_MTurk/v2_DepthDuration_HTML.html#325,325,1366,625,1366,768,8-30-2022,9-53-13,113,depth_duration_stimuli/003129_2014-05-12_10-48-10_094959634447_rgbf000100-resize_0/003129_2014-05-12_10-48-10_094959634447_rgbf000100-resize_0-target.png,250,4.9305,0,4035,251,feet,jsons/v1_VE250_randls_0.json,1318423,1440038,29,Woman
113,823759,DepthScenes,duration_manipulation_targetAtFixation,jsons/v1_VE250_randls_0.json,http://54.235.29.9/FacialAge/BNav_EC2/DepthDuration/v2_depth_duration_MTurk/v2_DepthDuration_HTML.html#325,325,1366,625,1366,768,8-30-2022,9-53-13,114,depth_duration_stimuli/002043_2014-06-24_20-29-38_260595134347_rgbf000039-resize_4/002043_2014-06-24_20-29-38_260595134347_rgbf000039-resize_4-target.png,250,2.8435,0,4573,251,feet,jsons/v1_VE250_randls_0.json,1318423,1440038,29,Woman
114,823759,DepthScenes,duration_manipulation_targetAtFixation,jsons/v1_VE250_randls_0.json,http://54.235.29.9/FacialAge/BNav_EC2/DepthDuration/v2_depth_duration_MTurk/v2_DepthDuration_HTML.html#325,325,1366,625,1366,768,8-30-2022,9-53-13,115,depth_duration_stimuli/003048_2014-06-15_13-49-43_094959634447_rgbf000150-resize_1/003048_2014-06-15_13-49-43_094959634447_rgbf000150-resize_1-target.png,250,4.0035,0,3098,248,feet,jsons/v1_VE250_randls_0.json,1318423,1440038,29,Woman
115,823759,DepthScenes,duration_manipulation_targetAtFixation,jsons/v1_VE250_randls_0.json,http://54.235.29.9/FacialAge/BNav_EC2/DepthDuration/v2_depth_duration_MTurk/v2_DepthDuration_HTML.html#325,325,1366,625,1366,768,8-30-2022,9-53-13,116,depth_duration_stimuli/001170_2014-06-17_15-43-44_260595134347_rgbf000096-resize_6/001170_2014-06-17_15-43-44_260595134347_rgbf000096-resize-original.jpg,250,1.1909999999999998,0,2748,251,feet,jsons/v1_VE250_randls_0.json,1318423,1440038,29,Woman
116,823759,DepthScenes,duration_manipulation_targetAtFixation,jsons/v1_VE250_randls_0.json,http://54.235.29.9/FacialAge/BNav_EC2/DepthDuration/v2_depth_duration_MTurk/v2_DepthDuration_HTML.html#325,325,1366,625,1366,768,8-30-2022,9-53-13,117,depth_duration_stimuli/002905_2014-06-03_18-04-43_094959634447_rgbf000151-resize_2/002905_2014-06-03_18-04-43_094959634447_rgbf000151-resize_2-target.png,250,2.0295,0,4164,251,feet,jsons/v1_VE250_randls_0.json,1318423,1440038,29,Woman
117,823759,DepthScenes,duration_manipulation_targetAtFixation,jsons/v1_VE250_randls_0.json,http://54.235.29.9/FacialAge/BNav_EC2/DepthDuration/v2_depth_duration_MTurk/v2_DepthDuration_HTML.html#325,325,1366,625,1366,768,8-30-2022,9-53-13,118,depth_duration_stimuli/003423_2014-05-21_10-23-26_094959634447_rgbf002665-resize_2/003423_2014-05-21_10-23-26_094959634447_rgbf002665-resize_2-target.png,250,3.2575,0,2212,256,feet,jsons/v1_VE250_randls_0.json,1318423,1440038,29,Woman
118,823759,DepthScenes,duration_manipulation_targetAtFixation,jsons/v1_VE250_randls_0.json,http://54.235.29.9/FacialAge/BNav_EC2/DepthDuration/v2_depth_duration_MTurk/v2_DepthDuration_HTML.html#325,325,1366,625,1366,768,8-30-2022,9-53-13,119,depth_duration_stimuli/003292_2014-05-14_21-53-49_094959634447_rgbf000100-resize_2/003292_2014-05-14_21-53-49_094959634447_rgbf000100-resize_2-target.png,250,3.4815,0,4506,260,feet,jsons/v1_VE250_randls_0.json,1318423,1440038,29,Woman
119,823759,DepthScenes,duration_manipulation_targetAtFixation,jsons/v1_VE250_randls_0.json,http://54.235.29.9/FacialAge/BNav_EC2/DepthDuration/v2_depth_duration_MTurk/v2_DepthDuration_HTML.html#325,325,1366,625,1366,768,8-30-2022,9-53-13,120,depth_duration_stimuli/002639_2014-06-24_14-51-37_094959634447_rgbf000074-resize_4/002639_2014-06-24_14-51-37_094959634447_rgbf000074-resize_4-target.png,250,4.0375,0,2811,247,feet,jsons/v1_VE250_randls_0.json,1318423,1440038,29,Woman
120,823759,DepthScenes,duration_manipulation_targetAtFixation,jsons/v1_VE250_randls_0.json,http://54.235.29.9/FacialAge/BNav_EC2/DepthDuration/v2_depth_duration_MTurk/v2_DepthDuration_HTML.html#325,325,1366,625,1366,768,8-30-2022,9-53-13,121,depth_duration_stimuli/000788_2014-06-08_22-34-36_260595134347_rgbf000131-resize_1/000788_2014-06-08_22-34-36_260595134347_rgbf000131-resize_1-target.png,250,3.359,0,4738,245,feet,jsons/v1_VE250_randls_0.json,1318423,1440038,29,Woman
121,823759,DepthScenes,duration_manipulation_targetAtFixation,jsons/v1_VE250_randls_0.json,http://54.235.29.9/FacialAge/BNav_EC2/DepthDuration/v2_depth_duration_MTurk/v2_DepthDuration_HTML.html#325,325,1366,625,1366,768,8-30-2022,9-53-13,122,depth_duration_stimuli/001235_2014-06-17_16-37-36_260595134347_rgbf000084-resize_4/001235_2014-06-17_16-37-36_260595134347_rgbf000084-resize_4-target.png,250,3.6605,10,3010,253,feet,jsons/v1_VE250_randls_0.json,1318423,1440038,29,Woman
122,823759,DepthScenes,duration_manipulation_targetAtFixation,jsons/v1_VE250_randls_0.json,http://54.235.29.9/FacialAge/BNav_EC2/DepthDuration/v2_depth_duration_MTurk/v2_DepthDuration_HTML.html#325,325,1366,625,1366,768,8-30-2022,9-53-13,123,depth_duration_stimuli/002784_2014-06-22_19-26-30_094959634447_rgbf000083-resize_3/002784_2014-06-22_19-26-30_094959634447_rgbf000083-resize_3-target.png,250,1.8046666666667,0,4115,263,feet,jsons/v1_VE250_randls_0.json,1318423,1440038,29,Woman
123,823759,DepthScenes,duration_manipulation_targetAtFixation,jsons/v1_VE250_randls_0.json,http://54.235.29.9/FacialAge/BNav_EC2/DepthDuration/v2_depth_duration_MTurk/v2_DepthDuration_HTML.html#325,325,1366,625,1366,768,8-30-2022,9-53-13,124,depth_duration_stimuli/001100_2014-06-15_17-46-26_260595134347_rgbf000225-resize_2/001100_2014-06-15_17-46-26_260595134347_rgbf000225-resize_2-target.png,250,2.24,0,2076,250,feet,jsons/v1_VE250_randls_0.json,1318423,1440038,29,Woman
124,823759,DepthScenes,duration_manipulation_targetAtFixation,jsons/v1_VE250_randls_0.json,http://54.235.29.9/FacialAge/BNav_EC2/DepthDuration/v2_depth_duration_MTurk/v2_DepthDuration_HTML.html#325,325,1366,625,1366,768,8-30-2022,9-53-13,125,depth_duration_stimuli/001016_2014-06-09_16-16-10_260595134347_rgbf000112-resize_5/001016_2014-06-09_16-16-10_260595134347_rgbf000112-resize_5-target.png,250,1.6565,0,4728,249,feet,jsons/v1_VE250_randls_0.json,1318423,1440038,29,Woman
125,823759,DepthScenes,duration_manipulation_targetAtFixation,jsons/v1_VE250_randls_0.json,http://54.235.29.9/FacialAge/BNav_EC2/DepthDuration/v2_depth_duration_MTurk/v2_DepthDuration_HTML.html#325,325,1366,625,1366,768,8-30-2022,9-53-13,126,depth_duration_stimuli/002340_2014-06-28_20-05-46_260595134347_rgbf000113-resize_0/002340_2014-06-28_20-05-46_260595134347_rgbf000113-resize_0-target.png,250,2.4735,0,3270,249,feet,jsons/v1_VE250_randls_0.json,1318423,1440038,29,Woman
126,823759,DepthScenes,duration_manipulation_targetAtFixation,jsons/v1_VE250_randls_0.json,http://54.235.29.9/FacialAge/BNav_EC2/DepthDuration/v2_depth_duration_MTurk/v2_DepthDuration_HTML.html#325,325,1366,625,1366,768,8-30-2022,9-53-13,127,depth_duration_stimuli/000522_2014-06-08_13-35-06_260595134347_rgbf000244-resize_1/000522_2014-06-08_13-35-06_260595134347_rgbf000244-resize_1-target.png,250,2.3715,0,5322,249,feet,jsons/v1_VE250_randls_0.json,1318423,1440038,29,Woman
127,823759,DepthScenes,duration_manipulation_targetAtFixation,jsons/v1_VE250_randls_0.json,http://54.235.29.9/FacialAge/BNav_EC2/DepthDuration/v2_depth_duration_MTurk/v2_DepthDuration_HTML.html#325,325,1366,625,1366,768,8-30-2022,9-53-13,128,depth_duration_stimuli/002949_2014-06-26_15-57-42_094959634447_rgbf000079-resize_1/002949_2014-06-26_15-57-42_094959634447_rgbf000079-resize_1-target.png,250,1.8915,0,13724,250,feet,jsons/v1_VE250_randls_0.json,1318423,1440038,29,Woman
128,823759,DepthScenes,duration_manipulation_targetAtFixation,jsons/v1_VE250_randls_0.json,http://54.235.29.9/FacialAge/BNav_EC2/DepthDuration/v2_depth_duration_MTurk/v2_DepthDuration_HTML.html#325,325,1366,625,1366,768,8-30-2022,9-53-13,129,depth_duration_stimuli/001175_2014-06-17_15-45-55_260595134347_rgbf000129-resize_4/001175_2014-06-17_15-45-55_260595134347_rgbf000129-resize_4-target.png,250,4.255,0,4548,250,feet,jsons/v1_VE250_randls_0.json,1318423,1440038,29,Woman
129,823759,DepthScenes,duration_manipulation_targetAtFixation,jsons/v1_VE250_randls_0.json,http://54.235.29.9/FacialAge/BNav_EC2/DepthDuration/v2_depth_duration_MTurk/v2_DepthDuration_HTML.html#325,325,1366,625,1366,768,8-30-2022,9-53-13,130,depth_duration_stimuli/003490_2014-05-21_15-50-11_094959634447_rgbf000101-resize_3/003490_2014-05-21_15-50-11_094959634447_rgbf000101-resize_3-target.png,250,3.6445,0,2479,252,feet,jsons/v1_VE250_randls_0.json,1318423,1440038,29,Woman
130,823759,DepthScenes,duration_manipulation_targetAtFixation,jsons/v1_VE250_randls_0.json,http://54.235.29.9/FacialAge/BNav_EC2/DepthDuration/v2_depth_duration_MTurk/v2_DepthDuration_HTML.html#325,325,1366,625,1366,768,8-30-2022,9-53-13,131,depth_duration_stimuli/001199_2014-06-17_16-03-48_260595134347_rgbf000077-resize_0/001199_2014-06-17_16-03-48_260595134347_rgbf000077-resize_0-target.png,250,3.4375,0,3988,253,feet,jsons/v1_VE250_randls_0.json,1318423,1440038,29,Woman
131,823759,DepthScenes,duration_manipulation_targetAtFixation,jsons/v1_VE250_randls_0.json,http://54.235.29.9/FacialAge/BNav_EC2/DepthDuration/v2_depth_duration_MTurk/v2_DepthDuration_HTML.html#325,325,1366,625,1366,768,8-30-2022,9-53-13,132,depth_duration_stimuli/000502_2014-06-08_23-02-32_260595134347_rgbf000063-resize_4/000502_2014-06-08_23-02-32_260595134347_rgbf000063-resize_4-target.png,250,2.431,0,2227,250,feet,jsons/v1_VE250_randls_0.json,1318423,1440038,29,Woman
132,823759,DepthScenes,duration_manipulation_targetAtFixation,jsons/v1_VE250_randls_0.json,http://54.235.29.9/FacialAge/BNav_EC2/DepthDuration/v2_depth_duration_MTurk/v2_DepthDuration_HTML.html#325,325,1366,625,1366,768,8-30-2022,9-53-13,133,depth_duration_stimuli/001055_2014-06-08_18-45-35_260595134347_rgbf000111-resize_4/001055_2014-06-08_18-45-35_260595134347_rgbf000111-resize_4-target.png,250,2.4290000000000003,0,3233,247,feet,jsons/v1_VE250_randls_0.json,1318423,1440038,29,Woman
133,823759,DepthScenes,duration_manipulation_targetAtFixation,jsons/v1_VE250_randls_0.json,http://54.235.29.9/FacialAge/BNav_EC2/DepthDuration/v2_depth_duration_MTurk/v2_DepthDuration_HTML.html#325,325,1366,625,1366,768,8-30-2022,9-53-13,134,depth_duration_stimuli/000549_2014-06-08_22-10-24_260595134347_rgbf000247-resize_3/000549_2014-06-08_22-10-24_260595134347_rgbf000247-resize_3-target.png,250,1.841,0,2964,243,feet,jsons/v1_VE250_randls_0.json,1318423,1440038,29,Woman
134,823759,DepthScenes,duration_manipulation_targetAtFixation,jsons/v1_VE250_randls_0.json,http://54.235.29.9/FacialAge/BNav_EC2/DepthDuration/v2_depth_duration_MTurk/v2_DepthDuration_HTML.html#325,325,1366,625,1366,768,8-30-2022,9-53-13,135,depth_duration_stimuli/002072_2014-06-24_21-48-06_260595134347_rgbf000115-resize_0/002072_2014-06-24_21-48-06_260595134347_rgbf000115-resize-original.jpg,250,4.702,0,3091,249,feet,jsons/v1_VE250_randls_0.json,1318423,1440038,29,Woman
135,823759,DepthScenes,duration_manipulation_targetAtFixation,jsons/v1_VE250_randls_0.json,http://54.235.29.9/FacialAge/BNav_EC2/DepthDuration/v2_depth_duration_MTurk/v2_DepthDuration_HTML.html#325,325,1366,625,1366,768,8-30-2022,9-53-13,136,depth_duration_stimuli/001011_2014-06-08_23-18-54_260595134347_rgbf000044-resize_4/001011_2014-06-08_23-18-54_260595134347_rgbf000044-resize_4-target.png,250,2.4730000000000003,0,5128,250,feet,jsons/v1_VE250_randls_0.json,1318423,1440038,29,Woman
136,823759,DepthScenes,duration_manipulation_targetAtFixation,jsons/v1_VE250_randls_0.json,http://54.235.29.9/FacialAge/BNav_EC2/DepthDuration/v2_depth_duration_MTurk/v2_DepthDuration_HTML.html#325,325,1366,625,1366,768,8-30-2022,9-53-13,137,depth_duration_stimuli/002875_2014-06-01_15-19-00_094959634447_rgbf000151-resize_1/002875_2014-06-01_15-19-00_094959634447_rgbf000151-resize_1-target.png,250,1.9675,5,4109,251,feet,jsons/v1_VE250_randls_0.json,1318423,1440038,29,Woman
137,823759,DepthScenes,duration_manipulation_targetAtFixation,jsons/v1_VE250_randls_0.json,http://54.235.29.9/FacialAge/BNav_EC2/DepthDuration/v2_depth_duration_MTurk/v2_DepthDuration_HTML.html#325,325,1366,625,1366,768,8-30-2022,9-53-13,138,depth_duration_stimuli/001150_2014-06-17_15-27-34_260595134347_rgbf000108-resize_2/001150_2014-06-17_15-27-34_260595134347_rgbf000108-resize_2-target.png,250,4.0325,8,8794,242,feet,jsons/v1_VE250_randls_0.json,1318423,1440038,29,Woman
138,823759,DepthScenes,duration_manipulation_targetAtFixation,jsons/v1_VE250_randls_0.json,http://54.235.29.9/FacialAge/BNav_EC2/DepthDuration/v2_depth_duration_MTurk/v2_DepthDuration_HTML.html#325,325,1366,625,1366,768,8-30-2022,9-53-13,139,depth_duration_stimuli/000665_2014-06-09_20-42-35_260595134347_rgbf000110-resize_1/000665_2014-06-09_20-42-35_260595134347_rgbf000110-resize_1-target.png,250,3.057,0,2441,255,feet,jsons/v1_VE250_randls_0.json,1318423,1440038,29,Woman
139,823759,DepthScenes,duration_manipulation_targetAtFixation,jsons/v1_VE250_randls_0.json,http://54.235.29.9/FacialAge/BNav_EC2/DepthDuration/v2_depth_duration_MTurk/v2_DepthDuration_HTML.html#325,325,1366,625,1366,768,8-30-2022,9-53-13,140,depth_duration_stimuli/001110_2014-06-15_17-25-28_260595134347_rgbf000150-resize_1/001110_2014-06-15_17-25-28_260595134347_rgbf000150-resize_1-target.png,250,1.7115,0,5344,252,feet,jsons/v1_VE250_randls_0.json,1318423,1440038,29,Woman
140,823759,DepthScenes,duration_manipulation_targetAtFixation,jsons/v1_VE250_randls_0.json,http://54.235.29.9/FacialAge/BNav_EC2/DepthDuration/v2_depth_duration_MTurk/v2_DepthDuration_HTML.html#325,325,1366,625,1366,768,8-30-2022,9-53-13,141,depth_duration_stimuli/000927_2014-06-09_16-32-30_260595134347_rgbf000123-resize_3/000927_2014-06-09_16-32-30_260595134347_rgbf000123-resize_3-target.png,250,2.6785,0,3362,246,feet,jsons/v1_VE250_randls_0.json,1318423,1440038,29,Woman
141,823759,DepthScenes,duration_manipulation_targetAtFixation,jsons/v1_VE250_randls_0.json,http://54.235.29.9/FacialAge/BNav_EC2/DepthDuration/v2_depth_duration_MTurk/v2_DepthDuration_HTML.html#325,325,1366,625,1366,768,8-30-2022,9-53-13,142,depth_duration_stimuli/000773_2014-06-08_22-24-54_260595134347_rgbf000093-resize_1/000773_2014-06-08_22-24-54_260595134347_rgbf000093-resize_1-target.png,250,4.973,5,10252,235,feet,jsons/v1_VE250_randls_0.json,1318423,1440038,29,Woman
142,823759,DepthScenes,duration_manipulation_targetAtFixation,jsons/v1_VE250_randls_0.json,http://54.235.29.9/FacialAge/BNav_EC2/DepthDuration/v2_depth_duration_MTurk/v2_DepthDuration_HTML.html#325,325,1366,625,1366,768,8-30-2022,9-53-13,143,depth_duration_stimuli/002414_2014-06-28_20-24-58_260595134347_rgbf000067-resize_4/002414_2014-06-28_20-24-58_260595134347_rgbf000067-resize_4-target.png,250,4.363,0,4161,236,feet,jsons/v1_VE250_randls_0.json,1318423,1440038,29,Woman
143,823759,DepthScenes,duration_manipulation_targetAtFixation,jsons/v1_VE250_randls_0.json,http://54.235.29.9/FacialAge/BNav_EC2/DepthDuration/v2_depth_duration_MTurk/v2_DepthDuration_HTML.html#325,325,1366,625,1366,768,8-30-2022,9-53-13,144,depth_duration_stimuli/000470_2014-06-09_19-42-40_260595134347_rgbf000094-resize_1/000470_2014-06-09_19-42-40_260595134347_rgbf000094-resize_1-target.png,250,1.831,0,20036,253,feet,jsons/v1_VE250_randls_0.json,1318423,1440038,29,Woman
144,823759,DepthScenes,duration_manipulation_targetAtFixation,jsons/v1_VE250_randls_0.json,http://54.235.29.9/FacialAge/BNav_EC2/DepthDuration/v2_depth_duration_MTurk/v2_DepthDuration_HTML.html#325,325,1366,625,1366,768,8-30-2022,9-53-13,145,depth_duration_stimuli/000109_2014-05-14_23-41-52_260595134347_rgbf000035-resize_9/000109_2014-05-14_23-41-52_260595134347_rgbf000035-resize_9-target.png,250,1.3545,0,56335,250,feet,jsons/v1_VE250_randls_0.json,1318423,1440038,29,Woman
145,823759,DepthScenes,duration_manipulation_targetAtFixation,jsons/v1_VE250_randls_0.json,http://54.235.29.9/FacialAge/BNav_EC2/DepthDuration/v2_depth_duration_MTurk/v2_DepthDuration_HTML.html#325,325,1366,625,1366,768,8-30-2022,9-53-13,146,depth_duration_stimuli/001498_2014-06-19_17-45-14_260595134347_rgbf000129-resize_4/001498_2014-06-19_17-45-14_260595134347_rgbf000129-resize-original.jpg,250,1.4075,0,7208,245,feet,jsons/v1_VE250_randls_0.json,1318423,1440038,29,Woman
146,823759,DepthScenes,duration_manipulation_targetAtFixation,jsons/v1_VE250_randls_0.json,http://54.235.29.9/FacialAge/BNav_EC2/DepthDuration/v2_depth_duration_MTurk/v2_DepthDuration_HTML.html#325,325,1366,625,1366,768,8-30-2022,9-53-13,147,depth_duration_stimuli/000436_2014-06-09_22-25-11_260595134347_rgbf000137-resize_1/000436_2014-06-09_22-25-11_260595134347_rgbf000137-resize_1-target.png,250,4.0705,0,5427,249,feet,jsons/v1_VE250_randls_0.json,1318423,1440038,29,Woman
147,823759,DepthScenes,duration_manipulation_targetAtFixation,jsons/v1_VE250_randls_0.json,http://54.235.29.9/FacialAge/BNav_EC2/DepthDuration/v2_depth_duration_MTurk/v2_DepthDuration_HTML.html#325,325,1366,625,1366,768,8-30-2022,9-53-13,148,depth_duration_stimuli/002444_2014-06-28_20-32-08_260595134347_rgbf000027-resize_0/002444_2014-06-28_20-32-08_260595134347_rgbf000027-resize_0-target.png,250,4.388999999999999,0,3869,250,feet,jsons/v1_VE250_randls_0.json,1318423,1440038,29,Woman
148,823759,DepthScenes,duration_manipulation_targetAtFixation,jsons/v1_VE250_randls_0.json,http://54.235.29.9/FacialAge/BNav_EC2/DepthDuration/v2_depth_duration_MTurk/v2_DepthDuration_HTML.html#325,325,1366,625,1366,768,8-30-2022,9-53-13,149,depth_duration_stimuli/000493_2014-06-09_21-01-18_260595134347_rgbf000196-resize_3/000493_2014-06-09_21-01-18_260595134347_rgbf000196-resize_3-target.png,250,3.44,0,5569,250,feet,jsons/v1_VE250_randls_0.json,1318423,1440038,29,Woman
149,823759,DepthScenes,duration_manipulation_targetAtFixation,jsons/v1_VE250_randls_0.json,http://54.235.29.9/FacialAge/BNav_EC2/DepthDuration/v2_depth_duration_MTurk/v2_DepthDuration_HTML.html#325,325,1366,625,1366,768,8-30-2022,9-53-13,150,depth_duration_stimuli/000191_2014-05-12_17-07-38_260595134347_rgbf000199-resize_0/000191_2014-05-12_17-07-38_260595134347_rgbf000199-resize_0-target.png,250,3.7995,0,16946,248,feet,jsons/v1_VE250_randls_0.json,1318423,1440038,29,Woman
150,823759,DepthScenes,duration_manipulation_targetAtFixation,jsons/v1_VE250_randls_0.json,http://54.235.29.9/FacialAge/BNav_EC2/DepthDuration/v2_depth_duration_MTurk/v2_DepthDuration_HTML.html#325,325,1366,625,1366,768,8-30-2022,9-53-13,151,depth_duration_stimuli/001092_2014-06-15_17-34-58_260595134347_rgbf000171-resize_3/001092_2014-06-15_17-34-58_260595134347_rgbf000171-resize_3-target.png,250,2.6935,0,14617,245,feet,jsons/v1_VE250_randls_0.json,1318423,1440038,29,Woman
151,823759,DepthScenes,duration_manipulation_targetAtFixation,jsons/v1_VE250_randls_0.json,http://54.235.29.9/FacialAge/BNav_EC2/DepthDuration/v2_depth_duration_MTurk/v2_DepthDuration_HTML.html#325,325,1366,625,1366,768,8-30-2022,9-53-13,152,depth_duration_stimuli/002545_2014-06-24_13-38-53_094959634447_rgbf000080-resize_4/002545_2014-06-24_13-38-53_094959634447_rgbf000080-resize_4-target.png,250,1.9205,0,3613,248,feet,jsons/v1_VE250_randls_0.json,1318423,1440038,29,Woman
152,823759,DepthScenes,duration_manipulation_targetAtFixation,jsons/v1_VE250_randls_0.json,http://54.235.29.9/FacialAge/BNav_EC2/DepthDuration/v2_depth_duration_MTurk/v2_DepthDuration_HTML.html#325,325,1366,625,1366,768,8-30-2022,9-53-13,153,depth_duration_stimuli/001158_2014-06-17_15-32-16_260595134347_rgbf000138-resize_2/001158_2014-06-17_15-32-16_260595134347_rgbf000138-resize_2-target.png,250,4.5315,0,3399,251,feet,jsons/v1_VE250_randls_0.json,1318423,1440038,29,Woman
153,823759,DepthScenes,duration_manipulation_targetAtFixation,jsons/v1_VE250_randls_0.json,http://54.235.29.9/FacialAge/BNav_EC2/DepthDuration/v2_depth_duration_MTurk/v2_DepthDuration_HTML.html#325,325,1366,625,1366,768,8-30-2022,9-53-13,154,depth_duration_stimuli/000556_2014-06-09_22-42-56_260595134347_rgbf000214-resize_1/000556_2014-06-09_22-42-56_260595134347_rgbf000214-resize_1-target.png,250,4.8415,0,3087,246,feet,jsons/v1_VE250_randls_0.json,1318423,1440038,29,Woman
154,823759,DepthScenes,duration_manipulation_targetAtFixation,jsons/v1_VE250_randls_0.json,http://54.235.29.9/FacialAge/BNav_EC2/DepthDuration/v2_depth_duration_MTurk/v2_DepthDuration_HTML.html#325,325,1366,625,1366,768,8-30-2022,9-53-13,155,depth_duration_stimuli/003534_2014-05-22_15-06-10_094959634447_rgbf000102-resize_4/003534_2014-05-22_15-06-10_094959634447_rgbf000102-resize_4-target.png,250,1.426,0,4122,250,feet,jsons/v1_VE250_randls_0.json,1318423,1440038,29,Woman
155,823759,DepthScenes,duration_manipulation_targetAtFixation,jsons/v1_VE250_randls_0.json,http://54.235.29.9/FacialAge/BNav_EC2/DepthDuration/v2_depth_duration_MTurk/v2_DepthDuration_HTML.html#325,325,1366,625,1366,768,8-30-2022,9-53-13,156,depth_duration_stimuli/002637_2014-06-24_14-51-13_094959634447_rgbf000066-resize_4/002637_2014-06-24_14-51-13_094959634447_rgbf000066-resize_4-target.png,250,1.9955,0,4090,250,feet,jsons/v1_VE250_randls_0.json,1318423,1440038,29,Woman
156,823759,DepthScenes,duration_manipulation_targetAtFixation,jsons/v1_VE250_randls_0.json,http://54.235.29.9/FacialAge/BNav_EC2/DepthDuration/v2_depth_duration_MTurk/v2_DepthDuration_HTML.html#325,325,1366,625,1366,768,8-30-2022,9-53-13,157,depth_duration_stimuli/003492_2014-05-21_15-50-55_094959634447_rgbf000828-resize_1/003492_2014-05-21_15-50-55_094959634447_rgbf000828-resize_1-target.png,250,4.06875,0,3183,250,feet,jsons/v1_VE250_randls_0.json,1318423,1440038,29,Woman
157,823759,DepthScenes,duration_manipulation_targetAtFixation,jsons/v1_VE250_randls_0.json,http://54.235.29.9/FacialAge/BNav_EC2/DepthDuration/v2_depth_duration_MTurk/v2_DepthDuration_HTML.html#325,325,1366,625,1366,768,8-30-2022,9-53-13,158,depth_duration_stimuli/002568_2014-06-24_13-59-21_094959634447_rgbf000062-resize_4/002568_2014-06-24_13-59-21_094959634447_rgbf000062-resize_4-target.png,250,3.015,0,2052,252,feet,jsons/v1_VE250_randls_0.json,1318423,1440038,29,Woman
158,823759,DepthScenes,duration_manipulation_targetAtFixation,jsons/v1_VE250_randls_0.json,http://54.235.29.9/FacialAge/BNav_EC2/DepthDuration/v2_depth_duration_MTurk/v2_DepthDuration_HTML.html#325,325,1366,625,1366,768,8-30-2022,9-53-13,159,depth_duration_stimuli/001066_2014-06-08_22-03-20_260595134347_rgbf000066-resize_4/001066_2014-06-08_22-03-20_260595134347_rgbf000066-resize_4-target.png,250,4.2330000000000005,0,3322,250,feet,jsons/v1_VE250_randls_0.json,1318423,1440038,29,Woman
159,823759,DepthScenes,duration_manipulation_targetAtFixation,jsons/v1_VE250_randls_0.json,http://54.235.29.9/FacialAge/BNav_EC2/DepthDuration/v2_depth_duration_MTurk/v2_DepthDuration_HTML.html#325,325,1366,625,1366,768,8-30-2022,9-53-13,160,depth_duration_stimuli/000742_2014-06-08_18-48-09_260595134347_rgbf000164-resize_4/000742_2014-06-08_18-48-09_260595134347_rgbf000164-resize_4-target.png,250,4.632,0,1972,253,feet,jsons/v1_VE250_randls_0.json,1318423,1440038,29,Woman
160,823759,DepthScenes,duration_manipulation_targetAtFixation,jsons/v1_VE250_randls_0.json,http://54.235.29.9/FacialAge/BNav_EC2/DepthDuration/v2_depth_duration_MTurk/v2_DepthDuration_HTML.html#325,325,1366,625,1366,768,8-30-2022,9-53-13,161,depth_duration_stimuli/002039_2014-06-24_20-22-38_260595134347_rgbf000084-resize_1/002039_2014-06-24_20-22-38_260595134347_rgbf000084-resize_1-target.png,250,4.408,0,3707,250,feet,jsons/v1_VE250_randls_0.json,1318423,1440038,29,Woman
161,823759,DepthScenes,duration_manipulation_targetAtFixation,jsons/v1_VE250_randls_0.json,http://54.235.29.9/FacialAge/BNav_EC2/DepthDuration/v2_depth_duration_MTurk/v2_DepthDuration_HTML.html#325,325,1366,625,1366,768,8-30-2022,9-53-13,162,depth_duration_stimuli/002103_2014-06-25_20-00-40_260595134347_rgbf000049-resize_0/002103_2014-06-25_20-00-40_260595134347_rgbf000049-resize_0-target.png,250,4.105,0,11864,244,feet,jsons/v1_VE250_randls_0.json,1318423,1440038,29,Woman
162,823759,DepthScenes,duration_manipulation_targetAtFixation,jsons/v1_VE250_randls_0.json,http://54.235.29.9/FacialAge/BNav_EC2/DepthDuration/v2_depth_duration_MTurk/v2_DepthDuration_HTML.html#325,325,1366,625,1366,768,8-30-2022,9-53-13,163,depth_duration_stimuli/000758_2014-06-08_22-05-08_260595134347_rgbf000085-resize_0/000758_2014-06-08_22-05-08_260595134347_rgbf000085-resize_0-target.png,250,3.3810000000000002,0,5468,253,feet,jsons/v1_VE250_randls_0.json,1318423,1440038,29,Woman
163,823759,DepthScenes,duration_manipulation_targetAtFixation,jsons/v1_VE250_randls_0.json,http://54.235.29.9/FacialAge/BNav_EC2/DepthDuration/v2_depth_duration_MTurk/v2_DepthDuration_HTML.html#325,325,1366,625,1366,768,8-30-2022,9-53-13,164,depth_duration_stimuli/000854_2014-06-09_19-43-13_260595134347_rgbf000066-resize_0/000854_2014-06-09_19-43-13_260595134347_rgbf000066-resize_0-target.png,250,3.068,0,1934,269,feet,jsons/v1_VE250_randls_0.json,1318423,1440038,29,Woman
