,subjID,experimentName,versionName,sequenceName,url,selected_row,windowWidth,windowHeight,screenWidth,screenHeight,startDate,startTime,trial,stimulus,duration,actual_depth,depth_estimate,trial_RT,log_sceneDuration,unitSelection,seq_filepath,experimentTime,totalTime,age,gender
0,824172,DepthScenes,duration_manipulation_targetAtFixation,jsons/v1_VE1000_randls_39_rotated.json,http://54.235.29.9/FacialAge/BNav_EC2/DepthDuration/v2_depth_duration_MTurk/v2_DepthDuration_HTML.html#153,153,2560,1080,2560,1080,8-22-2022,9-0-10,1,depth_duration_stimuli/001052_2014-06-08_18-24-54_260595134347_rgbf000130-resize_1/001052_2014-06-08_18-24-54_260595134347_rgbf000130-resize_1-target.png,1000,4.1045,6.0,5786,1003,feet,jsons/v1_VE1000_randls_39_rotated.json,994652,1283363,51,Man
1,824172,DepthScenes,duration_manipulation_targetAtFixation,jsons/v1_VE1000_randls_39_rotated.json,http://54.235.29.9/FacialAge/BNav_EC2/DepthDuration/v2_depth_duration_MTurk/v2_DepthDuration_HTML.html#153,153,2560,1080,2560,1080,8-22-2022,9-0-10,2,depth_duration_stimuli/002988_2014-06-15_12-24-20_094959634447_rgbf000150-resize_1/002988_2014-06-15_12-24-20_094959634447_rgbf000150-resize_1-target.png,1000,4.7669999999999995,6.25,5780,1006,feet,jsons/v1_VE1000_randls_39_rotated.json,994652,1283363,51,Man
2,824172,DepthScenes,duration_manipulation_targetAtFixation,jsons/v1_VE1000_randls_39_rotated.json,http://54.235.29.9/FacialAge/BNav_EC2/DepthDuration/v2_depth_duration_MTurk/v2_DepthDuration_HTML.html#153,153,2560,1080,2560,1080,8-22-2022,9-0-10,3,depth_duration_stimuli/000409_2014-06-04_19-23-33_260595134347_rgbf000067-resize_0/000409_2014-06-04_19-23-33_260595134347_rgbf000067-resize_0-target.png,1000,3.7335,2.6,7029,987,feet,jsons/v1_VE1000_randls_39_rotated.json,994652,1283363,51,Man
3,824172,DepthScenes,duration_manipulation_targetAtFixation,jsons/v1_VE1000_randls_39_rotated.json,http://54.235.29.9/FacialAge/BNav_EC2/DepthDuration/v2_depth_duration_MTurk/v2_DepthDuration_HTML.html#153,153,2560,1080,2560,1080,8-22-2022,9-0-10,4,depth_duration_stimuli/002663_2014-06-13_15-50-26_094959634447_rgbf000075-resize_1/002663_2014-06-13_15-50-26_094959634447_rgbf000075-resize_1-target.png,1000,4.7495,3.2,5402,999,feet,jsons/v1_VE1000_randls_39_rotated.json,994652,1283363,51,Man
4,824172,DepthScenes,duration_manipulation_targetAtFixation,jsons/v1_VE1000_randls_39_rotated.json,http://54.235.29.9/FacialAge/BNav_EC2/DepthDuration/v2_depth_duration_MTurk/v2_DepthDuration_HTML.html#153,153,2560,1080,2560,1080,8-22-2022,9-0-10,5,depth_duration_stimuli/000457_2014-06-08_16-52-43_260595134347_rgbf000199-resize_1/000457_2014-06-08_16-52-43_260595134347_rgbf000199-resize_1-target.png,1000,3.6489999999999996,3.5,4823,999,feet,jsons/v1_VE1000_randls_39_rotated.json,994652,1283363,51,Man
5,824172,DepthScenes,duration_manipulation_targetAtFixation,jsons/v1_VE1000_randls_39_rotated.json,http://54.235.29.9/FacialAge/BNav_EC2/DepthDuration/v2_depth_duration_MTurk/v2_DepthDuration_HTML.html#153,153,2560,1080,2560,1080,8-22-2022,9-0-10,6,depth_duration_stimuli/000929_2014-06-09_16-33-19_260595134347_rgbf000139-resize_0/000929_2014-06-09_16-33-19_260595134347_rgbf000139-resize_0-target.png,1000,2.8680000000000003,1.75,5682,1001,feet,jsons/v1_VE1000_randls_39_rotated.json,994652,1283363,51,Man
6,824172,DepthScenes,duration_manipulation_targetAtFixation,jsons/v1_VE1000_randls_39_rotated.json,http://54.235.29.9/FacialAge/BNav_EC2/DepthDuration/v2_depth_duration_MTurk/v2_DepthDuration_HTML.html#153,153,2560,1080,2560,1080,8-22-2022,9-0-10,7,depth_duration_stimuli/002949_2014-06-26_15-57-42_094959634447_rgbf000079-resize_1/002949_2014-06-26_15-57-42_094959634447_rgbf000079-resize_1-target.png,1000,1.8915,1.5,5667,1013,feet,jsons/v1_VE1000_randls_39_rotated.json,994652,1283363,51,Man
7,824172,DepthScenes,duration_manipulation_targetAtFixation,jsons/v1_VE1000_randls_39_rotated.json,http://54.235.29.9/FacialAge/BNav_EC2/DepthDuration/v2_depth_duration_MTurk/v2_DepthDuration_HTML.html#153,153,2560,1080,2560,1080,8-22-2022,9-0-10,8,depth_duration_stimuli/000522_2014-06-08_13-35-06_260595134347_rgbf000244-resize_1/000522_2014-06-08_13-35-06_260595134347_rgbf000244-resize_1-target.png,1000,2.3715,2.75,5715,1011,feet,jsons/v1_VE1000_randls_39_rotated.json,994652,1283363,51,Man
8,824172,DepthScenes,duration_manipulation_targetAtFixation,jsons/v1_VE1000_randls_39_rotated.json,http://54.235.29.9/FacialAge/BNav_EC2/DepthDuration/v2_depth_duration_MTurk/v2_DepthDuration_HTML.html#153,153,2560,1080,2560,1080,8-22-2022,9-0-10,9,depth_duration_stimuli/001136_2014-06-17_15-19-41_260595134347_rgbf000076-resize_3/001136_2014-06-17_15-19-41_260595134347_rgbf000076-resize_3-target.png,1000,1.8655,3.2,6892,1000,feet,jsons/v1_VE1000_randls_39_rotated.json,994652,1283363,51,Man
9,824172,DepthScenes,duration_manipulation_targetAtFixation,jsons/v1_VE1000_randls_39_rotated.json,http://54.235.29.9/FacialAge/BNav_EC2/DepthDuration/v2_depth_duration_MTurk/v2_DepthDuration_HTML.html#153,153,2560,1080,2560,1080,8-22-2022,9-0-10,10,depth_duration_stimuli/001164_2014-06-17_15-35-46_260595134347_rgbf000085-resize_3/001164_2014-06-17_15-35-46_260595134347_rgbf000085-resize_3-target.png,1000,2.354,4.3,5603,1004,feet,jsons/v1_VE1000_randls_39_rotated.json,994652,1283363,51,Man
10,824172,DepthScenes,duration_manipulation_targetAtFixation,jsons/v1_VE1000_randls_39_rotated.json,http://54.235.29.9/FacialAge/BNav_EC2/DepthDuration/v2_depth_duration_MTurk/v2_DepthDuration_HTML.html#153,153,2560,1080,2560,1080,8-22-2022,9-0-10,11,depth_duration_stimuli/000866_2014-06-09_20-45-42_260595134347_rgbf000139-resize_1/000866_2014-06-09_20-45-42_260595134347_rgbf000139-resize_1-target.png,1000,3.2155,3.4,5331,999,feet,jsons/v1_VE1000_randls_39_rotated.json,994652,1283363,51,Man
11,824172,DepthScenes,duration_manipulation_targetAtFixation,jsons/v1_VE1000_randls_39_rotated.json,http://54.235.29.9/FacialAge/BNav_EC2/DepthDuration/v2_depth_duration_MTurk/v2_DepthDuration_HTML.html#153,153,2560,1080,2560,1080,8-22-2022,9-0-10,12,depth_duration_stimuli/002989_2014-06-15_12-25-03_094959634447_rgbf000150-resize_3/002989_2014-06-15_12-25-03_094959634447_rgbf000150-resize_3-target.png,1000,4.1975,6.5,5250,1002,feet,jsons/v1_VE1000_randls_39_rotated.json,994652,1283363,51,Man
12,824172,DepthScenes,duration_manipulation_targetAtFixation,jsons/v1_VE1000_randls_39_rotated.json,http://54.235.29.9/FacialAge/BNav_EC2/DepthDuration/v2_depth_duration_MTurk/v2_DepthDuration_HTML.html#153,153,2560,1080,2560,1080,8-22-2022,9-0-10,13,depth_duration_stimuli/002568_2014-06-24_13-59-21_094959634447_rgbf000062-resize_4/002568_2014-06-24_13-59-21_094959634447_rgbf000062-resize_4-target.png,1000,3.015,3.0,5195,1005,feet,jsons/v1_VE1000_randls_39_rotated.json,994652,1283363,51,Man
13,824172,DepthScenes,duration_manipulation_targetAtFixation,jsons/v1_VE1000_randls_39_rotated.json,http://54.235.29.9/FacialAge/BNav_EC2/DepthDuration/v2_depth_duration_MTurk/v2_DepthDuration_HTML.html#153,153,2560,1080,2560,1080,8-22-2022,9-0-10,14,depth_duration_stimuli/003492_2014-05-21_15-50-55_094959634447_rgbf000828-resize_1/003492_2014-05-21_15-50-55_094959634447_rgbf000828-resize_1-target.png,1000,4.06875,3.2,4561,998,feet,jsons/v1_VE1000_randls_39_rotated.json,994652,1283363,51,Man
14,824172,DepthScenes,duration_manipulation_targetAtFixation,jsons/v1_VE1000_randls_39_rotated.json,http://54.235.29.9/FacialAge/BNav_EC2/DepthDuration/v2_depth_duration_MTurk/v2_DepthDuration_HTML.html#153,153,2560,1080,2560,1080,8-22-2022,9-0-10,15,depth_duration_stimuli/001235_2014-06-17_16-37-36_260595134347_rgbf000084-resize_4/001235_2014-06-17_16-37-36_260595134347_rgbf000084-resize_4-target.png,1000,3.6605,3.3,5787,1000,feet,jsons/v1_VE1000_randls_39_rotated.json,994652,1283363,51,Man
15,824172,DepthScenes,duration_manipulation_targetAtFixation,jsons/v1_VE1000_randls_39_rotated.json,http://54.235.29.9/FacialAge/BNav_EC2/DepthDuration/v2_depth_duration_MTurk/v2_DepthDuration_HTML.html#153,153,2560,1080,2560,1080,8-22-2022,9-0-10,16,depth_duration_stimuli/000788_2014-06-08_22-34-36_260595134347_rgbf000131-resize_1/000788_2014-06-08_22-34-36_260595134347_rgbf000131-resize_1-target.png,1000,3.359,2.0,4455,1001,feet,jsons/v1_VE1000_randls_39_rotated.json,994652,1283363,51,Man
16,824172,DepthScenes,duration_manipulation_targetAtFixation,jsons/v1_VE1000_randls_39_rotated.json,http://54.235.29.9/FacialAge/BNav_EC2/DepthDuration/v2_depth_duration_MTurk/v2_DepthDuration_HTML.html#153,153,2560,1080,2560,1080,8-22-2022,9-0-10,17,depth_duration_stimuli/000137_2014-05-20_17-04-49_260595134347_rgbf000120-resize_1/000137_2014-05-20_17-04-49_260595134347_rgbf000120-resize_1-target.png,1000,3.786,2.6,5570,1007,feet,jsons/v1_VE1000_randls_39_rotated.json,994652,1283363,51,Man
17,824172,DepthScenes,duration_manipulation_targetAtFixation,jsons/v1_VE1000_randls_39_rotated.json,http://54.235.29.9/FacialAge/BNav_EC2/DepthDuration/v2_depth_duration_MTurk/v2_DepthDuration_HTML.html#153,153,2560,1080,2560,1080,8-22-2022,9-0-10,18,depth_duration_stimuli/000736_2014-06-08_18-24-15_260595134347_rgbf000206-resize_3/000736_2014-06-08_18-24-15_260595134347_rgbf000206-resize_3-target.png,1000,3.515,2.2,5914,1009,feet,jsons/v1_VE1000_randls_39_rotated.json,994652,1283363,51,Man
18,824172,DepthScenes,duration_manipulation_targetAtFixation,jsons/v1_VE1000_randls_39_rotated.json,http://54.235.29.9/FacialAge/BNav_EC2/DepthDuration/v2_depth_duration_MTurk/v2_DepthDuration_HTML.html#153,153,2560,1080,2560,1080,8-22-2022,9-0-10,19,depth_duration_stimuli/001498_2014-06-19_17-45-14_260595134347_rgbf000129-resize_4/001498_2014-06-19_17-45-14_260595134347_rgbf000129-resize-original.jpg,1000,1.4075,0.0,4546,999,feet,jsons/v1_VE1000_randls_39_rotated.json,994652,1283363,51,Man
19,824172,DepthScenes,duration_manipulation_targetAtFixation,jsons/v1_VE1000_randls_39_rotated.json,http://54.235.29.9/FacialAge/BNav_EC2/DepthDuration/v2_depth_duration_MTurk/v2_DepthDuration_HTML.html#153,153,2560,1080,2560,1080,8-22-2022,9-0-10,20,depth_duration_stimuli/002758_2014-06-22_19-11-20_094959634447_rgbf000128-resize_1/002758_2014-06-22_19-11-20_094959634447_rgbf000128-resize_1-target.png,1000,2.555,3.0,6547,1007,feet,jsons/v1_VE1000_randls_39_rotated.json,994652,1283363,51,Man
20,824172,DepthScenes,duration_manipulation_targetAtFixation,jsons/v1_VE1000_randls_39_rotated.json,http://54.235.29.9/FacialAge/BNav_EC2/DepthDuration/v2_depth_duration_MTurk/v2_DepthDuration_HTML.html#153,153,2560,1080,2560,1080,8-22-2022,9-0-10,21,depth_duration_stimuli/002630_2014-06-24_14-47-50_094959634447_rgbf000055-resize_1/002630_2014-06-24_14-47-50_094959634447_rgbf000055-resize_1-target.png,1000,3.0095,4.0,4379,1012,feet,jsons/v1_VE1000_randls_39_rotated.json,994652,1283363,51,Man
21,824172,DepthScenes,duration_manipulation_targetAtFixation,jsons/v1_VE1000_randls_39_rotated.json,http://54.235.29.9/FacialAge/BNav_EC2/DepthDuration/v2_depth_duration_MTurk/v2_DepthDuration_HTML.html#153,153,2560,1080,2560,1080,8-22-2022,9-0-10,22,depth_duration_stimuli/003079_2014-06-15_15-18-20_094959634447_rgbf000152-resize_8/003079_2014-06-15_15-18-20_094959634447_rgbf000152-resize_8-target.png,1000,2.8775,6.3,5299,1000,feet,jsons/v1_VE1000_randls_39_rotated.json,994652,1283363,51,Man
22,824172,DepthScenes,duration_manipulation_targetAtFixation,jsons/v1_VE1000_randls_39_rotated.json,http://54.235.29.9/FacialAge/BNav_EC2/DepthDuration/v2_depth_duration_MTurk/v2_DepthDuration_HTML.html#153,153,2560,1080,2560,1080,8-22-2022,9-0-10,23,depth_duration_stimuli/000506_2014-06-08_23-21-00_260595134347_rgbf000070-resize_7/000506_2014-06-08_23-21-00_260595134347_rgbf000070-resize_7-target.png,1000,4.0585,3.5,5410,999,feet,jsons/v1_VE1000_randls_39_rotated.json,994652,1283363,51,Man
23,824172,DepthScenes,duration_manipulation_targetAtFixation,jsons/v1_VE1000_randls_39_rotated.json,http://54.235.29.9/FacialAge/BNav_EC2/DepthDuration/v2_depth_duration_MTurk/v2_DepthDuration_HTML.html#153,153,2560,1080,2560,1080,8-22-2022,9-0-10,24,depth_duration_stimuli/002637_2014-06-24_14-51-13_094959634447_rgbf000066-resize_4/002637_2014-06-24_14-51-13_094959634447_rgbf000066-resize_4-target.png,1000,1.9955,3.8,6067,1001,feet,jsons/v1_VE1000_randls_39_rotated.json,994652,1283363,51,Man
24,824172,DepthScenes,duration_manipulation_targetAtFixation,jsons/v1_VE1000_randls_39_rotated.json,http://54.235.29.9/FacialAge/BNav_EC2/DepthDuration/v2_depth_duration_MTurk/v2_DepthDuration_HTML.html#153,153,2560,1080,2560,1080,8-22-2022,9-0-10,25,depth_duration_stimuli/003534_2014-05-22_15-06-10_094959634447_rgbf000102-resize_4/003534_2014-05-22_15-06-10_094959634447_rgbf000102-resize_4-target.png,1000,1.426,1.2,5202,1009,feet,jsons/v1_VE1000_randls_39_rotated.json,994652,1283363,51,Man
25,824172,DepthScenes,duration_manipulation_targetAtFixation,jsons/v1_VE1000_randls_39_rotated.json,http://54.235.29.9/FacialAge/BNav_EC2/DepthDuration/v2_depth_duration_MTurk/v2_DepthDuration_HTML.html#153,153,2560,1080,2560,1080,8-22-2022,9-0-10,26,depth_duration_stimuli/001516_2014-06-20_16-25-09_260595134347_rgbf000076-resize_2/001516_2014-06-20_16-25-09_260595134347_rgbf000076-resize_2-target.png,1000,1.7445,3.25,5131,998,feet,jsons/v1_VE1000_randls_39_rotated.json,994652,1283363,51,Man
26,824172,DepthScenes,duration_manipulation_targetAtFixation,jsons/v1_VE1000_randls_39_rotated.json,http://54.235.29.9/FacialAge/BNav_EC2/DepthDuration/v2_depth_duration_MTurk/v2_DepthDuration_HTML.html#153,153,2560,1080,2560,1080,8-22-2022,9-0-10,27,depth_duration_stimuli/002118_2014-06-25_20-32-08_260595134347_rgbf000078-resize_1/002118_2014-06-25_20-32-08_260595134347_rgbf000078-resize_1-target.png,1000,2.6460000000000004,2.25,9978,1015,feet,jsons/v1_VE1000_randls_39_rotated.json,994652,1283363,51,Man
27,824172,DepthScenes,duration_manipulation_targetAtFixation,jsons/v1_VE1000_randls_39_rotated.json,http://54.235.29.9/FacialAge/BNav_EC2/DepthDuration/v2_depth_duration_MTurk/v2_DepthDuration_HTML.html#153,153,2560,1080,2560,1080,8-22-2022,9-0-10,28,depth_duration_stimuli/002136_2014-06-25_21-18-03_260595134347_rgbf000109-resize_3/002136_2014-06-25_21-18-03_260595134347_rgbf000109-resize_3-target.png,1000,1.9569999999999999,2.5,6426,1009,feet,jsons/v1_VE1000_randls_39_rotated.json,994652,1283363,51,Man
28,824172,DepthScenes,duration_manipulation_targetAtFixation,jsons/v1_VE1000_randls_39_rotated.json,http://54.235.29.9/FacialAge/BNav_EC2/DepthDuration/v2_depth_duration_MTurk/v2_DepthDuration_HTML.html#153,153,2560,1080,2560,1080,8-22-2022,9-0-10,29,depth_duration_stimuli/002964_2014-06-08_17-46-11_094959634447_rgbf000091-resize_4/002964_2014-06-08_17-46-11_094959634447_rgbf000091-resize_4-target.png,1000,1.6909999999999998,2.5,4982,996,feet,jsons/v1_VE1000_randls_39_rotated.json,994652,1283363,51,Man
29,824172,DepthScenes,duration_manipulation_targetAtFixation,jsons/v1_VE1000_randls_39_rotated.json,http://54.235.29.9/FacialAge/BNav_EC2/DepthDuration/v2_depth_duration_MTurk/v2_DepthDuration_HTML.html#153,153,2560,1080,2560,1080,8-22-2022,9-0-10,30,depth_duration_stimuli/002072_2014-06-24_21-48-06_260595134347_rgbf000115-resize_0/002072_2014-06-24_21-48-06_260595134347_rgbf000115-resize-original.jpg,1000,4.702,0.0,4195,1002,feet,jsons/v1_VE1000_randls_39_rotated.json,994652,1283363,51,Man
30,824172,DepthScenes,duration_manipulation_targetAtFixation,jsons/v1_VE1000_randls_39_rotated.json,http://54.235.29.9/FacialAge/BNav_EC2/DepthDuration/v2_depth_duration_MTurk/v2_DepthDuration_HTML.html#153,153,2560,1080,2560,1080,8-22-2022,9-0-10,31,depth_duration_stimuli/000691_2014-06-08_13-08-50_260595134347_rgbf000132-resize_3/000691_2014-06-08_13-08-50_260595134347_rgbf000132-resize_3-target.png,1000,4.1530000000000005,2.25,5227,1002,feet,jsons/v1_VE1000_randls_39_rotated.json,994652,1283363,51,Man
31,824172,DepthScenes,duration_manipulation_targetAtFixation,jsons/v1_VE1000_randls_39_rotated.json,http://54.235.29.9/FacialAge/BNav_EC2/DepthDuration/v2_depth_duration_MTurk/v2_DepthDuration_HTML.html#153,153,2560,1080,2560,1080,8-22-2022,9-0-10,32,depth_duration_stimuli/002213_2014-06-28_18-37-58_260595134347_rgbf000055-resize_1/002213_2014-06-28_18-37-58_260595134347_rgbf000055-resize_1-target.png,1000,3.62,5.5,5560,1002,feet,jsons/v1_VE1000_randls_39_rotated.json,994652,1283363,51,Man
32,824172,DepthScenes,duration_manipulation_targetAtFixation,jsons/v1_VE1000_randls_39_rotated.json,http://54.235.29.9/FacialAge/BNav_EC2/DepthDuration/v2_depth_duration_MTurk/v2_DepthDuration_HTML.html#153,153,2560,1080,2560,1080,8-22-2022,9-0-10,33,depth_duration_stimuli/002657_2014-06-13_15-29-54_094959634447_rgbf000150-resize_1/002657_2014-06-13_15-29-54_094959634447_rgbf000150-resize_1-target.png,1000,4.919,1.7,6643,1001,feet,jsons/v1_VE1000_randls_39_rotated.json,994652,1283363,51,Man
33,824172,DepthScenes,duration_manipulation_targetAtFixation,jsons/v1_VE1000_randls_39_rotated.json,http://54.235.29.9/FacialAge/BNav_EC2/DepthDuration/v2_depth_duration_MTurk/v2_DepthDuration_HTML.html#153,153,2560,1080,2560,1080,8-22-2022,9-0-10,34,depth_duration_stimuli/002375_2014-06-28_20-13-44_260595134347_rgbf000032-resize_1/002375_2014-06-28_20-13-44_260595134347_rgbf000032-resize_1-target.png,1000,4.0175,1.6,5363,1010,feet,jsons/v1_VE1000_randls_39_rotated.json,994652,1283363,51,Man
34,824172,DepthScenes,duration_manipulation_targetAtFixation,jsons/v1_VE1000_randls_39_rotated.json,http://54.235.29.9/FacialAge/BNav_EC2/DepthDuration/v2_depth_duration_MTurk/v2_DepthDuration_HTML.html#153,153,2560,1080,2560,1080,8-22-2022,9-0-10,35,depth_duration_stimuli/003048_2014-06-15_13-49-43_094959634447_rgbf000150-resize_1/003048_2014-06-15_13-49-43_094959634447_rgbf000150-resize_1-target.png,1000,4.0035,3.2,5074,1007,feet,jsons/v1_VE1000_randls_39_rotated.json,994652,1283363,51,Man
35,824172,DepthScenes,duration_manipulation_targetAtFixation,jsons/v1_VE1000_randls_39_rotated.json,http://54.235.29.9/FacialAge/BNav_EC2/DepthDuration/v2_depth_duration_MTurk/v2_DepthDuration_HTML.html#153,153,2560,1080,2560,1080,8-22-2022,9-0-10,36,depth_duration_stimuli/002043_2014-06-24_20-29-38_260595134347_rgbf000039-resize_4/002043_2014-06-24_20-29-38_260595134347_rgbf000039-resize_4-target.png,1000,2.8435,2.7,6707,1009,feet,jsons/v1_VE1000_randls_39_rotated.json,994652,1283363,51,Man
36,824172,DepthScenes,duration_manipulation_targetAtFixation,jsons/v1_VE1000_randls_39_rotated.json,http://54.235.29.9/FacialAge/BNav_EC2/DepthDuration/v2_depth_duration_MTurk/v2_DepthDuration_HTML.html#153,153,2560,1080,2560,1080,8-22-2022,9-0-10,37,depth_duration_stimuli/000749_2014-06-08_21-55-06_260595134347_rgbf000070-resize_2/000749_2014-06-08_21-55-06_260595134347_rgbf000070-resize_2-target.png,1000,2.331,3.2,4779,1002,feet,jsons/v1_VE1000_randls_39_rotated.json,994652,1283363,51,Man
37,824172,DepthScenes,duration_manipulation_targetAtFixation,jsons/v1_VE1000_randls_39_rotated.json,http://54.235.29.9/FacialAge/BNav_EC2/DepthDuration/v2_depth_duration_MTurk/v2_DepthDuration_HTML.html#153,153,2560,1080,2560,1080,8-22-2022,9-0-10,38,depth_duration_stimuli/002788_2014-06-22_19-36-03_094959634447_rgbf000088-resize_2/002788_2014-06-22_19-36-03_094959634447_rgbf000088-resize_2-target.png,1000,1.6465,3.0,4227,1010,feet,jsons/v1_VE1000_randls_39_rotated.json,994652,1283363,51,Man
38,824172,DepthScenes,duration_manipulation_targetAtFixation,jsons/v1_VE1000_randls_39_rotated.json,http://54.235.29.9/FacialAge/BNav_EC2/DepthDuration/v2_depth_duration_MTurk/v2_DepthDuration_HTML.html#153,153,2560,1080,2560,1080,8-22-2022,9-0-10,39,depth_duration_stimuli/001584_2014-06-20_11-07-43_260595134347_rgbf000002-resize_1/001584_2014-06-20_11-07-43_260595134347_rgbf000002-resize_1-target.png,1000,3.53,3.8,5131,1000,feet,jsons/v1_VE1000_randls_39_rotated.json,994652,1283363,51,Man
39,824172,DepthScenes,duration_manipulation_targetAtFixation,jsons/v1_VE1000_randls_39_rotated.json,http://54.235.29.9/FacialAge/BNav_EC2/DepthDuration/v2_depth_duration_MTurk/v2_DepthDuration_HTML.html#153,153,2560,1080,2560,1080,8-22-2022,9-0-10,40,depth_duration_stimuli/003621_2014-05-23_18-06-08_094959634447_rgbf000101-resize_1/003621_2014-05-23_18-06-08_094959634447_rgbf000101-resize_1-target.png,1000,3.9835,5.0,4548,1016,feet,jsons/v1_VE1000_randls_39_rotated.json,994652,1283363,51,Man
40,824172,DepthScenes,duration_manipulation_targetAtFixation,jsons/v1_VE1000_randls_39_rotated.json,http://54.235.29.9/FacialAge/BNav_EC2/DepthDuration/v2_depth_duration_MTurk/v2_DepthDuration_HTML.html#153,153,2560,1080,2560,1080,8-22-2022,9-0-10,41,depth_duration_stimuli/000742_2014-06-08_18-48-09_260595134347_rgbf000164-resize_4/000742_2014-06-08_18-48-09_260595134347_rgbf000164-resize_4-target.png,1000,4.632,3.4,5163,1002,feet,jsons/v1_VE1000_randls_39_rotated.json,994652,1283363,51,Man
41,824172,DepthScenes,duration_manipulation_targetAtFixation,jsons/v1_VE1000_randls_39_rotated.json,http://54.235.29.9/FacialAge/BNav_EC2/DepthDuration/v2_depth_duration_MTurk/v2_DepthDuration_HTML.html#153,153,2560,1080,2560,1080,8-22-2022,9-0-10,42,depth_duration_stimuli/001066_2014-06-08_22-03-20_260595134347_rgbf000066-resize_4/001066_2014-06-08_22-03-20_260595134347_rgbf000066-resize_4-target.png,1000,4.2330000000000005,5.0,6380,999,feet,jsons/v1_VE1000_randls_39_rotated.json,994652,1283363,51,Man
42,824172,DepthScenes,duration_manipulation_targetAtFixation,jsons/v1_VE1000_randls_39_rotated.json,http://54.235.29.9/FacialAge/BNav_EC2/DepthDuration/v2_depth_duration_MTurk/v2_DepthDuration_HTML.html#153,153,2560,1080,2560,1080,8-22-2022,9-0-10,43,depth_duration_stimuli/002660_2014-06-13_15-44-18_094959634447_rgbf001878-resize_2/002660_2014-06-13_15-44-18_094959634447_rgbf001878-resize_2-target.png,1000,3.576,3.2,5098,1010,feet,jsons/v1_VE1000_randls_39_rotated.json,994652,1283363,51,Man
43,824172,DepthScenes,duration_manipulation_targetAtFixation,jsons/v1_VE1000_randls_39_rotated.json,http://54.235.29.9/FacialAge/BNav_EC2/DepthDuration/v2_depth_duration_MTurk/v2_DepthDuration_HTML.html#153,153,2560,1080,2560,1080,8-22-2022,9-0-10,44,depth_duration_stimuli/002153_2014-06-25_21-27-18_260595134347_rgbf000038-resize_5/002153_2014-06-25_21-27-18_260595134347_rgbf000038-resize_5-target.png,1000,2.505,2.75,5331,1008,feet,jsons/v1_VE1000_randls_39_rotated.json,994652,1283363,51,Man
44,824172,DepthScenes,duration_manipulation_targetAtFixation,jsons/v1_VE1000_randls_39_rotated.json,http://54.235.29.9/FacialAge/BNav_EC2/DepthDuration/v2_depth_duration_MTurk/v2_DepthDuration_HTML.html#153,153,2560,1080,2560,1080,8-22-2022,9-0-10,45,depth_duration_stimuli/003083_2014-06-15_15-21-03_094959634447_rgbf000063-resize_1/003083_2014-06-15_15-21-03_094959634447_rgbf000063-resize_1-target.png,1000,4.1405,5.7,8691,1000,feet,jsons/v1_VE1000_randls_39_rotated.json,994652,1283363,51,Man
45,824172,DepthScenes,duration_manipulation_targetAtFixation,jsons/v1_VE1000_randls_39_rotated.json,http://54.235.29.9/FacialAge/BNav_EC2/DepthDuration/v2_depth_duration_MTurk/v2_DepthDuration_HTML.html#153,153,2560,1080,2560,1080,8-22-2022,9-0-10,46,depth_duration_stimuli/000486_2014-06-09_20-47-20_260595134347_rgbf000143-resize_2/000486_2014-06-09_20-47-20_260595134347_rgbf000143-resize_2-target.png,1000,4.8325,3.4,5555,1004,feet,jsons/v1_VE1000_randls_39_rotated.json,994652,1283363,51,Man
46,824172,DepthScenes,duration_manipulation_targetAtFixation,jsons/v1_VE1000_randls_39_rotated.json,http://54.235.29.9/FacialAge/BNav_EC2/DepthDuration/v2_depth_duration_MTurk/v2_DepthDuration_HTML.html#153,153,2560,1080,2560,1080,8-22-2022,9-0-10,47,depth_duration_stimuli/003010_2014-06-15_12-54-35_094959634447_rgbf000112-resize_0/003010_2014-06-15_12-54-35_094959634447_rgbf000112-resize_0-target.png,1000,3.1185,6.4,5306,1003,feet,jsons/v1_VE1000_randls_39_rotated.json,994652,1283363,51,Man
47,824172,DepthScenes,duration_manipulation_targetAtFixation,jsons/v1_VE1000_randls_39_rotated.json,http://54.235.29.9/FacialAge/BNav_EC2/DepthDuration/v2_depth_duration_MTurk/v2_DepthDuration_HTML.html#153,153,2560,1080,2560,1080,8-22-2022,9-0-10,48,depth_duration_stimuli/001810_2014-06-26_20-51-35_260595134347_rgbf000040-resize_3/001810_2014-06-26_20-51-35_260595134347_rgbf000040-resize_3-target.png,1000,2.2525,2.8,5466,1005,feet,jsons/v1_VE1000_randls_39_rotated.json,994652,1283363,51,Man
48,824172,DepthScenes,duration_manipulation_targetAtFixation,jsons/v1_VE1000_randls_39_rotated.json,http://54.235.29.9/FacialAge/BNav_EC2/DepthDuration/v2_depth_duration_MTurk/v2_DepthDuration_HTML.html#153,153,2560,1080,2560,1080,8-22-2022,9-0-10,49,depth_duration_stimuli/001170_2014-06-17_15-43-44_260595134347_rgbf000096-resize_6/001170_2014-06-17_15-43-44_260595134347_rgbf000096-resize-original.jpg,1000,1.1909999999999998,0.0,5682,1002,feet,jsons/v1_VE1000_randls_39_rotated.json,994652,1283363,51,Man
49,824172,DepthScenes,duration_manipulation_targetAtFixation,jsons/v1_VE1000_randls_39_rotated.json,http://54.235.29.9/FacialAge/BNav_EC2/DepthDuration/v2_depth_duration_MTurk/v2_DepthDuration_HTML.html#153,153,2560,1080,2560,1080,8-22-2022,9-0-10,50,depth_duration_stimuli/002995_2014-06-15_12-31-26_094959634447_rgbf000150-resize_1/002995_2014-06-15_12-31-26_094959634447_rgbf000150-resize_1-target.png,1000,3.8360000000000003,3.2,5171,1011,feet,jsons/v1_VE1000_randls_39_rotated.json,994652,1283363,51,Man
50,824172,DepthScenes,duration_manipulation_targetAtFixation,jsons/v1_VE1000_randls_39_rotated.json,http://54.235.29.9/FacialAge/BNav_EC2/DepthDuration/v2_depth_duration_MTurk/v2_DepthDuration_HTML.html#153,153,2560,1080,2560,1080,8-22-2022,9-0-10,51,depth_duration_stimuli/002748_2014-06-22_19-07-22_094959634447_rgbf000078-resize_1/002748_2014-06-22_19-07-22_094959634447_rgbf000078-resize_1-target.png,1000,4.6705,4.5,7507,1001,feet,jsons/v1_VE1000_randls_39_rotated.json,994652,1283363,51,Man
51,824172,DepthScenes,duration_manipulation_targetAtFixation,jsons/v1_VE1000_randls_39_rotated.json,http://54.235.29.9/FacialAge/BNav_EC2/DepthDuration/v2_depth_duration_MTurk/v2_DepthDuration_HTML.html#153,153,2560,1080,2560,1080,8-22-2022,9-0-10,52,depth_duration_stimuli/002103_2014-06-25_20-00-40_260595134347_rgbf000049-resize_0/002103_2014-06-25_20-00-40_260595134347_rgbf000049-resize_0-target.png,1000,4.105,4.2,6043,1000,feet,jsons/v1_VE1000_randls_39_rotated.json,994652,1283363,51,Man
52,824172,DepthScenes,duration_manipulation_targetAtFixation,jsons/v1_VE1000_randls_39_rotated.json,http://54.235.29.9/FacialAge/BNav_EC2/DepthDuration/v2_depth_duration_MTurk/v2_DepthDuration_HTML.html#153,153,2560,1080,2560,1080,8-22-2022,9-0-10,53,depth_duration_stimuli/002039_2014-06-24_20-22-38_260595134347_rgbf000084-resize_1/002039_2014-06-24_20-22-38_260595134347_rgbf000084-resize_1-target.png,1000,4.408,3.2,10895,1001,feet,jsons/v1_VE1000_randls_39_rotated.json,994652,1283363,51,Man
53,824172,DepthScenes,duration_manipulation_targetAtFixation,jsons/v1_VE1000_randls_39_rotated.json,http://54.235.29.9/FacialAge/BNav_EC2/DepthDuration/v2_depth_duration_MTurk/v2_DepthDuration_HTML.html#153,153,2560,1080,2560,1080,8-22-2022,9-0-10,54,depth_duration_stimuli/002340_2014-06-28_20-05-46_260595134347_rgbf000113-resize_0/002340_2014-06-28_20-05-46_260595134347_rgbf000113-resize_0-target.png,1000,2.4735,5.6,4375,1005,feet,jsons/v1_VE1000_randls_39_rotated.json,994652,1283363,51,Man
54,824172,DepthScenes,duration_manipulation_targetAtFixation,jsons/v1_VE1000_randls_39_rotated.json,http://54.235.29.9/FacialAge/BNav_EC2/DepthDuration/v2_depth_duration_MTurk/v2_DepthDuration_HTML.html#153,153,2560,1080,2560,1080,8-22-2022,9-0-10,55,depth_duration_stimuli/001016_2014-06-09_16-16-10_260595134347_rgbf000112-resize_5/001016_2014-06-09_16-16-10_260595134347_rgbf000112-resize_5-target.png,1000,1.6565,4.0,5136,1002,feet,jsons/v1_VE1000_randls_39_rotated.json,994652,1283363,51,Man
55,824172,DepthScenes,duration_manipulation_targetAtFixation,jsons/v1_VE1000_randls_39_rotated.json,http://54.235.29.9/FacialAge/BNav_EC2/DepthDuration/v2_depth_duration_MTurk/v2_DepthDuration_HTML.html#153,153,2560,1080,2560,1080,8-22-2022,9-0-10,56,depth_duration_stimuli/003338_2014-05-20_11-01-23_094959634447_rgbf000051-resize_6/003338_2014-05-20_11-01-23_094959634447_rgbf000051-resize_6-target.png,1000,1.693,3.2,4309,1000,feet,jsons/v1_VE1000_randls_39_rotated.json,994652,1283363,51,Man
56,824172,DepthScenes,duration_manipulation_targetAtFixation,jsons/v1_VE1000_randls_39_rotated.json,http://54.235.29.9/FacialAge/BNav_EC2/DepthDuration/v2_depth_duration_MTurk/v2_DepthDuration_HTML.html#153,153,2560,1080,2560,1080,8-22-2022,9-0-10,57,depth_duration_stimuli/002509_2014-06-24_13-19-22_094959634447_rgbf000077-resize_0/002509_2014-06-24_13-19-22_094959634447_rgbf000077-resize_0-target.png,1000,1.3065,3.2,5113,1003,feet,jsons/v1_VE1000_randls_39_rotated.json,994652,1283363,51,Man
57,824172,DepthScenes,duration_manipulation_targetAtFixation,jsons/v1_VE1000_randls_39_rotated.json,http://54.235.29.9/FacialAge/BNav_EC2/DepthDuration/v2_depth_duration_MTurk/v2_DepthDuration_HTML.html#153,153,2560,1080,2560,1080,8-22-2022,9-0-10,58,depth_duration_stimuli/000734_2014-06-08_17-39-11_260595134347_rgbf000128-resize_2/000734_2014-06-08_17-39-11_260595134347_rgbf000128-resize_2-target.png,1000,4.098,4.5,4313,1002,feet,jsons/v1_VE1000_randls_39_rotated.json,994652,1283363,51,Man
58,824172,DepthScenes,duration_manipulation_targetAtFixation,jsons/v1_VE1000_randls_39_rotated.json,http://54.235.29.9/FacialAge/BNav_EC2/DepthDuration/v2_depth_duration_MTurk/v2_DepthDuration_HTML.html#153,153,2560,1080,2560,1080,8-22-2022,9-0-10,59,depth_duration_stimuli/000739_2014-06-08_18-45-58_260595134347_rgbf000068-resize_1/000739_2014-06-08_18-45-58_260595134347_rgbf000068-resize_1-target.png,1000,3.534,3.1,4284,994,feet,jsons/v1_VE1000_randls_39_rotated.json,994652,1283363,51,Man
59,824172,DepthScenes,duration_manipulation_targetAtFixation,jsons/v1_VE1000_randls_39_rotated.json,http://54.235.29.9/FacialAge/BNav_EC2/DepthDuration/v2_depth_duration_MTurk/v2_DepthDuration_HTML.html#153,153,2560,1080,2560,1080,8-22-2022,9-0-10,60,depth_duration_stimuli/002750_2014-06-22_19-08-03_094959634447_rgbf000094-resize_4/002750_2014-06-22_19-08-03_094959634447_rgbf000094-resize_4-target.png,1000,2.354,4.0,4210,1001,feet,jsons/v1_VE1000_randls_39_rotated.json,994652,1283363,51,Man
60,824172,DepthScenes,duration_manipulation_targetAtFixation,jsons/v1_VE1000_randls_39_rotated.json,http://54.235.29.9/FacialAge/BNav_EC2/DepthDuration/v2_depth_duration_MTurk/v2_DepthDuration_HTML.html#153,153,2560,1080,2560,1080,8-22-2022,9-0-10,61,depth_duration_stimuli/002549_2014-06-24_13-41-39_094959634447_rgbf000022-resize_3/002549_2014-06-24_13-41-39_094959634447_rgbf000022-resize_3-target.png,1000,1.476,2.7,7473,1001,feet,jsons/v1_VE1000_randls_39_rotated.json,994652,1283363,51,Man
61,824172,DepthScenes,duration_manipulation_targetAtFixation,jsons/v1_VE1000_randls_39_rotated.json,http://54.235.29.9/FacialAge/BNav_EC2/DepthDuration/v2_depth_duration_MTurk/v2_DepthDuration_HTML.html#153,153,2560,1080,2560,1080,8-22-2022,9-0-10,62,depth_duration_stimuli/003228_2014-05-14_13-42-35_094959634447_rgbf000101-resize_1/003228_2014-05-14_13-42-35_094959634447_rgbf000101-resize_1-target.png,1000,1.9680000000000002,2.75,4724,1003,feet,jsons/v1_VE1000_randls_39_rotated.json,994652,1283363,51,Man
62,824172,DepthScenes,duration_manipulation_targetAtFixation,jsons/v1_VE1000_randls_39_rotated.json,http://54.235.29.9/FacialAge/BNav_EC2/DepthDuration/v2_depth_duration_MTurk/v2_DepthDuration_HTML.html#153,153,2560,1080,2560,1080,8-22-2022,9-0-10,63,depth_duration_stimuli/002600_2014-06-24_14-27-04_094959634447_rgbf000074-resize_2/002600_2014-06-24_14-27-04_094959634447_rgbf000074-resize_2-target.png,1000,2.7575,2.5,4002,1002,feet,jsons/v1_VE1000_randls_39_rotated.json,994652,1283363,51,Man
63,824172,DepthScenes,duration_manipulation_targetAtFixation,jsons/v1_VE1000_randls_39_rotated.json,http://54.235.29.9/FacialAge/BNav_EC2/DepthDuration/v2_depth_duration_MTurk/v2_DepthDuration_HTML.html#153,153,2560,1080,2560,1080,8-22-2022,9-0-10,64,depth_duration_stimuli/000665_2014-06-09_20-42-35_260595134347_rgbf000110-resize_1/000665_2014-06-09_20-42-35_260595134347_rgbf000110-resize_1-target.png,1000,3.057,2.6,4461,990,feet,jsons/v1_VE1000_randls_39_rotated.json,994652,1283363,51,Man
64,824172,DepthScenes,duration_manipulation_targetAtFixation,jsons/v1_VE1000_randls_39_rotated.json,http://54.235.29.9/FacialAge/BNav_EC2/DepthDuration/v2_depth_duration_MTurk/v2_DepthDuration_HTML.html#153,153,2560,1080,2560,1080,8-22-2022,9-0-10,65,depth_duration_stimuli/001150_2014-06-17_15-27-34_260595134347_rgbf000108-resize_2/001150_2014-06-17_15-27-34_260595134347_rgbf000108-resize_2-target.png,1000,4.0325,3.2,6095,1003,feet,jsons/v1_VE1000_randls_39_rotated.json,994652,1283363,51,Man
65,824172,DepthScenes,duration_manipulation_targetAtFixation,jsons/v1_VE1000_randls_39_rotated.json,http://54.235.29.9/FacialAge/BNav_EC2/DepthDuration/v2_depth_duration_MTurk/v2_DepthDuration_HTML.html#153,153,2560,1080,2560,1080,8-22-2022,9-0-10,66,depth_duration_stimuli/001540_2014-06-20_17-01-05_260595134347_rgbf000086-resize_2/001540_2014-06-20_17-01-05_260595134347_rgbf000086-resize-original.jpg,1000,1.459,0.0,3256,992,feet,jsons/v1_VE1000_randls_39_rotated.json,994652,1283363,51,Man
66,824172,DepthScenes,duration_manipulation_targetAtFixation,jsons/v1_VE1000_randls_39_rotated.json,http://54.235.29.9/FacialAge/BNav_EC2/DepthDuration/v2_depth_duration_MTurk/v2_DepthDuration_HTML.html#153,153,2560,1080,2560,1080,8-22-2022,9-0-10,67,depth_duration_stimuli/003495_2014-05-21_16-01-51_094959634447_rgbf000100-resize_3/003495_2014-05-21_16-01-51_094959634447_rgbf000100-resize_3-target.png,1000,1.6255,2.0,4784,991,feet,jsons/v1_VE1000_randls_39_rotated.json,994652,1283363,51,Man
67,824172,DepthScenes,duration_manipulation_targetAtFixation,jsons/v1_VE1000_randls_39_rotated.json,http://54.235.29.9/FacialAge/BNav_EC2/DepthDuration/v2_depth_duration_MTurk/v2_DepthDuration_HTML.html#153,153,2560,1080,2560,1080,8-22-2022,9-0-10,68,depth_duration_stimuli/001244_2014-06-17_16-47-45_260595134347_rgbf000030-resize_4/001244_2014-06-17_16-47-45_260595134347_rgbf000030-resize_4-target.png,1000,2.0425,2.5,4012,1004,feet,jsons/v1_VE1000_randls_39_rotated.json,994652,1283363,51,Man
68,824172,DepthScenes,duration_manipulation_targetAtFixation,jsons/v1_VE1000_randls_39_rotated.json,http://54.235.29.9/FacialAge/BNav_EC2/DepthDuration/v2_depth_duration_MTurk/v2_DepthDuration_HTML.html#153,153,2560,1080,2560,1080,8-22-2022,9-0-10,69,depth_duration_stimuli/002639_2014-06-24_14-51-37_094959634447_rgbf000074-resize_4/002639_2014-06-24_14-51-37_094959634447_rgbf000074-resize_4-target.png,1000,4.0375,3.2,4369,988,feet,jsons/v1_VE1000_randls_39_rotated.json,994652,1283363,51,Man
69,824172,DepthScenes,duration_manipulation_targetAtFixation,jsons/v1_VE1000_randls_39_rotated.json,http://54.235.29.9/FacialAge/BNav_EC2/DepthDuration/v2_depth_duration_MTurk/v2_DepthDuration_HTML.html#153,153,2560,1080,2560,1080,8-22-2022,9-0-10,70,depth_duration_stimuli/003292_2014-05-14_21-53-49_094959634447_rgbf000100-resize_2/003292_2014-05-14_21-53-49_094959634447_rgbf000100-resize_2-target.png,1000,3.4815,3.5,4200,1008,feet,jsons/v1_VE1000_randls_39_rotated.json,994652,1283363,51,Man
70,824172,DepthScenes,duration_manipulation_targetAtFixation,jsons/v1_VE1000_randls_39_rotated.json,http://54.235.29.9/FacialAge/BNav_EC2/DepthDuration/v2_depth_duration_MTurk/v2_DepthDuration_HTML.html#153,153,2560,1080,2560,1080,8-22-2022,9-0-10,71,depth_duration_stimuli/002199_2014-06-28_18-33-56_260595134347_rgbf000074-resize_0/002199_2014-06-28_18-33-56_260595134347_rgbf000074-resize_0-target.png,1000,1.996,2.75,3887,1001,feet,jsons/v1_VE1000_randls_39_rotated.json,994652,1283363,51,Man
71,824172,DepthScenes,duration_manipulation_targetAtFixation,jsons/v1_VE1000_randls_39_rotated.json,http://54.235.29.9/FacialAge/BNav_EC2/DepthDuration/v2_depth_duration_MTurk/v2_DepthDuration_HTML.html#153,153,2560,1080,2560,1080,8-22-2022,9-0-10,72,depth_duration_stimuli/001056_2014-06-08_18-46-44_260595134347_rgbf000068-resize_0/001056_2014-06-08_18-46-44_260595134347_rgbf000068-resize_0-target.png,1000,2.6625,2.6,5591,1006,feet,jsons/v1_VE1000_randls_39_rotated.json,994652,1283363,51,Man
72,824172,DepthScenes,duration_manipulation_targetAtFixation,jsons/v1_VE1000_randls_39_rotated.json,http://54.235.29.9/FacialAge/BNav_EC2/DepthDuration/v2_depth_duration_MTurk/v2_DepthDuration_HTML.html#153,153,2560,1080,2560,1080,8-22-2022,9-0-10,73,depth_duration_stimuli/001815_2014-06-26_20-52-55_260595134347_rgbf000020-resize_0/001815_2014-06-26_20-52-55_260595134347_rgbf000020-resize_0-target.png,1000,3.3865,6.0,3471,1005,feet,jsons/v1_VE1000_randls_39_rotated.json,994652,1283363,51,Man
73,824172,DepthScenes,duration_manipulation_targetAtFixation,jsons/v1_VE1000_randls_39_rotated.json,http://54.235.29.9/FacialAge/BNav_EC2/DepthDuration/v2_depth_duration_MTurk/v2_DepthDuration_HTML.html#153,153,2560,1080,2560,1080,8-22-2022,9-0-10,74,depth_duration_stimuli/001808_2014-06-26_20-50-58_260595134347_rgbf000029-resize_1/001808_2014-06-26_20-50-58_260595134347_rgbf000029-resize_1-target.png,1000,4.249,6.0,3782,997,feet,jsons/v1_VE1000_randls_39_rotated.json,994652,1283363,51,Man
74,824172,DepthScenes,duration_manipulation_targetAtFixation,jsons/v1_VE1000_randls_39_rotated.json,http://54.235.29.9/FacialAge/BNav_EC2/DepthDuration/v2_depth_duration_MTurk/v2_DepthDuration_HTML.html#153,153,2560,1080,2560,1080,8-22-2022,9-0-10,75,depth_duration_stimuli/002425_2014-06-28_20-27-29_260595134347_rgbf000031-resize_8/002425_2014-06-28_20-27-29_260595134347_rgbf000031-resize_8-target.png,1000,3.8960000000000004,5.5,3803,989,feet,jsons/v1_VE1000_randls_39_rotated.json,994652,1283363,51,Man
75,824172,DepthScenes,duration_manipulation_targetAtFixation,jsons/v1_VE1000_randls_39_rotated.json,http://54.235.29.9/FacialAge/BNav_EC2/DepthDuration/v2_depth_duration_MTurk/v2_DepthDuration_HTML.html#153,153,2560,1080,2560,1080,8-22-2022,9-0-10,76,depth_duration_stimuli/000642_2014-06-08_16-59-25_260595134347_rgbf000098-resize_2/000642_2014-06-08_16-59-25_260595134347_rgbf000098-resize_2-target.png,1000,2.8815,3.0,4444,1002,feet,jsons/v1_VE1000_randls_39_rotated.json,994652,1283363,51,Man
76,824172,DepthScenes,duration_manipulation_targetAtFixation,jsons/v1_VE1000_randls_39_rotated.json,http://54.235.29.9/FacialAge/BNav_EC2/DepthDuration/v2_depth_duration_MTurk/v2_DepthDuration_HTML.html#153,153,2560,1080,2560,1080,8-22-2022,9-0-10,77,depth_duration_stimuli/001450_2014-06-19_17-02-03_260595134347_rgbf000203-resize_4/001450_2014-06-19_17-02-03_260595134347_rgbf000203-resize_4-target.png,1000,4.0106666666667,3.3,3751,988,feet,jsons/v1_VE1000_randls_39_rotated.json,994652,1283363,51,Man
77,824172,DepthScenes,duration_manipulation_targetAtFixation,jsons/v1_VE1000_randls_39_rotated.json,http://54.235.29.9/FacialAge/BNav_EC2/DepthDuration/v2_depth_duration_MTurk/v2_DepthDuration_HTML.html#153,153,2560,1080,2560,1080,8-22-2022,9-0-10,78,depth_duration_stimuli/001449_2014-06-19_17-01-27_260595134347_rgbf000116-resize_2/001449_2014-06-19_17-01-27_260595134347_rgbf000116-resize_2-target.png,1000,3.452,3.2,5147,995,feet,jsons/v1_VE1000_randls_39_rotated.json,994652,1283363,51,Man
78,824172,DepthScenes,duration_manipulation_targetAtFixation,jsons/v1_VE1000_randls_39_rotated.json,http://54.235.29.9/FacialAge/BNav_EC2/DepthDuration/v2_depth_duration_MTurk/v2_DepthDuration_HTML.html#153,153,2560,1080,2560,1080,8-22-2022,9-0-10,79,depth_duration_stimuli/000780_2014-06-08_22-28-29_260595134347_rgbf000126-resize_1/000780_2014-06-08_22-28-29_260595134347_rgbf000126-resize_1-target.png,1000,3.3825,4.5,3848,992,feet,jsons/v1_VE1000_randls_39_rotated.json,994652,1283363,51,Man
79,824172,DepthScenes,duration_manipulation_targetAtFixation,jsons/v1_VE1000_randls_39_rotated.json,http://54.235.29.9/FacialAge/BNav_EC2/DepthDuration/v2_depth_duration_MTurk/v2_DepthDuration_HTML.html#153,153,2560,1080,2560,1080,8-22-2022,9-0-10,80,depth_duration_stimuli/002445_2014-06-28_20-32-16_260595134347_rgbf000029-resize_4/002445_2014-06-28_20-32-16_260595134347_rgbf000029-resize_4-target.png,1000,2.5315,2.75,3934,1003,feet,jsons/v1_VE1000_randls_39_rotated.json,994652,1283363,51,Man
80,824172,DepthScenes,duration_manipulation_targetAtFixation,jsons/v1_VE1000_randls_39_rotated.json,http://54.235.29.9/FacialAge/BNav_EC2/DepthDuration/v2_depth_duration_MTurk/v2_DepthDuration_HTML.html#153,153,2560,1080,2560,1080,8-22-2022,9-0-10,81,depth_duration_stimuli/000635_2014-06-08_16-38-42_260595134347_rgbf000106-resize_1/000635_2014-06-08_16-38-42_260595134347_rgbf000106-resize_1-target.png,1000,2.074,3.25,4828,1001,feet,jsons/v1_VE1000_randls_39_rotated.json,994652,1283363,51,Man
81,824172,DepthScenes,duration_manipulation_targetAtFixation,jsons/v1_VE1000_randls_39_rotated.json,http://54.235.29.9/FacialAge/BNav_EC2/DepthDuration/v2_depth_duration_MTurk/v2_DepthDuration_HTML.html#153,153,2560,1080,2560,1080,8-22-2022,9-0-10,82,depth_duration_stimuli/002279_2014-06-28_18-55-32_260595134347_rgbf000040-resize_5/002279_2014-06-28_18-55-32_260595134347_rgbf000040-resize_5-target.png,1000,1.5043333333333,2.6,4165,1005,feet,jsons/v1_VE1000_randls_39_rotated.json,994652,1283363,51,Man
82,824172,DepthScenes,duration_manipulation_targetAtFixation,jsons/v1_VE1000_randls_39_rotated.json,http://54.235.29.9/FacialAge/BNav_EC2/DepthDuration/v2_depth_duration_MTurk/v2_DepthDuration_HTML.html#153,153,2560,1080,2560,1080,8-22-2022,9-0-10,83,depth_duration_stimuli/000854_2014-06-09_19-43-13_260595134347_rgbf000066-resize_0/000854_2014-06-09_19-43-13_260595134347_rgbf000066-resize_0-target.png,1000,3.068,1.7,4675,1005,feet,jsons/v1_VE1000_randls_39_rotated.json,994652,1283363,51,Man
83,824172,DepthScenes,duration_manipulation_targetAtFixation,jsons/v1_VE1000_randls_39_rotated.json,http://54.235.29.9/FacialAge/BNav_EC2/DepthDuration/v2_depth_duration_MTurk/v2_DepthDuration_HTML.html#153,153,2560,1080,2560,1080,8-22-2022,9-0-10,84,depth_duration_stimuli/000758_2014-06-08_22-05-08_260595134347_rgbf000085-resize_0/000758_2014-06-08_22-05-08_260595134347_rgbf000085-resize_0-target.png,1000,3.3810000000000002,3.2,4232,992,feet,jsons/v1_VE1000_randls_39_rotated.json,994652,1283363,51,Man
84,824172,DepthScenes,duration_manipulation_targetAtFixation,jsons/v1_VE1000_randls_39_rotated.json,http://54.235.29.9/FacialAge/BNav_EC2/DepthDuration/v2_depth_duration_MTurk/v2_DepthDuration_HTML.html#153,153,2560,1080,2560,1080,8-22-2022,9-0-10,85,depth_duration_stimuli/003423_2014-05-21_10-23-26_094959634447_rgbf002665-resize_2/003423_2014-05-21_10-23-26_094959634447_rgbf002665-resize_2-target.png,1000,3.2575,0.75,4253,1002,feet,jsons/v1_VE1000_randls_39_rotated.json,994652,1283363,51,Man
85,824172,DepthScenes,duration_manipulation_targetAtFixation,jsons/v1_VE1000_randls_39_rotated.json,http://54.235.29.9/FacialAge/BNav_EC2/DepthDuration/v2_depth_duration_MTurk/v2_DepthDuration_HTML.html#153,153,2560,1080,2560,1080,8-22-2022,9-0-10,86,depth_duration_stimuli/002905_2014-06-03_18-04-43_094959634447_rgbf000151-resize_2/002905_2014-06-03_18-04-43_094959634447_rgbf000151-resize_2-target.png,1000,2.0295,1.25,4125,1006,feet,jsons/v1_VE1000_randls_39_rotated.json,994652,1283363,51,Man
86,824172,DepthScenes,duration_manipulation_targetAtFixation,jsons/v1_VE1000_randls_39_rotated.json,http://54.235.29.9/FacialAge/BNav_EC2/DepthDuration/v2_depth_duration_MTurk/v2_DepthDuration_HTML.html#153,153,2560,1080,2560,1080,8-22-2022,9-0-10,87,depth_duration_stimuli/000502_2014-06-08_23-02-32_260595134347_rgbf000063-resize_4/000502_2014-06-08_23-02-32_260595134347_rgbf000063-resize_4-target.png,1000,2.431,2.0,3189,1003,feet,jsons/v1_VE1000_randls_39_rotated.json,994652,1283363,51,Man
87,824172,DepthScenes,duration_manipulation_targetAtFixation,jsons/v1_VE1000_randls_39_rotated.json,http://54.235.29.9/FacialAge/BNav_EC2/DepthDuration/v2_depth_duration_MTurk/v2_DepthDuration_HTML.html#153,153,2560,1080,2560,1080,8-22-2022,9-0-10,88,depth_duration_stimuli/001199_2014-06-17_16-03-48_260595134347_rgbf000077-resize_0/001199_2014-06-17_16-03-48_260595134347_rgbf000077-resize_0-target.png,1000,3.4375,4.0,4126,987,feet,jsons/v1_VE1000_randls_39_rotated.json,994652,1283363,51,Man
88,824172,DepthScenes,duration_manipulation_targetAtFixation,jsons/v1_VE1000_randls_39_rotated.json,http://54.235.29.9/FacialAge/BNav_EC2/DepthDuration/v2_depth_duration_MTurk/v2_DepthDuration_HTML.html#153,153,2560,1080,2560,1080,8-22-2022,9-0-10,89,depth_duration_stimuli/000483_2014-06-09_20-41-45_260595134347_rgbf000116-resize_4/000483_2014-06-09_20-41-45_260595134347_rgbf000116-resize_4-target.png,1000,1.337,2.5,3655,1004,feet,jsons/v1_VE1000_randls_39_rotated.json,994652,1283363,51,Man
89,824172,DepthScenes,duration_manipulation_targetAtFixation,jsons/v1_VE1000_randls_39_rotated.json,http://54.235.29.9/FacialAge/BNav_EC2/DepthDuration/v2_depth_duration_MTurk/v2_DepthDuration_HTML.html#153,153,2560,1080,2560,1080,8-22-2022,9-0-10,90,depth_duration_stimuli/000469_2014-06-09_19-42-10_260595134347_rgbf000081-resize_1/000469_2014-06-09_19-42-10_260595134347_rgbf000081-resize_1-target.png,1000,1.652,2.5,3562,1008,feet,jsons/v1_VE1000_randls_39_rotated.json,994652,1283363,51,Man
90,824172,DepthScenes,duration_manipulation_targetAtFixation,jsons/v1_VE1000_randls_39_rotated.json,http://54.235.29.9/FacialAge/BNav_EC2/DepthDuration/v2_depth_duration_MTurk/v2_DepthDuration_HTML.html#153,153,2560,1080,2560,1080,8-22-2022,9-0-10,91,depth_duration_stimuli/000109_2014-05-14_23-41-52_260595134347_rgbf000035-resize_9/000109_2014-05-14_23-41-52_260595134347_rgbf000035-resize_9-target.png,1000,1.3545,1.2,3401,990,feet,jsons/v1_VE1000_randls_39_rotated.json,994652,1283363,51,Man
91,824172,DepthScenes,duration_manipulation_targetAtFixation,jsons/v1_VE1000_randls_39_rotated.json,http://54.235.29.9/FacialAge/BNav_EC2/DepthDuration/v2_depth_duration_MTurk/v2_DepthDuration_HTML.html#153,153,2560,1080,2560,1080,8-22-2022,9-0-10,92,depth_duration_stimuli/000470_2014-06-09_19-42-40_260595134347_rgbf000094-resize_1/000470_2014-06-09_19-42-40_260595134347_rgbf000094-resize_1-target.png,1000,1.831,2.6,5459,1004,feet,jsons/v1_VE1000_randls_39_rotated.json,994652,1283363,51,Man
92,824172,DepthScenes,duration_manipulation_targetAtFixation,jsons/v1_VE1000_randls_39_rotated.json,http://54.235.29.9/FacialAge/BNav_EC2/DepthDuration/v2_depth_duration_MTurk/v2_DepthDuration_HTML.html#153,153,2560,1080,2560,1080,8-22-2022,9-0-10,93,depth_duration_stimuli/000677_2014-06-08_23-10-32_260595134347_rgbf000158-resize_6/000677_2014-06-08_23-10-32_260595134347_rgbf000158-resize_6-target.png,1000,3.556,3.2,3351,999,feet,jsons/v1_VE1000_randls_39_rotated.json,994652,1283363,51,Man
93,824172,DepthScenes,duration_manipulation_targetAtFixation,jsons/v1_VE1000_randls_39_rotated.json,http://54.235.29.9/FacialAge/BNav_EC2/DepthDuration/v2_depth_duration_MTurk/v2_DepthDuration_HTML.html#153,153,2560,1080,2560,1080,8-22-2022,9-0-10,94,depth_duration_stimuli/001029_2014-06-08_13-17-57_260595134347_rgbf000065-resize_1/001029_2014-06-08_13-17-57_260595134347_rgbf000065-resize_1-target.png,1000,3.0835,3.6,3762,994,feet,jsons/v1_VE1000_randls_39_rotated.json,994652,1283363,51,Man
94,824172,DepthScenes,duration_manipulation_targetAtFixation,jsons/v1_VE1000_randls_39_rotated.json,http://54.235.29.9/FacialAge/BNav_EC2/DepthDuration/v2_depth_duration_MTurk/v2_DepthDuration_HTML.html#153,153,2560,1080,2560,1080,8-22-2022,9-0-10,95,depth_duration_stimuli/002953_2014-06-08_17-32-18_094959634447_rgbf000059-resize_5/002953_2014-06-08_17-32-18_094959634447_rgbf000059-resize_5-target.png,1000,1.551,3.5,3549,1005,feet,jsons/v1_VE1000_randls_39_rotated.json,994652,1283363,51,Man
95,824172,DepthScenes,duration_manipulation_targetAtFixation,jsons/v1_VE1000_randls_39_rotated.json,http://54.235.29.9/FacialAge/BNav_EC2/DepthDuration/v2_depth_duration_MTurk/v2_DepthDuration_HTML.html#153,153,2560,1080,2560,1080,8-22-2022,9-0-10,96,depth_duration_stimuli/000878_2014-06-08_22-52-45_260595134347_rgbf000045-resize_2/000878_2014-06-08_22-52-45_260595134347_rgbf000045-resize_2-target.png,1000,2.092,3.0,6210,991,feet,jsons/v1_VE1000_randls_39_rotated.json,994652,1283363,51,Man
96,824172,DepthScenes,duration_manipulation_targetAtFixation,jsons/v1_VE1000_randls_39_rotated.json,http://54.235.29.9/FacialAge/BNav_EC2/DepthDuration/v2_depth_duration_MTurk/v2_DepthDuration_HTML.html#153,153,2560,1080,2560,1080,8-22-2022,9-0-10,97,depth_duration_stimuli/001132_2014-06-17_14-48-54_260595134347_rgbf000100-resize_2/001132_2014-06-17_14-48-54_260595134347_rgbf000100-resize_2-target.png,1000,3.753,3.2,3376,993,feet,jsons/v1_VE1000_randls_39_rotated.json,994652,1283363,51,Man
97,824172,DepthScenes,duration_manipulation_targetAtFixation,jsons/v1_VE1000_randls_39_rotated.json,http://54.235.29.9/FacialAge/BNav_EC2/DepthDuration/v2_depth_duration_MTurk/v2_DepthDuration_HTML.html#153,153,2560,1080,2560,1080,8-22-2022,9-0-10,98,depth_duration_stimuli/001133_2014-06-17_14-49-16_260595134347_rgbf000100-resize_0/001133_2014-06-17_14-49-16_260595134347_rgbf000100-resize_0-target.png,1000,4.2115,2.25,3354,991,feet,jsons/v1_VE1000_randls_39_rotated.json,994652,1283363,51,Man
98,824172,DepthScenes,duration_manipulation_targetAtFixation,jsons/v1_VE1000_randls_39_rotated.json,http://54.235.29.9/FacialAge/BNav_EC2/DepthDuration/v2_depth_duration_MTurk/v2_DepthDuration_HTML.html#153,153,2560,1080,2560,1080,8-22-2022,9-0-10,99,depth_duration_stimuli/001222_2014-06-17_16-24-06_260595134347_rgbf000073-resize_0/001222_2014-06-17_16-24-06_260595134347_rgbf000073-resize-original.jpg,1000,1.4385,0.0,2851,1003,feet,jsons/v1_VE1000_randls_39_rotated.json,994652,1283363,51,Man
99,824172,DepthScenes,duration_manipulation_targetAtFixation,jsons/v1_VE1000_randls_39_rotated.json,http://54.235.29.9/FacialAge/BNav_EC2/DepthDuration/v2_depth_duration_MTurk/v2_DepthDuration_HTML.html#153,153,2560,1080,2560,1080,8-22-2022,9-0-10,100,depth_duration_stimuli/001094_2014-06-15_17-36-00_260595134347_rgbf000205-resize_0/001094_2014-06-15_17-36-00_260595134347_rgbf000205-resize_0-target.png,1000,4.2175,2.25,3628,999,feet,jsons/v1_VE1000_randls_39_rotated.json,994652,1283363,51,Man
100,824172,DepthScenes,duration_manipulation_targetAtFixation,jsons/v1_VE1000_randls_39_rotated.json,http://54.235.29.9/FacialAge/BNav_EC2/DepthDuration/v2_depth_duration_MTurk/v2_DepthDuration_HTML.html#153,153,2560,1080,2560,1080,8-22-2022,9-0-10,101,depth_duration_stimuli/000692_2014-06-08_13-09-42_260595134347_rgbf000199-resize_2/000692_2014-06-08_13-09-42_260595134347_rgbf000199-resize_2-target.png,1000,3.661,4.0,3634,1002,feet,jsons/v1_VE1000_randls_39_rotated.json,994652,1283363,51,Man
101,824172,DepthScenes,duration_manipulation_targetAtFixation,jsons/v1_VE1000_randls_39_rotated.json,http://54.235.29.9/FacialAge/BNav_EC2/DepthDuration/v2_depth_duration_MTurk/v2_DepthDuration_HTML.html#153,153,2560,1080,2560,1080,8-22-2022,9-0-10,102,depth_duration_stimuli/002467_2014-06-28_20-38-07_260595134347_rgbf000026-resize_2/002467_2014-06-28_20-38-07_260595134347_rgbf000026-resize_2-target.png,1000,4.742,2.75,5216,1002,feet,jsons/v1_VE1000_randls_39_rotated.json,994652,1283363,51,Man
102,824172,DepthScenes,duration_manipulation_targetAtFixation,jsons/v1_VE1000_randls_39_rotated.json,http://54.235.29.9/FacialAge/BNav_EC2/DepthDuration/v2_depth_duration_MTurk/v2_DepthDuration_HTML.html#153,153,2560,1080,2560,1080,8-22-2022,9-0-10,103,depth_duration_stimuli/002570_2014-06-24_13-59-54_094959634447_rgbf000059-resize_0/002570_2014-06-24_13-59-54_094959634447_rgbf000059-resize_0-target.png,1000,4.037,0.5,3627,1005,feet,jsons/v1_VE1000_randls_39_rotated.json,994652,1283363,51,Man
103,824172,DepthScenes,duration_manipulation_targetAtFixation,jsons/v1_VE1000_randls_39_rotated.json,http://54.235.29.9/FacialAge/BNav_EC2/DepthDuration/v2_depth_duration_MTurk/v2_DepthDuration_HTML.html#153,153,2560,1080,2560,1080,8-22-2022,9-0-10,104,depth_duration_stimuli/002805_2014-06-22_19-54-03_094959634447_rgbf000079-resize_1/002805_2014-06-22_19-54-03_094959634447_rgbf000079-resize_1-target.png,1000,3.1439999999999997,3.0,3326,990,feet,jsons/v1_VE1000_randls_39_rotated.json,994652,1283363,51,Man
104,824172,DepthScenes,duration_manipulation_targetAtFixation,jsons/v1_VE1000_randls_39_rotated.json,http://54.235.29.9/FacialAge/BNav_EC2/DepthDuration/v2_depth_duration_MTurk/v2_DepthDuration_HTML.html#153,153,2560,1080,2560,1080,8-22-2022,9-0-10,105,depth_duration_stimuli/000906_2014-06-08_13-35-43_260595134347_rgbf000155-resize_1/000906_2014-06-08_13-35-43_260595134347_rgbf000155-resize_1-target.png,1000,2.8489999999999998,3.5,3232,988,feet,jsons/v1_VE1000_randls_39_rotated.json,994652,1283363,51,Man
105,824172,DepthScenes,duration_manipulation_targetAtFixation,jsons/v1_VE1000_randls_39_rotated.json,http://54.235.29.9/FacialAge/BNav_EC2/DepthDuration/v2_depth_duration_MTurk/v2_DepthDuration_HTML.html#153,153,2560,1080,2560,1080,8-22-2022,9-0-10,106,depth_duration_stimuli/003081_2014-06-15_15-19-16_094959634447_rgbf000150-resize_1/003081_2014-06-15_15-19-16_094959634447_rgbf000150-resize_1-target.png,1000,3.9125,3.2,3363,990,feet,jsons/v1_VE1000_randls_39_rotated.json,994652,1283363,51,Man
106,824172,DepthScenes,duration_manipulation_targetAtFixation,jsons/v1_VE1000_randls_39_rotated.json,http://54.235.29.9/FacialAge/BNav_EC2/DepthDuration/v2_depth_duration_MTurk/v2_DepthDuration_HTML.html#153,153,2560,1080,2560,1080,8-22-2022,9-0-10,107,depth_duration_stimuli/001417_2014-06-19_16-25-36_260595134347_rgbf000115-resize_5/001417_2014-06-19_16-25-36_260595134347_rgbf000115-resize_5-target.png,1000,4.6255,3.0,3828,997,feet,jsons/v1_VE1000_randls_39_rotated.json,994652,1283363,51,Man
107,824172,DepthScenes,duration_manipulation_targetAtFixation,jsons/v1_VE1000_randls_39_rotated.json,http://54.235.29.9/FacialAge/BNav_EC2/DepthDuration/v2_depth_duration_MTurk/v2_DepthDuration_HTML.html#153,153,2560,1080,2560,1080,8-22-2022,9-0-10,108,depth_duration_stimuli/001571_2014-06-20_17-21-32_260595134347_rgbf000089-resize_1/001571_2014-06-20_17-21-32_260595134347_rgbf000089-resize_1-target.png,1000,1.86,2.9,4597,1002,feet,jsons/v1_VE1000_randls_39_rotated.json,994652,1283363,51,Man
108,824172,DepthScenes,duration_manipulation_targetAtFixation,jsons/v1_VE1000_randls_39_rotated.json,http://54.235.29.9/FacialAge/BNav_EC2/DepthDuration/v2_depth_duration_MTurk/v2_DepthDuration_HTML.html#153,153,2560,1080,2560,1080,8-22-2022,9-0-10,109,depth_duration_stimuli/002272_2014-06-28_18-53-56_260595134347_rgbf000067-resize_2/002272_2014-06-28_18-53-56_260595134347_rgbf000067-resize_2-target.png,1000,1.138,2.5,4429,995,feet,jsons/v1_VE1000_randls_39_rotated.json,994652,1283363,51,Man
109,824172,DepthScenes,duration_manipulation_targetAtFixation,jsons/v1_VE1000_randls_39_rotated.json,http://54.235.29.9/FacialAge/BNav_EC2/DepthDuration/v2_depth_duration_MTurk/v2_DepthDuration_HTML.html#153,153,2560,1080,2560,1080,8-22-2022,9-0-10,110,depth_duration_stimuli/003587_2014-05-23_16-48-02_094959634447_rgbf002384-resize_2/003587_2014-05-23_16-48-02_094959634447_rgbf002384-resize_2-target.png,1000,1.357,2.2,4338,1003,feet,jsons/v1_VE1000_randls_39_rotated.json,994652,1283363,51,Man
110,824172,DepthScenes,duration_manipulation_targetAtFixation,jsons/v1_VE1000_randls_39_rotated.json,http://54.235.29.9/FacialAge/BNav_EC2/DepthDuration/v2_depth_duration_MTurk/v2_DepthDuration_HTML.html#153,153,2560,1080,2560,1080,8-22-2022,9-0-10,111,depth_duration_stimuli/001167_2014-06-17_15-38-07_260595134347_rgbf000108-resize_0/001167_2014-06-17_15-38-07_260595134347_rgbf000108-resize_0-target.png,1000,1.8505,2.3,3803,993,feet,jsons/v1_VE1000_randls_39_rotated.json,994652,1283363,51,Man
111,824172,DepthScenes,duration_manipulation_targetAtFixation,jsons/v1_VE1000_randls_39_rotated.json,http://54.235.29.9/FacialAge/BNav_EC2/DepthDuration/v2_depth_duration_MTurk/v2_DepthDuration_HTML.html#153,153,2560,1080,2560,1080,8-22-2022,9-0-10,112,depth_duration_stimuli/001650_2014-06-20_12-09-00_260595134347_rgbf000087-resize_3/001650_2014-06-20_12-09-00_260595134347_rgbf000087-resize_3-target.png,1000,1.9505,2.1,4349,1001,feet,jsons/v1_VE1000_randls_39_rotated.json,994652,1283363,51,Man
112,824172,DepthScenes,duration_manipulation_targetAtFixation,jsons/v1_VE1000_randls_39_rotated.json,http://54.235.29.9/FacialAge/BNav_EC2/DepthDuration/v2_depth_duration_MTurk/v2_DepthDuration_HTML.html#153,153,2560,1080,2560,1080,8-22-2022,9-0-10,113,depth_duration_stimuli/000682_2014-06-08_23-14-58_260595134347_rgbf000041-resize_5/000682_2014-06-08_23-14-58_260595134347_rgbf000041-resize_5-target.png,1000,2.7239999999999998,2.3,4536,1001,feet,jsons/v1_VE1000_randls_39_rotated.json,994652,1283363,51,Man
113,824172,DepthScenes,duration_manipulation_targetAtFixation,jsons/v1_VE1000_randls_39_rotated.json,http://54.235.29.9/FacialAge/BNav_EC2/DepthDuration/v2_depth_duration_MTurk/v2_DepthDuration_HTML.html#153,153,2560,1080,2560,1080,8-22-2022,9-0-10,114,depth_duration_stimuli/000709_2014-06-08_13-51-55_260595134347_rgbf000068-resize_3/000709_2014-06-08_13-51-55_260595134347_rgbf000068-resize_3-target.png,1000,1.8030000000000002,5.3,6787,999,feet,jsons/v1_VE1000_randls_39_rotated.json,994652,1283363,51,Man
114,824172,DepthScenes,duration_manipulation_targetAtFixation,jsons/v1_VE1000_randls_39_rotated.json,http://54.235.29.9/FacialAge/BNav_EC2/DepthDuration/v2_depth_duration_MTurk/v2_DepthDuration_HTML.html#153,153,2560,1080,2560,1080,8-22-2022,9-0-10,115,depth_duration_stimuli/002057_2014-06-24_21-00-13_260595134347_rgbf000120-resize_1/002057_2014-06-24_21-00-13_260595134347_rgbf000120-resize_1-target.png,1000,2.967,5.25,4494,1006,feet,jsons/v1_VE1000_randls_39_rotated.json,994652,1283363,51,Man
115,824172,DepthScenes,duration_manipulation_targetAtFixation,jsons/v1_VE1000_randls_39_rotated.json,http://54.235.29.9/FacialAge/BNav_EC2/DepthDuration/v2_depth_duration_MTurk/v2_DepthDuration_HTML.html#153,153,2560,1080,2560,1080,8-22-2022,9-0-10,116,depth_duration_stimuli/002414_2014-06-28_20-24-58_260595134347_rgbf000067-resize_4/002414_2014-06-28_20-24-58_260595134347_rgbf000067-resize_4-target.png,1000,4.363,3.2,3983,1010,feet,jsons/v1_VE1000_randls_39_rotated.json,994652,1283363,51,Man
116,824172,DepthScenes,duration_manipulation_targetAtFixation,jsons/v1_VE1000_randls_39_rotated.json,http://54.235.29.9/FacialAge/BNav_EC2/DepthDuration/v2_depth_duration_MTurk/v2_DepthDuration_HTML.html#153,153,2560,1080,2560,1080,8-22-2022,9-0-10,117,depth_duration_stimuli/000773_2014-06-08_22-24-54_260595134347_rgbf000093-resize_1/000773_2014-06-08_22-24-54_260595134347_rgbf000093-resize_1-target.png,1000,4.973,3.25,3520,1004,feet,jsons/v1_VE1000_randls_39_rotated.json,994652,1283363,51,Man
117,824172,DepthScenes,duration_manipulation_targetAtFixation,jsons/v1_VE1000_randls_39_rotated.json,http://54.235.29.9/FacialAge/BNav_EC2/DepthDuration/v2_depth_duration_MTurk/v2_DepthDuration_HTML.html#153,153,2560,1080,2560,1080,8-22-2022,9-0-10,118,depth_duration_stimuli/000191_2014-05-12_17-07-38_260595134347_rgbf000199-resize_0/000191_2014-05-12_17-07-38_260595134347_rgbf000199-resize_0-target.png,1000,3.7995,6.2,4282,1003,feet,jsons/v1_VE1000_randls_39_rotated.json,994652,1283363,51,Man
118,824172,DepthScenes,duration_manipulation_targetAtFixation,jsons/v1_VE1000_randls_39_rotated.json,http://54.235.29.9/FacialAge/BNav_EC2/DepthDuration/v2_depth_duration_MTurk/v2_DepthDuration_HTML.html#153,153,2560,1080,2560,1080,8-22-2022,9-0-10,119,depth_duration_stimuli/000493_2014-06-09_21-01-18_260595134347_rgbf000196-resize_3/000493_2014-06-09_21-01-18_260595134347_rgbf000196-resize_3-target.png,1000,3.44,4.2,4182,1000,feet,jsons/v1_VE1000_randls_39_rotated.json,994652,1283363,51,Man
119,824172,DepthScenes,duration_manipulation_targetAtFixation,jsons/v1_VE1000_randls_39_rotated.json,http://54.235.29.9/FacialAge/BNav_EC2/DepthDuration/v2_depth_duration_MTurk/v2_DepthDuration_HTML.html#153,153,2560,1080,2560,1080,8-22-2022,9-0-10,120,depth_duration_stimuli/000787_2014-06-08_22-33-53_260595134347_rgbf000175-resize_1/000787_2014-06-08_22-33-53_260595134347_rgbf000175-resize-original.jpg,1000,4.784,0.0,3407,988,feet,jsons/v1_VE1000_randls_39_rotated.json,994652,1283363,51,Man
120,824172,DepthScenes,duration_manipulation_targetAtFixation,jsons/v1_VE1000_randls_39_rotated.json,http://54.235.29.9/FacialAge/BNav_EC2/DepthDuration/v2_depth_duration_MTurk/v2_DepthDuration_HTML.html#153,153,2560,1080,2560,1080,8-22-2022,9-0-10,121,depth_duration_stimuli/000927_2014-06-09_16-32-30_260595134347_rgbf000123-resize_3/000927_2014-06-09_16-32-30_260595134347_rgbf000123-resize_3-target.png,1000,2.6785,3.25,4431,1004,feet,jsons/v1_VE1000_randls_39_rotated.json,994652,1283363,51,Man
121,824172,DepthScenes,duration_manipulation_targetAtFixation,jsons/v1_VE1000_randls_39_rotated.json,http://54.235.29.9/FacialAge/BNav_EC2/DepthDuration/v2_depth_duration_MTurk/v2_DepthDuration_HTML.html#153,153,2560,1080,2560,1080,8-22-2022,9-0-10,122,depth_duration_stimuli/001110_2014-06-15_17-25-28_260595134347_rgbf000150-resize_1/001110_2014-06-15_17-25-28_260595134347_rgbf000150-resize_1-target.png,1000,1.7115,3.0,3343,993,feet,jsons/v1_VE1000_randls_39_rotated.json,994652,1283363,51,Man
122,824172,DepthScenes,duration_manipulation_targetAtFixation,jsons/v1_VE1000_randls_39_rotated.json,http://54.235.29.9/FacialAge/BNav_EC2/DepthDuration/v2_depth_duration_MTurk/v2_DepthDuration_HTML.html#153,153,2560,1080,2560,1080,8-22-2022,9-0-10,123,depth_duration_stimuli/000103_2014-05-14_22-01-17_260595134347_rgbf000152-resize_5/000103_2014-05-14_22-01-17_260595134347_rgbf000152-resize_5-target.png,1000,1.993,3.2,3599,1005,feet,jsons/v1_VE1000_randls_39_rotated.json,994652,1283363,51,Man
123,824172,DepthScenes,duration_manipulation_targetAtFixation,jsons/v1_VE1000_randls_39_rotated.json,http://54.235.29.9/FacialAge/BNav_EC2/DepthDuration/v2_depth_duration_MTurk/v2_DepthDuration_HTML.html#153,153,2560,1080,2560,1080,8-22-2022,9-0-10,124,depth_duration_stimuli/001555_2014-06-20_17-12-10_260595134347_rgbf000065-resize_4/001555_2014-06-20_17-12-10_260595134347_rgbf000065-resize_4-target.png,1000,1.633,2.75,4106,1004,feet,jsons/v1_VE1000_randls_39_rotated.json,994652,1283363,51,Man
124,824172,DepthScenes,duration_manipulation_targetAtFixation,jsons/v1_VE1000_randls_39_rotated.json,http://54.235.29.9/FacialAge/BNav_EC2/DepthDuration/v2_depth_duration_MTurk/v2_DepthDuration_HTML.html#153,153,2560,1080,2560,1080,8-22-2022,9-0-10,125,depth_duration_stimuli/001100_2014-06-15_17-46-26_260595134347_rgbf000225-resize_2/001100_2014-06-15_17-46-26_260595134347_rgbf000225-resize_2-target.png,1000,2.24,2.65,4703,999,feet,jsons/v1_VE1000_randls_39_rotated.json,994652,1283363,51,Man
125,824172,DepthScenes,duration_manipulation_targetAtFixation,jsons/v1_VE1000_randls_39_rotated.json,http://54.235.29.9/FacialAge/BNav_EC2/DepthDuration/v2_depth_duration_MTurk/v2_DepthDuration_HTML.html#153,153,2560,1080,2560,1080,8-22-2022,9-0-10,126,depth_duration_stimuli/002784_2014-06-22_19-26-30_094959634447_rgbf000083-resize_3/002784_2014-06-22_19-26-30_094959634447_rgbf000083-resize_3-target.png,1000,1.8046666666667,1.0,3948,1003,feet,jsons/v1_VE1000_randls_39_rotated.json,994652,1283363,51,Man
126,824172,DepthScenes,duration_manipulation_targetAtFixation,jsons/v1_VE1000_randls_39_rotated.json,http://54.235.29.9/FacialAge/BNav_EC2/DepthDuration/v2_depth_duration_MTurk/v2_DepthDuration_HTML.html#153,153,2560,1080,2560,1080,8-22-2022,9-0-10,127,depth_duration_stimuli/003129_2014-05-12_10-48-10_094959634447_rgbf000100-resize_0/003129_2014-05-12_10-48-10_094959634447_rgbf000100-resize_0-target.png,1000,4.9305,1.2,3279,1007,feet,jsons/v1_VE1000_randls_39_rotated.json,994652,1283363,51,Man
127,824172,DepthScenes,duration_manipulation_targetAtFixation,jsons/v1_VE1000_randls_39_rotated.json,http://54.235.29.9/FacialAge/BNav_EC2/DepthDuration/v2_depth_duration_MTurk/v2_DepthDuration_HTML.html#153,153,2560,1080,2560,1080,8-22-2022,9-0-10,128,depth_duration_stimuli/000414_2014-06-04_19-49-13_260595134347_rgbf000044-resize_0/000414_2014-06-04_19-49-13_260595134347_rgbf000044-resize_0-target.png,1000,4.329,6.0,3196,1005,feet,jsons/v1_VE1000_randls_39_rotated.json,994652,1283363,51,Man
128,824172,DepthScenes,duration_manipulation_targetAtFixation,jsons/v1_VE1000_randls_39_rotated.json,http://54.235.29.9/FacialAge/BNav_EC2/DepthDuration/v2_depth_duration_MTurk/v2_DepthDuration_HTML.html#153,153,2560,1080,2560,1080,8-22-2022,9-0-10,129,depth_duration_stimuli/000549_2014-06-08_22-10-24_260595134347_rgbf000247-resize_3/000549_2014-06-08_22-10-24_260595134347_rgbf000247-resize_3-target.png,1000,1.841,1.0,2944,1003,feet,jsons/v1_VE1000_randls_39_rotated.json,994652,1283363,51,Man
129,824172,DepthScenes,duration_manipulation_targetAtFixation,jsons/v1_VE1000_randls_39_rotated.json,http://54.235.29.9/FacialAge/BNav_EC2/DepthDuration/v2_depth_duration_MTurk/v2_DepthDuration_HTML.html#153,153,2560,1080,2560,1080,8-22-2022,9-0-10,130,depth_duration_stimuli/001055_2014-06-08_18-45-35_260595134347_rgbf000111-resize_4/001055_2014-06-08_18-45-35_260595134347_rgbf000111-resize_4-target.png,1000,2.4290000000000003,4.5,3693,1000,feet,jsons/v1_VE1000_randls_39_rotated.json,994652,1283363,51,Man
130,824172,DepthScenes,duration_manipulation_targetAtFixation,jsons/v1_VE1000_randls_39_rotated.json,http://54.235.29.9/FacialAge/BNav_EC2/DepthDuration/v2_depth_duration_MTurk/v2_DepthDuration_HTML.html#153,153,2560,1080,2560,1080,8-22-2022,9-0-10,131,depth_duration_stimuli/001392_2014-06-19_16-07-59_260595134347_rgbf000046-resize_1/001392_2014-06-19_16-07-59_260595134347_rgbf000046-resize_1-target.png,1000,4.135,5.5,3622,1001,feet,jsons/v1_VE1000_randls_39_rotated.json,994652,1283363,51,Man
131,824172,DepthScenes,duration_manipulation_targetAtFixation,jsons/v1_VE1000_randls_39_rotated.json,http://54.235.29.9/FacialAge/BNav_EC2/DepthDuration/v2_depth_duration_MTurk/v2_DepthDuration_HTML.html#153,153,2560,1080,2560,1080,8-22-2022,9-0-10,132,depth_duration_stimuli/001570_2014-06-20_17-21-09_260595134347_rgbf000135-resize_4/001570_2014-06-20_17-21-09_260595134347_rgbf000135-resize_4-target.png,1000,4.467,3.75,4043,984,feet,jsons/v1_VE1000_randls_39_rotated.json,994652,1283363,51,Man
132,824172,DepthScenes,duration_manipulation_targetAtFixation,jsons/v1_VE1000_randls_39_rotated.json,http://54.235.29.9/FacialAge/BNav_EC2/DepthDuration/v2_depth_duration_MTurk/v2_DepthDuration_HTML.html#153,153,2560,1080,2560,1080,8-22-2022,9-0-10,133,depth_duration_stimuli/002678_2014-06-13_16-15-32_094959634447_rgbf000151-resize_6/002678_2014-06-13_16-15-32_094959634447_rgbf000151-resize_6-target.png,1000,2.1830000000000003,4.5,3767,1000,feet,jsons/v1_VE1000_randls_39_rotated.json,994652,1283363,51,Man
133,824172,DepthScenes,duration_manipulation_targetAtFixation,jsons/v1_VE1000_randls_39_rotated.json,http://54.235.29.9/FacialAge/BNav_EC2/DepthDuration/v2_depth_duration_MTurk/v2_DepthDuration_HTML.html#153,153,2560,1080,2560,1080,8-22-2022,9-0-10,134,depth_duration_stimuli/000368_2014-06-09_15-53-01_260595134347_rgbf000155-resize_2/000368_2014-06-09_15-53-01_260595134347_rgbf000155-resize_2-target.png,1000,2.4859999999999998,2.5,3831,999,feet,jsons/v1_VE1000_randls_39_rotated.json,994652,1283363,51,Man
134,824172,DepthScenes,duration_manipulation_targetAtFixation,jsons/v1_VE1000_randls_39_rotated.json,http://54.235.29.9/FacialAge/BNav_EC2/DepthDuration/v2_depth_duration_MTurk/v2_DepthDuration_HTML.html#153,153,2560,1080,2560,1080,8-22-2022,9-0-10,135,depth_duration_stimuli/000375_2014-06-08_11-17-29_260595134347_rgbf000133-resize_2/000375_2014-06-08_11-17-29_260595134347_rgbf000133-resize-original.jpg,1000,4.718,0.0,3264,1005,feet,jsons/v1_VE1000_randls_39_rotated.json,994652,1283363,51,Man
135,824172,DepthScenes,duration_manipulation_targetAtFixation,jsons/v1_VE1000_randls_39_rotated.json,http://54.235.29.9/FacialAge/BNav_EC2/DepthDuration/v2_depth_duration_MTurk/v2_DepthDuration_HTML.html#153,153,2560,1080,2560,1080,8-22-2022,9-0-10,136,depth_duration_stimuli/002323_2014-06-28_20-01-54_260595134347_rgbf000051-resize_4/002323_2014-06-28_20-01-54_260595134347_rgbf000051-resize_4-target.png,1000,3.7310000000000003,3.1,5461,1002,feet,jsons/v1_VE1000_randls_39_rotated.json,994652,1283363,51,Man
136,824172,DepthScenes,duration_manipulation_targetAtFixation,jsons/v1_VE1000_randls_39_rotated.json,http://54.235.29.9/FacialAge/BNav_EC2/DepthDuration/v2_depth_duration_MTurk/v2_DepthDuration_HTML.html#153,153,2560,1080,2560,1080,8-22-2022,9-0-10,137,depth_duration_stimuli/000917_2014-06-09_22-45-29_260595134347_rgbf000149-resize_3/000917_2014-06-09_22-45-29_260595134347_rgbf000149-resize_3-target.png,1000,4.1865,2.75,4935,1004,feet,jsons/v1_VE1000_randls_39_rotated.json,994652,1283363,51,Man
137,824172,DepthScenes,duration_manipulation_targetAtFixation,jsons/v1_VE1000_randls_39_rotated.json,http://54.235.29.9/FacialAge/BNav_EC2/DepthDuration/v2_depth_duration_MTurk/v2_DepthDuration_HTML.html#153,153,2560,1080,2560,1080,8-22-2022,9-0-10,138,depth_duration_stimuli/001214_2014-06-17_16-13-55_260595134347_rgbf000111-resize_0/001214_2014-06-17_16-13-55_260595134347_rgbf000111-resize_0-target.png,1000,2.6505,1.75,3691,1001,feet,jsons/v1_VE1000_randls_39_rotated.json,994652,1283363,51,Man
138,824172,DepthScenes,duration_manipulation_targetAtFixation,jsons/v1_VE1000_randls_39_rotated.json,http://54.235.29.9/FacialAge/BNav_EC2/DepthDuration/v2_depth_duration_MTurk/v2_DepthDuration_HTML.html#153,153,2560,1080,2560,1080,8-22-2022,9-0-10,139,depth_duration_stimuli/000810_2014-06-08_17-20-01_260595134347_rgbf000105-resize_0/000810_2014-06-08_17-20-01_260595134347_rgbf000105-resize_0-target.png,1000,1.4865,1.5,3310,1007,feet,jsons/v1_VE1000_randls_39_rotated.json,994652,1283363,51,Man
139,824172,DepthScenes,duration_manipulation_targetAtFixation,jsons/v1_VE1000_randls_39_rotated.json,http://54.235.29.9/FacialAge/BNav_EC2/DepthDuration/v2_depth_duration_MTurk/v2_DepthDuration_HTML.html#153,153,2560,1080,2560,1080,8-22-2022,9-0-10,140,depth_duration_stimuli/002545_2014-06-24_13-38-53_094959634447_rgbf000080-resize_4/002545_2014-06-24_13-38-53_094959634447_rgbf000080-resize_4-target.png,1000,1.9205,2.75,3961,996,feet,jsons/v1_VE1000_randls_39_rotated.json,994652,1283363,51,Man
140,824172,DepthScenes,duration_manipulation_targetAtFixation,jsons/v1_VE1000_randls_39_rotated.json,http://54.235.29.9/FacialAge/BNav_EC2/DepthDuration/v2_depth_duration_MTurk/v2_DepthDuration_HTML.html#153,153,2560,1080,2560,1080,8-22-2022,9-0-10,141,depth_duration_stimuli/001092_2014-06-15_17-34-58_260595134347_rgbf000171-resize_3/001092_2014-06-15_17-34-58_260595134347_rgbf000171-resize_3-target.png,1000,2.6935,2.75,3916,1007,feet,jsons/v1_VE1000_randls_39_rotated.json,994652,1283363,51,Man
141,824172,DepthScenes,duration_manipulation_targetAtFixation,jsons/v1_VE1000_randls_39_rotated.json,http://54.235.29.9/FacialAge/BNav_EC2/DepthDuration/v2_depth_duration_MTurk/v2_DepthDuration_HTML.html#153,153,2560,1080,2560,1080,8-22-2022,9-0-10,142,depth_duration_stimuli/001828_2014-06-26_21-40-03_260595134347_rgbf000024-resize_0/001828_2014-06-26_21-40-03_260595134347_rgbf000024-resize_0-target.png,1000,4.8260000000000005,3.0,3561,990,feet,jsons/v1_VE1000_randls_39_rotated.json,994652,1283363,51,Man
142,824172,DepthScenes,duration_manipulation_targetAtFixation,jsons/v1_VE1000_randls_39_rotated.json,http://54.235.29.9/FacialAge/BNav_EC2/DepthDuration/v2_depth_duration_MTurk/v2_DepthDuration_HTML.html#153,153,2560,1080,2560,1080,8-22-2022,9-0-10,143,depth_duration_stimuli/000009_2014-05-26_14-32-05_260595134347_rgbf000034-resize_3/000009_2014-05-26_14-32-05_260595134347_rgbf000034-resize_3-target.png,1000,3.8715,6.0,2790,1002,feet,jsons/v1_VE1000_randls_39_rotated.json,994652,1283363,51,Man
143,824172,DepthScenes,duration_manipulation_targetAtFixation,jsons/v1_VE1000_randls_39_rotated.json,http://54.235.29.9/FacialAge/BNav_EC2/DepthDuration/v2_depth_duration_MTurk/v2_DepthDuration_HTML.html#153,153,2560,1080,2560,1080,8-22-2022,9-0-10,144,depth_duration_stimuli/002875_2014-06-01_15-19-00_094959634447_rgbf000151-resize_1/002875_2014-06-01_15-19-00_094959634447_rgbf000151-resize_1-target.png,1000,1.9675,4.5,3899,1001,feet,jsons/v1_VE1000_randls_39_rotated.json,994652,1283363,51,Man
144,824172,DepthScenes,duration_manipulation_targetAtFixation,jsons/v1_VE1000_randls_39_rotated.json,http://54.235.29.9/FacialAge/BNav_EC2/DepthDuration/v2_depth_duration_MTurk/v2_DepthDuration_HTML.html#153,153,2560,1080,2560,1080,8-22-2022,9-0-10,145,depth_duration_stimuli/001011_2014-06-08_23-18-54_260595134347_rgbf000044-resize_4/001011_2014-06-08_23-18-54_260595134347_rgbf000044-resize_4-target.png,1000,2.4730000000000003,4.5,4080,1006,feet,jsons/v1_VE1000_randls_39_rotated.json,994652,1283363,51,Man
145,824172,DepthScenes,duration_manipulation_targetAtFixation,jsons/v1_VE1000_randls_39_rotated.json,http://54.235.29.9/FacialAge/BNav_EC2/DepthDuration/v2_depth_duration_MTurk/v2_DepthDuration_HTML.html#153,153,2560,1080,2560,1080,8-22-2022,9-0-10,146,depth_duration_stimuli/001447_2014-06-19_17-00-32_260595134347_rgbf000082-resize_5/001447_2014-06-19_17-00-32_260595134347_rgbf000082-resize_5-target.png,1000,4.13775,3.2,4954,990,feet,jsons/v1_VE1000_randls_39_rotated.json,994652,1283363,51,Man
146,824172,DepthScenes,duration_manipulation_targetAtFixation,jsons/v1_VE1000_randls_39_rotated.json,http://54.235.29.9/FacialAge/BNav_EC2/DepthDuration/v2_depth_duration_MTurk/v2_DepthDuration_HTML.html#153,153,2560,1080,2560,1080,8-22-2022,9-0-10,147,depth_duration_stimuli/000447_2014-06-08_16-15-46_260595134347_rgbf000130-resize_1/000447_2014-06-08_16-15-46_260595134347_rgbf000130-resize_1-target.png,1000,4.479,4.5,3818,1006,feet,jsons/v1_VE1000_randls_39_rotated.json,994652,1283363,51,Man
147,824172,DepthScenes,duration_manipulation_targetAtFixation,jsons/v1_VE1000_randls_39_rotated.json,http://54.235.29.9/FacialAge/BNav_EC2/DepthDuration/v2_depth_duration_MTurk/v2_DepthDuration_HTML.html#153,153,2560,1080,2560,1080,8-22-2022,9-0-10,148,depth_duration_stimuli/003490_2014-05-21_15-50-11_094959634447_rgbf000101-resize_3/003490_2014-05-21_15-50-11_094959634447_rgbf000101-resize_3-target.png,1000,3.6445,2.1,4503,1003,feet,jsons/v1_VE1000_randls_39_rotated.json,994652,1283363,51,Man
148,824172,DepthScenes,duration_manipulation_targetAtFixation,jsons/v1_VE1000_randls_39_rotated.json,http://54.235.29.9/FacialAge/BNav_EC2/DepthDuration/v2_depth_duration_MTurk/v2_DepthDuration_HTML.html#153,153,2560,1080,2560,1080,8-22-2022,9-0-10,149,depth_duration_stimuli/001175_2014-06-17_15-45-55_260595134347_rgbf000129-resize_4/001175_2014-06-17_15-45-55_260595134347_rgbf000129-resize_4-target.png,1000,4.255,3.2,4410,987,feet,jsons/v1_VE1000_randls_39_rotated.json,994652,1283363,51,Man
149,824172,DepthScenes,duration_manipulation_targetAtFixation,jsons/v1_VE1000_randls_39_rotated.json,http://54.235.29.9/FacialAge/BNav_EC2/DepthDuration/v2_depth_duration_MTurk/v2_DepthDuration_HTML.html#153,153,2560,1080,2560,1080,8-22-2022,9-0-10,150,depth_duration_stimuli/000943_2014-06-09_19-31-07_260595134347_rgbf000128-resize_1/000943_2014-06-09_19-31-07_260595134347_rgbf000128-resize_1-target.png,1000,1.9765,3.25,7830,997,feet,jsons/v1_VE1000_randls_39_rotated.json,994652,1283363,51,Man
150,824172,DepthScenes,duration_manipulation_targetAtFixation,jsons/v1_VE1000_randls_39_rotated.json,http://54.235.29.9/FacialAge/BNav_EC2/DepthDuration/v2_depth_duration_MTurk/v2_DepthDuration_HTML.html#153,153,2560,1080,2560,1080,8-22-2022,9-0-10,151,depth_duration_stimuli/003070_2014-06-15_14-58-27_094959634447_rgbf000150-resize_3/003070_2014-06-15_14-58-27_094959634447_rgbf000150-resize_3-target.png,1000,2.9415,2.25,3602,1003,feet,jsons/v1_VE1000_randls_39_rotated.json,994652,1283363,51,Man
151,824172,DepthScenes,duration_manipulation_targetAtFixation,jsons/v1_VE1000_randls_39_rotated.json,http://54.235.29.9/FacialAge/BNav_EC2/DepthDuration/v2_depth_duration_MTurk/v2_DepthDuration_HTML.html#153,153,2560,1080,2560,1080,8-22-2022,9-0-10,152,depth_duration_stimuli/000569_2014-06-09_22-51-47_260595134347_rgbf000141-resize_3/000569_2014-06-09_22-51-47_260595134347_rgbf000141-resize-original.jpg,1000,4.512,0.0,2745,1010,feet,jsons/v1_VE1000_randls_39_rotated.json,994652,1283363,51,Man
152,824172,DepthScenes,duration_manipulation_targetAtFixation,jsons/v1_VE1000_randls_39_rotated.json,http://54.235.29.9/FacialAge/BNav_EC2/DepthDuration/v2_depth_duration_MTurk/v2_DepthDuration_HTML.html#153,153,2560,1080,2560,1080,8-22-2022,9-0-10,153,depth_duration_stimuli/001032_2014-06-08_13-23-17_260595134347_rgbf000021-resize_3/001032_2014-06-08_13-23-17_260595134347_rgbf000021-resize_3-target.png,1000,3.2725,0.5,3600,996,feet,jsons/v1_VE1000_randls_39_rotated.json,994652,1283363,51,Man
153,824172,DepthScenes,duration_manipulation_targetAtFixation,jsons/v1_VE1000_randls_39_rotated.json,http://54.235.29.9/FacialAge/BNav_EC2/DepthDuration/v2_depth_duration_MTurk/v2_DepthDuration_HTML.html#153,153,2560,1080,2560,1080,8-22-2022,9-0-10,154,depth_duration_stimuli/001059_2014-06-08_21-53-27_260595134347_rgbf000061-resize_4/001059_2014-06-08_21-53-27_260595134347_rgbf000061-resize_4-target.png,1000,2.4185,1.75,3638,990,feet,jsons/v1_VE1000_randls_39_rotated.json,994652,1283363,51,Man
154,824172,DepthScenes,duration_manipulation_targetAtFixation,jsons/v1_VE1000_randls_39_rotated.json,http://54.235.29.9/FacialAge/BNav_EC2/DepthDuration/v2_depth_duration_MTurk/v2_DepthDuration_HTML.html#153,153,2560,1080,2560,1080,8-22-2022,9-0-10,155,depth_duration_stimuli/002444_2014-06-28_20-32-08_260595134347_rgbf000027-resize_0/002444_2014-06-28_20-32-08_260595134347_rgbf000027-resize_0-target.png,1000,4.388999999999999,2.2,3320,991,feet,jsons/v1_VE1000_randls_39_rotated.json,994652,1283363,51,Man
155,824172,DepthScenes,duration_manipulation_targetAtFixation,jsons/v1_VE1000_randls_39_rotated.json,http://54.235.29.9/FacialAge/BNav_EC2/DepthDuration/v2_depth_duration_MTurk/v2_DepthDuration_HTML.html#153,153,2560,1080,2560,1080,8-22-2022,9-0-10,156,depth_duration_stimuli/000436_2014-06-09_22-25-11_260595134347_rgbf000137-resize_1/000436_2014-06-09_22-25-11_260595134347_rgbf000137-resize_1-target.png,1000,4.0705,3.1,3756,1002,feet,jsons/v1_VE1000_randls_39_rotated.json,994652,1283363,51,Man
156,824172,DepthScenes,duration_manipulation_targetAtFixation,jsons/v1_VE1000_randls_39_rotated.json,http://54.235.29.9/FacialAge/BNav_EC2/DepthDuration/v2_depth_duration_MTurk/v2_DepthDuration_HTML.html#153,153,2560,1080,2560,1080,8-22-2022,9-0-10,157,depth_duration_stimuli/002344_2014-06-28_20-06-29_260595134347_rgbf000030-resize_1/002344_2014-06-28_20-06-29_260595134347_rgbf000030-resize_1-target.png,1000,1.5795,1.72,6108,1011,feet,jsons/v1_VE1000_randls_39_rotated.json,994652,1283363,51,Man
157,824172,DepthScenes,duration_manipulation_targetAtFixation,jsons/v1_VE1000_randls_39_rotated.json,http://54.235.29.9/FacialAge/BNav_EC2/DepthDuration/v2_depth_duration_MTurk/v2_DepthDuration_HTML.html#153,153,2560,1080,2560,1080,8-22-2022,9-0-10,158,depth_duration_stimuli/002725_2014-06-22_11-47-51_094959634447_rgbf000070-resize_1/002725_2014-06-22_11-47-51_094959634447_rgbf000070-resize_1-target.png,1000,2.195,2.25,5521,1004,feet,jsons/v1_VE1000_randls_39_rotated.json,994652,1283363,51,Man
158,824172,DepthScenes,duration_manipulation_targetAtFixation,jsons/v1_VE1000_randls_39_rotated.json,http://54.235.29.9/FacialAge/BNav_EC2/DepthDuration/v2_depth_duration_MTurk/v2_DepthDuration_HTML.html#153,153,2560,1080,2560,1080,8-22-2022,9-0-10,159,depth_duration_stimuli/000556_2014-06-09_22-42-56_260595134347_rgbf000214-resize_1/000556_2014-06-09_22-42-56_260595134347_rgbf000214-resize_1-target.png,1000,4.8415,2.2,153931,994,feet,jsons/v1_VE1000_randls_39_rotated.json,994652,1283363,51,Man
159,824172,DepthScenes,duration_manipulation_targetAtFixation,jsons/v1_VE1000_randls_39_rotated.json,http://54.235.29.9/FacialAge/BNav_EC2/DepthDuration/v2_depth_duration_MTurk/v2_DepthDuration_HTML.html#153,153,2560,1080,2560,1080,8-22-2022,9-0-10,160,depth_duration_stimuli/001158_2014-06-17_15-32-16_260595134347_rgbf000138-resize_2/001158_2014-06-17_15-32-16_260595134347_rgbf000138-resize_2-target.png,1000,4.5315,3.1,3677,998,feet,jsons/v1_VE1000_randls_39_rotated.json,994652,1283363,51,Man
160,824172,DepthScenes,duration_manipulation_targetAtFixation,jsons/v1_VE1000_randls_39_rotated.json,http://54.235.29.9/FacialAge/BNav_EC2/DepthDuration/v2_depth_duration_MTurk/v2_DepthDuration_HTML.html#153,153,2560,1080,2560,1080,8-22-2022,9-0-10,161,depth_duration_stimuli/001617_2014-06-20_11-35-32_260595134347_rgbf000066-resize_1/001617_2014-06-20_11-35-32_260595134347_rgbf000066-resize_1-target.png,1000,3.7910000000000004,3.2,3389,1002,feet,jsons/v1_VE1000_randls_39_rotated.json,994652,1283363,51,Man
161,824172,DepthScenes,duration_manipulation_targetAtFixation,jsons/v1_VE1000_randls_39_rotated.json,http://54.235.29.9/FacialAge/BNav_EC2/DepthDuration/v2_depth_duration_MTurk/v2_DepthDuration_HTML.html#153,153,2560,1080,2560,1080,8-22-2022,9-0-10,162,depth_duration_stimuli/001806_2014-06-26_20-50-20_260595134347_rgbf000091-resize_1/001806_2014-06-26_20-50-20_260595134347_rgbf000091-resize_1-target.png,1000,2.7305,2.25,3545,989,feet,jsons/v1_VE1000_randls_39_rotated.json,994652,1283363,51,Man
162,824172,DepthScenes,duration_manipulation_targetAtFixation,jsons/v1_VE1000_randls_39_rotated.json,http://54.235.29.9/FacialAge/BNav_EC2/DepthDuration/v2_depth_duration_MTurk/v2_DepthDuration_HTML.html#153,153,2560,1080,2560,1080,8-22-2022,9-0-10,163,depth_duration_stimuli/002209_2014-06-28_18-36-10_260595134347_rgbf000051-resize_1/002209_2014-06-28_18-36-10_260595134347_rgbf000051-resize_1-target.png,1000,2.057,2.25,3454,1005,feet,jsons/v1_VE1000_randls_39_rotated.json,994652,1283363,51,Man
163,824172,DepthScenes,duration_manipulation_targetAtFixation,jsons/v1_VE1000_randls_39_rotated.json,http://54.235.29.9/FacialAge/BNav_EC2/DepthDuration/v2_depth_duration_MTurk/v2_DepthDuration_HTML.html#153,153,2560,1080,2560,1080,8-22-2022,9-0-10,164,depth_duration_stimuli/002763_2014-06-22_19-13-10_094959634447_rgbf000075-resize_4/002763_2014-06-22_19-13-10_094959634447_rgbf000075-resize_4-target.png,1000,1.68375,3.0,2851,1002,feet,jsons/v1_VE1000_randls_39_rotated.json,994652,1283363,51,Man
