,subjID,experimentName,versionName,sequenceName,url,selected_row,windowWidth,windowHeight,screenWidth,screenHeight,startDate,startTime,trial,stimulus,duration,actual_depth,depth_estimate,trial_RT,log_sceneDuration,unitSelection,seq_filepath,experimentTime,totalTime,age,gender
0,828740,DepthScenes,duration_manipulation_targetAtFixation,jsons/VE125_randls_72.json,http://54.235.29.9/FacialAge/BNav_EC2/DepthDuration/v2_depth_duration_MTurk/v2_DepthDuration_HTML.html#126,126,1536,864,1536,864,9-19-2022,17-13-10,1,depth_duration_stimuli/001449_2014-06-19_17-01-27_260595134347_rgbf000116-resize_2/001449_2014-06-19_17-01-27_260595134347_rgbf000116-resize_2-target.png,125,3.452,12.0,9180,124,feet,jsons/VE125_randls_72.json,896566,1138647,37,Woman
1,828740,DepthScenes,duration_manipulation_targetAtFixation,jsons/VE125_randls_72.json,http://54.235.29.9/FacialAge/BNav_EC2/DepthDuration/v2_depth_duration_MTurk/v2_DepthDuration_HTML.html#126,126,1536,864,1536,864,9-19-2022,17-13-10,2,depth_duration_stimuli/001450_2014-06-19_17-02-03_260595134347_rgbf000203-resize_4/001450_2014-06-19_17-02-03_260595134347_rgbf000203-resize_4-target.png,125,4.0106666666667,10.0,5143,111,feet,jsons/VE125_randls_72.json,896566,1138647,37,Woman
2,828740,DepthScenes,duration_manipulation_targetAtFixation,jsons/VE125_randls_72.json,http://54.235.29.9/FacialAge/BNav_EC2/DepthDuration/v2_depth_duration_MTurk/v2_DepthDuration_HTML.html#126,126,1536,864,1536,864,9-19-2022,17-13-10,3,depth_duration_stimuli/001199_2014-06-17_16-03-48_260595134347_rgbf000077-resize_0/001199_2014-06-17_16-03-48_260595134347_rgbf000077-resize_0-target.png,125,3.4375,8.0,4800,123,feet,jsons/VE125_randls_72.json,896566,1138647,37,Woman
3,828740,DepthScenes,duration_manipulation_targetAtFixation,jsons/VE125_randls_72.json,http://54.235.29.9/FacialAge/BNav_EC2/DepthDuration/v2_depth_duration_MTurk/v2_DepthDuration_HTML.html#126,126,1536,864,1536,864,9-19-2022,17-13-10,4,depth_duration_stimuli/000502_2014-06-08_23-02-32_260595134347_rgbf000063-resize_4/000502_2014-06-08_23-02-32_260595134347_rgbf000063-resize_4-target.png,125,2.431,6.0,4292,124,feet,jsons/VE125_randls_72.json,896566,1138647,37,Woman
4,828740,DepthScenes,duration_manipulation_targetAtFixation,jsons/VE125_randls_72.json,http://54.235.29.9/FacialAge/BNav_EC2/DepthDuration/v2_depth_duration_MTurk/v2_DepthDuration_HTML.html#126,126,1536,864,1536,864,9-19-2022,17-13-10,5,depth_duration_stimuli/000929_2014-06-09_16-33-19_260595134347_rgbf000139-resize_0/000929_2014-06-09_16-33-19_260595134347_rgbf000139-resize_0-target.png,125,2.8680000000000003,5.0,4463,131,feet,jsons/VE125_randls_72.json,896566,1138647,37,Woman
5,828740,DepthScenes,duration_manipulation_targetAtFixation,jsons/VE125_randls_72.json,http://54.235.29.9/FacialAge/BNav_EC2/DepthDuration/v2_depth_duration_MTurk/v2_DepthDuration_HTML.html#126,126,1536,864,1536,864,9-19-2022,17-13-10,6,depth_duration_stimuli/000457_2014-06-08_16-52-43_260595134347_rgbf000199-resize_1/000457_2014-06-08_16-52-43_260595134347_rgbf000199-resize_1-target.png,125,3.6489999999999996,8.0,5611,113,feet,jsons/VE125_randls_72.json,896566,1138647,37,Woman
6,828740,DepthScenes,duration_manipulation_targetAtFixation,jsons/VE125_randls_72.json,http://54.235.29.9/FacialAge/BNav_EC2/DepthDuration/v2_depth_duration_MTurk/v2_DepthDuration_HTML.html#126,126,1536,864,1536,864,9-19-2022,17-13-10,7,depth_duration_stimuli/000470_2014-06-09_19-42-40_260595134347_rgbf000094-resize_1/000470_2014-06-09_19-42-40_260595134347_rgbf000094-resize_1-target.png,125,1.831,3.0,5077,116,feet,jsons/VE125_randls_72.json,896566,1138647,37,Woman
7,828740,DepthScenes,duration_manipulation_targetAtFixation,jsons/VE125_randls_72.json,http://54.235.29.9/FacialAge/BNav_EC2/DepthDuration/v2_depth_duration_MTurk/v2_DepthDuration_HTML.html#126,126,1536,864,1536,864,9-19-2022,17-13-10,8,depth_duration_stimuli/000109_2014-05-14_23-41-52_260595134347_rgbf000035-resize_9/000109_2014-05-14_23-41-52_260595134347_rgbf000035-resize_9-target.png,125,1.3545,2.5,5741,124,feet,jsons/VE125_randls_72.json,896566,1138647,37,Woman
8,828740,DepthScenes,duration_manipulation_targetAtFixation,jsons/VE125_randls_72.json,http://54.235.29.9/FacialAge/BNav_EC2/DepthDuration/v2_depth_duration_MTurk/v2_DepthDuration_HTML.html#126,126,1536,864,1536,864,9-19-2022,17-13-10,9,depth_duration_stimuli/001150_2014-06-17_15-27-34_260595134347_rgbf000108-resize_2/001150_2014-06-17_15-27-34_260595134347_rgbf000108-resize_2-target.png,125,4.0325,15.0,5644,123,feet,jsons/VE125_randls_72.json,896566,1138647,37,Woman
9,828740,DepthScenes,duration_manipulation_targetAtFixation,jsons/VE125_randls_72.json,http://54.235.29.9/FacialAge/BNav_EC2/DepthDuration/v2_depth_duration_MTurk/v2_DepthDuration_HTML.html#126,126,1536,864,1536,864,9-19-2022,17-13-10,10,depth_duration_stimuli/000665_2014-06-09_20-42-35_260595134347_rgbf000110-resize_1/000665_2014-06-09_20-42-35_260595134347_rgbf000110-resize_1-target.png,125,3.057,9.0,4997,126,feet,jsons/VE125_randls_72.json,896566,1138647,37,Woman
10,828740,DepthScenes,duration_manipulation_targetAtFixation,jsons/VE125_randls_72.json,http://54.235.29.9/FacialAge/BNav_EC2/DepthDuration/v2_depth_duration_MTurk/v2_DepthDuration_HTML.html#126,126,1536,864,1536,864,9-19-2022,17-13-10,11,depth_duration_stimuli/001016_2014-06-09_16-16-10_260595134347_rgbf000112-resize_5/001016_2014-06-09_16-16-10_260595134347_rgbf000112-resize_5-target.png,125,1.6565,5.0,4151,129,feet,jsons/VE125_randls_72.json,896566,1138647,37,Woman
11,828740,DepthScenes,duration_manipulation_targetAtFixation,jsons/VE125_randls_72.json,http://54.235.29.9/FacialAge/BNav_EC2/DepthDuration/v2_depth_duration_MTurk/v2_DepthDuration_HTML.html#126,126,1536,864,1536,864,9-19-2022,17-13-10,12,depth_duration_stimuli/002340_2014-06-28_20-05-46_260595134347_rgbf000113-resize_0/002340_2014-06-28_20-05-46_260595134347_rgbf000113-resize_0-target.png,125,2.4735,14.0,5827,124,feet,jsons/VE125_randls_72.json,896566,1138647,37,Woman
12,828740,DepthScenes,duration_manipulation_targetAtFixation,jsons/VE125_randls_72.json,http://54.235.29.9/FacialAge/BNav_EC2/DepthDuration/v2_depth_duration_MTurk/v2_DepthDuration_HTML.html#126,126,1536,864,1536,864,9-19-2022,17-13-10,13,depth_duration_stimuli/000569_2014-06-09_22-51-47_260595134347_rgbf000141-resize_3/000569_2014-06-09_22-51-47_260595134347_rgbf000141-resize-original.jpg,125,4.512,0.0,4137,124,feet,jsons/VE125_randls_72.json,896566,1138647,37,Woman
13,828740,DepthScenes,duration_manipulation_targetAtFixation,jsons/VE125_randls_72.json,http://54.235.29.9/FacialAge/BNav_EC2/DepthDuration/v2_depth_duration_MTurk/v2_DepthDuration_HTML.html#126,126,1536,864,1536,864,9-19-2022,17-13-10,14,depth_duration_stimuli/003492_2014-05-21_15-50-55_094959634447_rgbf000828-resize_1/003492_2014-05-21_15-50-55_094959634447_rgbf000828-resize_1-target.png,125,4.06875,18.0,7576,132,feet,jsons/VE125_randls_72.json,896566,1138647,37,Woman
14,828740,DepthScenes,duration_manipulation_targetAtFixation,jsons/VE125_randls_72.json,http://54.235.29.9/FacialAge/BNav_EC2/DepthDuration/v2_depth_duration_MTurk/v2_DepthDuration_HTML.html#126,126,1536,864,1536,864,9-19-2022,17-13-10,15,depth_duration_stimuli/002568_2014-06-24_13-59-21_094959634447_rgbf000062-resize_4/002568_2014-06-24_13-59-21_094959634447_rgbf000062-resize_4-target.png,125,3.015,7.0,3613,127,feet,jsons/VE125_randls_72.json,896566,1138647,37,Woman
15,828740,DepthScenes,duration_manipulation_targetAtFixation,jsons/VE125_randls_72.json,http://54.235.29.9/FacialAge/BNav_EC2/DepthDuration/v2_depth_duration_MTurk/v2_DepthDuration_HTML.html#126,126,1536,864,1536,864,9-19-2022,17-13-10,16,depth_duration_stimuli/002784_2014-06-22_19-26-30_094959634447_rgbf000083-resize_3/002784_2014-06-22_19-26-30_094959634447_rgbf000083-resize_3-target.png,125,1.8046666666667,2.0,5187,128,feet,jsons/VE125_randls_72.json,896566,1138647,37,Woman
16,828740,DepthScenes,duration_manipulation_targetAtFixation,jsons/VE125_randls_72.json,http://54.235.29.9/FacialAge/BNav_EC2/DepthDuration/v2_depth_duration_MTurk/v2_DepthDuration_HTML.html#126,126,1536,864,1536,864,9-19-2022,17-13-10,17,depth_duration_stimuli/001100_2014-06-15_17-46-26_260595134347_rgbf000225-resize_2/001100_2014-06-15_17-46-26_260595134347_rgbf000225-resize_2-target.png,125,2.24,2.5,6786,124,feet,jsons/VE125_randls_72.json,896566,1138647,37,Woman
17,828740,DepthScenes,duration_manipulation_targetAtFixation,jsons/VE125_randls_72.json,http://54.235.29.9/FacialAge/BNav_EC2/DepthDuration/v2_depth_duration_MTurk/v2_DepthDuration_HTML.html#126,126,1536,864,1536,864,9-19-2022,17-13-10,18,depth_duration_stimuli/001175_2014-06-17_15-45-55_260595134347_rgbf000129-resize_4/001175_2014-06-17_15-45-55_260595134347_rgbf000129-resize_4-target.png,125,4.255,19.0,7485,124,feet,jsons/VE125_randls_72.json,896566,1138647,37,Woman
18,828740,DepthScenes,duration_manipulation_targetAtFixation,jsons/VE125_randls_72.json,http://54.235.29.9/FacialAge/BNav_EC2/DepthDuration/v2_depth_duration_MTurk/v2_DepthDuration_HTML.html#126,126,1536,864,1536,864,9-19-2022,17-13-10,19,depth_duration_stimuli/003490_2014-05-21_15-50-11_094959634447_rgbf000101-resize_3/003490_2014-05-21_15-50-11_094959634447_rgbf000101-resize_3-target.png,125,3.6445,10.0,5090,139,feet,jsons/VE125_randls_72.json,896566,1138647,37,Woman
19,828740,DepthScenes,duration_manipulation_targetAtFixation,jsons/VE125_randls_72.json,http://54.235.29.9/FacialAge/BNav_EC2/DepthDuration/v2_depth_duration_MTurk/v2_DepthDuration_HTML.html#126,126,1536,864,1536,864,9-19-2022,17-13-10,20,depth_duration_stimuli/001110_2014-06-15_17-25-28_260595134347_rgbf000150-resize_1/001110_2014-06-15_17-25-28_260595134347_rgbf000150-resize_1-target.png,125,1.7115,4.0,4122,125,feet,jsons/VE125_randls_72.json,896566,1138647,37,Woman
20,828740,DepthScenes,duration_manipulation_targetAtFixation,jsons/VE125_randls_72.json,http://54.235.29.9/FacialAge/BNav_EC2/DepthDuration/v2_depth_duration_MTurk/v2_DepthDuration_HTML.html#126,126,1536,864,1536,864,9-19-2022,17-13-10,21,depth_duration_stimuli/000927_2014-06-09_16-32-30_260595134347_rgbf000123-resize_3/000927_2014-06-09_16-32-30_260595134347_rgbf000123-resize_3-target.png,125,2.6785,8.0,4865,131,feet,jsons/VE125_randls_72.json,896566,1138647,37,Woman
21,828740,DepthScenes,duration_manipulation_targetAtFixation,jsons/VE125_randls_72.json,http://54.235.29.9/FacialAge/BNav_EC2/DepthDuration/v2_depth_duration_MTurk/v2_DepthDuration_HTML.html#126,126,1536,864,1536,864,9-19-2022,17-13-10,22,depth_duration_stimuli/002663_2014-06-13_15-50-26_094959634447_rgbf000075-resize_1/002663_2014-06-13_15-50-26_094959634447_rgbf000075-resize_1-target.png,125,4.7495,9.0,5750,126,feet,jsons/VE125_randls_72.json,896566,1138647,37,Woman
22,828740,DepthScenes,duration_manipulation_targetAtFixation,jsons/VE125_randls_72.json,http://54.235.29.9/FacialAge/BNav_EC2/DepthDuration/v2_depth_duration_MTurk/v2_DepthDuration_HTML.html#126,126,1536,864,1536,864,9-19-2022,17-13-10,23,depth_duration_stimuli/000409_2014-06-04_19-23-33_260595134347_rgbf000067-resize_0/000409_2014-06-04_19-23-33_260595134347_rgbf000067-resize_0-target.png,125,3.7335,7.0,3751,125,feet,jsons/VE125_randls_72.json,896566,1138647,37,Woman
23,828740,DepthScenes,duration_manipulation_targetAtFixation,jsons/VE125_randls_72.json,http://54.235.29.9/FacialAge/BNav_EC2/DepthDuration/v2_depth_duration_MTurk/v2_DepthDuration_HTML.html#126,126,1536,864,1536,864,9-19-2022,17-13-10,24,depth_duration_stimuli/000522_2014-06-08_13-35-06_260595134347_rgbf000244-resize_1/000522_2014-06-08_13-35-06_260595134347_rgbf000244-resize_1-target.png,125,2.3715,1.5,6577,124,feet,jsons/VE125_randls_72.json,896566,1138647,37,Woman
24,828740,DepthScenes,duration_manipulation_targetAtFixation,jsons/VE125_randls_72.json,http://54.235.29.9/FacialAge/BNav_EC2/DepthDuration/v2_depth_duration_MTurk/v2_DepthDuration_HTML.html#126,126,1536,864,1536,864,9-19-2022,17-13-10,25,depth_duration_stimuli/002949_2014-06-26_15-57-42_094959634447_rgbf000079-resize_1/002949_2014-06-26_15-57-42_094959634447_rgbf000079-resize_1-target.png,125,1.8915,3.0,5334,125,feet,jsons/VE125_randls_72.json,896566,1138647,37,Woman
25,828740,DepthScenes,duration_manipulation_targetAtFixation,jsons/VE125_randls_72.json,http://54.235.29.9/FacialAge/BNav_EC2/DepthDuration/v2_depth_duration_MTurk/v2_DepthDuration_HTML.html#126,126,1536,864,1536,864,9-19-2022,17-13-10,26,depth_duration_stimuli/001806_2014-06-26_20-50-20_260595134347_rgbf000091-resize_1/001806_2014-06-26_20-50-20_260595134347_rgbf000091-resize_1-target.png,125,2.7305,3.5,7017,123,feet,jsons/VE125_randls_72.json,896566,1138647,37,Woman
26,828740,DepthScenes,duration_manipulation_targetAtFixation,jsons/VE125_randls_72.json,http://54.235.29.9/FacialAge/BNav_EC2/DepthDuration/v2_depth_duration_MTurk/v2_DepthDuration_HTML.html#126,126,1536,864,1536,864,9-19-2022,17-13-10,27,depth_duration_stimuli/001617_2014-06-20_11-35-32_260595134347_rgbf000066-resize_1/001617_2014-06-20_11-35-32_260595134347_rgbf000066-resize_1-target.png,125,3.7910000000000004,6.0,6118,124,feet,jsons/VE125_randls_72.json,896566,1138647,37,Woman
27,828740,DepthScenes,duration_manipulation_targetAtFixation,jsons/VE125_randls_72.json,http://54.235.29.9/FacialAge/BNav_EC2/DepthDuration/v2_depth_duration_MTurk/v2_DepthDuration_HTML.html#126,126,1536,864,1536,864,9-19-2022,17-13-10,28,depth_duration_stimuli/000414_2014-06-04_19-49-13_260595134347_rgbf000044-resize_0/000414_2014-06-04_19-49-13_260595134347_rgbf000044-resize_0-target.png,125,4.329,6.0,6230,124,feet,jsons/VE125_randls_72.json,896566,1138647,37,Woman
28,828740,DepthScenes,duration_manipulation_targetAtFixation,jsons/VE125_randls_72.json,http://54.235.29.9/FacialAge/BNav_EC2/DepthDuration/v2_depth_duration_MTurk/v2_DepthDuration_HTML.html#126,126,1536,864,1536,864,9-19-2022,17-13-10,29,depth_duration_stimuli/003129_2014-05-12_10-48-10_094959634447_rgbf000100-resize_0/003129_2014-05-12_10-48-10_094959634447_rgbf000100-resize_0-target.png,125,4.9305,5.0,6385,117,feet,jsons/VE125_randls_72.json,896566,1138647,37,Woman
29,828740,DepthScenes,duration_manipulation_targetAtFixation,jsons/VE125_randls_72.json,http://54.235.29.9/FacialAge/BNav_EC2/DepthDuration/v2_depth_duration_MTurk/v2_DepthDuration_HTML.html#126,126,1536,864,1536,864,9-19-2022,17-13-10,30,depth_duration_stimuli/000375_2014-06-08_11-17-29_260595134347_rgbf000133-resize_2/000375_2014-06-08_11-17-29_260595134347_rgbf000133-resize-original.jpg,125,4.718,0.0,4306,139,feet,jsons/VE125_randls_72.json,896566,1138647,37,Woman
30,828740,DepthScenes,duration_manipulation_targetAtFixation,jsons/VE125_randls_72.json,http://54.235.29.9/FacialAge/BNav_EC2/DepthDuration/v2_depth_duration_MTurk/v2_DepthDuration_HTML.html#126,126,1536,864,1536,864,9-19-2022,17-13-10,31,depth_duration_stimuli/001164_2014-06-17_15-35-46_260595134347_rgbf000085-resize_3/001164_2014-06-17_15-35-46_260595134347_rgbf000085-resize_3-target.png,125,2.354,4.0,3821,123,feet,jsons/VE125_randls_72.json,896566,1138647,37,Woman
31,828740,DepthScenes,duration_manipulation_targetAtFixation,jsons/VE125_randls_72.json,http://54.235.29.9/FacialAge/BNav_EC2/DepthDuration/v2_depth_duration_MTurk/v2_DepthDuration_HTML.html#126,126,1536,864,1536,864,9-19-2022,17-13-10,32,depth_duration_stimuli/001136_2014-06-17_15-19-41_260595134347_rgbf000076-resize_3/001136_2014-06-17_15-19-41_260595134347_rgbf000076-resize_3-target.png,125,1.8655,6.5,5333,130,feet,jsons/VE125_randls_72.json,896566,1138647,37,Woman
32,828740,DepthScenes,duration_manipulation_targetAtFixation,jsons/VE125_randls_72.json,http://54.235.29.9/FacialAge/BNav_EC2/DepthDuration/v2_depth_duration_MTurk/v2_DepthDuration_HTML.html#126,126,1536,864,1536,864,9-19-2022,17-13-10,33,depth_duration_stimuli/001808_2014-06-26_20-50-58_260595134347_rgbf000029-resize_1/001808_2014-06-26_20-50-58_260595134347_rgbf000029-resize_1-target.png,125,4.249,7.0,4316,123,feet,jsons/VE125_randls_72.json,896566,1138647,37,Woman
33,828740,DepthScenes,duration_manipulation_targetAtFixation,jsons/VE125_randls_72.json,http://54.235.29.9/FacialAge/BNav_EC2/DepthDuration/v2_depth_duration_MTurk/v2_DepthDuration_HTML.html#126,126,1536,864,1536,864,9-19-2022,17-13-10,34,depth_duration_stimuli/001815_2014-06-26_20-52-55_260595134347_rgbf000020-resize_0/001815_2014-06-26_20-52-55_260595134347_rgbf000020-resize_0-target.png,125,3.3865,12.0,6177,123,feet,jsons/VE125_randls_72.json,896566,1138647,37,Woman
34,828740,DepthScenes,duration_manipulation_targetAtFixation,jsons/VE125_randls_72.json,http://54.235.29.9/FacialAge/BNav_EC2/DepthDuration/v2_depth_duration_MTurk/v2_DepthDuration_HTML.html#126,126,1536,864,1536,864,9-19-2022,17-13-10,35,depth_duration_stimuli/000486_2014-06-09_20-47-20_260595134347_rgbf000143-resize_2/000486_2014-06-09_20-47-20_260595134347_rgbf000143-resize_2-target.png,125,4.8325,6.0,5078,124,feet,jsons/VE125_randls_72.json,896566,1138647,37,Woman
35,828740,DepthScenes,duration_manipulation_targetAtFixation,jsons/VE125_randls_72.json,http://54.235.29.9/FacialAge/BNav_EC2/DepthDuration/v2_depth_duration_MTurk/v2_DepthDuration_HTML.html#126,126,1536,864,1536,864,9-19-2022,17-13-10,36,depth_duration_stimuli/003083_2014-06-15_15-21-03_094959634447_rgbf000063-resize_1/003083_2014-06-15_15-21-03_094959634447_rgbf000063-resize_1-target.png,125,4.1405,11.0,4651,111,feet,jsons/VE125_randls_72.json,896566,1138647,37,Woman
36,828740,DepthScenes,duration_manipulation_targetAtFixation,jsons/VE125_randls_72.json,http://54.235.29.9/FacialAge/BNav_EC2/DepthDuration/v2_depth_duration_MTurk/v2_DepthDuration_HTML.html#126,126,1536,864,1536,864,9-19-2022,17-13-10,37,depth_duration_stimuli/001092_2014-06-15_17-34-58_260595134347_rgbf000171-resize_3/001092_2014-06-15_17-34-58_260595134347_rgbf000171-resize_3-target.png,125,2.6935,4.0,3836,123,feet,jsons/VE125_randls_72.json,896566,1138647,37,Woman
37,828740,DepthScenes,duration_manipulation_targetAtFixation,jsons/VE125_randls_72.json,http://54.235.29.9/FacialAge/BNav_EC2/DepthDuration/v2_depth_duration_MTurk/v2_DepthDuration_HTML.html#126,126,1536,864,1536,864,9-19-2022,17-13-10,38,depth_duration_stimuli/002545_2014-06-24_13-38-53_094959634447_rgbf000080-resize_4/002545_2014-06-24_13-38-53_094959634447_rgbf000080-resize_4-target.png,125,1.9205,5.0,4827,125,feet,jsons/VE125_randls_72.json,896566,1138647,37,Woman
38,828740,DepthScenes,duration_manipulation_targetAtFixation,jsons/VE125_randls_72.json,http://54.235.29.9/FacialAge/BNav_EC2/DepthDuration/v2_depth_duration_MTurk/v2_DepthDuration_HTML.html#126,126,1536,864,1536,864,9-19-2022,17-13-10,39,depth_duration_stimuli/000739_2014-06-08_18-45-58_260595134347_rgbf000068-resize_1/000739_2014-06-08_18-45-58_260595134347_rgbf000068-resize_1-target.png,125,3.534,3.5,6844,126,feet,jsons/VE125_randls_72.json,896566,1138647,37,Woman
39,828740,DepthScenes,duration_manipulation_targetAtFixation,jsons/VE125_randls_72.json,http://54.235.29.9/FacialAge/BNav_EC2/DepthDuration/v2_depth_duration_MTurk/v2_DepthDuration_HTML.html#126,126,1536,864,1536,864,9-19-2022,17-13-10,40,depth_duration_stimuli/000734_2014-06-08_17-39-11_260595134347_rgbf000128-resize_2/000734_2014-06-08_17-39-11_260595134347_rgbf000128-resize_2-target.png,125,4.098,6.0,5019,125,feet,jsons/VE125_randls_72.json,896566,1138647,37,Woman
40,828740,DepthScenes,duration_manipulation_targetAtFixation,jsons/VE125_randls_72.json,http://54.235.29.9/FacialAge/BNav_EC2/DepthDuration/v2_depth_duration_MTurk/v2_DepthDuration_HTML.html#126,126,1536,864,1536,864,9-19-2022,17-13-10,41,depth_duration_stimuli/001167_2014-06-17_15-38-07_260595134347_rgbf000108-resize_0/001167_2014-06-17_15-38-07_260595134347_rgbf000108-resize_0-target.png,125,1.8505,2.5,4277,138,feet,jsons/VE125_randls_72.json,896566,1138647,37,Woman
41,828740,DepthScenes,duration_manipulation_targetAtFixation,jsons/VE125_randls_72.json,http://54.235.29.9/FacialAge/BNav_EC2/DepthDuration/v2_depth_duration_MTurk/v2_DepthDuration_HTML.html#126,126,1536,864,1536,864,9-19-2022,17-13-10,42,depth_duration_stimuli/003587_2014-05-23_16-48-02_094959634447_rgbf002384-resize_2/003587_2014-05-23_16-48-02_094959634447_rgbf002384-resize_2-target.png,125,1.357,1.5,6228,117,feet,jsons/VE125_randls_72.json,896566,1138647,37,Woman
42,828740,DepthScenes,duration_manipulation_targetAtFixation,jsons/VE125_randls_72.json,http://54.235.29.9/FacialAge/BNav_EC2/DepthDuration/v2_depth_duration_MTurk/v2_DepthDuration_HTML.html#126,126,1536,864,1536,864,9-19-2022,17-13-10,43,depth_duration_stimuli/002213_2014-06-28_18-37-58_260595134347_rgbf000055-resize_1/002213_2014-06-28_18-37-58_260595134347_rgbf000055-resize_1-target.png,125,3.62,10.0,4708,131,feet,jsons/VE125_randls_72.json,896566,1138647,37,Woman
43,828740,DepthScenes,duration_manipulation_targetAtFixation,jsons/VE125_randls_72.json,http://54.235.29.9/FacialAge/BNav_EC2/DepthDuration/v2_depth_duration_MTurk/v2_DepthDuration_HTML.html#126,126,1536,864,1536,864,9-19-2022,17-13-10,44,depth_duration_stimuli/000691_2014-06-08_13-08-50_260595134347_rgbf000132-resize_3/000691_2014-06-08_13-08-50_260595134347_rgbf000132-resize_3-target.png,125,4.1530000000000005,7.0,4038,125,feet,jsons/VE125_randls_72.json,896566,1138647,37,Woman
44,828740,DepthScenes,duration_manipulation_targetAtFixation,jsons/VE125_randls_72.json,http://54.235.29.9/FacialAge/BNav_EC2/DepthDuration/v2_depth_duration_MTurk/v2_DepthDuration_HTML.html#126,126,1536,864,1536,864,9-19-2022,17-13-10,45,depth_duration_stimuli/000787_2014-06-08_22-33-53_260595134347_rgbf000175-resize_1/000787_2014-06-08_22-33-53_260595134347_rgbf000175-resize-original.jpg,125,4.784,0.0,3528,124,feet,jsons/VE125_randls_72.json,896566,1138647,37,Woman
45,828740,DepthScenes,duration_manipulation_targetAtFixation,jsons/VE125_randls_72.json,http://54.235.29.9/FacialAge/BNav_EC2/DepthDuration/v2_depth_duration_MTurk/v2_DepthDuration_HTML.html#126,126,1536,864,1536,864,9-19-2022,17-13-10,46,depth_duration_stimuli/000788_2014-06-08_22-34-36_260595134347_rgbf000131-resize_1/000788_2014-06-08_22-34-36_260595134347_rgbf000131-resize_1-target.png,125,3.359,6.0,3664,126,feet,jsons/VE125_randls_72.json,896566,1138647,37,Woman
46,828740,DepthScenes,duration_manipulation_targetAtFixation,jsons/VE125_randls_72.json,http://54.235.29.9/FacialAge/BNav_EC2/DepthDuration/v2_depth_duration_MTurk/v2_DepthDuration_HTML.html#126,126,1536,864,1536,864,9-19-2022,17-13-10,47,depth_duration_stimuli/001235_2014-06-17_16-37-36_260595134347_rgbf000084-resize_4/001235_2014-06-17_16-37-36_260595134347_rgbf000084-resize_4-target.png,125,3.6605,7.0,5462,124,feet,jsons/VE125_randls_72.json,896566,1138647,37,Woman
47,828740,DepthScenes,duration_manipulation_targetAtFixation,jsons/VE125_randls_72.json,http://54.235.29.9/FacialAge/BNav_EC2/DepthDuration/v2_depth_duration_MTurk/v2_DepthDuration_HTML.html#126,126,1536,864,1536,864,9-19-2022,17-13-10,48,depth_duration_stimuli/001056_2014-06-08_18-46-44_260595134347_rgbf000068-resize_0/001056_2014-06-08_18-46-44_260595134347_rgbf000068-resize_0-target.png,125,2.6625,8.0,4971,112,feet,jsons/VE125_randls_72.json,896566,1138647,37,Woman
48,828740,DepthScenes,duration_manipulation_targetAtFixation,jsons/VE125_randls_72.json,http://54.235.29.9/FacialAge/BNav_EC2/DepthDuration/v2_depth_duration_MTurk/v2_DepthDuration_HTML.html#126,126,1536,864,1536,864,9-19-2022,17-13-10,49,depth_duration_stimuli/002199_2014-06-28_18-33-56_260595134347_rgbf000074-resize_0/002199_2014-06-28_18-33-56_260595134347_rgbf000074-resize_0-target.png,125,1.996,3.0,6137,124,feet,jsons/VE125_randls_72.json,896566,1138647,37,Woman
49,828740,DepthScenes,duration_manipulation_targetAtFixation,jsons/VE125_randls_72.json,http://54.235.29.9/FacialAge/BNav_EC2/DepthDuration/v2_depth_duration_MTurk/v2_DepthDuration_HTML.html#126,126,1536,864,1536,864,9-19-2022,17-13-10,50,depth_duration_stimuli/000878_2014-06-08_22-52-45_260595134347_rgbf000045-resize_2/000878_2014-06-08_22-52-45_260595134347_rgbf000045-resize_2-target.png,125,2.092,5.5,6031,125,feet,jsons/VE125_randls_72.json,896566,1138647,37,Woman
50,828740,DepthScenes,duration_manipulation_targetAtFixation,jsons/VE125_randls_72.json,http://54.235.29.9/FacialAge/BNav_EC2/DepthDuration/v2_depth_duration_MTurk/v2_DepthDuration_HTML.html#126,126,1536,864,1536,864,9-19-2022,17-13-10,51,depth_duration_stimuli/002953_2014-06-08_17-32-18_094959634447_rgbf000059-resize_5/002953_2014-06-08_17-32-18_094959634447_rgbf000059-resize_5-target.png,125,1.551,2.0,6671,124,feet,jsons/VE125_randls_72.json,896566,1138647,37,Woman
51,828740,DepthScenes,duration_manipulation_targetAtFixation,jsons/VE125_randls_72.json,http://54.235.29.9/FacialAge/BNav_EC2/DepthDuration/v2_depth_duration_MTurk/v2_DepthDuration_HTML.html#126,126,1536,864,1536,864,9-19-2022,17-13-10,52,depth_duration_stimuli/000493_2014-06-09_21-01-18_260595134347_rgbf000196-resize_3/000493_2014-06-09_21-01-18_260595134347_rgbf000196-resize_3-target.png,125,3.44,9.0,4388,125,feet,jsons/VE125_randls_72.json,896566,1138647,37,Woman
52,828740,DepthScenes,duration_manipulation_targetAtFixation,jsons/VE125_randls_72.json,http://54.235.29.9/FacialAge/BNav_EC2/DepthDuration/v2_depth_duration_MTurk/v2_DepthDuration_HTML.html#126,126,1536,864,1536,864,9-19-2022,17-13-10,53,depth_duration_stimuli/000191_2014-05-12_17-07-38_260595134347_rgbf000199-resize_0/000191_2014-05-12_17-07-38_260595134347_rgbf000199-resize_0-target.png,125,3.7995,15.0,4882,125,feet,jsons/VE125_randls_72.json,896566,1138647,37,Woman
53,828740,DepthScenes,duration_manipulation_targetAtFixation,jsons/VE125_randls_72.json,http://54.235.29.9/FacialAge/BNav_EC2/DepthDuration/v2_depth_duration_MTurk/v2_DepthDuration_HTML.html#126,126,1536,864,1536,864,9-19-2022,17-13-10,54,depth_duration_stimuli/002549_2014-06-24_13-41-39_094959634447_rgbf000022-resize_3/002549_2014-06-24_13-41-39_094959634447_rgbf000022-resize_3-target.png,125,1.476,4.0,3656,125,feet,jsons/VE125_randls_72.json,896566,1138647,37,Woman
54,828740,DepthScenes,duration_manipulation_targetAtFixation,jsons/VE125_randls_72.json,http://54.235.29.9/FacialAge/BNav_EC2/DepthDuration/v2_depth_duration_MTurk/v2_DepthDuration_HTML.html#126,126,1536,864,1536,864,9-19-2022,17-13-10,55,depth_duration_stimuli/002750_2014-06-22_19-08-03_094959634447_rgbf000094-resize_4/002750_2014-06-22_19-08-03_094959634447_rgbf000094-resize_4-target.png,125,2.354,12.0,4536,126,feet,jsons/VE125_randls_72.json,896566,1138647,37,Woman
55,828740,DepthScenes,duration_manipulation_targetAtFixation,jsons/VE125_randls_72.json,http://54.235.29.9/FacialAge/BNav_EC2/DepthDuration/v2_depth_duration_MTurk/v2_DepthDuration_HTML.html#126,126,1536,864,1536,864,9-19-2022,17-13-10,56,depth_duration_stimuli/002964_2014-06-08_17-46-11_094959634447_rgbf000091-resize_4/002964_2014-06-08_17-46-11_094959634447_rgbf000091-resize_4-target.png,125,1.6909999999999998,2.0,3692,128,feet,jsons/VE125_randls_72.json,896566,1138647,37,Woman
56,828740,DepthScenes,duration_manipulation_targetAtFixation,jsons/VE125_randls_72.json,http://54.235.29.9/FacialAge/BNav_EC2/DepthDuration/v2_depth_duration_MTurk/v2_DepthDuration_HTML.html#126,126,1536,864,1536,864,9-19-2022,17-13-10,57,depth_duration_stimuli/002136_2014-06-25_21-18-03_260595134347_rgbf000109-resize_3/002136_2014-06-25_21-18-03_260595134347_rgbf000109-resize_3-target.png,125,1.9569999999999999,3.5,4004,140,feet,jsons/VE125_randls_72.json,896566,1138647,37,Woman
57,828740,DepthScenes,duration_manipulation_targetAtFixation,jsons/VE125_randls_72.json,http://54.235.29.9/FacialAge/BNav_EC2/DepthDuration/v2_depth_duration_MTurk/v2_DepthDuration_HTML.html#126,126,1536,864,1536,864,9-19-2022,17-13-10,58,depth_duration_stimuli/000682_2014-06-08_23-14-58_260595134347_rgbf000041-resize_5/000682_2014-06-08_23-14-58_260595134347_rgbf000041-resize_5-target.png,125,2.7239999999999998,5.0,4041,133,feet,jsons/VE125_randls_72.json,896566,1138647,37,Woman
58,828740,DepthScenes,duration_manipulation_targetAtFixation,jsons/VE125_randls_72.json,http://54.235.29.9/FacialAge/BNav_EC2/DepthDuration/v2_depth_duration_MTurk/v2_DepthDuration_HTML.html#126,126,1536,864,1536,864,9-19-2022,17-13-10,59,depth_duration_stimuli/001650_2014-06-20_12-09-00_260595134347_rgbf000087-resize_3/001650_2014-06-20_12-09-00_260595134347_rgbf000087-resize_3-target.png,125,1.9505,2.0,3802,122,feet,jsons/VE125_randls_72.json,896566,1138647,37,Woman
59,828740,DepthScenes,duration_manipulation_targetAtFixation,jsons/VE125_randls_72.json,http://54.235.29.9/FacialAge/BNav_EC2/DepthDuration/v2_depth_duration_MTurk/v2_DepthDuration_HTML.html#126,126,1536,864,1536,864,9-19-2022,17-13-10,60,depth_duration_stimuli/001570_2014-06-20_17-21-09_260595134347_rgbf000135-resize_4/001570_2014-06-20_17-21-09_260595134347_rgbf000135-resize_4-target.png,125,4.467,9.0,3467,122,feet,jsons/VE125_randls_72.json,896566,1138647,37,Woman
60,828740,DepthScenes,duration_manipulation_targetAtFixation,jsons/VE125_randls_72.json,http://54.235.29.9/FacialAge/BNav_EC2/DepthDuration/v2_depth_duration_MTurk/v2_DepthDuration_HTML.html#126,126,1536,864,1536,864,9-19-2022,17-13-10,61,depth_duration_stimuli/001392_2014-06-19_16-07-59_260595134347_rgbf000046-resize_1/001392_2014-06-19_16-07-59_260595134347_rgbf000046-resize_1-target.png,125,4.135,16.0,4502,124,feet,jsons/VE125_randls_72.json,896566,1138647,37,Woman
61,828740,DepthScenes,duration_manipulation_targetAtFixation,jsons/VE125_randls_72.json,http://54.235.29.9/FacialAge/BNav_EC2/DepthDuration/v2_depth_duration_MTurk/v2_DepthDuration_HTML.html#126,126,1536,864,1536,864,9-19-2022,17-13-10,62,depth_duration_stimuli/002988_2014-06-15_12-24-20_094959634447_rgbf000150-resize_1/002988_2014-06-15_12-24-20_094959634447_rgbf000150-resize_1-target.png,125,4.7669999999999995,11.0,4791,140,feet,jsons/VE125_randls_72.json,896566,1138647,37,Woman
62,828740,DepthScenes,duration_manipulation_targetAtFixation,jsons/VE125_randls_72.json,http://54.235.29.9/FacialAge/BNav_EC2/DepthDuration/v2_depth_duration_MTurk/v2_DepthDuration_HTML.html#126,126,1536,864,1536,864,9-19-2022,17-13-10,63,depth_duration_stimuli/001052_2014-06-08_18-24-54_260595134347_rgbf000130-resize_1/001052_2014-06-08_18-24-54_260595134347_rgbf000130-resize_1-target.png,125,4.1045,8.0,5677,127,feet,jsons/VE125_randls_72.json,896566,1138647,37,Woman
63,828740,DepthScenes,duration_manipulation_targetAtFixation,jsons/VE125_randls_72.json,http://54.235.29.9/FacialAge/BNav_EC2/DepthDuration/v2_depth_duration_MTurk/v2_DepthDuration_HTML.html#126,126,1536,864,1536,864,9-19-2022,17-13-10,64,depth_duration_stimuli/002748_2014-06-22_19-07-22_094959634447_rgbf000078-resize_1/002748_2014-06-22_19-07-22_094959634447_rgbf000078-resize_1-target.png,125,4.6705,20.0,4773,139,feet,jsons/VE125_randls_72.json,896566,1138647,37,Woman
64,828740,DepthScenes,duration_manipulation_targetAtFixation,jsons/VE125_randls_72.json,http://54.235.29.9/FacialAge/BNav_EC2/DepthDuration/v2_depth_duration_MTurk/v2_DepthDuration_HTML.html#126,126,1536,864,1536,864,9-19-2022,17-13-10,65,depth_duration_stimuli/002995_2014-06-15_12-31-26_094959634447_rgbf000150-resize_1/002995_2014-06-15_12-31-26_094959634447_rgbf000150-resize_1-target.png,125,3.8360000000000003,13.0,9046,125,feet,jsons/VE125_randls_72.json,896566,1138647,37,Woman
65,828740,DepthScenes,duration_manipulation_targetAtFixation,jsons/VE125_randls_72.json,http://54.235.29.9/FacialAge/BNav_EC2/DepthDuration/v2_depth_duration_MTurk/v2_DepthDuration_HTML.html#126,126,1536,864,1536,864,9-19-2022,17-13-10,66,depth_duration_stimuli/001222_2014-06-17_16-24-06_260595134347_rgbf000073-resize_0/001222_2014-06-17_16-24-06_260595134347_rgbf000073-resize-original.jpg,125,1.4385,0.0,3569,124,feet,jsons/VE125_randls_72.json,896566,1138647,37,Woman
66,828740,DepthScenes,duration_manipulation_targetAtFixation,jsons/VE125_randls_72.json,http://54.235.29.9/FacialAge/BNav_EC2/DepthDuration/v2_depth_duration_MTurk/v2_DepthDuration_HTML.html#126,126,1536,864,1536,864,9-19-2022,17-13-10,67,depth_duration_stimuli/002725_2014-06-22_11-47-51_094959634447_rgbf000070-resize_1/002725_2014-06-22_11-47-51_094959634447_rgbf000070-resize_1-target.png,125,2.195,6.0,4993,131,feet,jsons/VE125_randls_72.json,896566,1138647,37,Woman
67,828740,DepthScenes,duration_manipulation_targetAtFixation,jsons/VE125_randls_72.json,http://54.235.29.9/FacialAge/BNav_EC2/DepthDuration/v2_depth_duration_MTurk/v2_DepthDuration_HTML.html#126,126,1536,864,1536,864,9-19-2022,17-13-10,68,depth_duration_stimuli/002344_2014-06-28_20-06-29_260595134347_rgbf000030-resize_1/002344_2014-06-28_20-06-29_260595134347_rgbf000030-resize_1-target.png,125,1.5795,1.5,3978,139,feet,jsons/VE125_randls_72.json,896566,1138647,37,Woman
68,828740,DepthScenes,duration_manipulation_targetAtFixation,jsons/VE125_randls_72.json,http://54.235.29.9/FacialAge/BNav_EC2/DepthDuration/v2_depth_duration_MTurk/v2_DepthDuration_HTML.html#126,126,1536,864,1536,864,9-19-2022,17-13-10,69,depth_duration_stimuli/003621_2014-05-23_18-06-08_094959634447_rgbf000101-resize_1/003621_2014-05-23_18-06-08_094959634447_rgbf000101-resize_1-target.png,125,3.9835,14.0,5167,138,feet,jsons/VE125_randls_72.json,896566,1138647,37,Woman
69,828740,DepthScenes,duration_manipulation_targetAtFixation,jsons/VE125_randls_72.json,http://54.235.29.9/FacialAge/BNav_EC2/DepthDuration/v2_depth_duration_MTurk/v2_DepthDuration_HTML.html#126,126,1536,864,1536,864,9-19-2022,17-13-10,70,depth_duration_stimuli/001584_2014-06-20_11-07-43_260595134347_rgbf000002-resize_1/001584_2014-06-20_11-07-43_260595134347_rgbf000002-resize_1-target.png,125,3.53,8.0,3347,126,feet,jsons/VE125_randls_72.json,896566,1138647,37,Woman
70,828740,DepthScenes,duration_manipulation_targetAtFixation,jsons/VE125_randls_72.json,http://54.235.29.9/FacialAge/BNav_EC2/DepthDuration/v2_depth_duration_MTurk/v2_DepthDuration_HTML.html#126,126,1536,864,1536,864,9-19-2022,17-13-10,71,depth_duration_stimuli/001059_2014-06-08_21-53-27_260595134347_rgbf000061-resize_4/001059_2014-06-08_21-53-27_260595134347_rgbf000061-resize_4-target.png,125,2.4185,4.5,4768,124,feet,jsons/VE125_randls_72.json,896566,1138647,37,Woman
71,828740,DepthScenes,duration_manipulation_targetAtFixation,jsons/VE125_randls_72.json,http://54.235.29.9/FacialAge/BNav_EC2/DepthDuration/v2_depth_duration_MTurk/v2_DepthDuration_HTML.html#126,126,1536,864,1536,864,9-19-2022,17-13-10,72,depth_duration_stimuli/001032_2014-06-08_13-23-17_260595134347_rgbf000021-resize_3/001032_2014-06-08_13-23-17_260595134347_rgbf000021-resize_3-target.png,125,3.2725,5.0,3381,124,feet,jsons/VE125_randls_72.json,896566,1138647,37,Woman
72,828740,DepthScenes,duration_manipulation_targetAtFixation,jsons/VE125_randls_72.json,http://54.235.29.9/FacialAge/BNav_EC2/DepthDuration/v2_depth_duration_MTurk/v2_DepthDuration_HTML.html#126,126,1536,864,1536,864,9-19-2022,17-13-10,73,depth_duration_stimuli/000009_2014-05-26_14-32-05_260595134347_rgbf000034-resize_3/000009_2014-05-26_14-32-05_260595134347_rgbf000034-resize_3-target.png,125,3.8715,13.0,5536,125,feet,jsons/VE125_randls_72.json,896566,1138647,37,Woman
73,828740,DepthScenes,duration_manipulation_targetAtFixation,jsons/VE125_randls_72.json,http://54.235.29.9/FacialAge/BNav_EC2/DepthDuration/v2_depth_duration_MTurk/v2_DepthDuration_HTML.html#126,126,1536,864,1536,864,9-19-2022,17-13-10,74,depth_duration_stimuli/001828_2014-06-26_21-40-03_260595134347_rgbf000024-resize_0/001828_2014-06-26_21-40-03_260595134347_rgbf000024-resize_0-target.png,125,4.8260000000000005,7.0,4685,124,feet,jsons/VE125_randls_72.json,896566,1138647,37,Woman
74,828740,DepthScenes,duration_manipulation_targetAtFixation,jsons/VE125_randls_72.json,http://54.235.29.9/FacialAge/BNav_EC2/DepthDuration/v2_depth_duration_MTurk/v2_DepthDuration_HTML.html#126,126,1536,864,1536,864,9-19-2022,17-13-10,75,depth_duration_stimuli/000642_2014-06-08_16-59-25_260595134347_rgbf000098-resize_2/000642_2014-06-08_16-59-25_260595134347_rgbf000098-resize_2-target.png,125,2.8815,6.0,4348,110,feet,jsons/VE125_randls_72.json,896566,1138647,37,Woman
75,828740,DepthScenes,duration_manipulation_targetAtFixation,jsons/VE125_randls_72.json,http://54.235.29.9/FacialAge/BNav_EC2/DepthDuration/v2_depth_duration_MTurk/v2_DepthDuration_HTML.html#126,126,1536,864,1536,864,9-19-2022,17-13-10,76,depth_duration_stimuli/002425_2014-06-28_20-27-29_260595134347_rgbf000031-resize_8/002425_2014-06-28_20-27-29_260595134347_rgbf000031-resize_8-target.png,125,3.8960000000000004,9.0,3471,131,feet,jsons/VE125_randls_72.json,896566,1138647,37,Woman
76,828740,DepthScenes,duration_manipulation_targetAtFixation,jsons/VE125_randls_72.json,http://54.235.29.9/FacialAge/BNav_EC2/DepthDuration/v2_depth_duration_MTurk/v2_DepthDuration_HTML.html#126,126,1536,864,1536,864,9-19-2022,17-13-10,77,depth_duration_stimuli/002630_2014-06-24_14-47-50_094959634447_rgbf000055-resize_1/002630_2014-06-24_14-47-50_094959634447_rgbf000055-resize_1-target.png,125,3.0095,14.0,5695,124,feet,jsons/VE125_randls_72.json,896566,1138647,37,Woman
77,828740,DepthScenes,duration_manipulation_targetAtFixation,jsons/VE125_randls_72.json,http://54.235.29.9/FacialAge/BNav_EC2/DepthDuration/v2_depth_duration_MTurk/v2_DepthDuration_HTML.html#126,126,1536,864,1536,864,9-19-2022,17-13-10,78,depth_duration_stimuli/002758_2014-06-22_19-11-20_094959634447_rgbf000128-resize_1/002758_2014-06-22_19-11-20_094959634447_rgbf000128-resize_1-target.png,125,2.555,5.0,4652,124,feet,jsons/VE125_randls_72.json,896566,1138647,37,Woman
78,828740,DepthScenes,duration_manipulation_targetAtFixation,jsons/VE125_randls_72.json,http://54.235.29.9/FacialAge/BNav_EC2/DepthDuration/v2_depth_duration_MTurk/v2_DepthDuration_HTML.html#126,126,1536,864,1536,864,9-19-2022,17-13-10,79,depth_duration_stimuli/002118_2014-06-25_20-32-08_260595134347_rgbf000078-resize_1/002118_2014-06-25_20-32-08_260595134347_rgbf000078-resize_1-target.png,125,2.6460000000000004,4.5,5436,118,feet,jsons/VE125_randls_72.json,896566,1138647,37,Woman
79,828740,DepthScenes,duration_manipulation_targetAtFixation,jsons/VE125_randls_72.json,http://54.235.29.9/FacialAge/BNav_EC2/DepthDuration/v2_depth_duration_MTurk/v2_DepthDuration_HTML.html#126,126,1536,864,1536,864,9-19-2022,17-13-10,80,depth_duration_stimuli/001516_2014-06-20_16-25-09_260595134347_rgbf000076-resize_2/001516_2014-06-20_16-25-09_260595134347_rgbf000076-resize_2-target.png,125,1.7445,4.0,3743,124,feet,jsons/VE125_randls_72.json,896566,1138647,37,Woman
80,828740,DepthScenes,duration_manipulation_targetAtFixation,jsons/VE125_randls_72.json,http://54.235.29.9/FacialAge/BNav_EC2/DepthDuration/v2_depth_duration_MTurk/v2_DepthDuration_HTML.html#126,126,1536,864,1536,864,9-19-2022,17-13-10,81,depth_duration_stimuli/001555_2014-06-20_17-12-10_260595134347_rgbf000065-resize_4/001555_2014-06-20_17-12-10_260595134347_rgbf000065-resize_4-target.png,125,1.633,3.0,4133,122,feet,jsons/VE125_randls_72.json,896566,1138647,37,Woman
81,828740,DepthScenes,duration_manipulation_targetAtFixation,jsons/VE125_randls_72.json,http://54.235.29.9/FacialAge/BNav_EC2/DepthDuration/v2_depth_duration_MTurk/v2_DepthDuration_HTML.html#126,126,1536,864,1536,864,9-19-2022,17-13-10,82,depth_duration_stimuli/000103_2014-05-14_22-01-17_260595134347_rgbf000152-resize_5/000103_2014-05-14_22-01-17_260595134347_rgbf000152-resize_5-target.png,125,1.993,8.0,4091,122,feet,jsons/VE125_randls_72.json,896566,1138647,37,Woman
82,828740,DepthScenes,duration_manipulation_targetAtFixation,jsons/VE125_randls_72.json,http://54.235.29.9/FacialAge/BNav_EC2/DepthDuration/v2_depth_duration_MTurk/v2_DepthDuration_HTML.html#126,126,1536,864,1536,864,9-19-2022,17-13-10,83,depth_duration_stimuli/001029_2014-06-08_13-17-57_260595134347_rgbf000065-resize_1/001029_2014-06-08_13-17-57_260595134347_rgbf000065-resize_1-target.png,125,3.0835,7.5,4858,125,feet,jsons/VE125_randls_72.json,896566,1138647,37,Woman
83,828740,DepthScenes,duration_manipulation_targetAtFixation,jsons/VE125_randls_72.json,http://54.235.29.9/FacialAge/BNav_EC2/DepthDuration/v2_depth_duration_MTurk/v2_DepthDuration_HTML.html#126,126,1536,864,1536,864,9-19-2022,17-13-10,84,depth_duration_stimuli/000677_2014-06-08_23-10-32_260595134347_rgbf000158-resize_6/000677_2014-06-08_23-10-32_260595134347_rgbf000158-resize_6-target.png,125,3.556,6.5,4472,123,feet,jsons/VE125_randls_72.json,896566,1138647,37,Woman
84,828740,DepthScenes,duration_manipulation_targetAtFixation,jsons/VE125_randls_72.json,http://54.235.29.9/FacialAge/BNav_EC2/DepthDuration/v2_depth_duration_MTurk/v2_DepthDuration_HTML.html#126,126,1536,864,1536,864,9-19-2022,17-13-10,85,depth_duration_stimuli/003070_2014-06-15_14-58-27_094959634447_rgbf000150-resize_3/003070_2014-06-15_14-58-27_094959634447_rgbf000150-resize_3-target.png,125,2.9415,6.0,4228,123,feet,jsons/VE125_randls_72.json,896566,1138647,37,Woman
85,828740,DepthScenes,duration_manipulation_targetAtFixation,jsons/VE125_randls_72.json,http://54.235.29.9/FacialAge/BNav_EC2/DepthDuration/v2_depth_duration_MTurk/v2_DepthDuration_HTML.html#126,126,1536,864,1536,864,9-19-2022,17-13-10,86,depth_duration_stimuli/000943_2014-06-09_19-31-07_260595134347_rgbf000128-resize_1/000943_2014-06-09_19-31-07_260595134347_rgbf000128-resize_1-target.png,125,1.9765,3.5,5144,126,feet,jsons/VE125_randls_72.json,896566,1138647,37,Woman
86,828740,DepthScenes,duration_manipulation_targetAtFixation,jsons/VE125_randls_72.json,http://54.235.29.9/FacialAge/BNav_EC2/DepthDuration/v2_depth_duration_MTurk/v2_DepthDuration_HTML.html#126,126,1536,864,1536,864,9-19-2022,17-13-10,87,depth_duration_stimuli/000506_2014-06-08_23-21-00_260595134347_rgbf000070-resize_7/000506_2014-06-08_23-21-00_260595134347_rgbf000070-resize_7-target.png,125,4.0585,7.0,3183,126,feet,jsons/VE125_randls_72.json,896566,1138647,37,Woman
87,828740,DepthScenes,duration_manipulation_targetAtFixation,jsons/VE125_randls_72.json,http://54.235.29.9/FacialAge/BNav_EC2/DepthDuration/v2_depth_duration_MTurk/v2_DepthDuration_HTML.html#126,126,1536,864,1536,864,9-19-2022,17-13-10,88,depth_duration_stimuli/003079_2014-06-15_15-18-20_094959634447_rgbf000152-resize_8/003079_2014-06-15_15-18-20_094959634447_rgbf000152-resize_8-target.png,125,2.8775,8.0,4549,124,feet,jsons/VE125_randls_72.json,896566,1138647,37,Woman
88,828740,DepthScenes,duration_manipulation_targetAtFixation,jsons/VE125_randls_72.json,http://54.235.29.9/FacialAge/BNav_EC2/DepthDuration/v2_depth_duration_MTurk/v2_DepthDuration_HTML.html#126,126,1536,864,1536,864,9-19-2022,17-13-10,89,depth_duration_stimuli/001158_2014-06-17_15-32-16_260595134347_rgbf000138-resize_2/001158_2014-06-17_15-32-16_260595134347_rgbf000138-resize_2-target.png,125,4.5315,10.0,9003,124,feet,jsons/VE125_randls_72.json,896566,1138647,37,Woman
89,828740,DepthScenes,duration_manipulation_targetAtFixation,jsons/VE125_randls_72.json,http://54.235.29.9/FacialAge/BNav_EC2/DepthDuration/v2_depth_duration_MTurk/v2_DepthDuration_HTML.html#126,126,1536,864,1536,864,9-19-2022,17-13-10,90,depth_duration_stimuli/000556_2014-06-09_22-42-56_260595134347_rgbf000214-resize_1/000556_2014-06-09_22-42-56_260595134347_rgbf000214-resize_1-target.png,125,4.8415,6.0,9773,125,feet,jsons/VE125_randls_72.json,896566,1138647,37,Woman
90,828740,DepthScenes,duration_manipulation_targetAtFixation,jsons/VE125_randls_72.json,http://54.235.29.9/FacialAge/BNav_EC2/DepthDuration/v2_depth_duration_MTurk/v2_DepthDuration_HTML.html#126,126,1536,864,1536,864,9-19-2022,17-13-10,91,depth_duration_stimuli/002153_2014-06-25_21-27-18_260595134347_rgbf000038-resize_5/002153_2014-06-25_21-27-18_260595134347_rgbf000038-resize_5-target.png,125,2.505,4.0,6306,124,feet,jsons/VE125_randls_72.json,896566,1138647,37,Woman
91,828740,DepthScenes,duration_manipulation_targetAtFixation,jsons/VE125_randls_72.json,http://54.235.29.9/FacialAge/BNav_EC2/DepthDuration/v2_depth_duration_MTurk/v2_DepthDuration_HTML.html#126,126,1536,864,1536,864,9-19-2022,17-13-10,92,depth_duration_stimuli/002660_2014-06-13_15-44-18_094959634447_rgbf001878-resize_2/002660_2014-06-13_15-44-18_094959634447_rgbf001878-resize_2-target.png,125,3.576,5.0,7430,126,feet,jsons/VE125_randls_72.json,896566,1138647,37,Woman
92,828740,DepthScenes,duration_manipulation_targetAtFixation,jsons/VE125_randls_72.json,http://54.235.29.9/FacialAge/BNav_EC2/DepthDuration/v2_depth_duration_MTurk/v2_DepthDuration_HTML.html#126,126,1536,864,1536,864,9-19-2022,17-13-10,93,depth_duration_stimuli/002905_2014-06-03_18-04-43_094959634447_rgbf000151-resize_2/002905_2014-06-03_18-04-43_094959634447_rgbf000151-resize_2-target.png,125,2.0295,3.0,3776,129,feet,jsons/VE125_randls_72.json,896566,1138647,37,Woman
93,828740,DepthScenes,duration_manipulation_targetAtFixation,jsons/VE125_randls_72.json,http://54.235.29.9/FacialAge/BNav_EC2/DepthDuration/v2_depth_duration_MTurk/v2_DepthDuration_HTML.html#126,126,1536,864,1536,864,9-19-2022,17-13-10,94,depth_duration_stimuli/003423_2014-05-21_10-23-26_094959634447_rgbf002665-resize_2/003423_2014-05-21_10-23-26_094959634447_rgbf002665-resize_2-target.png,125,3.2575,7.0,4916,123,feet,jsons/VE125_randls_72.json,896566,1138647,37,Woman
94,828740,DepthScenes,duration_manipulation_targetAtFixation,jsons/VE125_randls_72.json,http://54.235.29.9/FacialAge/BNav_EC2/DepthDuration/v2_depth_duration_MTurk/v2_DepthDuration_HTML.html#126,126,1536,864,1536,864,9-19-2022,17-13-10,95,depth_duration_stimuli/000736_2014-06-08_18-24-15_260595134347_rgbf000206-resize_3/000736_2014-06-08_18-24-15_260595134347_rgbf000206-resize_3-target.png,125,3.515,4.5,4738,125,feet,jsons/VE125_randls_72.json,896566,1138647,37,Woman
95,828740,DepthScenes,duration_manipulation_targetAtFixation,jsons/VE125_randls_72.json,http://54.235.29.9/FacialAge/BNav_EC2/DepthDuration/v2_depth_duration_MTurk/v2_DepthDuration_HTML.html#126,126,1536,864,1536,864,9-19-2022,17-13-10,96,depth_duration_stimuli/000137_2014-05-20_17-04-49_260595134347_rgbf000120-resize_1/000137_2014-05-20_17-04-49_260595134347_rgbf000120-resize_1-target.png,125,3.786,6.0,4569,124,feet,jsons/VE125_randls_72.json,896566,1138647,37,Woman
96,828740,DepthScenes,duration_manipulation_targetAtFixation,jsons/VE125_randls_72.json,http://54.235.29.9/FacialAge/BNav_EC2/DepthDuration/v2_depth_duration_MTurk/v2_DepthDuration_HTML.html#126,126,1536,864,1536,864,9-19-2022,17-13-10,97,depth_duration_stimuli/002043_2014-06-24_20-29-38_260595134347_rgbf000039-resize_4/002043_2014-06-24_20-29-38_260595134347_rgbf000039-resize_4-target.png,125,2.8435,5.5,5551,125,feet,jsons/VE125_randls_72.json,896566,1138647,37,Woman
97,828740,DepthScenes,duration_manipulation_targetAtFixation,jsons/VE125_randls_72.json,http://54.235.29.9/FacialAge/BNav_EC2/DepthDuration/v2_depth_duration_MTurk/v2_DepthDuration_HTML.html#126,126,1536,864,1536,864,9-19-2022,17-13-10,98,depth_duration_stimuli/003048_2014-06-15_13-49-43_094959634447_rgbf000150-resize_1/003048_2014-06-15_13-49-43_094959634447_rgbf000150-resize_1-target.png,125,4.0035,9.5,6790,124,feet,jsons/VE125_randls_72.json,896566,1138647,37,Woman
98,828740,DepthScenes,duration_manipulation_targetAtFixation,jsons/VE125_randls_72.json,http://54.235.29.9/FacialAge/BNav_EC2/DepthDuration/v2_depth_duration_MTurk/v2_DepthDuration_HTML.html#126,126,1536,864,1536,864,9-19-2022,17-13-10,99,depth_duration_stimuli/001540_2014-06-20_17-01-05_260595134347_rgbf000086-resize_2/001540_2014-06-20_17-01-05_260595134347_rgbf000086-resize-original.jpg,125,1.459,0.0,3886,123,feet,jsons/VE125_randls_72.json,896566,1138647,37,Woman
99,828740,DepthScenes,duration_manipulation_targetAtFixation,jsons/VE125_randls_72.json,http://54.235.29.9/FacialAge/BNav_EC2/DepthDuration/v2_depth_duration_MTurk/v2_DepthDuration_HTML.html#126,126,1536,864,1536,864,9-19-2022,17-13-10,100,depth_duration_stimuli/002600_2014-06-24_14-27-04_094959634447_rgbf000074-resize_2/002600_2014-06-24_14-27-04_094959634447_rgbf000074-resize_2-target.png,125,2.7575,5.0,4235,127,feet,jsons/VE125_randls_72.json,896566,1138647,37,Woman
100,828740,DepthScenes,duration_manipulation_targetAtFixation,jsons/VE125_randls_72.json,http://54.235.29.9/FacialAge/BNav_EC2/DepthDuration/v2_depth_duration_MTurk/v2_DepthDuration_HTML.html#126,126,1536,864,1536,864,9-19-2022,17-13-10,101,depth_duration_stimuli/003228_2014-05-14_13-42-35_094959634447_rgbf000101-resize_1/003228_2014-05-14_13-42-35_094959634447_rgbf000101-resize_1-target.png,125,1.9680000000000002,3.0,5255,126,feet,jsons/VE125_randls_72.json,896566,1138647,37,Woman
101,828740,DepthScenes,duration_manipulation_targetAtFixation,jsons/VE125_randls_72.json,http://54.235.29.9/FacialAge/BNav_EC2/DepthDuration/v2_depth_duration_MTurk/v2_DepthDuration_HTML.html#126,126,1536,864,1536,864,9-19-2022,17-13-10,102,depth_duration_stimuli/002445_2014-06-28_20-32-16_260595134347_rgbf000029-resize_4/002445_2014-06-28_20-32-16_260595134347_rgbf000029-resize_4-target.png,125,2.5315,4.0,3935,124,feet,jsons/VE125_randls_72.json,896566,1138647,37,Woman
102,828740,DepthScenes,duration_manipulation_targetAtFixation,jsons/VE125_randls_72.json,http://54.235.29.9/FacialAge/BNav_EC2/DepthDuration/v2_depth_duration_MTurk/v2_DepthDuration_HTML.html#126,126,1536,864,1536,864,9-19-2022,17-13-10,103,depth_duration_stimuli/000780_2014-06-08_22-28-29_260595134347_rgbf000126-resize_1/000780_2014-06-08_22-28-29_260595134347_rgbf000126-resize_1-target.png,125,3.3825,7.0,4888,124,feet,jsons/VE125_randls_72.json,896566,1138647,37,Woman
103,828740,DepthScenes,duration_manipulation_targetAtFixation,jsons/VE125_randls_72.json,http://54.235.29.9/FacialAge/BNav_EC2/DepthDuration/v2_depth_duration_MTurk/v2_DepthDuration_HTML.html#126,126,1536,864,1536,864,9-19-2022,17-13-10,104,depth_duration_stimuli/002039_2014-06-24_20-22-38_260595134347_rgbf000084-resize_1/002039_2014-06-24_20-22-38_260595134347_rgbf000084-resize_1-target.png,125,4.408,8.0,4631,124,feet,jsons/VE125_randls_72.json,896566,1138647,37,Woman
104,828740,DepthScenes,duration_manipulation_targetAtFixation,jsons/VE125_randls_72.json,http://54.235.29.9/FacialAge/BNav_EC2/DepthDuration/v2_depth_duration_MTurk/v2_DepthDuration_HTML.html#126,126,1536,864,1536,864,9-19-2022,17-13-10,105,depth_duration_stimuli/002103_2014-06-25_20-00-40_260595134347_rgbf000049-resize_0/002103_2014-06-25_20-00-40_260595134347_rgbf000049-resize_0-target.png,125,4.105,10.0,5443,124,feet,jsons/VE125_randls_72.json,896566,1138647,37,Woman
105,828740,DepthScenes,duration_manipulation_targetAtFixation,jsons/VE125_randls_72.json,http://54.235.29.9/FacialAge/BNav_EC2/DepthDuration/v2_depth_duration_MTurk/v2_DepthDuration_HTML.html#126,126,1536,864,1536,864,9-19-2022,17-13-10,106,depth_duration_stimuli/002788_2014-06-22_19-36-03_094959634447_rgbf000088-resize_2/002788_2014-06-22_19-36-03_094959634447_rgbf000088-resize_2-target.png,125,1.6465,8.0,4227,139,feet,jsons/VE125_randls_72.json,896566,1138647,37,Woman
106,828740,DepthScenes,duration_manipulation_targetAtFixation,jsons/VE125_randls_72.json,http://54.235.29.9/FacialAge/BNav_EC2/DepthDuration/v2_depth_duration_MTurk/v2_DepthDuration_HTML.html#126,126,1536,864,1536,864,9-19-2022,17-13-10,107,depth_duration_stimuli/000749_2014-06-08_21-55-06_260595134347_rgbf000070-resize_2/000749_2014-06-08_21-55-06_260595134347_rgbf000070-resize_2-target.png,125,2.331,4.5,7678,127,feet,jsons/VE125_randls_72.json,896566,1138647,37,Woman
107,828740,DepthScenes,duration_manipulation_targetAtFixation,jsons/VE125_randls_72.json,http://54.235.29.9/FacialAge/BNav_EC2/DepthDuration/v2_depth_duration_MTurk/v2_DepthDuration_HTML.html#126,126,1536,864,1536,864,9-19-2022,17-13-10,108,depth_duration_stimuli/000692_2014-06-08_13-09-42_260595134347_rgbf000199-resize_2/000692_2014-06-08_13-09-42_260595134347_rgbf000199-resize_2-target.png,125,3.661,18.0,5328,124,feet,jsons/VE125_randls_72.json,896566,1138647,37,Woman
108,828740,DepthScenes,duration_manipulation_targetAtFixation,jsons/VE125_randls_72.json,http://54.235.29.9/FacialAge/BNav_EC2/DepthDuration/v2_depth_duration_MTurk/v2_DepthDuration_HTML.html#126,126,1536,864,1536,864,9-19-2022,17-13-10,109,depth_duration_stimuli/001094_2014-06-15_17-36-00_260595134347_rgbf000205-resize_0/001094_2014-06-15_17-36-00_260595134347_rgbf000205-resize_0-target.png,125,4.2175,13.0,5702,116,feet,jsons/VE125_randls_72.json,896566,1138647,37,Woman
109,828740,DepthScenes,duration_manipulation_targetAtFixation,jsons/VE125_randls_72.json,http://54.235.29.9/FacialAge/BNav_EC2/DepthDuration/v2_depth_duration_MTurk/v2_DepthDuration_HTML.html#126,126,1536,864,1536,864,9-19-2022,17-13-10,110,depth_duration_stimuli/002509_2014-06-24_13-19-22_094959634447_rgbf000077-resize_0/002509_2014-06-24_13-19-22_094959634447_rgbf000077-resize_0-target.png,125,1.3065,5.0,4394,125,feet,jsons/VE125_randls_72.json,896566,1138647,37,Woman
110,828740,DepthScenes,duration_manipulation_targetAtFixation,jsons/VE125_randls_72.json,http://54.235.29.9/FacialAge/BNav_EC2/DepthDuration/v2_depth_duration_MTurk/v2_DepthDuration_HTML.html#126,126,1536,864,1536,864,9-19-2022,17-13-10,111,depth_duration_stimuli/003338_2014-05-20_11-01-23_094959634447_rgbf000051-resize_6/003338_2014-05-20_11-01-23_094959634447_rgbf000051-resize_6-target.png,125,1.693,3.5,6166,112,feet,jsons/VE125_randls_72.json,896566,1138647,37,Woman
111,828740,DepthScenes,duration_manipulation_targetAtFixation,jsons/VE125_randls_72.json,http://54.235.29.9/FacialAge/BNav_EC2/DepthDuration/v2_depth_duration_MTurk/v2_DepthDuration_HTML.html#126,126,1536,864,1536,864,9-19-2022,17-13-10,112,depth_duration_stimuli/000906_2014-06-08_13-35-43_260595134347_rgbf000155-resize_1/000906_2014-06-08_13-35-43_260595134347_rgbf000155-resize_1-target.png,125,2.8489999999999998,8.0,6715,123,feet,jsons/VE125_randls_72.json,896566,1138647,37,Woman
112,828740,DepthScenes,duration_manipulation_targetAtFixation,jsons/VE125_randls_72.json,http://54.235.29.9/FacialAge/BNav_EC2/DepthDuration/v2_depth_duration_MTurk/v2_DepthDuration_HTML.html#126,126,1536,864,1536,864,9-19-2022,17-13-10,113,depth_duration_stimuli/002805_2014-06-22_19-54-03_094959634447_rgbf000079-resize_1/002805_2014-06-22_19-54-03_094959634447_rgbf000079-resize_1-target.png,125,3.1439999999999997,10.0,4742,124,feet,jsons/VE125_randls_72.json,896566,1138647,37,Woman
113,828740,DepthScenes,duration_manipulation_targetAtFixation,jsons/VE125_randls_72.json,http://54.235.29.9/FacialAge/BNav_EC2/DepthDuration/v2_depth_duration_MTurk/v2_DepthDuration_HTML.html#126,126,1536,864,1536,864,9-19-2022,17-13-10,114,depth_duration_stimuli/001244_2014-06-17_16-47-45_260595134347_rgbf000030-resize_4/001244_2014-06-17_16-47-45_260595134347_rgbf000030-resize_4-target.png,125,2.0425,5.0,4356,122,feet,jsons/VE125_randls_72.json,896566,1138647,37,Woman
114,828740,DepthScenes,duration_manipulation_targetAtFixation,jsons/VE125_randls_72.json,http://54.235.29.9/FacialAge/BNav_EC2/DepthDuration/v2_depth_duration_MTurk/v2_DepthDuration_HTML.html#126,126,1536,864,1536,864,9-19-2022,17-13-10,115,depth_duration_stimuli/003495_2014-05-21_16-01-51_094959634447_rgbf000100-resize_3/003495_2014-05-21_16-01-51_094959634447_rgbf000100-resize_3-target.png,125,1.6255,2.0,4009,130,feet,jsons/VE125_randls_72.json,896566,1138647,37,Woman
115,828740,DepthScenes,duration_manipulation_targetAtFixation,jsons/VE125_randls_72.json,http://54.235.29.9/FacialAge/BNav_EC2/DepthDuration/v2_depth_duration_MTurk/v2_DepthDuration_HTML.html#126,126,1536,864,1536,864,9-19-2022,17-13-10,116,depth_duration_stimuli/001170_2014-06-17_15-43-44_260595134347_rgbf000096-resize_6/001170_2014-06-17_15-43-44_260595134347_rgbf000096-resize-original.jpg,125,1.1909999999999998,0.0,3296,119,feet,jsons/VE125_randls_72.json,896566,1138647,37,Woman
116,828740,DepthScenes,duration_manipulation_targetAtFixation,jsons/VE125_randls_72.json,http://54.235.29.9/FacialAge/BNav_EC2/DepthDuration/v2_depth_duration_MTurk/v2_DepthDuration_HTML.html#126,126,1536,864,1536,864,9-19-2022,17-13-10,117,depth_duration_stimuli/003534_2014-05-22_15-06-10_094959634447_rgbf000102-resize_4/003534_2014-05-22_15-06-10_094959634447_rgbf000102-resize_4-target.png,125,1.426,2.5,5549,124,feet,jsons/VE125_randls_72.json,896566,1138647,37,Woman
117,828740,DepthScenes,duration_manipulation_targetAtFixation,jsons/VE125_randls_72.json,http://54.235.29.9/FacialAge/BNav_EC2/DepthDuration/v2_depth_duration_MTurk/v2_DepthDuration_HTML.html#126,126,1536,864,1536,864,9-19-2022,17-13-10,118,depth_duration_stimuli/002637_2014-06-24_14-51-13_094959634447_rgbf000066-resize_4/002637_2014-06-24_14-51-13_094959634447_rgbf000066-resize_4-target.png,125,1.9955,4.0,5576,130,feet,jsons/VE125_randls_72.json,896566,1138647,37,Woman
118,828740,DepthScenes,duration_manipulation_targetAtFixation,jsons/VE125_randls_72.json,http://54.235.29.9/FacialAge/BNav_EC2/DepthDuration/v2_depth_duration_MTurk/v2_DepthDuration_HTML.html#126,126,1536,864,1536,864,9-19-2022,17-13-10,119,depth_duration_stimuli/002279_2014-06-28_18-55-32_260595134347_rgbf000040-resize_5/002279_2014-06-28_18-55-32_260595134347_rgbf000040-resize_5-target.png,125,1.5043333333333,3.0,3895,127,feet,jsons/VE125_randls_72.json,896566,1138647,37,Woman
119,828740,DepthScenes,duration_manipulation_targetAtFixation,jsons/VE125_randls_72.json,http://54.235.29.9/FacialAge/BNav_EC2/DepthDuration/v2_depth_duration_MTurk/v2_DepthDuration_HTML.html#126,126,1536,864,1536,864,9-19-2022,17-13-10,120,depth_duration_stimuli/000635_2014-06-08_16-38-42_260595134347_rgbf000106-resize_1/000635_2014-06-08_16-38-42_260595134347_rgbf000106-resize_1-target.png,125,2.074,4.0,5845,124,feet,jsons/VE125_randls_72.json,896566,1138647,37,Woman
120,828740,DepthScenes,duration_manipulation_targetAtFixation,jsons/VE125_randls_72.json,http://54.235.29.9/FacialAge/BNav_EC2/DepthDuration/v2_depth_duration_MTurk/v2_DepthDuration_HTML.html#126,126,1536,864,1536,864,9-19-2022,17-13-10,121,depth_duration_stimuli/002272_2014-06-28_18-53-56_260595134347_rgbf000067-resize_2/002272_2014-06-28_18-53-56_260595134347_rgbf000067-resize_2-target.png,125,1.138,2.0,3790,125,feet,jsons/VE125_randls_72.json,896566,1138647,37,Woman
121,828740,DepthScenes,duration_manipulation_targetAtFixation,jsons/VE125_randls_72.json,http://54.235.29.9/FacialAge/BNav_EC2/DepthDuration/v2_depth_duration_MTurk/v2_DepthDuration_HTML.html#126,126,1536,864,1536,864,9-19-2022,17-13-10,122,depth_duration_stimuli/001571_2014-06-20_17-21-32_260595134347_rgbf000089-resize_1/001571_2014-06-20_17-21-32_260595134347_rgbf000089-resize_1-target.png,125,1.86,3.0,3145,132,feet,jsons/VE125_randls_72.json,896566,1138647,37,Woman
122,828740,DepthScenes,duration_manipulation_targetAtFixation,jsons/VE125_randls_72.json,http://54.235.29.9/FacialAge/BNav_EC2/DepthDuration/v2_depth_duration_MTurk/v2_DepthDuration_HTML.html#126,126,1536,864,1536,864,9-19-2022,17-13-10,123,depth_duration_stimuli/001011_2014-06-08_23-18-54_260595134347_rgbf000044-resize_4/001011_2014-06-08_23-18-54_260595134347_rgbf000044-resize_4-target.png,125,2.4730000000000003,6.0,2976,123,feet,jsons/VE125_randls_72.json,896566,1138647,37,Woman
123,828740,DepthScenes,duration_manipulation_targetAtFixation,jsons/VE125_randls_72.json,http://54.235.29.9/FacialAge/BNav_EC2/DepthDuration/v2_depth_duration_MTurk/v2_DepthDuration_HTML.html#126,126,1536,864,1536,864,9-19-2022,17-13-10,124,depth_duration_stimuli/002875_2014-06-01_15-19-00_094959634447_rgbf000151-resize_1/002875_2014-06-01_15-19-00_094959634447_rgbf000151-resize_1-target.png,125,1.9675,4.0,4049,125,feet,jsons/VE125_randls_72.json,896566,1138647,37,Woman
124,828740,DepthScenes,duration_manipulation_targetAtFixation,jsons/VE125_randls_72.json,http://54.235.29.9/FacialAge/BNav_EC2/DepthDuration/v2_depth_duration_MTurk/v2_DepthDuration_HTML.html#126,126,1536,864,1536,864,9-19-2022,17-13-10,125,depth_duration_stimuli/000773_2014-06-08_22-24-54_260595134347_rgbf000093-resize_1/000773_2014-06-08_22-24-54_260595134347_rgbf000093-resize_1-target.png,125,4.973,15.0,4652,116,feet,jsons/VE125_randls_72.json,896566,1138647,37,Woman
125,828740,DepthScenes,duration_manipulation_targetAtFixation,jsons/VE125_randls_72.json,http://54.235.29.9/FacialAge/BNav_EC2/DepthDuration/v2_depth_duration_MTurk/v2_DepthDuration_HTML.html#126,126,1536,864,1536,864,9-19-2022,17-13-10,126,depth_duration_stimuli/002414_2014-06-28_20-24-58_260595134347_rgbf000067-resize_4/002414_2014-06-28_20-24-58_260595134347_rgbf000067-resize_4-target.png,125,4.363,10.0,4844,128,feet,jsons/VE125_randls_72.json,896566,1138647,37,Woman
126,828740,DepthScenes,duration_manipulation_targetAtFixation,jsons/VE125_randls_72.json,http://54.235.29.9/FacialAge/BNav_EC2/DepthDuration/v2_depth_duration_MTurk/v2_DepthDuration_HTML.html#126,126,1536,864,1536,864,9-19-2022,17-13-10,127,depth_duration_stimuli/001055_2014-06-08_18-45-35_260595134347_rgbf000111-resize_4/001055_2014-06-08_18-45-35_260595134347_rgbf000111-resize_4-target.png,125,2.4290000000000003,6.0,3726,123,feet,jsons/VE125_randls_72.json,896566,1138647,37,Woman
127,828740,DepthScenes,duration_manipulation_targetAtFixation,jsons/VE125_randls_72.json,http://54.235.29.9/FacialAge/BNav_EC2/DepthDuration/v2_depth_duration_MTurk/v2_DepthDuration_HTML.html#126,126,1536,864,1536,864,9-19-2022,17-13-10,128,depth_duration_stimuli/000549_2014-06-08_22-10-24_260595134347_rgbf000247-resize_3/000549_2014-06-08_22-10-24_260595134347_rgbf000247-resize_3-target.png,125,1.841,4.0,3015,134,feet,jsons/VE125_randls_72.json,896566,1138647,37,Woman
128,828740,DepthScenes,duration_manipulation_targetAtFixation,jsons/VE125_randls_72.json,http://54.235.29.9/FacialAge/BNav_EC2/DepthDuration/v2_depth_duration_MTurk/v2_DepthDuration_HTML.html#126,126,1536,864,1536,864,9-19-2022,17-13-10,129,depth_duration_stimuli/000917_2014-06-09_22-45-29_260595134347_rgbf000149-resize_3/000917_2014-06-09_22-45-29_260595134347_rgbf000149-resize_3-target.png,125,4.1865,8.0,4189,130,feet,jsons/VE125_randls_72.json,896566,1138647,37,Woman
129,828740,DepthScenes,duration_manipulation_targetAtFixation,jsons/VE125_randls_72.json,http://54.235.29.9/FacialAge/BNav_EC2/DepthDuration/v2_depth_duration_MTurk/v2_DepthDuration_HTML.html#126,126,1536,864,1536,864,9-19-2022,17-13-10,130,depth_duration_stimuli/002323_2014-06-28_20-01-54_260595134347_rgbf000051-resize_4/002323_2014-06-28_20-01-54_260595134347_rgbf000051-resize_4-target.png,125,3.7310000000000003,7.0,4593,125,feet,jsons/VE125_randls_72.json,896566,1138647,37,Woman
130,828740,DepthScenes,duration_manipulation_targetAtFixation,jsons/VE125_randls_72.json,http://54.235.29.9/FacialAge/BNav_EC2/DepthDuration/v2_depth_duration_MTurk/v2_DepthDuration_HTML.html#126,126,1536,864,1536,864,9-19-2022,17-13-10,131,depth_duration_stimuli/002057_2014-06-24_21-00-13_260595134347_rgbf000120-resize_1/002057_2014-06-24_21-00-13_260595134347_rgbf000120-resize_1-target.png,125,2.967,9.0,4987,126,feet,jsons/VE125_randls_72.json,896566,1138647,37,Woman
131,828740,DepthScenes,duration_manipulation_targetAtFixation,jsons/VE125_randls_72.json,http://54.235.29.9/FacialAge/BNav_EC2/DepthDuration/v2_depth_duration_MTurk/v2_DepthDuration_HTML.html#126,126,1536,864,1536,864,9-19-2022,17-13-10,132,depth_duration_stimuli/000709_2014-06-08_13-51-55_260595134347_rgbf000068-resize_3/000709_2014-06-08_13-51-55_260595134347_rgbf000068-resize_3-target.png,125,1.8030000000000002,4.0,3220,127,feet,jsons/VE125_randls_72.json,896566,1138647,37,Woman
132,828740,DepthScenes,duration_manipulation_targetAtFixation,jsons/VE125_randls_72.json,http://54.235.29.9/FacialAge/BNav_EC2/DepthDuration/v2_depth_duration_MTurk/v2_DepthDuration_HTML.html#126,126,1536,864,1536,864,9-19-2022,17-13-10,133,depth_duration_stimuli/002989_2014-06-15_12-25-03_094959634447_rgbf000150-resize_3/002989_2014-06-15_12-25-03_094959634447_rgbf000150-resize_3-target.png,125,4.1975,10.0,5494,131,feet,jsons/VE125_randls_72.json,896566,1138647,37,Woman
133,828740,DepthScenes,duration_manipulation_targetAtFixation,jsons/VE125_randls_72.json,http://54.235.29.9/FacialAge/BNav_EC2/DepthDuration/v2_depth_duration_MTurk/v2_DepthDuration_HTML.html#126,126,1536,864,1536,864,9-19-2022,17-13-10,134,depth_duration_stimuli/000866_2014-06-09_20-45-42_260595134347_rgbf000139-resize_1/000866_2014-06-09_20-45-42_260595134347_rgbf000139-resize_1-target.png,125,3.2155,6.0,3509,111,feet,jsons/VE125_randls_72.json,896566,1138647,37,Woman
134,828740,DepthScenes,duration_manipulation_targetAtFixation,jsons/VE125_randls_72.json,http://54.235.29.9/FacialAge/BNav_EC2/DepthDuration/v2_depth_duration_MTurk/v2_DepthDuration_HTML.html#126,126,1536,864,1536,864,9-19-2022,17-13-10,135,depth_duration_stimuli/002072_2014-06-24_21-48-06_260595134347_rgbf000115-resize_0/002072_2014-06-24_21-48-06_260595134347_rgbf000115-resize-original.jpg,125,4.702,0.0,3128,140,feet,jsons/VE125_randls_72.json,896566,1138647,37,Woman
135,828740,DepthScenes,duration_manipulation_targetAtFixation,jsons/VE125_randls_72.json,http://54.235.29.9/FacialAge/BNav_EC2/DepthDuration/v2_depth_duration_MTurk/v2_DepthDuration_HTML.html#126,126,1536,864,1536,864,9-19-2022,17-13-10,136,depth_duration_stimuli/001133_2014-06-17_14-49-16_260595134347_rgbf000100-resize_0/001133_2014-06-17_14-49-16_260595134347_rgbf000100-resize_0-target.png,125,4.2115,7.0,4345,124,feet,jsons/VE125_randls_72.json,896566,1138647,37,Woman
136,828740,DepthScenes,duration_manipulation_targetAtFixation,jsons/VE125_randls_72.json,http://54.235.29.9/FacialAge/BNav_EC2/DepthDuration/v2_depth_duration_MTurk/v2_DepthDuration_HTML.html#126,126,1536,864,1536,864,9-19-2022,17-13-10,137,depth_duration_stimuli/001132_2014-06-17_14-48-54_260595134347_rgbf000100-resize_2/001132_2014-06-17_14-48-54_260595134347_rgbf000100-resize_2-target.png,125,3.753,6.0,3946,140,feet,jsons/VE125_randls_72.json,896566,1138647,37,Woman
137,828740,DepthScenes,duration_manipulation_targetAtFixation,jsons/VE125_randls_72.json,http://54.235.29.9/FacialAge/BNav_EC2/DepthDuration/v2_depth_duration_MTurk/v2_DepthDuration_HTML.html#126,126,1536,864,1536,864,9-19-2022,17-13-10,138,depth_duration_stimuli/000469_2014-06-09_19-42-10_260595134347_rgbf000081-resize_1/000469_2014-06-09_19-42-10_260595134347_rgbf000081-resize_1-target.png,125,1.652,3.5,5807,116,feet,jsons/VE125_randls_72.json,896566,1138647,37,Woman
138,828740,DepthScenes,duration_manipulation_targetAtFixation,jsons/VE125_randls_72.json,http://54.235.29.9/FacialAge/BNav_EC2/DepthDuration/v2_depth_duration_MTurk/v2_DepthDuration_HTML.html#126,126,1536,864,1536,864,9-19-2022,17-13-10,139,depth_duration_stimuli/000483_2014-06-09_20-41-45_260595134347_rgbf000116-resize_4/000483_2014-06-09_20-41-45_260595134347_rgbf000116-resize_4-target.png,125,1.337,2.5,4172,124,feet,jsons/VE125_randls_72.json,896566,1138647,37,Woman
139,828740,DepthScenes,duration_manipulation_targetAtFixation,jsons/VE125_randls_72.json,http://54.235.29.9/FacialAge/BNav_EC2/DepthDuration/v2_depth_duration_MTurk/v2_DepthDuration_HTML.html#126,126,1536,864,1536,864,9-19-2022,17-13-10,140,depth_duration_stimuli/001417_2014-06-19_16-25-36_260595134347_rgbf000115-resize_5/001417_2014-06-19_16-25-36_260595134347_rgbf000115-resize_5-target.png,125,4.6255,11.0,6328,117,feet,jsons/VE125_randls_72.json,896566,1138647,37,Woman
140,828740,DepthScenes,duration_manipulation_targetAtFixation,jsons/VE125_randls_72.json,http://54.235.29.9/FacialAge/BNav_EC2/DepthDuration/v2_depth_duration_MTurk/v2_DepthDuration_HTML.html#126,126,1536,864,1536,864,9-19-2022,17-13-10,141,depth_duration_stimuli/003081_2014-06-15_15-19-16_094959634447_rgbf000150-resize_1/003081_2014-06-15_15-19-16_094959634447_rgbf000150-resize_1-target.png,125,3.9125,8.0,4096,124,feet,jsons/VE125_randls_72.json,896566,1138647,37,Woman
141,828740,DepthScenes,duration_manipulation_targetAtFixation,jsons/VE125_randls_72.json,http://54.235.29.9/FacialAge/BNav_EC2/DepthDuration/v2_depth_duration_MTurk/v2_DepthDuration_HTML.html#126,126,1536,864,1536,864,9-19-2022,17-13-10,142,depth_duration_stimuli/002375_2014-06-28_20-13-44_260595134347_rgbf000032-resize_1/002375_2014-06-28_20-13-44_260595134347_rgbf000032-resize_1-target.png,125,4.0175,6.0,3652,130,feet,jsons/VE125_randls_72.json,896566,1138647,37,Woman
142,828740,DepthScenes,duration_manipulation_targetAtFixation,jsons/VE125_randls_72.json,http://54.235.29.9/FacialAge/BNav_EC2/DepthDuration/v2_depth_duration_MTurk/v2_DepthDuration_HTML.html#126,126,1536,864,1536,864,9-19-2022,17-13-10,143,depth_duration_stimuli/002657_2014-06-13_15-29-54_094959634447_rgbf000150-resize_1/002657_2014-06-13_15-29-54_094959634447_rgbf000150-resize_1-target.png,125,4.919,7.0,4140,114,feet,jsons/VE125_randls_72.json,896566,1138647,37,Woman
143,828740,DepthScenes,duration_manipulation_targetAtFixation,jsons/VE125_randls_72.json,http://54.235.29.9/FacialAge/BNav_EC2/DepthDuration/v2_depth_duration_MTurk/v2_DepthDuration_HTML.html#126,126,1536,864,1536,864,9-19-2022,17-13-10,144,depth_duration_stimuli/000810_2014-06-08_17-20-01_260595134347_rgbf000105-resize_0/000810_2014-06-08_17-20-01_260595134347_rgbf000105-resize_0-target.png,125,1.4865,6.0,8549,125,feet,jsons/VE125_randls_72.json,896566,1138647,37,Woman
144,828740,DepthScenes,duration_manipulation_targetAtFixation,jsons/VE125_randls_72.json,http://54.235.29.9/FacialAge/BNav_EC2/DepthDuration/v2_depth_duration_MTurk/v2_DepthDuration_HTML.html#126,126,1536,864,1536,864,9-19-2022,17-13-10,145,depth_duration_stimuli/001214_2014-06-17_16-13-55_260595134347_rgbf000111-resize_0/001214_2014-06-17_16-13-55_260595134347_rgbf000111-resize_0-target.png,125,2.6505,5.0,5188,140,feet,jsons/VE125_randls_72.json,896566,1138647,37,Woman
145,828740,DepthScenes,duration_manipulation_targetAtFixation,jsons/VE125_randls_72.json,http://54.235.29.9/FacialAge/BNav_EC2/DepthDuration/v2_depth_duration_MTurk/v2_DepthDuration_HTML.html#126,126,1536,864,1536,864,9-19-2022,17-13-10,146,depth_duration_stimuli/001498_2014-06-19_17-45-14_260595134347_rgbf000129-resize_4/001498_2014-06-19_17-45-14_260595134347_rgbf000129-resize-original.jpg,125,1.4075,0.0,3598,114,feet,jsons/VE125_randls_72.json,896566,1138647,37,Woman
146,828740,DepthScenes,duration_manipulation_targetAtFixation,jsons/VE125_randls_72.json,http://54.235.29.9/FacialAge/BNav_EC2/DepthDuration/v2_depth_duration_MTurk/v2_DepthDuration_HTML.html#126,126,1536,864,1536,864,9-19-2022,17-13-10,147,depth_duration_stimuli/002570_2014-06-24_13-59-54_094959634447_rgbf000059-resize_0/002570_2014-06-24_13-59-54_094959634447_rgbf000059-resize_0-target.png,125,4.037,4.5,7956,124,feet,jsons/VE125_randls_72.json,896566,1138647,37,Woman
147,828740,DepthScenes,duration_manipulation_targetAtFixation,jsons/VE125_randls_72.json,http://54.235.29.9/FacialAge/BNav_EC2/DepthDuration/v2_depth_duration_MTurk/v2_DepthDuration_HTML.html#126,126,1536,864,1536,864,9-19-2022,17-13-10,148,depth_duration_stimuli/002467_2014-06-28_20-38-07_260595134347_rgbf000026-resize_2/002467_2014-06-28_20-38-07_260595134347_rgbf000026-resize_2-target.png,125,4.742,9.0,4653,115,feet,jsons/VE125_randls_72.json,896566,1138647,37,Woman
148,828740,DepthScenes,duration_manipulation_targetAtFixation,jsons/VE125_randls_72.json,http://54.235.29.9/FacialAge/BNav_EC2/DepthDuration/v2_depth_duration_MTurk/v2_DepthDuration_HTML.html#126,126,1536,864,1536,864,9-19-2022,17-13-10,149,depth_duration_stimuli/001066_2014-06-08_22-03-20_260595134347_rgbf000066-resize_4/001066_2014-06-08_22-03-20_260595134347_rgbf000066-resize_4-target.png,125,4.2330000000000005,12.0,4301,124,feet,jsons/VE125_randls_72.json,896566,1138647,37,Woman
149,828740,DepthScenes,duration_manipulation_targetAtFixation,jsons/VE125_randls_72.json,http://54.235.29.9/FacialAge/BNav_EC2/DepthDuration/v2_depth_duration_MTurk/v2_DepthDuration_HTML.html#126,126,1536,864,1536,864,9-19-2022,17-13-10,150,depth_duration_stimuli/000742_2014-06-08_18-48-09_260595134347_rgbf000164-resize_4/000742_2014-06-08_18-48-09_260595134347_rgbf000164-resize_4-target.png,125,4.632,10.0,8476,123,feet,jsons/VE125_randls_72.json,896566,1138647,37,Woman
150,828740,DepthScenes,duration_manipulation_targetAtFixation,jsons/VE125_randls_72.json,http://54.235.29.9/FacialAge/BNav_EC2/DepthDuration/v2_depth_duration_MTurk/v2_DepthDuration_HTML.html#126,126,1536,864,1536,864,9-19-2022,17-13-10,151,depth_duration_stimuli/000436_2014-06-09_22-25-11_260595134347_rgbf000137-resize_1/000436_2014-06-09_22-25-11_260595134347_rgbf000137-resize_1-target.png,125,4.0705,13.0,5487,124,feet,jsons/VE125_randls_72.json,896566,1138647,37,Woman
151,828740,DepthScenes,duration_manipulation_targetAtFixation,jsons/VE125_randls_72.json,http://54.235.29.9/FacialAge/BNav_EC2/DepthDuration/v2_depth_duration_MTurk/v2_DepthDuration_HTML.html#126,126,1536,864,1536,864,9-19-2022,17-13-10,152,depth_duration_stimuli/002444_2014-06-28_20-32-08_260595134347_rgbf000027-resize_0/002444_2014-06-28_20-32-08_260595134347_rgbf000027-resize_0-target.png,125,4.388999999999999,8.0,5430,125,feet,jsons/VE125_randls_72.json,896566,1138647,37,Woman
152,828740,DepthScenes,duration_manipulation_targetAtFixation,jsons/VE125_randls_72.json,http://54.235.29.9/FacialAge/BNav_EC2/DepthDuration/v2_depth_duration_MTurk/v2_DepthDuration_HTML.html#126,126,1536,864,1536,864,9-19-2022,17-13-10,153,depth_duration_stimuli/000447_2014-06-08_16-15-46_260595134347_rgbf000130-resize_1/000447_2014-06-08_16-15-46_260595134347_rgbf000130-resize_1-target.png,125,4.479,14.0,5775,123,feet,jsons/VE125_randls_72.json,896566,1138647,37,Woman
153,828740,DepthScenes,duration_manipulation_targetAtFixation,jsons/VE125_randls_72.json,http://54.235.29.9/FacialAge/BNav_EC2/DepthDuration/v2_depth_duration_MTurk/v2_DepthDuration_HTML.html#126,126,1536,864,1536,864,9-19-2022,17-13-10,154,depth_duration_stimuli/001447_2014-06-19_17-00-32_260595134347_rgbf000082-resize_5/001447_2014-06-19_17-00-32_260595134347_rgbf000082-resize_5-target.png,125,4.13775,5.0,5094,125,feet,jsons/VE125_randls_72.json,896566,1138647,37,Woman
154,828740,DepthScenes,duration_manipulation_targetAtFixation,jsons/VE125_randls_72.json,http://54.235.29.9/FacialAge/BNav_EC2/DepthDuration/v2_depth_duration_MTurk/v2_DepthDuration_HTML.html#126,126,1536,864,1536,864,9-19-2022,17-13-10,155,depth_duration_stimuli/002763_2014-06-22_19-13-10_094959634447_rgbf000075-resize_4/002763_2014-06-22_19-13-10_094959634447_rgbf000075-resize_4-target.png,125,1.68375,4.0,3488,125,feet,jsons/VE125_randls_72.json,896566,1138647,37,Woman
155,828740,DepthScenes,duration_manipulation_targetAtFixation,jsons/VE125_randls_72.json,http://54.235.29.9/FacialAge/BNav_EC2/DepthDuration/v2_depth_duration_MTurk/v2_DepthDuration_HTML.html#126,126,1536,864,1536,864,9-19-2022,17-13-10,156,depth_duration_stimuli/002209_2014-06-28_18-36-10_260595134347_rgbf000051-resize_1/002209_2014-06-28_18-36-10_260595134347_rgbf000051-resize_1-target.png,125,2.057,3.0,4206,125,feet,jsons/VE125_randls_72.json,896566,1138647,37,Woman
156,828740,DepthScenes,duration_manipulation_targetAtFixation,jsons/VE125_randls_72.json,http://54.235.29.9/FacialAge/BNav_EC2/DepthDuration/v2_depth_duration_MTurk/v2_DepthDuration_HTML.html#126,126,1536,864,1536,864,9-19-2022,17-13-10,157,depth_duration_stimuli/000368_2014-06-09_15-53-01_260595134347_rgbf000155-resize_2/000368_2014-06-09_15-53-01_260595134347_rgbf000155-resize_2-target.png,125,2.4859999999999998,6.0,4467,124,feet,jsons/VE125_randls_72.json,896566,1138647,37,Woman
157,828740,DepthScenes,duration_manipulation_targetAtFixation,jsons/VE125_randls_72.json,http://54.235.29.9/FacialAge/BNav_EC2/DepthDuration/v2_depth_duration_MTurk/v2_DepthDuration_HTML.html#126,126,1536,864,1536,864,9-19-2022,17-13-10,158,depth_duration_stimuli/002678_2014-06-13_16-15-32_094959634447_rgbf000151-resize_6/002678_2014-06-13_16-15-32_094959634447_rgbf000151-resize_6-target.png,125,2.1830000000000003,8.0,4477,124,feet,jsons/VE125_randls_72.json,896566,1138647,37,Woman
158,828740,DepthScenes,duration_manipulation_targetAtFixation,jsons/VE125_randls_72.json,http://54.235.29.9/FacialAge/BNav_EC2/DepthDuration/v2_depth_duration_MTurk/v2_DepthDuration_HTML.html#126,126,1536,864,1536,864,9-19-2022,17-13-10,159,depth_duration_stimuli/001810_2014-06-26_20-51-35_260595134347_rgbf000040-resize_3/001810_2014-06-26_20-51-35_260595134347_rgbf000040-resize_3-target.png,125,2.2525,6.0,4430,125,feet,jsons/VE125_randls_72.json,896566,1138647,37,Woman
159,828740,DepthScenes,duration_manipulation_targetAtFixation,jsons/VE125_randls_72.json,http://54.235.29.9/FacialAge/BNav_EC2/DepthDuration/v2_depth_duration_MTurk/v2_DepthDuration_HTML.html#126,126,1536,864,1536,864,9-19-2022,17-13-10,160,depth_duration_stimuli/003010_2014-06-15_12-54-35_094959634447_rgbf000112-resize_0/003010_2014-06-15_12-54-35_094959634447_rgbf000112-resize_0-target.png,125,3.1185,12.0,4393,122,feet,jsons/VE125_randls_72.json,896566,1138647,37,Woman
160,828740,DepthScenes,duration_manipulation_targetAtFixation,jsons/VE125_randls_72.json,http://54.235.29.9/FacialAge/BNav_EC2/DepthDuration/v2_depth_duration_MTurk/v2_DepthDuration_HTML.html#126,126,1536,864,1536,864,9-19-2022,17-13-10,161,depth_duration_stimuli/000758_2014-06-08_22-05-08_260595134347_rgbf000085-resize_0/000758_2014-06-08_22-05-08_260595134347_rgbf000085-resize_0-target.png,125,3.3810000000000002,9.0,3788,129,feet,jsons/VE125_randls_72.json,896566,1138647,37,Woman
161,828740,DepthScenes,duration_manipulation_targetAtFixation,jsons/VE125_randls_72.json,http://54.235.29.9/FacialAge/BNav_EC2/DepthDuration/v2_depth_duration_MTurk/v2_DepthDuration_HTML.html#126,126,1536,864,1536,864,9-19-2022,17-13-10,162,depth_duration_stimuli/000854_2014-06-09_19-43-13_260595134347_rgbf000066-resize_0/000854_2014-06-09_19-43-13_260595134347_rgbf000066-resize_0-target.png,125,3.068,3.0,4346,123,feet,jsons/VE125_randls_72.json,896566,1138647,37,Woman
162,828740,DepthScenes,duration_manipulation_targetAtFixation,jsons/VE125_randls_72.json,http://54.235.29.9/FacialAge/BNav_EC2/DepthDuration/v2_depth_duration_MTurk/v2_DepthDuration_HTML.html#126,126,1536,864,1536,864,9-19-2022,17-13-10,163,depth_duration_stimuli/003292_2014-05-14_21-53-49_094959634447_rgbf000100-resize_2/003292_2014-05-14_21-53-49_094959634447_rgbf000100-resize_2-target.png,125,3.4815,7.0,3786,126,feet,jsons/VE125_randls_72.json,896566,1138647,37,Woman
163,828740,DepthScenes,duration_manipulation_targetAtFixation,jsons/VE125_randls_72.json,http://54.235.29.9/FacialAge/BNav_EC2/DepthDuration/v2_depth_duration_MTurk/v2_DepthDuration_HTML.html#126,126,1536,864,1536,864,9-19-2022,17-13-10,164,depth_duration_stimuli/002639_2014-06-24_14-51-37_094959634447_rgbf000074-resize_4/002639_2014-06-24_14-51-37_094959634447_rgbf000074-resize_4-target.png,125,4.0375,8.0,5435,124,feet,jsons/VE125_randls_72.json,896566,1138647,37,Woman
