,subjID,experimentName,versionName,sequenceName,url,selected_row,windowWidth,windowHeight,screenWidth,screenHeight,startDate,startTime,trial,stimulus,duration,actual_depth,depth_estimate,trial_RT,log_sceneDuration,unitSelection,seq_filepath,experimentTime,totalTime,age,gender
0,829661,DepthScenes,duration_manipulation_targetAtFixation,jsons/VE125_randls_57.json,http://54.235.29.9/FacialAge/BNav_EC2/DepthDuration/v2_depth_duration_MTurk/v2_DepthDuration_HTML.html#454,454,1366,768,1366,768,8-30-2022,9-54-41,1,depth_duration_stimuli/002118_2014-06-25_20-32-08_260595134347_rgbf000078-resize_1/002118_2014-06-25_20-32-08_260595134347_rgbf000078-resize_1-target.png,125,2.6460000000000004,0,3755,126,meters,jsons/VE125_randls_57.json,704485,1273778,1997,Woman
1,829661,DepthScenes,duration_manipulation_targetAtFixation,jsons/VE125_randls_57.json,http://54.235.29.9/FacialAge/BNav_EC2/DepthDuration/v2_depth_duration_MTurk/v2_DepthDuration_HTML.html#454,454,1366,768,1366,768,8-30-2022,9-54-41,2,depth_duration_stimuli/001516_2014-06-20_16-25-09_260595134347_rgbf000076-resize_2/001516_2014-06-20_16-25-09_260595134347_rgbf000076-resize_2-target.png,125,1.7445,1,4233,124,meters,jsons/VE125_randls_57.json,704485,1273778,1997,Woman
2,829661,DepthScenes,duration_manipulation_targetAtFixation,jsons/VE125_randls_57.json,http://54.235.29.9/FacialAge/BNav_EC2/DepthDuration/v2_depth_duration_MTurk/v2_DepthDuration_HTML.html#454,454,1366,768,1366,768,8-30-2022,9-54-41,3,depth_duration_stimuli/001150_2014-06-17_15-27-34_260595134347_rgbf000108-resize_2/001150_2014-06-17_15-27-34_260595134347_rgbf000108-resize_2-target.png,125,4.0325,2,2953,136,meters,jsons/VE125_randls_57.json,704485,1273778,1997,Woman
3,829661,DepthScenes,duration_manipulation_targetAtFixation,jsons/VE125_randls_57.json,http://54.235.29.9/FacialAge/BNav_EC2/DepthDuration/v2_depth_duration_MTurk/v2_DepthDuration_HTML.html#454,454,1366,768,1366,768,8-30-2022,9-54-41,4,depth_duration_stimuli/000665_2014-06-09_20-42-35_260595134347_rgbf000110-resize_1/000665_2014-06-09_20-42-35_260595134347_rgbf000110-resize_1-target.png,125,3.057,2,2811,125,meters,jsons/VE125_randls_57.json,704485,1273778,1997,Woman
4,829661,DepthScenes,duration_manipulation_targetAtFixation,jsons/VE125_randls_57.json,http://54.235.29.9/FacialAge/BNav_EC2/DepthDuration/v2_depth_duration_MTurk/v2_DepthDuration_HTML.html#454,454,1366,768,1366,768,8-30-2022,9-54-41,5,depth_duration_stimuli/000447_2014-06-08_16-15-46_260595134347_rgbf000130-resize_1/000447_2014-06-08_16-15-46_260595134347_rgbf000130-resize_1-target.png,125,4.479,5,4090,126,meters,jsons/VE125_randls_57.json,704485,1273778,1997,Woman
5,829661,DepthScenes,duration_manipulation_targetAtFixation,jsons/VE125_randls_57.json,http://54.235.29.9/FacialAge/BNav_EC2/DepthDuration/v2_depth_duration_MTurk/v2_DepthDuration_HTML.html#454,454,1366,768,1366,768,8-30-2022,9-54-41,6,depth_duration_stimuli/001447_2014-06-19_17-00-32_260595134347_rgbf000082-resize_5/001447_2014-06-19_17-00-32_260595134347_rgbf000082-resize_5-target.png,125,4.13775,0,3329,94,meters,jsons/VE125_randls_57.json,704485,1273778,1997,Woman
6,829661,DepthScenes,duration_manipulation_targetAtFixation,jsons/VE125_randls_57.json,http://54.235.29.9/FacialAge/BNav_EC2/DepthDuration/v2_depth_duration_MTurk/v2_DepthDuration_HTML.html#454,454,1366,768,1366,768,8-30-2022,9-54-41,7,depth_duration_stimuli/002763_2014-06-22_19-13-10_094959634447_rgbf000075-resize_4/002763_2014-06-22_19-13-10_094959634447_rgbf000075-resize_4-target.png,125,1.68375,2,3282,123,meters,jsons/VE125_randls_57.json,704485,1273778,1997,Woman
7,829661,DepthScenes,duration_manipulation_targetAtFixation,jsons/VE125_randls_57.json,http://54.235.29.9/FacialAge/BNav_EC2/DepthDuration/v2_depth_duration_MTurk/v2_DepthDuration_HTML.html#454,454,1366,768,1366,768,8-30-2022,9-54-41,8,depth_duration_stimuli/002209_2014-06-28_18-36-10_260595134347_rgbf000051-resize_1/002209_2014-06-28_18-36-10_260595134347_rgbf000051-resize_1-target.png,125,2.057,2,2609,122,meters,jsons/VE125_randls_57.json,704485,1273778,1997,Woman
8,829661,DepthScenes,duration_manipulation_targetAtFixation,jsons/VE125_randls_57.json,http://54.235.29.9/FacialAge/BNav_EC2/DepthDuration/v2_depth_duration_MTurk/v2_DepthDuration_HTML.html#454,454,1366,768,1366,768,8-30-2022,9-54-41,9,depth_duration_stimuli/002988_2014-06-15_12-24-20_094959634447_rgbf000150-resize_1/002988_2014-06-15_12-24-20_094959634447_rgbf000150-resize_1-target.png,125,4.7669999999999995,3,4068,124,meters,jsons/VE125_randls_57.json,704485,1273778,1997,Woman
9,829661,DepthScenes,duration_manipulation_targetAtFixation,jsons/VE125_randls_57.json,http://54.235.29.9/FacialAge/BNav_EC2/DepthDuration/v2_depth_duration_MTurk/v2_DepthDuration_HTML.html#454,454,1366,768,1366,768,8-30-2022,9-54-41,10,depth_duration_stimuli/001052_2014-06-08_18-24-54_260595134347_rgbf000130-resize_1/001052_2014-06-08_18-24-54_260595134347_rgbf000130-resize_1-target.png,125,4.1045,2,3209,84,meters,jsons/VE125_randls_57.json,704485,1273778,1997,Woman
10,829661,DepthScenes,duration_manipulation_targetAtFixation,jsons/VE125_randls_57.json,http://54.235.29.9/FacialAge/BNav_EC2/DepthDuration/v2_depth_duration_MTurk/v2_DepthDuration_HTML.html#454,454,1366,768,1366,768,8-30-2022,9-54-41,11,depth_duration_stimuli/003292_2014-05-14_21-53-49_094959634447_rgbf000100-resize_2/003292_2014-05-14_21-53-49_094959634447_rgbf000100-resize_2-target.png,125,3.4815,0,3115,125,meters,jsons/VE125_randls_57.json,704485,1273778,1997,Woman
11,829661,DepthScenes,duration_manipulation_targetAtFixation,jsons/VE125_randls_57.json,http://54.235.29.9/FacialAge/BNav_EC2/DepthDuration/v2_depth_duration_MTurk/v2_DepthDuration_HTML.html#454,454,1366,768,1366,768,8-30-2022,9-54-41,12,depth_duration_stimuli/002639_2014-06-24_14-51-37_094959634447_rgbf000074-resize_4/002639_2014-06-24_14-51-37_094959634447_rgbf000074-resize_4-target.png,125,4.0375,5,3777,122,meters,jsons/VE125_randls_57.json,704485,1273778,1997,Woman
12,829661,DepthScenes,duration_manipulation_targetAtFixation,jsons/VE125_randls_57.json,http://54.235.29.9/FacialAge/BNav_EC2/DepthDuration/v2_depth_duration_MTurk/v2_DepthDuration_HTML.html#454,454,1366,768,1366,768,8-30-2022,9-54-41,13,depth_duration_stimuli/000569_2014-06-09_22-51-47_260595134347_rgbf000141-resize_3/000569_2014-06-09_22-51-47_260595134347_rgbf000141-resize-original.jpg,125,4.512,0,3001,124,meters,jsons/VE125_randls_57.json,704485,1273778,1997,Woman
13,829661,DepthScenes,duration_manipulation_targetAtFixation,jsons/VE125_randls_57.json,http://54.235.29.9/FacialAge/BNav_EC2/DepthDuration/v2_depth_duration_MTurk/v2_DepthDuration_HTML.html#454,454,1366,768,1366,768,8-30-2022,9-54-41,14,depth_duration_stimuli/001570_2014-06-20_17-21-09_260595134347_rgbf000135-resize_4/001570_2014-06-20_17-21-09_260595134347_rgbf000135-resize_4-target.png,125,4.467,2,2977,111,meters,jsons/VE125_randls_57.json,704485,1273778,1997,Woman
14,829661,DepthScenes,duration_manipulation_targetAtFixation,jsons/VE125_randls_57.json,http://54.235.29.9/FacialAge/BNav_EC2/DepthDuration/v2_depth_duration_MTurk/v2_DepthDuration_HTML.html#454,454,1366,768,1366,768,8-30-2022,9-54-41,15,depth_duration_stimuli/001392_2014-06-19_16-07-59_260595134347_rgbf000046-resize_1/001392_2014-06-19_16-07-59_260595134347_rgbf000046-resize_1-target.png,125,4.135,2,3437,122,meters,jsons/VE125_randls_57.json,704485,1273778,1997,Woman
15,829661,DepthScenes,duration_manipulation_targetAtFixation,jsons/VE125_randls_57.json,http://54.235.29.9/FacialAge/BNav_EC2/DepthDuration/v2_depth_duration_MTurk/v2_DepthDuration_HTML.html#454,454,1366,768,1366,768,8-30-2022,9-54-41,16,depth_duration_stimuli/000506_2014-06-08_23-21-00_260595134347_rgbf000070-resize_7/000506_2014-06-08_23-21-00_260595134347_rgbf000070-resize_7-target.png,125,4.0585,1,3066,124,meters,jsons/VE125_randls_57.json,704485,1273778,1997,Woman
16,829661,DepthScenes,duration_manipulation_targetAtFixation,jsons/VE125_randls_57.json,http://54.235.29.9/FacialAge/BNav_EC2/DepthDuration/v2_depth_duration_MTurk/v2_DepthDuration_HTML.html#454,454,1366,768,1366,768,8-30-2022,9-54-41,17,depth_duration_stimuli/003079_2014-06-15_15-18-20_094959634447_rgbf000152-resize_8/003079_2014-06-15_15-18-20_094959634447_rgbf000152-resize_8-target.png,125,2.8775,2,2629,124,meters,jsons/VE125_randls_57.json,704485,1273778,1997,Woman
17,829661,DepthScenes,duration_manipulation_targetAtFixation,jsons/VE125_randls_57.json,http://54.235.29.9/FacialAge/BNav_EC2/DepthDuration/v2_depth_duration_MTurk/v2_DepthDuration_HTML.html#454,454,1366,768,1366,768,8-30-2022,9-54-41,18,depth_duration_stimuli/002784_2014-06-22_19-26-30_094959634447_rgbf000083-resize_3/002784_2014-06-22_19-26-30_094959634447_rgbf000083-resize_3-target.png,125,1.8046666666667,4,4048,124,meters,jsons/VE125_randls_57.json,704485,1273778,1997,Woman
18,829661,DepthScenes,duration_manipulation_targetAtFixation,jsons/VE125_randls_57.json,http://54.235.29.9/FacialAge/BNav_EC2/DepthDuration/v2_depth_duration_MTurk/v2_DepthDuration_HTML.html#454,454,1366,768,1366,768,8-30-2022,9-54-41,19,depth_duration_stimuli/001100_2014-06-15_17-46-26_260595134347_rgbf000225-resize_2/001100_2014-06-15_17-46-26_260595134347_rgbf000225-resize_2-target.png,125,2.24,2,12027,125,meters,jsons/VE125_randls_57.json,704485,1273778,1997,Woman
19,829661,DepthScenes,duration_manipulation_targetAtFixation,jsons/VE125_randls_57.json,http://54.235.29.9/FacialAge/BNav_EC2/DepthDuration/v2_depth_duration_MTurk/v2_DepthDuration_HTML.html#454,454,1366,768,1366,768,8-30-2022,9-54-41,20,depth_duration_stimuli/000906_2014-06-08_13-35-43_260595134347_rgbf000155-resize_1/000906_2014-06-08_13-35-43_260595134347_rgbf000155-resize_1-target.png,125,2.8489999999999998,2,5410,126,meters,jsons/VE125_randls_57.json,704485,1273778,1997,Woman
20,829661,DepthScenes,duration_manipulation_targetAtFixation,jsons/VE125_randls_57.json,http://54.235.29.9/FacialAge/BNav_EC2/DepthDuration/v2_depth_duration_MTurk/v2_DepthDuration_HTML.html#454,454,1366,768,1366,768,8-30-2022,9-54-41,21,depth_duration_stimuli/002805_2014-06-22_19-54-03_094959634447_rgbf000079-resize_1/002805_2014-06-22_19-54-03_094959634447_rgbf000079-resize_1-target.png,125,3.1439999999999997,7,3907,124,meters,jsons/VE125_randls_57.json,704485,1273778,1997,Woman
21,829661,DepthScenes,duration_manipulation_targetAtFixation,jsons/VE125_randls_57.json,http://54.235.29.9/FacialAge/BNav_EC2/DepthDuration/v2_depth_duration_MTurk/v2_DepthDuration_HTML.html#454,454,1366,768,1366,768,8-30-2022,9-54-41,22,depth_duration_stimuli/001806_2014-06-26_20-50-20_260595134347_rgbf000091-resize_1/001806_2014-06-26_20-50-20_260595134347_rgbf000091-resize_1-target.png,125,2.7305,1,3974,88,meters,jsons/VE125_randls_57.json,704485,1273778,1997,Woman
22,829661,DepthScenes,duration_manipulation_targetAtFixation,jsons/VE125_randls_57.json,http://54.235.29.9/FacialAge/BNav_EC2/DepthDuration/v2_depth_duration_MTurk/v2_DepthDuration_HTML.html#454,454,1366,768,1366,768,8-30-2022,9-54-41,23,depth_duration_stimuli/001617_2014-06-20_11-35-32_260595134347_rgbf000066-resize_1/001617_2014-06-20_11-35-32_260595134347_rgbf000066-resize_1-target.png,125,3.7910000000000004,2,3119,125,meters,jsons/VE125_randls_57.json,704485,1273778,1997,Woman
23,829661,DepthScenes,duration_manipulation_targetAtFixation,jsons/VE125_randls_57.json,http://54.235.29.9/FacialAge/BNav_EC2/DepthDuration/v2_depth_duration_MTurk/v2_DepthDuration_HTML.html#454,454,1366,768,1366,768,8-30-2022,9-54-41,24,depth_duration_stimuli/000009_2014-05-26_14-32-05_260595134347_rgbf000034-resize_3/000009_2014-05-26_14-32-05_260595134347_rgbf000034-resize_3-target.png,125,3.8715,5,3538,122,meters,jsons/VE125_randls_57.json,704485,1273778,1997,Woman
24,829661,DepthScenes,duration_manipulation_targetAtFixation,jsons/VE125_randls_57.json,http://54.235.29.9/FacialAge/BNav_EC2/DepthDuration/v2_depth_duration_MTurk/v2_DepthDuration_HTML.html#454,454,1366,768,1366,768,8-30-2022,9-54-41,25,depth_duration_stimuli/001828_2014-06-26_21-40-03_260595134347_rgbf000024-resize_0/001828_2014-06-26_21-40-03_260595134347_rgbf000024-resize_0-target.png,125,4.8260000000000005,0,3513,108,meters,jsons/VE125_randls_57.json,704485,1273778,1997,Woman
25,829661,DepthScenes,duration_manipulation_targetAtFixation,jsons/VE125_randls_57.json,http://54.235.29.9/FacialAge/BNav_EC2/DepthDuration/v2_depth_duration_MTurk/v2_DepthDuration_HTML.html#454,454,1366,768,1366,768,8-30-2022,9-54-41,26,depth_duration_stimuli/002272_2014-06-28_18-53-56_260595134347_rgbf000067-resize_2/002272_2014-06-28_18-53-56_260595134347_rgbf000067-resize_2-target.png,125,1.138,1,3553,122,meters,jsons/VE125_randls_57.json,704485,1273778,1997,Woman
26,829661,DepthScenes,duration_manipulation_targetAtFixation,jsons/VE125_randls_57.json,http://54.235.29.9/FacialAge/BNav_EC2/DepthDuration/v2_depth_duration_MTurk/v2_DepthDuration_HTML.html#454,454,1366,768,1366,768,8-30-2022,9-54-41,27,depth_duration_stimuli/001571_2014-06-20_17-21-32_260595134347_rgbf000089-resize_1/001571_2014-06-20_17-21-32_260595134347_rgbf000089-resize_1-target.png,125,1.86,0,3697,83,meters,jsons/VE125_randls_57.json,704485,1273778,1997,Woman
27,829661,DepthScenes,duration_manipulation_targetAtFixation,jsons/VE125_randls_57.json,http://54.235.29.9/FacialAge/BNav_EC2/DepthDuration/v2_depth_duration_MTurk/v2_DepthDuration_HTML.html#454,454,1366,768,1366,768,8-30-2022,9-54-41,28,depth_duration_stimuli/000773_2014-06-08_22-24-54_260595134347_rgbf000093-resize_1/000773_2014-06-08_22-24-54_260595134347_rgbf000093-resize_1-target.png,125,4.973,1,2939,125,meters,jsons/VE125_randls_57.json,704485,1273778,1997,Woman
28,829661,DepthScenes,duration_manipulation_targetAtFixation,jsons/VE125_randls_57.json,http://54.235.29.9/FacialAge/BNav_EC2/DepthDuration/v2_depth_duration_MTurk/v2_DepthDuration_HTML.html#454,454,1366,768,1366,768,8-30-2022,9-54-41,29,depth_duration_stimuli/002414_2014-06-28_20-24-58_260595134347_rgbf000067-resize_4/002414_2014-06-28_20-24-58_260595134347_rgbf000067-resize_4-target.png,125,4.363,2,3643,125,meters,jsons/VE125_randls_57.json,704485,1273778,1997,Woman
29,829661,DepthScenes,duration_manipulation_targetAtFixation,jsons/VE125_randls_57.json,http://54.235.29.9/FacialAge/BNav_EC2/DepthDuration/v2_depth_duration_MTurk/v2_DepthDuration_HTML.html#454,454,1366,768,1366,768,8-30-2022,9-54-41,30,depth_duration_stimuli/000375_2014-06-08_11-17-29_260595134347_rgbf000133-resize_2/000375_2014-06-08_11-17-29_260595134347_rgbf000133-resize-original.jpg,125,4.718,3,3124,125,meters,jsons/VE125_randls_57.json,704485,1273778,1997,Woman
30,829661,DepthScenes,duration_manipulation_targetAtFixation,jsons/VE125_randls_57.json,http://54.235.29.9/FacialAge/BNav_EC2/DepthDuration/v2_depth_duration_MTurk/v2_DepthDuration_HTML.html#454,454,1366,768,1366,768,8-30-2022,9-54-41,31,depth_duration_stimuli/001158_2014-06-17_15-32-16_260595134347_rgbf000138-resize_2/001158_2014-06-17_15-32-16_260595134347_rgbf000138-resize_2-target.png,125,4.5315,2,2353,146,meters,jsons/VE125_randls_57.json,704485,1273778,1997,Woman
31,829661,DepthScenes,duration_manipulation_targetAtFixation,jsons/VE125_randls_57.json,http://54.235.29.9/FacialAge/BNav_EC2/DepthDuration/v2_depth_duration_MTurk/v2_DepthDuration_HTML.html#454,454,1366,768,1366,768,8-30-2022,9-54-41,32,depth_duration_stimuli/000556_2014-06-09_22-42-56_260595134347_rgbf000214-resize_1/000556_2014-06-09_22-42-56_260595134347_rgbf000214-resize_1-target.png,125,4.8415,1,2610,126,meters,jsons/VE125_randls_57.json,704485,1273778,1997,Woman
32,829661,DepthScenes,duration_manipulation_targetAtFixation,jsons/VE125_randls_57.json,http://54.235.29.9/FacialAge/BNav_EC2/DepthDuration/v2_depth_duration_MTurk/v2_DepthDuration_HTML.html#454,454,1366,768,1366,768,8-30-2022,9-54-41,33,depth_duration_stimuli/002375_2014-06-28_20-13-44_260595134347_rgbf000032-resize_1/002375_2014-06-28_20-13-44_260595134347_rgbf000032-resize_1-target.png,125,4.0175,1,2797,124,meters,jsons/VE125_randls_57.json,704485,1273778,1997,Woman
33,829661,DepthScenes,duration_manipulation_targetAtFixation,jsons/VE125_randls_57.json,http://54.235.29.9/FacialAge/BNav_EC2/DepthDuration/v2_depth_duration_MTurk/v2_DepthDuration_HTML.html#454,454,1366,768,1366,768,8-30-2022,9-54-41,34,depth_duration_stimuli/002657_2014-06-13_15-29-54_094959634447_rgbf000150-resize_1/002657_2014-06-13_15-29-54_094959634447_rgbf000150-resize_1-target.png,125,4.919,1,4379,124,meters,jsons/VE125_randls_57.json,704485,1273778,1997,Woman
34,829661,DepthScenes,duration_manipulation_targetAtFixation,jsons/VE125_randls_57.json,http://54.235.29.9/FacialAge/BNav_EC2/DepthDuration/v2_depth_duration_MTurk/v2_DepthDuration_HTML.html#454,454,1366,768,1366,768,8-30-2022,9-54-41,35,depth_duration_stimuli/000470_2014-06-09_19-42-40_260595134347_rgbf000094-resize_1/000470_2014-06-09_19-42-40_260595134347_rgbf000094-resize_1-target.png,125,1.831,2,2581,123,meters,jsons/VE125_randls_57.json,704485,1273778,1997,Woman
35,829661,DepthScenes,duration_manipulation_targetAtFixation,jsons/VE125_randls_57.json,http://54.235.29.9/FacialAge/BNav_EC2/DepthDuration/v2_depth_duration_MTurk/v2_DepthDuration_HTML.html#454,454,1366,768,1366,768,8-30-2022,9-54-41,36,depth_duration_stimuli/000109_2014-05-14_23-41-52_260595134347_rgbf000035-resize_9/000109_2014-05-14_23-41-52_260595134347_rgbf000035-resize_9-target.png,125,1.3545,0,3323,124,meters,jsons/VE125_randls_57.json,704485,1273778,1997,Woman
36,829661,DepthScenes,duration_manipulation_targetAtFixation,jsons/VE125_randls_57.json,http://54.235.29.9/FacialAge/BNav_EC2/DepthDuration/v2_depth_duration_MTurk/v2_DepthDuration_HTML.html#454,454,1366,768,1366,768,8-30-2022,9-54-41,37,depth_duration_stimuli/002663_2014-06-13_15-50-26_094959634447_rgbf000075-resize_1/002663_2014-06-13_15-50-26_094959634447_rgbf000075-resize_1-target.png,125,4.7495,3,3082,123,meters,jsons/VE125_randls_57.json,704485,1273778,1997,Woman
37,829661,DepthScenes,duration_manipulation_targetAtFixation,jsons/VE125_randls_57.json,http://54.235.29.9/FacialAge/BNav_EC2/DepthDuration/v2_depth_duration_MTurk/v2_DepthDuration_HTML.html#454,454,1366,768,1366,768,8-30-2022,9-54-41,38,depth_duration_stimuli/000409_2014-06-04_19-23-33_260595134347_rgbf000067-resize_0/000409_2014-06-04_19-23-33_260595134347_rgbf000067-resize_0-target.png,125,3.7335,2,2491,123,meters,jsons/VE125_randls_57.json,704485,1273778,1997,Woman
38,829661,DepthScenes,duration_manipulation_targetAtFixation,jsons/VE125_randls_57.json,http://54.235.29.9/FacialAge/BNav_EC2/DepthDuration/v2_depth_duration_MTurk/v2_DepthDuration_HTML.html#454,454,1366,768,1366,768,8-30-2022,9-54-41,39,depth_duration_stimuli/002630_2014-06-24_14-47-50_094959634447_rgbf000055-resize_1/002630_2014-06-24_14-47-50_094959634447_rgbf000055-resize_1-target.png,125,3.0095,2,3210,124,meters,jsons/VE125_randls_57.json,704485,1273778,1997,Woman
39,829661,DepthScenes,duration_manipulation_targetAtFixation,jsons/VE125_randls_57.json,http://54.235.29.9/FacialAge/BNav_EC2/DepthDuration/v2_depth_duration_MTurk/v2_DepthDuration_HTML.html#454,454,1366,768,1366,768,8-30-2022,9-54-41,40,depth_duration_stimuli/002758_2014-06-22_19-11-20_094959634447_rgbf000128-resize_1/002758_2014-06-22_19-11-20_094959634447_rgbf000128-resize_1-target.png,125,2.555,3,8713,124,meters,jsons/VE125_randls_57.json,704485,1273778,1997,Woman
40,829661,DepthScenes,duration_manipulation_targetAtFixation,jsons/VE125_randls_57.json,http://54.235.29.9/FacialAge/BNav_EC2/DepthDuration/v2_depth_duration_MTurk/v2_DepthDuration_HTML.html#454,454,1366,768,1366,768,8-30-2022,9-54-41,41,depth_duration_stimuli/000436_2014-06-09_22-25-11_260595134347_rgbf000137-resize_1/000436_2014-06-09_22-25-11_260595134347_rgbf000137-resize_1-target.png,125,4.0705,4,2979,125,meters,jsons/VE125_randls_57.json,704485,1273778,1997,Woman
41,829661,DepthScenes,duration_manipulation_targetAtFixation,jsons/VE125_randls_57.json,http://54.235.29.9/FacialAge/BNav_EC2/DepthDuration/v2_depth_duration_MTurk/v2_DepthDuration_HTML.html#454,454,1366,768,1366,768,8-30-2022,9-54-41,42,depth_duration_stimuli/002444_2014-06-28_20-32-08_260595134347_rgbf000027-resize_0/002444_2014-06-28_20-32-08_260595134347_rgbf000027-resize_0-target.png,125,4.388999999999999,5,3521,123,meters,jsons/VE125_randls_57.json,704485,1273778,1997,Woman
42,829661,DepthScenes,duration_manipulation_targetAtFixation,jsons/VE125_randls_57.json,http://54.235.29.9/FacialAge/BNav_EC2/DepthDuration/v2_depth_duration_MTurk/v2_DepthDuration_HTML.html#454,454,1366,768,1366,768,8-30-2022,9-54-41,43,depth_duration_stimuli/002039_2014-06-24_20-22-38_260595134347_rgbf000084-resize_1/002039_2014-06-24_20-22-38_260595134347_rgbf000084-resize_1-target.png,125,4.408,6,3579,126,meters,jsons/VE125_randls_57.json,704485,1273778,1997,Woman
43,829661,DepthScenes,duration_manipulation_targetAtFixation,jsons/VE125_randls_57.json,http://54.235.29.9/FacialAge/BNav_EC2/DepthDuration/v2_depth_duration_MTurk/v2_DepthDuration_HTML.html#454,454,1366,768,1366,768,8-30-2022,9-54-41,44,depth_duration_stimuli/002103_2014-06-25_20-00-40_260595134347_rgbf000049-resize_0/002103_2014-06-25_20-00-40_260595134347_rgbf000049-resize_0-target.png,125,4.105,2,55288,124,meters,jsons/VE125_randls_57.json,704485,1273778,1997,Woman
44,829661,DepthScenes,duration_manipulation_targetAtFixation,jsons/VE125_randls_57.json,http://54.235.29.9/FacialAge/BNav_EC2/DepthDuration/v2_depth_duration_MTurk/v2_DepthDuration_HTML.html#454,454,1366,768,1366,768,8-30-2022,9-54-41,45,depth_duration_stimuli/000787_2014-06-08_22-33-53_260595134347_rgbf000175-resize_1/000787_2014-06-08_22-33-53_260595134347_rgbf000175-resize-original.jpg,125,4.784,1,2857,128,meters,jsons/VE125_randls_57.json,704485,1273778,1997,Woman
45,829661,DepthScenes,duration_manipulation_targetAtFixation,jsons/VE125_randls_57.json,http://54.235.29.9/FacialAge/BNav_EC2/DepthDuration/v2_depth_duration_MTurk/v2_DepthDuration_HTML.html#454,454,1366,768,1366,768,8-30-2022,9-54-41,46,depth_duration_stimuli/000739_2014-06-08_18-45-58_260595134347_rgbf000068-resize_1/000739_2014-06-08_18-45-58_260595134347_rgbf000068-resize_1-target.png,125,3.534,0,3011,111,meters,jsons/VE125_randls_57.json,704485,1273778,1997,Woman
46,829661,DepthScenes,duration_manipulation_targetAtFixation,jsons/VE125_randls_57.json,http://54.235.29.9/FacialAge/BNav_EC2/DepthDuration/v2_depth_duration_MTurk/v2_DepthDuration_HTML.html#454,454,1366,768,1366,768,8-30-2022,9-54-41,47,depth_duration_stimuli/000734_2014-06-08_17-39-11_260595134347_rgbf000128-resize_2/000734_2014-06-08_17-39-11_260595134347_rgbf000128-resize_2-target.png,125,4.098,5,3802,125,meters,jsons/VE125_randls_57.json,704485,1273778,1997,Woman
47,829661,DepthScenes,duration_manipulation_targetAtFixation,jsons/VE125_randls_57.json,http://54.235.29.9/FacialAge/BNav_EC2/DepthDuration/v2_depth_duration_MTurk/v2_DepthDuration_HTML.html#454,454,1366,768,1366,768,8-30-2022,9-54-41,48,depth_duration_stimuli/000878_2014-06-08_22-52-45_260595134347_rgbf000045-resize_2/000878_2014-06-08_22-52-45_260595134347_rgbf000045-resize_2-target.png,125,2.092,5,3532,124,meters,jsons/VE125_randls_57.json,704485,1273778,1997,Woman
48,829661,DepthScenes,duration_manipulation_targetAtFixation,jsons/VE125_randls_57.json,http://54.235.29.9/FacialAge/BNav_EC2/DepthDuration/v2_depth_duration_MTurk/v2_DepthDuration_HTML.html#454,454,1366,768,1366,768,8-30-2022,9-54-41,49,depth_duration_stimuli/002953_2014-06-08_17-32-18_094959634447_rgbf000059-resize_5/002953_2014-06-08_17-32-18_094959634447_rgbf000059-resize_5-target.png,125,1.551,0,3458,123,meters,jsons/VE125_randls_57.json,704485,1273778,1997,Woman
49,829661,DepthScenes,duration_manipulation_targetAtFixation,jsons/VE125_randls_57.json,http://54.235.29.9/FacialAge/BNav_EC2/DepthDuration/v2_depth_duration_MTurk/v2_DepthDuration_HTML.html#454,454,1366,768,1366,768,8-30-2022,9-54-41,50,depth_duration_stimuli/001055_2014-06-08_18-45-35_260595134347_rgbf000111-resize_4/001055_2014-06-08_18-45-35_260595134347_rgbf000111-resize_4-target.png,125,2.4290000000000003,3,3386,125,meters,jsons/VE125_randls_57.json,704485,1273778,1997,Woman
50,829661,DepthScenes,duration_manipulation_targetAtFixation,jsons/VE125_randls_57.json,http://54.235.29.9/FacialAge/BNav_EC2/DepthDuration/v2_depth_duration_MTurk/v2_DepthDuration_HTML.html#454,454,1366,768,1366,768,8-30-2022,9-54-41,51,depth_duration_stimuli/000549_2014-06-08_22-10-24_260595134347_rgbf000247-resize_3/000549_2014-06-08_22-10-24_260595134347_rgbf000247-resize_3-target.png,125,1.841,2,2555,124,meters,jsons/VE125_randls_57.json,704485,1273778,1997,Woman
51,829661,DepthScenes,duration_manipulation_targetAtFixation,jsons/VE125_randls_57.json,http://54.235.29.9/FacialAge/BNav_EC2/DepthDuration/v2_depth_duration_MTurk/v2_DepthDuration_HTML.html#454,454,1366,768,1366,768,8-30-2022,9-54-41,52,depth_duration_stimuli/002279_2014-06-28_18-55-32_260595134347_rgbf000040-resize_5/002279_2014-06-28_18-55-32_260595134347_rgbf000040-resize_5-target.png,125,1.5043333333333,0,3475,113,meters,jsons/VE125_randls_57.json,704485,1273778,1997,Woman
52,829661,DepthScenes,duration_manipulation_targetAtFixation,jsons/VE125_randls_57.json,http://54.235.29.9/FacialAge/BNav_EC2/DepthDuration/v2_depth_duration_MTurk/v2_DepthDuration_HTML.html#454,454,1366,768,1366,768,8-30-2022,9-54-41,53,depth_duration_stimuli/000635_2014-06-08_16-38-42_260595134347_rgbf000106-resize_1/000635_2014-06-08_16-38-42_260595134347_rgbf000106-resize_1-target.png,125,2.074,2,3877,125,meters,jsons/VE125_randls_57.json,704485,1273778,1997,Woman
53,829661,DepthScenes,duration_manipulation_targetAtFixation,jsons/VE125_randls_57.json,http://54.235.29.9/FacialAge/BNav_EC2/DepthDuration/v2_depth_duration_MTurk/v2_DepthDuration_HTML.html#454,454,1366,768,1366,768,8-30-2022,9-54-41,54,depth_duration_stimuli/000368_2014-06-09_15-53-01_260595134347_rgbf000155-resize_2/000368_2014-06-09_15-53-01_260595134347_rgbf000155-resize_2-target.png,125,2.4859999999999998,3,3131,124,meters,jsons/VE125_randls_57.json,704485,1273778,1997,Woman
54,829661,DepthScenes,duration_manipulation_targetAtFixation,jsons/VE125_randls_57.json,http://54.235.29.9/FacialAge/BNav_EC2/DepthDuration/v2_depth_duration_MTurk/v2_DepthDuration_HTML.html#454,454,1366,768,1366,768,8-30-2022,9-54-41,55,depth_duration_stimuli/002678_2014-06-13_16-15-32_094959634447_rgbf000151-resize_6/002678_2014-06-13_16-15-32_094959634447_rgbf000151-resize_6-target.png,125,2.1830000000000003,3,2723,125,meters,jsons/VE125_randls_57.json,704485,1273778,1997,Woman
55,829661,DepthScenes,duration_manipulation_targetAtFixation,jsons/VE125_randls_57.json,http://54.235.29.9/FacialAge/BNav_EC2/DepthDuration/v2_depth_duration_MTurk/v2_DepthDuration_HTML.html#454,454,1366,768,1366,768,8-30-2022,9-54-41,56,depth_duration_stimuli/001555_2014-06-20_17-12-10_260595134347_rgbf000065-resize_4/001555_2014-06-20_17-12-10_260595134347_rgbf000065-resize_4-target.png,125,1.633,1,3699,124,meters,jsons/VE125_randls_57.json,704485,1273778,1997,Woman
56,829661,DepthScenes,duration_manipulation_targetAtFixation,jsons/VE125_randls_57.json,http://54.235.29.9/FacialAge/BNav_EC2/DepthDuration/v2_depth_duration_MTurk/v2_DepthDuration_HTML.html#454,454,1366,768,1366,768,8-30-2022,9-54-41,57,depth_duration_stimuli/000103_2014-05-14_22-01-17_260595134347_rgbf000152-resize_5/000103_2014-05-14_22-01-17_260595134347_rgbf000152-resize_5-target.png,125,1.993,1,7286,117,meters,jsons/VE125_randls_57.json,704485,1273778,1997,Woman
57,829661,DepthScenes,duration_manipulation_targetAtFixation,jsons/VE125_randls_57.json,http://54.235.29.9/FacialAge/BNav_EC2/DepthDuration/v2_depth_duration_MTurk/v2_DepthDuration_HTML.html#454,454,1366,768,1366,768,8-30-2022,9-54-41,58,depth_duration_stimuli/002748_2014-06-22_19-07-22_094959634447_rgbf000078-resize_1/002748_2014-06-22_19-07-22_094959634447_rgbf000078-resize_1-target.png,125,4.6705,0,3430,122,meters,jsons/VE125_randls_57.json,704485,1273778,1997,Woman
58,829661,DepthScenes,duration_manipulation_targetAtFixation,jsons/VE125_randls_57.json,http://54.235.29.9/FacialAge/BNav_EC2/DepthDuration/v2_depth_duration_MTurk/v2_DepthDuration_HTML.html#454,454,1366,768,1366,768,8-30-2022,9-54-41,59,depth_duration_stimuli/002995_2014-06-15_12-31-26_094959634447_rgbf000150-resize_1/002995_2014-06-15_12-31-26_094959634447_rgbf000150-resize_1-target.png,125,3.8360000000000003,0,2504,123,meters,jsons/VE125_randls_57.json,704485,1273778,1997,Woman
59,829661,DepthScenes,duration_manipulation_targetAtFixation,jsons/VE125_randls_57.json,http://54.235.29.9/FacialAge/BNav_EC2/DepthDuration/v2_depth_duration_MTurk/v2_DepthDuration_HTML.html#454,454,1366,768,1366,768,8-30-2022,9-54-41,60,depth_duration_stimuli/000414_2014-06-04_19-49-13_260595134347_rgbf000044-resize_0/000414_2014-06-04_19-49-13_260595134347_rgbf000044-resize_0-target.png,125,4.329,0,2787,125,meters,jsons/VE125_randls_57.json,704485,1273778,1997,Woman
60,829661,DepthScenes,duration_manipulation_targetAtFixation,jsons/VE125_randls_57.json,http://54.235.29.9/FacialAge/BNav_EC2/DepthDuration/v2_depth_duration_MTurk/v2_DepthDuration_HTML.html#454,454,1366,768,1366,768,8-30-2022,9-54-41,61,depth_duration_stimuli/003129_2014-05-12_10-48-10_094959634447_rgbf000100-resize_0/003129_2014-05-12_10-48-10_094959634447_rgbf000100-resize_0-target.png,125,4.9305,5,3364,126,meters,jsons/VE125_randls_57.json,704485,1273778,1997,Woman
61,829661,DepthScenes,duration_manipulation_targetAtFixation,jsons/VE125_randls_57.json,http://54.235.29.9/FacialAge/BNav_EC2/DepthDuration/v2_depth_duration_MTurk/v2_DepthDuration_HTML.html#454,454,1366,768,1366,768,8-30-2022,9-54-41,62,depth_duration_stimuli/003492_2014-05-21_15-50-55_094959634447_rgbf000828-resize_1/003492_2014-05-21_15-50-55_094959634447_rgbf000828-resize_1-target.png,125,4.06875,0,3387,116,meters,jsons/VE125_randls_57.json,704485,1273778,1997,Woman
62,829661,DepthScenes,duration_manipulation_targetAtFixation,jsons/VE125_randls_57.json,http://54.235.29.9/FacialAge/BNav_EC2/DepthDuration/v2_depth_duration_MTurk/v2_DepthDuration_HTML.html#454,454,1366,768,1366,768,8-30-2022,9-54-41,63,depth_duration_stimuli/002568_2014-06-24_13-59-21_094959634447_rgbf000062-resize_4/002568_2014-06-24_13-59-21_094959634447_rgbf000062-resize_4-target.png,125,3.015,5,3856,124,meters,jsons/VE125_randls_57.json,704485,1273778,1997,Woman
63,829661,DepthScenes,duration_manipulation_targetAtFixation,jsons/VE125_randls_57.json,http://54.235.29.9/FacialAge/BNav_EC2/DepthDuration/v2_depth_duration_MTurk/v2_DepthDuration_HTML.html#454,454,1366,768,1366,768,8-30-2022,9-54-41,64,depth_duration_stimuli/000486_2014-06-09_20-47-20_260595134347_rgbf000143-resize_2/000486_2014-06-09_20-47-20_260595134347_rgbf000143-resize_2-target.png,125,4.8325,3,3331,125,meters,jsons/VE125_randls_57.json,704485,1273778,1997,Woman
64,829661,DepthScenes,duration_manipulation_targetAtFixation,jsons/VE125_randls_57.json,http://54.235.29.9/FacialAge/BNav_EC2/DepthDuration/v2_depth_duration_MTurk/v2_DepthDuration_HTML.html#454,454,1366,768,1366,768,8-30-2022,9-54-41,65,depth_duration_stimuli/003083_2014-06-15_15-21-03_094959634447_rgbf000063-resize_1/003083_2014-06-15_15-21-03_094959634447_rgbf000063-resize_1-target.png,125,4.1405,3,3618,128,meters,jsons/VE125_randls_57.json,704485,1273778,1997,Woman
65,829661,DepthScenes,duration_manipulation_targetAtFixation,jsons/VE125_randls_57.json,http://54.235.29.9/FacialAge/BNav_EC2/DepthDuration/v2_depth_duration_MTurk/v2_DepthDuration_HTML.html#454,454,1366,768,1366,768,8-30-2022,9-54-41,66,depth_duration_stimuli/001222_2014-06-17_16-24-06_260595134347_rgbf000073-resize_0/001222_2014-06-17_16-24-06_260595134347_rgbf000073-resize-original.jpg,125,1.4385,0,3178,122,meters,jsons/VE125_randls_57.json,704485,1273778,1997,Woman
66,829661,DepthScenes,duration_manipulation_targetAtFixation,jsons/VE125_randls_57.json,http://54.235.29.9/FacialAge/BNav_EC2/DepthDuration/v2_depth_duration_MTurk/v2_DepthDuration_HTML.html#454,454,1366,768,1366,768,8-30-2022,9-54-41,67,depth_duration_stimuli/001199_2014-06-17_16-03-48_260595134347_rgbf000077-resize_0/001199_2014-06-17_16-03-48_260595134347_rgbf000077-resize_0-target.png,125,3.4375,2,3994,129,meters,jsons/VE125_randls_57.json,704485,1273778,1997,Woman
67,829661,DepthScenes,duration_manipulation_targetAtFixation,jsons/VE125_randls_57.json,http://54.235.29.9/FacialAge/BNav_EC2/DepthDuration/v2_depth_duration_MTurk/v2_DepthDuration_HTML.html#454,454,1366,768,1366,768,8-30-2022,9-54-41,68,depth_duration_stimuli/000502_2014-06-08_23-02-32_260595134347_rgbf000063-resize_4/000502_2014-06-08_23-02-32_260595134347_rgbf000063-resize_4-target.png,125,2.431,3,3121,123,meters,jsons/VE125_randls_57.json,704485,1273778,1997,Woman
68,829661,DepthScenes,duration_manipulation_targetAtFixation,jsons/VE125_randls_57.json,http://54.235.29.9/FacialAge/BNav_EC2/DepthDuration/v2_depth_duration_MTurk/v2_DepthDuration_HTML.html#454,454,1366,768,1366,768,8-30-2022,9-54-41,69,depth_duration_stimuli/000810_2014-06-08_17-20-01_260595134347_rgbf000105-resize_0/000810_2014-06-08_17-20-01_260595134347_rgbf000105-resize_0-target.png,125,1.4865,3,2811,124,meters,jsons/VE125_randls_57.json,704485,1273778,1997,Woman
69,829661,DepthScenes,duration_manipulation_targetAtFixation,jsons/VE125_randls_57.json,http://54.235.29.9/FacialAge/BNav_EC2/DepthDuration/v2_depth_duration_MTurk/v2_DepthDuration_HTML.html#454,454,1366,768,1366,768,8-30-2022,9-54-41,70,depth_duration_stimuli/001214_2014-06-17_16-13-55_260595134347_rgbf000111-resize_0/001214_2014-06-17_16-13-55_260595134347_rgbf000111-resize_0-target.png,125,2.6505,2,3299,125,meters,jsons/VE125_randls_57.json,704485,1273778,1997,Woman
70,829661,DepthScenes,duration_manipulation_targetAtFixation,jsons/VE125_randls_57.json,http://54.235.29.9/FacialAge/BNav_EC2/DepthDuration/v2_depth_duration_MTurk/v2_DepthDuration_HTML.html#454,454,1366,768,1366,768,8-30-2022,9-54-41,71,depth_duration_stimuli/002509_2014-06-24_13-19-22_094959634447_rgbf000077-resize_0/002509_2014-06-24_13-19-22_094959634447_rgbf000077-resize_0-target.png,125,1.3065,0,3584,123,meters,jsons/VE125_randls_57.json,704485,1273778,1997,Woman
71,829661,DepthScenes,duration_manipulation_targetAtFixation,jsons/VE125_randls_57.json,http://54.235.29.9/FacialAge/BNav_EC2/DepthDuration/v2_depth_duration_MTurk/v2_DepthDuration_HTML.html#454,454,1366,768,1366,768,8-30-2022,9-54-41,72,depth_duration_stimuli/003338_2014-05-20_11-01-23_094959634447_rgbf000051-resize_6/003338_2014-05-20_11-01-23_094959634447_rgbf000051-resize_6-target.png,125,1.693,0,3146,125,meters,jsons/VE125_randls_57.json,704485,1273778,1997,Woman
72,829661,DepthScenes,duration_manipulation_targetAtFixation,jsons/VE125_randls_57.json,http://54.235.29.9/FacialAge/BNav_EC2/DepthDuration/v2_depth_duration_MTurk/v2_DepthDuration_HTML.html#454,454,1366,768,1366,768,8-30-2022,9-54-41,73,depth_duration_stimuli/000682_2014-06-08_23-14-58_260595134347_rgbf000041-resize_5/000682_2014-06-08_23-14-58_260595134347_rgbf000041-resize_5-target.png,125,2.7239999999999998,0,2948,124,meters,jsons/VE125_randls_57.json,704485,1273778,1997,Woman
73,829661,DepthScenes,duration_manipulation_targetAtFixation,jsons/VE125_randls_57.json,http://54.235.29.9/FacialAge/BNav_EC2/DepthDuration/v2_depth_duration_MTurk/v2_DepthDuration_HTML.html#454,454,1366,768,1366,768,8-30-2022,9-54-41,74,depth_duration_stimuli/001650_2014-06-20_12-09-00_260595134347_rgbf000087-resize_3/001650_2014-06-20_12-09-00_260595134347_rgbf000087-resize_3-target.png,125,1.9505,0,2696,118,meters,jsons/VE125_randls_57.json,704485,1273778,1997,Woman
74,829661,DepthScenes,duration_manipulation_targetAtFixation,jsons/VE125_randls_57.json,http://54.235.29.9/FacialAge/BNav_EC2/DepthDuration/v2_depth_duration_MTurk/v2_DepthDuration_HTML.html#454,454,1366,768,1366,768,8-30-2022,9-54-41,75,depth_duration_stimuli/001059_2014-06-08_21-53-27_260595134347_rgbf000061-resize_4/001059_2014-06-08_21-53-27_260595134347_rgbf000061-resize_4-target.png,125,2.4185,5,3478,124,meters,jsons/VE125_randls_57.json,704485,1273778,1997,Woman
75,829661,DepthScenes,duration_manipulation_targetAtFixation,jsons/VE125_randls_57.json,http://54.235.29.9/FacialAge/BNav_EC2/DepthDuration/v2_depth_duration_MTurk/v2_DepthDuration_HTML.html#454,454,1366,768,1366,768,8-30-2022,9-54-41,76,depth_duration_stimuli/001032_2014-06-08_13-23-17_260595134347_rgbf000021-resize_3/001032_2014-06-08_13-23-17_260595134347_rgbf000021-resize_3-target.png,125,3.2725,0,5275,127,meters,jsons/VE125_randls_57.json,704485,1273778,1997,Woman
76,829661,DepthScenes,duration_manipulation_targetAtFixation,jsons/VE125_randls_57.json,http://54.235.29.9/FacialAge/BNav_EC2/DepthDuration/v2_depth_duration_MTurk/v2_DepthDuration_HTML.html#454,454,1366,768,1366,768,8-30-2022,9-54-41,77,depth_duration_stimuli/000522_2014-06-08_13-35-06_260595134347_rgbf000244-resize_1/000522_2014-06-08_13-35-06_260595134347_rgbf000244-resize_1-target.png,125,2.3715,3,45722,123,meters,jsons/VE125_randls_57.json,704485,1273778,1997,Woman
77,829661,DepthScenes,duration_manipulation_targetAtFixation,jsons/VE125_randls_57.json,http://54.235.29.9/FacialAge/BNav_EC2/DepthDuration/v2_depth_duration_MTurk/v2_DepthDuration_HTML.html#454,454,1366,768,1366,768,8-30-2022,9-54-41,78,depth_duration_stimuli/002949_2014-06-26_15-57-42_094959634447_rgbf000079-resize_1/002949_2014-06-26_15-57-42_094959634447_rgbf000079-resize_1-target.png,125,1.8915,4,4458,125,meters,jsons/VE125_randls_57.json,704485,1273778,1997,Woman
78,829661,DepthScenes,duration_manipulation_targetAtFixation,jsons/VE125_randls_57.json,http://54.235.29.9/FacialAge/BNav_EC2/DepthDuration/v2_depth_duration_MTurk/v2_DepthDuration_HTML.html#454,454,1366,768,1366,768,8-30-2022,9-54-41,79,depth_duration_stimuli/001110_2014-06-15_17-25-28_260595134347_rgbf000150-resize_1/001110_2014-06-15_17-25-28_260595134347_rgbf000150-resize_1-target.png,125,1.7115,3,6393,121,meters,jsons/VE125_randls_57.json,704485,1273778,1997,Woman
79,829661,DepthScenes,duration_manipulation_targetAtFixation,jsons/VE125_randls_57.json,http://54.235.29.9/FacialAge/BNav_EC2/DepthDuration/v2_depth_duration_MTurk/v2_DepthDuration_HTML.html#454,454,1366,768,1366,768,8-30-2022,9-54-41,80,depth_duration_stimuli/000927_2014-06-09_16-32-30_260595134347_rgbf000123-resize_3/000927_2014-06-09_16-32-30_260595134347_rgbf000123-resize_3-target.png,125,2.6785,2,2481,123,meters,jsons/VE125_randls_57.json,704485,1273778,1997,Woman
80,829661,DepthScenes,duration_manipulation_targetAtFixation,jsons/VE125_randls_57.json,http://54.235.29.9/FacialAge/BNav_EC2/DepthDuration/v2_depth_duration_MTurk/v2_DepthDuration_HTML.html#454,454,1366,768,1366,768,8-30-2022,9-54-41,81,depth_duration_stimuli/001810_2014-06-26_20-51-35_260595134347_rgbf000040-resize_3/001810_2014-06-26_20-51-35_260595134347_rgbf000040-resize_3-target.png,125,2.2525,0,3275,154,meters,jsons/VE125_randls_57.json,704485,1273778,1997,Woman
81,829661,DepthScenes,duration_manipulation_targetAtFixation,jsons/VE125_randls_57.json,http://54.235.29.9/FacialAge/BNav_EC2/DepthDuration/v2_depth_duration_MTurk/v2_DepthDuration_HTML.html#454,454,1366,768,1366,768,8-30-2022,9-54-41,82,depth_duration_stimuli/003010_2014-06-15_12-54-35_094959634447_rgbf000112-resize_0/003010_2014-06-15_12-54-35_094959634447_rgbf000112-resize_0-target.png,125,3.1185,0,2635,136,meters,jsons/VE125_randls_57.json,704485,1273778,1997,Woman
82,829661,DepthScenes,duration_manipulation_targetAtFixation,jsons/VE125_randls_57.json,http://54.235.29.9/FacialAge/BNav_EC2/DepthDuration/v2_depth_duration_MTurk/v2_DepthDuration_HTML.html#454,454,1366,768,1366,768,8-30-2022,9-54-41,83,depth_duration_stimuli/000929_2014-06-09_16-33-19_260595134347_rgbf000139-resize_0/000929_2014-06-09_16-33-19_260595134347_rgbf000139-resize_0-target.png,125,2.8680000000000003,0,2507,125,meters,jsons/VE125_randls_57.json,704485,1273778,1997,Woman
83,829661,DepthScenes,duration_manipulation_targetAtFixation,jsons/VE125_randls_57.json,http://54.235.29.9/FacialAge/BNav_EC2/DepthDuration/v2_depth_duration_MTurk/v2_DepthDuration_HTML.html#454,454,1366,768,1366,768,8-30-2022,9-54-41,84,depth_duration_stimuli/000457_2014-06-08_16-52-43_260595134347_rgbf000199-resize_1/000457_2014-06-08_16-52-43_260595134347_rgbf000199-resize_1-target.png,125,3.6489999999999996,0,2451,124,meters,jsons/VE125_randls_57.json,704485,1273778,1997,Woman
84,829661,DepthScenes,duration_manipulation_targetAtFixation,jsons/VE125_randls_57.json,http://54.235.29.9/FacialAge/BNav_EC2/DepthDuration/v2_depth_duration_MTurk/v2_DepthDuration_HTML.html#454,454,1366,768,1366,768,8-30-2022,9-54-41,85,depth_duration_stimuli/002057_2014-06-24_21-00-13_260595134347_rgbf000120-resize_1/002057_2014-06-24_21-00-13_260595134347_rgbf000120-resize_1-target.png,125,2.967,0,2595,125,meters,jsons/VE125_randls_57.json,704485,1273778,1997,Woman
85,829661,DepthScenes,duration_manipulation_targetAtFixation,jsons/VE125_randls_57.json,http://54.235.29.9/FacialAge/BNav_EC2/DepthDuration/v2_depth_duration_MTurk/v2_DepthDuration_HTML.html#454,454,1366,768,1366,768,8-30-2022,9-54-41,86,depth_duration_stimuli/000709_2014-06-08_13-51-55_260595134347_rgbf000068-resize_3/000709_2014-06-08_13-51-55_260595134347_rgbf000068-resize_3-target.png,125,1.8030000000000002,0,2548,119,meters,jsons/VE125_randls_57.json,704485,1273778,1997,Woman
86,829661,DepthScenes,duration_manipulation_targetAtFixation,jsons/VE125_randls_57.json,http://54.235.29.9/FacialAge/BNav_EC2/DepthDuration/v2_depth_duration_MTurk/v2_DepthDuration_HTML.html#454,454,1366,768,1366,768,8-30-2022,9-54-41,87,depth_duration_stimuli/001175_2014-06-17_15-45-55_260595134347_rgbf000129-resize_4/001175_2014-06-17_15-45-55_260595134347_rgbf000129-resize_4-target.png,125,4.255,0,2704,121,meters,jsons/VE125_randls_57.json,704485,1273778,1997,Woman
87,829661,DepthScenes,duration_manipulation_targetAtFixation,jsons/VE125_randls_57.json,http://54.235.29.9/FacialAge/BNav_EC2/DepthDuration/v2_depth_duration_MTurk/v2_DepthDuration_HTML.html#454,454,1366,768,1366,768,8-30-2022,9-54-41,88,depth_duration_stimuli/003490_2014-05-21_15-50-11_094959634447_rgbf000101-resize_3/003490_2014-05-21_15-50-11_094959634447_rgbf000101-resize_3-target.png,125,3.6445,0,2450,125,meters,jsons/VE125_randls_57.json,704485,1273778,1997,Woman
88,829661,DepthScenes,duration_manipulation_targetAtFixation,jsons/VE125_randls_57.json,http://54.235.29.9/FacialAge/BNav_EC2/DepthDuration/v2_depth_duration_MTurk/v2_DepthDuration_HTML.html#454,454,1366,768,1366,768,8-30-2022,9-54-41,89,depth_duration_stimuli/001808_2014-06-26_20-50-58_260595134347_rgbf000029-resize_1/001808_2014-06-26_20-50-58_260595134347_rgbf000029-resize_1-target.png,125,4.249,0,2605,127,meters,jsons/VE125_randls_57.json,704485,1273778,1997,Woman
89,829661,DepthScenes,duration_manipulation_targetAtFixation,jsons/VE125_randls_57.json,http://54.235.29.9/FacialAge/BNav_EC2/DepthDuration/v2_depth_duration_MTurk/v2_DepthDuration_HTML.html#454,454,1366,768,1366,768,8-30-2022,9-54-41,90,depth_duration_stimuli/001815_2014-06-26_20-52-55_260595134347_rgbf000020-resize_0/001815_2014-06-26_20-52-55_260595134347_rgbf000020-resize_0-target.png,125,3.3865,4,3870,112,meters,jsons/VE125_randls_57.json,704485,1273778,1997,Woman
90,829661,DepthScenes,duration_manipulation_targetAtFixation,jsons/VE125_randls_57.json,http://54.235.29.9/FacialAge/BNav_EC2/DepthDuration/v2_depth_duration_MTurk/v2_DepthDuration_HTML.html#454,454,1366,768,1366,768,8-30-2022,9-54-41,91,depth_duration_stimuli/002905_2014-06-03_18-04-43_094959634447_rgbf000151-resize_2/002905_2014-06-03_18-04-43_094959634447_rgbf000151-resize_2-target.png,125,2.0295,0,3179,127,meters,jsons/VE125_randls_57.json,704485,1273778,1997,Woman
91,829661,DepthScenes,duration_manipulation_targetAtFixation,jsons/VE125_randls_57.json,http://54.235.29.9/FacialAge/BNav_EC2/DepthDuration/v2_depth_duration_MTurk/v2_DepthDuration_HTML.html#454,454,1366,768,1366,768,8-30-2022,9-54-41,92,depth_duration_stimuli/003423_2014-05-21_10-23-26_094959634447_rgbf002665-resize_2/003423_2014-05-21_10-23-26_094959634447_rgbf002665-resize_2-target.png,125,3.2575,4,2972,124,meters,jsons/VE125_randls_57.json,704485,1273778,1997,Woman
92,829661,DepthScenes,duration_manipulation_targetAtFixation,jsons/VE125_randls_57.json,http://54.235.29.9/FacialAge/BNav_EC2/DepthDuration/v2_depth_duration_MTurk/v2_DepthDuration_HTML.html#454,454,1366,768,1366,768,8-30-2022,9-54-41,93,depth_duration_stimuli/000493_2014-06-09_21-01-18_260595134347_rgbf000196-resize_3/000493_2014-06-09_21-01-18_260595134347_rgbf000196-resize_3-target.png,125,3.44,3,2512,124,meters,jsons/VE125_randls_57.json,704485,1273778,1997,Woman
93,829661,DepthScenes,duration_manipulation_targetAtFixation,jsons/VE125_randls_57.json,http://54.235.29.9/FacialAge/BNav_EC2/DepthDuration/v2_depth_duration_MTurk/v2_DepthDuration_HTML.html#454,454,1366,768,1366,768,8-30-2022,9-54-41,94,depth_duration_stimuli/000191_2014-05-12_17-07-38_260595134347_rgbf000199-resize_0/000191_2014-05-12_17-07-38_260595134347_rgbf000199-resize_0-target.png,125,3.7995,3,2348,77,meters,jsons/VE125_randls_57.json,704485,1273778,1997,Woman
94,829661,DepthScenes,duration_manipulation_targetAtFixation,jsons/VE125_randls_57.json,http://54.235.29.9/FacialAge/BNav_EC2/DepthDuration/v2_depth_duration_MTurk/v2_DepthDuration_HTML.html#454,454,1366,768,1366,768,8-30-2022,9-54-41,95,depth_duration_stimuli/001016_2014-06-09_16-16-10_260595134347_rgbf000112-resize_5/001016_2014-06-09_16-16-10_260595134347_rgbf000112-resize_5-target.png,125,1.6565,3,2457,124,meters,jsons/VE125_randls_57.json,704485,1273778,1997,Woman
95,829661,DepthScenes,duration_manipulation_targetAtFixation,jsons/VE125_randls_57.json,http://54.235.29.9/FacialAge/BNav_EC2/DepthDuration/v2_depth_duration_MTurk/v2_DepthDuration_HTML.html#454,454,1366,768,1366,768,8-30-2022,9-54-41,96,depth_duration_stimuli/002340_2014-06-28_20-05-46_260595134347_rgbf000113-resize_0/002340_2014-06-28_20-05-46_260595134347_rgbf000113-resize_0-target.png,125,2.4735,4,2581,123,meters,jsons/VE125_randls_57.json,704485,1273778,1997,Woman
96,829661,DepthScenes,duration_manipulation_targetAtFixation,jsons/VE125_randls_57.json,http://54.235.29.9/FacialAge/BNav_EC2/DepthDuration/v2_depth_duration_MTurk/v2_DepthDuration_HTML.html#454,454,1366,768,1366,768,8-30-2022,9-54-41,97,depth_duration_stimuli/001029_2014-06-08_13-17-57_260595134347_rgbf000065-resize_1/001029_2014-06-08_13-17-57_260595134347_rgbf000065-resize_1-target.png,125,3.0835,4,2625,125,meters,jsons/VE125_randls_57.json,704485,1273778,1997,Woman
97,829661,DepthScenes,duration_manipulation_targetAtFixation,jsons/VE125_randls_57.json,http://54.235.29.9/FacialAge/BNav_EC2/DepthDuration/v2_depth_duration_MTurk/v2_DepthDuration_HTML.html#454,454,1366,768,1366,768,8-30-2022,9-54-41,98,depth_duration_stimuli/000677_2014-06-08_23-10-32_260595134347_rgbf000158-resize_6/000677_2014-06-08_23-10-32_260595134347_rgbf000158-resize_6-target.png,125,3.556,0,3027,113,meters,jsons/VE125_randls_57.json,704485,1273778,1997,Woman
98,829661,DepthScenes,duration_manipulation_targetAtFixation,jsons/VE125_randls_57.json,http://54.235.29.9/FacialAge/BNav_EC2/DepthDuration/v2_depth_duration_MTurk/v2_DepthDuration_HTML.html#454,454,1366,768,1366,768,8-30-2022,9-54-41,99,depth_duration_stimuli/001540_2014-06-20_17-01-05_260595134347_rgbf000086-resize_2/001540_2014-06-20_17-01-05_260595134347_rgbf000086-resize-original.jpg,125,1.459,4,3762,124,meters,jsons/VE125_randls_57.json,704485,1273778,1997,Woman
99,829661,DepthScenes,duration_manipulation_targetAtFixation,jsons/VE125_randls_57.json,http://54.235.29.9/FacialAge/BNav_EC2/DepthDuration/v2_depth_duration_MTurk/v2_DepthDuration_HTML.html#454,454,1366,768,1366,768,8-30-2022,9-54-41,100,depth_duration_stimuli/003534_2014-05-22_15-06-10_094959634447_rgbf000102-resize_4/003534_2014-05-22_15-06-10_094959634447_rgbf000102-resize_4-target.png,125,1.426,0,3625,124,meters,jsons/VE125_randls_57.json,704485,1273778,1997,Woman
100,829661,DepthScenes,duration_manipulation_targetAtFixation,jsons/VE125_randls_57.json,http://54.235.29.9/FacialAge/BNav_EC2/DepthDuration/v2_depth_duration_MTurk/v2_DepthDuration_HTML.html#454,454,1366,768,1366,768,8-30-2022,9-54-41,101,depth_duration_stimuli/002637_2014-06-24_14-51-13_094959634447_rgbf000066-resize_4/002637_2014-06-24_14-51-13_094959634447_rgbf000066-resize_4-target.png,125,1.9955,0,2561,67,meters,jsons/VE125_randls_57.json,704485,1273778,1997,Woman
101,829661,DepthScenes,duration_manipulation_targetAtFixation,jsons/VE125_randls_57.json,http://54.235.29.9/FacialAge/BNav_EC2/DepthDuration/v2_depth_duration_MTurk/v2_DepthDuration_HTML.html#454,454,1366,768,1366,768,8-30-2022,9-54-41,102,depth_duration_stimuli/002153_2014-06-25_21-27-18_260595134347_rgbf000038-resize_5/002153_2014-06-25_21-27-18_260595134347_rgbf000038-resize_5-target.png,125,2.505,0,2882,124,meters,jsons/VE125_randls_57.json,704485,1273778,1997,Woman
102,829661,DepthScenes,duration_manipulation_targetAtFixation,jsons/VE125_randls_57.json,http://54.235.29.9/FacialAge/BNav_EC2/DepthDuration/v2_depth_duration_MTurk/v2_DepthDuration_HTML.html#454,454,1366,768,1366,768,8-30-2022,9-54-41,103,depth_duration_stimuli/002660_2014-06-13_15-44-18_094959634447_rgbf001878-resize_2/002660_2014-06-13_15-44-18_094959634447_rgbf001878-resize_2-target.png,125,3.576,0,2130,123,meters,jsons/VE125_randls_57.json,704485,1273778,1997,Woman
103,829661,DepthScenes,duration_manipulation_targetAtFixation,jsons/VE125_randls_57.json,http://54.235.29.9/FacialAge/BNav_EC2/DepthDuration/v2_depth_duration_MTurk/v2_DepthDuration_HTML.html#454,454,1366,768,1366,768,8-30-2022,9-54-41,104,depth_duration_stimuli/002600_2014-06-24_14-27-04_094959634447_rgbf000074-resize_2/002600_2014-06-24_14-27-04_094959634447_rgbf000074-resize_2-target.png,125,2.7575,3,2864,125,meters,jsons/VE125_randls_57.json,704485,1273778,1997,Woman
104,829661,DepthScenes,duration_manipulation_targetAtFixation,jsons/VE125_randls_57.json,http://54.235.29.9/FacialAge/BNav_EC2/DepthDuration/v2_depth_duration_MTurk/v2_DepthDuration_HTML.html#454,454,1366,768,1366,768,8-30-2022,9-54-41,105,depth_duration_stimuli/003228_2014-05-14_13-42-35_094959634447_rgbf000101-resize_1/003228_2014-05-14_13-42-35_094959634447_rgbf000101-resize_1-target.png,125,1.9680000000000002,0,3091,129,meters,jsons/VE125_randls_57.json,704485,1273778,1997,Woman
105,829661,DepthScenes,duration_manipulation_targetAtFixation,jsons/VE125_randls_57.json,http://54.235.29.9/FacialAge/BNav_EC2/DepthDuration/v2_depth_duration_MTurk/v2_DepthDuration_HTML.html#454,454,1366,768,1366,768,8-30-2022,9-54-41,106,depth_duration_stimuli/001011_2014-06-08_23-18-54_260595134347_rgbf000044-resize_4/001011_2014-06-08_23-18-54_260595134347_rgbf000044-resize_4-target.png,125,2.4730000000000003,0,2489,129,meters,jsons/VE125_randls_57.json,704485,1273778,1997,Woman
106,829661,DepthScenes,duration_manipulation_targetAtFixation,jsons/VE125_randls_57.json,http://54.235.29.9/FacialAge/BNav_EC2/DepthDuration/v2_depth_duration_MTurk/v2_DepthDuration_HTML.html#454,454,1366,768,1366,768,8-30-2022,9-54-41,107,depth_duration_stimuli/002875_2014-06-01_15-19-00_094959634447_rgbf000151-resize_1/002875_2014-06-01_15-19-00_094959634447_rgbf000151-resize_1-target.png,125,1.9675,0,3105,124,meters,jsons/VE125_randls_57.json,704485,1273778,1997,Woman
107,829661,DepthScenes,duration_manipulation_targetAtFixation,jsons/VE125_randls_57.json,http://54.235.29.9/FacialAge/BNav_EC2/DepthDuration/v2_depth_duration_MTurk/v2_DepthDuration_HTML.html#454,454,1366,768,1366,768,8-30-2022,9-54-41,108,depth_duration_stimuli/001417_2014-06-19_16-25-36_260595134347_rgbf000115-resize_5/001417_2014-06-19_16-25-36_260595134347_rgbf000115-resize_5-target.png,125,4.6255,0,3162,125,meters,jsons/VE125_randls_57.json,704485,1273778,1997,Woman
108,829661,DepthScenes,duration_manipulation_targetAtFixation,jsons/VE125_randls_57.json,http://54.235.29.9/FacialAge/BNav_EC2/DepthDuration/v2_depth_duration_MTurk/v2_DepthDuration_HTML.html#454,454,1366,768,1366,768,8-30-2022,9-54-41,109,depth_duration_stimuli/003081_2014-06-15_15-19-16_094959634447_rgbf000150-resize_1/003081_2014-06-15_15-19-16_094959634447_rgbf000150-resize_1-target.png,125,3.9125,0,2689,124,meters,jsons/VE125_randls_57.json,704485,1273778,1997,Woman
109,829661,DepthScenes,duration_manipulation_targetAtFixation,jsons/VE125_randls_57.json,http://54.235.29.9/FacialAge/BNav_EC2/DepthDuration/v2_depth_duration_MTurk/v2_DepthDuration_HTML.html#454,454,1366,768,1366,768,8-30-2022,9-54-41,110,depth_duration_stimuli/003070_2014-06-15_14-58-27_094959634447_rgbf000150-resize_3/003070_2014-06-15_14-58-27_094959634447_rgbf000150-resize_3-target.png,125,2.9415,0,3227,130,meters,jsons/VE125_randls_57.json,704485,1273778,1997,Woman
110,829661,DepthScenes,duration_manipulation_targetAtFixation,jsons/VE125_randls_57.json,http://54.235.29.9/FacialAge/BNav_EC2/DepthDuration/v2_depth_duration_MTurk/v2_DepthDuration_HTML.html#454,454,1366,768,1366,768,8-30-2022,9-54-41,111,depth_duration_stimuli/000943_2014-06-09_19-31-07_260595134347_rgbf000128-resize_1/000943_2014-06-09_19-31-07_260595134347_rgbf000128-resize_1-target.png,125,1.9765,5,2820,125,meters,jsons/VE125_randls_57.json,704485,1273778,1997,Woman
111,829661,DepthScenes,duration_manipulation_targetAtFixation,jsons/VE125_randls_57.json,http://54.235.29.9/FacialAge/BNav_EC2/DepthDuration/v2_depth_duration_MTurk/v2_DepthDuration_HTML.html#454,454,1366,768,1366,768,8-30-2022,9-54-41,112,depth_duration_stimuli/000788_2014-06-08_22-34-36_260595134347_rgbf000131-resize_1/000788_2014-06-08_22-34-36_260595134347_rgbf000131-resize_1-target.png,125,3.359,0,3125,125,meters,jsons/VE125_randls_57.json,704485,1273778,1997,Woman
112,829661,DepthScenes,duration_manipulation_targetAtFixation,jsons/VE125_randls_57.json,http://54.235.29.9/FacialAge/BNav_EC2/DepthDuration/v2_depth_duration_MTurk/v2_DepthDuration_HTML.html#454,454,1366,768,1366,768,8-30-2022,9-54-41,113,depth_duration_stimuli/001235_2014-06-17_16-37-36_260595134347_rgbf000084-resize_4/001235_2014-06-17_16-37-36_260595134347_rgbf000084-resize_4-target.png,125,3.6605,4,3784,99,meters,jsons/VE125_randls_57.json,704485,1273778,1997,Woman
113,829661,DepthScenes,duration_manipulation_targetAtFixation,jsons/VE125_randls_57.json,http://54.235.29.9/FacialAge/BNav_EC2/DepthDuration/v2_depth_duration_MTurk/v2_DepthDuration_HTML.html#454,454,1366,768,1366,768,8-30-2022,9-54-41,114,depth_duration_stimuli/002445_2014-06-28_20-32-16_260595134347_rgbf000029-resize_4/002445_2014-06-28_20-32-16_260595134347_rgbf000029-resize_4-target.png,125,2.5315,0,3242,124,meters,jsons/VE125_randls_57.json,704485,1273778,1997,Woman
114,829661,DepthScenes,duration_manipulation_targetAtFixation,jsons/VE125_randls_57.json,http://54.235.29.9/FacialAge/BNav_EC2/DepthDuration/v2_depth_duration_MTurk/v2_DepthDuration_HTML.html#454,454,1366,768,1366,768,8-30-2022,9-54-41,115,depth_duration_stimuli/000780_2014-06-08_22-28-29_260595134347_rgbf000126-resize_1/000780_2014-06-08_22-28-29_260595134347_rgbf000126-resize_1-target.png,125,3.3825,3,3155,122,meters,jsons/VE125_randls_57.json,704485,1273778,1997,Woman
115,829661,DepthScenes,duration_manipulation_targetAtFixation,jsons/VE125_randls_57.json,http://54.235.29.9/FacialAge/BNav_EC2/DepthDuration/v2_depth_duration_MTurk/v2_DepthDuration_HTML.html#454,454,1366,768,1366,768,8-30-2022,9-54-41,116,depth_duration_stimuli/001170_2014-06-17_15-43-44_260595134347_rgbf000096-resize_6/001170_2014-06-17_15-43-44_260595134347_rgbf000096-resize-original.jpg,125,1.1909999999999998,3,8051,124,meters,jsons/VE125_randls_57.json,704485,1273778,1997,Woman
116,829661,DepthScenes,duration_manipulation_targetAtFixation,jsons/VE125_randls_57.json,http://54.235.29.9/FacialAge/BNav_EC2/DepthDuration/v2_depth_duration_MTurk/v2_DepthDuration_HTML.html#454,454,1366,768,1366,768,8-30-2022,9-54-41,117,depth_duration_stimuli/002570_2014-06-24_13-59-54_094959634447_rgbf000059-resize_0/002570_2014-06-24_13-59-54_094959634447_rgbf000059-resize_0-target.png,125,4.037,0,2824,190,meters,jsons/VE125_randls_57.json,704485,1273778,1997,Woman
117,829661,DepthScenes,duration_manipulation_targetAtFixation,jsons/VE125_randls_57.json,http://54.235.29.9/FacialAge/BNav_EC2/DepthDuration/v2_depth_duration_MTurk/v2_DepthDuration_HTML.html#454,454,1366,768,1366,768,8-30-2022,9-54-41,118,depth_duration_stimuli/002467_2014-06-28_20-38-07_260595134347_rgbf000026-resize_2/002467_2014-06-28_20-38-07_260595134347_rgbf000026-resize_2-target.png,125,4.742,0,5171,127,meters,jsons/VE125_randls_57.json,704485,1273778,1997,Woman
118,829661,DepthScenes,duration_manipulation_targetAtFixation,jsons/VE125_randls_57.json,http://54.235.29.9/FacialAge/BNav_EC2/DepthDuration/v2_depth_duration_MTurk/v2_DepthDuration_HTML.html#454,454,1366,768,1366,768,8-30-2022,9-54-41,119,depth_duration_stimuli/002549_2014-06-24_13-41-39_094959634447_rgbf000022-resize_3/002549_2014-06-24_13-41-39_094959634447_rgbf000022-resize_3-target.png,125,1.476,0,2225,129,meters,jsons/VE125_randls_57.json,704485,1273778,1997,Woman
119,829661,DepthScenes,duration_manipulation_targetAtFixation,jsons/VE125_randls_57.json,http://54.235.29.9/FacialAge/BNav_EC2/DepthDuration/v2_depth_duration_MTurk/v2_DepthDuration_HTML.html#454,454,1366,768,1366,768,8-30-2022,9-54-41,120,depth_duration_stimuli/002750_2014-06-22_19-08-03_094959634447_rgbf000094-resize_4/002750_2014-06-22_19-08-03_094959634447_rgbf000094-resize_4-target.png,125,2.354,0,2898,123,meters,jsons/VE125_randls_57.json,704485,1273778,1997,Woman
120,829661,DepthScenes,duration_manipulation_targetAtFixation,jsons/VE125_randls_57.json,http://54.235.29.9/FacialAge/BNav_EC2/DepthDuration/v2_depth_duration_MTurk/v2_DepthDuration_HTML.html#454,454,1366,768,1366,768,8-30-2022,9-54-41,121,depth_duration_stimuli/000469_2014-06-09_19-42-10_260595134347_rgbf000081-resize_1/000469_2014-06-09_19-42-10_260595134347_rgbf000081-resize_1-target.png,125,1.652,0,2002,125,meters,jsons/VE125_randls_57.json,704485,1273778,1997,Woman
121,829661,DepthScenes,duration_manipulation_targetAtFixation,jsons/VE125_randls_57.json,http://54.235.29.9/FacialAge/BNav_EC2/DepthDuration/v2_depth_duration_MTurk/v2_DepthDuration_HTML.html#454,454,1366,768,1366,768,8-30-2022,9-54-41,122,depth_duration_stimuli/000483_2014-06-09_20-41-45_260595134347_rgbf000116-resize_4/000483_2014-06-09_20-41-45_260595134347_rgbf000116-resize_4-target.png,125,1.337,0,2388,124,meters,jsons/VE125_randls_57.json,704485,1273778,1997,Woman
122,829661,DepthScenes,duration_manipulation_targetAtFixation,jsons/VE125_randls_57.json,http://54.235.29.9/FacialAge/BNav_EC2/DepthDuration/v2_depth_duration_MTurk/v2_DepthDuration_HTML.html#454,454,1366,768,1366,768,8-30-2022,9-54-41,123,depth_duration_stimuli/001244_2014-06-17_16-47-45_260595134347_rgbf000030-resize_4/001244_2014-06-17_16-47-45_260595134347_rgbf000030-resize_4-target.png,125,2.0425,0,2435,108,meters,jsons/VE125_randls_57.json,704485,1273778,1997,Woman
123,829661,DepthScenes,duration_manipulation_targetAtFixation,jsons/VE125_randls_57.json,http://54.235.29.9/FacialAge/BNav_EC2/DepthDuration/v2_depth_duration_MTurk/v2_DepthDuration_HTML.html#454,454,1366,768,1366,768,8-30-2022,9-54-41,124,depth_duration_stimuli/003495_2014-05-21_16-01-51_094959634447_rgbf000100-resize_3/003495_2014-05-21_16-01-51_094959634447_rgbf000100-resize_3-target.png,125,1.6255,0,3451,124,meters,jsons/VE125_randls_57.json,704485,1273778,1997,Woman
124,829661,DepthScenes,duration_manipulation_targetAtFixation,jsons/VE125_randls_57.json,http://54.235.29.9/FacialAge/BNav_EC2/DepthDuration/v2_depth_duration_MTurk/v2_DepthDuration_HTML.html#454,454,1366,768,1366,768,8-30-2022,9-54-41,125,depth_duration_stimuli/001056_2014-06-08_18-46-44_260595134347_rgbf000068-resize_0/001056_2014-06-08_18-46-44_260595134347_rgbf000068-resize_0-target.png,125,2.6625,0,2211,110,meters,jsons/VE125_randls_57.json,704485,1273778,1997,Woman
125,829661,DepthScenes,duration_manipulation_targetAtFixation,jsons/VE125_randls_57.json,http://54.235.29.9/FacialAge/BNav_EC2/DepthDuration/v2_depth_duration_MTurk/v2_DepthDuration_HTML.html#454,454,1366,768,1366,768,8-30-2022,9-54-41,126,depth_duration_stimuli/002199_2014-06-28_18-33-56_260595134347_rgbf000074-resize_0/002199_2014-06-28_18-33-56_260595134347_rgbf000074-resize_0-target.png,125,1.996,0,2315,126,meters,jsons/VE125_randls_57.json,704485,1273778,1997,Woman
126,829661,DepthScenes,duration_manipulation_targetAtFixation,jsons/VE125_randls_57.json,http://54.235.29.9/FacialAge/BNav_EC2/DepthDuration/v2_depth_duration_MTurk/v2_DepthDuration_HTML.html#454,454,1366,768,1366,768,8-30-2022,9-54-41,127,depth_duration_stimuli/001092_2014-06-15_17-34-58_260595134347_rgbf000171-resize_3/001092_2014-06-15_17-34-58_260595134347_rgbf000171-resize_3-target.png,125,2.6935,0,1914,125,meters,jsons/VE125_randls_57.json,704485,1273778,1997,Woman
127,829661,DepthScenes,duration_manipulation_targetAtFixation,jsons/VE125_randls_57.json,http://54.235.29.9/FacialAge/BNav_EC2/DepthDuration/v2_depth_duration_MTurk/v2_DepthDuration_HTML.html#454,454,1366,768,1366,768,8-30-2022,9-54-41,128,depth_duration_stimuli/002545_2014-06-24_13-38-53_094959634447_rgbf000080-resize_4/002545_2014-06-24_13-38-53_094959634447_rgbf000080-resize_4-target.png,125,1.9205,0,2235,131,meters,jsons/VE125_randls_57.json,704485,1273778,1997,Woman
128,829661,DepthScenes,duration_manipulation_targetAtFixation,jsons/VE125_randls_57.json,http://54.235.29.9/FacialAge/BNav_EC2/DepthDuration/v2_depth_duration_MTurk/v2_DepthDuration_HTML.html#454,454,1366,768,1366,768,8-30-2022,9-54-41,129,depth_duration_stimuli/002788_2014-06-22_19-36-03_094959634447_rgbf000088-resize_2/002788_2014-06-22_19-36-03_094959634447_rgbf000088-resize_2-target.png,125,1.6465,3,2762,124,meters,jsons/VE125_randls_57.json,704485,1273778,1997,Woman
129,829661,DepthScenes,duration_manipulation_targetAtFixation,jsons/VE125_randls_57.json,http://54.235.29.9/FacialAge/BNav_EC2/DepthDuration/v2_depth_duration_MTurk/v2_DepthDuration_HTML.html#454,454,1366,768,1366,768,8-30-2022,9-54-41,130,depth_duration_stimuli/000749_2014-06-08_21-55-06_260595134347_rgbf000070-resize_2/000749_2014-06-08_21-55-06_260595134347_rgbf000070-resize_2-target.png,125,2.331,0,3420,124,meters,jsons/VE125_randls_57.json,704485,1273778,1997,Woman
130,829661,DepthScenes,duration_manipulation_targetAtFixation,jsons/VE125_randls_57.json,http://54.235.29.9/FacialAge/BNav_EC2/DepthDuration/v2_depth_duration_MTurk/v2_DepthDuration_HTML.html#454,454,1366,768,1366,768,8-30-2022,9-54-41,131,depth_duration_stimuli/002725_2014-06-22_11-47-51_094959634447_rgbf000070-resize_1/002725_2014-06-22_11-47-51_094959634447_rgbf000070-resize_1-target.png,125,2.195,2,2996,127,meters,jsons/VE125_randls_57.json,704485,1273778,1997,Woman
131,829661,DepthScenes,duration_manipulation_targetAtFixation,jsons/VE125_randls_57.json,http://54.235.29.9/FacialAge/BNav_EC2/DepthDuration/v2_depth_duration_MTurk/v2_DepthDuration_HTML.html#454,454,1366,768,1366,768,8-30-2022,9-54-41,132,depth_duration_stimuli/002344_2014-06-28_20-06-29_260595134347_rgbf000030-resize_1/002344_2014-06-28_20-06-29_260595134347_rgbf000030-resize_1-target.png,125,1.5795,1,2925,120,meters,jsons/VE125_randls_57.json,704485,1273778,1997,Woman
132,829661,DepthScenes,duration_manipulation_targetAtFixation,jsons/VE125_randls_57.json,http://54.235.29.9/FacialAge/BNav_EC2/DepthDuration/v2_depth_duration_MTurk/v2_DepthDuration_HTML.html#454,454,1366,768,1366,768,8-30-2022,9-54-41,133,depth_duration_stimuli/001167_2014-06-17_15-38-07_260595134347_rgbf000108-resize_0/001167_2014-06-17_15-38-07_260595134347_rgbf000108-resize_0-target.png,125,1.8505,0,4241,125,meters,jsons/VE125_randls_57.json,704485,1273778,1997,Woman
133,829661,DepthScenes,duration_manipulation_targetAtFixation,jsons/VE125_randls_57.json,http://54.235.29.9/FacialAge/BNav_EC2/DepthDuration/v2_depth_duration_MTurk/v2_DepthDuration_HTML.html#454,454,1366,768,1366,768,8-30-2022,9-54-41,134,depth_duration_stimuli/003587_2014-05-23_16-48-02_094959634447_rgbf002384-resize_2/003587_2014-05-23_16-48-02_094959634447_rgbf002384-resize_2-target.png,125,1.357,0,2262,147,meters,jsons/VE125_randls_57.json,704485,1273778,1997,Woman
134,829661,DepthScenes,duration_manipulation_targetAtFixation,jsons/VE125_randls_57.json,http://54.235.29.9/FacialAge/BNav_EC2/DepthDuration/v2_depth_duration_MTurk/v2_DepthDuration_HTML.html#454,454,1366,768,1366,768,8-30-2022,9-54-41,135,depth_duration_stimuli/002072_2014-06-24_21-48-06_260595134347_rgbf000115-resize_0/002072_2014-06-24_21-48-06_260595134347_rgbf000115-resize-original.jpg,125,4.702,0,2363,124,meters,jsons/VE125_randls_57.json,704485,1273778,1997,Woman
135,829661,DepthScenes,duration_manipulation_targetAtFixation,jsons/VE125_randls_57.json,http://54.235.29.9/FacialAge/BNav_EC2/DepthDuration/v2_depth_duration_MTurk/v2_DepthDuration_HTML.html#454,454,1366,768,1366,768,8-30-2022,9-54-41,136,depth_duration_stimuli/001164_2014-06-17_15-35-46_260595134347_rgbf000085-resize_3/001164_2014-06-17_15-35-46_260595134347_rgbf000085-resize_3-target.png,125,2.354,0,1946,125,meters,jsons/VE125_randls_57.json,704485,1273778,1997,Woman
136,829661,DepthScenes,duration_manipulation_targetAtFixation,jsons/VE125_randls_57.json,http://54.235.29.9/FacialAge/BNav_EC2/DepthDuration/v2_depth_duration_MTurk/v2_DepthDuration_HTML.html#454,454,1366,768,1366,768,8-30-2022,9-54-41,137,depth_duration_stimuli/001136_2014-06-17_15-19-41_260595134347_rgbf000076-resize_3/001136_2014-06-17_15-19-41_260595134347_rgbf000076-resize_3-target.png,125,1.8655,0,2035,124,meters,jsons/VE125_randls_57.json,704485,1273778,1997,Woman
137,829661,DepthScenes,duration_manipulation_targetAtFixation,jsons/VE125_randls_57.json,http://54.235.29.9/FacialAge/BNav_EC2/DepthDuration/v2_depth_duration_MTurk/v2_DepthDuration_HTML.html#454,454,1366,768,1366,768,8-30-2022,9-54-41,138,depth_duration_stimuli/001066_2014-06-08_22-03-20_260595134347_rgbf000066-resize_4/001066_2014-06-08_22-03-20_260595134347_rgbf000066-resize_4-target.png,125,4.2330000000000005,2,3515,123,meters,jsons/VE125_randls_57.json,704485,1273778,1997,Woman
138,829661,DepthScenes,duration_manipulation_targetAtFixation,jsons/VE125_randls_57.json,http://54.235.29.9/FacialAge/BNav_EC2/DepthDuration/v2_depth_duration_MTurk/v2_DepthDuration_HTML.html#454,454,1366,768,1366,768,8-30-2022,9-54-41,139,depth_duration_stimuli/000742_2014-06-08_18-48-09_260595134347_rgbf000164-resize_4/000742_2014-06-08_18-48-09_260595134347_rgbf000164-resize_4-target.png,125,4.632,0,2675,124,meters,jsons/VE125_randls_57.json,704485,1273778,1997,Woman
139,829661,DepthScenes,duration_manipulation_targetAtFixation,jsons/VE125_randls_57.json,http://54.235.29.9/FacialAge/BNav_EC2/DepthDuration/v2_depth_duration_MTurk/v2_DepthDuration_HTML.html#454,454,1366,768,1366,768,8-30-2022,9-54-41,140,depth_duration_stimuli/003621_2014-05-23_18-06-08_094959634447_rgbf000101-resize_1/003621_2014-05-23_18-06-08_094959634447_rgbf000101-resize_1-target.png,125,3.9835,2,3113,126,meters,jsons/VE125_randls_57.json,704485,1273778,1997,Woman
140,829661,DepthScenes,duration_manipulation_targetAtFixation,jsons/VE125_randls_57.json,http://54.235.29.9/FacialAge/BNav_EC2/DepthDuration/v2_depth_duration_MTurk/v2_DepthDuration_HTML.html#454,454,1366,768,1366,768,8-30-2022,9-54-41,141,depth_duration_stimuli/001584_2014-06-20_11-07-43_260595134347_rgbf000002-resize_1/001584_2014-06-20_11-07-43_260595134347_rgbf000002-resize_1-target.png,125,3.53,1,2223,124,meters,jsons/VE125_randls_57.json,704485,1273778,1997,Woman
141,829661,DepthScenes,duration_manipulation_targetAtFixation,jsons/VE125_randls_57.json,http://54.235.29.9/FacialAge/BNav_EC2/DepthDuration/v2_depth_duration_MTurk/v2_DepthDuration_HTML.html#454,454,1366,768,1366,768,8-30-2022,9-54-41,142,depth_duration_stimuli/001449_2014-06-19_17-01-27_260595134347_rgbf000116-resize_2/001449_2014-06-19_17-01-27_260595134347_rgbf000116-resize_2-target.png,125,3.452,1,2269,124,meters,jsons/VE125_randls_57.json,704485,1273778,1997,Woman
142,829661,DepthScenes,duration_manipulation_targetAtFixation,jsons/VE125_randls_57.json,http://54.235.29.9/FacialAge/BNav_EC2/DepthDuration/v2_depth_duration_MTurk/v2_DepthDuration_HTML.html#454,454,1366,768,1366,768,8-30-2022,9-54-41,143,depth_duration_stimuli/001450_2014-06-19_17-02-03_260595134347_rgbf000203-resize_4/001450_2014-06-19_17-02-03_260595134347_rgbf000203-resize_4-target.png,125,4.0106666666667,0,2915,100,meters,jsons/VE125_randls_57.json,704485,1273778,1997,Woman
143,829661,DepthScenes,duration_manipulation_targetAtFixation,jsons/VE125_randls_57.json,http://54.235.29.9/FacialAge/BNav_EC2/DepthDuration/v2_depth_duration_MTurk/v2_DepthDuration_HTML.html#454,454,1366,768,1366,768,8-30-2022,9-54-41,144,depth_duration_stimuli/001133_2014-06-17_14-49-16_260595134347_rgbf000100-resize_0/001133_2014-06-17_14-49-16_260595134347_rgbf000100-resize_0-target.png,125,4.2115,0,2076,121,meters,jsons/VE125_randls_57.json,704485,1273778,1997,Woman
144,829661,DepthScenes,duration_manipulation_targetAtFixation,jsons/VE125_randls_57.json,http://54.235.29.9/FacialAge/BNav_EC2/DepthDuration/v2_depth_duration_MTurk/v2_DepthDuration_HTML.html#454,454,1366,768,1366,768,8-30-2022,9-54-41,145,depth_duration_stimuli/001132_2014-06-17_14-48-54_260595134347_rgbf000100-resize_2/001132_2014-06-17_14-48-54_260595134347_rgbf000100-resize_2-target.png,125,3.753,0,2164,86,meters,jsons/VE125_randls_57.json,704485,1273778,1997,Woman
145,829661,DepthScenes,duration_manipulation_targetAtFixation,jsons/VE125_randls_57.json,http://54.235.29.9/FacialAge/BNav_EC2/DepthDuration/v2_depth_duration_MTurk/v2_DepthDuration_HTML.html#454,454,1366,768,1366,768,8-30-2022,9-54-41,146,depth_duration_stimuli/001498_2014-06-19_17-45-14_260595134347_rgbf000129-resize_4/001498_2014-06-19_17-45-14_260595134347_rgbf000129-resize-original.jpg,125,1.4075,0,2455,125,meters,jsons/VE125_randls_57.json,704485,1273778,1997,Woman
146,829661,DepthScenes,duration_manipulation_targetAtFixation,jsons/VE125_randls_57.json,http://54.235.29.9/FacialAge/BNav_EC2/DepthDuration/v2_depth_duration_MTurk/v2_DepthDuration_HTML.html#454,454,1366,768,1366,768,8-30-2022,9-54-41,147,depth_duration_stimuli/000692_2014-06-08_13-09-42_260595134347_rgbf000199-resize_2/000692_2014-06-08_13-09-42_260595134347_rgbf000199-resize_2-target.png,125,3.661,0,3268,129,meters,jsons/VE125_randls_57.json,704485,1273778,1997,Woman
147,829661,DepthScenes,duration_manipulation_targetAtFixation,jsons/VE125_randls_57.json,http://54.235.29.9/FacialAge/BNav_EC2/DepthDuration/v2_depth_duration_MTurk/v2_DepthDuration_HTML.html#454,454,1366,768,1366,768,8-30-2022,9-54-41,148,depth_duration_stimuli/001094_2014-06-15_17-36-00_260595134347_rgbf000205-resize_0/001094_2014-06-15_17-36-00_260595134347_rgbf000205-resize_0-target.png,125,4.2175,2,2529,119,meters,jsons/VE125_randls_57.json,704485,1273778,1997,Woman
148,829661,DepthScenes,duration_manipulation_targetAtFixation,jsons/VE125_randls_57.json,http://54.235.29.9/FacialAge/BNav_EC2/DepthDuration/v2_depth_duration_MTurk/v2_DepthDuration_HTML.html#454,454,1366,768,1366,768,8-30-2022,9-54-41,149,depth_duration_stimuli/000642_2014-06-08_16-59-25_260595134347_rgbf000098-resize_2/000642_2014-06-08_16-59-25_260595134347_rgbf000098-resize_2-target.png,125,2.8815,2,2450,125,meters,jsons/VE125_randls_57.json,704485,1273778,1997,Woman
149,829661,DepthScenes,duration_manipulation_targetAtFixation,jsons/VE125_randls_57.json,http://54.235.29.9/FacialAge/BNav_EC2/DepthDuration/v2_depth_duration_MTurk/v2_DepthDuration_HTML.html#454,454,1366,768,1366,768,8-30-2022,9-54-41,150,depth_duration_stimuli/002425_2014-06-28_20-27-29_260595134347_rgbf000031-resize_8/002425_2014-06-28_20-27-29_260595134347_rgbf000031-resize_8-target.png,125,3.8960000000000004,1,1994,125,meters,jsons/VE125_randls_57.json,704485,1273778,1997,Woman
150,829661,DepthScenes,duration_manipulation_targetAtFixation,jsons/VE125_randls_57.json,http://54.235.29.9/FacialAge/BNav_EC2/DepthDuration/v2_depth_duration_MTurk/v2_DepthDuration_HTML.html#454,454,1366,768,1366,768,8-30-2022,9-54-41,151,depth_duration_stimuli/002989_2014-06-15_12-25-03_094959634447_rgbf000150-resize_3/002989_2014-06-15_12-25-03_094959634447_rgbf000150-resize_3-target.png,125,4.1975,0,3235,124,meters,jsons/VE125_randls_57.json,704485,1273778,1997,Woman
151,829661,DepthScenes,duration_manipulation_targetAtFixation,jsons/VE125_randls_57.json,http://54.235.29.9/FacialAge/BNav_EC2/DepthDuration/v2_depth_duration_MTurk/v2_DepthDuration_HTML.html#454,454,1366,768,1366,768,8-30-2022,9-54-41,152,depth_duration_stimuli/000866_2014-06-09_20-45-42_260595134347_rgbf000139-resize_1/000866_2014-06-09_20-45-42_260595134347_rgbf000139-resize_1-target.png,125,3.2155,0,2694,122,meters,jsons/VE125_randls_57.json,704485,1273778,1997,Woman
152,829661,DepthScenes,duration_manipulation_targetAtFixation,jsons/VE125_randls_57.json,http://54.235.29.9/FacialAge/BNav_EC2/DepthDuration/v2_depth_duration_MTurk/v2_DepthDuration_HTML.html#454,454,1366,768,1366,768,8-30-2022,9-54-41,153,depth_duration_stimuli/000758_2014-06-08_22-05-08_260595134347_rgbf000085-resize_0/000758_2014-06-08_22-05-08_260595134347_rgbf000085-resize_0-target.png,125,3.3810000000000002,0,1964,124,meters,jsons/VE125_randls_57.json,704485,1273778,1997,Woman
153,829661,DepthScenes,duration_manipulation_targetAtFixation,jsons/VE125_randls_57.json,http://54.235.29.9/FacialAge/BNav_EC2/DepthDuration/v2_depth_duration_MTurk/v2_DepthDuration_HTML.html#454,454,1366,768,1366,768,8-30-2022,9-54-41,154,depth_duration_stimuli/000854_2014-06-09_19-43-13_260595134347_rgbf000066-resize_0/000854_2014-06-09_19-43-13_260595134347_rgbf000066-resize_0-target.png,125,3.068,0,1775,110,meters,jsons/VE125_randls_57.json,704485,1273778,1997,Woman
154,829661,DepthScenes,duration_manipulation_targetAtFixation,jsons/VE125_randls_57.json,http://54.235.29.9/FacialAge/BNav_EC2/DepthDuration/v2_depth_duration_MTurk/v2_DepthDuration_HTML.html#454,454,1366,768,1366,768,8-30-2022,9-54-41,155,depth_duration_stimuli/000736_2014-06-08_18-24-15_260595134347_rgbf000206-resize_3/000736_2014-06-08_18-24-15_260595134347_rgbf000206-resize_3-target.png,125,3.515,0,2608,119,meters,jsons/VE125_randls_57.json,704485,1273778,1997,Woman
155,829661,DepthScenes,duration_manipulation_targetAtFixation,jsons/VE125_randls_57.json,http://54.235.29.9/FacialAge/BNav_EC2/DepthDuration/v2_depth_duration_MTurk/v2_DepthDuration_HTML.html#454,454,1366,768,1366,768,8-30-2022,9-54-41,156,depth_duration_stimuli/000137_2014-05-20_17-04-49_260595134347_rgbf000120-resize_1/000137_2014-05-20_17-04-49_260595134347_rgbf000120-resize_1-target.png,125,3.786,3,4531,125,meters,jsons/VE125_randls_57.json,704485,1273778,1997,Woman
156,829661,DepthScenes,duration_manipulation_targetAtFixation,jsons/VE125_randls_57.json,http://54.235.29.9/FacialAge/BNav_EC2/DepthDuration/v2_depth_duration_MTurk/v2_DepthDuration_HTML.html#454,454,1366,768,1366,768,8-30-2022,9-54-41,157,depth_duration_stimuli/002213_2014-06-28_18-37-58_260595134347_rgbf000055-resize_1/002213_2014-06-28_18-37-58_260595134347_rgbf000055-resize_1-target.png,125,3.62,2,3124,109,meters,jsons/VE125_randls_57.json,704485,1273778,1997,Woman
157,829661,DepthScenes,duration_manipulation_targetAtFixation,jsons/VE125_randls_57.json,http://54.235.29.9/FacialAge/BNav_EC2/DepthDuration/v2_depth_duration_MTurk/v2_DepthDuration_HTML.html#454,454,1366,768,1366,768,8-30-2022,9-54-41,158,depth_duration_stimuli/000691_2014-06-08_13-08-50_260595134347_rgbf000132-resize_3/000691_2014-06-08_13-08-50_260595134347_rgbf000132-resize_3-target.png,125,4.1530000000000005,0,3562,124,meters,jsons/VE125_randls_57.json,704485,1273778,1997,Woman
158,829661,DepthScenes,duration_manipulation_targetAtFixation,jsons/VE125_randls_57.json,http://54.235.29.9/FacialAge/BNav_EC2/DepthDuration/v2_depth_duration_MTurk/v2_DepthDuration_HTML.html#454,454,1366,768,1366,768,8-30-2022,9-54-41,159,depth_duration_stimuli/002964_2014-06-08_17-46-11_094959634447_rgbf000091-resize_4/002964_2014-06-08_17-46-11_094959634447_rgbf000091-resize_4-target.png,125,1.6909999999999998,0,2075,124,meters,jsons/VE125_randls_57.json,704485,1273778,1997,Woman
159,829661,DepthScenes,duration_manipulation_targetAtFixation,jsons/VE125_randls_57.json,http://54.235.29.9/FacialAge/BNav_EC2/DepthDuration/v2_depth_duration_MTurk/v2_DepthDuration_HTML.html#454,454,1366,768,1366,768,8-30-2022,9-54-41,160,depth_duration_stimuli/002136_2014-06-25_21-18-03_260595134347_rgbf000109-resize_3/002136_2014-06-25_21-18-03_260595134347_rgbf000109-resize_3-target.png,125,1.9569999999999999,0,2210,127,meters,jsons/VE125_randls_57.json,704485,1273778,1997,Woman
160,829661,DepthScenes,duration_manipulation_targetAtFixation,jsons/VE125_randls_57.json,http://54.235.29.9/FacialAge/BNav_EC2/DepthDuration/v2_depth_duration_MTurk/v2_DepthDuration_HTML.html#454,454,1366,768,1366,768,8-30-2022,9-54-41,161,depth_duration_stimuli/000917_2014-06-09_22-45-29_260595134347_rgbf000149-resize_3/000917_2014-06-09_22-45-29_260595134347_rgbf000149-resize_3-target.png,125,4.1865,3,2706,123,meters,jsons/VE125_randls_57.json,704485,1273778,1997,Woman
161,829661,DepthScenes,duration_manipulation_targetAtFixation,jsons/VE125_randls_57.json,http://54.235.29.9/FacialAge/BNav_EC2/DepthDuration/v2_depth_duration_MTurk/v2_DepthDuration_HTML.html#454,454,1366,768,1366,768,8-30-2022,9-54-41,162,depth_duration_stimuli/002323_2014-06-28_20-01-54_260595134347_rgbf000051-resize_4/002323_2014-06-28_20-01-54_260595134347_rgbf000051-resize_4-target.png,125,3.7310000000000003,2,2611,125,meters,jsons/VE125_randls_57.json,704485,1273778,1997,Woman
162,829661,DepthScenes,duration_manipulation_targetAtFixation,jsons/VE125_randls_57.json,http://54.235.29.9/FacialAge/BNav_EC2/DepthDuration/v2_depth_duration_MTurk/v2_DepthDuration_HTML.html#454,454,1366,768,1366,768,8-30-2022,9-54-41,163,depth_duration_stimuli/002043_2014-06-24_20-29-38_260595134347_rgbf000039-resize_4/002043_2014-06-24_20-29-38_260595134347_rgbf000039-resize_4-target.png,125,2.8435,2,2142,131,meters,jsons/VE125_randls_57.json,704485,1273778,1997,Woman
163,829661,DepthScenes,duration_manipulation_targetAtFixation,jsons/VE125_randls_57.json,http://54.235.29.9/FacialAge/BNav_EC2/DepthDuration/v2_depth_duration_MTurk/v2_DepthDuration_HTML.html#454,454,1366,768,1366,768,8-30-2022,9-54-41,164,depth_duration_stimuli/003048_2014-06-15_13-49-43_094959634447_rgbf000150-resize_1/003048_2014-06-15_13-49-43_094959634447_rgbf000150-resize_1-target.png,125,4.0035,0,3139,124,meters,jsons/VE125_randls_57.json,704485,1273778,1997,Woman
