,subjID,experimentName,versionName,sequenceName,url,selected_row,windowWidth,windowHeight,screenWidth,screenHeight,startDate,startTime,trial,stimulus,duration,actual_depth,depth_estimate,trial_RT,log_sceneDuration,unitSelection,seq_filepath,experimentTime,totalTime,age,gender
0,830612,DepthScenes,duration_manipulation_targetAtFixation,jsons/v1_VE1000_randls_64.json,http://54.235.29.9/FacialAge/BNav_EC2/DepthDuration/v2_depth_duration_MTurk/v2_DepthDuration_HTML.html#88,88,1366,768,1366,768,8-22-2022,8-59-39,1,depth_duration_stimuli/002988_2014-06-15_12-24-20_094959634447_rgbf000150-resize_1/002988_2014-06-15_12-24-20_094959634447_rgbf000150-resize_1-target.png,1000,4.7669999999999995,2,4939,989,meters,jsons/v1_VE1000_randls_64.json,827536,971274,25,Woman
1,830612,DepthScenes,duration_manipulation_targetAtFixation,jsons/v1_VE1000_randls_64.json,http://54.235.29.9/FacialAge/BNav_EC2/DepthDuration/v2_depth_duration_MTurk/v2_DepthDuration_HTML.html#88,88,1366,768,1366,768,8-22-2022,8-59-39,2,depth_duration_stimuli/001052_2014-06-08_18-24-54_260595134347_rgbf000130-resize_1/001052_2014-06-08_18-24-54_260595134347_rgbf000130-resize_1-target.png,1000,4.1045,2,4018,998,meters,jsons/v1_VE1000_randls_64.json,827536,971274,25,Woman
2,830612,DepthScenes,duration_manipulation_targetAtFixation,jsons/v1_VE1000_randls_64.json,http://54.235.29.9/FacialAge/BNav_EC2/DepthDuration/v2_depth_duration_MTurk/v2_DepthDuration_HTML.html#88,88,1366,768,1366,768,8-22-2022,8-59-39,3,depth_duration_stimuli/002964_2014-06-08_17-46-11_094959634447_rgbf000091-resize_4/002964_2014-06-08_17-46-11_094959634447_rgbf000091-resize_4-target.png,1000,1.6909999999999998,3,5787,1049,meters,jsons/v1_VE1000_randls_64.json,827536,971274,25,Woman
3,830612,DepthScenes,duration_manipulation_targetAtFixation,jsons/v1_VE1000_randls_64.json,http://54.235.29.9/FacialAge/BNav_EC2/DepthDuration/v2_depth_duration_MTurk/v2_DepthDuration_HTML.html#88,88,1366,768,1366,768,8-22-2022,8-59-39,4,depth_duration_stimuli/002136_2014-06-25_21-18-03_260595134347_rgbf000109-resize_3/002136_2014-06-25_21-18-03_260595134347_rgbf000109-resize_3-target.png,1000,1.9569999999999999,2,5365,1018,meters,jsons/v1_VE1000_randls_64.json,827536,971274,25,Woman
4,830612,DepthScenes,duration_manipulation_targetAtFixation,jsons/v1_VE1000_randls_64.json,http://54.235.29.9/FacialAge/BNav_EC2/DepthDuration/v2_depth_duration_MTurk/v2_DepthDuration_HTML.html#88,88,1366,768,1366,768,8-22-2022,8-59-39,5,depth_duration_stimuli/000917_2014-06-09_22-45-29_260595134347_rgbf000149-resize_3/000917_2014-06-09_22-45-29_260595134347_rgbf000149-resize_3-target.png,1000,4.1865,3,6334,1014,meters,jsons/v1_VE1000_randls_64.json,827536,971274,25,Woman
5,830612,DepthScenes,duration_manipulation_targetAtFixation,jsons/v1_VE1000_randls_64.json,http://54.235.29.9/FacialAge/BNav_EC2/DepthDuration/v2_depth_duration_MTurk/v2_DepthDuration_HTML.html#88,88,1366,768,1366,768,8-22-2022,8-59-39,6,depth_duration_stimuli/002323_2014-06-28_20-01-54_260595134347_rgbf000051-resize_4/002323_2014-06-28_20-01-54_260595134347_rgbf000051-resize_4-target.png,1000,3.7310000000000003,2,5337,999,meters,jsons/v1_VE1000_randls_64.json,827536,971274,25,Woman
6,830612,DepthScenes,duration_manipulation_targetAtFixation,jsons/v1_VE1000_randls_64.json,http://54.235.29.9/FacialAge/BNav_EC2/DepthDuration/v2_depth_duration_MTurk/v2_DepthDuration_HTML.html#88,88,1366,768,1366,768,8-22-2022,8-59-39,7,depth_duration_stimuli/002279_2014-06-28_18-55-32_260595134347_rgbf000040-resize_5/002279_2014-06-28_18-55-32_260595134347_rgbf000040-resize_5-target.png,1000,1.5043333333333,2,4618,996,meters,jsons/v1_VE1000_randls_64.json,827536,971274,25,Woman
7,830612,DepthScenes,duration_manipulation_targetAtFixation,jsons/v1_VE1000_randls_64.json,http://54.235.29.9/FacialAge/BNav_EC2/DepthDuration/v2_depth_duration_MTurk/v2_DepthDuration_HTML.html#88,88,1366,768,1366,768,8-22-2022,8-59-39,8,depth_duration_stimuli/000635_2014-06-08_16-38-42_260595134347_rgbf000106-resize_1/000635_2014-06-08_16-38-42_260595134347_rgbf000106-resize_1-target.png,1000,2.074,2,4078,1018,meters,jsons/v1_VE1000_randls_64.json,827536,971274,25,Woman
8,830612,DepthScenes,duration_manipulation_targetAtFixation,jsons/v1_VE1000_randls_64.json,http://54.235.29.9/FacialAge/BNav_EC2/DepthDuration/v2_depth_duration_MTurk/v2_DepthDuration_HTML.html#88,88,1366,768,1366,768,8-22-2022,8-59-39,9,depth_duration_stimuli/000506_2014-06-08_23-21-00_260595134347_rgbf000070-resize_7/000506_2014-06-08_23-21-00_260595134347_rgbf000070-resize_7-target.png,1000,4.0585,2,6852,992,meters,jsons/v1_VE1000_randls_64.json,827536,971274,25,Woman
9,830612,DepthScenes,duration_manipulation_targetAtFixation,jsons/v1_VE1000_randls_64.json,http://54.235.29.9/FacialAge/BNav_EC2/DepthDuration/v2_depth_duration_MTurk/v2_DepthDuration_HTML.html#88,88,1366,768,1366,768,8-22-2022,8-59-39,10,depth_duration_stimuli/003079_2014-06-15_15-18-20_094959634447_rgbf000152-resize_8/003079_2014-06-15_15-18-20_094959634447_rgbf000152-resize_8-target.png,1000,2.8775,2,4192,991,meters,jsons/v1_VE1000_randls_64.json,827536,971274,25,Woman
10,830612,DepthScenes,duration_manipulation_targetAtFixation,jsons/v1_VE1000_randls_64.json,http://54.235.29.9/FacialAge/BNav_EC2/DepthDuration/v2_depth_duration_MTurk/v2_DepthDuration_HTML.html#88,88,1366,768,1366,768,8-22-2022,8-59-39,11,depth_duration_stimuli/000758_2014-06-08_22-05-08_260595134347_rgbf000085-resize_0/000758_2014-06-08_22-05-08_260595134347_rgbf000085-resize_0-target.png,1000,3.3810000000000002,3,4428,995,meters,jsons/v1_VE1000_randls_64.json,827536,971274,25,Woman
11,830612,DepthScenes,duration_manipulation_targetAtFixation,jsons/v1_VE1000_randls_64.json,http://54.235.29.9/FacialAge/BNav_EC2/DepthDuration/v2_depth_duration_MTurk/v2_DepthDuration_HTML.html#88,88,1366,768,1366,768,8-22-2022,8-59-39,12,depth_duration_stimuli/000854_2014-06-09_19-43-13_260595134347_rgbf000066-resize_0/000854_2014-06-09_19-43-13_260595134347_rgbf000066-resize_0-target.png,1000,3.068,2,4123,998,meters,jsons/v1_VE1000_randls_64.json,827536,971274,25,Woman
12,830612,DepthScenes,duration_manipulation_targetAtFixation,jsons/v1_VE1000_randls_64.json,http://54.235.29.9/FacialAge/BNav_EC2/DepthDuration/v2_depth_duration_MTurk/v2_DepthDuration_HTML.html#88,88,1366,768,1366,768,8-22-2022,8-59-39,13,depth_duration_stimuli/000569_2014-06-09_22-51-47_260595134347_rgbf000141-resize_3/000569_2014-06-09_22-51-47_260595134347_rgbf000141-resize-original.jpg,1000,4.512,2,4806,930,meters,jsons/v1_VE1000_randls_64.json,827536,971274,25,Woman
13,830612,DepthScenes,duration_manipulation_targetAtFixation,jsons/v1_VE1000_randls_64.json,http://54.235.29.9/FacialAge/BNav_EC2/DepthDuration/v2_depth_duration_MTurk/v2_DepthDuration_HTML.html#88,88,1366,768,1366,768,8-22-2022,8-59-39,14,depth_duration_stimuli/002788_2014-06-22_19-36-03_094959634447_rgbf000088-resize_2/002788_2014-06-22_19-36-03_094959634447_rgbf000088-resize_2-target.png,1000,1.6465,2,4951,1002,meters,jsons/v1_VE1000_randls_64.json,827536,971274,25,Woman
14,830612,DepthScenes,duration_manipulation_targetAtFixation,jsons/v1_VE1000_randls_64.json,http://54.235.29.9/FacialAge/BNav_EC2/DepthDuration/v2_depth_duration_MTurk/v2_DepthDuration_HTML.html#88,88,1366,768,1366,768,8-22-2022,8-59-39,15,depth_duration_stimuli/000749_2014-06-08_21-55-06_260595134347_rgbf000070-resize_2/000749_2014-06-08_21-55-06_260595134347_rgbf000070-resize_2-target.png,1000,2.331,3,6778,873,meters,jsons/v1_VE1000_randls_64.json,827536,971274,25,Woman
15,830612,DepthScenes,duration_manipulation_targetAtFixation,jsons/v1_VE1000_randls_64.json,http://54.235.29.9/FacialAge/BNav_EC2/DepthDuration/v2_depth_duration_MTurk/v2_DepthDuration_HTML.html#88,88,1366,768,1366,768,8-22-2022,8-59-39,16,depth_duration_stimuli/002989_2014-06-15_12-25-03_094959634447_rgbf000150-resize_3/002989_2014-06-15_12-25-03_094959634447_rgbf000150-resize_3-target.png,1000,4.1975,2,4966,981,meters,jsons/v1_VE1000_randls_64.json,827536,971274,25,Woman
16,830612,DepthScenes,duration_manipulation_targetAtFixation,jsons/v1_VE1000_randls_64.json,http://54.235.29.9/FacialAge/BNav_EC2/DepthDuration/v2_depth_duration_MTurk/v2_DepthDuration_HTML.html#88,88,1366,768,1366,768,8-22-2022,8-59-39,17,depth_duration_stimuli/000866_2014-06-09_20-45-42_260595134347_rgbf000139-resize_1/000866_2014-06-09_20-45-42_260595134347_rgbf000139-resize_1-target.png,1000,3.2155,2,3976,986,meters,jsons/v1_VE1000_randls_64.json,827536,971274,25,Woman
17,830612,DepthScenes,duration_manipulation_targetAtFixation,jsons/v1_VE1000_randls_64.json,http://54.235.29.9/FacialAge/BNav_EC2/DepthDuration/v2_depth_duration_MTurk/v2_DepthDuration_HTML.html#88,88,1366,768,1366,768,8-22-2022,8-59-39,18,depth_duration_stimuli/002039_2014-06-24_20-22-38_260595134347_rgbf000084-resize_1/002039_2014-06-24_20-22-38_260595134347_rgbf000084-resize_1-target.png,1000,4.408,2,5251,1000,meters,jsons/v1_VE1000_randls_64.json,827536,971274,25,Woman
18,830612,DepthScenes,duration_manipulation_targetAtFixation,jsons/v1_VE1000_randls_64.json,http://54.235.29.9/FacialAge/BNav_EC2/DepthDuration/v2_depth_duration_MTurk/v2_DepthDuration_HTML.html#88,88,1366,768,1366,768,8-22-2022,8-59-39,19,depth_duration_stimuli/002103_2014-06-25_20-00-40_260595134347_rgbf000049-resize_0/002103_2014-06-25_20-00-40_260595134347_rgbf000049-resize_0-target.png,1000,4.105,4,4614,1002,meters,jsons/v1_VE1000_randls_64.json,827536,971274,25,Woman
19,830612,DepthScenes,duration_manipulation_targetAtFixation,jsons/v1_VE1000_randls_64.json,http://54.235.29.9/FacialAge/BNav_EC2/DepthDuration/v2_depth_duration_MTurk/v2_DepthDuration_HTML.html#88,88,1366,768,1366,768,8-22-2022,8-59-39,20,depth_duration_stimuli/001244_2014-06-17_16-47-45_260595134347_rgbf000030-resize_4/001244_2014-06-17_16-47-45_260595134347_rgbf000030-resize_4-target.png,1000,2.0425,2,4151,1002,meters,jsons/v1_VE1000_randls_64.json,827536,971274,25,Woman
20,830612,DepthScenes,duration_manipulation_targetAtFixation,jsons/v1_VE1000_randls_64.json,http://54.235.29.9/FacialAge/BNav_EC2/DepthDuration/v2_depth_duration_MTurk/v2_DepthDuration_HTML.html#88,88,1366,768,1366,768,8-22-2022,8-59-39,21,depth_duration_stimuli/003495_2014-05-21_16-01-51_094959634447_rgbf000100-resize_3/003495_2014-05-21_16-01-51_094959634447_rgbf000100-resize_3-target.png,1000,1.6255,2,3566,1076,meters,jsons/v1_VE1000_randls_64.json,827536,971274,25,Woman
21,830612,DepthScenes,duration_manipulation_targetAtFixation,jsons/v1_VE1000_randls_64.json,http://54.235.29.9/FacialAge/BNav_EC2/DepthDuration/v2_depth_duration_MTurk/v2_DepthDuration_HTML.html#88,88,1366,768,1366,768,8-22-2022,8-59-39,22,depth_duration_stimuli/001056_2014-06-08_18-46-44_260595134347_rgbf000068-resize_0/001056_2014-06-08_18-46-44_260595134347_rgbf000068-resize_0-target.png,1000,2.6625,2,4206,946,meters,jsons/v1_VE1000_randls_64.json,827536,971274,25,Woman
22,830612,DepthScenes,duration_manipulation_targetAtFixation,jsons/v1_VE1000_randls_64.json,http://54.235.29.9/FacialAge/BNav_EC2/DepthDuration/v2_depth_duration_MTurk/v2_DepthDuration_HTML.html#88,88,1366,768,1366,768,8-22-2022,8-59-39,23,depth_duration_stimuli/002199_2014-06-28_18-33-56_260595134347_rgbf000074-resize_0/002199_2014-06-28_18-33-56_260595134347_rgbf000074-resize_0-target.png,1000,1.996,2,3646,1022,meters,jsons/v1_VE1000_randls_64.json,827536,971274,25,Woman
23,830612,DepthScenes,duration_manipulation_targetAtFixation,jsons/v1_VE1000_randls_64.json,http://54.235.29.9/FacialAge/BNav_EC2/DepthDuration/v2_depth_duration_MTurk/v2_DepthDuration_HTML.html#88,88,1366,768,1366,768,8-22-2022,8-59-39,24,depth_duration_stimuli/002509_2014-06-24_13-19-22_094959634447_rgbf000077-resize_0/002509_2014-06-24_13-19-22_094959634447_rgbf000077-resize_0-target.png,1000,1.3065,2,3907,958,meters,jsons/v1_VE1000_randls_64.json,827536,971274,25,Woman
24,830612,DepthScenes,duration_manipulation_targetAtFixation,jsons/v1_VE1000_randls_64.json,http://54.235.29.9/FacialAge/BNav_EC2/DepthDuration/v2_depth_duration_MTurk/v2_DepthDuration_HTML.html#88,88,1366,768,1366,768,8-22-2022,8-59-39,25,depth_duration_stimuli/003338_2014-05-20_11-01-23_094959634447_rgbf000051-resize_6/003338_2014-05-20_11-01-23_094959634447_rgbf000051-resize_6-target.png,1000,1.693,3,5336,1001,meters,jsons/v1_VE1000_randls_64.json,827536,971274,25,Woman
25,830612,DepthScenes,duration_manipulation_targetAtFixation,jsons/v1_VE1000_randls_64.json,http://54.235.29.9/FacialAge/BNav_EC2/DepthDuration/v2_depth_duration_MTurk/v2_DepthDuration_HTML.html#88,88,1366,768,1366,768,8-22-2022,8-59-39,26,depth_duration_stimuli/000642_2014-06-08_16-59-25_260595134347_rgbf000098-resize_2/000642_2014-06-08_16-59-25_260595134347_rgbf000098-resize_2-target.png,1000,2.8815,3,5505,974,meters,jsons/v1_VE1000_randls_64.json,827536,971274,25,Woman
26,830612,DepthScenes,duration_manipulation_targetAtFixation,jsons/v1_VE1000_randls_64.json,http://54.235.29.9/FacialAge/BNav_EC2/DepthDuration/v2_depth_duration_MTurk/v2_DepthDuration_HTML.html#88,88,1366,768,1366,768,8-22-2022,8-59-39,27,depth_duration_stimuli/002425_2014-06-28_20-27-29_260595134347_rgbf000031-resize_8/002425_2014-06-28_20-27-29_260595134347_rgbf000031-resize_8-target.png,1000,3.8960000000000004,2,4620,999,meters,jsons/v1_VE1000_randls_64.json,827536,971274,25,Woman
27,830612,DepthScenes,duration_manipulation_targetAtFixation,jsons/v1_VE1000_randls_64.json,http://54.235.29.9/FacialAge/BNav_EC2/DepthDuration/v2_depth_duration_MTurk/v2_DepthDuration_HTML.html#88,88,1366,768,1366,768,8-22-2022,8-59-39,28,depth_duration_stimuli/003070_2014-06-15_14-58-27_094959634447_rgbf000150-resize_3/003070_2014-06-15_14-58-27_094959634447_rgbf000150-resize_3-target.png,1000,2.9415,2,3749,995,meters,jsons/v1_VE1000_randls_64.json,827536,971274,25,Woman
28,830612,DepthScenes,duration_manipulation_targetAtFixation,jsons/v1_VE1000_randls_64.json,http://54.235.29.9/FacialAge/BNav_EC2/DepthDuration/v2_depth_duration_MTurk/v2_DepthDuration_HTML.html#88,88,1366,768,1366,768,8-22-2022,8-59-39,29,depth_duration_stimuli/000943_2014-06-09_19-31-07_260595134347_rgbf000128-resize_1/000943_2014-06-09_19-31-07_260595134347_rgbf000128-resize_1-target.png,1000,1.9765,2,3459,999,meters,jsons/v1_VE1000_randls_64.json,827536,971274,25,Woman
29,830612,DepthScenes,duration_manipulation_targetAtFixation,jsons/v1_VE1000_randls_64.json,http://54.235.29.9/FacialAge/BNav_EC2/DepthDuration/v2_depth_duration_MTurk/v2_DepthDuration_HTML.html#88,88,1366,768,1366,768,8-22-2022,8-59-39,30,depth_duration_stimuli/000375_2014-06-08_11-17-29_260595134347_rgbf000133-resize_2/000375_2014-06-08_11-17-29_260595134347_rgbf000133-resize-original.jpg,1000,4.718,2,5738,994,meters,jsons/v1_VE1000_randls_64.json,827536,971274,25,Woman
30,830612,DepthScenes,duration_manipulation_targetAtFixation,jsons/v1_VE1000_randls_64.json,http://54.235.29.9/FacialAge/BNav_EC2/DepthDuration/v2_depth_duration_MTurk/v2_DepthDuration_HTML.html#88,88,1366,768,1366,768,8-22-2022,8-59-39,31,depth_duration_stimuli/000929_2014-06-09_16-33-19_260595134347_rgbf000139-resize_0/000929_2014-06-09_16-33-19_260595134347_rgbf000139-resize_0-target.png,1000,2.8680000000000003,2,4777,998,meters,jsons/v1_VE1000_randls_64.json,827536,971274,25,Woman
31,830612,DepthScenes,duration_manipulation_targetAtFixation,jsons/v1_VE1000_randls_64.json,http://54.235.29.9/FacialAge/BNav_EC2/DepthDuration/v2_depth_duration_MTurk/v2_DepthDuration_HTML.html#88,88,1366,768,1366,768,8-22-2022,8-59-39,32,depth_duration_stimuli/000457_2014-06-08_16-52-43_260595134347_rgbf000199-resize_1/000457_2014-06-08_16-52-43_260595134347_rgbf000199-resize_1-target.png,1000,3.6489999999999996,2,5286,1002,meters,jsons/v1_VE1000_randls_64.json,827536,971274,25,Woman
32,830612,DepthScenes,duration_manipulation_targetAtFixation,jsons/v1_VE1000_randls_64.json,http://54.235.29.9/FacialAge/BNav_EC2/DepthDuration/v2_depth_duration_MTurk/v2_DepthDuration_HTML.html#88,88,1366,768,1366,768,8-22-2022,8-59-39,33,depth_duration_stimuli/000878_2014-06-08_22-52-45_260595134347_rgbf000045-resize_2/000878_2014-06-08_22-52-45_260595134347_rgbf000045-resize_2-target.png,1000,2.092,2,6591,984,meters,jsons/v1_VE1000_randls_64.json,827536,971274,25,Woman
33,830612,DepthScenes,duration_manipulation_targetAtFixation,jsons/v1_VE1000_randls_64.json,http://54.235.29.9/FacialAge/BNav_EC2/DepthDuration/v2_depth_duration_MTurk/v2_DepthDuration_HTML.html#88,88,1366,768,1366,768,8-22-2022,8-59-39,34,depth_duration_stimuli/002953_2014-06-08_17-32-18_094959634447_rgbf000059-resize_5/002953_2014-06-08_17-32-18_094959634447_rgbf000059-resize_5-target.png,1000,1.551,2,4757,1004,meters,jsons/v1_VE1000_randls_64.json,827536,971274,25,Woman
34,830612,DepthScenes,duration_manipulation_targetAtFixation,jsons/v1_VE1000_randls_64.json,http://54.235.29.9/FacialAge/BNav_EC2/DepthDuration/v2_depth_duration_MTurk/v2_DepthDuration_HTML.html#88,88,1366,768,1366,768,8-22-2022,8-59-39,35,depth_duration_stimuli/000493_2014-06-09_21-01-18_260595134347_rgbf000196-resize_3/000493_2014-06-09_21-01-18_260595134347_rgbf000196-resize_3-target.png,1000,3.44,3,4695,993,meters,jsons/v1_VE1000_randls_64.json,827536,971274,25,Woman
35,830612,DepthScenes,duration_manipulation_targetAtFixation,jsons/v1_VE1000_randls_64.json,http://54.235.29.9/FacialAge/BNav_EC2/DepthDuration/v2_depth_duration_MTurk/v2_DepthDuration_HTML.html#88,88,1366,768,1366,768,8-22-2022,8-59-39,36,depth_duration_stimuli/000191_2014-05-12_17-07-38_260595134347_rgbf000199-resize_0/000191_2014-05-12_17-07-38_260595134347_rgbf000199-resize_0-target.png,1000,3.7995,2,5990,1001,meters,jsons/v1_VE1000_randls_64.json,827536,971274,25,Woman
36,830612,DepthScenes,duration_manipulation_targetAtFixation,jsons/v1_VE1000_randls_64.json,http://54.235.29.9/FacialAge/BNav_EC2/DepthDuration/v2_depth_duration_MTurk/v2_DepthDuration_HTML.html#88,88,1366,768,1366,768,8-22-2022,8-59-39,37,depth_duration_stimuli/001808_2014-06-26_20-50-58_260595134347_rgbf000029-resize_1/001808_2014-06-26_20-50-58_260595134347_rgbf000029-resize_1-target.png,1000,4.249,3,6464,995,meters,jsons/v1_VE1000_randls_64.json,827536,971274,25,Woman
37,830612,DepthScenes,duration_manipulation_targetAtFixation,jsons/v1_VE1000_randls_64.json,http://54.235.29.9/FacialAge/BNav_EC2/DepthDuration/v2_depth_duration_MTurk/v2_DepthDuration_HTML.html#88,88,1366,768,1366,768,8-22-2022,8-59-39,38,depth_duration_stimuli/001815_2014-06-26_20-52-55_260595134347_rgbf000020-resize_0/001815_2014-06-26_20-52-55_260595134347_rgbf000020-resize_0-target.png,1000,3.3865,2,4290,957,meters,jsons/v1_VE1000_randls_64.json,827536,971274,25,Woman
38,830612,DepthScenes,duration_manipulation_targetAtFixation,jsons/v1_VE1000_randls_64.json,http://54.235.29.9/FacialAge/BNav_EC2/DepthDuration/v2_depth_duration_MTurk/v2_DepthDuration_HTML.html#88,88,1366,768,1366,768,8-22-2022,8-59-39,39,depth_duration_stimuli/003492_2014-05-21_15-50-55_094959634447_rgbf000828-resize_1/003492_2014-05-21_15-50-55_094959634447_rgbf000828-resize_1-target.png,1000,4.06875,2,4203,975,meters,jsons/v1_VE1000_randls_64.json,827536,971274,25,Woman
39,830612,DepthScenes,duration_manipulation_targetAtFixation,jsons/v1_VE1000_randls_64.json,http://54.235.29.9/FacialAge/BNav_EC2/DepthDuration/v2_depth_duration_MTurk/v2_DepthDuration_HTML.html#88,88,1366,768,1366,768,8-22-2022,8-59-39,40,depth_duration_stimuli/002568_2014-06-24_13-59-21_094959634447_rgbf000062-resize_4/002568_2014-06-24_13-59-21_094959634447_rgbf000062-resize_4-target.png,1000,3.015,2,4630,998,meters,jsons/v1_VE1000_randls_64.json,827536,971274,25,Woman
40,830612,DepthScenes,duration_manipulation_targetAtFixation,jsons/v1_VE1000_randls_64.json,http://54.235.29.9/FacialAge/BNav_EC2/DepthDuration/v2_depth_duration_MTurk/v2_DepthDuration_HTML.html#88,88,1366,768,1366,768,8-22-2022,8-59-39,41,depth_duration_stimuli/001029_2014-06-08_13-17-57_260595134347_rgbf000065-resize_1/001029_2014-06-08_13-17-57_260595134347_rgbf000065-resize_1-target.png,1000,3.0835,2,8737,1001,meters,jsons/v1_VE1000_randls_64.json,827536,971274,25,Woman
41,830612,DepthScenes,duration_manipulation_targetAtFixation,jsons/v1_VE1000_randls_64.json,http://54.235.29.9/FacialAge/BNav_EC2/DepthDuration/v2_depth_duration_MTurk/v2_DepthDuration_HTML.html#88,88,1366,768,1366,768,8-22-2022,8-59-39,42,depth_duration_stimuli/000677_2014-06-08_23-10-32_260595134347_rgbf000158-resize_6/000677_2014-06-08_23-10-32_260595134347_rgbf000158-resize_6-target.png,1000,3.556,2,5051,1042,meters,jsons/v1_VE1000_randls_64.json,827536,971274,25,Woman
42,830612,DepthScenes,duration_manipulation_targetAtFixation,jsons/v1_VE1000_randls_64.json,http://54.235.29.9/FacialAge/BNav_EC2/DepthDuration/v2_depth_duration_MTurk/v2_DepthDuration_HTML.html#88,88,1366,768,1366,768,8-22-2022,8-59-39,43,depth_duration_stimuli/002748_2014-06-22_19-07-22_094959634447_rgbf000078-resize_1/002748_2014-06-22_19-07-22_094959634447_rgbf000078-resize_1-target.png,1000,4.6705,3,5366,1000,meters,jsons/v1_VE1000_randls_64.json,827536,971274,25,Woman
43,830612,DepthScenes,duration_manipulation_targetAtFixation,jsons/v1_VE1000_randls_64.json,http://54.235.29.9/FacialAge/BNav_EC2/DepthDuration/v2_depth_duration_MTurk/v2_DepthDuration_HTML.html#88,88,1366,768,1366,768,8-22-2022,8-59-39,44,depth_duration_stimuli/002995_2014-06-15_12-31-26_094959634447_rgbf000150-resize_1/002995_2014-06-15_12-31-26_094959634447_rgbf000150-resize_1-target.png,1000,3.8360000000000003,2,5937,1002,meters,jsons/v1_VE1000_randls_64.json,827536,971274,25,Woman
44,830612,DepthScenes,duration_manipulation_targetAtFixation,jsons/v1_VE1000_randls_64.json,http://54.235.29.9/FacialAge/BNav_EC2/DepthDuration/v2_depth_duration_MTurk/v2_DepthDuration_HTML.html#88,88,1366,768,1366,768,8-22-2022,8-59-39,45,depth_duration_stimuli/000787_2014-06-08_22-33-53_260595134347_rgbf000175-resize_1/000787_2014-06-08_22-33-53_260595134347_rgbf000175-resize-original.jpg,1000,4.784,2,5184,995,meters,jsons/v1_VE1000_randls_64.json,827536,971274,25,Woman
45,830612,DepthScenes,duration_manipulation_targetAtFixation,jsons/v1_VE1000_randls_64.json,http://54.235.29.9/FacialAge/BNav_EC2/DepthDuration/v2_depth_duration_MTurk/v2_DepthDuration_HTML.html#88,88,1366,768,1366,768,8-22-2022,8-59-39,46,depth_duration_stimuli/001417_2014-06-19_16-25-36_260595134347_rgbf000115-resize_5/001417_2014-06-19_16-25-36_260595134347_rgbf000115-resize_5-target.png,1000,4.6255,3,4614,998,meters,jsons/v1_VE1000_randls_64.json,827536,971274,25,Woman
46,830612,DepthScenes,duration_manipulation_targetAtFixation,jsons/v1_VE1000_randls_64.json,http://54.235.29.9/FacialAge/BNav_EC2/DepthDuration/v2_depth_duration_MTurk/v2_DepthDuration_HTML.html#88,88,1366,768,1366,768,8-22-2022,8-59-39,47,depth_duration_stimuli/003081_2014-06-15_15-19-16_094959634447_rgbf000150-resize_1/003081_2014-06-15_15-19-16_094959634447_rgbf000150-resize_1-target.png,1000,3.9125,2,4458,987,meters,jsons/v1_VE1000_randls_64.json,827536,971274,25,Woman
47,830612,DepthScenes,duration_manipulation_targetAtFixation,jsons/v1_VE1000_randls_64.json,http://54.235.29.9/FacialAge/BNav_EC2/DepthDuration/v2_depth_duration_MTurk/v2_DepthDuration_HTML.html#88,88,1366,768,1366,768,8-22-2022,8-59-39,48,depth_duration_stimuli/002272_2014-06-28_18-53-56_260595134347_rgbf000067-resize_2/002272_2014-06-28_18-53-56_260595134347_rgbf000067-resize_2-target.png,1000,1.138,2,6749,993,meters,jsons/v1_VE1000_randls_64.json,827536,971274,25,Woman
48,830612,DepthScenes,duration_manipulation_targetAtFixation,jsons/v1_VE1000_randls_64.json,http://54.235.29.9/FacialAge/BNav_EC2/DepthDuration/v2_depth_duration_MTurk/v2_DepthDuration_HTML.html#88,88,1366,768,1366,768,8-22-2022,8-59-39,49,depth_duration_stimuli/001571_2014-06-20_17-21-32_260595134347_rgbf000089-resize_1/001571_2014-06-20_17-21-32_260595134347_rgbf000089-resize_1-target.png,1000,1.86,2,4566,990,meters,jsons/v1_VE1000_randls_64.json,827536,971274,25,Woman
49,830612,DepthScenes,duration_manipulation_targetAtFixation,jsons/v1_VE1000_randls_64.json,http://54.235.29.9/FacialAge/BNav_EC2/DepthDuration/v2_depth_duration_MTurk/v2_DepthDuration_HTML.html#88,88,1366,768,1366,768,8-22-2022,8-59-39,50,depth_duration_stimuli/001016_2014-06-09_16-16-10_260595134347_rgbf000112-resize_5/001016_2014-06-09_16-16-10_260595134347_rgbf000112-resize_5-target.png,1000,1.6565,2,6314,998,meters,jsons/v1_VE1000_randls_64.json,827536,971274,25,Woman
50,830612,DepthScenes,duration_manipulation_targetAtFixation,jsons/v1_VE1000_randls_64.json,http://54.235.29.9/FacialAge/BNav_EC2/DepthDuration/v2_depth_duration_MTurk/v2_DepthDuration_HTML.html#88,88,1366,768,1366,768,8-22-2022,8-59-39,51,depth_duration_stimuli/002340_2014-06-28_20-05-46_260595134347_rgbf000113-resize_0/002340_2014-06-28_20-05-46_260595134347_rgbf000113-resize_0-target.png,1000,2.4735,2,6894,981,meters,jsons/v1_VE1000_randls_64.json,827536,971274,25,Woman
51,830612,DepthScenes,duration_manipulation_targetAtFixation,jsons/v1_VE1000_randls_64.json,http://54.235.29.9/FacialAge/BNav_EC2/DepthDuration/v2_depth_duration_MTurk/v2_DepthDuration_HTML.html#88,88,1366,768,1366,768,8-22-2022,8-59-39,52,depth_duration_stimuli/001555_2014-06-20_17-12-10_260595134347_rgbf000065-resize_4/001555_2014-06-20_17-12-10_260595134347_rgbf000065-resize_4-target.png,1000,1.633,2,2763,1009,meters,jsons/v1_VE1000_randls_64.json,827536,971274,25,Woman
52,830612,DepthScenes,duration_manipulation_targetAtFixation,jsons/v1_VE1000_randls_64.json,http://54.235.29.9/FacialAge/BNav_EC2/DepthDuration/v2_depth_duration_MTurk/v2_DepthDuration_HTML.html#88,88,1366,768,1366,768,8-22-2022,8-59-39,53,depth_duration_stimuli/000103_2014-05-14_22-01-17_260595134347_rgbf000152-resize_5/000103_2014-05-14_22-01-17_260595134347_rgbf000152-resize_5-target.png,1000,1.993,3,2240,988,meters,jsons/v1_VE1000_randls_64.json,827536,971274,25,Woman
53,830612,DepthScenes,duration_manipulation_targetAtFixation,jsons/v1_VE1000_randls_64.json,http://54.235.29.9/FacialAge/BNav_EC2/DepthDuration/v2_depth_duration_MTurk/v2_DepthDuration_HTML.html#88,88,1366,768,1366,768,8-22-2022,8-59-39,54,depth_duration_stimuli/001199_2014-06-17_16-03-48_260595134347_rgbf000077-resize_0/001199_2014-06-17_16-03-48_260595134347_rgbf000077-resize_0-target.png,1000,3.4375,1,2701,1002,meters,jsons/v1_VE1000_randls_64.json,827536,971274,25,Woman
54,830612,DepthScenes,duration_manipulation_targetAtFixation,jsons/v1_VE1000_randls_64.json,http://54.235.29.9/FacialAge/BNav_EC2/DepthDuration/v2_depth_duration_MTurk/v2_DepthDuration_HTML.html#88,88,1366,768,1366,768,8-22-2022,8-59-39,55,depth_duration_stimuli/000502_2014-06-08_23-02-32_260595134347_rgbf000063-resize_4/000502_2014-06-08_23-02-32_260595134347_rgbf000063-resize_4-target.png,1000,2.431,1,2723,998,meters,jsons/v1_VE1000_randls_64.json,827536,971274,25,Woman
55,830612,DepthScenes,duration_manipulation_targetAtFixation,jsons/v1_VE1000_randls_64.json,http://54.235.29.9/FacialAge/BNav_EC2/DepthDuration/v2_depth_duration_MTurk/v2_DepthDuration_HTML.html#88,88,1366,768,1366,768,8-22-2022,8-59-39,56,depth_duration_stimuli/001167_2014-06-17_15-38-07_260595134347_rgbf000108-resize_0/001167_2014-06-17_15-38-07_260595134347_rgbf000108-resize_0-target.png,1000,1.8505,32,2911,993,meters,jsons/v1_VE1000_randls_64.json,827536,971274,25,Woman
56,830612,DepthScenes,duration_manipulation_targetAtFixation,jsons/v1_VE1000_randls_64.json,http://54.235.29.9/FacialAge/BNav_EC2/DepthDuration/v2_depth_duration_MTurk/v2_DepthDuration_HTML.html#88,88,1366,768,1366,768,8-22-2022,8-59-39,57,depth_duration_stimuli/003587_2014-05-23_16-48-02_094959634447_rgbf002384-resize_2/003587_2014-05-23_16-48-02_094959634447_rgbf002384-resize_2-target.png,1000,1.357,3,2790,999,meters,jsons/v1_VE1000_randls_64.json,827536,971274,25,Woman
57,830612,DepthScenes,duration_manipulation_targetAtFixation,jsons/v1_VE1000_randls_64.json,http://54.235.29.9/FacialAge/BNav_EC2/DepthDuration/v2_depth_duration_MTurk/v2_DepthDuration_HTML.html#88,88,1366,768,1366,768,8-22-2022,8-59-39,58,depth_duration_stimuli/002763_2014-06-22_19-13-10_094959634447_rgbf000075-resize_4/002763_2014-06-22_19-13-10_094959634447_rgbf000075-resize_4-target.png,1000,1.68375,4,2695,993,meters,jsons/v1_VE1000_randls_64.json,827536,971274,25,Woman
58,830612,DepthScenes,duration_manipulation_targetAtFixation,jsons/v1_VE1000_randls_64.json,http://54.235.29.9/FacialAge/BNav_EC2/DepthDuration/v2_depth_duration_MTurk/v2_DepthDuration_HTML.html#88,88,1366,768,1366,768,8-22-2022,8-59-39,59,depth_duration_stimuli/002209_2014-06-28_18-36-10_260595134347_rgbf000051-resize_1/002209_2014-06-28_18-36-10_260595134347_rgbf000051-resize_1-target.png,1000,2.057,2,6045,997,meters,jsons/v1_VE1000_randls_64.json,827536,971274,25,Woman
59,830612,DepthScenes,duration_manipulation_targetAtFixation,jsons/v1_VE1000_randls_64.json,http://54.235.29.9/FacialAge/BNav_EC2/DepthDuration/v2_depth_duration_MTurk/v2_DepthDuration_HTML.html#88,88,1366,768,1366,768,8-22-2022,8-59-39,60,depth_duration_stimuli/002043_2014-06-24_20-29-38_260595134347_rgbf000039-resize_4/002043_2014-06-24_20-29-38_260595134347_rgbf000039-resize_4-target.png,1000,2.8435,4,3353,1001,meters,jsons/v1_VE1000_randls_64.json,827536,971274,25,Woman
60,830612,DepthScenes,duration_manipulation_targetAtFixation,jsons/v1_VE1000_randls_64.json,http://54.235.29.9/FacialAge/BNav_EC2/DepthDuration/v2_depth_duration_MTurk/v2_DepthDuration_HTML.html#88,88,1366,768,1366,768,8-22-2022,8-59-39,61,depth_duration_stimuli/003048_2014-06-15_13-49-43_094959634447_rgbf000150-resize_1/003048_2014-06-15_13-49-43_094959634447_rgbf000150-resize_1-target.png,1000,4.0035,5,2754,1000,meters,jsons/v1_VE1000_randls_64.json,827536,971274,25,Woman
61,830612,DepthScenes,duration_manipulation_targetAtFixation,jsons/v1_VE1000_randls_64.json,http://54.235.29.9/FacialAge/BNav_EC2/DepthDuration/v2_depth_duration_MTurk/v2_DepthDuration_HTML.html#88,88,1366,768,1366,768,8-22-2022,8-59-39,62,depth_duration_stimuli/000470_2014-06-09_19-42-40_260595134347_rgbf000094-resize_1/000470_2014-06-09_19-42-40_260595134347_rgbf000094-resize_1-target.png,1000,1.831,2,2641,1004,meters,jsons/v1_VE1000_randls_64.json,827536,971274,25,Woman
62,830612,DepthScenes,duration_manipulation_targetAtFixation,jsons/v1_VE1000_randls_64.json,http://54.235.29.9/FacialAge/BNav_EC2/DepthDuration/v2_depth_duration_MTurk/v2_DepthDuration_HTML.html#88,88,1366,768,1366,768,8-22-2022,8-59-39,63,depth_duration_stimuli/000109_2014-05-14_23-41-52_260595134347_rgbf000035-resize_9/000109_2014-05-14_23-41-52_260595134347_rgbf000035-resize_9-target.png,1000,1.3545,3,2707,999,meters,jsons/v1_VE1000_randls_64.json,827536,971274,25,Woman
63,830612,DepthScenes,duration_manipulation_targetAtFixation,jsons/v1_VE1000_randls_64.json,http://54.235.29.9/FacialAge/BNav_EC2/DepthDuration/v2_depth_duration_MTurk/v2_DepthDuration_HTML.html#88,88,1366,768,1366,768,8-22-2022,8-59-39,64,depth_duration_stimuli/003621_2014-05-23_18-06-08_094959634447_rgbf000101-resize_1/003621_2014-05-23_18-06-08_094959634447_rgbf000101-resize_1-target.png,1000,3.9835,1,2791,1016,meters,jsons/v1_VE1000_randls_64.json,827536,971274,25,Woman
64,830612,DepthScenes,duration_manipulation_targetAtFixation,jsons/v1_VE1000_randls_64.json,http://54.235.29.9/FacialAge/BNav_EC2/DepthDuration/v2_depth_duration_MTurk/v2_DepthDuration_HTML.html#88,88,1366,768,1366,768,8-22-2022,8-59-39,65,depth_duration_stimuli/001584_2014-06-20_11-07-43_260595134347_rgbf000002-resize_1/001584_2014-06-20_11-07-43_260595134347_rgbf000002-resize_1-target.png,1000,3.53,4,3739,991,meters,jsons/v1_VE1000_randls_64.json,827536,971274,25,Woman
65,830612,DepthScenes,duration_manipulation_targetAtFixation,jsons/v1_VE1000_randls_64.json,http://54.235.29.9/FacialAge/BNav_EC2/DepthDuration/v2_depth_duration_MTurk/v2_DepthDuration_HTML.html#88,88,1366,768,1366,768,8-22-2022,8-59-39,66,depth_duration_stimuli/001222_2014-06-17_16-24-06_260595134347_rgbf000073-resize_0/001222_2014-06-17_16-24-06_260595134347_rgbf000073-resize-original.jpg,1000,1.4385,5,3292,1001,meters,jsons/v1_VE1000_randls_64.json,827536,971274,25,Woman
66,830612,DepthScenes,duration_manipulation_targetAtFixation,jsons/v1_VE1000_randls_64.json,http://54.235.29.9/FacialAge/BNav_EC2/DepthDuration/v2_depth_duration_MTurk/v2_DepthDuration_HTML.html#88,88,1366,768,1366,768,8-22-2022,8-59-39,67,depth_duration_stimuli/001810_2014-06-26_20-51-35_260595134347_rgbf000040-resize_3/001810_2014-06-26_20-51-35_260595134347_rgbf000040-resize_3-target.png,1000,2.2525,1,2726,995,meters,jsons/v1_VE1000_randls_64.json,827536,971274,25,Woman
67,830612,DepthScenes,duration_manipulation_targetAtFixation,jsons/v1_VE1000_randls_64.json,http://54.235.29.9/FacialAge/BNav_EC2/DepthDuration/v2_depth_duration_MTurk/v2_DepthDuration_HTML.html#88,88,1366,768,1366,768,8-22-2022,8-59-39,68,depth_duration_stimuli/003010_2014-06-15_12-54-35_094959634447_rgbf000112-resize_0/003010_2014-06-15_12-54-35_094959634447_rgbf000112-resize_0-target.png,1000,3.1185,2,3894,997,meters,jsons/v1_VE1000_randls_64.json,827536,971274,25,Woman
68,830612,DepthScenes,duration_manipulation_targetAtFixation,jsons/v1_VE1000_randls_64.json,http://54.235.29.9/FacialAge/BNav_EC2/DepthDuration/v2_depth_duration_MTurk/v2_DepthDuration_HTML.html#88,88,1366,768,1366,768,8-22-2022,8-59-39,69,depth_duration_stimuli/000739_2014-06-08_18-45-58_260595134347_rgbf000068-resize_1/000739_2014-06-08_18-45-58_260595134347_rgbf000068-resize_1-target.png,1000,3.534,3,2731,1015,meters,jsons/v1_VE1000_randls_64.json,827536,971274,25,Woman
69,830612,DepthScenes,duration_manipulation_targetAtFixation,jsons/v1_VE1000_randls_64.json,http://54.235.29.9/FacialAge/BNav_EC2/DepthDuration/v2_depth_duration_MTurk/v2_DepthDuration_HTML.html#88,88,1366,768,1366,768,8-22-2022,8-59-39,70,depth_duration_stimuli/000734_2014-06-08_17-39-11_260595134347_rgbf000128-resize_2/000734_2014-06-08_17-39-11_260595134347_rgbf000128-resize_2-target.png,1000,4.098,4,2588,983,meters,jsons/v1_VE1000_randls_64.json,827536,971274,25,Woman
70,830612,DepthScenes,duration_manipulation_targetAtFixation,jsons/v1_VE1000_randls_64.json,http://54.235.29.9/FacialAge/BNav_EC2/DepthDuration/v2_depth_duration_MTurk/v2_DepthDuration_HTML.html#88,88,1366,768,1366,768,8-22-2022,8-59-39,71,depth_duration_stimuli/000736_2014-06-08_18-24-15_260595134347_rgbf000206-resize_3/000736_2014-06-08_18-24-15_260595134347_rgbf000206-resize_3-target.png,1000,3.515,5,2658,1028,meters,jsons/v1_VE1000_randls_64.json,827536,971274,25,Woman
71,830612,DepthScenes,duration_manipulation_targetAtFixation,jsons/v1_VE1000_randls_64.json,http://54.235.29.9/FacialAge/BNav_EC2/DepthDuration/v2_depth_duration_MTurk/v2_DepthDuration_HTML.html#88,88,1366,768,1366,768,8-22-2022,8-59-39,72,depth_duration_stimuli/000137_2014-05-20_17-04-49_260595134347_rgbf000120-resize_1/000137_2014-05-20_17-04-49_260595134347_rgbf000120-resize_1-target.png,1000,3.786,1,3543,1096,meters,jsons/v1_VE1000_randls_64.json,827536,971274,25,Woman
72,830612,DepthScenes,duration_manipulation_targetAtFixation,jsons/v1_VE1000_randls_64.json,http://54.235.29.9/FacialAge/BNav_EC2/DepthDuration/v2_depth_duration_MTurk/v2_DepthDuration_HTML.html#88,88,1366,768,1366,768,8-22-2022,8-59-39,73,depth_duration_stimuli/001066_2014-06-08_22-03-20_260595134347_rgbf000066-resize_4/001066_2014-06-08_22-03-20_260595134347_rgbf000066-resize_4-target.png,1000,4.2330000000000005,2,2898,998,meters,jsons/v1_VE1000_randls_64.json,827536,971274,25,Woman
73,830612,DepthScenes,duration_manipulation_targetAtFixation,jsons/v1_VE1000_randls_64.json,http://54.235.29.9/FacialAge/BNav_EC2/DepthDuration/v2_depth_duration_MTurk/v2_DepthDuration_HTML.html#88,88,1366,768,1366,768,8-22-2022,8-59-39,74,depth_duration_stimuli/000742_2014-06-08_18-48-09_260595134347_rgbf000164-resize_4/000742_2014-06-08_18-48-09_260595134347_rgbf000164-resize_4-target.png,1000,4.632,3,2482,975,meters,jsons/v1_VE1000_randls_64.json,827536,971274,25,Woman
74,830612,DepthScenes,duration_manipulation_targetAtFixation,jsons/v1_VE1000_randls_64.json,http://54.235.29.9/FacialAge/BNav_EC2/DepthDuration/v2_depth_duration_MTurk/v2_DepthDuration_HTML.html#88,88,1366,768,1366,768,8-22-2022,8-59-39,75,depth_duration_stimuli/001055_2014-06-08_18-45-35_260595134347_rgbf000111-resize_4/001055_2014-06-08_18-45-35_260595134347_rgbf000111-resize_4-target.png,1000,2.4290000000000003,2,12207,997,meters,jsons/v1_VE1000_randls_64.json,827536,971274,25,Woman
75,830612,DepthScenes,duration_manipulation_targetAtFixation,jsons/v1_VE1000_randls_64.json,http://54.235.29.9/FacialAge/BNav_EC2/DepthDuration/v2_depth_duration_MTurk/v2_DepthDuration_HTML.html#88,88,1366,768,1366,768,8-22-2022,8-59-39,76,depth_duration_stimuli/000549_2014-06-08_22-10-24_260595134347_rgbf000247-resize_3/000549_2014-06-08_22-10-24_260595134347_rgbf000247-resize_3-target.png,1000,1.841,2,7559,995,meters,jsons/v1_VE1000_randls_64.json,827536,971274,25,Woman
76,830612,DepthScenes,duration_manipulation_targetAtFixation,jsons/v1_VE1000_randls_64.json,http://54.235.29.9/FacialAge/BNav_EC2/DepthDuration/v2_depth_duration_MTurk/v2_DepthDuration_HTML.html#88,88,1366,768,1366,768,8-22-2022,8-59-39,77,depth_duration_stimuli/001164_2014-06-17_15-35-46_260595134347_rgbf000085-resize_3/001164_2014-06-17_15-35-46_260595134347_rgbf000085-resize_3-target.png,1000,2.354,2,3063,991,meters,jsons/v1_VE1000_randls_64.json,827536,971274,25,Woman
77,830612,DepthScenes,duration_manipulation_targetAtFixation,jsons/v1_VE1000_randls_64.json,http://54.235.29.9/FacialAge/BNav_EC2/DepthDuration/v2_depth_duration_MTurk/v2_DepthDuration_HTML.html#88,88,1366,768,1366,768,8-22-2022,8-59-39,78,depth_duration_stimuli/001136_2014-06-17_15-19-41_260595134347_rgbf000076-resize_3/001136_2014-06-17_15-19-41_260595134347_rgbf000076-resize_3-target.png,1000,1.8655,1,2879,1038,meters,jsons/v1_VE1000_randls_64.json,827536,971274,25,Woman
78,830612,DepthScenes,duration_manipulation_targetAtFixation,jsons/v1_VE1000_randls_64.json,http://54.235.29.9/FacialAge/BNav_EC2/DepthDuration/v2_depth_duration_MTurk/v2_DepthDuration_HTML.html#88,88,1366,768,1366,768,8-22-2022,8-59-39,79,depth_duration_stimuli/000810_2014-06-08_17-20-01_260595134347_rgbf000105-resize_0/000810_2014-06-08_17-20-01_260595134347_rgbf000105-resize_0-target.png,1000,1.4865,3,5663,978,meters,jsons/v1_VE1000_randls_64.json,827536,971274,25,Woman
79,830612,DepthScenes,duration_manipulation_targetAtFixation,jsons/v1_VE1000_randls_64.json,http://54.235.29.9/FacialAge/BNav_EC2/DepthDuration/v2_depth_duration_MTurk/v2_DepthDuration_HTML.html#88,88,1366,768,1366,768,8-22-2022,8-59-39,80,depth_duration_stimuli/001214_2014-06-17_16-13-55_260595134347_rgbf000111-resize_0/001214_2014-06-17_16-13-55_260595134347_rgbf000111-resize_0-target.png,1000,2.6505,5,2794,991,meters,jsons/v1_VE1000_randls_64.json,827536,971274,25,Woman
80,830612,DepthScenes,duration_manipulation_targetAtFixation,jsons/v1_VE1000_randls_64.json,http://54.235.29.9/FacialAge/BNav_EC2/DepthDuration/v2_depth_duration_MTurk/v2_DepthDuration_HTML.html#88,88,1366,768,1366,768,8-22-2022,8-59-39,81,depth_duration_stimuli/001092_2014-06-15_17-34-58_260595134347_rgbf000171-resize_3/001092_2014-06-15_17-34-58_260595134347_rgbf000171-resize_3-target.png,1000,2.6935,2,3139,999,meters,jsons/v1_VE1000_randls_64.json,827536,971274,25,Woman
81,830612,DepthScenes,duration_manipulation_targetAtFixation,jsons/v1_VE1000_randls_64.json,http://54.235.29.9/FacialAge/BNav_EC2/DepthDuration/v2_depth_duration_MTurk/v2_DepthDuration_HTML.html#88,88,1366,768,1366,768,8-22-2022,8-59-39,82,depth_duration_stimuli/002545_2014-06-24_13-38-53_094959634447_rgbf000080-resize_4/002545_2014-06-24_13-38-53_094959634447_rgbf000080-resize_4-target.png,1000,1.9205,1,2296,1000,meters,jsons/v1_VE1000_randls_64.json,827536,971274,25,Woman
82,830612,DepthScenes,duration_manipulation_targetAtFixation,jsons/v1_VE1000_randls_64.json,http://54.235.29.9/FacialAge/BNav_EC2/DepthDuration/v2_depth_duration_MTurk/v2_DepthDuration_HTML.html#88,88,1366,768,1366,768,8-22-2022,8-59-39,83,depth_duration_stimuli/000692_2014-06-08_13-09-42_260595134347_rgbf000199-resize_2/000692_2014-06-08_13-09-42_260595134347_rgbf000199-resize_2-target.png,1000,3.661,4,2589,1039,meters,jsons/v1_VE1000_randls_64.json,827536,971274,25,Woman
83,830612,DepthScenes,duration_manipulation_targetAtFixation,jsons/v1_VE1000_randls_64.json,http://54.235.29.9/FacialAge/BNav_EC2/DepthDuration/v2_depth_duration_MTurk/v2_DepthDuration_HTML.html#88,88,1366,768,1366,768,8-22-2022,8-59-39,84,depth_duration_stimuli/001094_2014-06-15_17-36-00_260595134347_rgbf000205-resize_0/001094_2014-06-15_17-36-00_260595134347_rgbf000205-resize_0-target.png,1000,4.2175,1,2297,1011,meters,jsons/v1_VE1000_randls_64.json,827536,971274,25,Woman
84,830612,DepthScenes,duration_manipulation_targetAtFixation,jsons/v1_VE1000_randls_64.json,http://54.235.29.9/FacialAge/BNav_EC2/DepthDuration/v2_depth_duration_MTurk/v2_DepthDuration_HTML.html#88,88,1366,768,1366,768,8-22-2022,8-59-39,85,depth_duration_stimuli/002570_2014-06-24_13-59-54_094959634447_rgbf000059-resize_0/002570_2014-06-24_13-59-54_094959634447_rgbf000059-resize_0-target.png,1000,4.037,2,2915,997,meters,jsons/v1_VE1000_randls_64.json,827536,971274,25,Woman
85,830612,DepthScenes,duration_manipulation_targetAtFixation,jsons/v1_VE1000_randls_64.json,http://54.235.29.9/FacialAge/BNav_EC2/DepthDuration/v2_depth_duration_MTurk/v2_DepthDuration_HTML.html#88,88,1366,768,1366,768,8-22-2022,8-59-39,86,depth_duration_stimuli/002467_2014-06-28_20-38-07_260595134347_rgbf000026-resize_2/002467_2014-06-28_20-38-07_260595134347_rgbf000026-resize_2-target.png,1000,4.742,3,2665,1000,meters,jsons/v1_VE1000_randls_64.json,827536,971274,25,Woman
86,830612,DepthScenes,duration_manipulation_targetAtFixation,jsons/v1_VE1000_randls_64.json,http://54.235.29.9/FacialAge/BNav_EC2/DepthDuration/v2_depth_duration_MTurk/v2_DepthDuration_HTML.html#88,88,1366,768,1366,768,8-22-2022,8-59-39,87,depth_duration_stimuli/000682_2014-06-08_23-14-58_260595134347_rgbf000041-resize_5/000682_2014-06-08_23-14-58_260595134347_rgbf000041-resize_5-target.png,1000,2.7239999999999998,4,3441,998,meters,jsons/v1_VE1000_randls_64.json,827536,971274,25,Woman
87,830612,DepthScenes,duration_manipulation_targetAtFixation,jsons/v1_VE1000_randls_64.json,http://54.235.29.9/FacialAge/BNav_EC2/DepthDuration/v2_depth_duration_MTurk/v2_DepthDuration_HTML.html#88,88,1366,768,1366,768,8-22-2022,8-59-39,88,depth_duration_stimuli/001650_2014-06-20_12-09-00_260595134347_rgbf000087-resize_3/001650_2014-06-20_12-09-00_260595134347_rgbf000087-resize_3-target.png,1000,1.9505,5,2704,1002,meters,jsons/v1_VE1000_randls_64.json,827536,971274,25,Woman
88,830612,DepthScenes,duration_manipulation_targetAtFixation,jsons/v1_VE1000_randls_64.json,http://54.235.29.9/FacialAge/BNav_EC2/DepthDuration/v2_depth_duration_MTurk/v2_DepthDuration_HTML.html#88,88,1366,768,1366,768,8-22-2022,8-59-39,89,depth_duration_stimuli/002153_2014-06-25_21-27-18_260595134347_rgbf000038-resize_5/002153_2014-06-25_21-27-18_260595134347_rgbf000038-resize_5-target.png,1000,2.505,1,2631,998,meters,jsons/v1_VE1000_randls_64.json,827536,971274,25,Woman
89,830612,DepthScenes,duration_manipulation_targetAtFixation,jsons/v1_VE1000_randls_64.json,http://54.235.29.9/FacialAge/BNav_EC2/DepthDuration/v2_depth_duration_MTurk/v2_DepthDuration_HTML.html#88,88,1366,768,1366,768,8-22-2022,8-59-39,90,depth_duration_stimuli/002660_2014-06-13_15-44-18_094959634447_rgbf001878-resize_2/002660_2014-06-13_15-44-18_094959634447_rgbf001878-resize_2-target.png,1000,3.576,2,2509,1005,meters,jsons/v1_VE1000_randls_64.json,827536,971274,25,Woman
90,830612,DepthScenes,duration_manipulation_targetAtFixation,jsons/v1_VE1000_randls_64.json,http://54.235.29.9/FacialAge/BNav_EC2/DepthDuration/v2_depth_duration_MTurk/v2_DepthDuration_HTML.html#88,88,1366,768,1366,768,8-22-2022,8-59-39,91,depth_duration_stimuli/000788_2014-06-08_22-34-36_260595134347_rgbf000131-resize_1/000788_2014-06-08_22-34-36_260595134347_rgbf000131-resize_1-target.png,1000,3.359,2,2743,996,meters,jsons/v1_VE1000_randls_64.json,827536,971274,25,Woman
91,830612,DepthScenes,duration_manipulation_targetAtFixation,jsons/v1_VE1000_randls_64.json,http://54.235.29.9/FacialAge/BNav_EC2/DepthDuration/v2_depth_duration_MTurk/v2_DepthDuration_HTML.html#88,88,1366,768,1366,768,8-22-2022,8-59-39,92,depth_duration_stimuli/001235_2014-06-17_16-37-36_260595134347_rgbf000084-resize_4/001235_2014-06-17_16-37-36_260595134347_rgbf000084-resize_4-target.png,1000,3.6605,2,8863,1003,meters,jsons/v1_VE1000_randls_64.json,827536,971274,25,Woman
92,830612,DepthScenes,duration_manipulation_targetAtFixation,jsons/v1_VE1000_randls_64.json,http://54.235.29.9/FacialAge/BNav_EC2/DepthDuration/v2_depth_duration_MTurk/v2_DepthDuration_HTML.html#88,88,1366,768,1366,768,8-22-2022,8-59-39,93,depth_duration_stimuli/002213_2014-06-28_18-37-58_260595134347_rgbf000055-resize_1/002213_2014-06-28_18-37-58_260595134347_rgbf000055-resize_1-target.png,1000,3.62,3,5327,996,meters,jsons/v1_VE1000_randls_64.json,827536,971274,25,Woman
93,830612,DepthScenes,duration_manipulation_targetAtFixation,jsons/v1_VE1000_randls_64.json,http://54.235.29.9/FacialAge/BNav_EC2/DepthDuration/v2_depth_duration_MTurk/v2_DepthDuration_HTML.html#88,88,1366,768,1366,768,8-22-2022,8-59-39,94,depth_duration_stimuli/000691_2014-06-08_13-08-50_260595134347_rgbf000132-resize_3/000691_2014-06-08_13-08-50_260595134347_rgbf000132-resize_3-target.png,1000,4.1530000000000005,5,2956,1010,meters,jsons/v1_VE1000_randls_64.json,827536,971274,25,Woman
94,830612,DepthScenes,duration_manipulation_targetAtFixation,jsons/v1_VE1000_randls_64.json,http://54.235.29.9/FacialAge/BNav_EC2/DepthDuration/v2_depth_duration_MTurk/v2_DepthDuration_HTML.html#88,88,1366,768,1366,768,8-22-2022,8-59-39,95,depth_duration_stimuli/002663_2014-06-13_15-50-26_094959634447_rgbf000075-resize_1/002663_2014-06-13_15-50-26_094959634447_rgbf000075-resize_1-target.png,1000,4.7495,2,2971,1003,meters,jsons/v1_VE1000_randls_64.json,827536,971274,25,Woman
95,830612,DepthScenes,duration_manipulation_targetAtFixation,jsons/v1_VE1000_randls_64.json,http://54.235.29.9/FacialAge/BNav_EC2/DepthDuration/v2_depth_duration_MTurk/v2_DepthDuration_HTML.html#88,88,1366,768,1366,768,8-22-2022,8-59-39,96,depth_duration_stimuli/000409_2014-06-04_19-23-33_260595134347_rgbf000067-resize_0/000409_2014-06-04_19-23-33_260595134347_rgbf000067-resize_0-target.png,1000,3.7335,2,2945,991,meters,jsons/v1_VE1000_randls_64.json,827536,971274,25,Woman
96,830612,DepthScenes,duration_manipulation_targetAtFixation,jsons/v1_VE1000_randls_64.json,http://54.235.29.9/FacialAge/BNav_EC2/DepthDuration/v2_depth_duration_MTurk/v2_DepthDuration_HTML.html#88,88,1366,768,1366,768,8-22-2022,8-59-39,97,depth_duration_stimuli/000486_2014-06-09_20-47-20_260595134347_rgbf000143-resize_2/000486_2014-06-09_20-47-20_260595134347_rgbf000143-resize_2-target.png,1000,4.8325,2,3410,1008,meters,jsons/v1_VE1000_randls_64.json,827536,971274,25,Woman
97,830612,DepthScenes,duration_manipulation_targetAtFixation,jsons/v1_VE1000_randls_64.json,http://54.235.29.9/FacialAge/BNav_EC2/DepthDuration/v2_depth_duration_MTurk/v2_DepthDuration_HTML.html#88,88,1366,768,1366,768,8-22-2022,8-59-39,98,depth_duration_stimuli/003083_2014-06-15_15-21-03_094959634447_rgbf000063-resize_1/003083_2014-06-15_15-21-03_094959634447_rgbf000063-resize_1-target.png,1000,4.1405,3,8337,1006,meters,jsons/v1_VE1000_randls_64.json,827536,971274,25,Woman
98,830612,DepthScenes,duration_manipulation_targetAtFixation,jsons/v1_VE1000_randls_64.json,http://54.235.29.9/FacialAge/BNav_EC2/DepthDuration/v2_depth_duration_MTurk/v2_DepthDuration_HTML.html#88,88,1366,768,1366,768,8-22-2022,8-59-39,99,depth_duration_stimuli/001540_2014-06-20_17-01-05_260595134347_rgbf000086-resize_2/001540_2014-06-20_17-01-05_260595134347_rgbf000086-resize-original.jpg,1000,1.459,2,2876,1010,meters,jsons/v1_VE1000_randls_64.json,827536,971274,25,Woman
99,830612,DepthScenes,duration_manipulation_targetAtFixation,jsons/v1_VE1000_randls_64.json,http://54.235.29.9/FacialAge/BNav_EC2/DepthDuration/v2_depth_duration_MTurk/v2_DepthDuration_HTML.html#88,88,1366,768,1366,768,8-22-2022,8-59-39,100,depth_duration_stimuli/000368_2014-06-09_15-53-01_260595134347_rgbf000155-resize_2/000368_2014-06-09_15-53-01_260595134347_rgbf000155-resize_2-target.png,1000,2.4859999999999998,2,5621,1001,meters,jsons/v1_VE1000_randls_64.json,827536,971274,25,Woman
100,830612,DepthScenes,duration_manipulation_targetAtFixation,jsons/v1_VE1000_randls_64.json,http://54.235.29.9/FacialAge/BNav_EC2/DepthDuration/v2_depth_duration_MTurk/v2_DepthDuration_HTML.html#88,88,1366,768,1366,768,8-22-2022,8-59-39,101,depth_duration_stimuli/002678_2014-06-13_16-15-32_094959634447_rgbf000151-resize_6/002678_2014-06-13_16-15-32_094959634447_rgbf000151-resize_6-target.png,1000,2.1830000000000003,1,2250,989,meters,jsons/v1_VE1000_randls_64.json,827536,971274,25,Woman
101,830612,DepthScenes,duration_manipulation_targetAtFixation,jsons/v1_VE1000_randls_64.json,http://54.235.29.9/FacialAge/BNav_EC2/DepthDuration/v2_depth_duration_MTurk/v2_DepthDuration_HTML.html#88,88,1366,768,1366,768,8-22-2022,8-59-39,102,depth_duration_stimuli/002725_2014-06-22_11-47-51_094959634447_rgbf000070-resize_1/002725_2014-06-22_11-47-51_094959634447_rgbf000070-resize_1-target.png,1000,2.195,3,4033,1006,meters,jsons/v1_VE1000_randls_64.json,827536,971274,25,Woman
102,830612,DepthScenes,duration_manipulation_targetAtFixation,jsons/v1_VE1000_randls_64.json,http://54.235.29.9/FacialAge/BNav_EC2/DepthDuration/v2_depth_duration_MTurk/v2_DepthDuration_HTML.html#88,88,1366,768,1366,768,8-22-2022,8-59-39,103,depth_duration_stimuli/002344_2014-06-28_20-06-29_260595134347_rgbf000030-resize_1/002344_2014-06-28_20-06-29_260595134347_rgbf000030-resize_1-target.png,1000,1.5795,1,4574,999,meters,jsons/v1_VE1000_randls_64.json,827536,971274,25,Woman
103,830612,DepthScenes,duration_manipulation_targetAtFixation,jsons/v1_VE1000_randls_64.json,http://54.235.29.9/FacialAge/BNav_EC2/DepthDuration/v2_depth_duration_MTurk/v2_DepthDuration_HTML.html#88,88,1366,768,1366,768,8-22-2022,8-59-39,104,depth_duration_stimuli/002784_2014-06-22_19-26-30_094959634447_rgbf000083-resize_3/002784_2014-06-22_19-26-30_094959634447_rgbf000083-resize_3-target.png,1000,1.8046666666667,2,7136,988,meters,jsons/v1_VE1000_randls_64.json,827536,971274,25,Woman
104,830612,DepthScenes,duration_manipulation_targetAtFixation,jsons/v1_VE1000_randls_64.json,http://54.235.29.9/FacialAge/BNav_EC2/DepthDuration/v2_depth_duration_MTurk/v2_DepthDuration_HTML.html#88,88,1366,768,1366,768,8-22-2022,8-59-39,105,depth_duration_stimuli/001100_2014-06-15_17-46-26_260595134347_rgbf000225-resize_2/001100_2014-06-15_17-46-26_260595134347_rgbf000225-resize_2-target.png,1000,2.24,3,4568,1000,meters,jsons/v1_VE1000_randls_64.json,827536,971274,25,Woman
105,830612,DepthScenes,duration_manipulation_targetAtFixation,jsons/v1_VE1000_randls_64.json,http://54.235.29.9/FacialAge/BNav_EC2/DepthDuration/v2_depth_duration_MTurk/v2_DepthDuration_HTML.html#88,88,1366,768,1366,768,8-22-2022,8-59-39,106,depth_duration_stimuli/001570_2014-06-20_17-21-09_260595134347_rgbf000135-resize_4/001570_2014-06-20_17-21-09_260595134347_rgbf000135-resize_4-target.png,1000,4.467,1,4681,1001,meters,jsons/v1_VE1000_randls_64.json,827536,971274,25,Woman
106,830612,DepthScenes,duration_manipulation_targetAtFixation,jsons/v1_VE1000_randls_64.json,http://54.235.29.9/FacialAge/BNav_EC2/DepthDuration/v2_depth_duration_MTurk/v2_DepthDuration_HTML.html#88,88,1366,768,1366,768,8-22-2022,8-59-39,107,depth_duration_stimuli/001392_2014-06-19_16-07-59_260595134347_rgbf000046-resize_1/001392_2014-06-19_16-07-59_260595134347_rgbf000046-resize_1-target.png,1000,4.135,1,7728,1007,meters,jsons/v1_VE1000_randls_64.json,827536,971274,25,Woman
107,830612,DepthScenes,duration_manipulation_targetAtFixation,jsons/v1_VE1000_randls_64.json,http://54.235.29.9/FacialAge/BNav_EC2/DepthDuration/v2_depth_duration_MTurk/v2_DepthDuration_HTML.html#88,88,1366,768,1366,768,8-22-2022,8-59-39,108,depth_duration_stimuli/002445_2014-06-28_20-32-16_260595134347_rgbf000029-resize_4/002445_2014-06-28_20-32-16_260595134347_rgbf000029-resize_4-target.png,1000,2.5315,2,4320,996,meters,jsons/v1_VE1000_randls_64.json,827536,971274,25,Woman
108,830612,DepthScenes,duration_manipulation_targetAtFixation,jsons/v1_VE1000_randls_64.json,http://54.235.29.9/FacialAge/BNav_EC2/DepthDuration/v2_depth_duration_MTurk/v2_DepthDuration_HTML.html#88,88,1366,768,1366,768,8-22-2022,8-59-39,109,depth_duration_stimuli/000780_2014-06-08_22-28-29_260595134347_rgbf000126-resize_1/000780_2014-06-08_22-28-29_260595134347_rgbf000126-resize_1-target.png,1000,3.3825,52,4352,1027,meters,jsons/v1_VE1000_randls_64.json,827536,971274,25,Woman
109,830612,DepthScenes,duration_manipulation_targetAtFixation,jsons/v1_VE1000_randls_64.json,http://54.235.29.9/FacialAge/BNav_EC2/DepthDuration/v2_depth_duration_MTurk/v2_DepthDuration_HTML.html#88,88,1366,768,1366,768,8-22-2022,8-59-39,110,depth_duration_stimuli/001449_2014-06-19_17-01-27_260595134347_rgbf000116-resize_2/001449_2014-06-19_17-01-27_260595134347_rgbf000116-resize_2-target.png,1000,3.452,3,4152,999,meters,jsons/v1_VE1000_randls_64.json,827536,971274,25,Woman
110,830612,DepthScenes,duration_manipulation_targetAtFixation,jsons/v1_VE1000_randls_64.json,http://54.235.29.9/FacialAge/BNav_EC2/DepthDuration/v2_depth_duration_MTurk/v2_DepthDuration_HTML.html#88,88,1366,768,1366,768,8-22-2022,8-59-39,111,depth_duration_stimuli/001450_2014-06-19_17-02-03_260595134347_rgbf000203-resize_4/001450_2014-06-19_17-02-03_260595134347_rgbf000203-resize_4-target.png,1000,4.0106666666667,2,3297,1000,meters,jsons/v1_VE1000_randls_64.json,827536,971274,25,Woman
111,830612,DepthScenes,duration_manipulation_targetAtFixation,jsons/v1_VE1000_randls_64.json,http://54.235.29.9/FacialAge/BNav_EC2/DepthDuration/v2_depth_duration_MTurk/v2_DepthDuration_HTML.html#88,88,1366,768,1366,768,8-22-2022,8-59-39,112,depth_duration_stimuli/000009_2014-05-26_14-32-05_260595134347_rgbf000034-resize_3/000009_2014-05-26_14-32-05_260595134347_rgbf000034-resize_3-target.png,1000,3.8715,2,6562,1012,meters,jsons/v1_VE1000_randls_64.json,827536,971274,25,Woman
112,830612,DepthScenes,duration_manipulation_targetAtFixation,jsons/v1_VE1000_randls_64.json,http://54.235.29.9/FacialAge/BNav_EC2/DepthDuration/v2_depth_duration_MTurk/v2_DepthDuration_HTML.html#88,88,1366,768,1366,768,8-22-2022,8-59-39,113,depth_duration_stimuli/001828_2014-06-26_21-40-03_260595134347_rgbf000024-resize_0/001828_2014-06-26_21-40-03_260595134347_rgbf000024-resize_0-target.png,1000,4.8260000000000005,2,3215,998,meters,jsons/v1_VE1000_randls_64.json,827536,971274,25,Woman
113,830612,DepthScenes,duration_manipulation_targetAtFixation,jsons/v1_VE1000_randls_64.json,http://54.235.29.9/FacialAge/BNav_EC2/DepthDuration/v2_depth_duration_MTurk/v2_DepthDuration_HTML.html#88,88,1366,768,1366,768,8-22-2022,8-59-39,114,depth_duration_stimuli/000447_2014-06-08_16-15-46_260595134347_rgbf000130-resize_1/000447_2014-06-08_16-15-46_260595134347_rgbf000130-resize_1-target.png,1000,4.479,1,3493,999,meters,jsons/v1_VE1000_randls_64.json,827536,971274,25,Woman
114,830612,DepthScenes,duration_manipulation_targetAtFixation,jsons/v1_VE1000_randls_64.json,http://54.235.29.9/FacialAge/BNav_EC2/DepthDuration/v2_depth_duration_MTurk/v2_DepthDuration_HTML.html#88,88,1366,768,1366,768,8-22-2022,8-59-39,115,depth_duration_stimuli/001447_2014-06-19_17-00-32_260595134347_rgbf000082-resize_5/001447_2014-06-19_17-00-32_260595134347_rgbf000082-resize_5-target.png,1000,4.13775,2,2936,1001,meters,jsons/v1_VE1000_randls_64.json,827536,971274,25,Woman
115,830612,DepthScenes,duration_manipulation_targetAtFixation,jsons/v1_VE1000_randls_64.json,http://54.235.29.9/FacialAge/BNav_EC2/DepthDuration/v2_depth_duration_MTurk/v2_DepthDuration_HTML.html#88,88,1366,768,1366,768,8-22-2022,8-59-39,116,depth_duration_stimuli/001170_2014-06-17_15-43-44_260595134347_rgbf000096-resize_6/001170_2014-06-17_15-43-44_260595134347_rgbf000096-resize-original.jpg,1000,1.1909999999999998,2,3451,1029,meters,jsons/v1_VE1000_randls_64.json,827536,971274,25,Woman
116,830612,DepthScenes,duration_manipulation_targetAtFixation,jsons/v1_VE1000_randls_64.json,http://54.235.29.9/FacialAge/BNav_EC2/DepthDuration/v2_depth_duration_MTurk/v2_DepthDuration_HTML.html#88,88,1366,768,1366,768,8-22-2022,8-59-39,117,depth_duration_stimuli/002118_2014-06-25_20-32-08_260595134347_rgbf000078-resize_1/002118_2014-06-25_20-32-08_260595134347_rgbf000078-resize_1-target.png,1000,2.6460000000000004,2,5559,990,meters,jsons/v1_VE1000_randls_64.json,827536,971274,25,Woman
117,830612,DepthScenes,duration_manipulation_targetAtFixation,jsons/v1_VE1000_randls_64.json,http://54.235.29.9/FacialAge/BNav_EC2/DepthDuration/v2_depth_duration_MTurk/v2_DepthDuration_HTML.html#88,88,1366,768,1366,768,8-22-2022,8-59-39,118,depth_duration_stimuli/001516_2014-06-20_16-25-09_260595134347_rgbf000076-resize_2/001516_2014-06-20_16-25-09_260595134347_rgbf000076-resize_2-target.png,1000,1.7445,2,2804,868,meters,jsons/v1_VE1000_randls_64.json,827536,971274,25,Woman
118,830612,DepthScenes,duration_manipulation_targetAtFixation,jsons/v1_VE1000_randls_64.json,http://54.235.29.9/FacialAge/BNav_EC2/DepthDuration/v2_depth_duration_MTurk/v2_DepthDuration_HTML.html#88,88,1366,768,1366,768,8-22-2022,8-59-39,119,depth_duration_stimuli/001110_2014-06-15_17-25-28_260595134347_rgbf000150-resize_1/001110_2014-06-15_17-25-28_260595134347_rgbf000150-resize_1-target.png,1000,1.7115,5,7335,965,meters,jsons/v1_VE1000_randls_64.json,827536,971274,25,Woman
119,830612,DepthScenes,duration_manipulation_targetAtFixation,jsons/v1_VE1000_randls_64.json,http://54.235.29.9/FacialAge/BNav_EC2/DepthDuration/v2_depth_duration_MTurk/v2_DepthDuration_HTML.html#88,88,1366,768,1366,768,8-22-2022,8-59-39,120,depth_duration_stimuli/000927_2014-06-09_16-32-30_260595134347_rgbf000123-resize_3/000927_2014-06-09_16-32-30_260595134347_rgbf000123-resize_3-target.png,1000,2.6785,2,3603,997,meters,jsons/v1_VE1000_randls_64.json,827536,971274,25,Woman
120,830612,DepthScenes,duration_manipulation_targetAtFixation,jsons/v1_VE1000_randls_64.json,http://54.235.29.9/FacialAge/BNav_EC2/DepthDuration/v2_depth_duration_MTurk/v2_DepthDuration_HTML.html#88,88,1366,768,1366,768,8-22-2022,8-59-39,121,depth_duration_stimuli/003292_2014-05-14_21-53-49_094959634447_rgbf000100-resize_2/003292_2014-05-14_21-53-49_094959634447_rgbf000100-resize_2-target.png,1000,3.4815,3,3495,1080,meters,jsons/v1_VE1000_randls_64.json,827536,971274,25,Woman
121,830612,DepthScenes,duration_manipulation_targetAtFixation,jsons/v1_VE1000_randls_64.json,http://54.235.29.9/FacialAge/BNav_EC2/DepthDuration/v2_depth_duration_MTurk/v2_DepthDuration_HTML.html#88,88,1366,768,1366,768,8-22-2022,8-59-39,122,depth_duration_stimuli/002639_2014-06-24_14-51-37_094959634447_rgbf000074-resize_4/002639_2014-06-24_14-51-37_094959634447_rgbf000074-resize_4-target.png,1000,4.0375,2,2853,1000,meters,jsons/v1_VE1000_randls_64.json,827536,971274,25,Woman
122,830612,DepthScenes,duration_manipulation_targetAtFixation,jsons/v1_VE1000_randls_64.json,http://54.235.29.9/FacialAge/BNav_EC2/DepthDuration/v2_depth_duration_MTurk/v2_DepthDuration_HTML.html#88,88,1366,768,1366,768,8-22-2022,8-59-39,123,depth_duration_stimuli/000414_2014-06-04_19-49-13_260595134347_rgbf000044-resize_0/000414_2014-06-04_19-49-13_260595134347_rgbf000044-resize_0-target.png,1000,4.329,1,25465,998,meters,jsons/v1_VE1000_randls_64.json,827536,971274,25,Woman
123,830612,DepthScenes,duration_manipulation_targetAtFixation,jsons/v1_VE1000_randls_64.json,http://54.235.29.9/FacialAge/BNav_EC2/DepthDuration/v2_depth_duration_MTurk/v2_DepthDuration_HTML.html#88,88,1366,768,1366,768,8-22-2022,8-59-39,124,depth_duration_stimuli/003129_2014-05-12_10-48-10_094959634447_rgbf000100-resize_0/003129_2014-05-12_10-48-10_094959634447_rgbf000100-resize_0-target.png,1000,4.9305,1,2857,998,meters,jsons/v1_VE1000_randls_64.json,827536,971274,25,Woman
124,830612,DepthScenes,duration_manipulation_targetAtFixation,jsons/v1_VE1000_randls_64.json,http://54.235.29.9/FacialAge/BNav_EC2/DepthDuration/v2_depth_duration_MTurk/v2_DepthDuration_HTML.html#88,88,1366,768,1366,768,8-22-2022,8-59-39,125,depth_duration_stimuli/002057_2014-06-24_21-00-13_260595134347_rgbf000120-resize_1/002057_2014-06-24_21-00-13_260595134347_rgbf000120-resize_1-target.png,1000,2.967,2,2784,1017,meters,jsons/v1_VE1000_randls_64.json,827536,971274,25,Woman
125,830612,DepthScenes,duration_manipulation_targetAtFixation,jsons/v1_VE1000_randls_64.json,http://54.235.29.9/FacialAge/BNav_EC2/DepthDuration/v2_depth_duration_MTurk/v2_DepthDuration_HTML.html#88,88,1366,768,1366,768,8-22-2022,8-59-39,126,depth_duration_stimuli/000709_2014-06-08_13-51-55_260595134347_rgbf000068-resize_3/000709_2014-06-08_13-51-55_260595134347_rgbf000068-resize_3-target.png,1000,1.8030000000000002,3,2412,1008,meters,jsons/v1_VE1000_randls_64.json,827536,971274,25,Woman
126,830612,DepthScenes,duration_manipulation_targetAtFixation,jsons/v1_VE1000_randls_64.json,http://54.235.29.9/FacialAge/BNav_EC2/DepthDuration/v2_depth_duration_MTurk/v2_DepthDuration_HTML.html#88,88,1366,768,1366,768,8-22-2022,8-59-39,127,depth_duration_stimuli/000906_2014-06-08_13-35-43_260595134347_rgbf000155-resize_1/000906_2014-06-08_13-35-43_260595134347_rgbf000155-resize_1-target.png,1000,2.8489999999999998,4,2696,984,meters,jsons/v1_VE1000_randls_64.json,827536,971274,25,Woman
127,830612,DepthScenes,duration_manipulation_targetAtFixation,jsons/v1_VE1000_randls_64.json,http://54.235.29.9/FacialAge/BNav_EC2/DepthDuration/v2_depth_duration_MTurk/v2_DepthDuration_HTML.html#88,88,1366,768,1366,768,8-22-2022,8-59-39,128,depth_duration_stimuli/002805_2014-06-22_19-54-03_094959634447_rgbf000079-resize_1/002805_2014-06-22_19-54-03_094959634447_rgbf000079-resize_1-target.png,1000,3.1439999999999997,5,2398,997,meters,jsons/v1_VE1000_randls_64.json,827536,971274,25,Woman
128,830612,DepthScenes,duration_manipulation_targetAtFixation,jsons/v1_VE1000_randls_64.json,http://54.235.29.9/FacialAge/BNav_EC2/DepthDuration/v2_depth_duration_MTurk/v2_DepthDuration_HTML.html#88,88,1366,768,1366,768,8-22-2022,8-59-39,129,depth_duration_stimuli/002600_2014-06-24_14-27-04_094959634447_rgbf000074-resize_2/002600_2014-06-24_14-27-04_094959634447_rgbf000074-resize_2-target.png,1000,2.7575,5,2970,994,meters,jsons/v1_VE1000_randls_64.json,827536,971274,25,Woman
129,830612,DepthScenes,duration_manipulation_targetAtFixation,jsons/v1_VE1000_randls_64.json,http://54.235.29.9/FacialAge/BNav_EC2/DepthDuration/v2_depth_duration_MTurk/v2_DepthDuration_HTML.html#88,88,1366,768,1366,768,8-22-2022,8-59-39,130,depth_duration_stimuli/003228_2014-05-14_13-42-35_094959634447_rgbf000101-resize_1/003228_2014-05-14_13-42-35_094959634447_rgbf000101-resize_1-target.png,1000,1.9680000000000002,2,2337,996,meters,jsons/v1_VE1000_randls_64.json,827536,971274,25,Woman
130,830612,DepthScenes,duration_manipulation_targetAtFixation,jsons/v1_VE1000_randls_64.json,http://54.235.29.9/FacialAge/BNav_EC2/DepthDuration/v2_depth_duration_MTurk/v2_DepthDuration_HTML.html#88,88,1366,768,1366,768,8-22-2022,8-59-39,131,depth_duration_stimuli/001150_2014-06-17_15-27-34_260595134347_rgbf000108-resize_2/001150_2014-06-17_15-27-34_260595134347_rgbf000108-resize_2-target.png,1000,4.0325,2,2851,1013,meters,jsons/v1_VE1000_randls_64.json,827536,971274,25,Woman
131,830612,DepthScenes,duration_manipulation_targetAtFixation,jsons/v1_VE1000_randls_64.json,http://54.235.29.9/FacialAge/BNav_EC2/DepthDuration/v2_depth_duration_MTurk/v2_DepthDuration_HTML.html#88,88,1366,768,1366,768,8-22-2022,8-59-39,132,depth_duration_stimuli/000665_2014-06-09_20-42-35_260595134347_rgbf000110-resize_1/000665_2014-06-09_20-42-35_260595134347_rgbf000110-resize_1-target.png,1000,3.057,2,3234,997,meters,jsons/v1_VE1000_randls_64.json,827536,971274,25,Woman
132,830612,DepthScenes,duration_manipulation_targetAtFixation,jsons/v1_VE1000_randls_64.json,http://54.235.29.9/FacialAge/BNav_EC2/DepthDuration/v2_depth_duration_MTurk/v2_DepthDuration_HTML.html#88,88,1366,768,1366,768,8-22-2022,8-59-39,133,depth_duration_stimuli/001175_2014-06-17_15-45-55_260595134347_rgbf000129-resize_4/001175_2014-06-17_15-45-55_260595134347_rgbf000129-resize_4-target.png,1000,4.255,2,48022,999,meters,jsons/v1_VE1000_randls_64.json,827536,971274,25,Woman
133,830612,DepthScenes,duration_manipulation_targetAtFixation,jsons/v1_VE1000_randls_64.json,http://54.235.29.9/FacialAge/BNav_EC2/DepthDuration/v2_depth_duration_MTurk/v2_DepthDuration_HTML.html#88,88,1366,768,1366,768,8-22-2022,8-59-39,134,depth_duration_stimuli/003490_2014-05-21_15-50-11_094959634447_rgbf000101-resize_3/003490_2014-05-21_15-50-11_094959634447_rgbf000101-resize_3-target.png,1000,3.6445,2,7435,979,meters,jsons/v1_VE1000_randls_64.json,827536,971274,25,Woman
134,830612,DepthScenes,duration_manipulation_targetAtFixation,jsons/v1_VE1000_randls_64.json,http://54.235.29.9/FacialAge/BNav_EC2/DepthDuration/v2_depth_duration_MTurk/v2_DepthDuration_HTML.html#88,88,1366,768,1366,768,8-22-2022,8-59-39,135,depth_duration_stimuli/002072_2014-06-24_21-48-06_260595134347_rgbf000115-resize_0/002072_2014-06-24_21-48-06_260595134347_rgbf000115-resize-original.jpg,1000,4.702,2,3470,1005,meters,jsons/v1_VE1000_randls_64.json,827536,971274,25,Woman
135,830612,DepthScenes,duration_manipulation_targetAtFixation,jsons/v1_VE1000_randls_64.json,http://54.235.29.9/FacialAge/BNav_EC2/DepthDuration/v2_depth_duration_MTurk/v2_DepthDuration_HTML.html#88,88,1366,768,1366,768,8-22-2022,8-59-39,136,depth_duration_stimuli/000773_2014-06-08_22-24-54_260595134347_rgbf000093-resize_1/000773_2014-06-08_22-24-54_260595134347_rgbf000093-resize_1-target.png,1000,4.973,3,3787,992,meters,jsons/v1_VE1000_randls_64.json,827536,971274,25,Woman
136,830612,DepthScenes,duration_manipulation_targetAtFixation,jsons/v1_VE1000_randls_64.json,http://54.235.29.9/FacialAge/BNav_EC2/DepthDuration/v2_depth_duration_MTurk/v2_DepthDuration_HTML.html#88,88,1366,768,1366,768,8-22-2022,8-59-39,137,depth_duration_stimuli/002414_2014-06-28_20-24-58_260595134347_rgbf000067-resize_4/002414_2014-06-28_20-24-58_260595134347_rgbf000067-resize_4-target.png,1000,4.363,2,3439,1010,meters,jsons/v1_VE1000_randls_64.json,827536,971274,25,Woman
137,830612,DepthScenes,duration_manipulation_targetAtFixation,jsons/v1_VE1000_randls_64.json,http://54.235.29.9/FacialAge/BNav_EC2/DepthDuration/v2_depth_duration_MTurk/v2_DepthDuration_HTML.html#88,88,1366,768,1366,768,8-22-2022,8-59-39,138,depth_duration_stimuli/002375_2014-06-28_20-13-44_260595134347_rgbf000032-resize_1/002375_2014-06-28_20-13-44_260595134347_rgbf000032-resize_1-target.png,1000,4.0175,2,3636,1002,meters,jsons/v1_VE1000_randls_64.json,827536,971274,25,Woman
138,830612,DepthScenes,duration_manipulation_targetAtFixation,jsons/v1_VE1000_randls_64.json,http://54.235.29.9/FacialAge/BNav_EC2/DepthDuration/v2_depth_duration_MTurk/v2_DepthDuration_HTML.html#88,88,1366,768,1366,768,8-22-2022,8-59-39,139,depth_duration_stimuli/002657_2014-06-13_15-29-54_094959634447_rgbf000150-resize_1/002657_2014-06-13_15-29-54_094959634447_rgbf000150-resize_1-target.png,1000,4.919,2,3386,969,meters,jsons/v1_VE1000_randls_64.json,827536,971274,25,Woman
139,830612,DepthScenes,duration_manipulation_targetAtFixation,jsons/v1_VE1000_randls_64.json,http://54.235.29.9/FacialAge/BNav_EC2/DepthDuration/v2_depth_duration_MTurk/v2_DepthDuration_HTML.html#88,88,1366,768,1366,768,8-22-2022,8-59-39,140,depth_duration_stimuli/001059_2014-06-08_21-53-27_260595134347_rgbf000061-resize_4/001059_2014-06-08_21-53-27_260595134347_rgbf000061-resize_4-target.png,1000,2.4185,2,3393,1000,meters,jsons/v1_VE1000_randls_64.json,827536,971274,25,Woman
140,830612,DepthScenes,duration_manipulation_targetAtFixation,jsons/v1_VE1000_randls_64.json,http://54.235.29.9/FacialAge/BNav_EC2/DepthDuration/v2_depth_duration_MTurk/v2_DepthDuration_HTML.html#88,88,1366,768,1366,768,8-22-2022,8-59-39,141,depth_duration_stimuli/001032_2014-06-08_13-23-17_260595134347_rgbf000021-resize_3/001032_2014-06-08_13-23-17_260595134347_rgbf000021-resize_3-target.png,1000,3.2725,2,3199,999,meters,jsons/v1_VE1000_randls_64.json,827536,971274,25,Woman
141,830612,DepthScenes,duration_manipulation_targetAtFixation,jsons/v1_VE1000_randls_64.json,http://54.235.29.9/FacialAge/BNav_EC2/DepthDuration/v2_depth_duration_MTurk/v2_DepthDuration_HTML.html#88,88,1366,768,1366,768,8-22-2022,8-59-39,142,depth_duration_stimuli/001011_2014-06-08_23-18-54_260595134347_rgbf000044-resize_4/001011_2014-06-08_23-18-54_260595134347_rgbf000044-resize_4-target.png,1000,2.4730000000000003,2,3395,1004,meters,jsons/v1_VE1000_randls_64.json,827536,971274,25,Woman
142,830612,DepthScenes,duration_manipulation_targetAtFixation,jsons/v1_VE1000_randls_64.json,http://54.235.29.9/FacialAge/BNav_EC2/DepthDuration/v2_depth_duration_MTurk/v2_DepthDuration_HTML.html#88,88,1366,768,1366,768,8-22-2022,8-59-39,143,depth_duration_stimuli/002875_2014-06-01_15-19-00_094959634447_rgbf000151-resize_1/002875_2014-06-01_15-19-00_094959634447_rgbf000151-resize_1-target.png,1000,1.9675,2,3541,991,meters,jsons/v1_VE1000_randls_64.json,827536,971274,25,Woman
143,830612,DepthScenes,duration_manipulation_targetAtFixation,jsons/v1_VE1000_randls_64.json,http://54.235.29.9/FacialAge/BNav_EC2/DepthDuration/v2_depth_duration_MTurk/v2_DepthDuration_HTML.html#88,88,1366,768,1366,768,8-22-2022,8-59-39,144,depth_duration_stimuli/001806_2014-06-26_20-50-20_260595134347_rgbf000091-resize_1/001806_2014-06-26_20-50-20_260595134347_rgbf000091-resize_1-target.png,1000,2.7305,2,3592,983,meters,jsons/v1_VE1000_randls_64.json,827536,971274,25,Woman
144,830612,DepthScenes,duration_manipulation_targetAtFixation,jsons/v1_VE1000_randls_64.json,http://54.235.29.9/FacialAge/BNav_EC2/DepthDuration/v2_depth_duration_MTurk/v2_DepthDuration_HTML.html#88,88,1366,768,1366,768,8-22-2022,8-59-39,145,depth_duration_stimuli/001617_2014-06-20_11-35-32_260595134347_rgbf000066-resize_1/001617_2014-06-20_11-35-32_260595134347_rgbf000066-resize_1-target.png,1000,3.7910000000000004,3,3394,1010,meters,jsons/v1_VE1000_randls_64.json,827536,971274,25,Woman
145,830612,DepthScenes,duration_manipulation_targetAtFixation,jsons/v1_VE1000_randls_64.json,http://54.235.29.9/FacialAge/BNav_EC2/DepthDuration/v2_depth_duration_MTurk/v2_DepthDuration_HTML.html#88,88,1366,768,1366,768,8-22-2022,8-59-39,146,depth_duration_stimuli/001498_2014-06-19_17-45-14_260595134347_rgbf000129-resize_4/001498_2014-06-19_17-45-14_260595134347_rgbf000129-resize-original.jpg,1000,1.4075,3,3368,998,meters,jsons/v1_VE1000_randls_64.json,827536,971274,25,Woman
146,830612,DepthScenes,duration_manipulation_targetAtFixation,jsons/v1_VE1000_randls_64.json,http://54.235.29.9/FacialAge/BNav_EC2/DepthDuration/v2_depth_duration_MTurk/v2_DepthDuration_HTML.html#88,88,1366,768,1366,768,8-22-2022,8-59-39,147,depth_duration_stimuli/000469_2014-06-09_19-42-10_260595134347_rgbf000081-resize_1/000469_2014-06-09_19-42-10_260595134347_rgbf000081-resize_1-target.png,1000,1.652,3,3571,1000,meters,jsons/v1_VE1000_randls_64.json,827536,971274,25,Woman
147,830612,DepthScenes,duration_manipulation_targetAtFixation,jsons/v1_VE1000_randls_64.json,http://54.235.29.9/FacialAge/BNav_EC2/DepthDuration/v2_depth_duration_MTurk/v2_DepthDuration_HTML.html#88,88,1366,768,1366,768,8-22-2022,8-59-39,148,depth_duration_stimuli/000483_2014-06-09_20-41-45_260595134347_rgbf000116-resize_4/000483_2014-06-09_20-41-45_260595134347_rgbf000116-resize_4-target.png,1000,1.337,3,3786,1004,meters,jsons/v1_VE1000_randls_64.json,827536,971274,25,Woman
148,830612,DepthScenes,duration_manipulation_targetAtFixation,jsons/v1_VE1000_randls_64.json,http://54.235.29.9/FacialAge/BNav_EC2/DepthDuration/v2_depth_duration_MTurk/v2_DepthDuration_HTML.html#88,88,1366,768,1366,768,8-22-2022,8-59-39,149,depth_duration_stimuli/001133_2014-06-17_14-49-16_260595134347_rgbf000100-resize_0/001133_2014-06-17_14-49-16_260595134347_rgbf000100-resize_0-target.png,1000,4.2115,2,3799,988,meters,jsons/v1_VE1000_randls_64.json,827536,971274,25,Woman
149,830612,DepthScenes,duration_manipulation_targetAtFixation,jsons/v1_VE1000_randls_64.json,http://54.235.29.9/FacialAge/BNav_EC2/DepthDuration/v2_depth_duration_MTurk/v2_DepthDuration_HTML.html#88,88,1366,768,1366,768,8-22-2022,8-59-39,150,depth_duration_stimuli/001132_2014-06-17_14-48-54_260595134347_rgbf000100-resize_2/001132_2014-06-17_14-48-54_260595134347_rgbf000100-resize_2-target.png,1000,3.753,2,3328,1010,meters,jsons/v1_VE1000_randls_64.json,827536,971274,25,Woman
150,830612,DepthScenes,duration_manipulation_targetAtFixation,jsons/v1_VE1000_randls_64.json,http://54.235.29.9/FacialAge/BNav_EC2/DepthDuration/v2_depth_duration_MTurk/v2_DepthDuration_HTML.html#88,88,1366,768,1366,768,8-22-2022,8-59-39,151,depth_duration_stimuli/000522_2014-06-08_13-35-06_260595134347_rgbf000244-resize_1/000522_2014-06-08_13-35-06_260595134347_rgbf000244-resize_1-target.png,1000,2.3715,3,3779,1000,meters,jsons/v1_VE1000_randls_64.json,827536,971274,25,Woman
151,830612,DepthScenes,duration_manipulation_targetAtFixation,jsons/v1_VE1000_randls_64.json,http://54.235.29.9/FacialAge/BNav_EC2/DepthDuration/v2_depth_duration_MTurk/v2_DepthDuration_HTML.html#88,88,1366,768,1366,768,8-22-2022,8-59-39,152,depth_duration_stimuli/002949_2014-06-26_15-57-42_094959634447_rgbf000079-resize_1/002949_2014-06-26_15-57-42_094959634447_rgbf000079-resize_1-target.png,1000,1.8915,2,3475,1301,meters,jsons/v1_VE1000_randls_64.json,827536,971274,25,Woman
152,830612,DepthScenes,duration_manipulation_targetAtFixation,jsons/v1_VE1000_randls_64.json,http://54.235.29.9/FacialAge/BNav_EC2/DepthDuration/v2_depth_duration_MTurk/v2_DepthDuration_HTML.html#88,88,1366,768,1366,768,8-22-2022,8-59-39,153,depth_duration_stimuli/002549_2014-06-24_13-41-39_094959634447_rgbf000022-resize_3/002549_2014-06-24_13-41-39_094959634447_rgbf000022-resize_3-target.png,1000,1.476,2,3720,1007,meters,jsons/v1_VE1000_randls_64.json,827536,971274,25,Woman
153,830612,DepthScenes,duration_manipulation_targetAtFixation,jsons/v1_VE1000_randls_64.json,http://54.235.29.9/FacialAge/BNav_EC2/DepthDuration/v2_depth_duration_MTurk/v2_DepthDuration_HTML.html#88,88,1366,768,1366,768,8-22-2022,8-59-39,154,depth_duration_stimuli/002750_2014-06-22_19-08-03_094959634447_rgbf000094-resize_4/002750_2014-06-22_19-08-03_094959634447_rgbf000094-resize_4-target.png,1000,2.354,2,3650,999,meters,jsons/v1_VE1000_randls_64.json,827536,971274,25,Woman
154,830612,DepthScenes,duration_manipulation_targetAtFixation,jsons/v1_VE1000_randls_64.json,http://54.235.29.9/FacialAge/BNav_EC2/DepthDuration/v2_depth_duration_MTurk/v2_DepthDuration_HTML.html#88,88,1366,768,1366,768,8-22-2022,8-59-39,155,depth_duration_stimuli/002905_2014-06-03_18-04-43_094959634447_rgbf000151-resize_2/002905_2014-06-03_18-04-43_094959634447_rgbf000151-resize_2-target.png,1000,2.0295,2,3804,954,meters,jsons/v1_VE1000_randls_64.json,827536,971274,25,Woman
155,830612,DepthScenes,duration_manipulation_targetAtFixation,jsons/v1_VE1000_randls_64.json,http://54.235.29.9/FacialAge/BNav_EC2/DepthDuration/v2_depth_duration_MTurk/v2_DepthDuration_HTML.html#88,88,1366,768,1366,768,8-22-2022,8-59-39,156,depth_duration_stimuli/003423_2014-05-21_10-23-26_094959634447_rgbf002665-resize_2/003423_2014-05-21_10-23-26_094959634447_rgbf002665-resize_2-target.png,1000,3.2575,3,3664,993,meters,jsons/v1_VE1000_randls_64.json,827536,971274,25,Woman
156,830612,DepthScenes,duration_manipulation_targetAtFixation,jsons/v1_VE1000_randls_64.json,http://54.235.29.9/FacialAge/BNav_EC2/DepthDuration/v2_depth_duration_MTurk/v2_DepthDuration_HTML.html#88,88,1366,768,1366,768,8-22-2022,8-59-39,157,depth_duration_stimuli/000436_2014-06-09_22-25-11_260595134347_rgbf000137-resize_1/000436_2014-06-09_22-25-11_260595134347_rgbf000137-resize_1-target.png,1000,4.0705,2,3876,995,meters,jsons/v1_VE1000_randls_64.json,827536,971274,25,Woman
157,830612,DepthScenes,duration_manipulation_targetAtFixation,jsons/v1_VE1000_randls_64.json,http://54.235.29.9/FacialAge/BNav_EC2/DepthDuration/v2_depth_duration_MTurk/v2_DepthDuration_HTML.html#88,88,1366,768,1366,768,8-22-2022,8-59-39,158,depth_duration_stimuli/002444_2014-06-28_20-32-08_260595134347_rgbf000027-resize_0/002444_2014-06-28_20-32-08_260595134347_rgbf000027-resize_0-target.png,1000,4.388999999999999,2,3510,1001,meters,jsons/v1_VE1000_randls_64.json,827536,971274,25,Woman
158,830612,DepthScenes,duration_manipulation_targetAtFixation,jsons/v1_VE1000_randls_64.json,http://54.235.29.9/FacialAge/BNav_EC2/DepthDuration/v2_depth_duration_MTurk/v2_DepthDuration_HTML.html#88,88,1366,768,1366,768,8-22-2022,8-59-39,159,depth_duration_stimuli/003534_2014-05-22_15-06-10_094959634447_rgbf000102-resize_4/003534_2014-05-22_15-06-10_094959634447_rgbf000102-resize_4-target.png,1000,1.426,3,3485,992,meters,jsons/v1_VE1000_randls_64.json,827536,971274,25,Woman
159,830612,DepthScenes,duration_manipulation_targetAtFixation,jsons/v1_VE1000_randls_64.json,http://54.235.29.9/FacialAge/BNav_EC2/DepthDuration/v2_depth_duration_MTurk/v2_DepthDuration_HTML.html#88,88,1366,768,1366,768,8-22-2022,8-59-39,160,depth_duration_stimuli/002637_2014-06-24_14-51-13_094959634447_rgbf000066-resize_4/002637_2014-06-24_14-51-13_094959634447_rgbf000066-resize_4-target.png,1000,1.9955,2,3270,986,meters,jsons/v1_VE1000_randls_64.json,827536,971274,25,Woman
160,830612,DepthScenes,duration_manipulation_targetAtFixation,jsons/v1_VE1000_randls_64.json,http://54.235.29.9/FacialAge/BNav_EC2/DepthDuration/v2_depth_duration_MTurk/v2_DepthDuration_HTML.html#88,88,1366,768,1366,768,8-22-2022,8-59-39,161,depth_duration_stimuli/001158_2014-06-17_15-32-16_260595134347_rgbf000138-resize_2/001158_2014-06-17_15-32-16_260595134347_rgbf000138-resize_2-target.png,1000,4.5315,2,3556,995,meters,jsons/v1_VE1000_randls_64.json,827536,971274,25,Woman
161,830612,DepthScenes,duration_manipulation_targetAtFixation,jsons/v1_VE1000_randls_64.json,http://54.235.29.9/FacialAge/BNav_EC2/DepthDuration/v2_depth_duration_MTurk/v2_DepthDuration_HTML.html#88,88,1366,768,1366,768,8-22-2022,8-59-39,162,depth_duration_stimuli/000556_2014-06-09_22-42-56_260595134347_rgbf000214-resize_1/000556_2014-06-09_22-42-56_260595134347_rgbf000214-resize_1-target.png,1000,4.8415,2,3293,959,meters,jsons/v1_VE1000_randls_64.json,827536,971274,25,Woman
162,830612,DepthScenes,duration_manipulation_targetAtFixation,jsons/v1_VE1000_randls_64.json,http://54.235.29.9/FacialAge/BNav_EC2/DepthDuration/v2_depth_duration_MTurk/v2_DepthDuration_HTML.html#88,88,1366,768,1366,768,8-22-2022,8-59-39,163,depth_duration_stimuli/002630_2014-06-24_14-47-50_094959634447_rgbf000055-resize_1/002630_2014-06-24_14-47-50_094959634447_rgbf000055-resize_1-target.png,1000,3.0095,2,3518,999,meters,jsons/v1_VE1000_randls_64.json,827536,971274,25,Woman
163,830612,DepthScenes,duration_manipulation_targetAtFixation,jsons/v1_VE1000_randls_64.json,http://54.235.29.9/FacialAge/BNav_EC2/DepthDuration/v2_depth_duration_MTurk/v2_DepthDuration_HTML.html#88,88,1366,768,1366,768,8-22-2022,8-59-39,164,depth_duration_stimuli/002758_2014-06-22_19-11-20_094959634447_rgbf000128-resize_1/002758_2014-06-22_19-11-20_094959634447_rgbf000128-resize_1-target.png,1000,2.555,2,3323,1006,meters,jsons/v1_VE1000_randls_64.json,827536,971274,25,Woman
