,subjID,experimentName,versionName,sequenceName,url,selected_row,windowWidth,windowHeight,screenWidth,screenHeight,startDate,startTime,trial,stimulus,duration,actual_depth,depth_estimate,trial_RT,log_sceneDuration,unitSelection,seq_filepath,experimentTime,totalTime,age,gender
0,830782,DepthScenes,duration_manipulation_targetAtFixation,jsons/v1_VE1000_randls_9.json,http://54.235.29.9/FacialAge/BNav_EC2/DepthDuration/v2_depth_duration_MTurk/v2_DepthDuration_HTML.html#357,357,500,292,1366,768,9-4-2022,23-5-30,1,depth_duration_stimuli/000470_2014-06-09_19-42-40_260595134347_rgbf000094-resize_1/000470_2014-06-09_19-42-40_260595134347_rgbf000094-resize_1-target.png,1000,1.831,0,11595,1005,meters,jsons/v1_VE1000_randls_9.json,639613,774540,35,Man
1,830782,DepthScenes,duration_manipulation_targetAtFixation,jsons/v1_VE1000_randls_9.json,http://54.235.29.9/FacialAge/BNav_EC2/DepthDuration/v2_depth_duration_MTurk/v2_DepthDuration_HTML.html#357,357,500,292,1366,768,9-4-2022,23-5-30,2,depth_duration_stimuli/000109_2014-05-14_23-41-52_260595134347_rgbf000035-resize_9/000109_2014-05-14_23-41-52_260595134347_rgbf000035-resize_9-target.png,1000,1.3545,0,6203,999,meters,jsons/v1_VE1000_randls_9.json,639613,774540,35,Man
2,830782,DepthScenes,duration_manipulation_targetAtFixation,jsons/v1_VE1000_randls_9.json,http://54.235.29.9/FacialAge/BNav_EC2/DepthDuration/v2_depth_duration_MTurk/v2_DepthDuration_HTML.html#357,357,500,292,1366,768,9-4-2022,23-5-30,3,depth_duration_stimuli/000758_2014-06-08_22-05-08_260595134347_rgbf000085-resize_0/000758_2014-06-08_22-05-08_260595134347_rgbf000085-resize_0-target.png,1000,3.3810000000000002,0,2335,999,meters,jsons/v1_VE1000_randls_9.json,639613,774540,35,Man
3,830782,DepthScenes,duration_manipulation_targetAtFixation,jsons/v1_VE1000_randls_9.json,http://54.235.29.9/FacialAge/BNav_EC2/DepthDuration/v2_depth_duration_MTurk/v2_DepthDuration_HTML.html#357,357,500,292,1366,768,9-4-2022,23-5-30,4,depth_duration_stimuli/000854_2014-06-09_19-43-13_260595134347_rgbf000066-resize_0/000854_2014-06-09_19-43-13_260595134347_rgbf000066-resize_0-target.png,1000,3.068,0,2293,999,meters,jsons/v1_VE1000_randls_9.json,639613,774540,35,Man
4,830782,DepthScenes,duration_manipulation_targetAtFixation,jsons/v1_VE1000_randls_9.json,http://54.235.29.9/FacialAge/BNav_EC2/DepthDuration/v2_depth_duration_MTurk/v2_DepthDuration_HTML.html#357,357,500,292,1366,768,9-4-2022,23-5-30,5,depth_duration_stimuli/002905_2014-06-03_18-04-43_094959634447_rgbf000151-resize_2/002905_2014-06-03_18-04-43_094959634447_rgbf000151-resize_2-target.png,1000,2.0295,0,2338,999,meters,jsons/v1_VE1000_randls_9.json,639613,774540,35,Man
5,830782,DepthScenes,duration_manipulation_targetAtFixation,jsons/v1_VE1000_randls_9.json,http://54.235.29.9/FacialAge/BNav_EC2/DepthDuration/v2_depth_duration_MTurk/v2_DepthDuration_HTML.html#357,357,500,292,1366,768,9-4-2022,23-5-30,6,depth_duration_stimuli/003423_2014-05-21_10-23-26_094959634447_rgbf002665-resize_2/003423_2014-05-21_10-23-26_094959634447_rgbf002665-resize_2-target.png,1000,3.2575,0,2549,998,meters,jsons/v1_VE1000_randls_9.json,639613,774540,35,Man
6,830782,DepthScenes,duration_manipulation_targetAtFixation,jsons/v1_VE1000_randls_9.json,http://54.235.29.9/FacialAge/BNav_EC2/DepthDuration/v2_depth_duration_MTurk/v2_DepthDuration_HTML.html#357,357,500,292,1366,768,9-4-2022,23-5-30,7,depth_duration_stimuli/002118_2014-06-25_20-32-08_260595134347_rgbf000078-resize_1/002118_2014-06-25_20-32-08_260595134347_rgbf000078-resize_1-target.png,1000,2.6460000000000004,0,2401,998,meters,jsons/v1_VE1000_randls_9.json,639613,774540,35,Man
7,830782,DepthScenes,duration_manipulation_targetAtFixation,jsons/v1_VE1000_randls_9.json,http://54.235.29.9/FacialAge/BNav_EC2/DepthDuration/v2_depth_duration_MTurk/v2_DepthDuration_HTML.html#357,357,500,292,1366,768,9-4-2022,23-5-30,8,depth_duration_stimuli/001516_2014-06-20_16-25-09_260595134347_rgbf000076-resize_2/001516_2014-06-20_16-25-09_260595134347_rgbf000076-resize_2-target.png,1000,1.7445,0,2266,998,meters,jsons/v1_VE1000_randls_9.json,639613,774540,35,Man
8,830782,DepthScenes,duration_manipulation_targetAtFixation,jsons/v1_VE1000_randls_9.json,http://54.235.29.9/FacialAge/BNav_EC2/DepthDuration/v2_depth_duration_MTurk/v2_DepthDuration_HTML.html#357,357,500,292,1366,768,9-4-2022,23-5-30,9,depth_duration_stimuli/002549_2014-06-24_13-41-39_094959634447_rgbf000022-resize_3/002549_2014-06-24_13-41-39_094959634447_rgbf000022-resize_3-target.png,1000,1.476,0,2388,998,meters,jsons/v1_VE1000_randls_9.json,639613,774540,35,Man
9,830782,DepthScenes,duration_manipulation_targetAtFixation,jsons/v1_VE1000_randls_9.json,http://54.235.29.9/FacialAge/BNav_EC2/DepthDuration/v2_depth_duration_MTurk/v2_DepthDuration_HTML.html#357,357,500,292,1366,768,9-4-2022,23-5-30,10,depth_duration_stimuli/002750_2014-06-22_19-08-03_094959634447_rgbf000094-resize_4/002750_2014-06-22_19-08-03_094959634447_rgbf000094-resize_4-target.png,1000,2.354,0,2339,999,meters,jsons/v1_VE1000_randls_9.json,639613,774540,35,Man
10,830782,DepthScenes,duration_manipulation_targetAtFixation,jsons/v1_VE1000_randls_9.json,http://54.235.29.9/FacialAge/BNav_EC2/DepthDuration/v2_depth_duration_MTurk/v2_DepthDuration_HTML.html#357,357,500,292,1366,768,9-4-2022,23-5-30,11,depth_duration_stimuli/000469_2014-06-09_19-42-10_260595134347_rgbf000081-resize_1/000469_2014-06-09_19-42-10_260595134347_rgbf000081-resize_1-target.png,1000,1.652,0,2471,1009,meters,jsons/v1_VE1000_randls_9.json,639613,774540,35,Man
11,830782,DepthScenes,duration_manipulation_targetAtFixation,jsons/v1_VE1000_randls_9.json,http://54.235.29.9/FacialAge/BNav_EC2/DepthDuration/v2_depth_duration_MTurk/v2_DepthDuration_HTML.html#357,357,500,292,1366,768,9-4-2022,23-5-30,12,depth_duration_stimuli/000483_2014-06-09_20-41-45_260595134347_rgbf000116-resize_4/000483_2014-06-09_20-41-45_260595134347_rgbf000116-resize_4-target.png,1000,1.337,0,2464,999,meters,jsons/v1_VE1000_randls_9.json,639613,774540,35,Man
12,830782,DepthScenes,duration_manipulation_targetAtFixation,jsons/v1_VE1000_randls_9.json,http://54.235.29.9/FacialAge/BNav_EC2/DepthDuration/v2_depth_duration_MTurk/v2_DepthDuration_HTML.html#357,357,500,292,1366,768,9-4-2022,23-5-30,13,depth_duration_stimuli/000569_2014-06-09_22-51-47_260595134347_rgbf000141-resize_3/000569_2014-06-09_22-51-47_260595134347_rgbf000141-resize-original.jpg,1000,4.512,0,2294,999,meters,jsons/v1_VE1000_randls_9.json,639613,774540,35,Man
13,830782,DepthScenes,duration_manipulation_targetAtFixation,jsons/v1_VE1000_randls_9.json,http://54.235.29.9/FacialAge/BNav_EC2/DepthDuration/v2_depth_duration_MTurk/v2_DepthDuration_HTML.html#357,357,500,292,1366,768,9-4-2022,23-5-30,14,depth_duration_stimuli/002663_2014-06-13_15-50-26_094959634447_rgbf000075-resize_1/002663_2014-06-13_15-50-26_094959634447_rgbf000075-resize_1-target.png,1000,4.7495,0,2293,998,meters,jsons/v1_VE1000_randls_9.json,639613,774540,35,Man
14,830782,DepthScenes,duration_manipulation_targetAtFixation,jsons/v1_VE1000_randls_9.json,http://54.235.29.9/FacialAge/BNav_EC2/DepthDuration/v2_depth_duration_MTurk/v2_DepthDuration_HTML.html#357,357,500,292,1366,768,9-4-2022,23-5-30,15,depth_duration_stimuli/000409_2014-06-04_19-23-33_260595134347_rgbf000067-resize_0/000409_2014-06-04_19-23-33_260595134347_rgbf000067-resize_0-target.png,1000,3.7335,0,2450,998,meters,jsons/v1_VE1000_randls_9.json,639613,774540,35,Man
15,830782,DepthScenes,duration_manipulation_targetAtFixation,jsons/v1_VE1000_randls_9.json,http://54.235.29.9/FacialAge/BNav_EC2/DepthDuration/v2_depth_duration_MTurk/v2_DepthDuration_HTML.html#357,357,500,292,1366,768,9-4-2022,23-5-30,16,depth_duration_stimuli/002964_2014-06-08_17-46-11_094959634447_rgbf000091-resize_4/002964_2014-06-08_17-46-11_094959634447_rgbf000091-resize_4-target.png,1000,1.6909999999999998,0,3694,998,meters,jsons/v1_VE1000_randls_9.json,639613,774540,35,Man
16,830782,DepthScenes,duration_manipulation_targetAtFixation,jsons/v1_VE1000_randls_9.json,http://54.235.29.9/FacialAge/BNav_EC2/DepthDuration/v2_depth_duration_MTurk/v2_DepthDuration_HTML.html#357,357,500,292,1366,768,9-4-2022,23-5-30,17,depth_duration_stimuli/002136_2014-06-25_21-18-03_260595134347_rgbf000109-resize_3/002136_2014-06-25_21-18-03_260595134347_rgbf000109-resize_3-target.png,1000,1.9569999999999999,0,2427,997,meters,jsons/v1_VE1000_randls_9.json,639613,774540,35,Man
17,830782,DepthScenes,duration_manipulation_targetAtFixation,jsons/v1_VE1000_randls_9.json,http://54.235.29.9/FacialAge/BNav_EC2/DepthDuration/v2_depth_duration_MTurk/v2_DepthDuration_HTML.html#357,357,500,292,1366,768,9-4-2022,23-5-30,18,depth_duration_stimuli/002763_2014-06-22_19-13-10_094959634447_rgbf000075-resize_4/002763_2014-06-22_19-13-10_094959634447_rgbf000075-resize_4-target.png,1000,1.68375,0,2467,999,meters,jsons/v1_VE1000_randls_9.json,639613,774540,35,Man
18,830782,DepthScenes,duration_manipulation_targetAtFixation,jsons/v1_VE1000_randls_9.json,http://54.235.29.9/FacialAge/BNav_EC2/DepthDuration/v2_depth_duration_MTurk/v2_DepthDuration_HTML.html#357,357,500,292,1366,768,9-4-2022,23-5-30,19,depth_duration_stimuli/002209_2014-06-28_18-36-10_260595134347_rgbf000051-resize_1/002209_2014-06-28_18-36-10_260595134347_rgbf000051-resize_1-target.png,1000,2.057,0,2614,998,meters,jsons/v1_VE1000_randls_9.json,639613,774540,35,Man
19,830782,DepthScenes,duration_manipulation_targetAtFixation,jsons/v1_VE1000_randls_9.json,http://54.235.29.9/FacialAge/BNav_EC2/DepthDuration/v2_depth_duration_MTurk/v2_DepthDuration_HTML.html#357,357,500,292,1366,768,9-4-2022,23-5-30,20,depth_duration_stimuli/003534_2014-05-22_15-06-10_094959634447_rgbf000102-resize_4/003534_2014-05-22_15-06-10_094959634447_rgbf000102-resize_4-target.png,1000,1.426,0,2629,993,meters,jsons/v1_VE1000_randls_9.json,639613,774540,35,Man
20,830782,DepthScenes,duration_manipulation_targetAtFixation,jsons/v1_VE1000_randls_9.json,http://54.235.29.9/FacialAge/BNav_EC2/DepthDuration/v2_depth_duration_MTurk/v2_DepthDuration_HTML.html#357,357,500,292,1366,768,9-4-2022,23-5-30,21,depth_duration_stimuli/002637_2014-06-24_14-51-13_094959634447_rgbf000066-resize_4/002637_2014-06-24_14-51-13_094959634447_rgbf000066-resize_4-target.png,1000,1.9955,0,2434,998,meters,jsons/v1_VE1000_randls_9.json,639613,774540,35,Man
21,830782,DepthScenes,duration_manipulation_targetAtFixation,jsons/v1_VE1000_randls_9.json,http://54.235.29.9/FacialAge/BNav_EC2/DepthDuration/v2_depth_duration_MTurk/v2_DepthDuration_HTML.html#357,357,500,292,1366,768,9-4-2022,23-5-30,22,depth_duration_stimuli/001167_2014-06-17_15-38-07_260595134347_rgbf000108-resize_0/001167_2014-06-17_15-38-07_260595134347_rgbf000108-resize_0-target.png,1000,1.8505,0,2439,999,meters,jsons/v1_VE1000_randls_9.json,639613,774540,35,Man
22,830782,DepthScenes,duration_manipulation_targetAtFixation,jsons/v1_VE1000_randls_9.json,http://54.235.29.9/FacialAge/BNav_EC2/DepthDuration/v2_depth_duration_MTurk/v2_DepthDuration_HTML.html#357,357,500,292,1366,768,9-4-2022,23-5-30,23,depth_duration_stimuli/003587_2014-05-23_16-48-02_094959634447_rgbf002384-resize_2/003587_2014-05-23_16-48-02_094959634447_rgbf002384-resize_2-target.png,1000,1.357,0,2527,999,meters,jsons/v1_VE1000_randls_9.json,639613,774540,35,Man
23,830782,DepthScenes,duration_manipulation_targetAtFixation,jsons/v1_VE1000_randls_9.json,http://54.235.29.9/FacialAge/BNav_EC2/DepthDuration/v2_depth_duration_MTurk/v2_DepthDuration_HTML.html#357,357,500,292,1366,768,9-4-2022,23-5-30,24,depth_duration_stimuli/000878_2014-06-08_22-52-45_260595134347_rgbf000045-resize_2/000878_2014-06-08_22-52-45_260595134347_rgbf000045-resize_2-target.png,1000,2.092,0,2387,999,meters,jsons/v1_VE1000_randls_9.json,639613,774540,35,Man
24,830782,DepthScenes,duration_manipulation_targetAtFixation,jsons/v1_VE1000_randls_9.json,http://54.235.29.9/FacialAge/BNav_EC2/DepthDuration/v2_depth_duration_MTurk/v2_DepthDuration_HTML.html#357,357,500,292,1366,768,9-4-2022,23-5-30,25,depth_duration_stimuli/002953_2014-06-08_17-32-18_094959634447_rgbf000059-resize_5/002953_2014-06-08_17-32-18_094959634447_rgbf000059-resize_5-target.png,1000,1.551,0,2722,998,meters,jsons/v1_VE1000_randls_9.json,639613,774540,35,Man
25,830782,DepthScenes,duration_manipulation_targetAtFixation,jsons/v1_VE1000_randls_9.json,http://54.235.29.9/FacialAge/BNav_EC2/DepthDuration/v2_depth_duration_MTurk/v2_DepthDuration_HTML.html#357,357,500,292,1366,768,9-4-2022,23-5-30,26,depth_duration_stimuli/001417_2014-06-19_16-25-36_260595134347_rgbf000115-resize_5/001417_2014-06-19_16-25-36_260595134347_rgbf000115-resize_5-target.png,1000,4.6255,0,2608,998,meters,jsons/v1_VE1000_randls_9.json,639613,774540,35,Man
26,830782,DepthScenes,duration_manipulation_targetAtFixation,jsons/v1_VE1000_randls_9.json,http://54.235.29.9/FacialAge/BNav_EC2/DepthDuration/v2_depth_duration_MTurk/v2_DepthDuration_HTML.html#357,357,500,292,1366,768,9-4-2022,23-5-30,27,depth_duration_stimuli/003081_2014-06-15_15-19-16_094959634447_rgbf000150-resize_1/003081_2014-06-15_15-19-16_094959634447_rgbf000150-resize_1-target.png,1000,3.9125,0,2414,1009,meters,jsons/v1_VE1000_randls_9.json,639613,774540,35,Man
27,830782,DepthScenes,duration_manipulation_targetAtFixation,jsons/v1_VE1000_randls_9.json,http://54.235.29.9/FacialAge/BNav_EC2/DepthDuration/v2_depth_duration_MTurk/v2_DepthDuration_HTML.html#357,357,500,292,1366,768,9-4-2022,23-5-30,28,depth_duration_stimuli/001092_2014-06-15_17-34-58_260595134347_rgbf000171-resize_3/001092_2014-06-15_17-34-58_260595134347_rgbf000171-resize_3-target.png,1000,2.6935,0,2514,997,meters,jsons/v1_VE1000_randls_9.json,639613,774540,35,Man
28,830782,DepthScenes,duration_manipulation_targetAtFixation,jsons/v1_VE1000_randls_9.json,http://54.235.29.9/FacialAge/BNav_EC2/DepthDuration/v2_depth_duration_MTurk/v2_DepthDuration_HTML.html#357,357,500,292,1366,768,9-4-2022,23-5-30,29,depth_duration_stimuli/002545_2014-06-24_13-38-53_094959634447_rgbf000080-resize_4/002545_2014-06-24_13-38-53_094959634447_rgbf000080-resize_4-target.png,1000,1.9205,0,2431,997,meters,jsons/v1_VE1000_randls_9.json,639613,774540,35,Man
29,830782,DepthScenes,duration_manipulation_targetAtFixation,jsons/v1_VE1000_randls_9.json,http://54.235.29.9/FacialAge/BNav_EC2/DepthDuration/v2_depth_duration_MTurk/v2_DepthDuration_HTML.html#357,357,500,292,1366,768,9-4-2022,23-5-30,30,depth_duration_stimuli/000375_2014-06-08_11-17-29_260595134347_rgbf000133-resize_2/000375_2014-06-08_11-17-29_260595134347_rgbf000133-resize-original.jpg,1000,4.718,0,2515,998,meters,jsons/v1_VE1000_randls_9.json,639613,774540,35,Man
30,830782,DepthScenes,duration_manipulation_targetAtFixation,jsons/v1_VE1000_randls_9.json,http://54.235.29.9/FacialAge/BNav_EC2/DepthDuration/v2_depth_duration_MTurk/v2_DepthDuration_HTML.html#357,357,500,292,1366,768,9-4-2022,23-5-30,31,depth_duration_stimuli/003070_2014-06-15_14-58-27_094959634447_rgbf000150-resize_3/003070_2014-06-15_14-58-27_094959634447_rgbf000150-resize_3-target.png,1000,2.9415,0,2410,999,meters,jsons/v1_VE1000_randls_9.json,639613,774540,35,Man
31,830782,DepthScenes,duration_manipulation_targetAtFixation,jsons/v1_VE1000_randls_9.json,http://54.235.29.9/FacialAge/BNav_EC2/DepthDuration/v2_depth_duration_MTurk/v2_DepthDuration_HTML.html#357,357,500,292,1366,768,9-4-2022,23-5-30,32,depth_duration_stimuli/000943_2014-06-09_19-31-07_260595134347_rgbf000128-resize_1/000943_2014-06-09_19-31-07_260595134347_rgbf000128-resize_1-target.png,1000,1.9765,0,2370,999,meters,jsons/v1_VE1000_randls_9.json,639613,774540,35,Man
32,830782,DepthScenes,duration_manipulation_targetAtFixation,jsons/v1_VE1000_randls_9.json,http://54.235.29.9/FacialAge/BNav_EC2/DepthDuration/v2_depth_duration_MTurk/v2_DepthDuration_HTML.html#357,357,500,292,1366,768,9-4-2022,23-5-30,33,depth_duration_stimuli/001110_2014-06-15_17-25-28_260595134347_rgbf000150-resize_1/001110_2014-06-15_17-25-28_260595134347_rgbf000150-resize_1-target.png,1000,1.7115,0,2424,997,meters,jsons/v1_VE1000_randls_9.json,639613,774540,35,Man
33,830782,DepthScenes,duration_manipulation_targetAtFixation,jsons/v1_VE1000_randls_9.json,http://54.235.29.9/FacialAge/BNav_EC2/DepthDuration/v2_depth_duration_MTurk/v2_DepthDuration_HTML.html#357,357,500,292,1366,768,9-4-2022,23-5-30,34,depth_duration_stimuli/000927_2014-06-09_16-32-30_260595134347_rgbf000123-resize_3/000927_2014-06-09_16-32-30_260595134347_rgbf000123-resize_3-target.png,1000,2.6785,0,3813,999,meters,jsons/v1_VE1000_randls_9.json,639613,774540,35,Man
34,830782,DepthScenes,duration_manipulation_targetAtFixation,jsons/v1_VE1000_randls_9.json,http://54.235.29.9/FacialAge/BNav_EC2/DepthDuration/v2_depth_duration_MTurk/v2_DepthDuration_HTML.html#357,357,500,292,1366,768,9-4-2022,23-5-30,35,depth_duration_stimuli/001244_2014-06-17_16-47-45_260595134347_rgbf000030-resize_4/001244_2014-06-17_16-47-45_260595134347_rgbf000030-resize_4-target.png,1000,2.0425,0,2436,998,meters,jsons/v1_VE1000_randls_9.json,639613,774540,35,Man
35,830782,DepthScenes,duration_manipulation_targetAtFixation,jsons/v1_VE1000_randls_9.json,http://54.235.29.9/FacialAge/BNav_EC2/DepthDuration/v2_depth_duration_MTurk/v2_DepthDuration_HTML.html#357,357,500,292,1366,768,9-4-2022,23-5-30,36,depth_duration_stimuli/003495_2014-05-21_16-01-51_094959634447_rgbf000100-resize_3/003495_2014-05-21_16-01-51_094959634447_rgbf000100-resize_3-target.png,1000,1.6255,0,2471,998,meters,jsons/v1_VE1000_randls_9.json,639613,774540,35,Man
36,830782,DepthScenes,duration_manipulation_targetAtFixation,jsons/v1_VE1000_randls_9.json,http://54.235.29.9/FacialAge/BNav_EC2/DepthDuration/v2_depth_duration_MTurk/v2_DepthDuration_HTML.html#357,357,500,292,1366,768,9-4-2022,23-5-30,37,depth_duration_stimuli/002039_2014-06-24_20-22-38_260595134347_rgbf000084-resize_1/002039_2014-06-24_20-22-38_260595134347_rgbf000084-resize_1-target.png,1000,4.408,0,2564,998,meters,jsons/v1_VE1000_randls_9.json,639613,774540,35,Man
37,830782,DepthScenes,duration_manipulation_targetAtFixation,jsons/v1_VE1000_randls_9.json,http://54.235.29.9/FacialAge/BNav_EC2/DepthDuration/v2_depth_duration_MTurk/v2_DepthDuration_HTML.html#357,357,500,292,1366,768,9-4-2022,23-5-30,38,depth_duration_stimuli/002103_2014-06-25_20-00-40_260595134347_rgbf000049-resize_0/002103_2014-06-25_20-00-40_260595134347_rgbf000049-resize_0-target.png,1000,4.105,0,3614,999,meters,jsons/v1_VE1000_randls_9.json,639613,774540,35,Man
38,830782,DepthScenes,duration_manipulation_targetAtFixation,jsons/v1_VE1000_randls_9.json,http://54.235.29.9/FacialAge/BNav_EC2/DepthDuration/v2_depth_duration_MTurk/v2_DepthDuration_HTML.html#357,357,500,292,1366,768,9-4-2022,23-5-30,39,depth_duration_stimuli/001133_2014-06-17_14-49-16_260595134347_rgbf000100-resize_0/001133_2014-06-17_14-49-16_260595134347_rgbf000100-resize_0-target.png,1000,4.2115,0,2821,997,meters,jsons/v1_VE1000_randls_9.json,639613,774540,35,Man
39,830782,DepthScenes,duration_manipulation_targetAtFixation,jsons/v1_VE1000_randls_9.json,http://54.235.29.9/FacialAge/BNav_EC2/DepthDuration/v2_depth_duration_MTurk/v2_DepthDuration_HTML.html#357,357,500,292,1366,768,9-4-2022,23-5-30,40,depth_duration_stimuli/001132_2014-06-17_14-48-54_260595134347_rgbf000100-resize_2/001132_2014-06-17_14-48-54_260595134347_rgbf000100-resize_2-target.png,1000,3.753,0,2526,998,meters,jsons/v1_VE1000_randls_9.json,639613,774540,35,Man
40,830782,DepthScenes,duration_manipulation_targetAtFixation,jsons/v1_VE1000_randls_9.json,http://54.235.29.9/FacialAge/BNav_EC2/DepthDuration/v2_depth_duration_MTurk/v2_DepthDuration_HTML.html#357,357,500,292,1366,768,9-4-2022,23-5-30,41,depth_duration_stimuli/003621_2014-05-23_18-06-08_094959634447_rgbf000101-resize_1/003621_2014-05-23_18-06-08_094959634447_rgbf000101-resize_1-target.png,1000,3.9835,0,2514,998,meters,jsons/v1_VE1000_randls_9.json,639613,774540,35,Man
41,830782,DepthScenes,duration_manipulation_targetAtFixation,jsons/v1_VE1000_randls_9.json,http://54.235.29.9/FacialAge/BNav_EC2/DepthDuration/v2_depth_duration_MTurk/v2_DepthDuration_HTML.html#357,357,500,292,1366,768,9-4-2022,23-5-30,42,depth_duration_stimuli/001584_2014-06-20_11-07-43_260595134347_rgbf000002-resize_1/001584_2014-06-20_11-07-43_260595134347_rgbf000002-resize_1-target.png,1000,3.53,0,4659,1004,meters,jsons/v1_VE1000_randls_9.json,639613,774540,35,Man
42,830782,DepthScenes,duration_manipulation_targetAtFixation,jsons/v1_VE1000_randls_9.json,http://54.235.29.9/FacialAge/BNav_EC2/DepthDuration/v2_depth_duration_MTurk/v2_DepthDuration_HTML.html#357,357,500,292,1366,768,9-4-2022,23-5-30,43,depth_duration_stimuli/001808_2014-06-26_20-50-58_260595134347_rgbf000029-resize_1/001808_2014-06-26_20-50-58_260595134347_rgbf000029-resize_1-target.png,1000,4.249,0,2436,999,meters,jsons/v1_VE1000_randls_9.json,639613,774540,35,Man
43,830782,DepthScenes,duration_manipulation_targetAtFixation,jsons/v1_VE1000_randls_9.json,http://54.235.29.9/FacialAge/BNav_EC2/DepthDuration/v2_depth_duration_MTurk/v2_DepthDuration_HTML.html#357,357,500,292,1366,768,9-4-2022,23-5-30,44,depth_duration_stimuli/001815_2014-06-26_20-52-55_260595134347_rgbf000020-resize_0/001815_2014-06-26_20-52-55_260595134347_rgbf000020-resize_0-target.png,1000,3.3865,0,4181,999,meters,jsons/v1_VE1000_randls_9.json,639613,774540,35,Man
44,830782,DepthScenes,duration_manipulation_targetAtFixation,jsons/v1_VE1000_randls_9.json,http://54.235.29.9/FacialAge/BNav_EC2/DepthDuration/v2_depth_duration_MTurk/v2_DepthDuration_HTML.html#357,357,500,292,1366,768,9-4-2022,23-5-30,45,depth_duration_stimuli/000787_2014-06-08_22-33-53_260595134347_rgbf000175-resize_1/000787_2014-06-08_22-33-53_260595134347_rgbf000175-resize-original.jpg,1000,4.784,0,2492,998,meters,jsons/v1_VE1000_randls_9.json,639613,774540,35,Man
45,830782,DepthScenes,duration_manipulation_targetAtFixation,jsons/v1_VE1000_randls_9.json,http://54.235.29.9/FacialAge/BNav_EC2/DepthDuration/v2_depth_duration_MTurk/v2_DepthDuration_HTML.html#357,357,500,292,1366,768,9-4-2022,23-5-30,46,depth_duration_stimuli/001199_2014-06-17_16-03-48_260595134347_rgbf000077-resize_0/001199_2014-06-17_16-03-48_260595134347_rgbf000077-resize_0-target.png,1000,3.4375,0,2575,998,meters,jsons/v1_VE1000_randls_9.json,639613,774540,35,Man
46,830782,DepthScenes,duration_manipulation_targetAtFixation,jsons/v1_VE1000_randls_9.json,http://54.235.29.9/FacialAge/BNav_EC2/DepthDuration/v2_depth_duration_MTurk/v2_DepthDuration_HTML.html#357,357,500,292,1366,768,9-4-2022,23-5-30,47,depth_duration_stimuli/000502_2014-06-08_23-02-32_260595134347_rgbf000063-resize_4/000502_2014-06-08_23-02-32_260595134347_rgbf000063-resize_4-target.png,1000,2.431,0,2328,999,meters,jsons/v1_VE1000_randls_9.json,639613,774540,35,Man
47,830782,DepthScenes,duration_manipulation_targetAtFixation,jsons/v1_VE1000_randls_9.json,http://54.235.29.9/FacialAge/BNav_EC2/DepthDuration/v2_depth_duration_MTurk/v2_DepthDuration_HTML.html#357,357,500,292,1366,768,9-4-2022,23-5-30,48,depth_duration_stimuli/000788_2014-06-08_22-34-36_260595134347_rgbf000131-resize_1/000788_2014-06-08_22-34-36_260595134347_rgbf000131-resize_1-target.png,1000,3.359,0,4066,997,meters,jsons/v1_VE1000_randls_9.json,639613,774540,35,Man
48,830782,DepthScenes,duration_manipulation_targetAtFixation,jsons/v1_VE1000_randls_9.json,http://54.235.29.9/FacialAge/BNav_EC2/DepthDuration/v2_depth_duration_MTurk/v2_DepthDuration_HTML.html#357,357,500,292,1366,768,9-4-2022,23-5-30,49,depth_duration_stimuli/001235_2014-06-17_16-37-36_260595134347_rgbf000084-resize_4/001235_2014-06-17_16-37-36_260595134347_rgbf000084-resize_4-target.png,1000,3.6605,0,2607,998,meters,jsons/v1_VE1000_randls_9.json,639613,774540,35,Man
49,830782,DepthScenes,duration_manipulation_targetAtFixation,jsons/v1_VE1000_randls_9.json,http://54.235.29.9/FacialAge/BNav_EC2/DepthDuration/v2_depth_duration_MTurk/v2_DepthDuration_HTML.html#357,357,500,292,1366,768,9-4-2022,23-5-30,50,depth_duration_stimuli/000493_2014-06-09_21-01-18_260595134347_rgbf000196-resize_3/000493_2014-06-09_21-01-18_260595134347_rgbf000196-resize_3-target.png,1000,3.44,0,2610,999,meters,jsons/v1_VE1000_randls_9.json,639613,774540,35,Man
50,830782,DepthScenes,duration_manipulation_targetAtFixation,jsons/v1_VE1000_randls_9.json,http://54.235.29.9/FacialAge/BNav_EC2/DepthDuration/v2_depth_duration_MTurk/v2_DepthDuration_HTML.html#357,357,500,292,1366,768,9-4-2022,23-5-30,51,depth_duration_stimuli/000191_2014-05-12_17-07-38_260595134347_rgbf000199-resize_0/000191_2014-05-12_17-07-38_260595134347_rgbf000199-resize_0-target.png,1000,3.7995,0,2331,999,meters,jsons/v1_VE1000_randls_9.json,639613,774540,35,Man
51,830782,DepthScenes,duration_manipulation_targetAtFixation,jsons/v1_VE1000_randls_9.json,http://54.235.29.9/FacialAge/BNav_EC2/DepthDuration/v2_depth_duration_MTurk/v2_DepthDuration_HTML.html#357,357,500,292,1366,768,9-4-2022,23-5-30,52,depth_duration_stimuli/002748_2014-06-22_19-07-22_094959634447_rgbf000078-resize_1/002748_2014-06-22_19-07-22_094959634447_rgbf000078-resize_1-target.png,1000,4.6705,0,2334,998,meters,jsons/v1_VE1000_randls_9.json,639613,774540,35,Man
52,830782,DepthScenes,duration_manipulation_targetAtFixation,jsons/v1_VE1000_randls_9.json,http://54.235.29.9/FacialAge/BNav_EC2/DepthDuration/v2_depth_duration_MTurk/v2_DepthDuration_HTML.html#357,357,500,292,1366,768,9-4-2022,23-5-30,53,depth_duration_stimuli/002995_2014-06-15_12-31-26_094959634447_rgbf000150-resize_1/002995_2014-06-15_12-31-26_094959634447_rgbf000150-resize_1-target.png,1000,3.8360000000000003,0,2351,999,meters,jsons/v1_VE1000_randls_9.json,639613,774540,35,Man
53,830782,DepthScenes,duration_manipulation_targetAtFixation,jsons/v1_VE1000_randls_9.json,http://54.235.29.9/FacialAge/BNav_EC2/DepthDuration/v2_depth_duration_MTurk/v2_DepthDuration_HTML.html#357,357,500,292,1366,768,9-4-2022,23-5-30,54,depth_duration_stimuli/001059_2014-06-08_21-53-27_260595134347_rgbf000061-resize_4/001059_2014-06-08_21-53-27_260595134347_rgbf000061-resize_4-target.png,1000,2.4185,0,2242,999,meters,jsons/v1_VE1000_randls_9.json,639613,774540,35,Man
54,830782,DepthScenes,duration_manipulation_targetAtFixation,jsons/v1_VE1000_randls_9.json,http://54.235.29.9/FacialAge/BNav_EC2/DepthDuration/v2_depth_duration_MTurk/v2_DepthDuration_HTML.html#357,357,500,292,1366,768,9-4-2022,23-5-30,55,depth_duration_stimuli/001032_2014-06-08_13-23-17_260595134347_rgbf000021-resize_3/001032_2014-06-08_13-23-17_260595134347_rgbf000021-resize_3-target.png,1000,3.2725,0,2179,999,meters,jsons/v1_VE1000_randls_9.json,639613,774540,35,Man
55,830782,DepthScenes,duration_manipulation_targetAtFixation,jsons/v1_VE1000_randls_9.json,http://54.235.29.9/FacialAge/BNav_EC2/DepthDuration/v2_depth_duration_MTurk/v2_DepthDuration_HTML.html#357,357,500,292,1366,768,9-4-2022,23-5-30,56,depth_duration_stimuli/002600_2014-06-24_14-27-04_094959634447_rgbf000074-resize_2/002600_2014-06-24_14-27-04_094959634447_rgbf000074-resize_2-target.png,1000,2.7575,0,3552,1009,meters,jsons/v1_VE1000_randls_9.json,639613,774540,35,Man
56,830782,DepthScenes,duration_manipulation_targetAtFixation,jsons/v1_VE1000_randls_9.json,http://54.235.29.9/FacialAge/BNav_EC2/DepthDuration/v2_depth_duration_MTurk/v2_DepthDuration_HTML.html#357,357,500,292,1366,768,9-4-2022,23-5-30,57,depth_duration_stimuli/003228_2014-05-14_13-42-35_094959634447_rgbf000101-resize_1/003228_2014-05-14_13-42-35_094959634447_rgbf000101-resize_1-target.png,1000,1.9680000000000002,0,3768,998,meters,jsons/v1_VE1000_randls_9.json,639613,774540,35,Man
57,830782,DepthScenes,duration_manipulation_targetAtFixation,jsons/v1_VE1000_randls_9.json,http://54.235.29.9/FacialAge/BNav_EC2/DepthDuration/v2_depth_duration_MTurk/v2_DepthDuration_HTML.html#357,357,500,292,1366,768,9-4-2022,23-5-30,58,depth_duration_stimuli/001150_2014-06-17_15-27-34_260595134347_rgbf000108-resize_2/001150_2014-06-17_15-27-34_260595134347_rgbf000108-resize_2-target.png,1000,4.0325,0,2590,1000,meters,jsons/v1_VE1000_randls_9.json,639613,774540,35,Man
58,830782,DepthScenes,duration_manipulation_targetAtFixation,jsons/v1_VE1000_randls_9.json,http://54.235.29.9/FacialAge/BNav_EC2/DepthDuration/v2_depth_duration_MTurk/v2_DepthDuration_HTML.html#357,357,500,292,1366,768,9-4-2022,23-5-30,59,depth_duration_stimuli/000665_2014-06-09_20-42-35_260595134347_rgbf000110-resize_1/000665_2014-06-09_20-42-35_260595134347_rgbf000110-resize_1-target.png,1000,3.057,0,2432,997,meters,jsons/v1_VE1000_randls_9.json,639613,774540,35,Man
59,830782,DepthScenes,duration_manipulation_targetAtFixation,jsons/v1_VE1000_randls_9.json,http://54.235.29.9/FacialAge/BNav_EC2/DepthDuration/v2_depth_duration_MTurk/v2_DepthDuration_HTML.html#357,357,500,292,1366,768,9-4-2022,23-5-30,60,depth_duration_stimuli/002445_2014-06-28_20-32-16_260595134347_rgbf000029-resize_4/002445_2014-06-28_20-32-16_260595134347_rgbf000029-resize_4-target.png,1000,2.5315,0,2638,998,meters,jsons/v1_VE1000_randls_9.json,639613,774540,35,Man
60,830782,DepthScenes,duration_manipulation_targetAtFixation,jsons/v1_VE1000_randls_9.json,http://54.235.29.9/FacialAge/BNav_EC2/DepthDuration/v2_depth_duration_MTurk/v2_DepthDuration_HTML.html#357,357,500,292,1366,768,9-4-2022,23-5-30,61,depth_duration_stimuli/000780_2014-06-08_22-28-29_260595134347_rgbf000126-resize_1/000780_2014-06-08_22-28-29_260595134347_rgbf000126-resize_1-target.png,1000,3.3825,0,2503,999,meters,jsons/v1_VE1000_randls_9.json,639613,774540,35,Man
61,830782,DepthScenes,duration_manipulation_targetAtFixation,jsons/v1_VE1000_randls_9.json,http://54.235.29.9/FacialAge/BNav_EC2/DepthDuration/v2_depth_duration_MTurk/v2_DepthDuration_HTML.html#357,357,500,292,1366,768,9-4-2022,23-5-30,62,depth_duration_stimuli/001164_2014-06-17_15-35-46_260595134347_rgbf000085-resize_3/001164_2014-06-17_15-35-46_260595134347_rgbf000085-resize_3-target.png,1000,2.354,0,2654,998,meters,jsons/v1_VE1000_randls_9.json,639613,774540,35,Man
62,830782,DepthScenes,duration_manipulation_targetAtFixation,jsons/v1_VE1000_randls_9.json,http://54.235.29.9/FacialAge/BNav_EC2/DepthDuration/v2_depth_duration_MTurk/v2_DepthDuration_HTML.html#357,357,500,292,1366,768,9-4-2022,23-5-30,63,depth_duration_stimuli/001136_2014-06-17_15-19-41_260595134347_rgbf000076-resize_3/001136_2014-06-17_15-19-41_260595134347_rgbf000076-resize_3-target.png,1000,1.8655,0,2508,998,meters,jsons/v1_VE1000_randls_9.json,639613,774540,35,Man
63,830782,DepthScenes,duration_manipulation_targetAtFixation,jsons/v1_VE1000_randls_9.json,http://54.235.29.9/FacialAge/BNav_EC2/DepthDuration/v2_depth_duration_MTurk/v2_DepthDuration_HTML.html#357,357,500,292,1366,768,9-4-2022,23-5-30,64,depth_duration_stimuli/002375_2014-06-28_20-13-44_260595134347_rgbf000032-resize_1/002375_2014-06-28_20-13-44_260595134347_rgbf000032-resize_1-target.png,1000,4.0175,0,2592,999,meters,jsons/v1_VE1000_randls_9.json,639613,774540,35,Man
64,830782,DepthScenes,duration_manipulation_targetAtFixation,jsons/v1_VE1000_randls_9.json,http://54.235.29.9/FacialAge/BNav_EC2/DepthDuration/v2_depth_duration_MTurk/v2_DepthDuration_HTML.html#357,357,500,292,1366,768,9-4-2022,23-5-30,65,depth_duration_stimuli/002657_2014-06-13_15-29-54_094959634447_rgbf000150-resize_1/002657_2014-06-13_15-29-54_094959634447_rgbf000150-resize_1-target.png,1000,4.919,0,2375,998,meters,jsons/v1_VE1000_randls_9.json,639613,774540,35,Man
65,830782,DepthScenes,duration_manipulation_targetAtFixation,jsons/v1_VE1000_randls_9.json,http://54.235.29.9/FacialAge/BNav_EC2/DepthDuration/v2_depth_duration_MTurk/v2_DepthDuration_HTML.html#357,357,500,292,1366,768,9-4-2022,23-5-30,66,depth_duration_stimuli/001222_2014-06-17_16-24-06_260595134347_rgbf000073-resize_0/001222_2014-06-17_16-24-06_260595134347_rgbf000073-resize-original.jpg,1000,1.4385,0,3602,998,meters,jsons/v1_VE1000_randls_9.json,639613,774540,35,Man
66,830782,DepthScenes,duration_manipulation_targetAtFixation,jsons/v1_VE1000_randls_9.json,http://54.235.29.9/FacialAge/BNav_EC2/DepthDuration/v2_depth_duration_MTurk/v2_DepthDuration_HTML.html#357,357,500,292,1366,768,9-4-2022,23-5-30,67,depth_duration_stimuli/000692_2014-06-08_13-09-42_260595134347_rgbf000199-resize_2/000692_2014-06-08_13-09-42_260595134347_rgbf000199-resize_2-target.png,1000,3.661,0,2579,998,meters,jsons/v1_VE1000_randls_9.json,639613,774540,35,Man
67,830782,DepthScenes,duration_manipulation_targetAtFixation,jsons/v1_VE1000_randls_9.json,http://54.235.29.9/FacialAge/BNav_EC2/DepthDuration/v2_depth_duration_MTurk/v2_DepthDuration_HTML.html#357,357,500,292,1366,768,9-4-2022,23-5-30,68,depth_duration_stimuli/001094_2014-06-15_17-36-00_260595134347_rgbf000205-resize_0/001094_2014-06-15_17-36-00_260595134347_rgbf000205-resize_0-target.png,1000,4.2175,0,2603,998,meters,jsons/v1_VE1000_randls_9.json,639613,774540,35,Man
68,830782,DepthScenes,duration_manipulation_targetAtFixation,jsons/v1_VE1000_randls_9.json,http://54.235.29.9/FacialAge/BNav_EC2/DepthDuration/v2_depth_duration_MTurk/v2_DepthDuration_HTML.html#357,357,500,292,1366,768,9-4-2022,23-5-30,69,depth_duration_stimuli/000486_2014-06-09_20-47-20_260595134347_rgbf000143-resize_2/000486_2014-06-09_20-47-20_260595134347_rgbf000143-resize_2-target.png,1000,4.8325,0,2541,999,meters,jsons/v1_VE1000_randls_9.json,639613,774540,35,Man
69,830782,DepthScenes,duration_manipulation_targetAtFixation,jsons/v1_VE1000_randls_9.json,http://54.235.29.9/FacialAge/BNav_EC2/DepthDuration/v2_depth_duration_MTurk/v2_DepthDuration_HTML.html#357,357,500,292,1366,768,9-4-2022,23-5-30,70,depth_duration_stimuli/003083_2014-06-15_15-21-03_094959634447_rgbf000063-resize_1/003083_2014-06-15_15-21-03_094959634447_rgbf000063-resize_1-target.png,1000,4.1405,0,2516,999,meters,jsons/v1_VE1000_randls_9.json,639613,774540,35,Man
70,830782,DepthScenes,duration_manipulation_targetAtFixation,jsons/v1_VE1000_randls_9.json,http://54.235.29.9/FacialAge/BNav_EC2/DepthDuration/v2_depth_duration_MTurk/v2_DepthDuration_HTML.html#357,357,500,292,1366,768,9-4-2022,23-5-30,71,depth_duration_stimuli/000522_2014-06-08_13-35-06_260595134347_rgbf000244-resize_1/000522_2014-06-08_13-35-06_260595134347_rgbf000244-resize_1-target.png,1000,2.3715,0,2448,997,meters,jsons/v1_VE1000_randls_9.json,639613,774540,35,Man
71,830782,DepthScenes,duration_manipulation_targetAtFixation,jsons/v1_VE1000_randls_9.json,http://54.235.29.9/FacialAge/BNav_EC2/DepthDuration/v2_depth_duration_MTurk/v2_DepthDuration_HTML.html#357,357,500,292,1366,768,9-4-2022,23-5-30,72,depth_duration_stimuli/002949_2014-06-26_15-57-42_094959634447_rgbf000079-resize_1/002949_2014-06-26_15-57-42_094959634447_rgbf000079-resize_1-target.png,1000,1.8915,0,3454,999,meters,jsons/v1_VE1000_randls_9.json,639613,774540,35,Man
72,830782,DepthScenes,duration_manipulation_targetAtFixation,jsons/v1_VE1000_randls_9.json,http://54.235.29.9/FacialAge/BNav_EC2/DepthDuration/v2_depth_duration_MTurk/v2_DepthDuration_HTML.html#357,357,500,292,1366,768,9-4-2022,23-5-30,73,depth_duration_stimuli/003492_2014-05-21_15-50-55_094959634447_rgbf000828-resize_1/003492_2014-05-21_15-50-55_094959634447_rgbf000828-resize_1-target.png,1000,4.06875,0,2409,1009,meters,jsons/v1_VE1000_randls_9.json,639613,774540,35,Man
73,830782,DepthScenes,duration_manipulation_targetAtFixation,jsons/v1_VE1000_randls_9.json,http://54.235.29.9/FacialAge/BNav_EC2/DepthDuration/v2_depth_duration_MTurk/v2_DepthDuration_HTML.html#357,357,500,292,1366,768,9-4-2022,23-5-30,74,depth_duration_stimuli/002568_2014-06-24_13-59-21_094959634447_rgbf000062-resize_4/002568_2014-06-24_13-59-21_094959634447_rgbf000062-resize_4-target.png,1000,3.015,0,3669,998,meters,jsons/v1_VE1000_randls_9.json,639613,774540,35,Man
74,830782,DepthScenes,duration_manipulation_targetAtFixation,jsons/v1_VE1000_randls_9.json,http://54.235.29.9/FacialAge/BNav_EC2/DepthDuration/v2_depth_duration_MTurk/v2_DepthDuration_HTML.html#357,357,500,292,1366,768,9-4-2022,23-5-30,75,depth_duration_stimuli/001029_2014-06-08_13-17-57_260595134347_rgbf000065-resize_1/001029_2014-06-08_13-17-57_260595134347_rgbf000065-resize_1-target.png,1000,3.0835,0,3778,1007,meters,jsons/v1_VE1000_randls_9.json,639613,774540,35,Man
75,830782,DepthScenes,duration_manipulation_targetAtFixation,jsons/v1_VE1000_randls_9.json,http://54.235.29.9/FacialAge/BNav_EC2/DepthDuration/v2_depth_duration_MTurk/v2_DepthDuration_HTML.html#357,357,500,292,1366,768,9-4-2022,23-5-30,76,depth_duration_stimuli/000677_2014-06-08_23-10-32_260595134347_rgbf000158-resize_6/000677_2014-06-08_23-10-32_260595134347_rgbf000158-resize_6-target.png,1000,3.556,0,3822,988,meters,jsons/v1_VE1000_randls_9.json,639613,774540,35,Man
76,830782,DepthScenes,duration_manipulation_targetAtFixation,jsons/v1_VE1000_randls_9.json,http://54.235.29.9/FacialAge/BNav_EC2/DepthDuration/v2_depth_duration_MTurk/v2_DepthDuration_HTML.html#357,357,500,292,1366,768,9-4-2022,23-5-30,77,depth_duration_stimuli/002788_2014-06-22_19-36-03_094959634447_rgbf000088-resize_2/002788_2014-06-22_19-36-03_094959634447_rgbf000088-resize_2-target.png,1000,1.6465,0,3668,998,meters,jsons/v1_VE1000_randls_9.json,639613,774540,35,Man
77,830782,DepthScenes,duration_manipulation_targetAtFixation,jsons/v1_VE1000_randls_9.json,http://54.235.29.9/FacialAge/BNav_EC2/DepthDuration/v2_depth_duration_MTurk/v2_DepthDuration_HTML.html#357,357,500,292,1366,768,9-4-2022,23-5-30,78,depth_duration_stimuli/000749_2014-06-08_21-55-06_260595134347_rgbf000070-resize_2/000749_2014-06-08_21-55-06_260595134347_rgbf000070-resize_2-target.png,1000,2.331,0,2451,988,meters,jsons/v1_VE1000_randls_9.json,639613,774540,35,Man
78,830782,DepthScenes,duration_manipulation_targetAtFixation,jsons/v1_VE1000_randls_9.json,http://54.235.29.9/FacialAge/BNav_EC2/DepthDuration/v2_depth_duration_MTurk/v2_DepthDuration_HTML.html#357,357,500,292,1366,768,9-4-2022,23-5-30,79,depth_duration_stimuli/002272_2014-06-28_18-53-56_260595134347_rgbf000067-resize_2/002272_2014-06-28_18-53-56_260595134347_rgbf000067-resize_2-target.png,1000,1.138,0,3716,996,meters,jsons/v1_VE1000_randls_9.json,639613,774540,35,Man
79,830782,DepthScenes,duration_manipulation_targetAtFixation,jsons/v1_VE1000_randls_9.json,http://54.235.29.9/FacialAge/BNav_EC2/DepthDuration/v2_depth_duration_MTurk/v2_DepthDuration_HTML.html#357,357,500,292,1366,768,9-4-2022,23-5-30,80,depth_duration_stimuli/001571_2014-06-20_17-21-32_260595134347_rgbf000089-resize_1/001571_2014-06-20_17-21-32_260595134347_rgbf000089-resize_1-target.png,1000,1.86,0,2430,997,meters,jsons/v1_VE1000_randls_9.json,639613,774540,35,Man
80,830782,DepthScenes,duration_manipulation_targetAtFixation,jsons/v1_VE1000_randls_9.json,http://54.235.29.9/FacialAge/BNav_EC2/DepthDuration/v2_depth_duration_MTurk/v2_DepthDuration_HTML.html#357,357,500,292,1366,768,9-4-2022,23-5-30,81,depth_duration_stimuli/001055_2014-06-08_18-45-35_260595134347_rgbf000111-resize_4/001055_2014-06-08_18-45-35_260595134347_rgbf000111-resize_4-target.png,1000,2.4290000000000003,0,3408,999,meters,jsons/v1_VE1000_randls_9.json,639613,774540,35,Man
81,830782,DepthScenes,duration_manipulation_targetAtFixation,jsons/v1_VE1000_randls_9.json,http://54.235.29.9/FacialAge/BNav_EC2/DepthDuration/v2_depth_duration_MTurk/v2_DepthDuration_HTML.html#357,357,500,292,1366,768,9-4-2022,23-5-30,82,depth_duration_stimuli/000549_2014-06-08_22-10-24_260595134347_rgbf000247-resize_3/000549_2014-06-08_22-10-24_260595134347_rgbf000247-resize_3-target.png,1000,1.841,0,2508,989,meters,jsons/v1_VE1000_randls_9.json,639613,774540,35,Man
82,830782,DepthScenes,duration_manipulation_targetAtFixation,jsons/v1_VE1000_randls_9.json,http://54.235.29.9/FacialAge/BNav_EC2/DepthDuration/v2_depth_duration_MTurk/v2_DepthDuration_HTML.html#357,357,500,292,1366,768,9-4-2022,23-5-30,83,depth_duration_stimuli/002784_2014-06-22_19-26-30_094959634447_rgbf000083-resize_3/002784_2014-06-22_19-26-30_094959634447_rgbf000083-resize_3-target.png,1000,1.8046666666667,0,2457,999,meters,jsons/v1_VE1000_randls_9.json,639613,774540,35,Man
83,830782,DepthScenes,duration_manipulation_targetAtFixation,jsons/v1_VE1000_randls_9.json,http://54.235.29.9/FacialAge/BNav_EC2/DepthDuration/v2_depth_duration_MTurk/v2_DepthDuration_HTML.html#357,357,500,292,1366,768,9-4-2022,23-5-30,84,depth_duration_stimuli/001100_2014-06-15_17-46-26_260595134347_rgbf000225-resize_2/001100_2014-06-15_17-46-26_260595134347_rgbf000225-resize_2-target.png,1000,2.24,0,2412,999,meters,jsons/v1_VE1000_randls_9.json,639613,774540,35,Man
84,830782,DepthScenes,duration_manipulation_targetAtFixation,jsons/v1_VE1000_randls_9.json,http://54.235.29.9/FacialAge/BNav_EC2/DepthDuration/v2_depth_duration_MTurk/v2_DepthDuration_HTML.html#357,357,500,292,1366,768,9-4-2022,23-5-30,85,depth_duration_stimuli/001016_2014-06-09_16-16-10_260595134347_rgbf000112-resize_5/001016_2014-06-09_16-16-10_260595134347_rgbf000112-resize_5-target.png,1000,1.6565,0,2341,998,meters,jsons/v1_VE1000_randls_9.json,639613,774540,35,Man
85,830782,DepthScenes,duration_manipulation_targetAtFixation,jsons/v1_VE1000_randls_9.json,http://54.235.29.9/FacialAge/BNav_EC2/DepthDuration/v2_depth_duration_MTurk/v2_DepthDuration_HTML.html#357,357,500,292,1366,768,9-4-2022,23-5-30,86,depth_duration_stimuli/002340_2014-06-28_20-05-46_260595134347_rgbf000113-resize_0/002340_2014-06-28_20-05-46_260595134347_rgbf000113-resize_0-target.png,1000,2.4735,0,2625,998,meters,jsons/v1_VE1000_randls_9.json,639613,774540,35,Man
86,830782,DepthScenes,duration_manipulation_targetAtFixation,jsons/v1_VE1000_randls_9.json,http://54.235.29.9/FacialAge/BNav_EC2/DepthDuration/v2_depth_duration_MTurk/v2_DepthDuration_HTML.html#357,357,500,292,1366,768,9-4-2022,23-5-30,87,depth_duration_stimuli/002043_2014-06-24_20-29-38_260595134347_rgbf000039-resize_4/002043_2014-06-24_20-29-38_260595134347_rgbf000039-resize_4-target.png,1000,2.8435,0,2612,999,meters,jsons/v1_VE1000_randls_9.json,639613,774540,35,Man
87,830782,DepthScenes,duration_manipulation_targetAtFixation,jsons/v1_VE1000_randls_9.json,http://54.235.29.9/FacialAge/BNav_EC2/DepthDuration/v2_depth_duration_MTurk/v2_DepthDuration_HTML.html#357,357,500,292,1366,768,9-4-2022,23-5-30,88,depth_duration_stimuli/003048_2014-06-15_13-49-43_094959634447_rgbf000150-resize_1/003048_2014-06-15_13-49-43_094959634447_rgbf000150-resize_1-target.png,1000,4.0035,0,2466,999,meters,jsons/v1_VE1000_randls_9.json,639613,774540,35,Man
88,830782,DepthScenes,duration_manipulation_targetAtFixation,jsons/v1_VE1000_randls_9.json,http://54.235.29.9/FacialAge/BNav_EC2/DepthDuration/v2_depth_duration_MTurk/v2_DepthDuration_HTML.html#357,357,500,292,1366,768,9-4-2022,23-5-30,89,depth_duration_stimuli/002570_2014-06-24_13-59-54_094959634447_rgbf000059-resize_0/002570_2014-06-24_13-59-54_094959634447_rgbf000059-resize_0-target.png,1000,4.037,0,3104,998,meters,jsons/v1_VE1000_randls_9.json,639613,774540,35,Man
89,830782,DepthScenes,duration_manipulation_targetAtFixation,jsons/v1_VE1000_randls_9.json,http://54.235.29.9/FacialAge/BNav_EC2/DepthDuration/v2_depth_duration_MTurk/v2_DepthDuration_HTML.html#357,357,500,292,1366,768,9-4-2022,23-5-30,90,depth_duration_stimuli/002467_2014-06-28_20-38-07_260595134347_rgbf000026-resize_2/002467_2014-06-28_20-38-07_260595134347_rgbf000026-resize_2-target.png,1000,4.742,0,2716,999,meters,jsons/v1_VE1000_randls_9.json,639613,774540,35,Man
90,830782,DepthScenes,duration_manipulation_targetAtFixation,jsons/v1_VE1000_randls_9.json,http://54.235.29.9/FacialAge/BNav_EC2/DepthDuration/v2_depth_duration_MTurk/v2_DepthDuration_HTML.html#357,357,500,292,1366,768,9-4-2022,23-5-30,91,depth_duration_stimuli/000736_2014-06-08_18-24-15_260595134347_rgbf000206-resize_3/000736_2014-06-08_18-24-15_260595134347_rgbf000206-resize_3-target.png,1000,3.515,0,2532,999,meters,jsons/v1_VE1000_randls_9.json,639613,774540,35,Man
91,830782,DepthScenes,duration_manipulation_targetAtFixation,jsons/v1_VE1000_randls_9.json,http://54.235.29.9/FacialAge/BNav_EC2/DepthDuration/v2_depth_duration_MTurk/v2_DepthDuration_HTML.html#357,357,500,292,1366,768,9-4-2022,23-5-30,92,depth_duration_stimuli/000137_2014-05-20_17-04-49_260595134347_rgbf000120-resize_1/000137_2014-05-20_17-04-49_260595134347_rgbf000120-resize_1-target.png,1000,3.786,0,2752,998,meters,jsons/v1_VE1000_randls_9.json,639613,774540,35,Man
92,830782,DepthScenes,duration_manipulation_targetAtFixation,jsons/v1_VE1000_randls_9.json,http://54.235.29.9/FacialAge/BNav_EC2/DepthDuration/v2_depth_duration_MTurk/v2_DepthDuration_HTML.html#357,357,500,292,1366,768,9-4-2022,23-5-30,93,depth_duration_stimuli/001806_2014-06-26_20-50-20_260595134347_rgbf000091-resize_1/001806_2014-06-26_20-50-20_260595134347_rgbf000091-resize_1-target.png,1000,2.7305,0,2622,999,meters,jsons/v1_VE1000_randls_9.json,639613,774540,35,Man
93,830782,DepthScenes,duration_manipulation_targetAtFixation,jsons/v1_VE1000_randls_9.json,http://54.235.29.9/FacialAge/BNav_EC2/DepthDuration/v2_depth_duration_MTurk/v2_DepthDuration_HTML.html#357,357,500,292,1366,768,9-4-2022,23-5-30,94,depth_duration_stimuli/001617_2014-06-20_11-35-32_260595134347_rgbf000066-resize_1/001617_2014-06-20_11-35-32_260595134347_rgbf000066-resize_1-target.png,1000,3.7910000000000004,0,2645,999,meters,jsons/v1_VE1000_randls_9.json,639613,774540,35,Man
94,830782,DepthScenes,duration_manipulation_targetAtFixation,jsons/v1_VE1000_randls_9.json,http://54.235.29.9/FacialAge/BNav_EC2/DepthDuration/v2_depth_duration_MTurk/v2_DepthDuration_HTML.html#357,357,500,292,1366,768,9-4-2022,23-5-30,95,depth_duration_stimuli/001810_2014-06-26_20-51-35_260595134347_rgbf000040-resize_3/001810_2014-06-26_20-51-35_260595134347_rgbf000040-resize_3-target.png,1000,2.2525,0,2390,1000,meters,jsons/v1_VE1000_randls_9.json,639613,774540,35,Man
95,830782,DepthScenes,duration_manipulation_targetAtFixation,jsons/v1_VE1000_randls_9.json,http://54.235.29.9/FacialAge/BNav_EC2/DepthDuration/v2_depth_duration_MTurk/v2_DepthDuration_HTML.html#357,357,500,292,1366,768,9-4-2022,23-5-30,96,depth_duration_stimuli/003010_2014-06-15_12-54-35_094959634447_rgbf000112-resize_0/003010_2014-06-15_12-54-35_094959634447_rgbf000112-resize_0-target.png,1000,3.1185,0,2408,999,meters,jsons/v1_VE1000_randls_9.json,639613,774540,35,Man
96,830782,DepthScenes,duration_manipulation_targetAtFixation,jsons/v1_VE1000_randls_9.json,http://54.235.29.9/FacialAge/BNav_EC2/DepthDuration/v2_depth_duration_MTurk/v2_DepthDuration_HTML.html#357,357,500,292,1366,768,9-4-2022,23-5-30,97,depth_duration_stimuli/000009_2014-05-26_14-32-05_260595134347_rgbf000034-resize_3/000009_2014-05-26_14-32-05_260595134347_rgbf000034-resize_3-target.png,1000,3.8715,0,3880,997,meters,jsons/v1_VE1000_randls_9.json,639613,774540,35,Man
97,830782,DepthScenes,duration_manipulation_targetAtFixation,jsons/v1_VE1000_randls_9.json,http://54.235.29.9/FacialAge/BNav_EC2/DepthDuration/v2_depth_duration_MTurk/v2_DepthDuration_HTML.html#357,357,500,292,1366,768,9-4-2022,23-5-30,98,depth_duration_stimuli/001828_2014-06-26_21-40-03_260595134347_rgbf000024-resize_0/001828_2014-06-26_21-40-03_260595134347_rgbf000024-resize_0-target.png,1000,4.8260000000000005,0,2389,1000,meters,jsons/v1_VE1000_randls_9.json,639613,774540,35,Man
98,830782,DepthScenes,duration_manipulation_targetAtFixation,jsons/v1_VE1000_randls_9.json,http://54.235.29.9/FacialAge/BNav_EC2/DepthDuration/v2_depth_duration_MTurk/v2_DepthDuration_HTML.html#357,357,500,292,1366,768,9-4-2022,23-5-30,99,depth_duration_stimuli/001540_2014-06-20_17-01-05_260595134347_rgbf000086-resize_2/001540_2014-06-20_17-01-05_260595134347_rgbf000086-resize-original.jpg,1000,1.459,0,2172,999,meters,jsons/v1_VE1000_randls_9.json,639613,774540,35,Man
99,830782,DepthScenes,duration_manipulation_targetAtFixation,jsons/v1_VE1000_randls_9.json,http://54.235.29.9/FacialAge/BNav_EC2/DepthDuration/v2_depth_duration_MTurk/v2_DepthDuration_HTML.html#357,357,500,292,1366,768,9-4-2022,23-5-30,100,depth_duration_stimuli/000917_2014-06-09_22-45-29_260595134347_rgbf000149-resize_3/000917_2014-06-09_22-45-29_260595134347_rgbf000149-resize_3-target.png,1000,4.1865,0,2085,1000,meters,jsons/v1_VE1000_randls_9.json,639613,774540,35,Man
100,830782,DepthScenes,duration_manipulation_targetAtFixation,jsons/v1_VE1000_randls_9.json,http://54.235.29.9/FacialAge/BNav_EC2/DepthDuration/v2_depth_duration_MTurk/v2_DepthDuration_HTML.html#357,357,500,292,1366,768,9-4-2022,23-5-30,101,depth_duration_stimuli/002323_2014-06-28_20-01-54_260595134347_rgbf000051-resize_4/002323_2014-06-28_20-01-54_260595134347_rgbf000051-resize_4-target.png,1000,3.7310000000000003,0,2078,999,meters,jsons/v1_VE1000_randls_9.json,639613,774540,35,Man
101,830782,DepthScenes,duration_manipulation_targetAtFixation,jsons/v1_VE1000_randls_9.json,http://54.235.29.9/FacialAge/BNav_EC2/DepthDuration/v2_depth_duration_MTurk/v2_DepthDuration_HTML.html#357,357,500,292,1366,768,9-4-2022,23-5-30,102,depth_duration_stimuli/002509_2014-06-24_13-19-22_094959634447_rgbf000077-resize_0/002509_2014-06-24_13-19-22_094959634447_rgbf000077-resize_0-target.png,1000,1.3065,0,2836,1004,meters,jsons/v1_VE1000_randls_9.json,639613,774540,35,Man
102,830782,DepthScenes,duration_manipulation_targetAtFixation,jsons/v1_VE1000_randls_9.json,http://54.235.29.9/FacialAge/BNav_EC2/DepthDuration/v2_depth_duration_MTurk/v2_DepthDuration_HTML.html#357,357,500,292,1366,768,9-4-2022,23-5-30,103,depth_duration_stimuli/003338_2014-05-20_11-01-23_094959634447_rgbf000051-resize_6/003338_2014-05-20_11-01-23_094959634447_rgbf000051-resize_6-target.png,1000,1.693,0,2165,998,meters,jsons/v1_VE1000_randls_9.json,639613,774540,35,Man
103,830782,DepthScenes,duration_manipulation_targetAtFixation,jsons/v1_VE1000_randls_9.json,http://54.235.29.9/FacialAge/BNav_EC2/DepthDuration/v2_depth_duration_MTurk/v2_DepthDuration_HTML.html#357,357,500,292,1366,768,9-4-2022,23-5-30,104,depth_duration_stimuli/002988_2014-06-15_12-24-20_094959634447_rgbf000150-resize_1/002988_2014-06-15_12-24-20_094959634447_rgbf000150-resize_1-target.png,1000,4.7669999999999995,0,2149,999,meters,jsons/v1_VE1000_randls_9.json,639613,774540,35,Man
104,830782,DepthScenes,duration_manipulation_targetAtFixation,jsons/v1_VE1000_randls_9.json,http://54.235.29.9/FacialAge/BNav_EC2/DepthDuration/v2_depth_duration_MTurk/v2_DepthDuration_HTML.html#357,357,500,292,1366,768,9-4-2022,23-5-30,105,depth_duration_stimuli/001052_2014-06-08_18-24-54_260595134347_rgbf000130-resize_1/001052_2014-06-08_18-24-54_260595134347_rgbf000130-resize_1-target.png,1000,4.1045,0,2210,998,meters,jsons/v1_VE1000_randls_9.json,639613,774540,35,Man
105,830782,DepthScenes,duration_manipulation_targetAtFixation,jsons/v1_VE1000_randls_9.json,http://54.235.29.9/FacialAge/BNav_EC2/DepthDuration/v2_depth_duration_MTurk/v2_DepthDuration_HTML.html#357,357,500,292,1366,768,9-4-2022,23-5-30,106,depth_duration_stimuli/001555_2014-06-20_17-12-10_260595134347_rgbf000065-resize_4/001555_2014-06-20_17-12-10_260595134347_rgbf000065-resize_4-target.png,1000,1.633,0,3264,999,meters,jsons/v1_VE1000_randls_9.json,639613,774540,35,Man
106,830782,DepthScenes,duration_manipulation_targetAtFixation,jsons/v1_VE1000_randls_9.json,http://54.235.29.9/FacialAge/BNav_EC2/DepthDuration/v2_depth_duration_MTurk/v2_DepthDuration_HTML.html#357,357,500,292,1366,768,9-4-2022,23-5-30,107,depth_duration_stimuli/000103_2014-05-14_22-01-17_260595134347_rgbf000152-resize_5/000103_2014-05-14_22-01-17_260595134347_rgbf000152-resize_5-target.png,1000,1.993,0,2196,999,meters,jsons/v1_VE1000_randls_9.json,639613,774540,35,Man
107,830782,DepthScenes,duration_manipulation_targetAtFixation,jsons/v1_VE1000_randls_9.json,http://54.235.29.9/FacialAge/BNav_EC2/DepthDuration/v2_depth_duration_MTurk/v2_DepthDuration_HTML.html#357,357,500,292,1366,768,9-4-2022,23-5-30,108,depth_duration_stimuli/000929_2014-06-09_16-33-19_260595134347_rgbf000139-resize_0/000929_2014-06-09_16-33-19_260595134347_rgbf000139-resize_0-target.png,1000,2.8680000000000003,0,2241,996,meters,jsons/v1_VE1000_randls_9.json,639613,774540,35,Man
108,830782,DepthScenes,duration_manipulation_targetAtFixation,jsons/v1_VE1000_randls_9.json,http://54.235.29.9/FacialAge/BNav_EC2/DepthDuration/v2_depth_duration_MTurk/v2_DepthDuration_HTML.html#357,357,500,292,1366,768,9-4-2022,23-5-30,109,depth_duration_stimuli/000457_2014-06-08_16-52-43_260595134347_rgbf000199-resize_1/000457_2014-06-08_16-52-43_260595134347_rgbf000199-resize_1-target.png,1000,3.6489999999999996,0,2231,999,meters,jsons/v1_VE1000_randls_9.json,639613,774540,35,Man
109,830782,DepthScenes,duration_manipulation_targetAtFixation,jsons/v1_VE1000_randls_9.json,http://54.235.29.9/FacialAge/BNav_EC2/DepthDuration/v2_depth_duration_MTurk/v2_DepthDuration_HTML.html#357,357,500,292,1366,768,9-4-2022,23-5-30,110,depth_duration_stimuli/002213_2014-06-28_18-37-58_260595134347_rgbf000055-resize_1/002213_2014-06-28_18-37-58_260595134347_rgbf000055-resize_1-target.png,1000,3.62,0,2222,999,meters,jsons/v1_VE1000_randls_9.json,639613,774540,35,Man
110,830782,DepthScenes,duration_manipulation_targetAtFixation,jsons/v1_VE1000_randls_9.json,http://54.235.29.9/FacialAge/BNav_EC2/DepthDuration/v2_depth_duration_MTurk/v2_DepthDuration_HTML.html#357,357,500,292,1366,768,9-4-2022,23-5-30,111,depth_duration_stimuli/000691_2014-06-08_13-08-50_260595134347_rgbf000132-resize_3/000691_2014-06-08_13-08-50_260595134347_rgbf000132-resize_3-target.png,1000,4.1530000000000005,0,2235,1001,meters,jsons/v1_VE1000_randls_9.json,639613,774540,35,Man
111,830782,DepthScenes,duration_manipulation_targetAtFixation,jsons/v1_VE1000_randls_9.json,http://54.235.29.9/FacialAge/BNav_EC2/DepthDuration/v2_depth_duration_MTurk/v2_DepthDuration_HTML.html#357,357,500,292,1366,768,9-4-2022,23-5-30,112,depth_duration_stimuli/002153_2014-06-25_21-27-18_260595134347_rgbf000038-resize_5/002153_2014-06-25_21-27-18_260595134347_rgbf000038-resize_5-target.png,1000,2.505,0,2217,999,meters,jsons/v1_VE1000_randls_9.json,639613,774540,35,Man
112,830782,DepthScenes,duration_manipulation_targetAtFixation,jsons/v1_VE1000_randls_9.json,http://54.235.29.9/FacialAge/BNav_EC2/DepthDuration/v2_depth_duration_MTurk/v2_DepthDuration_HTML.html#357,357,500,292,1366,768,9-4-2022,23-5-30,113,depth_duration_stimuli/002660_2014-06-13_15-44-18_094959634447_rgbf001878-resize_2/002660_2014-06-13_15-44-18_094959634447_rgbf001878-resize_2-target.png,1000,3.576,0,2338,1001,meters,jsons/v1_VE1000_randls_9.json,639613,774540,35,Man
113,830782,DepthScenes,duration_manipulation_targetAtFixation,jsons/v1_VE1000_randls_9.json,http://54.235.29.9/FacialAge/BNav_EC2/DepthDuration/v2_depth_duration_MTurk/v2_DepthDuration_HTML.html#357,357,500,292,1366,768,9-4-2022,23-5-30,114,depth_duration_stimuli/000810_2014-06-08_17-20-01_260595134347_rgbf000105-resize_0/000810_2014-06-08_17-20-01_260595134347_rgbf000105-resize_0-target.png,1000,1.4865,0,2191,999,meters,jsons/v1_VE1000_randls_9.json,639613,774540,35,Man
114,830782,DepthScenes,duration_manipulation_targetAtFixation,jsons/v1_VE1000_randls_9.json,http://54.235.29.9/FacialAge/BNav_EC2/DepthDuration/v2_depth_duration_MTurk/v2_DepthDuration_HTML.html#357,357,500,292,1366,768,9-4-2022,23-5-30,115,depth_duration_stimuli/001214_2014-06-17_16-13-55_260595134347_rgbf000111-resize_0/001214_2014-06-17_16-13-55_260595134347_rgbf000111-resize_0-target.png,1000,2.6505,0,2197,999,meters,jsons/v1_VE1000_randls_9.json,639613,774540,35,Man
115,830782,DepthScenes,duration_manipulation_targetAtFixation,jsons/v1_VE1000_randls_9.json,http://54.235.29.9/FacialAge/BNav_EC2/DepthDuration/v2_depth_duration_MTurk/v2_DepthDuration_HTML.html#357,357,500,292,1366,768,9-4-2022,23-5-30,116,depth_duration_stimuli/001170_2014-06-17_15-43-44_260595134347_rgbf000096-resize_6/001170_2014-06-17_15-43-44_260595134347_rgbf000096-resize-original.jpg,1000,1.1909999999999998,0,2200,998,meters,jsons/v1_VE1000_randls_9.json,639613,774540,35,Man
116,830782,DepthScenes,duration_manipulation_targetAtFixation,jsons/v1_VE1000_randls_9.json,http://54.235.29.9/FacialAge/BNav_EC2/DepthDuration/v2_depth_duration_MTurk/v2_DepthDuration_HTML.html#357,357,500,292,1366,768,9-4-2022,23-5-30,117,depth_duration_stimuli/000642_2014-06-08_16-59-25_260595134347_rgbf000098-resize_2/000642_2014-06-08_16-59-25_260595134347_rgbf000098-resize_2-target.png,1000,2.8815,0,2199,999,meters,jsons/v1_VE1000_randls_9.json,639613,774540,35,Man
117,830782,DepthScenes,duration_manipulation_targetAtFixation,jsons/v1_VE1000_randls_9.json,http://54.235.29.9/FacialAge/BNav_EC2/DepthDuration/v2_depth_duration_MTurk/v2_DepthDuration_HTML.html#357,357,500,292,1366,768,9-4-2022,23-5-30,118,depth_duration_stimuli/002425_2014-06-28_20-27-29_260595134347_rgbf000031-resize_8/002425_2014-06-28_20-27-29_260595134347_rgbf000031-resize_8-target.png,1000,3.8960000000000004,0,3257,997,meters,jsons/v1_VE1000_randls_9.json,639613,774540,35,Man
118,830782,DepthScenes,duration_manipulation_targetAtFixation,jsons/v1_VE1000_randls_9.json,http://54.235.29.9/FacialAge/BNav_EC2/DepthDuration/v2_depth_duration_MTurk/v2_DepthDuration_HTML.html#357,357,500,292,1366,768,9-4-2022,23-5-30,119,depth_duration_stimuli/002057_2014-06-24_21-00-13_260595134347_rgbf000120-resize_1/002057_2014-06-24_21-00-13_260595134347_rgbf000120-resize_1-target.png,1000,2.967,0,2241,998,meters,jsons/v1_VE1000_randls_9.json,639613,774540,35,Man
119,830782,DepthScenes,duration_manipulation_targetAtFixation,jsons/v1_VE1000_randls_9.json,http://54.235.29.9/FacialAge/BNav_EC2/DepthDuration/v2_depth_duration_MTurk/v2_DepthDuration_HTML.html#357,357,500,292,1366,768,9-4-2022,23-5-30,120,depth_duration_stimuli/000709_2014-06-08_13-51-55_260595134347_rgbf000068-resize_3/000709_2014-06-08_13-51-55_260595134347_rgbf000068-resize_3-target.png,1000,1.8030000000000002,0,2256,994,meters,jsons/v1_VE1000_randls_9.json,639613,774540,35,Man
120,830782,DepthScenes,duration_manipulation_targetAtFixation,jsons/v1_VE1000_randls_9.json,http://54.235.29.9/FacialAge/BNav_EC2/DepthDuration/v2_depth_duration_MTurk/v2_DepthDuration_HTML.html#357,357,500,292,1366,768,9-4-2022,23-5-30,121,depth_duration_stimuli/001011_2014-06-08_23-18-54_260595134347_rgbf000044-resize_4/001011_2014-06-08_23-18-54_260595134347_rgbf000044-resize_4-target.png,1000,2.4730000000000003,0,2149,999,meters,jsons/v1_VE1000_randls_9.json,639613,774540,35,Man
121,830782,DepthScenes,duration_manipulation_targetAtFixation,jsons/v1_VE1000_randls_9.json,http://54.235.29.9/FacialAge/BNav_EC2/DepthDuration/v2_depth_duration_MTurk/v2_DepthDuration_HTML.html#357,357,500,292,1366,768,9-4-2022,23-5-30,122,depth_duration_stimuli/002875_2014-06-01_15-19-00_094959634447_rgbf000151-resize_1/002875_2014-06-01_15-19-00_094959634447_rgbf000151-resize_1-target.png,1000,1.9675,0,2132,999,meters,jsons/v1_VE1000_randls_9.json,639613,774540,35,Man
122,830782,DepthScenes,duration_manipulation_targetAtFixation,jsons/v1_VE1000_randls_9.json,http://54.235.29.9/FacialAge/BNav_EC2/DepthDuration/v2_depth_duration_MTurk/v2_DepthDuration_HTML.html#357,357,500,292,1366,768,9-4-2022,23-5-30,123,depth_duration_stimuli/001056_2014-06-08_18-46-44_260595134347_rgbf000068-resize_0/001056_2014-06-08_18-46-44_260595134347_rgbf000068-resize_0-target.png,1000,2.6625,0,2163,998,meters,jsons/v1_VE1000_randls_9.json,639613,774540,35,Man
123,830782,DepthScenes,duration_manipulation_targetAtFixation,jsons/v1_VE1000_randls_9.json,http://54.235.29.9/FacialAge/BNav_EC2/DepthDuration/v2_depth_duration_MTurk/v2_DepthDuration_HTML.html#357,357,500,292,1366,768,9-4-2022,23-5-30,124,depth_duration_stimuli/002199_2014-06-28_18-33-56_260595134347_rgbf000074-resize_0/002199_2014-06-28_18-33-56_260595134347_rgbf000074-resize_0-target.png,1000,1.996,0,2255,999,meters,jsons/v1_VE1000_randls_9.json,639613,774540,35,Man
124,830782,DepthScenes,duration_manipulation_targetAtFixation,jsons/v1_VE1000_randls_9.json,http://54.235.29.9/FacialAge/BNav_EC2/DepthDuration/v2_depth_duration_MTurk/v2_DepthDuration_HTML.html#357,357,500,292,1366,768,9-4-2022,23-5-30,125,depth_duration_stimuli/000436_2014-06-09_22-25-11_260595134347_rgbf000137-resize_1/000436_2014-06-09_22-25-11_260595134347_rgbf000137-resize_1-target.png,1000,4.0705,0,2173,999,meters,jsons/v1_VE1000_randls_9.json,639613,774540,35,Man
125,830782,DepthScenes,duration_manipulation_targetAtFixation,jsons/v1_VE1000_randls_9.json,http://54.235.29.9/FacialAge/BNav_EC2/DepthDuration/v2_depth_duration_MTurk/v2_DepthDuration_HTML.html#357,357,500,292,1366,768,9-4-2022,23-5-30,126,depth_duration_stimuli/002444_2014-06-28_20-32-08_260595134347_rgbf000027-resize_0/002444_2014-06-28_20-32-08_260595134347_rgbf000027-resize_0-target.png,1000,4.388999999999999,0,2123,998,meters,jsons/v1_VE1000_randls_9.json,639613,774540,35,Man
126,830782,DepthScenes,duration_manipulation_targetAtFixation,jsons/v1_VE1000_randls_9.json,http://54.235.29.9/FacialAge/BNav_EC2/DepthDuration/v2_depth_duration_MTurk/v2_DepthDuration_HTML.html#357,357,500,292,1366,768,9-4-2022,23-5-30,127,depth_duration_stimuli/000739_2014-06-08_18-45-58_260595134347_rgbf000068-resize_1/000739_2014-06-08_18-45-58_260595134347_rgbf000068-resize_1-target.png,1000,3.534,0,2193,998,meters,jsons/v1_VE1000_randls_9.json,639613,774540,35,Man
127,830782,DepthScenes,duration_manipulation_targetAtFixation,jsons/v1_VE1000_randls_9.json,http://54.235.29.9/FacialAge/BNav_EC2/DepthDuration/v2_depth_duration_MTurk/v2_DepthDuration_HTML.html#357,357,500,292,1366,768,9-4-2022,23-5-30,128,depth_duration_stimuli/000734_2014-06-08_17-39-11_260595134347_rgbf000128-resize_2/000734_2014-06-08_17-39-11_260595134347_rgbf000128-resize_2-target.png,1000,4.098,0,2249,999,meters,jsons/v1_VE1000_randls_9.json,639613,774540,35,Man
128,830782,DepthScenes,duration_manipulation_targetAtFixation,jsons/v1_VE1000_randls_9.json,http://54.235.29.9/FacialAge/BNav_EC2/DepthDuration/v2_depth_duration_MTurk/v2_DepthDuration_HTML.html#357,357,500,292,1366,768,9-4-2022,23-5-30,129,depth_duration_stimuli/001066_2014-06-08_22-03-20_260595134347_rgbf000066-resize_4/001066_2014-06-08_22-03-20_260595134347_rgbf000066-resize_4-target.png,1000,4.2330000000000005,0,3438,999,meters,jsons/v1_VE1000_randls_9.json,639613,774540,35,Man
129,830782,DepthScenes,duration_manipulation_targetAtFixation,jsons/v1_VE1000_randls_9.json,http://54.235.29.9/FacialAge/BNav_EC2/DepthDuration/v2_depth_duration_MTurk/v2_DepthDuration_HTML.html#357,357,500,292,1366,768,9-4-2022,23-5-30,130,depth_duration_stimuli/000742_2014-06-08_18-48-09_260595134347_rgbf000164-resize_4/000742_2014-06-08_18-48-09_260595134347_rgbf000164-resize_4-target.png,1000,4.632,0,16037,1001,meters,jsons/v1_VE1000_randls_9.json,639613,774540,35,Man
130,830782,DepthScenes,duration_manipulation_targetAtFixation,jsons/v1_VE1000_randls_9.json,http://54.235.29.9/FacialAge/BNav_EC2/DepthDuration/v2_depth_duration_MTurk/v2_DepthDuration_HTML.html#357,357,500,292,1366,768,9-4-2022,23-5-30,131,depth_duration_stimuli/000368_2014-06-09_15-53-01_260595134347_rgbf000155-resize_2/000368_2014-06-09_15-53-01_260595134347_rgbf000155-resize_2-target.png,1000,2.4859999999999998,0,36643,1001,meters,jsons/v1_VE1000_randls_9.json,639613,774540,35,Man
131,830782,DepthScenes,duration_manipulation_targetAtFixation,jsons/v1_VE1000_randls_9.json,http://54.235.29.9/FacialAge/BNav_EC2/DepthDuration/v2_depth_duration_MTurk/v2_DepthDuration_HTML.html#357,357,500,292,1366,768,9-4-2022,23-5-30,132,depth_duration_stimuli/002678_2014-06-13_16-15-32_094959634447_rgbf000151-resize_6/002678_2014-06-13_16-15-32_094959634447_rgbf000151-resize_6-target.png,1000,2.1830000000000003,0,2371,998,meters,jsons/v1_VE1000_randls_9.json,639613,774540,35,Man
132,830782,DepthScenes,duration_manipulation_targetAtFixation,jsons/v1_VE1000_randls_9.json,http://54.235.29.9/FacialAge/BNav_EC2/DepthDuration/v2_depth_duration_MTurk/v2_DepthDuration_HTML.html#357,357,500,292,1366,768,9-4-2022,23-5-30,133,depth_duration_stimuli/000682_2014-06-08_23-14-58_260595134347_rgbf000041-resize_5/000682_2014-06-08_23-14-58_260595134347_rgbf000041-resize_5-target.png,1000,2.7239999999999998,0,6122,992,meters,jsons/v1_VE1000_randls_9.json,639613,774540,35,Man
133,830782,DepthScenes,duration_manipulation_targetAtFixation,jsons/v1_VE1000_randls_9.json,http://54.235.29.9/FacialAge/BNav_EC2/DepthDuration/v2_depth_duration_MTurk/v2_DepthDuration_HTML.html#357,357,500,292,1366,768,9-4-2022,23-5-30,134,depth_duration_stimuli/001650_2014-06-20_12-09-00_260595134347_rgbf000087-resize_3/001650_2014-06-20_12-09-00_260595134347_rgbf000087-resize_3-target.png,1000,1.9505,0,2449,999,meters,jsons/v1_VE1000_randls_9.json,639613,774540,35,Man
134,830782,DepthScenes,duration_manipulation_targetAtFixation,jsons/v1_VE1000_randls_9.json,http://54.235.29.9/FacialAge/BNav_EC2/DepthDuration/v2_depth_duration_MTurk/v2_DepthDuration_HTML.html#357,357,500,292,1366,768,9-4-2022,23-5-30,135,depth_duration_stimuli/002072_2014-06-24_21-48-06_260595134347_rgbf000115-resize_0/002072_2014-06-24_21-48-06_260595134347_rgbf000115-resize-original.jpg,1000,4.702,0,2346,998,meters,jsons/v1_VE1000_randls_9.json,639613,774540,35,Man
135,830782,DepthScenes,duration_manipulation_targetAtFixation,jsons/v1_VE1000_randls_9.json,http://54.235.29.9/FacialAge/BNav_EC2/DepthDuration/v2_depth_duration_MTurk/v2_DepthDuration_HTML.html#357,357,500,292,1366,768,9-4-2022,23-5-30,136,depth_duration_stimuli/001158_2014-06-17_15-32-16_260595134347_rgbf000138-resize_2/001158_2014-06-17_15-32-16_260595134347_rgbf000138-resize_2-target.png,1000,4.5315,0,2231,998,meters,jsons/v1_VE1000_randls_9.json,639613,774540,35,Man
136,830782,DepthScenes,duration_manipulation_targetAtFixation,jsons/v1_VE1000_randls_9.json,http://54.235.29.9/FacialAge/BNav_EC2/DepthDuration/v2_depth_duration_MTurk/v2_DepthDuration_HTML.html#357,357,500,292,1366,768,9-4-2022,23-5-30,137,depth_duration_stimuli/000556_2014-06-09_22-42-56_260595134347_rgbf000214-resize_1/000556_2014-06-09_22-42-56_260595134347_rgbf000214-resize_1-target.png,1000,4.8415,0,3435,998,meters,jsons/v1_VE1000_randls_9.json,639613,774540,35,Man
137,830782,DepthScenes,duration_manipulation_targetAtFixation,jsons/v1_VE1000_randls_9.json,http://54.235.29.9/FacialAge/BNav_EC2/DepthDuration/v2_depth_duration_MTurk/v2_DepthDuration_HTML.html#357,357,500,292,1366,768,9-4-2022,23-5-30,138,depth_duration_stimuli/002279_2014-06-28_18-55-32_260595134347_rgbf000040-resize_5/002279_2014-06-28_18-55-32_260595134347_rgbf000040-resize_5-target.png,1000,1.5043333333333,0,3122,1010,meters,jsons/v1_VE1000_randls_9.json,639613,774540,35,Man
138,830782,DepthScenes,duration_manipulation_targetAtFixation,jsons/v1_VE1000_randls_9.json,http://54.235.29.9/FacialAge/BNav_EC2/DepthDuration/v2_depth_duration_MTurk/v2_DepthDuration_HTML.html#357,357,500,292,1366,768,9-4-2022,23-5-30,139,depth_duration_stimuli/000635_2014-06-08_16-38-42_260595134347_rgbf000106-resize_1/000635_2014-06-08_16-38-42_260595134347_rgbf000106-resize_1-target.png,1000,2.074,0,2486,998,meters,jsons/v1_VE1000_randls_9.json,639613,774540,35,Man
139,830782,DepthScenes,duration_manipulation_targetAtFixation,jsons/v1_VE1000_randls_9.json,http://54.235.29.9/FacialAge/BNav_EC2/DepthDuration/v2_depth_duration_MTurk/v2_DepthDuration_HTML.html#357,357,500,292,1366,768,9-4-2022,23-5-30,140,depth_duration_stimuli/000906_2014-06-08_13-35-43_260595134347_rgbf000155-resize_1/000906_2014-06-08_13-35-43_260595134347_rgbf000155-resize_1-target.png,1000,2.8489999999999998,0,61310,999,meters,jsons/v1_VE1000_randls_9.json,639613,774540,35,Man
140,830782,DepthScenes,duration_manipulation_targetAtFixation,jsons/v1_VE1000_randls_9.json,http://54.235.29.9/FacialAge/BNav_EC2/DepthDuration/v2_depth_duration_MTurk/v2_DepthDuration_HTML.html#357,357,500,292,1366,768,9-4-2022,23-5-30,141,depth_duration_stimuli/002805_2014-06-22_19-54-03_094959634447_rgbf000079-resize_1/002805_2014-06-22_19-54-03_094959634447_rgbf000079-resize_1-target.png,1000,3.1439999999999997,0,3790,999,meters,jsons/v1_VE1000_randls_9.json,639613,774540,35,Man
141,830782,DepthScenes,duration_manipulation_targetAtFixation,jsons/v1_VE1000_randls_9.json,http://54.235.29.9/FacialAge/BNav_EC2/DepthDuration/v2_depth_duration_MTurk/v2_DepthDuration_HTML.html#357,357,500,292,1366,768,9-4-2022,23-5-30,142,depth_duration_stimuli/003292_2014-05-14_21-53-49_094959634447_rgbf000100-resize_2/003292_2014-05-14_21-53-49_094959634447_rgbf000100-resize_2-target.png,1000,3.4815,0,3309,988,meters,jsons/v1_VE1000_randls_9.json,639613,774540,35,Man
142,830782,DepthScenes,duration_manipulation_targetAtFixation,jsons/v1_VE1000_randls_9.json,http://54.235.29.9/FacialAge/BNav_EC2/DepthDuration/v2_depth_duration_MTurk/v2_DepthDuration_HTML.html#357,357,500,292,1366,768,9-4-2022,23-5-30,143,depth_duration_stimuli/002639_2014-06-24_14-51-37_094959634447_rgbf000074-resize_4/002639_2014-06-24_14-51-37_094959634447_rgbf000074-resize_4-target.png,1000,4.0375,0,3241,1007,meters,jsons/v1_VE1000_randls_9.json,639613,774540,35,Man
143,830782,DepthScenes,duration_manipulation_targetAtFixation,jsons/v1_VE1000_randls_9.json,http://54.235.29.9/FacialAge/BNav_EC2/DepthDuration/v2_depth_duration_MTurk/v2_DepthDuration_HTML.html#357,357,500,292,1366,768,9-4-2022,23-5-30,144,depth_duration_stimuli/001570_2014-06-20_17-21-09_260595134347_rgbf000135-resize_4/001570_2014-06-20_17-21-09_260595134347_rgbf000135-resize_4-target.png,1000,4.467,0,2557,998,meters,jsons/v1_VE1000_randls_9.json,639613,774540,35,Man
144,830782,DepthScenes,duration_manipulation_targetAtFixation,jsons/v1_VE1000_randls_9.json,http://54.235.29.9/FacialAge/BNav_EC2/DepthDuration/v2_depth_duration_MTurk/v2_DepthDuration_HTML.html#357,357,500,292,1366,768,9-4-2022,23-5-30,145,depth_duration_stimuli/001392_2014-06-19_16-07-59_260595134347_rgbf000046-resize_1/001392_2014-06-19_16-07-59_260595134347_rgbf000046-resize_1-target.png,1000,4.135,0,5589,999,meters,jsons/v1_VE1000_randls_9.json,639613,774540,35,Man
145,830782,DepthScenes,duration_manipulation_targetAtFixation,jsons/v1_VE1000_randls_9.json,http://54.235.29.9/FacialAge/BNav_EC2/DepthDuration/v2_depth_duration_MTurk/v2_DepthDuration_HTML.html#357,357,500,292,1366,768,9-4-2022,23-5-30,146,depth_duration_stimuli/001498_2014-06-19_17-45-14_260595134347_rgbf000129-resize_4/001498_2014-06-19_17-45-14_260595134347_rgbf000129-resize-original.jpg,1000,1.4075,0,4331,999,meters,jsons/v1_VE1000_randls_9.json,639613,774540,35,Man
146,830782,DepthScenes,duration_manipulation_targetAtFixation,jsons/v1_VE1000_randls_9.json,http://54.235.29.9/FacialAge/BNav_EC2/DepthDuration/v2_depth_duration_MTurk/v2_DepthDuration_HTML.html#357,357,500,292,1366,768,9-4-2022,23-5-30,147,depth_duration_stimuli/002989_2014-06-15_12-25-03_094959634447_rgbf000150-resize_3/002989_2014-06-15_12-25-03_094959634447_rgbf000150-resize_3-target.png,1000,4.1975,0,2886,994,meters,jsons/v1_VE1000_randls_9.json,639613,774540,35,Man
147,830782,DepthScenes,duration_manipulation_targetAtFixation,jsons/v1_VE1000_randls_9.json,http://54.235.29.9/FacialAge/BNav_EC2/DepthDuration/v2_depth_duration_MTurk/v2_DepthDuration_HTML.html#357,357,500,292,1366,768,9-4-2022,23-5-30,148,depth_duration_stimuli/000866_2014-06-09_20-45-42_260595134347_rgbf000139-resize_1/000866_2014-06-09_20-45-42_260595134347_rgbf000139-resize_1-target.png,1000,3.2155,0,2605,1010,meters,jsons/v1_VE1000_randls_9.json,639613,774540,35,Man
148,830782,DepthScenes,duration_manipulation_targetAtFixation,jsons/v1_VE1000_randls_9.json,http://54.235.29.9/FacialAge/BNav_EC2/DepthDuration/v2_depth_duration_MTurk/v2_DepthDuration_HTML.html#357,357,500,292,1366,768,9-4-2022,23-5-30,149,depth_duration_stimuli/000506_2014-06-08_23-21-00_260595134347_rgbf000070-resize_7/000506_2014-06-08_23-21-00_260595134347_rgbf000070-resize_7-target.png,1000,4.0585,0,2449,999,meters,jsons/v1_VE1000_randls_9.json,639613,774540,35,Man
149,830782,DepthScenes,duration_manipulation_targetAtFixation,jsons/v1_VE1000_randls_9.json,http://54.235.29.9/FacialAge/BNav_EC2/DepthDuration/v2_depth_duration_MTurk/v2_DepthDuration_HTML.html#357,357,500,292,1366,768,9-4-2022,23-5-30,150,depth_duration_stimuli/003079_2014-06-15_15-18-20_094959634447_rgbf000152-resize_8/003079_2014-06-15_15-18-20_094959634447_rgbf000152-resize_8-target.png,1000,2.8775,0,2268,999,meters,jsons/v1_VE1000_randls_9.json,639613,774540,35,Man
150,830782,DepthScenes,duration_manipulation_targetAtFixation,jsons/v1_VE1000_randls_9.json,http://54.235.29.9/FacialAge/BNav_EC2/DepthDuration/v2_depth_duration_MTurk/v2_DepthDuration_HTML.html#357,357,500,292,1366,768,9-4-2022,23-5-30,151,depth_duration_stimuli/001449_2014-06-19_17-01-27_260595134347_rgbf000116-resize_2/001449_2014-06-19_17-01-27_260595134347_rgbf000116-resize_2-target.png,1000,3.452,0,2270,989,meters,jsons/v1_VE1000_randls_9.json,639613,774540,35,Man
151,830782,DepthScenes,duration_manipulation_targetAtFixation,jsons/v1_VE1000_randls_9.json,http://54.235.29.9/FacialAge/BNav_EC2/DepthDuration/v2_depth_duration_MTurk/v2_DepthDuration_HTML.html#357,357,500,292,1366,768,9-4-2022,23-5-30,152,depth_duration_stimuli/001450_2014-06-19_17-02-03_260595134347_rgbf000203-resize_4/001450_2014-06-19_17-02-03_260595134347_rgbf000203-resize_4-target.png,1000,4.0106666666667,0,2381,999,meters,jsons/v1_VE1000_randls_9.json,639613,774540,35,Man
152,830782,DepthScenes,duration_manipulation_targetAtFixation,jsons/v1_VE1000_randls_9.json,http://54.235.29.9/FacialAge/BNav_EC2/DepthDuration/v2_depth_duration_MTurk/v2_DepthDuration_HTML.html#357,357,500,292,1366,768,9-4-2022,23-5-30,153,depth_duration_stimuli/000773_2014-06-08_22-24-54_260595134347_rgbf000093-resize_1/000773_2014-06-08_22-24-54_260595134347_rgbf000093-resize_1-target.png,1000,4.973,0,2115,984,meters,jsons/v1_VE1000_randls_9.json,639613,774540,35,Man
153,830782,DepthScenes,duration_manipulation_targetAtFixation,jsons/v1_VE1000_randls_9.json,http://54.235.29.9/FacialAge/BNav_EC2/DepthDuration/v2_depth_duration_MTurk/v2_DepthDuration_HTML.html#357,357,500,292,1366,768,9-4-2022,23-5-30,154,depth_duration_stimuli/002414_2014-06-28_20-24-58_260595134347_rgbf000067-resize_4/002414_2014-06-28_20-24-58_260595134347_rgbf000067-resize_4-target.png,1000,4.363,0,3007,999,meters,jsons/v1_VE1000_randls_9.json,639613,774540,35,Man
154,830782,DepthScenes,duration_manipulation_targetAtFixation,jsons/v1_VE1000_randls_9.json,http://54.235.29.9/FacialAge/BNav_EC2/DepthDuration/v2_depth_duration_MTurk/v2_DepthDuration_HTML.html#357,357,500,292,1366,768,9-4-2022,23-5-30,155,depth_duration_stimuli/002630_2014-06-24_14-47-50_094959634447_rgbf000055-resize_1/002630_2014-06-24_14-47-50_094959634447_rgbf000055-resize_1-target.png,1000,3.0095,0,2386,999,meters,jsons/v1_VE1000_randls_9.json,639613,774540,35,Man
155,830782,DepthScenes,duration_manipulation_targetAtFixation,jsons/v1_VE1000_randls_9.json,http://54.235.29.9/FacialAge/BNav_EC2/DepthDuration/v2_depth_duration_MTurk/v2_DepthDuration_HTML.html#357,357,500,292,1366,768,9-4-2022,23-5-30,156,depth_duration_stimuli/002758_2014-06-22_19-11-20_094959634447_rgbf000128-resize_1/002758_2014-06-22_19-11-20_094959634447_rgbf000128-resize_1-target.png,1000,2.555,0,2496,998,meters,jsons/v1_VE1000_randls_9.json,639613,774540,35,Man
156,830782,DepthScenes,duration_manipulation_targetAtFixation,jsons/v1_VE1000_randls_9.json,http://54.235.29.9/FacialAge/BNav_EC2/DepthDuration/v2_depth_duration_MTurk/v2_DepthDuration_HTML.html#357,357,500,292,1366,768,9-4-2022,23-5-30,157,depth_duration_stimuli/000447_2014-06-08_16-15-46_260595134347_rgbf000130-resize_1/000447_2014-06-08_16-15-46_260595134347_rgbf000130-resize_1-target.png,1000,4.479,0,2296,1004,meters,jsons/v1_VE1000_randls_9.json,639613,774540,35,Man
157,830782,DepthScenes,duration_manipulation_targetAtFixation,jsons/v1_VE1000_randls_9.json,http://54.235.29.9/FacialAge/BNav_EC2/DepthDuration/v2_depth_duration_MTurk/v2_DepthDuration_HTML.html#357,357,500,292,1366,768,9-4-2022,23-5-30,158,depth_duration_stimuli/001447_2014-06-19_17-00-32_260595134347_rgbf000082-resize_5/001447_2014-06-19_17-00-32_260595134347_rgbf000082-resize_5-target.png,1000,4.13775,0,2497,1008,meters,jsons/v1_VE1000_randls_9.json,639613,774540,35,Man
158,830782,DepthScenes,duration_manipulation_targetAtFixation,jsons/v1_VE1000_randls_9.json,http://54.235.29.9/FacialAge/BNav_EC2/DepthDuration/v2_depth_duration_MTurk/v2_DepthDuration_HTML.html#357,357,500,292,1366,768,9-4-2022,23-5-30,159,depth_duration_stimuli/000414_2014-06-04_19-49-13_260595134347_rgbf000044-resize_0/000414_2014-06-04_19-49-13_260595134347_rgbf000044-resize_0-target.png,1000,4.329,0,2363,1009,meters,jsons/v1_VE1000_randls_9.json,639613,774540,35,Man
159,830782,DepthScenes,duration_manipulation_targetAtFixation,jsons/v1_VE1000_randls_9.json,http://54.235.29.9/FacialAge/BNav_EC2/DepthDuration/v2_depth_duration_MTurk/v2_DepthDuration_HTML.html#357,357,500,292,1366,768,9-4-2022,23-5-30,160,depth_duration_stimuli/003129_2014-05-12_10-48-10_094959634447_rgbf000100-resize_0/003129_2014-05-12_10-48-10_094959634447_rgbf000100-resize_0-target.png,1000,4.9305,0,2498,991,meters,jsons/v1_VE1000_randls_9.json,639613,774540,35,Man
160,830782,DepthScenes,duration_manipulation_targetAtFixation,jsons/v1_VE1000_randls_9.json,http://54.235.29.9/FacialAge/BNav_EC2/DepthDuration/v2_depth_duration_MTurk/v2_DepthDuration_HTML.html#357,357,500,292,1366,768,9-4-2022,23-5-30,161,depth_duration_stimuli/002725_2014-06-22_11-47-51_094959634447_rgbf000070-resize_1/002725_2014-06-22_11-47-51_094959634447_rgbf000070-resize_1-target.png,1000,2.195,0,2431,987,meters,jsons/v1_VE1000_randls_9.json,639613,774540,35,Man
161,830782,DepthScenes,duration_manipulation_targetAtFixation,jsons/v1_VE1000_randls_9.json,http://54.235.29.9/FacialAge/BNav_EC2/DepthDuration/v2_depth_duration_MTurk/v2_DepthDuration_HTML.html#357,357,500,292,1366,768,9-4-2022,23-5-30,162,depth_duration_stimuli/002344_2014-06-28_20-06-29_260595134347_rgbf000030-resize_1/002344_2014-06-28_20-06-29_260595134347_rgbf000030-resize_1-target.png,1000,1.5795,0,2168,1007,meters,jsons/v1_VE1000_randls_9.json,639613,774540,35,Man
162,830782,DepthScenes,duration_manipulation_targetAtFixation,jsons/v1_VE1000_randls_9.json,http://54.235.29.9/FacialAge/BNav_EC2/DepthDuration/v2_depth_duration_MTurk/v2_DepthDuration_HTML.html#357,357,500,292,1366,768,9-4-2022,23-5-30,163,depth_duration_stimuli/001175_2014-06-17_15-45-55_260595134347_rgbf000129-resize_4/001175_2014-06-17_15-45-55_260595134347_rgbf000129-resize_4-target.png,1000,4.255,0,2716,999,meters,jsons/v1_VE1000_randls_9.json,639613,774540,35,Man
163,830782,DepthScenes,duration_manipulation_targetAtFixation,jsons/v1_VE1000_randls_9.json,http://54.235.29.9/FacialAge/BNav_EC2/DepthDuration/v2_depth_duration_MTurk/v2_DepthDuration_HTML.html#357,357,500,292,1366,768,9-4-2022,23-5-30,164,depth_duration_stimuli/003490_2014-05-21_15-50-11_094959634447_rgbf000101-resize_3/003490_2014-05-21_15-50-11_094959634447_rgbf000101-resize_3-target.png,1000,3.6445,0,2599,1009,meters,jsons/v1_VE1000_randls_9.json,639613,774540,35,Man
