,subjID,experimentName,versionName,sequenceName,url,selected_row,windowWidth,windowHeight,screenWidth,screenHeight,startDate,startTime,trial,stimulus,duration,actual_depth,depth_estimate,trial_RT,log_sceneDuration,unitSelection,seq_filepath,experimentTime,totalTime,age,gender
0,831052,DepthScenes,duration_manipulation_targetAtFixation,jsons/v1_VE250_randls_54_rotated.json,http://54.235.29.9/FacialAge/BNav_EC2/DepthDuration/v2_depth_duration_MTurk/v2_DepthDuration_HTML.html#44,44,1920,969,1920,1080,8-20-2022,11-15-9,1,depth_duration_stimuli/000137_2014-05-20_17-04-49_260595134347_rgbf000120-resize_1/000137_2014-05-20_17-04-49_260595134347_rgbf000120-resize_1-target.png,250,3.786,6,3590,264,feet,jsons/v1_VE250_randls_54_rotated.json,484647,629205,41,Man
1,831052,DepthScenes,duration_manipulation_targetAtFixation,jsons/v1_VE250_randls_54_rotated.json,http://54.235.29.9/FacialAge/BNav_EC2/DepthDuration/v2_depth_duration_MTurk/v2_DepthDuration_HTML.html#44,44,1920,969,1920,1080,8-20-2022,11-15-9,2,depth_duration_stimuli/000736_2014-06-08_18-24-15_260595134347_rgbf000206-resize_3/000736_2014-06-08_18-24-15_260595134347_rgbf000206-resize_3-target.png,250,3.515,4,13844,239,feet,jsons/v1_VE250_randls_54_rotated.json,484647,629205,41,Man
2,831052,DepthScenes,duration_manipulation_targetAtFixation,jsons/v1_VE250_randls_54_rotated.json,http://54.235.29.9/FacialAge/BNav_EC2/DepthDuration/v2_depth_duration_MTurk/v2_DepthDuration_HTML.html#44,44,1920,969,1920,1080,8-20-2022,11-15-9,3,depth_duration_stimuli/001815_2014-06-26_20-52-55_260595134347_rgbf000020-resize_0/001815_2014-06-26_20-52-55_260595134347_rgbf000020-resize_0-target.png,250,3.3865,7,2815,247,feet,jsons/v1_VE250_randls_54_rotated.json,484647,629205,41,Man
3,831052,DepthScenes,duration_manipulation_targetAtFixation,jsons/v1_VE250_randls_54_rotated.json,http://54.235.29.9/FacialAge/BNav_EC2/DepthDuration/v2_depth_duration_MTurk/v2_DepthDuration_HTML.html#44,44,1920,969,1920,1080,8-20-2022,11-15-9,4,depth_duration_stimuli/001808_2014-06-26_20-50-58_260595134347_rgbf000029-resize_1/001808_2014-06-26_20-50-58_260595134347_rgbf000029-resize_1-target.png,250,4.249,6,3048,255,feet,jsons/v1_VE250_randls_54_rotated.json,484647,629205,41,Man
4,831052,DepthScenes,duration_manipulation_targetAtFixation,jsons/v1_VE250_randls_54_rotated.json,http://54.235.29.9/FacialAge/BNav_EC2/DepthDuration/v2_depth_duration_MTurk/v2_DepthDuration_HTML.html#44,44,1920,969,1920,1080,8-20-2022,11-15-9,5,depth_duration_stimuli/001132_2014-06-17_14-48-54_260595134347_rgbf000100-resize_2/001132_2014-06-17_14-48-54_260595134347_rgbf000100-resize_2-target.png,250,3.753,5,2473,235,feet,jsons/v1_VE250_randls_54_rotated.json,484647,629205,41,Man
5,831052,DepthScenes,duration_manipulation_targetAtFixation,jsons/v1_VE250_randls_54_rotated.json,http://54.235.29.9/FacialAge/BNav_EC2/DepthDuration/v2_depth_duration_MTurk/v2_DepthDuration_HTML.html#44,44,1920,969,1920,1080,8-20-2022,11-15-9,6,depth_duration_stimuli/001133_2014-06-17_14-49-16_260595134347_rgbf000100-resize_0/001133_2014-06-17_14-49-16_260595134347_rgbf000100-resize_0-target.png,250,4.2115,7,2251,250,feet,jsons/v1_VE250_randls_54_rotated.json,484647,629205,41,Man
6,831052,DepthScenes,duration_manipulation_targetAtFixation,jsons/v1_VE250_randls_54_rotated.json,http://54.235.29.9/FacialAge/BNav_EC2/DepthDuration/v2_depth_duration_MTurk/v2_DepthDuration_HTML.html#44,44,1920,969,1920,1080,8-20-2022,11-15-9,7,depth_duration_stimuli/001235_2014-06-17_16-37-36_260595134347_rgbf000084-resize_4/001235_2014-06-17_16-37-36_260595134347_rgbf000084-resize_4-target.png,250,3.6605,5,2001,240,feet,jsons/v1_VE250_randls_54_rotated.json,484647,629205,41,Man
7,831052,DepthScenes,duration_manipulation_targetAtFixation,jsons/v1_VE250_randls_54_rotated.json,http://54.235.29.9/FacialAge/BNav_EC2/DepthDuration/v2_depth_duration_MTurk/v2_DepthDuration_HTML.html#44,44,1920,969,1920,1080,8-20-2022,11-15-9,8,depth_duration_stimuli/000788_2014-06-08_22-34-36_260595134347_rgbf000131-resize_1/000788_2014-06-08_22-34-36_260595134347_rgbf000131-resize_1-target.png,250,3.359,3,1686,250,feet,jsons/v1_VE250_randls_54_rotated.json,484647,629205,41,Man
8,831052,DepthScenes,duration_manipulation_targetAtFixation,jsons/v1_VE250_randls_54_rotated.json,http://54.235.29.9/FacialAge/BNav_EC2/DepthDuration/v2_depth_duration_MTurk/v2_DepthDuration_HTML.html#44,44,1920,969,1920,1080,8-20-2022,11-15-9,9,depth_duration_stimuli/001094_2014-06-15_17-36-00_260595134347_rgbf000205-resize_0/001094_2014-06-15_17-36-00_260595134347_rgbf000205-resize_0-target.png,250,4.2175,6,1908,249,feet,jsons/v1_VE250_randls_54_rotated.json,484647,629205,41,Man
9,831052,DepthScenes,duration_manipulation_targetAtFixation,jsons/v1_VE250_randls_54_rotated.json,http://54.235.29.9/FacialAge/BNav_EC2/DepthDuration/v2_depth_duration_MTurk/v2_DepthDuration_HTML.html#44,44,1920,969,1920,1080,8-20-2022,11-15-9,10,depth_duration_stimuli/000692_2014-06-08_13-09-42_260595134347_rgbf000199-resize_2/000692_2014-06-08_13-09-42_260595134347_rgbf000199-resize_2-target.png,250,3.661,12,3107,248,feet,jsons/v1_VE250_randls_54_rotated.json,484647,629205,41,Man
10,831052,DepthScenes,duration_manipulation_targetAtFixation,jsons/v1_VE250_randls_54_rotated.json,http://54.235.29.9/FacialAge/BNav_EC2/DepthDuration/v2_depth_duration_MTurk/v2_DepthDuration_HTML.html#44,44,1920,969,1920,1080,8-20-2022,11-15-9,11,depth_duration_stimuli/001571_2014-06-20_17-21-32_260595134347_rgbf000089-resize_1/001571_2014-06-20_17-21-32_260595134347_rgbf000089-resize_1-target.png,250,1.86,2,1676,239,feet,jsons/v1_VE250_randls_54_rotated.json,484647,629205,41,Man
11,831052,DepthScenes,duration_manipulation_targetAtFixation,jsons/v1_VE250_randls_54_rotated.json,http://54.235.29.9/FacialAge/BNav_EC2/DepthDuration/v2_depth_duration_MTurk/v2_DepthDuration_HTML.html#44,44,1920,969,1920,1080,8-20-2022,11-15-9,12,depth_duration_stimuli/002272_2014-06-28_18-53-56_260595134347_rgbf000067-resize_2/002272_2014-06-28_18-53-56_260595134347_rgbf000067-resize_2-target.png,250,1.138,1,1865,243,feet,jsons/v1_VE250_randls_54_rotated.json,484647,629205,41,Man
12,831052,DepthScenes,duration_manipulation_targetAtFixation,jsons/v1_VE250_randls_54_rotated.json,http://54.235.29.9/FacialAge/BNav_EC2/DepthDuration/v2_depth_duration_MTurk/v2_DepthDuration_HTML.html#44,44,1920,969,1920,1080,8-20-2022,11-15-9,13,depth_duration_stimuli/000191_2014-05-12_17-07-38_260595134347_rgbf000199-resize_0/000191_2014-05-12_17-07-38_260595134347_rgbf000199-resize_0-target.png,250,3.7995,7,2229,244,feet,jsons/v1_VE250_randls_54_rotated.json,484647,629205,41,Man
13,831052,DepthScenes,duration_manipulation_targetAtFixation,jsons/v1_VE250_randls_54_rotated.json,http://54.235.29.9/FacialAge/BNav_EC2/DepthDuration/v2_depth_duration_MTurk/v2_DepthDuration_HTML.html#44,44,1920,969,1920,1080,8-20-2022,11-15-9,14,depth_duration_stimuli/000493_2014-06-09_21-01-18_260595134347_rgbf000196-resize_3/000493_2014-06-09_21-01-18_260595134347_rgbf000196-resize_3-target.png,250,3.44,4,2820,250,feet,jsons/v1_VE250_randls_54_rotated.json,484647,629205,41,Man
14,831052,DepthScenes,duration_manipulation_targetAtFixation,jsons/v1_VE250_randls_54_rotated.json,http://54.235.29.9/FacialAge/BNav_EC2/DepthDuration/v2_depth_duration_MTurk/v2_DepthDuration_HTML.html#44,44,1920,969,1920,1080,8-20-2022,11-15-9,15,depth_duration_stimuli/000780_2014-06-08_22-28-29_260595134347_rgbf000126-resize_1/000780_2014-06-08_22-28-29_260595134347_rgbf000126-resize_1-target.png,250,3.3825,10,2809,256,feet,jsons/v1_VE250_randls_54_rotated.json,484647,629205,41,Man
15,831052,DepthScenes,duration_manipulation_targetAtFixation,jsons/v1_VE250_randls_54_rotated.json,http://54.235.29.9/FacialAge/BNav_EC2/DepthDuration/v2_depth_duration_MTurk/v2_DepthDuration_HTML.html#44,44,1920,969,1920,1080,8-20-2022,11-15-9,16,depth_duration_stimuli/002445_2014-06-28_20-32-16_260595134347_rgbf000029-resize_4/002445_2014-06-28_20-32-16_260595134347_rgbf000029-resize_4-target.png,250,2.5315,1,1718,250,feet,jsons/v1_VE250_randls_54_rotated.json,484647,629205,41,Man
16,831052,DepthScenes,duration_manipulation_targetAtFixation,jsons/v1_VE250_randls_54_rotated.json,http://54.235.29.9/FacialAge/BNav_EC2/DepthDuration/v2_depth_duration_MTurk/v2_DepthDuration_HTML.html#44,44,1920,969,1920,1080,8-20-2022,11-15-9,17,depth_duration_stimuli/000109_2014-05-14_23-41-52_260595134347_rgbf000035-resize_9/000109_2014-05-14_23-41-52_260595134347_rgbf000035-resize_9-target.png,250,1.3545,1,1634,255,feet,jsons/v1_VE250_randls_54_rotated.json,484647,629205,41,Man
17,831052,DepthScenes,duration_manipulation_targetAtFixation,jsons/v1_VE250_randls_54_rotated.json,http://54.235.29.9/FacialAge/BNav_EC2/DepthDuration/v2_depth_duration_MTurk/v2_DepthDuration_HTML.html#44,44,1920,969,1920,1080,8-20-2022,11-15-9,18,depth_duration_stimuli/000470_2014-06-09_19-42-40_260595134347_rgbf000094-resize_1/000470_2014-06-09_19-42-40_260595134347_rgbf000094-resize_1-target.png,250,1.831,1,1913,255,feet,jsons/v1_VE250_randls_54_rotated.json,484647,629205,41,Man
18,831052,DepthScenes,duration_manipulation_targetAtFixation,jsons/v1_VE250_randls_54_rotated.json,http://54.235.29.9/FacialAge/BNav_EC2/DepthDuration/v2_depth_duration_MTurk/v2_DepthDuration_HTML.html#44,44,1920,969,1920,1080,8-20-2022,11-15-9,19,depth_duration_stimuli/001498_2014-06-19_17-45-14_260595134347_rgbf000129-resize_4/001498_2014-06-19_17-45-14_260595134347_rgbf000129-resize-original.jpg,250,1.4075,0,2850,249,feet,jsons/v1_VE250_randls_54_rotated.json,484647,629205,41,Man
19,831052,DepthScenes,duration_manipulation_targetAtFixation,jsons/v1_VE250_randls_54_rotated.json,http://54.235.29.9/FacialAge/BNav_EC2/DepthDuration/v2_depth_duration_MTurk/v2_DepthDuration_HTML.html#44,44,1920,969,1920,1080,8-20-2022,11-15-9,20,depth_duration_stimuli/003010_2014-06-15_12-54-35_094959634447_rgbf000112-resize_0/003010_2014-06-15_12-54-35_094959634447_rgbf000112-resize_0-target.png,250,3.1185,5,1938,250,feet,jsons/v1_VE250_randls_54_rotated.json,484647,629205,41,Man
20,831052,DepthScenes,duration_manipulation_targetAtFixation,jsons/v1_VE250_randls_54_rotated.json,http://54.235.29.9/FacialAge/BNav_EC2/DepthDuration/v2_depth_duration_MTurk/v2_DepthDuration_HTML.html#44,44,1920,969,1920,1080,8-20-2022,11-15-9,21,depth_duration_stimuli/001810_2014-06-26_20-51-35_260595134347_rgbf000040-resize_3/001810_2014-06-26_20-51-35_260595134347_rgbf000040-resize_3-target.png,250,2.2525,2,1555,248,feet,jsons/v1_VE250_randls_54_rotated.json,484647,629205,41,Man
21,831052,DepthScenes,duration_manipulation_targetAtFixation,jsons/v1_VE250_randls_54_rotated.json,http://54.235.29.9/FacialAge/BNav_EC2/DepthDuration/v2_depth_duration_MTurk/v2_DepthDuration_HTML.html#44,44,1920,969,1920,1080,8-20-2022,11-15-9,22,depth_duration_stimuli/001392_2014-06-19_16-07-59_260595134347_rgbf000046-resize_1/001392_2014-06-19_16-07-59_260595134347_rgbf000046-resize_1-target.png,250,4.135,4,1664,255,feet,jsons/v1_VE250_randls_54_rotated.json,484647,629205,41,Man
22,831052,DepthScenes,duration_manipulation_targetAtFixation,jsons/v1_VE250_randls_54_rotated.json,http://54.235.29.9/FacialAge/BNav_EC2/DepthDuration/v2_depth_duration_MTurk/v2_DepthDuration_HTML.html#44,44,1920,969,1920,1080,8-20-2022,11-15-9,23,depth_duration_stimuli/001570_2014-06-20_17-21-09_260595134347_rgbf000135-resize_4/001570_2014-06-20_17-21-09_260595134347_rgbf000135-resize_4-target.png,250,4.467,8,2476,239,feet,jsons/v1_VE250_randls_54_rotated.json,484647,629205,41,Man
23,831052,DepthScenes,duration_manipulation_targetAtFixation,jsons/v1_VE250_randls_54_rotated.json,http://54.235.29.9/FacialAge/BNav_EC2/DepthDuration/v2_depth_duration_MTurk/v2_DepthDuration_HTML.html#44,44,1920,969,1920,1080,8-20-2022,11-15-9,24,depth_duration_stimuli/000943_2014-06-09_19-31-07_260595134347_rgbf000128-resize_1/000943_2014-06-09_19-31-07_260595134347_rgbf000128-resize_1-target.png,250,1.9765,2,1684,252,feet,jsons/v1_VE250_randls_54_rotated.json,484647,629205,41,Man
24,831052,DepthScenes,duration_manipulation_targetAtFixation,jsons/v1_VE250_randls_54_rotated.json,http://54.235.29.9/FacialAge/BNav_EC2/DepthDuration/v2_depth_duration_MTurk/v2_DepthDuration_HTML.html#44,44,1920,969,1920,1080,8-20-2022,11-15-9,25,depth_duration_stimuli/003070_2014-06-15_14-58-27_094959634447_rgbf000150-resize_3/003070_2014-06-15_14-58-27_094959634447_rgbf000150-resize_3-target.png,250,2.9415,5,1635,255,feet,jsons/v1_VE250_randls_54_rotated.json,484647,629205,41,Man
25,831052,DepthScenes,duration_manipulation_targetAtFixation,jsons/v1_VE250_randls_54_rotated.json,http://54.235.29.9/FacialAge/BNav_EC2/DepthDuration/v2_depth_duration_MTurk/v2_DepthDuration_HTML.html#44,44,1920,969,1920,1080,8-20-2022,11-15-9,26,depth_duration_stimuli/003338_2014-05-20_11-01-23_094959634447_rgbf000051-resize_6/003338_2014-05-20_11-01-23_094959634447_rgbf000051-resize_6-target.png,250,1.693,1,1563,255,feet,jsons/v1_VE250_randls_54_rotated.json,484647,629205,41,Man
26,831052,DepthScenes,duration_manipulation_targetAtFixation,jsons/v1_VE250_randls_54_rotated.json,http://54.235.29.9/FacialAge/BNav_EC2/DepthDuration/v2_depth_duration_MTurk/v2_DepthDuration_HTML.html#44,44,1920,969,1920,1080,8-20-2022,11-15-9,27,depth_duration_stimuli/002509_2014-06-24_13-19-22_094959634447_rgbf000077-resize_0/002509_2014-06-24_13-19-22_094959634447_rgbf000077-resize_0-target.png,250,1.3065,1,1552,249,feet,jsons/v1_VE250_randls_54_rotated.json,484647,629205,41,Man
27,831052,DepthScenes,duration_manipulation_targetAtFixation,jsons/v1_VE250_randls_54_rotated.json,http://54.235.29.9/FacialAge/BNav_EC2/DepthDuration/v2_depth_duration_MTurk/v2_DepthDuration_HTML.html#44,44,1920,969,1920,1080,8-20-2022,11-15-9,28,depth_duration_stimuli/002657_2014-06-13_15-29-54_094959634447_rgbf000150-resize_1/002657_2014-06-13_15-29-54_094959634447_rgbf000150-resize_1-target.png,250,4.919,5,1677,260,feet,jsons/v1_VE250_randls_54_rotated.json,484647,629205,41,Man
28,831052,DepthScenes,duration_manipulation_targetAtFixation,jsons/v1_VE250_randls_54_rotated.json,http://54.235.29.9/FacialAge/BNav_EC2/DepthDuration/v2_depth_duration_MTurk/v2_DepthDuration_HTML.html#44,44,1920,969,1920,1080,8-20-2022,11-15-9,29,depth_duration_stimuli/002375_2014-06-28_20-13-44_260595134347_rgbf000032-resize_1/002375_2014-06-28_20-13-44_260595134347_rgbf000032-resize_1-target.png,250,4.0175,2,1930,255,feet,jsons/v1_VE250_randls_54_rotated.json,484647,629205,41,Man
29,831052,DepthScenes,duration_manipulation_targetAtFixation,jsons/v1_VE250_randls_54_rotated.json,http://54.235.29.9/FacialAge/BNav_EC2/DepthDuration/v2_depth_duration_MTurk/v2_DepthDuration_HTML.html#44,44,1920,969,1920,1080,8-20-2022,11-15-9,30,depth_duration_stimuli/002072_2014-06-24_21-48-06_260595134347_rgbf000115-resize_0/002072_2014-06-24_21-48-06_260595134347_rgbf000115-resize-original.jpg,250,4.702,0,2567,256,feet,jsons/v1_VE250_randls_54_rotated.json,484647,629205,41,Man
30,831052,DepthScenes,duration_manipulation_targetAtFixation,jsons/v1_VE250_randls_54_rotated.json,http://54.235.29.9/FacialAge/BNav_EC2/DepthDuration/v2_depth_duration_MTurk/v2_DepthDuration_HTML.html#44,44,1920,969,1920,1080,8-20-2022,11-15-9,31,depth_duration_stimuli/000502_2014-06-08_23-02-32_260595134347_rgbf000063-resize_4/000502_2014-06-08_23-02-32_260595134347_rgbf000063-resize_4-target.png,250,2.431,2,1561,240,feet,jsons/v1_VE250_randls_54_rotated.json,484647,629205,41,Man
31,831052,DepthScenes,duration_manipulation_targetAtFixation,jsons/v1_VE250_randls_54_rotated.json,http://54.235.29.9/FacialAge/BNav_EC2/DepthDuration/v2_depth_duration_MTurk/v2_DepthDuration_HTML.html#44,44,1920,969,1920,1080,8-20-2022,11-15-9,32,depth_duration_stimuli/001199_2014-06-17_16-03-48_260595134347_rgbf000077-resize_0/001199_2014-06-17_16-03-48_260595134347_rgbf000077-resize_0-target.png,250,3.4375,9,2447,254,feet,jsons/v1_VE250_randls_54_rotated.json,484647,629205,41,Man
32,831052,DepthScenes,duration_manipulation_targetAtFixation,jsons/v1_VE250_randls_54_rotated.json,http://54.235.29.9/FacialAge/BNav_EC2/DepthDuration/v2_depth_duration_MTurk/v2_DepthDuration_HTML.html#44,44,1920,969,1920,1080,8-20-2022,11-15-9,33,depth_duration_stimuli/001828_2014-06-26_21-40-03_260595134347_rgbf000024-resize_0/001828_2014-06-26_21-40-03_260595134347_rgbf000024-resize_0-target.png,250,4.8260000000000005,7,2660,247,feet,jsons/v1_VE250_randls_54_rotated.json,484647,629205,41,Man
33,831052,DepthScenes,duration_manipulation_targetAtFixation,jsons/v1_VE250_randls_54_rotated.json,http://54.235.29.9/FacialAge/BNav_EC2/DepthDuration/v2_depth_duration_MTurk/v2_DepthDuration_HTML.html#44,44,1920,969,1920,1080,8-20-2022,11-15-9,34,depth_duration_stimuli/000009_2014-05-26_14-32-05_260595134347_rgbf000034-resize_3/000009_2014-05-26_14-32-05_260595134347_rgbf000034-resize_3-target.png,250,3.8715,10,2639,262,feet,jsons/v1_VE250_randls_54_rotated.json,484647,629205,41,Man
34,831052,DepthScenes,duration_manipulation_targetAtFixation,jsons/v1_VE250_randls_54_rotated.json,http://54.235.29.9/FacialAge/BNav_EC2/DepthDuration/v2_depth_duration_MTurk/v2_DepthDuration_HTML.html#44,44,1920,969,1920,1080,8-20-2022,11-15-9,35,depth_duration_stimuli/003587_2014-05-23_16-48-02_094959634447_rgbf002384-resize_2/003587_2014-05-23_16-48-02_094959634447_rgbf002384-resize_2-target.png,250,1.357,1,3580,249,feet,jsons/v1_VE250_randls_54_rotated.json,484647,629205,41,Man
35,831052,DepthScenes,duration_manipulation_targetAtFixation,jsons/v1_VE250_randls_54_rotated.json,http://54.235.29.9/FacialAge/BNav_EC2/DepthDuration/v2_depth_duration_MTurk/v2_DepthDuration_HTML.html#44,44,1920,969,1920,1080,8-20-2022,11-15-9,36,depth_duration_stimuli/001167_2014-06-17_15-38-07_260595134347_rgbf000108-resize_0/001167_2014-06-17_15-38-07_260595134347_rgbf000108-resize_0-target.png,250,1.8505,1,1889,240,feet,jsons/v1_VE250_randls_54_rotated.json,484647,629205,41,Man
36,831052,DepthScenes,duration_manipulation_targetAtFixation,jsons/v1_VE250_randls_54_rotated.json,http://54.235.29.9/FacialAge/BNav_EC2/DepthDuration/v2_depth_duration_MTurk/v2_DepthDuration_HTML.html#44,44,1920,969,1920,1080,8-20-2022,11-15-9,37,depth_duration_stimuli/001032_2014-06-08_13-23-17_260595134347_rgbf000021-resize_3/001032_2014-06-08_13-23-17_260595134347_rgbf000021-resize_3-target.png,250,3.2725,5,1510,263,feet,jsons/v1_VE250_randls_54_rotated.json,484647,629205,41,Man
37,831052,DepthScenes,duration_manipulation_targetAtFixation,jsons/v1_VE250_randls_54_rotated.json,http://54.235.29.9/FacialAge/BNav_EC2/DepthDuration/v2_depth_duration_MTurk/v2_DepthDuration_HTML.html#44,44,1920,969,1920,1080,8-20-2022,11-15-9,38,depth_duration_stimuli/001059_2014-06-08_21-53-27_260595134347_rgbf000061-resize_4/001059_2014-06-08_21-53-27_260595134347_rgbf000061-resize_4-target.png,250,2.4185,4,1631,251,feet,jsons/v1_VE250_randls_54_rotated.json,484647,629205,41,Man
38,831052,DepthScenes,duration_manipulation_targetAtFixation,jsons/v1_VE250_randls_54_rotated.json,http://54.235.29.9/FacialAge/BNav_EC2/DepthDuration/v2_depth_duration_MTurk/v2_DepthDuration_HTML.html#44,44,1920,969,1920,1080,8-20-2022,11-15-9,39,depth_duration_stimuli/002953_2014-06-08_17-32-18_094959634447_rgbf000059-resize_5/002953_2014-06-08_17-32-18_094959634447_rgbf000059-resize_5-target.png,250,1.551,2,1551,250,feet,jsons/v1_VE250_randls_54_rotated.json,484647,629205,41,Man
39,831052,DepthScenes,duration_manipulation_targetAtFixation,jsons/v1_VE250_randls_54_rotated.json,http://54.235.29.9/FacialAge/BNav_EC2/DepthDuration/v2_depth_duration_MTurk/v2_DepthDuration_HTML.html#44,44,1920,969,1920,1080,8-20-2022,11-15-9,40,depth_duration_stimuli/000878_2014-06-08_22-52-45_260595134347_rgbf000045-resize_2/000878_2014-06-08_22-52-45_260595134347_rgbf000045-resize_2-target.png,250,2.092,2,1562,250,feet,jsons/v1_VE250_randls_54_rotated.json,484647,629205,41,Man
40,831052,DepthScenes,duration_manipulation_targetAtFixation,jsons/v1_VE250_randls_54_rotated.json,http://54.235.29.9/FacialAge/BNav_EC2/DepthDuration/v2_depth_duration_MTurk/v2_DepthDuration_HTML.html#44,44,1920,969,1920,1080,8-20-2022,11-15-9,41,depth_duration_stimuli/000691_2014-06-08_13-08-50_260595134347_rgbf000132-resize_3/000691_2014-06-08_13-08-50_260595134347_rgbf000132-resize_3-target.png,250,4.1530000000000005,7,2480,253,feet,jsons/v1_VE250_randls_54_rotated.json,484647,629205,41,Man
41,831052,DepthScenes,duration_manipulation_targetAtFixation,jsons/v1_VE250_randls_54_rotated.json,http://54.235.29.9/FacialAge/BNav_EC2/DepthDuration/v2_depth_duration_MTurk/v2_DepthDuration_HTML.html#44,44,1920,969,1920,1080,8-20-2022,11-15-9,42,depth_duration_stimuli/002213_2014-06-28_18-37-58_260595134347_rgbf000055-resize_1/002213_2014-06-28_18-37-58_260595134347_rgbf000055-resize_1-target.png,250,3.62,10,2469,255,feet,jsons/v1_VE250_randls_54_rotated.json,484647,629205,41,Man
42,831052,DepthScenes,duration_manipulation_targetAtFixation,jsons/v1_VE250_randls_54_rotated.json,http://54.235.29.9/FacialAge/BNav_EC2/DepthDuration/v2_depth_duration_MTurk/v2_DepthDuration_HTML.html#44,44,1920,969,1920,1080,8-20-2022,11-15-9,43,depth_duration_stimuli/000103_2014-05-14_22-01-17_260595134347_rgbf000152-resize_5/000103_2014-05-14_22-01-17_260595134347_rgbf000152-resize_5-target.png,250,1.993,5,1915,249,feet,jsons/v1_VE250_randls_54_rotated.json,484647,629205,41,Man
43,831052,DepthScenes,duration_manipulation_targetAtFixation,jsons/v1_VE250_randls_54_rotated.json,http://54.235.29.9/FacialAge/BNav_EC2/DepthDuration/v2_depth_duration_MTurk/v2_DepthDuration_HTML.html#44,44,1920,969,1920,1080,8-20-2022,11-15-9,44,depth_duration_stimuli/001555_2014-06-20_17-12-10_260595134347_rgbf000065-resize_4/001555_2014-06-20_17-12-10_260595134347_rgbf000065-resize_4-target.png,250,1.633,1,1560,264,feet,jsons/v1_VE250_randls_54_rotated.json,484647,629205,41,Man
44,831052,DepthScenes,duration_manipulation_targetAtFixation,jsons/v1_VE250_randls_54_rotated.json,http://54.235.29.9/FacialAge/BNav_EC2/DepthDuration/v2_depth_duration_MTurk/v2_DepthDuration_HTML.html#44,44,1920,969,1920,1080,8-20-2022,11-15-9,45,depth_duration_stimuli/002323_2014-06-28_20-01-54_260595134347_rgbf000051-resize_4/002323_2014-06-28_20-01-54_260595134347_rgbf000051-resize_4-target.png,250,3.7310000000000003,15,2569,249,feet,jsons/v1_VE250_randls_54_rotated.json,484647,629205,41,Man
45,831052,DepthScenes,duration_manipulation_targetAtFixation,jsons/v1_VE250_randls_54_rotated.json,http://54.235.29.9/FacialAge/BNav_EC2/DepthDuration/v2_depth_duration_MTurk/v2_DepthDuration_HTML.html#44,44,1920,969,1920,1080,8-20-2022,11-15-9,46,depth_duration_stimuli/000917_2014-06-09_22-45-29_260595134347_rgbf000149-resize_3/000917_2014-06-09_22-45-29_260595134347_rgbf000149-resize_3-target.png,250,4.1865,8,2753,265,feet,jsons/v1_VE250_randls_54_rotated.json,484647,629205,41,Man
46,831052,DepthScenes,duration_manipulation_targetAtFixation,jsons/v1_VE250_randls_54_rotated.json,http://54.235.29.9/FacialAge/BNav_EC2/DepthDuration/v2_depth_duration_MTurk/v2_DepthDuration_HTML.html#44,44,1920,969,1920,1080,8-20-2022,11-15-9,47,depth_duration_stimuli/001214_2014-06-17_16-13-55_260595134347_rgbf000111-resize_0/001214_2014-06-17_16-13-55_260595134347_rgbf000111-resize_0-target.png,250,2.6505,2,1662,250,feet,jsons/v1_VE250_randls_54_rotated.json,484647,629205,41,Man
47,831052,DepthScenes,duration_manipulation_targetAtFixation,jsons/v1_VE250_randls_54_rotated.json,http://54.235.29.9/FacialAge/BNav_EC2/DepthDuration/v2_depth_duration_MTurk/v2_DepthDuration_HTML.html#44,44,1920,969,1920,1080,8-20-2022,11-15-9,48,depth_duration_stimuli/000810_2014-06-08_17-20-01_260595134347_rgbf000105-resize_0/000810_2014-06-08_17-20-01_260595134347_rgbf000105-resize_0-target.png,250,1.4865,2,1787,250,feet,jsons/v1_VE250_randls_54_rotated.json,484647,629205,41,Man
48,831052,DepthScenes,duration_manipulation_targetAtFixation,jsons/v1_VE250_randls_54_rotated.json,http://54.235.29.9/FacialAge/BNav_EC2/DepthDuration/v2_depth_duration_MTurk/v2_DepthDuration_HTML.html#44,44,1920,969,1920,1080,8-20-2022,11-15-9,49,depth_duration_stimuli/001170_2014-06-17_15-43-44_260595134347_rgbf000096-resize_6/001170_2014-06-17_15-43-44_260595134347_rgbf000096-resize-original.jpg,250,1.1909999999999998,0,2401,250,feet,jsons/v1_VE250_randls_54_rotated.json,484647,629205,41,Man
49,831052,DepthScenes,duration_manipulation_targetAtFixation,jsons/v1_VE250_randls_54_rotated.json,http://54.235.29.9/FacialAge/BNav_EC2/DepthDuration/v2_depth_duration_MTurk/v2_DepthDuration_HTML.html#44,44,1920,969,1920,1080,8-20-2022,11-15-9,50,depth_duration_stimuli/002103_2014-06-25_20-00-40_260595134347_rgbf000049-resize_0/002103_2014-06-25_20-00-40_260595134347_rgbf000049-resize_0-target.png,250,4.105,10,2490,250,feet,jsons/v1_VE250_randls_54_rotated.json,484647,629205,41,Man
50,831052,DepthScenes,duration_manipulation_targetAtFixation,jsons/v1_VE250_randls_54_rotated.json,http://54.235.29.9/FacialAge/BNav_EC2/DepthDuration/v2_depth_duration_MTurk/v2_DepthDuration_HTML.html#44,44,1920,969,1920,1080,8-20-2022,11-15-9,51,depth_duration_stimuli/002039_2014-06-24_20-22-38_260595134347_rgbf000084-resize_1/002039_2014-06-24_20-22-38_260595134347_rgbf000084-resize_1-target.png,250,4.408,12,1892,256,feet,jsons/v1_VE250_randls_54_rotated.json,484647,629205,41,Man
51,831052,DepthScenes,duration_manipulation_targetAtFixation,jsons/v1_VE250_randls_54_rotated.json,http://54.235.29.9/FacialAge/BNav_EC2/DepthDuration/v2_depth_duration_MTurk/v2_DepthDuration_HTML.html#44,44,1920,969,1920,1080,8-20-2022,11-15-9,52,depth_duration_stimuli/000665_2014-06-09_20-42-35_260595134347_rgbf000110-resize_1/000665_2014-06-09_20-42-35_260595134347_rgbf000110-resize_1-target.png,250,3.057,5,1692,250,feet,jsons/v1_VE250_randls_54_rotated.json,484647,629205,41,Man
52,831052,DepthScenes,duration_manipulation_targetAtFixation,jsons/v1_VE250_randls_54_rotated.json,http://54.235.29.9/FacialAge/BNav_EC2/DepthDuration/v2_depth_duration_MTurk/v2_DepthDuration_HTML.html#44,44,1920,969,1920,1080,8-20-2022,11-15-9,53,depth_duration_stimuli/001150_2014-06-17_15-27-34_260595134347_rgbf000108-resize_2/001150_2014-06-17_15-27-34_260595134347_rgbf000108-resize_2-target.png,250,4.0325,8,2326,256,feet,jsons/v1_VE250_randls_54_rotated.json,484647,629205,41,Man
53,831052,DepthScenes,duration_manipulation_targetAtFixation,jsons/v1_VE250_randls_54_rotated.json,http://54.235.29.9/FacialAge/BNav_EC2/DepthDuration/v2_depth_duration_MTurk/v2_DepthDuration_HTML.html#44,44,1920,969,1920,1080,8-20-2022,11-15-9,54,depth_duration_stimuli/001052_2014-06-08_18-24-54_260595134347_rgbf000130-resize_1/001052_2014-06-08_18-24-54_260595134347_rgbf000130-resize_1-target.png,250,4.1045,9,2378,250,feet,jsons/v1_VE250_randls_54_rotated.json,484647,629205,41,Man
54,831052,DepthScenes,duration_manipulation_targetAtFixation,jsons/v1_VE250_randls_54_rotated.json,http://54.235.29.9/FacialAge/BNav_EC2/DepthDuration/v2_depth_duration_MTurk/v2_DepthDuration_HTML.html#44,44,1920,969,1920,1080,8-20-2022,11-15-9,55,depth_duration_stimuli/002988_2014-06-15_12-24-20_094959634447_rgbf000150-resize_1/002988_2014-06-15_12-24-20_094959634447_rgbf000150-resize_1-target.png,250,4.7669999999999995,10,3168,238,feet,jsons/v1_VE250_randls_54_rotated.json,484647,629205,41,Man
55,831052,DepthScenes,duration_manipulation_targetAtFixation,jsons/v1_VE250_randls_54_rotated.json,http://54.235.29.9/FacialAge/BNav_EC2/DepthDuration/v2_depth_duration_MTurk/v2_DepthDuration_HTML.html#44,44,1920,969,1920,1080,8-20-2022,11-15-9,56,depth_duration_stimuli/000409_2014-06-04_19-23-33_260595134347_rgbf000067-resize_0/000409_2014-06-04_19-23-33_260595134347_rgbf000067-resize_0-target.png,250,3.7335,4,1662,250,feet,jsons/v1_VE250_randls_54_rotated.json,484647,629205,41,Man
56,831052,DepthScenes,duration_manipulation_targetAtFixation,jsons/v1_VE250_randls_54_rotated.json,http://54.235.29.9/FacialAge/BNav_EC2/DepthDuration/v2_depth_duration_MTurk/v2_DepthDuration_HTML.html#44,44,1920,969,1920,1080,8-20-2022,11-15-9,57,depth_duration_stimuli/002663_2014-06-13_15-50-26_094959634447_rgbf000075-resize_1/002663_2014-06-13_15-50-26_094959634447_rgbf000075-resize_1-target.png,250,4.7495,12,1868,259,feet,jsons/v1_VE250_randls_54_rotated.json,484647,629205,41,Man
57,831052,DepthScenes,duration_manipulation_targetAtFixation,jsons/v1_VE250_randls_54_rotated.json,http://54.235.29.9/FacialAge/BNav_EC2/DepthDuration/v2_depth_duration_MTurk/v2_DepthDuration_HTML.html#44,44,1920,969,1920,1080,8-20-2022,11-15-9,58,depth_duration_stimuli/002949_2014-06-26_15-57-42_094959634447_rgbf000079-resize_1/002949_2014-06-26_15-57-42_094959634447_rgbf000079-resize_1-target.png,250,1.8915,1,1764,249,feet,jsons/v1_VE250_randls_54_rotated.json,484647,629205,41,Man
58,831052,DepthScenes,duration_manipulation_targetAtFixation,jsons/v1_VE250_randls_54_rotated.json,http://54.235.29.9/FacialAge/BNav_EC2/DepthDuration/v2_depth_duration_MTurk/v2_DepthDuration_HTML.html#44,44,1920,969,1920,1080,8-20-2022,11-15-9,59,depth_duration_stimuli/000522_2014-06-08_13-35-06_260595134347_rgbf000244-resize_1/000522_2014-06-08_13-35-06_260595134347_rgbf000244-resize_1-target.png,250,2.3715,1,1658,243,feet,jsons/v1_VE250_randls_54_rotated.json,484647,629205,41,Man
59,831052,DepthScenes,duration_manipulation_targetAtFixation,jsons/v1_VE250_randls_54_rotated.json,http://54.235.29.9/FacialAge/BNav_EC2/DepthDuration/v2_depth_duration_MTurk/v2_DepthDuration_HTML.html#44,44,1920,969,1920,1080,8-20-2022,11-15-9,60,depth_duration_stimuli/000866_2014-06-09_20-45-42_260595134347_rgbf000139-resize_1/000866_2014-06-09_20-45-42_260595134347_rgbf000139-resize_1-target.png,250,3.2155,5,1654,250,feet,jsons/v1_VE250_randls_54_rotated.json,484647,629205,41,Man
60,831052,DepthScenes,duration_manipulation_targetAtFixation,jsons/v1_VE250_randls_54_rotated.json,http://54.235.29.9/FacialAge/BNav_EC2/DepthDuration/v2_depth_duration_MTurk/v2_DepthDuration_HTML.html#44,44,1920,969,1920,1080,8-20-2022,11-15-9,61,depth_duration_stimuli/002989_2014-06-15_12-25-03_094959634447_rgbf000150-resize_3/002989_2014-06-15_12-25-03_094959634447_rgbf000150-resize_3-target.png,250,4.1975,8,2455,259,feet,jsons/v1_VE250_randls_54_rotated.json,484647,629205,41,Man
61,831052,DepthScenes,duration_manipulation_targetAtFixation,jsons/v1_VE250_randls_54_rotated.json,http://54.235.29.9/FacialAge/BNav_EC2/DepthDuration/v2_depth_duration_MTurk/v2_DepthDuration_HTML.html#44,44,1920,969,1920,1080,8-20-2022,11-15-9,62,depth_duration_stimuli/000927_2014-06-09_16-32-30_260595134347_rgbf000123-resize_3/000927_2014-06-09_16-32-30_260595134347_rgbf000123-resize_3-target.png,250,2.6785,4,4629,255,feet,jsons/v1_VE250_randls_54_rotated.json,484647,629205,41,Man
62,831052,DepthScenes,duration_manipulation_targetAtFixation,jsons/v1_VE250_randls_54_rotated.json,http://54.235.29.9/FacialAge/BNav_EC2/DepthDuration/v2_depth_duration_MTurk/v2_DepthDuration_HTML.html#44,44,1920,969,1920,1080,8-20-2022,11-15-9,63,depth_duration_stimuli/001110_2014-06-15_17-25-28_260595134347_rgbf000150-resize_1/001110_2014-06-15_17-25-28_260595134347_rgbf000150-resize_1-target.png,250,1.7115,2,1661,249,feet,jsons/v1_VE250_randls_54_rotated.json,484647,629205,41,Man
63,831052,DepthScenes,duration_manipulation_targetAtFixation,jsons/v1_VE250_randls_54_rotated.json,http://54.235.29.9/FacialAge/BNav_EC2/DepthDuration/v2_depth_duration_MTurk/v2_DepthDuration_HTML.html#44,44,1920,969,1920,1080,8-20-2022,11-15-9,64,depth_duration_stimuli/002444_2014-06-28_20-32-08_260595134347_rgbf000027-resize_0/002444_2014-06-28_20-32-08_260595134347_rgbf000027-resize_0-target.png,250,4.388999999999999,9,2784,255,feet,jsons/v1_VE250_randls_54_rotated.json,484647,629205,41,Man
64,831052,DepthScenes,duration_manipulation_targetAtFixation,jsons/v1_VE250_randls_54_rotated.json,http://54.235.29.9/FacialAge/BNav_EC2/DepthDuration/v2_depth_duration_MTurk/v2_DepthDuration_HTML.html#44,44,1920,969,1920,1080,8-20-2022,11-15-9,65,depth_duration_stimuli/000436_2014-06-09_22-25-11_260595134347_rgbf000137-resize_1/000436_2014-06-09_22-25-11_260595134347_rgbf000137-resize_1-target.png,250,4.0705,12,1862,256,feet,jsons/v1_VE250_randls_54_rotated.json,484647,629205,41,Man
65,831052,DepthScenes,duration_manipulation_targetAtFixation,jsons/v1_VE250_randls_54_rotated.json,http://54.235.29.9/FacialAge/BNav_EC2/DepthDuration/v2_depth_duration_MTurk/v2_DepthDuration_HTML.html#44,44,1920,969,1920,1080,8-20-2022,11-15-9,66,depth_duration_stimuli/001540_2014-06-20_17-01-05_260595134347_rgbf000086-resize_2/001540_2014-06-20_17-01-05_260595134347_rgbf000086-resize-original.jpg,250,1.459,0,3756,236,feet,jsons/v1_VE250_randls_54_rotated.json,484647,629205,41,Man
66,831052,DepthScenes,duration_manipulation_targetAtFixation,jsons/v1_VE250_randls_54_rotated.json,http://54.235.29.9/FacialAge/BNav_EC2/DepthDuration/v2_depth_duration_MTurk/v2_DepthDuration_HTML.html#44,44,1920,969,1920,1080,8-20-2022,11-15-9,67,depth_duration_stimuli/001516_2014-06-20_16-25-09_260595134347_rgbf000076-resize_2/001516_2014-06-20_16-25-09_260595134347_rgbf000076-resize_2-target.png,250,1.7445,3,1649,256,feet,jsons/v1_VE250_randls_54_rotated.json,484647,629205,41,Man
67,831052,DepthScenes,duration_manipulation_targetAtFixation,jsons/v1_VE250_randls_54_rotated.json,http://54.235.29.9/FacialAge/BNav_EC2/DepthDuration/v2_depth_duration_MTurk/v2_DepthDuration_HTML.html#44,44,1920,969,1920,1080,8-20-2022,11-15-9,68,depth_duration_stimuli/002118_2014-06-25_20-32-08_260595134347_rgbf000078-resize_1/002118_2014-06-25_20-32-08_260595134347_rgbf000078-resize_1-target.png,250,2.6460000000000004,2,1536,254,feet,jsons/v1_VE250_randls_54_rotated.json,484647,629205,41,Man
68,831052,DepthScenes,duration_manipulation_targetAtFixation,jsons/v1_VE250_randls_54_rotated.json,http://54.235.29.9/FacialAge/BNav_EC2/DepthDuration/v2_depth_duration_MTurk/v2_DepthDuration_HTML.html#44,44,1920,969,1920,1080,8-20-2022,11-15-9,69,depth_duration_stimuli/002209_2014-06-28_18-36-10_260595134347_rgbf000051-resize_1/002209_2014-06-28_18-36-10_260595134347_rgbf000051-resize_1-target.png,250,2.057,2,1504,256,feet,jsons/v1_VE250_randls_54_rotated.json,484647,629205,41,Man
69,831052,DepthScenes,duration_manipulation_targetAtFixation,jsons/v1_VE250_randls_54_rotated.json,http://54.235.29.9/FacialAge/BNav_EC2/DepthDuration/v2_depth_duration_MTurk/v2_DepthDuration_HTML.html#44,44,1920,969,1920,1080,8-20-2022,11-15-9,70,depth_duration_stimuli/002763_2014-06-22_19-13-10_094959634447_rgbf000075-resize_4/002763_2014-06-22_19-13-10_094959634447_rgbf000075-resize_4-target.png,250,1.68375,2,1472,240,feet,jsons/v1_VE250_randls_54_rotated.json,484647,629205,41,Man
70,831052,DepthScenes,duration_manipulation_targetAtFixation,jsons/v1_VE250_randls_54_rotated.json,http://54.235.29.9/FacialAge/BNav_EC2/DepthDuration/v2_depth_duration_MTurk/v2_DepthDuration_HTML.html#44,44,1920,969,1920,1080,8-20-2022,11-15-9,71,depth_duration_stimuli/000734_2014-06-08_17-39-11_260595134347_rgbf000128-resize_2/000734_2014-06-08_17-39-11_260595134347_rgbf000128-resize_2-target.png,250,4.098,4,2700,249,feet,jsons/v1_VE250_randls_54_rotated.json,484647,629205,41,Man
71,831052,DepthScenes,duration_manipulation_targetAtFixation,jsons/v1_VE250_randls_54_rotated.json,http://54.235.29.9/FacialAge/BNav_EC2/DepthDuration/v2_depth_duration_MTurk/v2_DepthDuration_HTML.html#44,44,1920,969,1920,1080,8-20-2022,11-15-9,72,depth_duration_stimuli/000739_2014-06-08_18-45-58_260595134347_rgbf000068-resize_1/000739_2014-06-08_18-45-58_260595134347_rgbf000068-resize_1-target.png,250,3.534,4,1828,255,feet,jsons/v1_VE250_randls_54_rotated.json,484647,629205,41,Man
72,831052,DepthScenes,duration_manipulation_targetAtFixation,jsons/v1_VE250_randls_54_rotated.json,http://54.235.29.9/FacialAge/BNav_EC2/DepthDuration/v2_depth_duration_MTurk/v2_DepthDuration_HTML.html#44,44,1920,969,1920,1080,8-20-2022,11-15-9,73,depth_duration_stimuli/001584_2014-06-20_11-07-43_260595134347_rgbf000002-resize_1/001584_2014-06-20_11-07-43_260595134347_rgbf000002-resize_1-target.png,250,3.53,7,1912,255,feet,jsons/v1_VE250_randls_54_rotated.json,484647,629205,41,Man
73,831052,DepthScenes,duration_manipulation_targetAtFixation,jsons/v1_VE250_randls_54_rotated.json,http://54.235.29.9/FacialAge/BNav_EC2/DepthDuration/v2_depth_duration_MTurk/v2_DepthDuration_HTML.html#44,44,1920,969,1920,1080,8-20-2022,11-15-9,74,depth_duration_stimuli/003621_2014-05-23_18-06-08_094959634447_rgbf000101-resize_1/003621_2014-05-23_18-06-08_094959634447_rgbf000101-resize_1-target.png,250,3.9835,8,2394,250,feet,jsons/v1_VE250_randls_54_rotated.json,484647,629205,41,Man
74,831052,DepthScenes,duration_manipulation_targetAtFixation,jsons/v1_VE250_randls_54_rotated.json,http://54.235.29.9/FacialAge/BNav_EC2/DepthDuration/v2_depth_duration_MTurk/v2_DepthDuration_HTML.html#44,44,1920,969,1920,1080,8-20-2022,11-15-9,75,depth_duration_stimuli/002875_2014-06-01_15-19-00_094959634447_rgbf000151-resize_1/002875_2014-06-01_15-19-00_094959634447_rgbf000151-resize_1-target.png,250,1.9675,2,2101,238,feet,jsons/v1_VE250_randls_54_rotated.json,484647,629205,41,Man
75,831052,DepthScenes,duration_manipulation_targetAtFixation,jsons/v1_VE250_randls_54_rotated.json,http://54.235.29.9/FacialAge/BNav_EC2/DepthDuration/v2_depth_duration_MTurk/v2_DepthDuration_HTML.html#44,44,1920,969,1920,1080,8-20-2022,11-15-9,76,depth_duration_stimuli/001011_2014-06-08_23-18-54_260595134347_rgbf000044-resize_4/001011_2014-06-08_23-18-54_260595134347_rgbf000044-resize_4-target.png,250,2.4730000000000003,4,1733,251,feet,jsons/v1_VE250_randls_54_rotated.json,484647,629205,41,Man
76,831052,DepthScenes,duration_manipulation_targetAtFixation,jsons/v1_VE250_randls_54_rotated.json,http://54.235.29.9/FacialAge/BNav_EC2/DepthDuration/v2_depth_duration_MTurk/v2_DepthDuration_HTML.html#44,44,1920,969,1920,1080,8-20-2022,11-15-9,77,depth_duration_stimuli/002344_2014-06-28_20-06-29_260595134347_rgbf000030-resize_1/002344_2014-06-28_20-06-29_260595134347_rgbf000030-resize_1-target.png,250,1.5795,1,1610,255,feet,jsons/v1_VE250_randls_54_rotated.json,484647,629205,41,Man
77,831052,DepthScenes,duration_manipulation_targetAtFixation,jsons/v1_VE250_randls_54_rotated.json,http://54.235.29.9/FacialAge/BNav_EC2/DepthDuration/v2_depth_duration_MTurk/v2_DepthDuration_HTML.html#44,44,1920,969,1920,1080,8-20-2022,11-15-9,78,depth_duration_stimuli/002725_2014-06-22_11-47-51_094959634447_rgbf000070-resize_1/002725_2014-06-22_11-47-51_094959634447_rgbf000070-resize_1-target.png,250,2.195,4,1602,240,feet,jsons/v1_VE250_randls_54_rotated.json,484647,629205,41,Man
78,831052,DepthScenes,duration_manipulation_targetAtFixation,jsons/v1_VE250_randls_54_rotated.json,http://54.235.29.9/FacialAge/BNav_EC2/DepthDuration/v2_depth_duration_MTurk/v2_DepthDuration_HTML.html#44,44,1920,969,1920,1080,8-20-2022,11-15-9,79,depth_duration_stimuli/002136_2014-06-25_21-18-03_260595134347_rgbf000109-resize_3/002136_2014-06-25_21-18-03_260595134347_rgbf000109-resize_3-target.png,250,1.9569999999999999,2,1585,256,feet,jsons/v1_VE250_randls_54_rotated.json,484647,629205,41,Man
79,831052,DepthScenes,duration_manipulation_targetAtFixation,jsons/v1_VE250_randls_54_rotated.json,http://54.235.29.9/FacialAge/BNav_EC2/DepthDuration/v2_depth_duration_MTurk/v2_DepthDuration_HTML.html#44,44,1920,969,1920,1080,8-20-2022,11-15-9,80,depth_duration_stimuli/002964_2014-06-08_17-46-11_094959634447_rgbf000091-resize_4/002964_2014-06-08_17-46-11_094959634447_rgbf000091-resize_4-target.png,250,1.6909999999999998,1,1632,256,feet,jsons/v1_VE250_randls_54_rotated.json,484647,629205,41,Man
80,831052,DepthScenes,duration_manipulation_targetAtFixation,jsons/v1_VE250_randls_54_rotated.json,http://54.235.29.9/FacialAge/BNav_EC2/DepthDuration/v2_depth_duration_MTurk/v2_DepthDuration_HTML.html#44,44,1920,969,1920,1080,8-20-2022,11-15-9,81,depth_duration_stimuli/003079_2014-06-15_15-18-20_094959634447_rgbf000152-resize_8/003079_2014-06-15_15-18-20_094959634447_rgbf000152-resize_8-target.png,250,2.8775,6,1809,240,feet,jsons/v1_VE250_randls_54_rotated.json,484647,629205,41,Man
81,831052,DepthScenes,duration_manipulation_targetAtFixation,jsons/v1_VE250_randls_54_rotated.json,http://54.235.29.9/FacialAge/BNav_EC2/DepthDuration/v2_depth_duration_MTurk/v2_DepthDuration_HTML.html#44,44,1920,969,1920,1080,8-20-2022,11-15-9,82,depth_duration_stimuli/000506_2014-06-08_23-21-00_260595134347_rgbf000070-resize_7/000506_2014-06-08_23-21-00_260595134347_rgbf000070-resize_7-target.png,250,4.0585,8,2831,239,feet,jsons/v1_VE250_randls_54_rotated.json,484647,629205,41,Man
82,831052,DepthScenes,duration_manipulation_targetAtFixation,jsons/v1_VE250_randls_54_rotated.json,http://54.235.29.9/FacialAge/BNav_EC2/DepthDuration/v2_depth_duration_MTurk/v2_DepthDuration_HTML.html#44,44,1920,969,1920,1080,8-20-2022,11-15-9,83,depth_duration_stimuli/001136_2014-06-17_15-19-41_260595134347_rgbf000076-resize_3/001136_2014-06-17_15-19-41_260595134347_rgbf000076-resize_3-target.png,250,1.8655,3,1733,250,feet,jsons/v1_VE250_randls_54_rotated.json,484647,629205,41,Man
83,831052,DepthScenes,duration_manipulation_targetAtFixation,jsons/v1_VE250_randls_54_rotated.json,http://54.235.29.9/FacialAge/BNav_EC2/DepthDuration/v2_depth_duration_MTurk/v2_DepthDuration_HTML.html#44,44,1920,969,1920,1080,8-20-2022,11-15-9,84,depth_duration_stimuli/001164_2014-06-17_15-35-46_260595134347_rgbf000085-resize_3/001164_2014-06-17_15-35-46_260595134347_rgbf000085-resize_3-target.png,250,2.354,3,3494,261,feet,jsons/v1_VE250_randls_54_rotated.json,484647,629205,41,Man
84,831052,DepthScenes,duration_manipulation_targetAtFixation,jsons/v1_VE250_randls_54_rotated.json,http://54.235.29.9/FacialAge/BNav_EC2/DepthDuration/v2_depth_duration_MTurk/v2_DepthDuration_HTML.html#44,44,1920,969,1920,1080,8-20-2022,11-15-9,85,depth_duration_stimuli/002568_2014-06-24_13-59-21_094959634447_rgbf000062-resize_4/002568_2014-06-24_13-59-21_094959634447_rgbf000062-resize_4-target.png,250,3.015,4,1450,239,feet,jsons/v1_VE250_randls_54_rotated.json,484647,629205,41,Man
85,831052,DepthScenes,duration_manipulation_targetAtFixation,jsons/v1_VE250_randls_54_rotated.json,http://54.235.29.9/FacialAge/BNav_EC2/DepthDuration/v2_depth_duration_MTurk/v2_DepthDuration_HTML.html#44,44,1920,969,1920,1080,8-20-2022,11-15-9,86,depth_duration_stimuli/003492_2014-05-21_15-50-55_094959634447_rgbf000828-resize_1/003492_2014-05-21_15-50-55_094959634447_rgbf000828-resize_1-target.png,250,4.06875,8,2161,240,feet,jsons/v1_VE250_randls_54_rotated.json,484647,629205,41,Man
86,831052,DepthScenes,duration_manipulation_targetAtFixation,jsons/v1_VE250_randls_54_rotated.json,http://54.235.29.9/FacialAge/BNav_EC2/DepthDuration/v2_depth_duration_MTurk/v2_DepthDuration_HTML.html#44,44,1920,969,1920,1080,8-20-2022,11-15-9,87,depth_duration_stimuli/000677_2014-06-08_23-10-32_260595134347_rgbf000158-resize_6/000677_2014-06-08_23-10-32_260595134347_rgbf000158-resize_6-target.png,250,3.556,8,5037,260,feet,jsons/v1_VE250_randls_54_rotated.json,484647,629205,41,Man
87,831052,DepthScenes,duration_manipulation_targetAtFixation,jsons/v1_VE250_randls_54_rotated.json,http://54.235.29.9/FacialAge/BNav_EC2/DepthDuration/v2_depth_duration_MTurk/v2_DepthDuration_HTML.html#44,44,1920,969,1920,1080,8-20-2022,11-15-9,88,depth_duration_stimuli/001029_2014-06-08_13-17-57_260595134347_rgbf000065-resize_1/001029_2014-06-08_13-17-57_260595134347_rgbf000065-resize_1-target.png,250,3.0835,5,6310,250,feet,jsons/v1_VE250_randls_54_rotated.json,484647,629205,41,Man
88,831052,DepthScenes,duration_manipulation_targetAtFixation,jsons/v1_VE250_randls_54_rotated.json,http://54.235.29.9/FacialAge/BNav_EC2/DepthDuration/v2_depth_duration_MTurk/v2_DepthDuration_HTML.html#44,44,1920,969,1920,1080,8-20-2022,11-15-9,89,depth_duration_stimuli/002750_2014-06-22_19-08-03_094959634447_rgbf000094-resize_4/002750_2014-06-22_19-08-03_094959634447_rgbf000094-resize_4-target.png,250,2.354,4,1778,250,feet,jsons/v1_VE250_randls_54_rotated.json,484647,629205,41,Man
89,831052,DepthScenes,duration_manipulation_targetAtFixation,jsons/v1_VE250_randls_54_rotated.json,http://54.235.29.9/FacialAge/BNav_EC2/DepthDuration/v2_depth_duration_MTurk/v2_DepthDuration_HTML.html#44,44,1920,969,1920,1080,8-20-2022,11-15-9,90,depth_duration_stimuli/002549_2014-06-24_13-41-39_094959634447_rgbf000022-resize_3/002549_2014-06-24_13-41-39_094959634447_rgbf000022-resize_3-target.png,250,1.476,2,1504,253,feet,jsons/v1_VE250_randls_54_rotated.json,484647,629205,41,Man
90,831052,DepthScenes,duration_manipulation_targetAtFixation,jsons/v1_VE250_randls_54_rotated.json,http://54.235.29.9/FacialAge/BNav_EC2/DepthDuration/v2_depth_duration_MTurk/v2_DepthDuration_HTML.html#44,44,1920,969,1920,1080,8-20-2022,11-15-9,91,depth_duration_stimuli/002340_2014-06-28_20-05-46_260595134347_rgbf000113-resize_0/002340_2014-06-28_20-05-46_260595134347_rgbf000113-resize_0-target.png,250,2.4735,10,2969,250,feet,jsons/v1_VE250_randls_54_rotated.json,484647,629205,41,Man
91,831052,DepthScenes,duration_manipulation_targetAtFixation,jsons/v1_VE250_randls_54_rotated.json,http://54.235.29.9/FacialAge/BNav_EC2/DepthDuration/v2_depth_duration_MTurk/v2_DepthDuration_HTML.html#44,44,1920,969,1920,1080,8-20-2022,11-15-9,92,depth_duration_stimuli/001016_2014-06-09_16-16-10_260595134347_rgbf000112-resize_5/001016_2014-06-09_16-16-10_260595134347_rgbf000112-resize_5-target.png,250,1.6565,4,1541,256,feet,jsons/v1_VE250_randls_54_rotated.json,484647,629205,41,Man
92,831052,DepthScenes,duration_manipulation_targetAtFixation,jsons/v1_VE250_randls_54_rotated.json,http://54.235.29.9/FacialAge/BNav_EC2/DepthDuration/v2_depth_duration_MTurk/v2_DepthDuration_HTML.html#44,44,1920,969,1920,1080,8-20-2022,11-15-9,93,depth_duration_stimuli/000749_2014-06-08_21-55-06_260595134347_rgbf000070-resize_2/000749_2014-06-08_21-55-06_260595134347_rgbf000070-resize_2-target.png,250,2.331,3,1819,250,feet,jsons/v1_VE250_randls_54_rotated.json,484647,629205,41,Man
93,831052,DepthScenes,duration_manipulation_targetAtFixation,jsons/v1_VE250_randls_54_rotated.json,http://54.235.29.9/FacialAge/BNav_EC2/DepthDuration/v2_depth_duration_MTurk/v2_DepthDuration_HTML.html#44,44,1920,969,1920,1080,8-20-2022,11-15-9,94,depth_duration_stimuli/002788_2014-06-22_19-36-03_094959634447_rgbf000088-resize_2/002788_2014-06-22_19-36-03_094959634447_rgbf000088-resize_2-target.png,250,1.6465,5,1566,256,feet,jsons/v1_VE250_randls_54_rotated.json,484647,629205,41,Man
94,831052,DepthScenes,duration_manipulation_targetAtFixation,jsons/v1_VE250_randls_54_rotated.json,http://54.235.29.9/FacialAge/BNav_EC2/DepthDuration/v2_depth_duration_MTurk/v2_DepthDuration_HTML.html#44,44,1920,969,1920,1080,8-20-2022,11-15-9,95,depth_duration_stimuli/003228_2014-05-14_13-42-35_094959634447_rgbf000101-resize_1/003228_2014-05-14_13-42-35_094959634447_rgbf000101-resize_1-target.png,250,1.9680000000000002,2,1514,253,feet,jsons/v1_VE250_randls_54_rotated.json,484647,629205,41,Man
95,831052,DepthScenes,duration_manipulation_targetAtFixation,jsons/v1_VE250_randls_54_rotated.json,http://54.235.29.9/FacialAge/BNav_EC2/DepthDuration/v2_depth_duration_MTurk/v2_DepthDuration_HTML.html#44,44,1920,969,1920,1080,8-20-2022,11-15-9,96,depth_duration_stimuli/002600_2014-06-24_14-27-04_094959634447_rgbf000074-resize_2/002600_2014-06-24_14-27-04_094959634447_rgbf000074-resize_2-target.png,250,2.7575,4,1539,237,feet,jsons/v1_VE250_randls_54_rotated.json,484647,629205,41,Man
96,831052,DepthScenes,duration_manipulation_targetAtFixation,jsons/v1_VE250_randls_54_rotated.json,http://54.235.29.9/FacialAge/BNav_EC2/DepthDuration/v2_depth_duration_MTurk/v2_DepthDuration_HTML.html#44,44,1920,969,1920,1080,8-20-2022,11-15-9,97,depth_duration_stimuli/000556_2014-06-09_22-42-56_260595134347_rgbf000214-resize_1/000556_2014-06-09_22-42-56_260595134347_rgbf000214-resize_1-target.png,250,4.8415,8,2395,244,feet,jsons/v1_VE250_randls_54_rotated.json,484647,629205,41,Man
97,831052,DepthScenes,duration_manipulation_targetAtFixation,jsons/v1_VE250_randls_54_rotated.json,http://54.235.29.9/FacialAge/BNav_EC2/DepthDuration/v2_depth_duration_MTurk/v2_DepthDuration_HTML.html#44,44,1920,969,1920,1080,8-20-2022,11-15-9,98,depth_duration_stimuli/001158_2014-06-17_15-32-16_260595134347_rgbf000138-resize_2/001158_2014-06-17_15-32-16_260595134347_rgbf000138-resize_2-target.png,250,4.5315,12,2504,250,feet,jsons/v1_VE250_randls_54_rotated.json,484647,629205,41,Man
98,831052,DepthScenes,duration_manipulation_targetAtFixation,jsons/v1_VE250_randls_54_rotated.json,http://54.235.29.9/FacialAge/BNav_EC2/DepthDuration/v2_depth_duration_MTurk/v2_DepthDuration_HTML.html#44,44,1920,969,1920,1080,8-20-2022,11-15-9,99,depth_duration_stimuli/001222_2014-06-17_16-24-06_260595134347_rgbf000073-resize_0/001222_2014-06-17_16-24-06_260595134347_rgbf000073-resize-original.jpg,250,1.4385,0,2488,250,feet,jsons/v1_VE250_randls_54_rotated.json,484647,629205,41,Man
99,831052,DepthScenes,duration_manipulation_targetAtFixation,jsons/v1_VE250_randls_54_rotated.json,http://54.235.29.9/FacialAge/BNav_EC2/DepthDuration/v2_depth_duration_MTurk/v2_DepthDuration_HTML.html#44,44,1920,969,1920,1080,8-20-2022,11-15-9,100,depth_duration_stimuli/001447_2014-06-19_17-00-32_260595134347_rgbf000082-resize_5/001447_2014-06-19_17-00-32_260595134347_rgbf000082-resize_5-target.png,250,4.13775,6,1670,250,feet,jsons/v1_VE250_randls_54_rotated.json,484647,629205,41,Man
100,831052,DepthScenes,duration_manipulation_targetAtFixation,jsons/v1_VE250_randls_54_rotated.json,http://54.235.29.9/FacialAge/BNav_EC2/DepthDuration/v2_depth_duration_MTurk/v2_DepthDuration_HTML.html#44,44,1920,969,1920,1080,8-20-2022,11-15-9,101,depth_duration_stimuli/000447_2014-06-08_16-15-46_260595134347_rgbf000130-resize_1/000447_2014-06-08_16-15-46_260595134347_rgbf000130-resize_1-target.png,250,4.479,12,2040,250,feet,jsons/v1_VE250_randls_54_rotated.json,484647,629205,41,Man
101,831052,DepthScenes,duration_manipulation_targetAtFixation,jsons/v1_VE250_randls_54_rotated.json,http://54.235.29.9/FacialAge/BNav_EC2/DepthDuration/v2_depth_duration_MTurk/v2_DepthDuration_HTML.html#44,44,1920,969,1920,1080,8-20-2022,11-15-9,102,depth_duration_stimuli/003490_2014-05-21_15-50-11_094959634447_rgbf000101-resize_3/003490_2014-05-21_15-50-11_094959634447_rgbf000101-resize_3-target.png,250,3.6445,8,2662,250,feet,jsons/v1_VE250_randls_54_rotated.json,484647,629205,41,Man
102,831052,DepthScenes,duration_manipulation_targetAtFixation,jsons/v1_VE250_randls_54_rotated.json,http://54.235.29.9/FacialAge/BNav_EC2/DepthDuration/v2_depth_duration_MTurk/v2_DepthDuration_HTML.html#44,44,1920,969,1920,1080,8-20-2022,11-15-9,103,depth_duration_stimuli/001175_2014-06-17_15-45-55_260595134347_rgbf000129-resize_4/001175_2014-06-17_15-45-55_260595134347_rgbf000129-resize_4-target.png,250,4.255,14,2211,250,feet,jsons/v1_VE250_randls_54_rotated.json,484647,629205,41,Man
103,831052,DepthScenes,duration_manipulation_targetAtFixation,jsons/v1_VE250_randls_54_rotated.json,http://54.235.29.9/FacialAge/BNav_EC2/DepthDuration/v2_depth_duration_MTurk/v2_DepthDuration_HTML.html#44,44,1920,969,1920,1080,8-20-2022,11-15-9,104,depth_duration_stimuli/002637_2014-06-24_14-51-13_094959634447_rgbf000066-resize_4/002637_2014-06-24_14-51-13_094959634447_rgbf000066-resize_4-target.png,250,1.9955,5,1775,239,feet,jsons/v1_VE250_randls_54_rotated.json,484647,629205,41,Man
104,831052,DepthScenes,duration_manipulation_targetAtFixation,jsons/v1_VE250_randls_54_rotated.json,http://54.235.29.9/FacialAge/BNav_EC2/DepthDuration/v2_depth_duration_MTurk/v2_DepthDuration_HTML.html#44,44,1920,969,1920,1080,8-20-2022,11-15-9,105,depth_duration_stimuli/003534_2014-05-22_15-06-10_094959634447_rgbf000102-resize_4/003534_2014-05-22_15-06-10_094959634447_rgbf000102-resize_4-target.png,250,1.426,1,1512,250,feet,jsons/v1_VE250_randls_54_rotated.json,484647,629205,41,Man
105,831052,DepthScenes,duration_manipulation_targetAtFixation,jsons/v1_VE250_randls_54_rotated.json,http://54.235.29.9/FacialAge/BNav_EC2/DepthDuration/v2_depth_duration_MTurk/v2_DepthDuration_HTML.html#44,44,1920,969,1920,1080,8-20-2022,11-15-9,106,depth_duration_stimuli/002545_2014-06-24_13-38-53_094959634447_rgbf000080-resize_4/002545_2014-06-24_13-38-53_094959634447_rgbf000080-resize_4-target.png,250,1.9205,3,1518,247,feet,jsons/v1_VE250_randls_54_rotated.json,484647,629205,41,Man
106,831052,DepthScenes,duration_manipulation_targetAtFixation,jsons/v1_VE250_randls_54_rotated.json,http://54.235.29.9/FacialAge/BNav_EC2/DepthDuration/v2_depth_duration_MTurk/v2_DepthDuration_HTML.html#44,44,1920,969,1920,1080,8-20-2022,11-15-9,107,depth_duration_stimuli/001092_2014-06-15_17-34-58_260595134347_rgbf000171-resize_3/001092_2014-06-15_17-34-58_260595134347_rgbf000171-resize_3-target.png,250,2.6935,3,2285,240,feet,jsons/v1_VE250_randls_54_rotated.json,484647,629205,41,Man
107,831052,DepthScenes,duration_manipulation_targetAtFixation,jsons/v1_VE250_randls_54_rotated.json,http://54.235.29.9/FacialAge/BNav_EC2/DepthDuration/v2_depth_duration_MTurk/v2_DepthDuration_HTML.html#44,44,1920,969,1920,1080,8-20-2022,11-15-9,108,depth_duration_stimuli/003129_2014-05-12_10-48-10_094959634447_rgbf000100-resize_0/003129_2014-05-12_10-48-10_094959634447_rgbf000100-resize_0-target.png,250,4.9305,10,3066,239,feet,jsons/v1_VE250_randls_54_rotated.json,484647,629205,41,Man
108,831052,DepthScenes,duration_manipulation_targetAtFixation,jsons/v1_VE250_randls_54_rotated.json,http://54.235.29.9/FacialAge/BNav_EC2/DepthDuration/v2_depth_duration_MTurk/v2_DepthDuration_HTML.html#44,44,1920,969,1920,1080,8-20-2022,11-15-9,109,depth_duration_stimuli/000414_2014-06-04_19-49-13_260595134347_rgbf000044-resize_0/000414_2014-06-04_19-49-13_260595134347_rgbf000044-resize_0-target.png,250,4.329,12,2983,235,feet,jsons/v1_VE250_randls_54_rotated.json,484647,629205,41,Man
109,831052,DepthScenes,duration_manipulation_targetAtFixation,jsons/v1_VE250_randls_54_rotated.json,http://54.235.29.9/FacialAge/BNav_EC2/DepthDuration/v2_depth_duration_MTurk/v2_DepthDuration_HTML.html#44,44,1920,969,1920,1080,8-20-2022,11-15-9,110,depth_duration_stimuli/000635_2014-06-08_16-38-42_260595134347_rgbf000106-resize_1/000635_2014-06-08_16-38-42_260595134347_rgbf000106-resize_1-target.png,250,2.074,5,2128,249,feet,jsons/v1_VE250_randls_54_rotated.json,484647,629205,41,Man
110,831052,DepthScenes,duration_manipulation_targetAtFixation,jsons/v1_VE250_randls_54_rotated.json,http://54.235.29.9/FacialAge/BNav_EC2/DepthDuration/v2_depth_duration_MTurk/v2_DepthDuration_HTML.html#44,44,1920,969,1920,1080,8-20-2022,11-15-9,111,depth_duration_stimuli/002279_2014-06-28_18-55-32_260595134347_rgbf000040-resize_5/002279_2014-06-28_18-55-32_260595134347_rgbf000040-resize_5-target.png,250,1.5043333333333,1,1598,249,feet,jsons/v1_VE250_randls_54_rotated.json,484647,629205,41,Man
111,831052,DepthScenes,duration_manipulation_targetAtFixation,jsons/v1_VE250_randls_54_rotated.json,http://54.235.29.9/FacialAge/BNav_EC2/DepthDuration/v2_depth_duration_MTurk/v2_DepthDuration_HTML.html#44,44,1920,969,1920,1080,8-20-2022,11-15-9,112,depth_duration_stimuli/000483_2014-06-09_20-41-45_260595134347_rgbf000116-resize_4/000483_2014-06-09_20-41-45_260595134347_rgbf000116-resize_4-target.png,250,1.337,2,1886,256,feet,jsons/v1_VE250_randls_54_rotated.json,484647,629205,41,Man
112,831052,DepthScenes,duration_manipulation_targetAtFixation,jsons/v1_VE250_randls_54_rotated.json,http://54.235.29.9/FacialAge/BNav_EC2/DepthDuration/v2_depth_duration_MTurk/v2_DepthDuration_HTML.html#44,44,1920,969,1920,1080,8-20-2022,11-15-9,113,depth_duration_stimuli/000469_2014-06-09_19-42-10_260595134347_rgbf000081-resize_1/000469_2014-06-09_19-42-10_260595134347_rgbf000081-resize_1-target.png,250,1.652,2,1538,250,feet,jsons/v1_VE250_randls_54_rotated.json,484647,629205,41,Man
113,831052,DepthScenes,duration_manipulation_targetAtFixation,jsons/v1_VE250_randls_54_rotated.json,http://54.235.29.9/FacialAge/BNav_EC2/DepthDuration/v2_depth_duration_MTurk/v2_DepthDuration_HTML.html#44,44,1920,969,1920,1080,8-20-2022,11-15-9,114,depth_duration_stimuli/003423_2014-05-21_10-23-26_094959634447_rgbf002665-resize_2/003423_2014-05-21_10-23-26_094959634447_rgbf002665-resize_2-target.png,250,3.2575,8,2366,240,feet,jsons/v1_VE250_randls_54_rotated.json,484647,629205,41,Man
114,831052,DepthScenes,duration_manipulation_targetAtFixation,jsons/v1_VE250_randls_54_rotated.json,http://54.235.29.9/FacialAge/BNav_EC2/DepthDuration/v2_depth_duration_MTurk/v2_DepthDuration_HTML.html#44,44,1920,969,1920,1080,8-20-2022,11-15-9,115,depth_duration_stimuli/002905_2014-06-03_18-04-43_094959634447_rgbf000151-resize_2/002905_2014-06-03_18-04-43_094959634447_rgbf000151-resize_2-target.png,250,2.0295,3,1630,249,feet,jsons/v1_VE250_randls_54_rotated.json,484647,629205,41,Man
115,831052,DepthScenes,duration_manipulation_targetAtFixation,jsons/v1_VE250_randls_54_rotated.json,http://54.235.29.9/FacialAge/BNav_EC2/DepthDuration/v2_depth_duration_MTurk/v2_DepthDuration_HTML.html#44,44,1920,969,1920,1080,8-20-2022,11-15-9,116,depth_duration_stimuli/003495_2014-05-21_16-01-51_094959634447_rgbf000100-resize_3/003495_2014-05-21_16-01-51_094959634447_rgbf000100-resize_3-target.png,250,1.6255,2,1734,260,feet,jsons/v1_VE250_randls_54_rotated.json,484647,629205,41,Man
116,831052,DepthScenes,duration_manipulation_targetAtFixation,jsons/v1_VE250_randls_54_rotated.json,http://54.235.29.9/FacialAge/BNav_EC2/DepthDuration/v2_depth_duration_MTurk/v2_DepthDuration_HTML.html#44,44,1920,969,1920,1080,8-20-2022,11-15-9,117,depth_duration_stimuli/001244_2014-06-17_16-47-45_260595134347_rgbf000030-resize_4/001244_2014-06-17_16-47-45_260595134347_rgbf000030-resize_4-target.png,250,2.0425,2,1764,262,feet,jsons/v1_VE250_randls_54_rotated.json,484647,629205,41,Man
117,831052,DepthScenes,duration_manipulation_targetAtFixation,jsons/v1_VE250_randls_54_rotated.json,http://54.235.29.9/FacialAge/BNav_EC2/DepthDuration/v2_depth_duration_MTurk/v2_DepthDuration_HTML.html#44,44,1920,969,1920,1080,8-20-2022,11-15-9,118,depth_duration_stimuli/002199_2014-06-28_18-33-56_260595134347_rgbf000074-resize_0/002199_2014-06-28_18-33-56_260595134347_rgbf000074-resize_0-target.png,250,1.996,1,1686,253,feet,jsons/v1_VE250_randls_54_rotated.json,484647,629205,41,Man
118,831052,DepthScenes,duration_manipulation_targetAtFixation,jsons/v1_VE250_randls_54_rotated.json,http://54.235.29.9/FacialAge/BNav_EC2/DepthDuration/v2_depth_duration_MTurk/v2_DepthDuration_HTML.html#44,44,1920,969,1920,1080,8-20-2022,11-15-9,119,depth_duration_stimuli/001056_2014-06-08_18-46-44_260595134347_rgbf000068-resize_0/001056_2014-06-08_18-46-44_260595134347_rgbf000068-resize_0-target.png,250,2.6625,5,1607,250,feet,jsons/v1_VE250_randls_54_rotated.json,484647,629205,41,Man
119,831052,DepthScenes,duration_manipulation_targetAtFixation,jsons/v1_VE250_randls_54_rotated.json,http://54.235.29.9/FacialAge/BNav_EC2/DepthDuration/v2_depth_duration_MTurk/v2_DepthDuration_HTML.html#44,44,1920,969,1920,1080,8-20-2022,11-15-9,120,depth_duration_stimuli/000787_2014-06-08_22-33-53_260595134347_rgbf000175-resize_1/000787_2014-06-08_22-33-53_260595134347_rgbf000175-resize-original.jpg,250,4.784,0,2949,256,feet,jsons/v1_VE250_randls_54_rotated.json,484647,629205,41,Man
120,831052,DepthScenes,duration_manipulation_targetAtFixation,jsons/v1_VE250_randls_54_rotated.json,http://54.235.29.9/FacialAge/BNav_EC2/DepthDuration/v2_depth_duration_MTurk/v2_DepthDuration_HTML.html#44,44,1920,969,1920,1080,8-20-2022,11-15-9,121,depth_duration_stimuli/002414_2014-06-28_20-24-58_260595134347_rgbf000067-resize_4/002414_2014-06-28_20-24-58_260595134347_rgbf000067-resize_4-target.png,250,4.363,8,5658,250,feet,jsons/v1_VE250_randls_54_rotated.json,484647,629205,41,Man
121,831052,DepthScenes,duration_manipulation_targetAtFixation,jsons/v1_VE250_randls_54_rotated.json,http://54.235.29.9/FacialAge/BNav_EC2/DepthDuration/v2_depth_duration_MTurk/v2_DepthDuration_HTML.html#44,44,1920,969,1920,1080,8-20-2022,11-15-9,122,depth_duration_stimuli/000773_2014-06-08_22-24-54_260595134347_rgbf000093-resize_1/000773_2014-06-08_22-24-54_260595134347_rgbf000093-resize_1-target.png,250,4.973,6,2285,254,feet,jsons/v1_VE250_randls_54_rotated.json,484647,629205,41,Man
122,831052,DepthScenes,duration_manipulation_targetAtFixation,jsons/v1_VE250_randls_54_rotated.json,http://54.235.29.9/FacialAge/BNav_EC2/DepthDuration/v2_depth_duration_MTurk/v2_DepthDuration_HTML.html#44,44,1920,969,1920,1080,8-20-2022,11-15-9,123,depth_duration_stimuli/001450_2014-06-19_17-02-03_260595134347_rgbf000203-resize_4/001450_2014-06-19_17-02-03_260595134347_rgbf000203-resize_4-target.png,250,4.0106666666667,8,2481,242,feet,jsons/v1_VE250_randls_54_rotated.json,484647,629205,41,Man
123,831052,DepthScenes,duration_manipulation_targetAtFixation,jsons/v1_VE250_randls_54_rotated.json,http://54.235.29.9/FacialAge/BNav_EC2/DepthDuration/v2_depth_duration_MTurk/v2_DepthDuration_HTML.html#44,44,1920,969,1920,1080,8-20-2022,11-15-9,124,depth_duration_stimuli/001449_2014-06-19_17-01-27_260595134347_rgbf000116-resize_2/001449_2014-06-19_17-01-27_260595134347_rgbf000116-resize_2-target.png,250,3.452,5,1551,249,feet,jsons/v1_VE250_randls_54_rotated.json,484647,629205,41,Man
124,831052,DepthScenes,duration_manipulation_targetAtFixation,jsons/v1_VE250_randls_54_rotated.json,http://54.235.29.9/FacialAge/BNav_EC2/DepthDuration/v2_depth_duration_MTurk/v2_DepthDuration_HTML.html#44,44,1920,969,1920,1080,8-20-2022,11-15-9,125,depth_duration_stimuli/001650_2014-06-20_12-09-00_260595134347_rgbf000087-resize_3/001650_2014-06-20_12-09-00_260595134347_rgbf000087-resize_3-target.png,250,1.9505,0,3200,240,feet,jsons/v1_VE250_randls_54_rotated.json,484647,629205,41,Man
125,831052,DepthScenes,duration_manipulation_targetAtFixation,jsons/v1_VE250_randls_54_rotated.json,http://54.235.29.9/FacialAge/BNav_EC2/DepthDuration/v2_depth_duration_MTurk/v2_DepthDuration_HTML.html#44,44,1920,969,1920,1080,8-20-2022,11-15-9,126,depth_duration_stimuli/000682_2014-06-08_23-14-58_260595134347_rgbf000041-resize_5/000682_2014-06-08_23-14-58_260595134347_rgbf000041-resize_5-target.png,250,2.7239999999999998,4,1646,260,feet,jsons/v1_VE250_randls_54_rotated.json,484647,629205,41,Man
126,831052,DepthScenes,duration_manipulation_targetAtFixation,jsons/v1_VE250_randls_54_rotated.json,http://54.235.29.9/FacialAge/BNav_EC2/DepthDuration/v2_depth_duration_MTurk/v2_DepthDuration_HTML.html#44,44,1920,969,1920,1080,8-20-2022,11-15-9,127,depth_duration_stimuli/002758_2014-06-22_19-11-20_094959634447_rgbf000128-resize_1/002758_2014-06-22_19-11-20_094959634447_rgbf000128-resize_1-target.png,250,2.555,3,1459,234,feet,jsons/v1_VE250_randls_54_rotated.json,484647,629205,41,Man
127,831052,DepthScenes,duration_manipulation_targetAtFixation,jsons/v1_VE250_randls_54_rotated.json,http://54.235.29.9/FacialAge/BNav_EC2/DepthDuration/v2_depth_duration_MTurk/v2_DepthDuration_HTML.html#44,44,1920,969,1920,1080,8-20-2022,11-15-9,128,depth_duration_stimuli/002630_2014-06-24_14-47-50_094959634447_rgbf000055-resize_1/002630_2014-06-24_14-47-50_094959634447_rgbf000055-resize_1-target.png,250,3.0095,9,2455,260,feet,jsons/v1_VE250_randls_54_rotated.json,484647,629205,41,Man
128,831052,DepthScenes,duration_manipulation_targetAtFixation,jsons/v1_VE250_randls_54_rotated.json,http://54.235.29.9/FacialAge/BNav_EC2/DepthDuration/v2_depth_duration_MTurk/v2_DepthDuration_HTML.html#44,44,1920,969,1920,1080,8-20-2022,11-15-9,129,depth_duration_stimuli/002995_2014-06-15_12-31-26_094959634447_rgbf000150-resize_1/002995_2014-06-15_12-31-26_094959634447_rgbf000150-resize_1-target.png,250,3.8360000000000003,10,2954,250,feet,jsons/v1_VE250_randls_54_rotated.json,484647,629205,41,Man
129,831052,DepthScenes,duration_manipulation_targetAtFixation,jsons/v1_VE250_randls_54_rotated.json,http://54.235.29.9/FacialAge/BNav_EC2/DepthDuration/v2_depth_duration_MTurk/v2_DepthDuration_HTML.html#44,44,1920,969,1920,1080,8-20-2022,11-15-9,130,depth_duration_stimuli/002748_2014-06-22_19-07-22_094959634447_rgbf000078-resize_1/002748_2014-06-22_19-07-22_094959634447_rgbf000078-resize_1-target.png,250,4.6705,12,1812,249,feet,jsons/v1_VE250_randls_54_rotated.json,484647,629205,41,Man
130,831052,DepthScenes,duration_manipulation_targetAtFixation,jsons/v1_VE250_randls_54_rotated.json,http://54.235.29.9/FacialAge/BNav_EC2/DepthDuration/v2_depth_duration_MTurk/v2_DepthDuration_HTML.html#44,44,1920,969,1920,1080,8-20-2022,11-15-9,131,depth_duration_stimuli/000854_2014-06-09_19-43-13_260595134347_rgbf000066-resize_0/000854_2014-06-09_19-43-13_260595134347_rgbf000066-resize_0-target.png,250,3.068,2,1599,263,feet,jsons/v1_VE250_randls_54_rotated.json,484647,629205,41,Man
131,831052,DepthScenes,duration_manipulation_targetAtFixation,jsons/v1_VE250_randls_54_rotated.json,http://54.235.29.9/FacialAge/BNav_EC2/DepthDuration/v2_depth_duration_MTurk/v2_DepthDuration_HTML.html#44,44,1920,969,1920,1080,8-20-2022,11-15-9,132,depth_duration_stimuli/000758_2014-06-08_22-05-08_260595134347_rgbf000085-resize_0/000758_2014-06-08_22-05-08_260595134347_rgbf000085-resize_0-target.png,250,3.3810000000000002,8,5194,250,feet,jsons/v1_VE250_randls_54_rotated.json,484647,629205,41,Man
132,831052,DepthScenes,duration_manipulation_targetAtFixation,jsons/v1_VE250_randls_54_rotated.json,http://54.235.29.9/FacialAge/BNav_EC2/DepthDuration/v2_depth_duration_MTurk/v2_DepthDuration_HTML.html#44,44,1920,969,1920,1080,8-20-2022,11-15-9,133,depth_duration_stimuli/002425_2014-06-28_20-27-29_260595134347_rgbf000031-resize_8/002425_2014-06-28_20-27-29_260595134347_rgbf000031-resize_8-target.png,250,3.8960000000000004,8,4346,261,feet,jsons/v1_VE250_randls_54_rotated.json,484647,629205,41,Man
133,831052,DepthScenes,duration_manipulation_targetAtFixation,jsons/v1_VE250_randls_54_rotated.json,http://54.235.29.9/FacialAge/BNav_EC2/DepthDuration/v2_depth_duration_MTurk/v2_DepthDuration_HTML.html#44,44,1920,969,1920,1080,8-20-2022,11-15-9,134,depth_duration_stimuli/000642_2014-06-08_16-59-25_260595134347_rgbf000098-resize_2/000642_2014-06-08_16-59-25_260595134347_rgbf000098-resize_2-target.png,250,2.8815,4,1504,256,feet,jsons/v1_VE250_randls_54_rotated.json,484647,629205,41,Man
134,831052,DepthScenes,duration_manipulation_targetAtFixation,jsons/v1_VE250_randls_54_rotated.json,http://54.235.29.9/FacialAge/BNav_EC2/DepthDuration/v2_depth_duration_MTurk/v2_DepthDuration_HTML.html#44,44,1920,969,1920,1080,8-20-2022,11-15-9,135,depth_duration_stimuli/000375_2014-06-08_11-17-29_260595134347_rgbf000133-resize_2/000375_2014-06-08_11-17-29_260595134347_rgbf000133-resize-original.jpg,250,4.718,0,2465,241,feet,jsons/v1_VE250_randls_54_rotated.json,484647,629205,41,Man
135,831052,DepthScenes,duration_manipulation_targetAtFixation,jsons/v1_VE250_randls_54_rotated.json,http://54.235.29.9/FacialAge/BNav_EC2/DepthDuration/v2_depth_duration_MTurk/v2_DepthDuration_HTML.html#44,44,1920,969,1920,1080,8-20-2022,11-15-9,136,depth_duration_stimuli/001617_2014-06-20_11-35-32_260595134347_rgbf000066-resize_1/001617_2014-06-20_11-35-32_260595134347_rgbf000066-resize_1-target.png,250,3.7910000000000004,7,1946,244,feet,jsons/v1_VE250_randls_54_rotated.json,484647,629205,41,Man
136,831052,DepthScenes,duration_manipulation_targetAtFixation,jsons/v1_VE250_randls_54_rotated.json,http://54.235.29.9/FacialAge/BNav_EC2/DepthDuration/v2_depth_duration_MTurk/v2_DepthDuration_HTML.html#44,44,1920,969,1920,1080,8-20-2022,11-15-9,137,depth_duration_stimuli/001806_2014-06-26_20-50-20_260595134347_rgbf000091-resize_1/001806_2014-06-26_20-50-20_260595134347_rgbf000091-resize_1-target.png,250,2.7305,2,1537,250,feet,jsons/v1_VE250_randls_54_rotated.json,484647,629205,41,Man
137,831052,DepthScenes,duration_manipulation_targetAtFixation,jsons/v1_VE250_randls_54_rotated.json,http://54.235.29.9/FacialAge/BNav_EC2/DepthDuration/v2_depth_duration_MTurk/v2_DepthDuration_HTML.html#44,44,1920,969,1920,1080,8-20-2022,11-15-9,138,depth_duration_stimuli/000549_2014-06-08_22-10-24_260595134347_rgbf000247-resize_3/000549_2014-06-08_22-10-24_260595134347_rgbf000247-resize_3-target.png,250,1.841,1,1811,249,feet,jsons/v1_VE250_randls_54_rotated.json,484647,629205,41,Man
138,831052,DepthScenes,duration_manipulation_targetAtFixation,jsons/v1_VE250_randls_54_rotated.json,http://54.235.29.9/FacialAge/BNav_EC2/DepthDuration/v2_depth_duration_MTurk/v2_DepthDuration_HTML.html#44,44,1920,969,1920,1080,8-20-2022,11-15-9,139,depth_duration_stimuli/001055_2014-06-08_18-45-35_260595134347_rgbf000111-resize_4/001055_2014-06-08_18-45-35_260595134347_rgbf000111-resize_4-target.png,250,2.4290000000000003,7,2570,250,feet,jsons/v1_VE250_randls_54_rotated.json,484647,629205,41,Man
139,831052,DepthScenes,duration_manipulation_targetAtFixation,jsons/v1_VE250_randls_54_rotated.json,http://54.235.29.9/FacialAge/BNav_EC2/DepthDuration/v2_depth_duration_MTurk/v2_DepthDuration_HTML.html#44,44,1920,969,1920,1080,8-20-2022,11-15-9,140,depth_duration_stimuli/000457_2014-06-08_16-52-43_260595134347_rgbf000199-resize_1/000457_2014-06-08_16-52-43_260595134347_rgbf000199-resize_1-target.png,250,3.6489999999999996,6,2332,239,feet,jsons/v1_VE250_randls_54_rotated.json,484647,629205,41,Man
140,831052,DepthScenes,duration_manipulation_targetAtFixation,jsons/v1_VE250_randls_54_rotated.json,http://54.235.29.9/FacialAge/BNav_EC2/DepthDuration/v2_depth_duration_MTurk/v2_DepthDuration_HTML.html#44,44,1920,969,1920,1080,8-20-2022,11-15-9,141,depth_duration_stimuli/000929_2014-06-09_16-33-19_260595134347_rgbf000139-resize_0/000929_2014-06-09_16-33-19_260595134347_rgbf000139-resize_0-target.png,250,2.8680000000000003,4,1693,252,feet,jsons/v1_VE250_randls_54_rotated.json,484647,629205,41,Man
141,831052,DepthScenes,duration_manipulation_targetAtFixation,jsons/v1_VE250_randls_54_rotated.json,http://54.235.29.9/FacialAge/BNav_EC2/DepthDuration/v2_depth_duration_MTurk/v2_DepthDuration_HTML.html#44,44,1920,969,1920,1080,8-20-2022,11-15-9,142,depth_duration_stimuli/003048_2014-06-15_13-49-43_094959634447_rgbf000150-resize_1/003048_2014-06-15_13-49-43_094959634447_rgbf000150-resize_1-target.png,250,4.0035,9,2354,250,feet,jsons/v1_VE250_randls_54_rotated.json,484647,629205,41,Man
142,831052,DepthScenes,duration_manipulation_targetAtFixation,jsons/v1_VE250_randls_54_rotated.json,http://54.235.29.9/FacialAge/BNav_EC2/DepthDuration/v2_depth_duration_MTurk/v2_DepthDuration_HTML.html#44,44,1920,969,1920,1080,8-20-2022,11-15-9,143,depth_duration_stimuli/002043_2014-06-24_20-29-38_260595134347_rgbf000039-resize_4/002043_2014-06-24_20-29-38_260595134347_rgbf000039-resize_4-target.png,250,2.8435,7,2716,255,feet,jsons/v1_VE250_randls_54_rotated.json,484647,629205,41,Man
143,831052,DepthScenes,duration_manipulation_targetAtFixation,jsons/v1_VE250_randls_54_rotated.json,http://54.235.29.9/FacialAge/BNav_EC2/DepthDuration/v2_depth_duration_MTurk/v2_DepthDuration_HTML.html#44,44,1920,969,1920,1080,8-20-2022,11-15-9,144,depth_duration_stimuli/002660_2014-06-13_15-44-18_094959634447_rgbf001878-resize_2/002660_2014-06-13_15-44-18_094959634447_rgbf001878-resize_2-target.png,250,3.576,5,1852,250,feet,jsons/v1_VE250_randls_54_rotated.json,484647,629205,41,Man
144,831052,DepthScenes,duration_manipulation_targetAtFixation,jsons/v1_VE250_randls_54_rotated.json,http://54.235.29.9/FacialAge/BNav_EC2/DepthDuration/v2_depth_duration_MTurk/v2_DepthDuration_HTML.html#44,44,1920,969,1920,1080,8-20-2022,11-15-9,145,depth_duration_stimuli/002153_2014-06-25_21-27-18_260595134347_rgbf000038-resize_5/002153_2014-06-25_21-27-18_260595134347_rgbf000038-resize_5-target.png,250,2.505,4,1929,250,feet,jsons/v1_VE250_randls_54_rotated.json,484647,629205,41,Man
145,831052,DepthScenes,duration_manipulation_targetAtFixation,jsons/v1_VE250_randls_54_rotated.json,http://54.235.29.9/FacialAge/BNav_EC2/DepthDuration/v2_depth_duration_MTurk/v2_DepthDuration_HTML.html#44,44,1920,969,1920,1080,8-20-2022,11-15-9,146,depth_duration_stimuli/003083_2014-06-15_15-21-03_094959634447_rgbf000063-resize_1/003083_2014-06-15_15-21-03_094959634447_rgbf000063-resize_1-target.png,250,4.1405,8,2344,249,feet,jsons/v1_VE250_randls_54_rotated.json,484647,629205,41,Man
146,831052,DepthScenes,duration_manipulation_targetAtFixation,jsons/v1_VE250_randls_54_rotated.json,http://54.235.29.9/FacialAge/BNav_EC2/DepthDuration/v2_depth_duration_MTurk/v2_DepthDuration_HTML.html#44,44,1920,969,1920,1080,8-20-2022,11-15-9,147,depth_duration_stimuli/000486_2014-06-09_20-47-20_260595134347_rgbf000143-resize_2/000486_2014-06-09_20-47-20_260595134347_rgbf000143-resize_2-target.png,250,4.8325,6,2056,249,feet,jsons/v1_VE250_randls_54_rotated.json,484647,629205,41,Man
147,831052,DepthScenes,duration_manipulation_targetAtFixation,jsons/v1_VE250_randls_54_rotated.json,http://54.235.29.9/FacialAge/BNav_EC2/DepthDuration/v2_depth_duration_MTurk/v2_DepthDuration_HTML.html#44,44,1920,969,1920,1080,8-20-2022,11-15-9,148,depth_duration_stimuli/002678_2014-06-13_16-15-32_094959634447_rgbf000151-resize_6/002678_2014-06-13_16-15-32_094959634447_rgbf000151-resize_6-target.png,250,2.1830000000000003,5,1519,250,feet,jsons/v1_VE250_randls_54_rotated.json,484647,629205,41,Man
148,831052,DepthScenes,duration_manipulation_targetAtFixation,jsons/v1_VE250_randls_54_rotated.json,http://54.235.29.9/FacialAge/BNav_EC2/DepthDuration/v2_depth_duration_MTurk/v2_DepthDuration_HTML.html#44,44,1920,969,1920,1080,8-20-2022,11-15-9,149,depth_duration_stimuli/000368_2014-06-09_15-53-01_260595134347_rgbf000155-resize_2/000368_2014-06-09_15-53-01_260595134347_rgbf000155-resize_2-target.png,250,2.4859999999999998,3,1787,249,feet,jsons/v1_VE250_randls_54_rotated.json,484647,629205,41,Man
149,831052,DepthScenes,duration_manipulation_targetAtFixation,jsons/v1_VE250_randls_54_rotated.json,http://54.235.29.9/FacialAge/BNav_EC2/DepthDuration/v2_depth_duration_MTurk/v2_DepthDuration_HTML.html#44,44,1920,969,1920,1080,8-20-2022,11-15-9,150,depth_duration_stimuli/003081_2014-06-15_15-19-16_094959634447_rgbf000150-resize_1/003081_2014-06-15_15-19-16_094959634447_rgbf000150-resize_1-target.png,250,3.9125,8,2401,250,feet,jsons/v1_VE250_randls_54_rotated.json,484647,629205,41,Man
150,831052,DepthScenes,duration_manipulation_targetAtFixation,jsons/v1_VE250_randls_54_rotated.json,http://54.235.29.9/FacialAge/BNav_EC2/DepthDuration/v2_depth_duration_MTurk/v2_DepthDuration_HTML.html#44,44,1920,969,1920,1080,8-20-2022,11-15-9,151,depth_duration_stimuli/001417_2014-06-19_16-25-36_260595134347_rgbf000115-resize_5/001417_2014-06-19_16-25-36_260595134347_rgbf000115-resize_5-target.png,250,4.6255,9,2361,249,feet,jsons/v1_VE250_randls_54_rotated.json,484647,629205,41,Man
151,831052,DepthScenes,duration_manipulation_targetAtFixation,jsons/v1_VE250_randls_54_rotated.json,http://54.235.29.9/FacialAge/BNav_EC2/DepthDuration/v2_depth_duration_MTurk/v2_DepthDuration_HTML.html#44,44,1920,969,1920,1080,8-20-2022,11-15-9,152,depth_duration_stimuli/000569_2014-06-09_22-51-47_260595134347_rgbf000141-resize_3/000569_2014-06-09_22-51-47_260595134347_rgbf000141-resize-original.jpg,250,4.512,0,2673,247,feet,jsons/v1_VE250_randls_54_rotated.json,484647,629205,41,Man
152,831052,DepthScenes,duration_manipulation_targetAtFixation,jsons/v1_VE250_randls_54_rotated.json,http://54.235.29.9/FacialAge/BNav_EC2/DepthDuration/v2_depth_duration_MTurk/v2_DepthDuration_HTML.html#44,44,1920,969,1920,1080,8-20-2022,11-15-9,153,depth_duration_stimuli/002467_2014-06-28_20-38-07_260595134347_rgbf000026-resize_2/002467_2014-06-28_20-38-07_260595134347_rgbf000026-resize_2-target.png,250,4.742,8,2536,249,feet,jsons/v1_VE250_randls_54_rotated.json,484647,629205,41,Man
153,831052,DepthScenes,duration_manipulation_targetAtFixation,jsons/v1_VE250_randls_54_rotated.json,http://54.235.29.9/FacialAge/BNav_EC2/DepthDuration/v2_depth_duration_MTurk/v2_DepthDuration_HTML.html#44,44,1920,969,1920,1080,8-20-2022,11-15-9,154,depth_duration_stimuli/002570_2014-06-24_13-59-54_094959634447_rgbf000059-resize_0/002570_2014-06-24_13-59-54_094959634447_rgbf000059-resize_0-target.png,250,4.037,7,2245,250,feet,jsons/v1_VE250_randls_54_rotated.json,484647,629205,41,Man
154,831052,DepthScenes,duration_manipulation_targetAtFixation,jsons/v1_VE250_randls_54_rotated.json,http://54.235.29.9/FacialAge/BNav_EC2/DepthDuration/v2_depth_duration_MTurk/v2_DepthDuration_HTML.html#44,44,1920,969,1920,1080,8-20-2022,11-15-9,155,depth_duration_stimuli/002805_2014-06-22_19-54-03_094959634447_rgbf000079-resize_1/002805_2014-06-22_19-54-03_094959634447_rgbf000079-resize_1-target.png,250,3.1439999999999997,6,2292,256,feet,jsons/v1_VE250_randls_54_rotated.json,484647,629205,41,Man
155,831052,DepthScenes,duration_manipulation_targetAtFixation,jsons/v1_VE250_randls_54_rotated.json,http://54.235.29.9/FacialAge/BNav_EC2/DepthDuration/v2_depth_duration_MTurk/v2_DepthDuration_HTML.html#44,44,1920,969,1920,1080,8-20-2022,11-15-9,156,depth_duration_stimuli/000906_2014-06-08_13-35-43_260595134347_rgbf000155-resize_1/000906_2014-06-08_13-35-43_260595134347_rgbf000155-resize_1-target.png,250,2.8489999999999998,9,2341,250,feet,jsons/v1_VE250_randls_54_rotated.json,484647,629205,41,Man
156,831052,DepthScenes,duration_manipulation_targetAtFixation,jsons/v1_VE250_randls_54_rotated.json,http://54.235.29.9/FacialAge/BNav_EC2/DepthDuration/v2_depth_duration_MTurk/v2_DepthDuration_HTML.html#44,44,1920,969,1920,1080,8-20-2022,11-15-9,157,depth_duration_stimuli/002639_2014-06-24_14-51-37_094959634447_rgbf000074-resize_4/002639_2014-06-24_14-51-37_094959634447_rgbf000074-resize_4-target.png,250,4.0375,10,2523,239,feet,jsons/v1_VE250_randls_54_rotated.json,484647,629205,41,Man
157,831052,DepthScenes,duration_manipulation_targetAtFixation,jsons/v1_VE250_randls_54_rotated.json,http://54.235.29.9/FacialAge/BNav_EC2/DepthDuration/v2_depth_duration_MTurk/v2_DepthDuration_HTML.html#44,44,1920,969,1920,1080,8-20-2022,11-15-9,158,depth_duration_stimuli/003292_2014-05-14_21-53-49_094959634447_rgbf000100-resize_2/003292_2014-05-14_21-53-49_094959634447_rgbf000100-resize_2-target.png,250,3.4815,4,1514,239,feet,jsons/v1_VE250_randls_54_rotated.json,484647,629205,41,Man
158,831052,DepthScenes,duration_manipulation_targetAtFixation,jsons/v1_VE250_randls_54_rotated.json,http://54.235.29.9/FacialAge/BNav_EC2/DepthDuration/v2_depth_duration_MTurk/v2_DepthDuration_HTML.html#44,44,1920,969,1920,1080,8-20-2022,11-15-9,159,depth_duration_stimuli/000709_2014-06-08_13-51-55_260595134347_rgbf000068-resize_3/000709_2014-06-08_13-51-55_260595134347_rgbf000068-resize_3-target.png,250,1.8030000000000002,2,1507,238,feet,jsons/v1_VE250_randls_54_rotated.json,484647,629205,41,Man
159,831052,DepthScenes,duration_manipulation_targetAtFixation,jsons/v1_VE250_randls_54_rotated.json,http://54.235.29.9/FacialAge/BNav_EC2/DepthDuration/v2_depth_duration_MTurk/v2_DepthDuration_HTML.html#44,44,1920,969,1920,1080,8-20-2022,11-15-9,160,depth_duration_stimuli/002057_2014-06-24_21-00-13_260595134347_rgbf000120-resize_1/002057_2014-06-24_21-00-13_260595134347_rgbf000120-resize_1-target.png,250,2.967,6,2385,264,feet,jsons/v1_VE250_randls_54_rotated.json,484647,629205,41,Man
160,831052,DepthScenes,duration_manipulation_targetAtFixation,jsons/v1_VE250_randls_54_rotated.json,http://54.235.29.9/FacialAge/BNav_EC2/DepthDuration/v2_depth_duration_MTurk/v2_DepthDuration_HTML.html#44,44,1920,969,1920,1080,8-20-2022,11-15-9,161,depth_duration_stimuli/001100_2014-06-15_17-46-26_260595134347_rgbf000225-resize_2/001100_2014-06-15_17-46-26_260595134347_rgbf000225-resize_2-target.png,250,2.24,1,1553,252,feet,jsons/v1_VE250_randls_54_rotated.json,484647,629205,41,Man
161,831052,DepthScenes,duration_manipulation_targetAtFixation,jsons/v1_VE250_randls_54_rotated.json,http://54.235.29.9/FacialAge/BNav_EC2/DepthDuration/v2_depth_duration_MTurk/v2_DepthDuration_HTML.html#44,44,1920,969,1920,1080,8-20-2022,11-15-9,162,depth_duration_stimuli/002784_2014-06-22_19-26-30_094959634447_rgbf000083-resize_3/002784_2014-06-22_19-26-30_094959634447_rgbf000083-resize_3-target.png,250,1.8046666666667,1,1535,250,feet,jsons/v1_VE250_randls_54_rotated.json,484647,629205,41,Man
162,831052,DepthScenes,duration_manipulation_targetAtFixation,jsons/v1_VE250_randls_54_rotated.json,http://54.235.29.9/FacialAge/BNav_EC2/DepthDuration/v2_depth_duration_MTurk/v2_DepthDuration_HTML.html#44,44,1920,969,1920,1080,8-20-2022,11-15-9,163,depth_duration_stimuli/000742_2014-06-08_18-48-09_260595134347_rgbf000164-resize_4/000742_2014-06-08_18-48-09_260595134347_rgbf000164-resize_4-target.png,250,4.632,8,2551,236,feet,jsons/v1_VE250_randls_54_rotated.json,484647,629205,41,Man
163,831052,DepthScenes,duration_manipulation_targetAtFixation,jsons/v1_VE250_randls_54_rotated.json,http://54.235.29.9/FacialAge/BNav_EC2/DepthDuration/v2_depth_duration_MTurk/v2_DepthDuration_HTML.html#44,44,1920,969,1920,1080,8-20-2022,11-15-9,164,depth_duration_stimuli/001066_2014-06-08_22-03-20_260595134347_rgbf000066-resize_4/001066_2014-06-08_22-03-20_260595134347_rgbf000066-resize_4-target.png,250,4.2330000000000005,6,31346,246,feet,jsons/v1_VE250_randls_54_rotated.json,484647,629205,41,Man
