,subjID,experimentName,versionName,sequenceName,url,selected_row,windowWidth,windowHeight,screenWidth,screenHeight,startDate,startTime,trial,stimulus,duration,actual_depth,depth_estimate,trial_RT,log_sceneDuration,unitSelection,seq_filepath,experimentTime,totalTime,age,gender
0,832128,DepthScenes,duration_manipulation_targetAtFixation,jsons/v1_VE1000_randls_3_rotated.json,http://54.235.29.9/FacialAge/BNav_EC2/DepthDuration/v2_depth_duration_MTurk/v2_DepthDuration_HTML.html#36,36,1366,768,1366,768,8-22-2022,7-13-47,1,depth_duration_stimuli/000927_2014-06-09_16-32-30_260595134347_rgbf000123-resize_3/000927_2014-06-09_16-32-30_260595134347_rgbf000123-resize_3-target.png,1000,2.6785,8,3593,999,feet,jsons/v1_VE1000_randls_3_rotated.json,690872,1205926,25,Man
1,832128,DepthScenes,duration_manipulation_targetAtFixation,jsons/v1_VE1000_randls_3_rotated.json,http://54.235.29.9/FacialAge/BNav_EC2/DepthDuration/v2_depth_duration_MTurk/v2_DepthDuration_HTML.html#36,36,1366,768,1366,768,8-22-2022,7-13-47,2,depth_duration_stimuli/001110_2014-06-15_17-25-28_260595134347_rgbf000150-resize_1/001110_2014-06-15_17-25-28_260595134347_rgbf000150-resize_1-target.png,1000,1.7115,5,3417,997,feet,jsons/v1_VE1000_randls_3_rotated.json,690872,1205926,25,Man
2,832128,DepthScenes,duration_manipulation_targetAtFixation,jsons/v1_VE1000_randls_3_rotated.json,http://54.235.29.9/FacialAge/BNav_EC2/DepthDuration/v2_depth_duration_MTurk/v2_DepthDuration_HTML.html#36,36,1366,768,1366,768,8-22-2022,7-13-47,3,depth_duration_stimuli/001214_2014-06-17_16-13-55_260595134347_rgbf000111-resize_0/001214_2014-06-17_16-13-55_260595134347_rgbf000111-resize_0-target.png,1000,2.6505,5,4544,1005,feet,jsons/v1_VE1000_randls_3_rotated.json,690872,1205926,25,Man
3,832128,DepthScenes,duration_manipulation_targetAtFixation,jsons/v1_VE1000_randls_3_rotated.json,http://54.235.29.9/FacialAge/BNav_EC2/DepthDuration/v2_depth_duration_MTurk/v2_DepthDuration_HTML.html#36,36,1366,768,1366,768,8-22-2022,7-13-47,4,depth_duration_stimuli/000810_2014-06-08_17-20-01_260595134347_rgbf000105-resize_0/000810_2014-06-08_17-20-01_260595134347_rgbf000105-resize_0-target.png,1000,1.4865,5,3682,998,feet,jsons/v1_VE1000_randls_3_rotated.json,690872,1205926,25,Man
4,832128,DepthScenes,duration_manipulation_targetAtFixation,jsons/v1_VE1000_randls_3_rotated.json,http://54.235.29.9/FacialAge/BNav_EC2/DepthDuration/v2_depth_duration_MTurk/v2_DepthDuration_HTML.html#36,36,1366,768,1366,768,8-22-2022,7-13-47,5,depth_duration_stimuli/001136_2014-06-17_15-19-41_260595134347_rgbf000076-resize_3/001136_2014-06-17_15-19-41_260595134347_rgbf000076-resize_3-target.png,1000,1.8655,8,3387,1003,feet,jsons/v1_VE1000_randls_3_rotated.json,690872,1205926,25,Man
5,832128,DepthScenes,duration_manipulation_targetAtFixation,jsons/v1_VE1000_randls_3_rotated.json,http://54.235.29.9/FacialAge/BNav_EC2/DepthDuration/v2_depth_duration_MTurk/v2_DepthDuration_HTML.html#36,36,1366,768,1366,768,8-22-2022,7-13-47,6,depth_duration_stimuli/001164_2014-06-17_15-35-46_260595134347_rgbf000085-resize_3/001164_2014-06-17_15-35-46_260595134347_rgbf000085-resize_3-target.png,1000,2.354,8,3385,999,feet,jsons/v1_VE1000_randls_3_rotated.json,690872,1205926,25,Man
6,832128,DepthScenes,duration_manipulation_targetAtFixation,jsons/v1_VE1000_randls_3_rotated.json,http://54.235.29.9/FacialAge/BNav_EC2/DepthDuration/v2_depth_duration_MTurk/v2_DepthDuration_HTML.html#36,36,1366,768,1366,768,8-22-2022,7-13-47,7,depth_duration_stimuli/003338_2014-05-20_11-01-23_094959634447_rgbf000051-resize_6/003338_2014-05-20_11-01-23_094959634447_rgbf000051-resize_6-target.png,1000,1.693,5,3958,997,feet,jsons/v1_VE1000_randls_3_rotated.json,690872,1205926,25,Man
7,832128,DepthScenes,duration_manipulation_targetAtFixation,jsons/v1_VE1000_randls_3_rotated.json,http://54.235.29.9/FacialAge/BNav_EC2/DepthDuration/v2_depth_duration_MTurk/v2_DepthDuration_HTML.html#36,36,1366,768,1366,768,8-22-2022,7-13-47,8,depth_duration_stimuli/002509_2014-06-24_13-19-22_094959634447_rgbf000077-resize_0/002509_2014-06-24_13-19-22_094959634447_rgbf000077-resize_0-target.png,1000,1.3065,5,2922,999,feet,jsons/v1_VE1000_randls_3_rotated.json,690872,1205926,25,Man
8,832128,DepthScenes,duration_manipulation_targetAtFixation,jsons/v1_VE1000_randls_3_rotated.json,http://54.235.29.9/FacialAge/BNav_EC2/DepthDuration/v2_depth_duration_MTurk/v2_DepthDuration_HTML.html#36,36,1366,768,1366,768,8-22-2022,7-13-47,9,depth_duration_stimuli/000677_2014-06-08_23-10-32_260595134347_rgbf000158-resize_6/000677_2014-06-08_23-10-32_260595134347_rgbf000158-resize_6-target.png,1000,3.556,7,4319,997,feet,jsons/v1_VE1000_randls_3_rotated.json,690872,1205926,25,Man
9,832128,DepthScenes,duration_manipulation_targetAtFixation,jsons/v1_VE1000_randls_3_rotated.json,http://54.235.29.9/FacialAge/BNav_EC2/DepthDuration/v2_depth_duration_MTurk/v2_DepthDuration_HTML.html#36,36,1366,768,1366,768,8-22-2022,7-13-47,10,depth_duration_stimuli/001029_2014-06-08_13-17-57_260595134347_rgbf000065-resize_1/001029_2014-06-08_13-17-57_260595134347_rgbf000065-resize_1-target.png,1000,3.0835,6,3603,1015,feet,jsons/v1_VE1000_randls_3_rotated.json,690872,1205926,25,Man
10,832128,DepthScenes,duration_manipulation_targetAtFixation,jsons/v1_VE1000_randls_3_rotated.json,http://54.235.29.9/FacialAge/BNav_EC2/DepthDuration/v2_depth_duration_MTurk/v2_DepthDuration_HTML.html#36,36,1366,768,1366,768,8-22-2022,7-13-47,11,depth_duration_stimuli/001650_2014-06-20_12-09-00_260595134347_rgbf000087-resize_3/001650_2014-06-20_12-09-00_260595134347_rgbf000087-resize_3-target.png,1000,1.9505,3,4246,999,feet,jsons/v1_VE1000_randls_3_rotated.json,690872,1205926,25,Man
11,832128,DepthScenes,duration_manipulation_targetAtFixation,jsons/v1_VE1000_randls_3_rotated.json,http://54.235.29.9/FacialAge/BNav_EC2/DepthDuration/v2_depth_duration_MTurk/v2_DepthDuration_HTML.html#36,36,1366,768,1366,768,8-22-2022,7-13-47,12,depth_duration_stimuli/000682_2014-06-08_23-14-58_260595134347_rgbf000041-resize_5/000682_2014-06-08_23-14-58_260595134347_rgbf000041-resize_5-target.png,1000,2.7239999999999998,5,3101,1000,feet,jsons/v1_VE1000_randls_3_rotated.json,690872,1205926,25,Man
12,832128,DepthScenes,duration_manipulation_targetAtFixation,jsons/v1_VE1000_randls_3_rotated.json,http://54.235.29.9/FacialAge/BNav_EC2/DepthDuration/v2_depth_duration_MTurk/v2_DepthDuration_HTML.html#36,36,1366,768,1366,768,8-22-2022,7-13-47,13,depth_duration_stimuli/000943_2014-06-09_19-31-07_260595134347_rgbf000128-resize_1/000943_2014-06-09_19-31-07_260595134347_rgbf000128-resize_1-target.png,1000,1.9765,6,4485,992,feet,jsons/v1_VE1000_randls_3_rotated.json,690872,1205926,25,Man
13,832128,DepthScenes,duration_manipulation_targetAtFixation,jsons/v1_VE1000_randls_3_rotated.json,http://54.235.29.9/FacialAge/BNav_EC2/DepthDuration/v2_depth_duration_MTurk/v2_DepthDuration_HTML.html#36,36,1366,768,1366,768,8-22-2022,7-13-47,14,depth_duration_stimuli/003070_2014-06-15_14-58-27_094959634447_rgbf000150-resize_3/003070_2014-06-15_14-58-27_094959634447_rgbf000150-resize_3-target.png,1000,2.9415,7,3645,998,feet,jsons/v1_VE1000_randls_3_rotated.json,690872,1205926,25,Man
14,832128,DepthScenes,duration_manipulation_targetAtFixation,jsons/v1_VE1000_randls_3_rotated.json,http://54.235.29.9/FacialAge/BNav_EC2/DepthDuration/v2_depth_duration_MTurk/v2_DepthDuration_HTML.html#36,36,1366,768,1366,768,8-22-2022,7-13-47,15,depth_duration_stimuli/001392_2014-06-19_16-07-59_260595134347_rgbf000046-resize_1/001392_2014-06-19_16-07-59_260595134347_rgbf000046-resize_1-target.png,1000,4.135,8,2922,989,feet,jsons/v1_VE1000_randls_3_rotated.json,690872,1205926,25,Man
15,832128,DepthScenes,duration_manipulation_targetAtFixation,jsons/v1_VE1000_randls_3_rotated.json,http://54.235.29.9/FacialAge/BNav_EC2/DepthDuration/v2_depth_duration_MTurk/v2_DepthDuration_HTML.html#36,36,1366,768,1366,768,8-22-2022,7-13-47,16,depth_duration_stimuli/001570_2014-06-20_17-21-09_260595134347_rgbf000135-resize_4/001570_2014-06-20_17-21-09_260595134347_rgbf000135-resize_4-target.png,1000,4.467,7,3127,1012,feet,jsons/v1_VE1000_randls_3_rotated.json,690872,1205926,25,Man
16,832128,DepthScenes,duration_manipulation_targetAtFixation,jsons/v1_VE1000_randls_3_rotated.json,http://54.235.29.9/FacialAge/BNav_EC2/DepthDuration/v2_depth_duration_MTurk/v2_DepthDuration_HTML.html#36,36,1366,768,1366,768,8-22-2022,7-13-47,17,depth_duration_stimuli/002750_2014-06-22_19-08-03_094959634447_rgbf000094-resize_4/002750_2014-06-22_19-08-03_094959634447_rgbf000094-resize_4-target.png,1000,2.354,6,3583,1000,feet,jsons/v1_VE1000_randls_3_rotated.json,690872,1205926,25,Man
17,832128,DepthScenes,duration_manipulation_targetAtFixation,jsons/v1_VE1000_randls_3_rotated.json,http://54.235.29.9/FacialAge/BNav_EC2/DepthDuration/v2_depth_duration_MTurk/v2_DepthDuration_HTML.html#36,36,1366,768,1366,768,8-22-2022,7-13-47,18,depth_duration_stimuli/002549_2014-06-24_13-41-39_094959634447_rgbf000022-resize_3/002549_2014-06-24_13-41-39_094959634447_rgbf000022-resize_3-target.png,1000,1.476,5,2868,1000,feet,jsons/v1_VE1000_randls_3_rotated.json,690872,1205926,25,Man
18,832128,DepthScenes,duration_manipulation_targetAtFixation,jsons/v1_VE1000_randls_3_rotated.json,http://54.235.29.9/FacialAge/BNav_EC2/DepthDuration/v2_depth_duration_MTurk/v2_DepthDuration_HTML.html#36,36,1366,768,1366,768,8-22-2022,7-13-47,19,depth_duration_stimuli/001498_2014-06-19_17-45-14_260595134347_rgbf000129-resize_4/001498_2014-06-19_17-45-14_260595134347_rgbf000129-resize-original.jpg,1000,1.4075,0,3254,1001,feet,jsons/v1_VE1000_randls_3_rotated.json,690872,1205926,25,Man
19,832128,DepthScenes,duration_manipulation_targetAtFixation,jsons/v1_VE1000_randls_3_rotated.json,http://54.235.29.9/FacialAge/BNav_EC2/DepthDuration/v2_depth_duration_MTurk/v2_DepthDuration_HTML.html#36,36,1366,768,1366,768,8-22-2022,7-13-47,20,depth_duration_stimuli/002949_2014-06-26_15-57-42_094959634447_rgbf000079-resize_1/002949_2014-06-26_15-57-42_094959634447_rgbf000079-resize_1-target.png,1000,1.8915,7,3437,995,feet,jsons/v1_VE1000_randls_3_rotated.json,690872,1205926,25,Man
20,832128,DepthScenes,duration_manipulation_targetAtFixation,jsons/v1_VE1000_randls_3_rotated.json,http://54.235.29.9/FacialAge/BNav_EC2/DepthDuration/v2_depth_duration_MTurk/v2_DepthDuration_HTML.html#36,36,1366,768,1366,768,8-22-2022,7-13-47,21,depth_duration_stimuli/000522_2014-06-08_13-35-06_260595134347_rgbf000244-resize_1/000522_2014-06-08_13-35-06_260595134347_rgbf000244-resize_1-target.png,1000,2.3715,5,3583,984,feet,jsons/v1_VE1000_randls_3_rotated.json,690872,1205926,25,Man
21,832128,DepthScenes,duration_manipulation_targetAtFixation,jsons/v1_VE1000_randls_3_rotated.json,http://54.235.29.9/FacialAge/BNav_EC2/DepthDuration/v2_depth_duration_MTurk/v2_DepthDuration_HTML.html#36,36,1366,768,1366,768,8-22-2022,7-13-47,22,depth_duration_stimuli/003081_2014-06-15_15-19-16_094959634447_rgbf000150-resize_1/003081_2014-06-15_15-19-16_094959634447_rgbf000150-resize_1-target.png,1000,3.9125,8,3386,1035,feet,jsons/v1_VE1000_randls_3_rotated.json,690872,1205926,25,Man
22,832128,DepthScenes,duration_manipulation_targetAtFixation,jsons/v1_VE1000_randls_3_rotated.json,http://54.235.29.9/FacialAge/BNav_EC2/DepthDuration/v2_depth_duration_MTurk/v2_DepthDuration_HTML.html#36,36,1366,768,1366,768,8-22-2022,7-13-47,23,depth_duration_stimuli/001417_2014-06-19_16-25-36_260595134347_rgbf000115-resize_5/001417_2014-06-19_16-25-36_260595134347_rgbf000115-resize_5-target.png,1000,4.6255,8,3154,1014,feet,jsons/v1_VE1000_randls_3_rotated.json,690872,1205926,25,Man
23,832128,DepthScenes,duration_manipulation_targetAtFixation,jsons/v1_VE1000_randls_3_rotated.json,http://54.235.29.9/FacialAge/BNav_EC2/DepthDuration/v2_depth_duration_MTurk/v2_DepthDuration_HTML.html#36,36,1366,768,1366,768,8-22-2022,7-13-47,24,depth_duration_stimuli/002995_2014-06-15_12-31-26_094959634447_rgbf000150-resize_1/002995_2014-06-15_12-31-26_094959634447_rgbf000150-resize_1-target.png,1000,3.8360000000000003,9,3258,1000,feet,jsons/v1_VE1000_randls_3_rotated.json,690872,1205926,25,Man
24,832128,DepthScenes,duration_manipulation_targetAtFixation,jsons/v1_VE1000_randls_3_rotated.json,http://54.235.29.9/FacialAge/BNav_EC2/DepthDuration/v2_depth_duration_MTurk/v2_DepthDuration_HTML.html#36,36,1366,768,1366,768,8-22-2022,7-13-47,25,depth_duration_stimuli/002748_2014-06-22_19-07-22_094959634447_rgbf000078-resize_1/002748_2014-06-22_19-07-22_094959634447_rgbf000078-resize_1-target.png,1000,4.6705,9,3039,998,feet,jsons/v1_VE1000_randls_3_rotated.json,690872,1205926,25,Man
25,832128,DepthScenes,duration_manipulation_targetAtFixation,jsons/v1_VE1000_randls_3_rotated.json,http://54.235.29.9/FacialAge/BNav_EC2/DepthDuration/v2_depth_duration_MTurk/v2_DepthDuration_HTML.html#36,36,1366,768,1366,768,8-22-2022,7-13-47,26,depth_duration_stimuli/002103_2014-06-25_20-00-40_260595134347_rgbf000049-resize_0/002103_2014-06-25_20-00-40_260595134347_rgbf000049-resize_0-target.png,1000,4.105,9,3448,1001,feet,jsons/v1_VE1000_randls_3_rotated.json,690872,1205926,25,Man
26,832128,DepthScenes,duration_manipulation_targetAtFixation,jsons/v1_VE1000_randls_3_rotated.json,http://54.235.29.9/FacialAge/BNav_EC2/DepthDuration/v2_depth_duration_MTurk/v2_DepthDuration_HTML.html#36,36,1366,768,1366,768,8-22-2022,7-13-47,27,depth_duration_stimuli/002039_2014-06-24_20-22-38_260595134347_rgbf000084-resize_1/002039_2014-06-24_20-22-38_260595134347_rgbf000084-resize_1-target.png,1000,4.408,8,3000,995,feet,jsons/v1_VE1000_randls_3_rotated.json,690872,1205926,25,Man
27,832128,DepthScenes,duration_manipulation_targetAtFixation,jsons/v1_VE1000_randls_3_rotated.json,http://54.235.29.9/FacialAge/BNav_EC2/DepthDuration/v2_depth_duration_MTurk/v2_DepthDuration_HTML.html#36,36,1366,768,1366,768,8-22-2022,7-13-47,28,depth_duration_stimuli/001516_2014-06-20_16-25-09_260595134347_rgbf000076-resize_2/001516_2014-06-20_16-25-09_260595134347_rgbf000076-resize_2-target.png,1000,1.7445,7,3298,999,feet,jsons/v1_VE1000_randls_3_rotated.json,690872,1205926,25,Man
28,832128,DepthScenes,duration_manipulation_targetAtFixation,jsons/v1_VE1000_randls_3_rotated.json,http://54.235.29.9/FacialAge/BNav_EC2/DepthDuration/v2_depth_duration_MTurk/v2_DepthDuration_HTML.html#36,36,1366,768,1366,768,8-22-2022,7-13-47,29,depth_duration_stimuli/002118_2014-06-25_20-32-08_260595134347_rgbf000078-resize_1/002118_2014-06-25_20-32-08_260595134347_rgbf000078-resize_1-target.png,1000,2.6460000000000004,5,3150,998,feet,jsons/v1_VE1000_randls_3_rotated.json,690872,1205926,25,Man
29,832128,DepthScenes,duration_manipulation_targetAtFixation,jsons/v1_VE1000_randls_3_rotated.json,http://54.235.29.9/FacialAge/BNav_EC2/DepthDuration/v2_depth_duration_MTurk/v2_DepthDuration_HTML.html#36,36,1366,768,1366,768,8-22-2022,7-13-47,30,depth_duration_stimuli/002072_2014-06-24_21-48-06_260595134347_rgbf000115-resize_0/002072_2014-06-24_21-48-06_260595134347_rgbf000115-resize-original.jpg,1000,4.702,0,3896,1001,feet,jsons/v1_VE1000_randls_3_rotated.json,690872,1205926,25,Man
30,832128,DepthScenes,duration_manipulation_targetAtFixation,jsons/v1_VE1000_randls_3_rotated.json,http://54.235.29.9/FacialAge/BNav_EC2/DepthDuration/v2_depth_duration_MTurk/v2_DepthDuration_HTML.html#36,36,1366,768,1366,768,8-22-2022,7-13-47,31,depth_duration_stimuli/001052_2014-06-08_18-24-54_260595134347_rgbf000130-resize_1/001052_2014-06-08_18-24-54_260595134347_rgbf000130-resize_1-target.png,1000,4.1045,7,3103,999,feet,jsons/v1_VE1000_randls_3_rotated.json,690872,1205926,25,Man
31,832128,DepthScenes,duration_manipulation_targetAtFixation,jsons/v1_VE1000_randls_3_rotated.json,http://54.235.29.9/FacialAge/BNav_EC2/DepthDuration/v2_depth_duration_MTurk/v2_DepthDuration_HTML.html#36,36,1366,768,1366,768,8-22-2022,7-13-47,32,depth_duration_stimuli/002988_2014-06-15_12-24-20_094959634447_rgbf000150-resize_1/002988_2014-06-15_12-24-20_094959634447_rgbf000150-resize_1-target.png,1000,4.7669999999999995,8,3375,1001,feet,jsons/v1_VE1000_randls_3_rotated.json,690872,1205926,25,Man
32,832128,DepthScenes,duration_manipulation_targetAtFixation,jsons/v1_VE1000_randls_3_rotated.json,http://54.235.29.9/FacialAge/BNav_EC2/DepthDuration/v2_depth_duration_MTurk/v2_DepthDuration_HTML.html#36,36,1366,768,1366,768,8-22-2022,7-13-47,33,depth_duration_stimuli/001132_2014-06-17_14-48-54_260595134347_rgbf000100-resize_2/001132_2014-06-17_14-48-54_260595134347_rgbf000100-resize_2-target.png,1000,3.753,8,3131,1002,feet,jsons/v1_VE1000_randls_3_rotated.json,690872,1205926,25,Man
33,832128,DepthScenes,duration_manipulation_targetAtFixation,jsons/v1_VE1000_randls_3_rotated.json,http://54.235.29.9/FacialAge/BNav_EC2/DepthDuration/v2_depth_duration_MTurk/v2_DepthDuration_HTML.html#36,36,1366,768,1366,768,8-22-2022,7-13-47,34,depth_duration_stimuli/001133_2014-06-17_14-49-16_260595134347_rgbf000100-resize_0/001133_2014-06-17_14-49-16_260595134347_rgbf000100-resize_0-target.png,1000,4.2115,6,3338,998,feet,jsons/v1_VE1000_randls_3_rotated.json,690872,1205926,25,Man
34,832128,DepthScenes,duration_manipulation_targetAtFixation,jsons/v1_VE1000_randls_3_rotated.json,http://54.235.29.9/FacialAge/BNav_EC2/DepthDuration/v2_depth_duration_MTurk/v2_DepthDuration_HTML.html#36,36,1366,768,1366,768,8-22-2022,7-13-47,35,depth_duration_stimuli/002639_2014-06-24_14-51-37_094959634447_rgbf000074-resize_4/002639_2014-06-24_14-51-37_094959634447_rgbf000074-resize_4-target.png,1000,4.0375,8,3805,1001,feet,jsons/v1_VE1000_randls_3_rotated.json,690872,1205926,25,Man
35,832128,DepthScenes,duration_manipulation_targetAtFixation,jsons/v1_VE1000_randls_3_rotated.json,http://54.235.29.9/FacialAge/BNav_EC2/DepthDuration/v2_depth_duration_MTurk/v2_DepthDuration_HTML.html#36,36,1366,768,1366,768,8-22-2022,7-13-47,36,depth_duration_stimuli/003292_2014-05-14_21-53-49_094959634447_rgbf000100-resize_2/003292_2014-05-14_21-53-49_094959634447_rgbf000100-resize_2-target.png,1000,3.4815,5,3038,998,feet,jsons/v1_VE1000_randls_3_rotated.json,690872,1205926,25,Man
36,832128,DepthScenes,duration_manipulation_targetAtFixation,jsons/v1_VE1000_randls_3_rotated.json,http://54.235.29.9/FacialAge/BNav_EC2/DepthDuration/v2_depth_duration_MTurk/v2_DepthDuration_HTML.html#36,36,1366,768,1366,768,8-22-2022,7-13-47,37,depth_duration_stimuli/002209_2014-06-28_18-36-10_260595134347_rgbf000051-resize_1/002209_2014-06-28_18-36-10_260595134347_rgbf000051-resize_1-target.png,1000,2.057,6,3266,1000,feet,jsons/v1_VE1000_randls_3_rotated.json,690872,1205926,25,Man
37,832128,DepthScenes,duration_manipulation_targetAtFixation,jsons/v1_VE1000_randls_3_rotated.json,http://54.235.29.9/FacialAge/BNav_EC2/DepthDuration/v2_depth_duration_MTurk/v2_DepthDuration_HTML.html#36,36,1366,768,1366,768,8-22-2022,7-13-47,38,depth_duration_stimuli/002763_2014-06-22_19-13-10_094959634447_rgbf000075-resize_4/002763_2014-06-22_19-13-10_094959634447_rgbf000075-resize_4-target.png,1000,1.68375,7,3243,999,feet,jsons/v1_VE1000_randls_3_rotated.json,690872,1205926,25,Man
38,832128,DepthScenes,duration_manipulation_targetAtFixation,jsons/v1_VE1000_randls_3_rotated.json,http://54.235.29.9/FacialAge/BNav_EC2/DepthDuration/v2_depth_duration_MTurk/v2_DepthDuration_HTML.html#36,36,1366,768,1366,768,8-22-2022,7-13-47,39,depth_duration_stimuli/000191_2014-05-12_17-07-38_260595134347_rgbf000199-resize_0/000191_2014-05-12_17-07-38_260595134347_rgbf000199-resize_0-target.png,1000,3.7995,8,3370,999,feet,jsons/v1_VE1000_randls_3_rotated.json,690872,1205926,25,Man
39,832128,DepthScenes,duration_manipulation_targetAtFixation,jsons/v1_VE1000_randls_3_rotated.json,http://54.235.29.9/FacialAge/BNav_EC2/DepthDuration/v2_depth_duration_MTurk/v2_DepthDuration_HTML.html#36,36,1366,768,1366,768,8-22-2022,7-13-47,40,depth_duration_stimuli/000493_2014-06-09_21-01-18_260595134347_rgbf000196-resize_3/000493_2014-06-09_21-01-18_260595134347_rgbf000196-resize_3-target.png,1000,3.44,6,3300,999,feet,jsons/v1_VE1000_randls_3_rotated.json,690872,1205926,25,Man
40,832128,DepthScenes,duration_manipulation_targetAtFixation,jsons/v1_VE1000_randls_3_rotated.json,http://54.235.29.9/FacialAge/BNav_EC2/DepthDuration/v2_depth_duration_MTurk/v2_DepthDuration_HTML.html#36,36,1366,768,1366,768,8-22-2022,7-13-47,41,depth_duration_stimuli/003079_2014-06-15_15-18-20_094959634447_rgbf000152-resize_8/003079_2014-06-15_15-18-20_094959634447_rgbf000152-resize_8-target.png,1000,2.8775,9,3151,999,feet,jsons/v1_VE1000_randls_3_rotated.json,690872,1205926,25,Man
41,832128,DepthScenes,duration_manipulation_targetAtFixation,jsons/v1_VE1000_randls_3_rotated.json,http://54.235.29.9/FacialAge/BNav_EC2/DepthDuration/v2_depth_duration_MTurk/v2_DepthDuration_HTML.html#36,36,1366,768,1366,768,8-22-2022,7-13-47,42,depth_duration_stimuli/000506_2014-06-08_23-21-00_260595134347_rgbf000070-resize_7/000506_2014-06-08_23-21-00_260595134347_rgbf000070-resize_7-target.png,1000,4.0585,7,3079,998,feet,jsons/v1_VE1000_randls_3_rotated.json,690872,1205926,25,Man
42,832128,DepthScenes,duration_manipulation_targetAtFixation,jsons/v1_VE1000_randls_3_rotated.json,http://54.235.29.9/FacialAge/BNav_EC2/DepthDuration/v2_depth_duration_MTurk/v2_DepthDuration_HTML.html#36,36,1366,768,1366,768,8-22-2022,7-13-47,43,depth_duration_stimuli/002340_2014-06-28_20-05-46_260595134347_rgbf000113-resize_0/002340_2014-06-28_20-05-46_260595134347_rgbf000113-resize_0-target.png,1000,2.4735,8,3304,968,feet,jsons/v1_VE1000_randls_3_rotated.json,690872,1205926,25,Man
43,832128,DepthScenes,duration_manipulation_targetAtFixation,jsons/v1_VE1000_randls_3_rotated.json,http://54.235.29.9/FacialAge/BNav_EC2/DepthDuration/v2_depth_duration_MTurk/v2_DepthDuration_HTML.html#36,36,1366,768,1366,768,8-22-2022,7-13-47,44,depth_duration_stimuli/001016_2014-06-09_16-16-10_260595134347_rgbf000112-resize_5/001016_2014-06-09_16-16-10_260595134347_rgbf000112-resize_5-target.png,1000,1.6565,7,4129,1000,feet,jsons/v1_VE1000_randls_3_rotated.json,690872,1205926,25,Man
44,832128,DepthScenes,duration_manipulation_targetAtFixation,jsons/v1_VE1000_randls_3_rotated.json,http://54.235.29.9/FacialAge/BNav_EC2/DepthDuration/v2_depth_duration_MTurk/v2_DepthDuration_HTML.html#36,36,1366,768,1366,768,8-22-2022,7-13-47,45,depth_duration_stimuli/002657_2014-06-13_15-29-54_094959634447_rgbf000150-resize_1/002657_2014-06-13_15-29-54_094959634447_rgbf000150-resize_1-target.png,1000,4.919,6,3809,998,feet,jsons/v1_VE1000_randls_3_rotated.json,690872,1205926,25,Man
45,832128,DepthScenes,duration_manipulation_targetAtFixation,jsons/v1_VE1000_randls_3_rotated.json,http://54.235.29.9/FacialAge/BNav_EC2/DepthDuration/v2_depth_duration_MTurk/v2_DepthDuration_HTML.html#36,36,1366,768,1366,768,8-22-2022,7-13-47,46,depth_duration_stimuli/002375_2014-06-28_20-13-44_260595134347_rgbf000032-resize_1/002375_2014-06-28_20-13-44_260595134347_rgbf000032-resize_1-target.png,1000,4.0175,7,3922,998,feet,jsons/v1_VE1000_randls_3_rotated.json,690872,1205926,25,Man
46,832128,DepthScenes,duration_manipulation_targetAtFixation,jsons/v1_VE1000_randls_3_rotated.json,http://54.235.29.9/FacialAge/BNav_EC2/DepthDuration/v2_depth_duration_MTurk/v2_DepthDuration_HTML.html#36,36,1366,768,1366,768,8-22-2022,7-13-47,47,depth_duration_stimuli/003490_2014-05-21_15-50-11_094959634447_rgbf000101-resize_3/003490_2014-05-21_15-50-11_094959634447_rgbf000101-resize_3-target.png,1000,3.6445,7,3514,995,feet,jsons/v1_VE1000_randls_3_rotated.json,690872,1205926,25,Man
47,832128,DepthScenes,duration_manipulation_targetAtFixation,jsons/v1_VE1000_randls_3_rotated.json,http://54.235.29.9/FacialAge/BNav_EC2/DepthDuration/v2_depth_duration_MTurk/v2_DepthDuration_HTML.html#36,36,1366,768,1366,768,8-22-2022,7-13-47,48,depth_duration_stimuli/001175_2014-06-17_15-45-55_260595134347_rgbf000129-resize_4/001175_2014-06-17_15-45-55_260595134347_rgbf000129-resize_4-target.png,1000,4.255,8,3123,993,feet,jsons/v1_VE1000_randls_3_rotated.json,690872,1205926,25,Man
48,832128,DepthScenes,duration_manipulation_targetAtFixation,jsons/v1_VE1000_randls_3_rotated.json,http://54.235.29.9/FacialAge/BNav_EC2/DepthDuration/v2_depth_duration_MTurk/v2_DepthDuration_HTML.html#36,36,1366,768,1366,768,8-22-2022,7-13-47,49,depth_duration_stimuli/001170_2014-06-17_15-43-44_260595134347_rgbf000096-resize_6/001170_2014-06-17_15-43-44_260595134347_rgbf000096-resize-original.jpg,1000,1.1909999999999998,0,3450,1000,feet,jsons/v1_VE1000_randls_3_rotated.json,690872,1205926,25,Man
49,832128,DepthScenes,duration_manipulation_targetAtFixation,jsons/v1_VE1000_randls_3_rotated.json,http://54.235.29.9/FacialAge/BNav_EC2/DepthDuration/v2_depth_duration_MTurk/v2_DepthDuration_HTML.html#36,36,1366,768,1366,768,8-22-2022,7-13-47,50,depth_duration_stimuli/000734_2014-06-08_17-39-11_260595134347_rgbf000128-resize_2/000734_2014-06-08_17-39-11_260595134347_rgbf000128-resize_2-target.png,1000,4.098,8,3288,1000,feet,jsons/v1_VE1000_randls_3_rotated.json,690872,1205926,25,Man
50,832128,DepthScenes,duration_manipulation_targetAtFixation,jsons/v1_VE1000_randls_3_rotated.json,http://54.235.29.9/FacialAge/BNav_EC2/DepthDuration/v2_depth_duration_MTurk/v2_DepthDuration_HTML.html#36,36,1366,768,1366,768,8-22-2022,7-13-47,51,depth_duration_stimuli/000739_2014-06-08_18-45-58_260595134347_rgbf000068-resize_1/000739_2014-06-08_18-45-58_260595134347_rgbf000068-resize_1-target.png,1000,3.534,7,3238,1022,feet,jsons/v1_VE1000_randls_3_rotated.json,690872,1205926,25,Man
51,832128,DepthScenes,duration_manipulation_targetAtFixation,jsons/v1_VE1000_randls_3_rotated.json,http://54.235.29.9/FacialAge/BNav_EC2/DepthDuration/v2_depth_duration_MTurk/v2_DepthDuration_HTML.html#36,36,1366,768,1366,768,8-22-2022,7-13-47,52,depth_duration_stimuli/002344_2014-06-28_20-06-29_260595134347_rgbf000030-resize_1/002344_2014-06-28_20-06-29_260595134347_rgbf000030-resize_1-target.png,1000,1.5795,3,4348,1000,feet,jsons/v1_VE1000_randls_3_rotated.json,690872,1205926,25,Man
52,832128,DepthScenes,duration_manipulation_targetAtFixation,jsons/v1_VE1000_randls_3_rotated.json,http://54.235.29.9/FacialAge/BNav_EC2/DepthDuration/v2_depth_duration_MTurk/v2_DepthDuration_HTML.html#36,36,1366,768,1366,768,8-22-2022,7-13-47,53,depth_duration_stimuli/002725_2014-06-22_11-47-51_094959634447_rgbf000070-resize_1/002725_2014-06-22_11-47-51_094959634447_rgbf000070-resize_1-target.png,1000,2.195,8,3146,1006,feet,jsons/v1_VE1000_randls_3_rotated.json,690872,1205926,25,Man
53,832128,DepthScenes,duration_manipulation_targetAtFixation,jsons/v1_VE1000_randls_3_rotated.json,http://54.235.29.9/FacialAge/BNav_EC2/DepthDuration/v2_depth_duration_MTurk/v2_DepthDuration_HTML.html#36,36,1366,768,1366,768,8-22-2022,7-13-47,54,depth_duration_stimuli/002444_2014-06-28_20-32-08_260595134347_rgbf000027-resize_0/002444_2014-06-28_20-32-08_260595134347_rgbf000027-resize_0-target.png,1000,4.388999999999999,6,3433,994,feet,jsons/v1_VE1000_randls_3_rotated.json,690872,1205926,25,Man
54,832128,DepthScenes,duration_manipulation_targetAtFixation,jsons/v1_VE1000_randls_3_rotated.json,http://54.235.29.9/FacialAge/BNav_EC2/DepthDuration/v2_depth_duration_MTurk/v2_DepthDuration_HTML.html#36,36,1366,768,1366,768,8-22-2022,7-13-47,55,depth_duration_stimuli/000436_2014-06-09_22-25-11_260595134347_rgbf000137-resize_1/000436_2014-06-09_22-25-11_260595134347_rgbf000137-resize_1-target.png,1000,4.0705,8,3572,999,feet,jsons/v1_VE1000_randls_3_rotated.json,690872,1205926,25,Man
55,832128,DepthScenes,duration_manipulation_targetAtFixation,jsons/v1_VE1000_randls_3_rotated.json,http://54.235.29.9/FacialAge/BNav_EC2/DepthDuration/v2_depth_duration_MTurk/v2_DepthDuration_HTML.html#36,36,1366,768,1366,768,8-22-2022,7-13-47,56,depth_duration_stimuli/000103_2014-05-14_22-01-17_260595134347_rgbf000152-resize_5/000103_2014-05-14_22-01-17_260595134347_rgbf000152-resize_5-target.png,1000,1.993,6,3107,999,feet,jsons/v1_VE1000_randls_3_rotated.json,690872,1205926,25,Man
56,832128,DepthScenes,duration_manipulation_targetAtFixation,jsons/v1_VE1000_randls_3_rotated.json,http://54.235.29.9/FacialAge/BNav_EC2/DepthDuration/v2_depth_duration_MTurk/v2_DepthDuration_HTML.html#36,36,1366,768,1366,768,8-22-2022,7-13-47,57,depth_duration_stimuli/001555_2014-06-20_17-12-10_260595134347_rgbf000065-resize_4/001555_2014-06-20_17-12-10_260595134347_rgbf000065-resize_4-target.png,1000,1.633,5,3469,1010,feet,jsons/v1_VE1000_randls_3_rotated.json,690872,1205926,25,Man
57,832128,DepthScenes,duration_manipulation_targetAtFixation,jsons/v1_VE1000_randls_3_rotated.json,http://54.235.29.9/FacialAge/BNav_EC2/DepthDuration/v2_depth_duration_MTurk/v2_DepthDuration_HTML.html#36,36,1366,768,1366,768,8-22-2022,7-13-47,58,depth_duration_stimuli/000502_2014-06-08_23-02-32_260595134347_rgbf000063-resize_4/000502_2014-06-08_23-02-32_260595134347_rgbf000063-resize_4-target.png,1000,2.431,5,3058,1014,feet,jsons/v1_VE1000_randls_3_rotated.json,690872,1205926,25,Man
58,832128,DepthScenes,duration_manipulation_targetAtFixation,jsons/v1_VE1000_randls_3_rotated.json,http://54.235.29.9/FacialAge/BNav_EC2/DepthDuration/v2_depth_duration_MTurk/v2_DepthDuration_HTML.html#36,36,1366,768,1366,768,8-22-2022,7-13-47,59,depth_duration_stimuli/001199_2014-06-17_16-03-48_260595134347_rgbf000077-resize_0/001199_2014-06-17_16-03-48_260595134347_rgbf000077-resize_0-target.png,1000,3.4375,8,3344,999,feet,jsons/v1_VE1000_randls_3_rotated.json,690872,1205926,25,Man
59,832128,DepthScenes,duration_manipulation_targetAtFixation,jsons/v1_VE1000_randls_3_rotated.json,http://54.235.29.9/FacialAge/BNav_EC2/DepthDuration/v2_depth_duration_MTurk/v2_DepthDuration_HTML.html#36,36,1366,768,1366,768,8-22-2022,7-13-47,60,depth_duration_stimuli/002323_2014-06-28_20-01-54_260595134347_rgbf000051-resize_4/002323_2014-06-28_20-01-54_260595134347_rgbf000051-resize_4-target.png,1000,3.7310000000000003,8,3969,1012,feet,jsons/v1_VE1000_randls_3_rotated.json,690872,1205926,25,Man
60,832128,DepthScenes,duration_manipulation_targetAtFixation,jsons/v1_VE1000_randls_3_rotated.json,http://54.235.29.9/FacialAge/BNav_EC2/DepthDuration/v2_depth_duration_MTurk/v2_DepthDuration_HTML.html#36,36,1366,768,1366,768,8-22-2022,7-13-47,61,depth_duration_stimuli/000917_2014-06-09_22-45-29_260595134347_rgbf000149-resize_3/000917_2014-06-09_22-45-29_260595134347_rgbf000149-resize_3-target.png,1000,4.1865,8,4234,1001,feet,jsons/v1_VE1000_randls_3_rotated.json,690872,1205926,25,Man
61,832128,DepthScenes,duration_manipulation_targetAtFixation,jsons/v1_VE1000_randls_3_rotated.json,http://54.235.29.9/FacialAge/BNav_EC2/DepthDuration/v2_depth_duration_MTurk/v2_DepthDuration_HTML.html#36,36,1366,768,1366,768,8-22-2022,7-13-47,62,depth_duration_stimuli/002136_2014-06-25_21-18-03_260595134347_rgbf000109-resize_3/002136_2014-06-25_21-18-03_260595134347_rgbf000109-resize_3-target.png,1000,1.9569999999999999,6,3392,1000,feet,jsons/v1_VE1000_randls_3_rotated.json,690872,1205926,25,Man
62,832128,DepthScenes,duration_manipulation_targetAtFixation,jsons/v1_VE1000_randls_3_rotated.json,http://54.235.29.9/FacialAge/BNav_EC2/DepthDuration/v2_depth_duration_MTurk/v2_DepthDuration_HTML.html#36,36,1366,768,1366,768,8-22-2022,7-13-47,63,depth_duration_stimuli/002964_2014-06-08_17-46-11_094959634447_rgbf000091-resize_4/002964_2014-06-08_17-46-11_094959634447_rgbf000091-resize_4-target.png,1000,1.6909999999999998,3,3037,985,feet,jsons/v1_VE1000_randls_3_rotated.json,690872,1205926,25,Man
63,832128,DepthScenes,duration_manipulation_targetAtFixation,jsons/v1_VE1000_randls_3_rotated.json,http://54.235.29.9/FacialAge/BNav_EC2/DepthDuration/v2_depth_duration_MTurk/v2_DepthDuration_HTML.html#36,36,1366,768,1366,768,8-22-2022,7-13-47,64,depth_duration_stimuli/000457_2014-06-08_16-52-43_260595134347_rgbf000199-resize_1/000457_2014-06-08_16-52-43_260595134347_rgbf000199-resize_1-target.png,1000,3.6489999999999996,7,3053,992,feet,jsons/v1_VE1000_randls_3_rotated.json,690872,1205926,25,Man
64,832128,DepthScenes,duration_manipulation_targetAtFixation,jsons/v1_VE1000_randls_3_rotated.json,http://54.235.29.9/FacialAge/BNav_EC2/DepthDuration/v2_depth_duration_MTurk/v2_DepthDuration_HTML.html#36,36,1366,768,1366,768,8-22-2022,7-13-47,65,depth_duration_stimuli/000929_2014-06-09_16-33-19_260595134347_rgbf000139-resize_0/000929_2014-06-09_16-33-19_260595134347_rgbf000139-resize_0-target.png,1000,2.8680000000000003,5,3177,1008,feet,jsons/v1_VE1000_randls_3_rotated.json,690872,1205926,25,Man
65,832128,DepthScenes,duration_manipulation_targetAtFixation,jsons/v1_VE1000_randls_3_rotated.json,http://54.235.29.9/FacialAge/BNav_EC2/DepthDuration/v2_depth_duration_MTurk/v2_DepthDuration_HTML.html#36,36,1366,768,1366,768,8-22-2022,7-13-47,66,depth_duration_stimuli/001540_2014-06-20_17-01-05_260595134347_rgbf000086-resize_2/001540_2014-06-20_17-01-05_260595134347_rgbf000086-resize-original.jpg,1000,1.459,0,3266,996,feet,jsons/v1_VE1000_randls_3_rotated.json,690872,1205926,25,Man
66,832128,DepthScenes,duration_manipulation_targetAtFixation,jsons/v1_VE1000_randls_3_rotated.json,http://54.235.29.9/FacialAge/BNav_EC2/DepthDuration/v2_depth_duration_MTurk/v2_DepthDuration_HTML.html#36,36,1366,768,1366,768,8-22-2022,7-13-47,67,depth_duration_stimuli/001447_2014-06-19_17-00-32_260595134347_rgbf000082-resize_5/001447_2014-06-19_17-00-32_260595134347_rgbf000082-resize_5-target.png,1000,4.13775,7,3286,1011,feet,jsons/v1_VE1000_randls_3_rotated.json,690872,1205926,25,Man
67,832128,DepthScenes,duration_manipulation_targetAtFixation,jsons/v1_VE1000_randls_3_rotated.json,http://54.235.29.9/FacialAge/BNav_EC2/DepthDuration/v2_depth_duration_MTurk/v2_DepthDuration_HTML.html#36,36,1366,768,1366,768,8-22-2022,7-13-47,68,depth_duration_stimuli/000447_2014-06-08_16-15-46_260595134347_rgbf000130-resize_1/000447_2014-06-08_16-15-46_260595134347_rgbf000130-resize_1-target.png,1000,4.479,8,3772,999,feet,jsons/v1_VE1000_randls_3_rotated.json,690872,1205926,25,Man
68,832128,DepthScenes,duration_manipulation_targetAtFixation,jsons/v1_VE1000_randls_3_rotated.json,http://54.235.29.9/FacialAge/BNav_EC2/DepthDuration/v2_depth_duration_MTurk/v2_DepthDuration_HTML.html#36,36,1366,768,1366,768,8-22-2022,7-13-47,69,depth_duration_stimuli/002953_2014-06-08_17-32-18_094959634447_rgbf000059-resize_5/002953_2014-06-08_17-32-18_094959634447_rgbf000059-resize_5-target.png,1000,1.551,5,3067,1013,feet,jsons/v1_VE1000_randls_3_rotated.json,690872,1205926,25,Man
69,832128,DepthScenes,duration_manipulation_targetAtFixation,jsons/v1_VE1000_randls_3_rotated.json,http://54.235.29.9/FacialAge/BNav_EC2/DepthDuration/v2_depth_duration_MTurk/v2_DepthDuration_HTML.html#36,36,1366,768,1366,768,8-22-2022,7-13-47,70,depth_duration_stimuli/000878_2014-06-08_22-52-45_260595134347_rgbf000045-resize_2/000878_2014-06-08_22-52-45_260595134347_rgbf000045-resize_2-target.png,1000,2.092,8,3004,939,feet,jsons/v1_VE1000_randls_3_rotated.json,690872,1205926,25,Man
70,832128,DepthScenes,duration_manipulation_targetAtFixation,jsons/v1_VE1000_randls_3_rotated.json,http://54.235.29.9/FacialAge/BNav_EC2/DepthDuration/v2_depth_duration_MTurk/v2_DepthDuration_HTML.html#36,36,1366,768,1366,768,8-22-2022,7-13-47,71,depth_duration_stimuli/001584_2014-06-20_11-07-43_260595134347_rgbf000002-resize_1/001584_2014-06-20_11-07-43_260595134347_rgbf000002-resize_1-target.png,1000,3.53,8,3058,998,feet,jsons/v1_VE1000_randls_3_rotated.json,690872,1205926,25,Man
71,832128,DepthScenes,duration_manipulation_targetAtFixation,jsons/v1_VE1000_randls_3_rotated.json,http://54.235.29.9/FacialAge/BNav_EC2/DepthDuration/v2_depth_duration_MTurk/v2_DepthDuration_HTML.html#36,36,1366,768,1366,768,8-22-2022,7-13-47,72,depth_duration_stimuli/003621_2014-05-23_18-06-08_094959634447_rgbf000101-resize_1/003621_2014-05-23_18-06-08_094959634447_rgbf000101-resize_1-target.png,1000,3.9835,8,3111,1001,feet,jsons/v1_VE1000_randls_3_rotated.json,690872,1205926,25,Man
72,832128,DepthScenes,duration_manipulation_targetAtFixation,jsons/v1_VE1000_randls_3_rotated.json,http://54.235.29.9/FacialAge/BNav_EC2/DepthDuration/v2_depth_duration_MTurk/v2_DepthDuration_HTML.html#36,36,1366,768,1366,768,8-22-2022,7-13-47,73,depth_duration_stimuli/002425_2014-06-28_20-27-29_260595134347_rgbf000031-resize_8/002425_2014-06-28_20-27-29_260595134347_rgbf000031-resize_8-target.png,1000,3.8960000000000004,8,3163,996,feet,jsons/v1_VE1000_randls_3_rotated.json,690872,1205926,25,Man
73,832128,DepthScenes,duration_manipulation_targetAtFixation,jsons/v1_VE1000_randls_3_rotated.json,http://54.235.29.9/FacialAge/BNav_EC2/DepthDuration/v2_depth_duration_MTurk/v2_DepthDuration_HTML.html#36,36,1366,768,1366,768,8-22-2022,7-13-47,74,depth_duration_stimuli/000642_2014-06-08_16-59-25_260595134347_rgbf000098-resize_2/000642_2014-06-08_16-59-25_260595134347_rgbf000098-resize_2-target.png,1000,2.8815,6,3065,1001,feet,jsons/v1_VE1000_randls_3_rotated.json,690872,1205926,25,Man
74,832128,DepthScenes,duration_manipulation_targetAtFixation,jsons/v1_VE1000_randls_3_rotated.json,http://54.235.29.9/FacialAge/BNav_EC2/DepthDuration/v2_depth_duration_MTurk/v2_DepthDuration_HTML.html#36,36,1366,768,1366,768,8-22-2022,7-13-47,75,depth_duration_stimuli/000691_2014-06-08_13-08-50_260595134347_rgbf000132-resize_3/000691_2014-06-08_13-08-50_260595134347_rgbf000132-resize_3-target.png,1000,4.1530000000000005,5,3063,1003,feet,jsons/v1_VE1000_randls_3_rotated.json,690872,1205926,25,Man
75,832128,DepthScenes,duration_manipulation_targetAtFixation,jsons/v1_VE1000_randls_3_rotated.json,http://54.235.29.9/FacialAge/BNav_EC2/DepthDuration/v2_depth_duration_MTurk/v2_DepthDuration_HTML.html#36,36,1366,768,1366,768,8-22-2022,7-13-47,76,depth_duration_stimuli/002213_2014-06-28_18-37-58_260595134347_rgbf000055-resize_1/002213_2014-06-28_18-37-58_260595134347_rgbf000055-resize_1-target.png,1000,3.62,7,3113,999,feet,jsons/v1_VE1000_randls_3_rotated.json,690872,1205926,25,Man
76,832128,DepthScenes,duration_manipulation_targetAtFixation,jsons/v1_VE1000_randls_3_rotated.json,http://54.235.29.9/FacialAge/BNav_EC2/DepthDuration/v2_depth_duration_MTurk/v2_DepthDuration_HTML.html#36,36,1366,768,1366,768,8-22-2022,7-13-47,77,depth_duration_stimuli/000635_2014-06-08_16-38-42_260595134347_rgbf000106-resize_1/000635_2014-06-08_16-38-42_260595134347_rgbf000106-resize_1-target.png,1000,2.074,8,4583,984,feet,jsons/v1_VE1000_randls_3_rotated.json,690872,1205926,25,Man
77,832128,DepthScenes,duration_manipulation_targetAtFixation,jsons/v1_VE1000_randls_3_rotated.json,http://54.235.29.9/FacialAge/BNav_EC2/DepthDuration/v2_depth_duration_MTurk/v2_DepthDuration_HTML.html#36,36,1366,768,1366,768,8-22-2022,7-13-47,78,depth_duration_stimuli/002279_2014-06-28_18-55-32_260595134347_rgbf000040-resize_5/002279_2014-06-28_18-55-32_260595134347_rgbf000040-resize_5-target.png,1000,1.5043333333333,5,3210,1010,feet,jsons/v1_VE1000_randls_3_rotated.json,690872,1205926,25,Man
78,832128,DepthScenes,duration_manipulation_targetAtFixation,jsons/v1_VE1000_randls_3_rotated.json,http://54.235.29.9/FacialAge/BNav_EC2/DepthDuration/v2_depth_duration_MTurk/v2_DepthDuration_HTML.html#36,36,1366,768,1366,768,8-22-2022,7-13-47,79,depth_duration_stimuli/002758_2014-06-22_19-11-20_094959634447_rgbf000128-resize_1/002758_2014-06-22_19-11-20_094959634447_rgbf000128-resize_1-target.png,1000,2.555,5,3002,999,feet,jsons/v1_VE1000_randls_3_rotated.json,690872,1205926,25,Man
79,832128,DepthScenes,duration_manipulation_targetAtFixation,jsons/v1_VE1000_randls_3_rotated.json,http://54.235.29.9/FacialAge/BNav_EC2/DepthDuration/v2_depth_duration_MTurk/v2_DepthDuration_HTML.html#36,36,1366,768,1366,768,8-22-2022,7-13-47,80,depth_duration_stimuli/002630_2014-06-24_14-47-50_094959634447_rgbf000055-resize_1/002630_2014-06-24_14-47-50_094959634447_rgbf000055-resize_1-target.png,1000,3.0095,8,3041,995,feet,jsons/v1_VE1000_randls_3_rotated.json,690872,1205926,25,Man
80,832128,DepthScenes,duration_manipulation_targetAtFixation,jsons/v1_VE1000_randls_3_rotated.json,http://54.235.29.9/FacialAge/BNav_EC2/DepthDuration/v2_depth_duration_MTurk/v2_DepthDuration_HTML.html#36,36,1366,768,1366,768,8-22-2022,7-13-47,81,depth_duration_stimuli/003495_2014-05-21_16-01-51_094959634447_rgbf000100-resize_3/003495_2014-05-21_16-01-51_094959634447_rgbf000100-resize_3-target.png,1000,1.6255,5,4585,1013,feet,jsons/v1_VE1000_randls_3_rotated.json,690872,1205926,25,Man
81,832128,DepthScenes,duration_manipulation_targetAtFixation,jsons/v1_VE1000_randls_3_rotated.json,http://54.235.29.9/FacialAge/BNav_EC2/DepthDuration/v2_depth_duration_MTurk/v2_DepthDuration_HTML.html#36,36,1366,768,1366,768,8-22-2022,7-13-47,82,depth_duration_stimuli/001244_2014-06-17_16-47-45_260595134347_rgbf000030-resize_4/001244_2014-06-17_16-47-45_260595134347_rgbf000030-resize_4-target.png,1000,2.0425,8,3374,999,feet,jsons/v1_VE1000_randls_3_rotated.json,690872,1205926,25,Man
82,832128,DepthScenes,duration_manipulation_targetAtFixation,jsons/v1_VE1000_randls_3_rotated.json,http://54.235.29.9/FacialAge/BNav_EC2/DepthDuration/v2_depth_duration_MTurk/v2_DepthDuration_HTML.html#36,36,1366,768,1366,768,8-22-2022,7-13-47,83,depth_duration_stimuli/003083_2014-06-15_15-21-03_094959634447_rgbf000063-resize_1/003083_2014-06-15_15-21-03_094959634447_rgbf000063-resize_1-target.png,1000,4.1405,8,2913,995,feet,jsons/v1_VE1000_randls_3_rotated.json,690872,1205926,25,Man
83,832128,DepthScenes,duration_manipulation_targetAtFixation,jsons/v1_VE1000_randls_3_rotated.json,http://54.235.29.9/FacialAge/BNav_EC2/DepthDuration/v2_depth_duration_MTurk/v2_DepthDuration_HTML.html#36,36,1366,768,1366,768,8-22-2022,7-13-47,84,depth_duration_stimuli/000486_2014-06-09_20-47-20_260595134347_rgbf000143-resize_2/000486_2014-06-09_20-47-20_260595134347_rgbf000143-resize_2-target.png,1000,4.8325,7,3357,997,feet,jsons/v1_VE1000_randls_3_rotated.json,690872,1205926,25,Man
84,832128,DepthScenes,duration_manipulation_targetAtFixation,jsons/v1_VE1000_randls_3_rotated.json,http://54.235.29.9/FacialAge/BNav_EC2/DepthDuration/v2_depth_duration_MTurk/v2_DepthDuration_HTML.html#36,36,1366,768,1366,768,8-22-2022,7-13-47,85,depth_duration_stimuli/002875_2014-06-01_15-19-00_094959634447_rgbf000151-resize_1/002875_2014-06-01_15-19-00_094959634447_rgbf000151-resize_1-target.png,1000,1.9675,8,3090,999,feet,jsons/v1_VE1000_randls_3_rotated.json,690872,1205926,25,Man
85,832128,DepthScenes,duration_manipulation_targetAtFixation,jsons/v1_VE1000_randls_3_rotated.json,http://54.235.29.9/FacialAge/BNav_EC2/DepthDuration/v2_depth_duration_MTurk/v2_DepthDuration_HTML.html#36,36,1366,768,1366,768,8-22-2022,7-13-47,86,depth_duration_stimuli/001011_2014-06-08_23-18-54_260595134347_rgbf000044-resize_4/001011_2014-06-08_23-18-54_260595134347_rgbf000044-resize_4-target.png,1000,2.4730000000000003,7,4270,997,feet,jsons/v1_VE1000_randls_3_rotated.json,690872,1205926,25,Man
86,832128,DepthScenes,duration_manipulation_targetAtFixation,jsons/v1_VE1000_randls_3_rotated.json,http://54.235.29.9/FacialAge/BNav_EC2/DepthDuration/v2_depth_duration_MTurk/v2_DepthDuration_HTML.html#36,36,1366,768,1366,768,8-22-2022,7-13-47,87,depth_duration_stimuli/000665_2014-06-09_20-42-35_260595134347_rgbf000110-resize_1/000665_2014-06-09_20-42-35_260595134347_rgbf000110-resize_1-target.png,1000,3.057,6,3123,1000,feet,jsons/v1_VE1000_randls_3_rotated.json,690872,1205926,25,Man
87,832128,DepthScenes,duration_manipulation_targetAtFixation,jsons/v1_VE1000_randls_3_rotated.json,http://54.235.29.9/FacialAge/BNav_EC2/DepthDuration/v2_depth_duration_MTurk/v2_DepthDuration_HTML.html#36,36,1366,768,1366,768,8-22-2022,7-13-47,88,depth_duration_stimuli/001150_2014-06-17_15-27-34_260595134347_rgbf000108-resize_2/001150_2014-06-17_15-27-34_260595134347_rgbf000108-resize_2-target.png,1000,4.0325,8,2871,998,feet,jsons/v1_VE1000_randls_3_rotated.json,690872,1205926,25,Man
88,832128,DepthScenes,duration_manipulation_targetAtFixation,jsons/v1_VE1000_randls_3_rotated.json,http://54.235.29.9/FacialAge/BNav_EC2/DepthDuration/v2_depth_duration_MTurk/v2_DepthDuration_HTML.html#36,36,1366,768,1366,768,8-22-2022,7-13-47,89,depth_duration_stimuli/002545_2014-06-24_13-38-53_094959634447_rgbf000080-resize_4/002545_2014-06-24_13-38-53_094959634447_rgbf000080-resize_4-target.png,1000,1.9205,7,2826,1000,feet,jsons/v1_VE1000_randls_3_rotated.json,690872,1205926,25,Man
89,832128,DepthScenes,duration_manipulation_targetAtFixation,jsons/v1_VE1000_randls_3_rotated.json,http://54.235.29.9/FacialAge/BNav_EC2/DepthDuration/v2_depth_duration_MTurk/v2_DepthDuration_HTML.html#36,36,1366,768,1366,768,8-22-2022,7-13-47,90,depth_duration_stimuli/001092_2014-06-15_17-34-58_260595134347_rgbf000171-resize_3/001092_2014-06-15_17-34-58_260595134347_rgbf000171-resize_3-target.png,1000,2.6935,6,2886,1000,feet,jsons/v1_VE1000_randls_3_rotated.json,690872,1205926,25,Man
90,832128,DepthScenes,duration_manipulation_targetAtFixation,jsons/v1_VE1000_randls_3_rotated.json,http://54.235.29.9/FacialAge/BNav_EC2/DepthDuration/v2_depth_duration_MTurk/v2_DepthDuration_HTML.html#36,36,1366,768,1366,768,8-22-2022,7-13-47,91,depth_duration_stimuli/002467_2014-06-28_20-38-07_260595134347_rgbf000026-resize_2/002467_2014-06-28_20-38-07_260595134347_rgbf000026-resize_2-target.png,1000,4.742,7,2918,1000,feet,jsons/v1_VE1000_randls_3_rotated.json,690872,1205926,25,Man
91,832128,DepthScenes,duration_manipulation_targetAtFixation,jsons/v1_VE1000_randls_3_rotated.json,http://54.235.29.9/FacialAge/BNav_EC2/DepthDuration/v2_depth_duration_MTurk/v2_DepthDuration_HTML.html#36,36,1366,768,1366,768,8-22-2022,7-13-47,92,depth_duration_stimuli/002570_2014-06-24_13-59-54_094959634447_rgbf000059-resize_0/002570_2014-06-24_13-59-54_094959634447_rgbf000059-resize_0-target.png,1000,4.037,8,2799,999,feet,jsons/v1_VE1000_randls_3_rotated.json,690872,1205926,25,Man
92,832128,DepthScenes,duration_manipulation_targetAtFixation,jsons/v1_VE1000_randls_3_rotated.json,http://54.235.29.9/FacialAge/BNav_EC2/DepthDuration/v2_depth_duration_MTurk/v2_DepthDuration_HTML.html#36,36,1366,768,1366,768,8-22-2022,7-13-47,93,depth_duration_stimuli/000409_2014-06-04_19-23-33_260595134347_rgbf000067-resize_0/000409_2014-06-04_19-23-33_260595134347_rgbf000067-resize_0-target.png,1000,3.7335,5,2899,1012,feet,jsons/v1_VE1000_randls_3_rotated.json,690872,1205926,25,Man
93,832128,DepthScenes,duration_manipulation_targetAtFixation,jsons/v1_VE1000_randls_3_rotated.json,http://54.235.29.9/FacialAge/BNav_EC2/DepthDuration/v2_depth_duration_MTurk/v2_DepthDuration_HTML.html#36,36,1366,768,1366,768,8-22-2022,7-13-47,94,depth_duration_stimuli/002663_2014-06-13_15-50-26_094959634447_rgbf000075-resize_1/002663_2014-06-13_15-50-26_094959634447_rgbf000075-resize_1-target.png,1000,4.7495,8,3063,1004,feet,jsons/v1_VE1000_randls_3_rotated.json,690872,1205926,25,Man
94,832128,DepthScenes,duration_manipulation_targetAtFixation,jsons/v1_VE1000_randls_3_rotated.json,http://54.235.29.9/FacialAge/BNav_EC2/DepthDuration/v2_depth_duration_MTurk/v2_DepthDuration_HTML.html#36,36,1366,768,1366,768,8-22-2022,7-13-47,95,depth_duration_stimuli/001032_2014-06-08_13-23-17_260595134347_rgbf000021-resize_3/001032_2014-06-08_13-23-17_260595134347_rgbf000021-resize_3-target.png,1000,3.2725,6,2973,999,feet,jsons/v1_VE1000_randls_3_rotated.json,690872,1205926,25,Man
95,832128,DepthScenes,duration_manipulation_targetAtFixation,jsons/v1_VE1000_randls_3_rotated.json,http://54.235.29.9/FacialAge/BNav_EC2/DepthDuration/v2_depth_duration_MTurk/v2_DepthDuration_HTML.html#36,36,1366,768,1366,768,8-22-2022,7-13-47,96,depth_duration_stimuli/001059_2014-06-08_21-53-27_260595134347_rgbf000061-resize_4/001059_2014-06-08_21-53-27_260595134347_rgbf000061-resize_4-target.png,1000,2.4185,7,2879,999,feet,jsons/v1_VE1000_randls_3_rotated.json,690872,1205926,25,Man
96,832128,DepthScenes,duration_manipulation_targetAtFixation,jsons/v1_VE1000_randls_3_rotated.json,http://54.235.29.9/FacialAge/BNav_EC2/DepthDuration/v2_depth_duration_MTurk/v2_DepthDuration_HTML.html#36,36,1366,768,1366,768,8-22-2022,7-13-47,97,depth_duration_stimuli/000109_2014-05-14_23-41-52_260595134347_rgbf000035-resize_9/000109_2014-05-14_23-41-52_260595134347_rgbf000035-resize_9-target.png,1000,1.3545,3,3770,999,feet,jsons/v1_VE1000_randls_3_rotated.json,690872,1205926,25,Man
97,832128,DepthScenes,duration_manipulation_targetAtFixation,jsons/v1_VE1000_randls_3_rotated.json,http://54.235.29.9/FacialAge/BNav_EC2/DepthDuration/v2_depth_duration_MTurk/v2_DepthDuration_HTML.html#36,36,1366,768,1366,768,8-22-2022,7-13-47,98,depth_duration_stimuli/000470_2014-06-09_19-42-40_260595134347_rgbf000094-resize_1/000470_2014-06-09_19-42-40_260595134347_rgbf000094-resize_1-target.png,1000,1.831,6,3026,999,feet,jsons/v1_VE1000_randls_3_rotated.json,690872,1205926,25,Man
98,832128,DepthScenes,duration_manipulation_targetAtFixation,jsons/v1_VE1000_randls_3_rotated.json,http://54.235.29.9/FacialAge/BNav_EC2/DepthDuration/v2_depth_duration_MTurk/v2_DepthDuration_HTML.html#36,36,1366,768,1366,768,8-22-2022,7-13-47,99,depth_duration_stimuli/001222_2014-06-17_16-24-06_260595134347_rgbf000073-resize_0/001222_2014-06-17_16-24-06_260595134347_rgbf000073-resize-original.jpg,1000,1.4385,0,2895,998,feet,jsons/v1_VE1000_randls_3_rotated.json,690872,1205926,25,Man
99,832128,DepthScenes,duration_manipulation_targetAtFixation,jsons/v1_VE1000_randls_3_rotated.json,http://54.235.29.9/FacialAge/BNav_EC2/DepthDuration/v2_depth_duration_MTurk/v2_DepthDuration_HTML.html#36,36,1366,768,1366,768,8-22-2022,7-13-47,100,depth_duration_stimuli/002568_2014-06-24_13-59-21_094959634447_rgbf000062-resize_4/002568_2014-06-24_13-59-21_094959634447_rgbf000062-resize_4-target.png,1000,3.015,7,2966,1006,feet,jsons/v1_VE1000_randls_3_rotated.json,690872,1205926,25,Man
100,832128,DepthScenes,duration_manipulation_targetAtFixation,jsons/v1_VE1000_randls_3_rotated.json,http://54.235.29.9/FacialAge/BNav_EC2/DepthDuration/v2_depth_duration_MTurk/v2_DepthDuration_HTML.html#36,36,1366,768,1366,768,8-22-2022,7-13-47,101,depth_duration_stimuli/003492_2014-05-21_15-50-55_094959634447_rgbf000828-resize_1/003492_2014-05-21_15-50-55_094959634447_rgbf000828-resize_1-target.png,1000,4.06875,8,2939,997,feet,jsons/v1_VE1000_randls_3_rotated.json,690872,1205926,25,Man
101,832128,DepthScenes,duration_manipulation_targetAtFixation,jsons/v1_VE1000_randls_3_rotated.json,http://54.235.29.9/FacialAge/BNav_EC2/DepthDuration/v2_depth_duration_MTurk/v2_DepthDuration_HTML.html#36,36,1366,768,1366,768,8-22-2022,7-13-47,102,depth_duration_stimuli/001815_2014-06-26_20-52-55_260595134347_rgbf000020-resize_0/001815_2014-06-26_20-52-55_260595134347_rgbf000020-resize_0-target.png,1000,3.3865,9,4392,948,feet,jsons/v1_VE1000_randls_3_rotated.json,690872,1205926,25,Man
102,832128,DepthScenes,duration_manipulation_targetAtFixation,jsons/v1_VE1000_randls_3_rotated.json,http://54.235.29.9/FacialAge/BNav_EC2/DepthDuration/v2_depth_duration_MTurk/v2_DepthDuration_HTML.html#36,36,1366,768,1366,768,8-22-2022,7-13-47,103,depth_duration_stimuli/001808_2014-06-26_20-50-58_260595134347_rgbf000029-resize_1/001808_2014-06-26_20-50-58_260595134347_rgbf000029-resize_1-target.png,1000,4.249,8,3135,998,feet,jsons/v1_VE1000_randls_3_rotated.json,690872,1205926,25,Man
103,832128,DepthScenes,duration_manipulation_targetAtFixation,jsons/v1_VE1000_randls_3_rotated.json,http://54.235.29.9/FacialAge/BNav_EC2/DepthDuration/v2_depth_duration_MTurk/v2_DepthDuration_HTML.html#36,36,1366,768,1366,768,8-22-2022,7-13-47,104,depth_duration_stimuli/000556_2014-06-09_22-42-56_260595134347_rgbf000214-resize_1/000556_2014-06-09_22-42-56_260595134347_rgbf000214-resize_1-target.png,1000,4.8415,6,2942,1030,feet,jsons/v1_VE1000_randls_3_rotated.json,690872,1205926,25,Man
104,832128,DepthScenes,duration_manipulation_targetAtFixation,jsons/v1_VE1000_randls_3_rotated.json,http://54.235.29.9/FacialAge/BNav_EC2/DepthDuration/v2_depth_duration_MTurk/v2_DepthDuration_HTML.html#36,36,1366,768,1366,768,8-22-2022,7-13-47,105,depth_duration_stimuli/001158_2014-06-17_15-32-16_260595134347_rgbf000138-resize_2/001158_2014-06-17_15-32-16_260595134347_rgbf000138-resize_2-target.png,1000,4.5315,7,3080,999,feet,jsons/v1_VE1000_randls_3_rotated.json,690872,1205926,25,Man
105,832128,DepthScenes,duration_manipulation_targetAtFixation,jsons/v1_VE1000_randls_3_rotated.json,http://54.235.29.9/FacialAge/BNav_EC2/DepthDuration/v2_depth_duration_MTurk/v2_DepthDuration_HTML.html#36,36,1366,768,1366,768,8-22-2022,7-13-47,106,depth_duration_stimuli/001094_2014-06-15_17-36-00_260595134347_rgbf000205-resize_0/001094_2014-06-15_17-36-00_260595134347_rgbf000205-resize_0-target.png,1000,4.2175,8,3227,1003,feet,jsons/v1_VE1000_randls_3_rotated.json,690872,1205926,25,Man
106,832128,DepthScenes,duration_manipulation_targetAtFixation,jsons/v1_VE1000_randls_3_rotated.json,http://54.235.29.9/FacialAge/BNav_EC2/DepthDuration/v2_depth_duration_MTurk/v2_DepthDuration_HTML.html#36,36,1366,768,1366,768,8-22-2022,7-13-47,107,depth_duration_stimuli/000692_2014-06-08_13-09-42_260595134347_rgbf000199-resize_2/000692_2014-06-08_13-09-42_260595134347_rgbf000199-resize_2-target.png,1000,3.661,7,3192,1000,feet,jsons/v1_VE1000_randls_3_rotated.json,690872,1205926,25,Man
107,832128,DepthScenes,duration_manipulation_targetAtFixation,jsons/v1_VE1000_randls_3_rotated.json,http://54.235.29.9/FacialAge/BNav_EC2/DepthDuration/v2_depth_duration_MTurk/v2_DepthDuration_HTML.html#36,36,1366,768,1366,768,8-22-2022,7-13-47,108,depth_duration_stimuli/000742_2014-06-08_18-48-09_260595134347_rgbf000164-resize_4/000742_2014-06-08_18-48-09_260595134347_rgbf000164-resize_4-target.png,1000,4.632,7,3048,989,feet,jsons/v1_VE1000_randls_3_rotated.json,690872,1205926,25,Man
108,832128,DepthScenes,duration_manipulation_targetAtFixation,jsons/v1_VE1000_randls_3_rotated.json,http://54.235.29.9/FacialAge/BNav_EC2/DepthDuration/v2_depth_duration_MTurk/v2_DepthDuration_HTML.html#36,36,1366,768,1366,768,8-22-2022,7-13-47,109,depth_duration_stimuli/001066_2014-06-08_22-03-20_260595134347_rgbf000066-resize_4/001066_2014-06-08_22-03-20_260595134347_rgbf000066-resize_4-target.png,1000,4.2330000000000005,8,3045,1013,feet,jsons/v1_VE1000_randls_3_rotated.json,690872,1205926,25,Man
109,832128,DepthScenes,duration_manipulation_targetAtFixation,jsons/v1_VE1000_randls_3_rotated.json,http://54.235.29.9/FacialAge/BNav_EC2/DepthDuration/v2_depth_duration_MTurk/v2_DepthDuration_HTML.html#36,36,1366,768,1366,768,8-22-2022,7-13-47,110,depth_duration_stimuli/000854_2014-06-09_19-43-13_260595134347_rgbf000066-resize_0/000854_2014-06-09_19-43-13_260595134347_rgbf000066-resize_0-target.png,1000,3.068,6,3766,1014,feet,jsons/v1_VE1000_randls_3_rotated.json,690872,1205926,25,Man
110,832128,DepthScenes,duration_manipulation_targetAtFixation,jsons/v1_VE1000_randls_3_rotated.json,http://54.235.29.9/FacialAge/BNav_EC2/DepthDuration/v2_depth_duration_MTurk/v2_DepthDuration_HTML.html#36,36,1366,768,1366,768,8-22-2022,7-13-47,111,depth_duration_stimuli/000758_2014-06-08_22-05-08_260595134347_rgbf000085-resize_0/000758_2014-06-08_22-05-08_260595134347_rgbf000085-resize_0-target.png,1000,3.3810000000000002,0,3681,986,feet,jsons/v1_VE1000_randls_3_rotated.json,690872,1205926,25,Man
111,832128,DepthScenes,duration_manipulation_targetAtFixation,jsons/v1_VE1000_randls_3_rotated.json,http://54.235.29.9/FacialAge/BNav_EC2/DepthDuration/v2_depth_duration_MTurk/v2_DepthDuration_HTML.html#36,36,1366,768,1366,768,8-22-2022,7-13-47,112,depth_duration_stimuli/000866_2014-06-09_20-45-42_260595134347_rgbf000139-resize_1/000866_2014-06-09_20-45-42_260595134347_rgbf000139-resize_1-target.png,1000,3.2155,7,3203,1005,feet,jsons/v1_VE1000_randls_3_rotated.json,690872,1205926,25,Man
112,832128,DepthScenes,duration_manipulation_targetAtFixation,jsons/v1_VE1000_randls_3_rotated.json,http://54.235.29.9/FacialAge/BNav_EC2/DepthDuration/v2_depth_duration_MTurk/v2_DepthDuration_HTML.html#36,36,1366,768,1366,768,8-22-2022,7-13-47,113,depth_duration_stimuli/002989_2014-06-15_12-25-03_094959634447_rgbf000150-resize_3/002989_2014-06-15_12-25-03_094959634447_rgbf000150-resize_3-target.png,1000,4.1975,8,3063,1000,feet,jsons/v1_VE1000_randls_3_rotated.json,690872,1205926,25,Man
113,832128,DepthScenes,duration_manipulation_targetAtFixation,jsons/v1_VE1000_randls_3_rotated.json,http://54.235.29.9/FacialAge/BNav_EC2/DepthDuration/v2_depth_duration_MTurk/v2_DepthDuration_HTML.html#36,36,1366,768,1366,768,8-22-2022,7-13-47,114,depth_duration_stimuli/002805_2014-06-22_19-54-03_094959634447_rgbf000079-resize_1/002805_2014-06-22_19-54-03_094959634447_rgbf000079-resize_1-target.png,1000,3.1439999999999997,7,3292,998,feet,jsons/v1_VE1000_randls_3_rotated.json,690872,1205926,25,Man
114,832128,DepthScenes,duration_manipulation_targetAtFixation,jsons/v1_VE1000_randls_3_rotated.json,http://54.235.29.9/FacialAge/BNav_EC2/DepthDuration/v2_depth_duration_MTurk/v2_DepthDuration_HTML.html#36,36,1366,768,1366,768,8-22-2022,7-13-47,115,depth_duration_stimuli/000906_2014-06-08_13-35-43_260595134347_rgbf000155-resize_1/000906_2014-06-08_13-35-43_260595134347_rgbf000155-resize_1-target.png,1000,2.8489999999999998,8,3785,1001,feet,jsons/v1_VE1000_randls_3_rotated.json,690872,1205926,25,Man
115,832128,DepthScenes,duration_manipulation_targetAtFixation,jsons/v1_VE1000_randls_3_rotated.json,http://54.235.29.9/FacialAge/BNav_EC2/DepthDuration/v2_depth_duration_MTurk/v2_DepthDuration_HTML.html#36,36,1366,768,1366,768,8-22-2022,7-13-47,116,depth_duration_stimuli/000483_2014-06-09_20-41-45_260595134347_rgbf000116-resize_4/000483_2014-06-09_20-41-45_260595134347_rgbf000116-resize_4-target.png,1000,1.337,5,4281,1000,feet,jsons/v1_VE1000_randls_3_rotated.json,690872,1205926,25,Man
116,832128,DepthScenes,duration_manipulation_targetAtFixation,jsons/v1_VE1000_randls_3_rotated.json,http://54.235.29.9/FacialAge/BNav_EC2/DepthDuration/v2_depth_duration_MTurk/v2_DepthDuration_HTML.html#36,36,1366,768,1366,768,8-22-2022,7-13-47,117,depth_duration_stimuli/000469_2014-06-09_19-42-10_260595134347_rgbf000081-resize_1/000469_2014-06-09_19-42-10_260595134347_rgbf000081-resize_1-target.png,1000,1.652,6,4442,999,feet,jsons/v1_VE1000_randls_3_rotated.json,690872,1205926,25,Man
117,832128,DepthScenes,duration_manipulation_targetAtFixation,jsons/v1_VE1000_randls_3_rotated.json,http://54.235.29.9/FacialAge/BNav_EC2/DepthDuration/v2_depth_duration_MTurk/v2_DepthDuration_HTML.html#36,36,1366,768,1366,768,8-22-2022,7-13-47,118,depth_duration_stimuli/003423_2014-05-21_10-23-26_094959634447_rgbf002665-resize_2/003423_2014-05-21_10-23-26_094959634447_rgbf002665-resize_2-target.png,1000,3.2575,7,3642,999,feet,jsons/v1_VE1000_randls_3_rotated.json,690872,1205926,25,Man
118,832128,DepthScenes,duration_manipulation_targetAtFixation,jsons/v1_VE1000_randls_3_rotated.json,http://54.235.29.9/FacialAge/BNav_EC2/DepthDuration/v2_depth_duration_MTurk/v2_DepthDuration_HTML.html#36,36,1366,768,1366,768,8-22-2022,7-13-47,119,depth_duration_stimuli/002905_2014-06-03_18-04-43_094959634447_rgbf000151-resize_2/002905_2014-06-03_18-04-43_094959634447_rgbf000151-resize_2-target.png,1000,2.0295,6,4052,999,feet,jsons/v1_VE1000_randls_3_rotated.json,690872,1205926,25,Man
119,832128,DepthScenes,duration_manipulation_targetAtFixation,jsons/v1_VE1000_randls_3_rotated.json,http://54.235.29.9/FacialAge/BNav_EC2/DepthDuration/v2_depth_duration_MTurk/v2_DepthDuration_HTML.html#36,36,1366,768,1366,768,8-22-2022,7-13-47,120,depth_duration_stimuli/000787_2014-06-08_22-33-53_260595134347_rgbf000175-resize_1/000787_2014-06-08_22-33-53_260595134347_rgbf000175-resize-original.jpg,1000,4.784,0,3948,1000,feet,jsons/v1_VE1000_randls_3_rotated.json,690872,1205926,25,Man
120,832128,DepthScenes,duration_manipulation_targetAtFixation,jsons/v1_VE1000_randls_3_rotated.json,http://54.235.29.9/FacialAge/BNav_EC2/DepthDuration/v2_depth_duration_MTurk/v2_DepthDuration_HTML.html#36,36,1366,768,1366,768,8-22-2022,7-13-47,121,depth_duration_stimuli/003228_2014-05-14_13-42-35_094959634447_rgbf000101-resize_1/003228_2014-05-14_13-42-35_094959634447_rgbf000101-resize_1-target.png,1000,1.9680000000000002,5,3265,1007,feet,jsons/v1_VE1000_randls_3_rotated.json,690872,1205926,25,Man
121,832128,DepthScenes,duration_manipulation_targetAtFixation,jsons/v1_VE1000_randls_3_rotated.json,http://54.235.29.9/FacialAge/BNav_EC2/DepthDuration/v2_depth_duration_MTurk/v2_DepthDuration_HTML.html#36,36,1366,768,1366,768,8-22-2022,7-13-47,122,depth_duration_stimuli/002600_2014-06-24_14-27-04_094959634447_rgbf000074-resize_2/002600_2014-06-24_14-27-04_094959634447_rgbf000074-resize_2-target.png,1000,2.7575,7,2918,994,feet,jsons/v1_VE1000_randls_3_rotated.json,690872,1205926,25,Man
122,832128,DepthScenes,duration_manipulation_targetAtFixation,jsons/v1_VE1000_randls_3_rotated.json,http://54.235.29.9/FacialAge/BNav_EC2/DepthDuration/v2_depth_duration_MTurk/v2_DepthDuration_HTML.html#36,36,1366,768,1366,768,8-22-2022,7-13-47,123,depth_duration_stimuli/003010_2014-06-15_12-54-35_094959634447_rgbf000112-resize_0/003010_2014-06-15_12-54-35_094959634447_rgbf000112-resize_0-target.png,1000,3.1185,8,3137,999,feet,jsons/v1_VE1000_randls_3_rotated.json,690872,1205926,25,Man
123,832128,DepthScenes,duration_manipulation_targetAtFixation,jsons/v1_VE1000_randls_3_rotated.json,http://54.235.29.9/FacialAge/BNav_EC2/DepthDuration/v2_depth_duration_MTurk/v2_DepthDuration_HTML.html#36,36,1366,768,1366,768,8-22-2022,7-13-47,124,depth_duration_stimuli/001810_2014-06-26_20-51-35_260595134347_rgbf000040-resize_3/001810_2014-06-26_20-51-35_260595134347_rgbf000040-resize_3-target.png,1000,2.2525,5,3035,1001,feet,jsons/v1_VE1000_randls_3_rotated.json,690872,1205926,25,Man
124,832128,DepthScenes,duration_manipulation_targetAtFixation,jsons/v1_VE1000_randls_3_rotated.json,http://54.235.29.9/FacialAge/BNav_EC2/DepthDuration/v2_depth_duration_MTurk/v2_DepthDuration_HTML.html#36,36,1366,768,1366,768,8-22-2022,7-13-47,125,depth_duration_stimuli/001617_2014-06-20_11-35-32_260595134347_rgbf000066-resize_1/001617_2014-06-20_11-35-32_260595134347_rgbf000066-resize_1-target.png,1000,3.7910000000000004,8,2821,999,feet,jsons/v1_VE1000_randls_3_rotated.json,690872,1205926,25,Man
125,832128,DepthScenes,duration_manipulation_targetAtFixation,jsons/v1_VE1000_randls_3_rotated.json,http://54.235.29.9/FacialAge/BNav_EC2/DepthDuration/v2_depth_duration_MTurk/v2_DepthDuration_HTML.html#36,36,1366,768,1366,768,8-22-2022,7-13-47,126,depth_duration_stimuli/001806_2014-06-26_20-50-20_260595134347_rgbf000091-resize_1/001806_2014-06-26_20-50-20_260595134347_rgbf000091-resize_1-target.png,1000,2.7305,5,3401,999,feet,jsons/v1_VE1000_randls_3_rotated.json,690872,1205926,25,Man
126,832128,DepthScenes,duration_manipulation_targetAtFixation,jsons/v1_VE1000_randls_3_rotated.json,http://54.235.29.9/FacialAge/BNav_EC2/DepthDuration/v2_depth_duration_MTurk/v2_DepthDuration_HTML.html#36,36,1366,768,1366,768,8-22-2022,7-13-47,127,depth_duration_stimuli/003048_2014-06-15_13-49-43_094959634447_rgbf000150-resize_1/003048_2014-06-15_13-49-43_094959634447_rgbf000150-resize_1-target.png,1000,4.0035,8,3014,1002,feet,jsons/v1_VE1000_randls_3_rotated.json,690872,1205926,25,Man
127,832128,DepthScenes,duration_manipulation_targetAtFixation,jsons/v1_VE1000_randls_3_rotated.json,http://54.235.29.9/FacialAge/BNav_EC2/DepthDuration/v2_depth_duration_MTurk/v2_DepthDuration_HTML.html#36,36,1366,768,1366,768,8-22-2022,7-13-47,128,depth_duration_stimuli/002043_2014-06-24_20-29-38_260595134347_rgbf000039-resize_4/002043_2014-06-24_20-29-38_260595134347_rgbf000039-resize_4-target.png,1000,2.8435,8,3265,999,feet,jsons/v1_VE1000_randls_3_rotated.json,690872,1205926,25,Man
128,832128,DepthScenes,duration_manipulation_targetAtFixation,jsons/v1_VE1000_randls_3_rotated.json,http://54.235.29.9/FacialAge/BNav_EC2/DepthDuration/v2_depth_duration_MTurk/v2_DepthDuration_HTML.html#36,36,1366,768,1366,768,8-22-2022,7-13-47,129,depth_duration_stimuli/003129_2014-05-12_10-48-10_094959634447_rgbf000100-resize_0/003129_2014-05-12_10-48-10_094959634447_rgbf000100-resize_0-target.png,1000,4.9305,7,3093,1002,feet,jsons/v1_VE1000_randls_3_rotated.json,690872,1205926,25,Man
129,832128,DepthScenes,duration_manipulation_targetAtFixation,jsons/v1_VE1000_randls_3_rotated.json,http://54.235.29.9/FacialAge/BNav_EC2/DepthDuration/v2_depth_duration_MTurk/v2_DepthDuration_HTML.html#36,36,1366,768,1366,768,8-22-2022,7-13-47,130,depth_duration_stimuli/000414_2014-06-04_19-49-13_260595134347_rgbf000044-resize_0/000414_2014-06-04_19-49-13_260595134347_rgbf000044-resize_0-target.png,1000,4.329,7,4104,998,feet,jsons/v1_VE1000_randls_3_rotated.json,690872,1205926,25,Man
130,832128,DepthScenes,duration_manipulation_targetAtFixation,jsons/v1_VE1000_randls_3_rotated.json,http://54.235.29.9/FacialAge/BNav_EC2/DepthDuration/v2_depth_duration_MTurk/v2_DepthDuration_HTML.html#36,36,1366,768,1366,768,8-22-2022,7-13-47,131,depth_duration_stimuli/002199_2014-06-28_18-33-56_260595134347_rgbf000074-resize_0/002199_2014-06-28_18-33-56_260595134347_rgbf000074-resize_0-target.png,1000,1.996,4,6004,998,feet,jsons/v1_VE1000_randls_3_rotated.json,690872,1205926,25,Man
131,832128,DepthScenes,duration_manipulation_targetAtFixation,jsons/v1_VE1000_randls_3_rotated.json,http://54.235.29.9/FacialAge/BNav_EC2/DepthDuration/v2_depth_duration_MTurk/v2_DepthDuration_HTML.html#36,36,1366,768,1366,768,8-22-2022,7-13-47,132,depth_duration_stimuli/001056_2014-06-08_18-46-44_260595134347_rgbf000068-resize_0/001056_2014-06-08_18-46-44_260595134347_rgbf000068-resize_0-target.png,1000,2.6625,5,2774,998,feet,jsons/v1_VE1000_randls_3_rotated.json,690872,1205926,25,Man
132,832128,DepthScenes,duration_manipulation_targetAtFixation,jsons/v1_VE1000_randls_3_rotated.json,http://54.235.29.9/FacialAge/BNav_EC2/DepthDuration/v2_depth_duration_MTurk/v2_DepthDuration_HTML.html#36,36,1366,768,1366,768,8-22-2022,7-13-47,133,depth_duration_stimuli/001828_2014-06-26_21-40-03_260595134347_rgbf000024-resize_0/001828_2014-06-26_21-40-03_260595134347_rgbf000024-resize_0-target.png,1000,4.8260000000000005,7,3456,992,feet,jsons/v1_VE1000_randls_3_rotated.json,690872,1205926,25,Man
133,832128,DepthScenes,duration_manipulation_targetAtFixation,jsons/v1_VE1000_randls_3_rotated.json,http://54.235.29.9/FacialAge/BNav_EC2/DepthDuration/v2_depth_duration_MTurk/v2_DepthDuration_HTML.html#36,36,1366,768,1366,768,8-22-2022,7-13-47,134,depth_duration_stimuli/000009_2014-05-26_14-32-05_260595134347_rgbf000034-resize_3/000009_2014-05-26_14-32-05_260595134347_rgbf000034-resize_3-target.png,1000,3.8715,8,3284,1000,feet,jsons/v1_VE1000_randls_3_rotated.json,690872,1205926,25,Man
134,832128,DepthScenes,duration_manipulation_targetAtFixation,jsons/v1_VE1000_randls_3_rotated.json,http://54.235.29.9/FacialAge/BNav_EC2/DepthDuration/v2_depth_duration_MTurk/v2_DepthDuration_HTML.html#36,36,1366,768,1366,768,8-22-2022,7-13-47,135,depth_duration_stimuli/000375_2014-06-08_11-17-29_260595134347_rgbf000133-resize_2/000375_2014-06-08_11-17-29_260595134347_rgbf000133-resize-original.jpg,1000,4.718,0,3148,999,feet,jsons/v1_VE1000_randls_3_rotated.json,690872,1205926,25,Man
135,832128,DepthScenes,duration_manipulation_targetAtFixation,jsons/v1_VE1000_randls_3_rotated.json,http://54.235.29.9/FacialAge/BNav_EC2/DepthDuration/v2_depth_duration_MTurk/v2_DepthDuration_HTML.html#36,36,1366,768,1366,768,8-22-2022,7-13-47,136,depth_duration_stimuli/001450_2014-06-19_17-02-03_260595134347_rgbf000203-resize_4/001450_2014-06-19_17-02-03_260595134347_rgbf000203-resize_4-target.png,1000,4.0106666666667,7,3338,959,feet,jsons/v1_VE1000_randls_3_rotated.json,690872,1205926,25,Man
136,832128,DepthScenes,duration_manipulation_targetAtFixation,jsons/v1_VE1000_randls_3_rotated.json,http://54.235.29.9/FacialAge/BNav_EC2/DepthDuration/v2_depth_duration_MTurk/v2_DepthDuration_HTML.html#36,36,1366,768,1366,768,8-22-2022,7-13-47,137,depth_duration_stimuli/001449_2014-06-19_17-01-27_260595134347_rgbf000116-resize_2/001449_2014-06-19_17-01-27_260595134347_rgbf000116-resize_2-target.png,1000,3.452,6,3280,998,feet,jsons/v1_VE1000_randls_3_rotated.json,690872,1205926,25,Man
137,832128,DepthScenes,duration_manipulation_targetAtFixation,jsons/v1_VE1000_randls_3_rotated.json,http://54.235.29.9/FacialAge/BNav_EC2/DepthDuration/v2_depth_duration_MTurk/v2_DepthDuration_HTML.html#36,36,1366,768,1366,768,8-22-2022,7-13-47,138,depth_duration_stimuli/000137_2014-05-20_17-04-49_260595134347_rgbf000120-resize_1/000137_2014-05-20_17-04-49_260595134347_rgbf000120-resize_1-target.png,1000,3.786,7,17594,1010,feet,jsons/v1_VE1000_randls_3_rotated.json,690872,1205926,25,Man
138,832128,DepthScenes,duration_manipulation_targetAtFixation,jsons/v1_VE1000_randls_3_rotated.json,http://54.235.29.9/FacialAge/BNav_EC2/DepthDuration/v2_depth_duration_MTurk/v2_DepthDuration_HTML.html#36,36,1366,768,1366,768,8-22-2022,7-13-47,139,depth_duration_stimuli/000736_2014-06-08_18-24-15_260595134347_rgbf000206-resize_3/000736_2014-06-08_18-24-15_260595134347_rgbf000206-resize_3-target.png,1000,3.515,7,23510,960,feet,jsons/v1_VE1000_randls_3_rotated.json,690872,1205926,25,Man
139,832128,DepthScenes,duration_manipulation_targetAtFixation,jsons/v1_VE1000_randls_3_rotated.json,http://54.235.29.9/FacialAge/BNav_EC2/DepthDuration/v2_depth_duration_MTurk/v2_DepthDuration_HTML.html#36,36,1366,768,1366,768,8-22-2022,7-13-47,140,depth_duration_stimuli/000709_2014-06-08_13-51-55_260595134347_rgbf000068-resize_3/000709_2014-06-08_13-51-55_260595134347_rgbf000068-resize_3-target.png,1000,1.8030000000000002,7,6182,993,feet,jsons/v1_VE1000_randls_3_rotated.json,690872,1205926,25,Man
140,832128,DepthScenes,duration_manipulation_targetAtFixation,jsons/v1_VE1000_randls_3_rotated.json,http://54.235.29.9/FacialAge/BNav_EC2/DepthDuration/v2_depth_duration_MTurk/v2_DepthDuration_HTML.html#36,36,1366,768,1366,768,8-22-2022,7-13-47,141,depth_duration_stimuli/002057_2014-06-24_21-00-13_260595134347_rgbf000120-resize_1/002057_2014-06-24_21-00-13_260595134347_rgbf000120-resize_1-target.png,1000,2.967,7,4763,992,feet,jsons/v1_VE1000_randls_3_rotated.json,690872,1205926,25,Man
141,832128,DepthScenes,duration_manipulation_targetAtFixation,jsons/v1_VE1000_randls_3_rotated.json,http://54.235.29.9/FacialAge/BNav_EC2/DepthDuration/v2_depth_duration_MTurk/v2_DepthDuration_HTML.html#36,36,1366,768,1366,768,8-22-2022,7-13-47,142,depth_duration_stimuli/001571_2014-06-20_17-21-32_260595134347_rgbf000089-resize_1/001571_2014-06-20_17-21-32_260595134347_rgbf000089-resize_1-target.png,1000,1.86,5,4390,1017,feet,jsons/v1_VE1000_randls_3_rotated.json,690872,1205926,25,Man
142,832128,DepthScenes,duration_manipulation_targetAtFixation,jsons/v1_VE1000_randls_3_rotated.json,http://54.235.29.9/FacialAge/BNav_EC2/DepthDuration/v2_depth_duration_MTurk/v2_DepthDuration_HTML.html#36,36,1366,768,1366,768,8-22-2022,7-13-47,143,depth_duration_stimuli/002272_2014-06-28_18-53-56_260595134347_rgbf000067-resize_2/002272_2014-06-28_18-53-56_260595134347_rgbf000067-resize_2-target.png,1000,1.138,5,3497,998,feet,jsons/v1_VE1000_randls_3_rotated.json,690872,1205926,25,Man
143,832128,DepthScenes,duration_manipulation_targetAtFixation,jsons/v1_VE1000_randls_3_rotated.json,http://54.235.29.9/FacialAge/BNav_EC2/DepthDuration/v2_depth_duration_MTurk/v2_DepthDuration_HTML.html#36,36,1366,768,1366,768,8-22-2022,7-13-47,144,depth_duration_stimuli/001235_2014-06-17_16-37-36_260595134347_rgbf000084-resize_4/001235_2014-06-17_16-37-36_260595134347_rgbf000084-resize_4-target.png,1000,3.6605,8,3733,1003,feet,jsons/v1_VE1000_randls_3_rotated.json,690872,1205926,25,Man
144,832128,DepthScenes,duration_manipulation_targetAtFixation,jsons/v1_VE1000_randls_3_rotated.json,http://54.235.29.9/FacialAge/BNav_EC2/DepthDuration/v2_depth_duration_MTurk/v2_DepthDuration_HTML.html#36,36,1366,768,1366,768,8-22-2022,7-13-47,145,depth_duration_stimuli/000788_2014-06-08_22-34-36_260595134347_rgbf000131-resize_1/000788_2014-06-08_22-34-36_260595134347_rgbf000131-resize_1-target.png,1000,3.359,7,3387,998,feet,jsons/v1_VE1000_randls_3_rotated.json,690872,1205926,25,Man
145,832128,DepthScenes,duration_manipulation_targetAtFixation,jsons/v1_VE1000_randls_3_rotated.json,http://54.235.29.9/FacialAge/BNav_EC2/DepthDuration/v2_depth_duration_MTurk/v2_DepthDuration_HTML.html#36,36,1366,768,1366,768,8-22-2022,7-13-47,146,depth_duration_stimuli/002660_2014-06-13_15-44-18_094959634447_rgbf001878-resize_2/002660_2014-06-13_15-44-18_094959634447_rgbf001878-resize_2-target.png,1000,3.576,7,3498,1011,feet,jsons/v1_VE1000_randls_3_rotated.json,690872,1205926,25,Man
146,832128,DepthScenes,duration_manipulation_targetAtFixation,jsons/v1_VE1000_randls_3_rotated.json,http://54.235.29.9/FacialAge/BNav_EC2/DepthDuration/v2_depth_duration_MTurk/v2_DepthDuration_HTML.html#36,36,1366,768,1366,768,8-22-2022,7-13-47,147,depth_duration_stimuli/002153_2014-06-25_21-27-18_260595134347_rgbf000038-resize_5/002153_2014-06-25_21-27-18_260595134347_rgbf000038-resize_5-target.png,1000,2.505,5,3241,1001,feet,jsons/v1_VE1000_randls_3_rotated.json,690872,1205926,25,Man
147,832128,DepthScenes,duration_manipulation_targetAtFixation,jsons/v1_VE1000_randls_3_rotated.json,http://54.235.29.9/FacialAge/BNav_EC2/DepthDuration/v2_depth_duration_MTurk/v2_DepthDuration_HTML.html#36,36,1366,768,1366,768,8-22-2022,7-13-47,148,depth_duration_stimuli/002414_2014-06-28_20-24-58_260595134347_rgbf000067-resize_4/002414_2014-06-28_20-24-58_260595134347_rgbf000067-resize_4-target.png,1000,4.363,7,3618,998,feet,jsons/v1_VE1000_randls_3_rotated.json,690872,1205926,25,Man
148,832128,DepthScenes,duration_manipulation_targetAtFixation,jsons/v1_VE1000_randls_3_rotated.json,http://54.235.29.9/FacialAge/BNav_EC2/DepthDuration/v2_depth_duration_MTurk/v2_DepthDuration_HTML.html#36,36,1366,768,1366,768,8-22-2022,7-13-47,149,depth_duration_stimuli/000773_2014-06-08_22-24-54_260595134347_rgbf000093-resize_1/000773_2014-06-08_22-24-54_260595134347_rgbf000093-resize_1-target.png,1000,4.973,8,3009,999,feet,jsons/v1_VE1000_randls_3_rotated.json,690872,1205926,25,Man
149,832128,DepthScenes,duration_manipulation_targetAtFixation,jsons/v1_VE1000_randls_3_rotated.json,http://54.235.29.9/FacialAge/BNav_EC2/DepthDuration/v2_depth_duration_MTurk/v2_DepthDuration_HTML.html#36,36,1366,768,1366,768,8-22-2022,7-13-47,150,depth_duration_stimuli/002637_2014-06-24_14-51-13_094959634447_rgbf000066-resize_4/002637_2014-06-24_14-51-13_094959634447_rgbf000066-resize_4-target.png,1000,1.9955,8,3265,997,feet,jsons/v1_VE1000_randls_3_rotated.json,690872,1205926,25,Man
150,832128,DepthScenes,duration_manipulation_targetAtFixation,jsons/v1_VE1000_randls_3_rotated.json,http://54.235.29.9/FacialAge/BNav_EC2/DepthDuration/v2_depth_duration_MTurk/v2_DepthDuration_HTML.html#36,36,1366,768,1366,768,8-22-2022,7-13-47,151,depth_duration_stimuli/003534_2014-05-22_15-06-10_094959634447_rgbf000102-resize_4/003534_2014-05-22_15-06-10_094959634447_rgbf000102-resize_4-target.png,1000,1.426,3,2977,1012,feet,jsons/v1_VE1000_randls_3_rotated.json,690872,1205926,25,Man
151,832128,DepthScenes,duration_manipulation_targetAtFixation,jsons/v1_VE1000_randls_3_rotated.json,http://54.235.29.9/FacialAge/BNav_EC2/DepthDuration/v2_depth_duration_MTurk/v2_DepthDuration_HTML.html#36,36,1366,768,1366,768,8-22-2022,7-13-47,152,depth_duration_stimuli/000569_2014-06-09_22-51-47_260595134347_rgbf000141-resize_3/000569_2014-06-09_22-51-47_260595134347_rgbf000141-resize-original.jpg,1000,4.512,0,3267,1002,feet,jsons/v1_VE1000_randls_3_rotated.json,690872,1205926,25,Man
152,832128,DepthScenes,duration_manipulation_targetAtFixation,jsons/v1_VE1000_randls_3_rotated.json,http://54.235.29.9/FacialAge/BNav_EC2/DepthDuration/v2_depth_duration_MTurk/v2_DepthDuration_HTML.html#36,36,1366,768,1366,768,8-22-2022,7-13-47,153,depth_duration_stimuli/000749_2014-06-08_21-55-06_260595134347_rgbf000070-resize_2/000749_2014-06-08_21-55-06_260595134347_rgbf000070-resize_2-target.png,1000,2.331,7,2842,999,feet,jsons/v1_VE1000_randls_3_rotated.json,690872,1205926,25,Man
153,832128,DepthScenes,duration_manipulation_targetAtFixation,jsons/v1_VE1000_randls_3_rotated.json,http://54.235.29.9/FacialAge/BNav_EC2/DepthDuration/v2_depth_duration_MTurk/v2_DepthDuration_HTML.html#36,36,1366,768,1366,768,8-22-2022,7-13-47,154,depth_duration_stimuli/002788_2014-06-22_19-36-03_094959634447_rgbf000088-resize_2/002788_2014-06-22_19-36-03_094959634447_rgbf000088-resize_2-target.png,1000,1.6465,6,3025,1013,feet,jsons/v1_VE1000_randls_3_rotated.json,690872,1205926,25,Man
154,832128,DepthScenes,duration_manipulation_targetAtFixation,jsons/v1_VE1000_randls_3_rotated.json,http://54.235.29.9/FacialAge/BNav_EC2/DepthDuration/v2_depth_duration_MTurk/v2_DepthDuration_HTML.html#36,36,1366,768,1366,768,8-22-2022,7-13-47,155,depth_duration_stimuli/000549_2014-06-08_22-10-24_260595134347_rgbf000247-resize_3/000549_2014-06-08_22-10-24_260595134347_rgbf000247-resize_3-target.png,1000,1.841,4,3565,993,feet,jsons/v1_VE1000_randls_3_rotated.json,690872,1205926,25,Man
155,832128,DepthScenes,duration_manipulation_targetAtFixation,jsons/v1_VE1000_randls_3_rotated.json,http://54.235.29.9/FacialAge/BNav_EC2/DepthDuration/v2_depth_duration_MTurk/v2_DepthDuration_HTML.html#36,36,1366,768,1366,768,8-22-2022,7-13-47,156,depth_duration_stimuli/001055_2014-06-08_18-45-35_260595134347_rgbf000111-resize_4/001055_2014-06-08_18-45-35_260595134347_rgbf000111-resize_4-target.png,1000,2.4290000000000003,9,3199,988,feet,jsons/v1_VE1000_randls_3_rotated.json,690872,1205926,25,Man
156,832128,DepthScenes,duration_manipulation_targetAtFixation,jsons/v1_VE1000_randls_3_rotated.json,http://54.235.29.9/FacialAge/BNav_EC2/DepthDuration/v2_depth_duration_MTurk/v2_DepthDuration_HTML.html#36,36,1366,768,1366,768,8-22-2022,7-13-47,157,depth_duration_stimuli/001100_2014-06-15_17-46-26_260595134347_rgbf000225-resize_2/001100_2014-06-15_17-46-26_260595134347_rgbf000225-resize_2-target.png,1000,2.24,5,3221,1000,feet,jsons/v1_VE1000_randls_3_rotated.json,690872,1205926,25,Man
157,832128,DepthScenes,duration_manipulation_targetAtFixation,jsons/v1_VE1000_randls_3_rotated.json,http://54.235.29.9/FacialAge/BNav_EC2/DepthDuration/v2_depth_duration_MTurk/v2_DepthDuration_HTML.html#36,36,1366,768,1366,768,8-22-2022,7-13-47,158,depth_duration_stimuli/002784_2014-06-22_19-26-30_094959634447_rgbf000083-resize_3/002784_2014-06-22_19-26-30_094959634447_rgbf000083-resize_3-target.png,1000,1.8046666666667,3,3060,994,feet,jsons/v1_VE1000_randls_3_rotated.json,690872,1205926,25,Man
158,832128,DepthScenes,duration_manipulation_targetAtFixation,jsons/v1_VE1000_randls_3_rotated.json,http://54.235.29.9/FacialAge/BNav_EC2/DepthDuration/v2_depth_duration_MTurk/v2_DepthDuration_HTML.html#36,36,1366,768,1366,768,8-22-2022,7-13-47,159,depth_duration_stimuli/003587_2014-05-23_16-48-02_094959634447_rgbf002384-resize_2/003587_2014-05-23_16-48-02_094959634447_rgbf002384-resize_2-target.png,1000,1.357,2,4107,998,feet,jsons/v1_VE1000_randls_3_rotated.json,690872,1205926,25,Man
159,832128,DepthScenes,duration_manipulation_targetAtFixation,jsons/v1_VE1000_randls_3_rotated.json,http://54.235.29.9/FacialAge/BNav_EC2/DepthDuration/v2_depth_duration_MTurk/v2_DepthDuration_HTML.html#36,36,1366,768,1366,768,8-22-2022,7-13-47,160,depth_duration_stimuli/001167_2014-06-17_15-38-07_260595134347_rgbf000108-resize_0/001167_2014-06-17_15-38-07_260595134347_rgbf000108-resize_0-target.png,1000,1.8505,5,12672,1005,feet,jsons/v1_VE1000_randls_3_rotated.json,690872,1205926,25,Man
160,832128,DepthScenes,duration_manipulation_targetAtFixation,jsons/v1_VE1000_randls_3_rotated.json,http://54.235.29.9/FacialAge/BNav_EC2/DepthDuration/v2_depth_duration_MTurk/v2_DepthDuration_HTML.html#36,36,1366,768,1366,768,8-22-2022,7-13-47,161,depth_duration_stimuli/000780_2014-06-08_22-28-29_260595134347_rgbf000126-resize_1/000780_2014-06-08_22-28-29_260595134347_rgbf000126-resize_1-target.png,1000,3.3825,5,4846,1005,feet,jsons/v1_VE1000_randls_3_rotated.json,690872,1205926,25,Man
161,832128,DepthScenes,duration_manipulation_targetAtFixation,jsons/v1_VE1000_randls_3_rotated.json,http://54.235.29.9/FacialAge/BNav_EC2/DepthDuration/v2_depth_duration_MTurk/v2_DepthDuration_HTML.html#36,36,1366,768,1366,768,8-22-2022,7-13-47,162,depth_duration_stimuli/002445_2014-06-28_20-32-16_260595134347_rgbf000029-resize_4/002445_2014-06-28_20-32-16_260595134347_rgbf000029-resize_4-target.png,1000,2.5315,5,4524,998,feet,jsons/v1_VE1000_randls_3_rotated.json,690872,1205926,25,Man
162,832128,DepthScenes,duration_manipulation_targetAtFixation,jsons/v1_VE1000_randls_3_rotated.json,http://54.235.29.9/FacialAge/BNav_EC2/DepthDuration/v2_depth_duration_MTurk/v2_DepthDuration_HTML.html#36,36,1366,768,1366,768,8-22-2022,7-13-47,163,depth_duration_stimuli/002678_2014-06-13_16-15-32_094959634447_rgbf000151-resize_6/002678_2014-06-13_16-15-32_094959634447_rgbf000151-resize_6-target.png,1000,2.1830000000000003,7,4910,999,feet,jsons/v1_VE1000_randls_3_rotated.json,690872,1205926,25,Man
163,832128,DepthScenes,duration_manipulation_targetAtFixation,jsons/v1_VE1000_randls_3_rotated.json,http://54.235.29.9/FacialAge/BNav_EC2/DepthDuration/v2_depth_duration_MTurk/v2_DepthDuration_HTML.html#36,36,1366,768,1366,768,8-22-2022,7-13-47,164,depth_duration_stimuli/000368_2014-06-09_15-53-01_260595134347_rgbf000155-resize_2/000368_2014-06-09_15-53-01_260595134347_rgbf000155-resize_2-target.png,1000,2.4859999999999998,5,3962,998,feet,jsons/v1_VE1000_randls_3_rotated.json,690872,1205926,25,Man
