,subjID,experimentName,versionName,sequenceName,url,selected_row,windowWidth,windowHeight,screenWidth,screenHeight,startDate,startTime,trial,stimulus,duration,actual_depth,depth_estimate,trial_RT,log_sceneDuration,unitSelection,seq_filepath,experimentTime,totalTime,age,gender
0,832487,DepthScenes,duration_manipulation_targetAtFixation,jsons/VE125_randls_44.json,http://54.235.29.9/FacialAge/BNav_EC2/DepthDuration/v2_depth_duration_MTurk/v2_DepthDuration_HTML.html#182,182,1366,768,1366,768,9-3-2022,10-58-4,1,depth_duration_stimuli/001110_2014-06-15_17-25-28_260595134347_rgbf000150-resize_1/001110_2014-06-15_17-25-28_260595134347_rgbf000150-resize_1-target.png,125,1.7115,35,4017,126,meters,jsons/VE125_randls_44.json,1024146,1324153,39,Woman
1,832487,DepthScenes,duration_manipulation_targetAtFixation,jsons/VE125_randls_44.json,http://54.235.29.9/FacialAge/BNav_EC2/DepthDuration/v2_depth_duration_MTurk/v2_DepthDuration_HTML.html#182,182,1366,768,1366,768,9-3-2022,10-58-4,2,depth_duration_stimuli/000927_2014-06-09_16-32-30_260595134347_rgbf000123-resize_3/000927_2014-06-09_16-32-30_260595134347_rgbf000123-resize_3-target.png,125,2.6785,36,3245,125,meters,jsons/VE125_randls_44.json,1024146,1324153,39,Woman
2,832487,DepthScenes,duration_manipulation_targetAtFixation,jsons/VE125_randls_44.json,http://54.235.29.9/FacialAge/BNav_EC2/DepthDuration/v2_depth_duration_MTurk/v2_DepthDuration_HTML.html#182,182,1366,768,1366,768,9-3-2022,10-58-4,3,depth_duration_stimuli/000773_2014-06-08_22-24-54_260595134347_rgbf000093-resize_1/000773_2014-06-08_22-24-54_260595134347_rgbf000093-resize_1-target.png,125,4.973,47,4102,125,meters,jsons/VE125_randls_44.json,1024146,1324153,39,Woman
3,832487,DepthScenes,duration_manipulation_targetAtFixation,jsons/VE125_randls_44.json,http://54.235.29.9/FacialAge/BNav_EC2/DepthDuration/v2_depth_duration_MTurk/v2_DepthDuration_HTML.html#182,182,1366,768,1366,768,9-3-2022,10-58-4,4,depth_duration_stimuli/002414_2014-06-28_20-24-58_260595134347_rgbf000067-resize_4/002414_2014-06-28_20-24-58_260595134347_rgbf000067-resize_4-target.png,125,4.363,54,4408,123,meters,jsons/VE125_randls_44.json,1024146,1324153,39,Woman
4,832487,DepthScenes,duration_manipulation_targetAtFixation,jsons/VE125_randls_44.json,http://54.235.29.9/FacialAge/BNav_EC2/DepthDuration/v2_depth_duration_MTurk/v2_DepthDuration_HTML.html#182,182,1366,768,1366,768,9-3-2022,10-58-4,5,depth_duration_stimuli/000009_2014-05-26_14-32-05_260595134347_rgbf000034-resize_3/000009_2014-05-26_14-32-05_260595134347_rgbf000034-resize_3-target.png,125,3.8715,58,9253,125,meters,jsons/VE125_randls_44.json,1024146,1324153,39,Woman
5,832487,DepthScenes,duration_manipulation_targetAtFixation,jsons/VE125_randls_44.json,http://54.235.29.9/FacialAge/BNav_EC2/DepthDuration/v2_depth_duration_MTurk/v2_DepthDuration_HTML.html#182,182,1366,768,1366,768,9-3-2022,10-58-4,6,depth_duration_stimuli/001828_2014-06-26_21-40-03_260595134347_rgbf000024-resize_0/001828_2014-06-26_21-40-03_260595134347_rgbf000024-resize_0-target.png,125,4.8260000000000005,49,7628,123,meters,jsons/VE125_randls_44.json,1024146,1324153,39,Woman
6,832487,DepthScenes,duration_manipulation_targetAtFixation,jsons/VE125_randls_44.json,http://54.235.29.9/FacialAge/BNav_EC2/DepthDuration/v2_depth_duration_MTurk/v2_DepthDuration_HTML.html#182,182,1366,768,1366,768,9-3-2022,10-58-4,7,depth_duration_stimuli/002570_2014-06-24_13-59-54_094959634447_rgbf000059-resize_0/002570_2014-06-24_13-59-54_094959634447_rgbf000059-resize_0-target.png,125,4.037,40,9161,125,meters,jsons/VE125_randls_44.json,1024146,1324153,39,Woman
7,832487,DepthScenes,duration_manipulation_targetAtFixation,jsons/VE125_randls_44.json,http://54.235.29.9/FacialAge/BNav_EC2/DepthDuration/v2_depth_duration_MTurk/v2_DepthDuration_HTML.html#182,182,1366,768,1366,768,9-3-2022,10-58-4,8,depth_duration_stimuli/002467_2014-06-28_20-38-07_260595134347_rgbf000026-resize_2/002467_2014-06-28_20-38-07_260595134347_rgbf000026-resize_2-target.png,125,4.742,39,6137,124,meters,jsons/VE125_randls_44.json,1024146,1324153,39,Woman
8,832487,DepthScenes,duration_manipulation_targetAtFixation,jsons/VE125_randls_44.json,http://54.235.29.9/FacialAge/BNav_EC2/DepthDuration/v2_depth_duration_MTurk/v2_DepthDuration_HTML.html#182,182,1366,768,1366,768,9-3-2022,10-58-4,9,depth_duration_stimuli/002118_2014-06-25_20-32-08_260595134347_rgbf000078-resize_1/002118_2014-06-25_20-32-08_260595134347_rgbf000078-resize_1-target.png,125,2.6460000000000004,36,9772,125,meters,jsons/VE125_randls_44.json,1024146,1324153,39,Woman
9,832487,DepthScenes,duration_manipulation_targetAtFixation,jsons/VE125_randls_44.json,http://54.235.29.9/FacialAge/BNav_EC2/DepthDuration/v2_depth_duration_MTurk/v2_DepthDuration_HTML.html#182,182,1366,768,1366,768,9-3-2022,10-58-4,10,depth_duration_stimuli/001516_2014-06-20_16-25-09_260595134347_rgbf000076-resize_2/001516_2014-06-20_16-25-09_260595134347_rgbf000076-resize_2-target.png,125,1.7445,35,4797,123,meters,jsons/VE125_randls_44.json,1024146,1324153,39,Woman
10,832487,DepthScenes,duration_manipulation_targetAtFixation,jsons/VE125_randls_44.json,http://54.235.29.9/FacialAge/BNav_EC2/DepthDuration/v2_depth_duration_MTurk/v2_DepthDuration_HTML.html#182,182,1366,768,1366,768,9-3-2022,10-58-4,11,depth_duration_stimuli/000810_2014-06-08_17-20-01_260595134347_rgbf000105-resize_0/000810_2014-06-08_17-20-01_260595134347_rgbf000105-resize_0-target.png,125,1.4865,37,7548,125,meters,jsons/VE125_randls_44.json,1024146,1324153,39,Woman
11,832487,DepthScenes,duration_manipulation_targetAtFixation,jsons/VE125_randls_44.json,http://54.235.29.9/FacialAge/BNav_EC2/DepthDuration/v2_depth_duration_MTurk/v2_DepthDuration_HTML.html#182,182,1366,768,1366,768,9-3-2022,10-58-4,12,depth_duration_stimuli/001214_2014-06-17_16-13-55_260595134347_rgbf000111-resize_0/001214_2014-06-17_16-13-55_260595134347_rgbf000111-resize_0-target.png,125,2.6505,38,5619,124,meters,jsons/VE125_randls_44.json,1024146,1324153,39,Woman
12,832487,DepthScenes,duration_manipulation_targetAtFixation,jsons/VE125_randls_44.json,http://54.235.29.9/FacialAge/BNav_EC2/DepthDuration/v2_depth_duration_MTurk/v2_DepthDuration_HTML.html#182,182,1366,768,1366,768,9-3-2022,10-58-4,13,depth_duration_stimuli/000569_2014-06-09_22-51-47_260595134347_rgbf000141-resize_3/000569_2014-06-09_22-51-47_260595134347_rgbf000141-resize-original.jpg,125,4.512,0,6920,125,meters,jsons/VE125_randls_44.json,1024146,1324153,39,Woman
13,832487,DepthScenes,duration_manipulation_targetAtFixation,jsons/VE125_randls_44.json,http://54.235.29.9/FacialAge/BNav_EC2/DepthDuration/v2_depth_duration_MTurk/v2_DepthDuration_HTML.html#182,182,1366,768,1366,768,9-3-2022,10-58-4,14,depth_duration_stimuli/000692_2014-06-08_13-09-42_260595134347_rgbf000199-resize_2/000692_2014-06-08_13-09-42_260595134347_rgbf000199-resize_2-target.png,125,3.661,43,6764,123,meters,jsons/VE125_randls_44.json,1024146,1324153,39,Woman
14,832487,DepthScenes,duration_manipulation_targetAtFixation,jsons/VE125_randls_44.json,http://54.235.29.9/FacialAge/BNav_EC2/DepthDuration/v2_depth_duration_MTurk/v2_DepthDuration_HTML.html#182,182,1366,768,1366,768,9-3-2022,10-58-4,15,depth_duration_stimuli/001094_2014-06-15_17-36-00_260595134347_rgbf000205-resize_0/001094_2014-06-15_17-36-00_260595134347_rgbf000205-resize_0-target.png,125,4.2175,45,4411,124,meters,jsons/VE125_randls_44.json,1024146,1324153,39,Woman
15,832487,DepthScenes,duration_manipulation_targetAtFixation,jsons/VE125_randls_44.json,http://54.235.29.9/FacialAge/BNav_EC2/DepthDuration/v2_depth_duration_MTurk/v2_DepthDuration_HTML.html#182,182,1366,768,1366,768,9-3-2022,10-58-4,16,depth_duration_stimuli/002445_2014-06-28_20-32-16_260595134347_rgbf000029-resize_4/002445_2014-06-28_20-32-16_260595134347_rgbf000029-resize_4-target.png,125,2.5315,35,7678,123,meters,jsons/VE125_randls_44.json,1024146,1324153,39,Woman
16,832487,DepthScenes,duration_manipulation_targetAtFixation,jsons/VE125_randls_44.json,http://54.235.29.9/FacialAge/BNav_EC2/DepthDuration/v2_depth_duration_MTurk/v2_DepthDuration_HTML.html#182,182,1366,768,1366,768,9-3-2022,10-58-4,17,depth_duration_stimuli/000780_2014-06-08_22-28-29_260595134347_rgbf000126-resize_1/000780_2014-06-08_22-28-29_260595134347_rgbf000126-resize_1-target.png,125,3.3825,36,3379,123,meters,jsons/VE125_randls_44.json,1024146,1324153,39,Woman
17,832487,DepthScenes,duration_manipulation_targetAtFixation,jsons/VE125_randls_44.json,http://54.235.29.9/FacialAge/BNav_EC2/DepthDuration/v2_depth_duration_MTurk/v2_DepthDuration_HTML.html#182,182,1366,768,1366,768,9-3-2022,10-58-4,18,depth_duration_stimuli/000470_2014-06-09_19-42-40_260595134347_rgbf000094-resize_1/000470_2014-06-09_19-42-40_260595134347_rgbf000094-resize_1-target.png,125,1.831,35,6305,124,meters,jsons/VE125_randls_44.json,1024146,1324153,39,Woman
18,832487,DepthScenes,duration_manipulation_targetAtFixation,jsons/VE125_randls_44.json,http://54.235.29.9/FacialAge/BNav_EC2/DepthDuration/v2_depth_duration_MTurk/v2_DepthDuration_HTML.html#182,182,1366,768,1366,768,9-3-2022,10-58-4,19,depth_duration_stimuli/000109_2014-05-14_23-41-52_260595134347_rgbf000035-resize_9/000109_2014-05-14_23-41-52_260595134347_rgbf000035-resize_9-target.png,125,1.3545,37,5839,124,meters,jsons/VE125_randls_44.json,1024146,1324153,39,Woman
19,832487,DepthScenes,duration_manipulation_targetAtFixation,jsons/VE125_randls_44.json,http://54.235.29.9/FacialAge/BNav_EC2/DepthDuration/v2_depth_duration_MTurk/v2_DepthDuration_HTML.html#182,182,1366,768,1366,768,9-3-2022,10-58-4,20,depth_duration_stimuli/002375_2014-06-28_20-13-44_260595134347_rgbf000032-resize_1/002375_2014-06-28_20-13-44_260595134347_rgbf000032-resize_1-target.png,125,4.0175,39,8619,123,meters,jsons/VE125_randls_44.json,1024146,1324153,39,Woman
20,832487,DepthScenes,duration_manipulation_targetAtFixation,jsons/VE125_randls_44.json,http://54.235.29.9/FacialAge/BNav_EC2/DepthDuration/v2_depth_duration_MTurk/v2_DepthDuration_HTML.html#182,182,1366,768,1366,768,9-3-2022,10-58-4,21,depth_duration_stimuli/002657_2014-06-13_15-29-54_094959634447_rgbf000150-resize_1/002657_2014-06-13_15-29-54_094959634447_rgbf000150-resize_1-target.png,125,4.919,43,3590,124,meters,jsons/VE125_randls_44.json,1024146,1324153,39,Woman
21,832487,DepthScenes,duration_manipulation_targetAtFixation,jsons/VE125_randls_44.json,http://54.235.29.9/FacialAge/BNav_EC2/DepthDuration/v2_depth_duration_MTurk/v2_DepthDuration_HTML.html#182,182,1366,768,1366,768,9-3-2022,10-58-4,22,depth_duration_stimuli/002213_2014-06-28_18-37-58_260595134347_rgbf000055-resize_1/002213_2014-06-28_18-37-58_260595134347_rgbf000055-resize_1-target.png,125,3.62,45,6326,124,meters,jsons/VE125_randls_44.json,1024146,1324153,39,Woman
22,832487,DepthScenes,duration_manipulation_targetAtFixation,jsons/VE125_randls_44.json,http://54.235.29.9/FacialAge/BNav_EC2/DepthDuration/v2_depth_duration_MTurk/v2_DepthDuration_HTML.html#182,182,1366,768,1366,768,9-3-2022,10-58-4,23,depth_duration_stimuli/000691_2014-06-08_13-08-50_260595134347_rgbf000132-resize_3/000691_2014-06-08_13-08-50_260595134347_rgbf000132-resize_3-target.png,125,4.1530000000000005,44,3550,125,meters,jsons/VE125_randls_44.json,1024146,1324153,39,Woman
23,832487,DepthScenes,duration_manipulation_targetAtFixation,jsons/VE125_randls_44.json,http://54.235.29.9/FacialAge/BNav_EC2/DepthDuration/v2_depth_duration_MTurk/v2_DepthDuration_HTML.html#182,182,1366,768,1366,768,9-3-2022,10-58-4,24,depth_duration_stimuli/000642_2014-06-08_16-59-25_260595134347_rgbf000098-resize_2/000642_2014-06-08_16-59-25_260595134347_rgbf000098-resize_2-target.png,125,2.8815,38,4888,124,meters,jsons/VE125_randls_44.json,1024146,1324153,39,Woman
24,832487,DepthScenes,duration_manipulation_targetAtFixation,jsons/VE125_randls_44.json,http://54.235.29.9/FacialAge/BNav_EC2/DepthDuration/v2_depth_duration_MTurk/v2_DepthDuration_HTML.html#182,182,1366,768,1366,768,9-3-2022,10-58-4,25,depth_duration_stimuli/002425_2014-06-28_20-27-29_260595134347_rgbf000031-resize_8/002425_2014-06-28_20-27-29_260595134347_rgbf000031-resize_8-target.png,125,3.8960000000000004,36,3719,125,meters,jsons/VE125_randls_44.json,1024146,1324153,39,Woman
25,832487,DepthScenes,duration_manipulation_targetAtFixation,jsons/VE125_randls_44.json,http://54.235.29.9/FacialAge/BNav_EC2/DepthDuration/v2_depth_duration_MTurk/v2_DepthDuration_HTML.html#182,182,1366,768,1366,768,9-3-2022,10-58-4,26,depth_duration_stimuli/001133_2014-06-17_14-49-16_260595134347_rgbf000100-resize_0/001133_2014-06-17_14-49-16_260595134347_rgbf000100-resize_0-target.png,125,4.2115,53,5291,126,meters,jsons/VE125_randls_44.json,1024146,1324153,39,Woman
26,832487,DepthScenes,duration_manipulation_targetAtFixation,jsons/VE125_randls_44.json,http://54.235.29.9/FacialAge/BNav_EC2/DepthDuration/v2_depth_duration_MTurk/v2_DepthDuration_HTML.html#182,182,1366,768,1366,768,9-3-2022,10-58-4,27,depth_duration_stimuli/001132_2014-06-17_14-48-54_260595134347_rgbf000100-resize_2/001132_2014-06-17_14-48-54_260595134347_rgbf000100-resize_2-target.png,125,3.753,41,5986,124,meters,jsons/VE125_randls_44.json,1024146,1324153,39,Woman
27,832487,DepthScenes,duration_manipulation_targetAtFixation,jsons/VE125_randls_44.json,http://54.235.29.9/FacialAge/BNav_EC2/DepthDuration/v2_depth_duration_MTurk/v2_DepthDuration_HTML.html#182,182,1366,768,1366,768,9-3-2022,10-58-4,28,depth_duration_stimuli/001417_2014-06-19_16-25-36_260595134347_rgbf000115-resize_5/001417_2014-06-19_16-25-36_260595134347_rgbf000115-resize_5-target.png,125,4.6255,48,5880,124,meters,jsons/VE125_randls_44.json,1024146,1324153,39,Woman
28,832487,DepthScenes,duration_manipulation_targetAtFixation,jsons/VE125_randls_44.json,http://54.235.29.9/FacialAge/BNav_EC2/DepthDuration/v2_depth_duration_MTurk/v2_DepthDuration_HTML.html#182,182,1366,768,1366,768,9-3-2022,10-58-4,29,depth_duration_stimuli/003081_2014-06-15_15-19-16_094959634447_rgbf000150-resize_1/003081_2014-06-15_15-19-16_094959634447_rgbf000150-resize_1-target.png,125,3.9125,42,4738,123,meters,jsons/VE125_randls_44.json,1024146,1324153,39,Woman
29,832487,DepthScenes,duration_manipulation_targetAtFixation,jsons/VE125_randls_44.json,http://54.235.29.9/FacialAge/BNav_EC2/DepthDuration/v2_depth_duration_MTurk/v2_DepthDuration_HTML.html#182,182,1366,768,1366,768,9-3-2022,10-58-4,30,depth_duration_stimuli/000375_2014-06-08_11-17-29_260595134347_rgbf000133-resize_2/000375_2014-06-08_11-17-29_260595134347_rgbf000133-resize-original.jpg,125,4.718,0,4500,124,meters,jsons/VE125_randls_44.json,1024146,1324153,39,Woman
30,832487,DepthScenes,duration_manipulation_targetAtFixation,jsons/VE125_randls_44.json,http://54.235.29.9/FacialAge/BNav_EC2/DepthDuration/v2_depth_duration_MTurk/v2_DepthDuration_HTML.html#182,182,1366,768,1366,768,9-3-2022,10-58-4,31,depth_duration_stimuli/002279_2014-06-28_18-55-32_260595134347_rgbf000040-resize_5/002279_2014-06-28_18-55-32_260595134347_rgbf000040-resize_5-target.png,125,1.5043333333333,35,4577,124,meters,jsons/VE125_randls_44.json,1024146,1324153,39,Woman
31,832487,DepthScenes,duration_manipulation_targetAtFixation,jsons/VE125_randls_44.json,http://54.235.29.9/FacialAge/BNav_EC2/DepthDuration/v2_depth_duration_MTurk/v2_DepthDuration_HTML.html#182,182,1366,768,1366,768,9-3-2022,10-58-4,32,depth_duration_stimuli/000635_2014-06-08_16-38-42_260595134347_rgbf000106-resize_1/000635_2014-06-08_16-38-42_260595134347_rgbf000106-resize_1-target.png,125,2.074,33,2969,124,meters,jsons/VE125_randls_44.json,1024146,1324153,39,Woman
32,832487,DepthScenes,duration_manipulation_targetAtFixation,jsons/VE125_randls_44.json,http://54.235.29.9/FacialAge/BNav_EC2/DepthDuration/v2_depth_duration_MTurk/v2_DepthDuration_HTML.html#182,182,1366,768,1366,768,9-3-2022,10-58-4,33,depth_duration_stimuli/000929_2014-06-09_16-33-19_260595134347_rgbf000139-resize_0/000929_2014-06-09_16-33-19_260595134347_rgbf000139-resize_0-target.png,125,2.8680000000000003,36,4539,124,meters,jsons/VE125_randls_44.json,1024146,1324153,39,Woman
33,832487,DepthScenes,duration_manipulation_targetAtFixation,jsons/VE125_randls_44.json,http://54.235.29.9/FacialAge/BNav_EC2/DepthDuration/v2_depth_duration_MTurk/v2_DepthDuration_HTML.html#182,182,1366,768,1366,768,9-3-2022,10-58-4,34,depth_duration_stimuli/000457_2014-06-08_16-52-43_260595134347_rgbf000199-resize_1/000457_2014-06-08_16-52-43_260595134347_rgbf000199-resize_1-target.png,125,3.6489999999999996,47,3749,124,meters,jsons/VE125_randls_44.json,1024146,1324153,39,Woman
34,832487,DepthScenes,duration_manipulation_targetAtFixation,jsons/VE125_randls_44.json,http://54.235.29.9/FacialAge/BNav_EC2/DepthDuration/v2_depth_duration_MTurk/v2_DepthDuration_HTML.html#182,182,1366,768,1366,768,9-3-2022,10-58-4,35,depth_duration_stimuli/002039_2014-06-24_20-22-38_260595134347_rgbf000084-resize_1/002039_2014-06-24_20-22-38_260595134347_rgbf000084-resize_1-target.png,125,4.408,58,6191,99,meters,jsons/VE125_randls_44.json,1024146,1324153,39,Woman
35,832487,DepthScenes,duration_manipulation_targetAtFixation,jsons/VE125_randls_44.json,http://54.235.29.9/FacialAge/BNav_EC2/DepthDuration/v2_depth_duration_MTurk/v2_DepthDuration_HTML.html#182,182,1366,768,1366,768,9-3-2022,10-58-4,36,depth_duration_stimuli/002103_2014-06-25_20-00-40_260595134347_rgbf000049-resize_0/002103_2014-06-25_20-00-40_260595134347_rgbf000049-resize_0-target.png,125,4.105,56,2680,124,meters,jsons/VE125_randls_44.json,1024146,1324153,39,Woman
36,832487,DepthScenes,duration_manipulation_targetAtFixation,jsons/VE125_randls_44.json,http://54.235.29.9/FacialAge/BNav_EC2/DepthDuration/v2_depth_duration_MTurk/v2_DepthDuration_HTML.html#182,182,1366,768,1366,768,9-3-2022,10-58-4,37,depth_duration_stimuli/000739_2014-06-08_18-45-58_260595134347_rgbf000068-resize_1/000739_2014-06-08_18-45-58_260595134347_rgbf000068-resize_1-target.png,125,3.534,54,4105,124,meters,jsons/VE125_randls_44.json,1024146,1324153,39,Woman
37,832487,DepthScenes,duration_manipulation_targetAtFixation,jsons/VE125_randls_44.json,http://54.235.29.9/FacialAge/BNav_EC2/DepthDuration/v2_depth_duration_MTurk/v2_DepthDuration_HTML.html#182,182,1366,768,1366,768,9-3-2022,10-58-4,38,depth_duration_stimuli/000734_2014-06-08_17-39-11_260595134347_rgbf000128-resize_2/000734_2014-06-08_17-39-11_260595134347_rgbf000128-resize_2-target.png,125,4.098,46,4003,124,meters,jsons/VE125_randls_44.json,1024146,1324153,39,Woman
38,832487,DepthScenes,duration_manipulation_targetAtFixation,jsons/VE125_randls_44.json,http://54.235.29.9/FacialAge/BNav_EC2/DepthDuration/v2_depth_duration_MTurk/v2_DepthDuration_HTML.html#182,182,1366,768,1366,768,9-3-2022,10-58-4,39,depth_duration_stimuli/001175_2014-06-17_15-45-55_260595134347_rgbf000129-resize_4/001175_2014-06-17_15-45-55_260595134347_rgbf000129-resize_4-target.png,125,4.255,58,11849,125,meters,jsons/VE125_randls_44.json,1024146,1324153,39,Woman
39,832487,DepthScenes,duration_manipulation_targetAtFixation,jsons/VE125_randls_44.json,http://54.235.29.9/FacialAge/BNav_EC2/DepthDuration/v2_depth_duration_MTurk/v2_DepthDuration_HTML.html#182,182,1366,768,1366,768,9-3-2022,10-58-4,40,depth_duration_stimuli/003490_2014-05-21_15-50-11_094959634447_rgbf000101-resize_3/003490_2014-05-21_15-50-11_094959634447_rgbf000101-resize_3-target.png,125,3.6445,57,7168,126,meters,jsons/VE125_randls_44.json,1024146,1324153,39,Woman
40,832487,DepthScenes,duration_manipulation_targetAtFixation,jsons/VE125_randls_44.json,http://54.235.29.9/FacialAge/BNav_EC2/DepthDuration/v2_depth_duration_MTurk/v2_DepthDuration_HTML.html#182,182,1366,768,1366,768,9-3-2022,10-58-4,41,depth_duration_stimuli/002663_2014-06-13_15-50-26_094959634447_rgbf000075-resize_1/002663_2014-06-13_15-50-26_094959634447_rgbf000075-resize_1-target.png,125,4.7495,53,6600,124,meters,jsons/VE125_randls_44.json,1024146,1324153,39,Woman
41,832487,DepthScenes,duration_manipulation_targetAtFixation,jsons/VE125_randls_44.json,http://54.235.29.9/FacialAge/BNav_EC2/DepthDuration/v2_depth_duration_MTurk/v2_DepthDuration_HTML.html#182,182,1366,768,1366,768,9-3-2022,10-58-4,42,depth_duration_stimuli/000409_2014-06-04_19-23-33_260595134347_rgbf000067-resize_0/000409_2014-06-04_19-23-33_260595134347_rgbf000067-resize_0-target.png,125,3.7335,44,4006,125,meters,jsons/VE125_randls_44.json,1024146,1324153,39,Woman
42,832487,DepthScenes,duration_manipulation_targetAtFixation,jsons/VE125_randls_44.json,http://54.235.29.9/FacialAge/BNav_EC2/DepthDuration/v2_depth_duration_MTurk/v2_DepthDuration_HTML.html#182,182,1366,768,1366,768,9-3-2022,10-58-4,43,depth_duration_stimuli/001164_2014-06-17_15-35-46_260595134347_rgbf000085-resize_3/001164_2014-06-17_15-35-46_260595134347_rgbf000085-resize_3-target.png,125,2.354,33,5649,124,meters,jsons/VE125_randls_44.json,1024146,1324153,39,Woman
43,832487,DepthScenes,duration_manipulation_targetAtFixation,jsons/VE125_randls_44.json,http://54.235.29.9/FacialAge/BNav_EC2/DepthDuration/v2_depth_duration_MTurk/v2_DepthDuration_HTML.html#182,182,1366,768,1366,768,9-3-2022,10-58-4,44,depth_duration_stimuli/001136_2014-06-17_15-19-41_260595134347_rgbf000076-resize_3/001136_2014-06-17_15-19-41_260595134347_rgbf000076-resize_3-target.png,125,1.8655,46,57189,124,meters,jsons/VE125_randls_44.json,1024146,1324153,39,Woman
44,832487,DepthScenes,duration_manipulation_targetAtFixation,jsons/VE125_randls_44.json,http://54.235.29.9/FacialAge/BNav_EC2/DepthDuration/v2_depth_duration_MTurk/v2_DepthDuration_HTML.html#182,182,1366,768,1366,768,9-3-2022,10-58-4,45,depth_duration_stimuli/000787_2014-06-08_22-33-53_260595134347_rgbf000175-resize_1/000787_2014-06-08_22-33-53_260595134347_rgbf000175-resize-original.jpg,125,4.784,0,9259,126,meters,jsons/VE125_randls_44.json,1024146,1324153,39,Woman
45,832487,DepthScenes,duration_manipulation_targetAtFixation,jsons/VE125_randls_44.json,http://54.235.29.9/FacialAge/BNav_EC2/DepthDuration/v2_depth_duration_MTurk/v2_DepthDuration_HTML.html#182,182,1366,768,1366,768,9-3-2022,10-58-4,46,depth_duration_stimuli/000878_2014-06-08_22-52-45_260595134347_rgbf000045-resize_2/000878_2014-06-08_22-52-45_260595134347_rgbf000045-resize_2-target.png,125,2.092,37,6062,123,meters,jsons/VE125_randls_44.json,1024146,1324153,39,Woman
46,832487,DepthScenes,duration_manipulation_targetAtFixation,jsons/VE125_randls_44.json,http://54.235.29.9/FacialAge/BNav_EC2/DepthDuration/v2_depth_duration_MTurk/v2_DepthDuration_HTML.html#182,182,1366,768,1366,768,9-3-2022,10-58-4,47,depth_duration_stimuli/002953_2014-06-08_17-32-18_094959634447_rgbf000059-resize_5/002953_2014-06-08_17-32-18_094959634447_rgbf000059-resize_5-target.png,125,1.551,35,3388,123,meters,jsons/VE125_randls_44.json,1024146,1324153,39,Woman
47,832487,DepthScenes,duration_manipulation_targetAtFixation,jsons/VE125_randls_44.json,http://54.235.29.9/FacialAge/BNav_EC2/DepthDuration/v2_depth_duration_MTurk/v2_DepthDuration_HTML.html#182,182,1366,768,1366,768,9-3-2022,10-58-4,48,depth_duration_stimuli/001199_2014-06-17_16-03-48_260595134347_rgbf000077-resize_0/001199_2014-06-17_16-03-48_260595134347_rgbf000077-resize_0-target.png,125,3.4375,40,7124,110,meters,jsons/VE125_randls_44.json,1024146,1324153,39,Woman
48,832487,DepthScenes,duration_manipulation_targetAtFixation,jsons/VE125_randls_44.json,http://54.235.29.9/FacialAge/BNav_EC2/DepthDuration/v2_depth_duration_MTurk/v2_DepthDuration_HTML.html#182,182,1366,768,1366,768,9-3-2022,10-58-4,49,depth_duration_stimuli/000502_2014-06-08_23-02-32_260595134347_rgbf000063-resize_4/000502_2014-06-08_23-02-32_260595134347_rgbf000063-resize_4-target.png,125,2.431,42,3760,124,meters,jsons/VE125_randls_44.json,1024146,1324153,39,Woman
49,832487,DepthScenes,duration_manipulation_targetAtFixation,jsons/VE125_randls_44.json,http://54.235.29.9/FacialAge/BNav_EC2/DepthDuration/v2_depth_duration_MTurk/v2_DepthDuration_HTML.html#182,182,1366,768,1366,768,9-3-2022,10-58-4,50,depth_duration_stimuli/001806_2014-06-26_20-50-20_260595134347_rgbf000091-resize_1/001806_2014-06-26_20-50-20_260595134347_rgbf000091-resize_1-target.png,125,2.7305,32,5909,124,meters,jsons/VE125_randls_44.json,1024146,1324153,39,Woman
50,832487,DepthScenes,duration_manipulation_targetAtFixation,jsons/VE125_randls_44.json,http://54.235.29.9/FacialAge/BNav_EC2/DepthDuration/v2_depth_duration_MTurk/v2_DepthDuration_HTML.html#182,182,1366,768,1366,768,9-3-2022,10-58-4,51,depth_duration_stimuli/001617_2014-06-20_11-35-32_260595134347_rgbf000066-resize_1/001617_2014-06-20_11-35-32_260595134347_rgbf000066-resize_1-target.png,125,3.7910000000000004,36,3174,123,meters,jsons/VE125_randls_44.json,1024146,1324153,39,Woman
51,832487,DepthScenes,duration_manipulation_targetAtFixation,jsons/VE125_randls_44.json,http://54.235.29.9/FacialAge/BNav_EC2/DepthDuration/v2_depth_duration_MTurk/v2_DepthDuration_HTML.html#182,182,1366,768,1366,768,9-3-2022,10-58-4,52,depth_duration_stimuli/003621_2014-05-23_18-06-08_094959634447_rgbf000101-resize_1/003621_2014-05-23_18-06-08_094959634447_rgbf000101-resize_1-target.png,125,3.9835,55,4259,124,meters,jsons/VE125_randls_44.json,1024146,1324153,39,Woman
52,832487,DepthScenes,duration_manipulation_targetAtFixation,jsons/VE125_randls_44.json,http://54.235.29.9/FacialAge/BNav_EC2/DepthDuration/v2_depth_duration_MTurk/v2_DepthDuration_HTML.html#182,182,1366,768,1366,768,9-3-2022,10-58-4,53,depth_duration_stimuli/001584_2014-06-20_11-07-43_260595134347_rgbf000002-resize_1/001584_2014-06-20_11-07-43_260595134347_rgbf000002-resize_1-target.png,125,3.53,57,3001,125,meters,jsons/VE125_randls_44.json,1024146,1324153,39,Woman
53,832487,DepthScenes,duration_manipulation_targetAtFixation,jsons/VE125_randls_44.json,http://54.235.29.9/FacialAge/BNav_EC2/DepthDuration/v2_depth_duration_MTurk/v2_DepthDuration_HTML.html#182,182,1366,768,1366,768,9-3-2022,10-58-4,54,depth_duration_stimuli/001016_2014-06-09_16-16-10_260595134347_rgbf000112-resize_5/001016_2014-06-09_16-16-10_260595134347_rgbf000112-resize_5-target.png,125,1.6565,56,4985,123,meters,jsons/VE125_randls_44.json,1024146,1324153,39,Woman
54,832487,DepthScenes,duration_manipulation_targetAtFixation,jsons/VE125_randls_44.json,http://54.235.29.9/FacialAge/BNav_EC2/DepthDuration/v2_depth_duration_MTurk/v2_DepthDuration_HTML.html#182,182,1366,768,1366,768,9-3-2022,10-58-4,55,depth_duration_stimuli/002340_2014-06-28_20-05-46_260595134347_rgbf000113-resize_0/002340_2014-06-28_20-05-46_260595134347_rgbf000113-resize_0-target.png,125,2.4735,43,4385,123,meters,jsons/VE125_randls_44.json,1024146,1324153,39,Woman
55,832487,DepthScenes,duration_manipulation_targetAtFixation,jsons/VE125_randls_44.json,http://54.235.29.9/FacialAge/BNav_EC2/DepthDuration/v2_depth_duration_MTurk/v2_DepthDuration_HTML.html#182,182,1366,768,1366,768,9-3-2022,10-58-4,56,depth_duration_stimuli/002630_2014-06-24_14-47-50_094959634447_rgbf000055-resize_1/002630_2014-06-24_14-47-50_094959634447_rgbf000055-resize_1-target.png,125,3.0095,50,5109,125,meters,jsons/VE125_randls_44.json,1024146,1324153,39,Woman
56,832487,DepthScenes,duration_manipulation_targetAtFixation,jsons/VE125_randls_44.json,http://54.235.29.9/FacialAge/BNav_EC2/DepthDuration/v2_depth_duration_MTurk/v2_DepthDuration_HTML.html#182,182,1366,768,1366,768,9-3-2022,10-58-4,57,depth_duration_stimuli/002758_2014-06-22_19-11-20_094959634447_rgbf000128-resize_1/002758_2014-06-22_19-11-20_094959634447_rgbf000128-resize_1-target.png,125,2.555,36,4680,123,meters,jsons/VE125_randls_44.json,1024146,1324153,39,Woman
57,832487,DepthScenes,duration_manipulation_targetAtFixation,jsons/VE125_randls_44.json,http://54.235.29.9/FacialAge/BNav_EC2/DepthDuration/v2_depth_duration_MTurk/v2_DepthDuration_HTML.html#182,182,1366,768,1366,768,9-3-2022,10-58-4,58,depth_duration_stimuli/003070_2014-06-15_14-58-27_094959634447_rgbf000150-resize_3/003070_2014-06-15_14-58-27_094959634447_rgbf000150-resize_3-target.png,125,2.9415,34,6277,123,meters,jsons/VE125_randls_44.json,1024146,1324153,39,Woman
58,832487,DepthScenes,duration_manipulation_targetAtFixation,jsons/VE125_randls_44.json,http://54.235.29.9/FacialAge/BNav_EC2/DepthDuration/v2_depth_duration_MTurk/v2_DepthDuration_HTML.html#182,182,1366,768,1366,768,9-3-2022,10-58-4,59,depth_duration_stimuli/000943_2014-06-09_19-31-07_260595134347_rgbf000128-resize_1/000943_2014-06-09_19-31-07_260595134347_rgbf000128-resize_1-target.png,125,1.9765,32,2979,124,meters,jsons/VE125_randls_44.json,1024146,1324153,39,Woman
59,832487,DepthScenes,duration_manipulation_targetAtFixation,jsons/VE125_randls_44.json,http://54.235.29.9/FacialAge/BNav_EC2/DepthDuration/v2_depth_duration_MTurk/v2_DepthDuration_HTML.html#182,182,1366,768,1366,768,9-3-2022,10-58-4,60,depth_duration_stimuli/002725_2014-06-22_11-47-51_094959634447_rgbf000070-resize_1/002725_2014-06-22_11-47-51_094959634447_rgbf000070-resize_1-target.png,125,2.195,35,4539,124,meters,jsons/VE125_randls_44.json,1024146,1324153,39,Woman
60,832487,DepthScenes,duration_manipulation_targetAtFixation,jsons/VE125_randls_44.json,http://54.235.29.9/FacialAge/BNav_EC2/DepthDuration/v2_depth_duration_MTurk/v2_DepthDuration_HTML.html#182,182,1366,768,1366,768,9-3-2022,10-58-4,61,depth_duration_stimuli/002344_2014-06-28_20-06-29_260595134347_rgbf000030-resize_1/002344_2014-06-28_20-06-29_260595134347_rgbf000030-resize_1-target.png,125,1.5795,33,2386,122,meters,jsons/VE125_randls_44.json,1024146,1324153,39,Woman
61,832487,DepthScenes,duration_manipulation_targetAtFixation,jsons/VE125_randls_44.json,http://54.235.29.9/FacialAge/BNav_EC2/DepthDuration/v2_depth_duration_MTurk/v2_DepthDuration_HTML.html#182,182,1366,768,1366,768,9-3-2022,10-58-4,62,depth_duration_stimuli/000522_2014-06-08_13-35-06_260595134347_rgbf000244-resize_1/000522_2014-06-08_13-35-06_260595134347_rgbf000244-resize_1-target.png,125,2.3715,30,4029,124,meters,jsons/VE125_randls_44.json,1024146,1324153,39,Woman
62,832487,DepthScenes,duration_manipulation_targetAtFixation,jsons/VE125_randls_44.json,http://54.235.29.9/FacialAge/BNav_EC2/DepthDuration/v2_depth_duration_MTurk/v2_DepthDuration_HTML.html#182,182,1366,768,1366,768,9-3-2022,10-58-4,63,depth_duration_stimuli/002949_2014-06-26_15-57-42_094959634447_rgbf000079-resize_1/002949_2014-06-26_15-57-42_094959634447_rgbf000079-resize_1-target.png,125,1.8915,38,5009,124,meters,jsons/VE125_randls_44.json,1024146,1324153,39,Woman
63,832487,DepthScenes,duration_manipulation_targetAtFixation,jsons/VE125_randls_44.json,http://54.235.29.9/FacialAge/BNav_EC2/DepthDuration/v2_depth_duration_MTurk/v2_DepthDuration_HTML.html#182,182,1366,768,1366,768,9-3-2022,10-58-4,64,depth_duration_stimuli/002989_2014-06-15_12-25-03_094959634447_rgbf000150-resize_3/002989_2014-06-15_12-25-03_094959634447_rgbf000150-resize_3-target.png,125,4.1975,57,4768,124,meters,jsons/VE125_randls_44.json,1024146,1324153,39,Woman
64,832487,DepthScenes,duration_manipulation_targetAtFixation,jsons/VE125_randls_44.json,http://54.235.29.9/FacialAge/BNav_EC2/DepthDuration/v2_depth_duration_MTurk/v2_DepthDuration_HTML.html#182,182,1366,768,1366,768,9-3-2022,10-58-4,65,depth_duration_stimuli/000866_2014-06-09_20-45-42_260595134347_rgbf000139-resize_1/000866_2014-06-09_20-45-42_260595134347_rgbf000139-resize_1-target.png,125,3.2155,39,4978,125,meters,jsons/VE125_randls_44.json,1024146,1324153,39,Woman
65,832487,DepthScenes,duration_manipulation_targetAtFixation,jsons/VE125_randls_44.json,http://54.235.29.9/FacialAge/BNav_EC2/DepthDuration/v2_depth_duration_MTurk/v2_DepthDuration_HTML.html#182,182,1366,768,1366,768,9-3-2022,10-58-4,66,depth_duration_stimuli/001222_2014-06-17_16-24-06_260595134347_rgbf000073-resize_0/001222_2014-06-17_16-24-06_260595134347_rgbf000073-resize-original.jpg,125,1.4385,0,5768,124,meters,jsons/VE125_randls_44.json,1024146,1324153,39,Woman
66,832487,DepthScenes,duration_manipulation_targetAtFixation,jsons/VE125_randls_44.json,http://54.235.29.9/FacialAge/BNav_EC2/DepthDuration/v2_depth_duration_MTurk/v2_DepthDuration_HTML.html#182,182,1366,768,1366,768,9-3-2022,10-58-4,67,depth_duration_stimuli/000447_2014-06-08_16-15-46_260595134347_rgbf000130-resize_1/000447_2014-06-08_16-15-46_260595134347_rgbf000130-resize_1-target.png,125,4.479,34,5710,126,meters,jsons/VE125_randls_44.json,1024146,1324153,39,Woman
67,832487,DepthScenes,duration_manipulation_targetAtFixation,jsons/VE125_randls_44.json,http://54.235.29.9/FacialAge/BNav_EC2/DepthDuration/v2_depth_duration_MTurk/v2_DepthDuration_HTML.html#182,182,1366,768,1366,768,9-3-2022,10-58-4,68,depth_duration_stimuli/001447_2014-06-19_17-00-32_260595134347_rgbf000082-resize_5/001447_2014-06-19_17-00-32_260595134347_rgbf000082-resize_5-target.png,125,4.13775,36,3470,125,meters,jsons/VE125_randls_44.json,1024146,1324153,39,Woman
68,832487,DepthScenes,duration_manipulation_targetAtFixation,jsons/VE125_randls_44.json,http://54.235.29.9/FacialAge/BNav_EC2/DepthDuration/v2_depth_duration_MTurk/v2_DepthDuration_HTML.html#182,182,1366,768,1366,768,9-3-2022,10-58-4,69,depth_duration_stimuli/000682_2014-06-08_23-14-58_260595134347_rgbf000041-resize_5/000682_2014-06-08_23-14-58_260595134347_rgbf000041-resize_5-target.png,125,2.7239999999999998,40,3748,123,meters,jsons/VE125_randls_44.json,1024146,1324153,39,Woman
69,832487,DepthScenes,duration_manipulation_targetAtFixation,jsons/VE125_randls_44.json,http://54.235.29.9/FacialAge/BNav_EC2/DepthDuration/v2_depth_duration_MTurk/v2_DepthDuration_HTML.html#182,182,1366,768,1366,768,9-3-2022,10-58-4,70,depth_duration_stimuli/001650_2014-06-20_12-09-00_260595134347_rgbf000087-resize_3/001650_2014-06-20_12-09-00_260595134347_rgbf000087-resize_3-target.png,125,1.9505,33,4101,125,meters,jsons/VE125_randls_44.json,1024146,1324153,39,Woman
70,832487,DepthScenes,duration_manipulation_targetAtFixation,jsons/VE125_randls_44.json,http://54.235.29.9/FacialAge/BNav_EC2/DepthDuration/v2_depth_duration_MTurk/v2_DepthDuration_HTML.html#182,182,1366,768,1366,768,9-3-2022,10-58-4,71,depth_duration_stimuli/002549_2014-06-24_13-41-39_094959634447_rgbf000022-resize_3/002549_2014-06-24_13-41-39_094959634447_rgbf000022-resize_3-target.png,125,1.476,31,4487,124,meters,jsons/VE125_randls_44.json,1024146,1324153,39,Woman
71,832487,DepthScenes,duration_manipulation_targetAtFixation,jsons/VE125_randls_44.json,http://54.235.29.9/FacialAge/BNav_EC2/DepthDuration/v2_depth_duration_MTurk/v2_DepthDuration_HTML.html#182,182,1366,768,1366,768,9-3-2022,10-58-4,72,depth_duration_stimuli/002750_2014-06-22_19-08-03_094959634447_rgbf000094-resize_4/002750_2014-06-22_19-08-03_094959634447_rgbf000094-resize_4-target.png,125,2.354,35,3079,126,meters,jsons/VE125_randls_44.json,1024146,1324153,39,Woman
72,832487,DepthScenes,duration_manipulation_targetAtFixation,jsons/VE125_randls_44.json,http://54.235.29.9/FacialAge/BNav_EC2/DepthDuration/v2_depth_duration_MTurk/v2_DepthDuration_HTML.html#182,182,1366,768,1366,768,9-3-2022,10-58-4,73,depth_duration_stimuli/000917_2014-06-09_22-45-29_260595134347_rgbf000149-resize_3/000917_2014-06-09_22-45-29_260595134347_rgbf000149-resize_3-target.png,125,4.1865,42,4857,122,meters,jsons/VE125_randls_44.json,1024146,1324153,39,Woman
73,832487,DepthScenes,duration_manipulation_targetAtFixation,jsons/VE125_randls_44.json,http://54.235.29.9/FacialAge/BNav_EC2/DepthDuration/v2_depth_duration_MTurk/v2_DepthDuration_HTML.html#182,182,1366,768,1366,768,9-3-2022,10-58-4,74,depth_duration_stimuli/002323_2014-06-28_20-01-54_260595134347_rgbf000051-resize_4/002323_2014-06-28_20-01-54_260595134347_rgbf000051-resize_4-target.png,125,3.7310000000000003,46,3058,124,meters,jsons/VE125_randls_44.json,1024146,1324153,39,Woman
74,832487,DepthScenes,duration_manipulation_targetAtFixation,jsons/VE125_randls_44.json,http://54.235.29.9/FacialAge/BNav_EC2/DepthDuration/v2_depth_duration_MTurk/v2_DepthDuration_HTML.html#182,182,1366,768,1366,768,9-3-2022,10-58-4,75,depth_duration_stimuli/001158_2014-06-17_15-32-16_260595134347_rgbf000138-resize_2/001158_2014-06-17_15-32-16_260595134347_rgbf000138-resize_2-target.png,125,4.5315,59,5032,125,meters,jsons/VE125_randls_44.json,1024146,1324153,39,Woman
75,832487,DepthScenes,duration_manipulation_targetAtFixation,jsons/VE125_randls_44.json,http://54.235.29.9/FacialAge/BNav_EC2/DepthDuration/v2_depth_duration_MTurk/v2_DepthDuration_HTML.html#182,182,1366,768,1366,768,9-3-2022,10-58-4,76,depth_duration_stimuli/000556_2014-06-09_22-42-56_260595134347_rgbf000214-resize_1/000556_2014-06-09_22-42-56_260595134347_rgbf000214-resize_1-target.png,125,4.8415,57,3667,124,meters,jsons/VE125_randls_44.json,1024146,1324153,39,Woman
76,832487,DepthScenes,duration_manipulation_targetAtFixation,jsons/VE125_randls_44.json,http://54.235.29.9/FacialAge/BNav_EC2/DepthDuration/v2_depth_duration_MTurk/v2_DepthDuration_HTML.html#182,182,1366,768,1366,768,9-3-2022,10-58-4,77,depth_duration_stimuli/003534_2014-05-22_15-06-10_094959634447_rgbf000102-resize_4/003534_2014-05-22_15-06-10_094959634447_rgbf000102-resize_4-target.png,125,1.426,29,5698,126,meters,jsons/VE125_randls_44.json,1024146,1324153,39,Woman
77,832487,DepthScenes,duration_manipulation_targetAtFixation,jsons/VE125_randls_44.json,http://54.235.29.9/FacialAge/BNav_EC2/DepthDuration/v2_depth_duration_MTurk/v2_DepthDuration_HTML.html#182,182,1366,768,1366,768,9-3-2022,10-58-4,78,depth_duration_stimuli/002637_2014-06-24_14-51-13_094959634447_rgbf000066-resize_4/002637_2014-06-24_14-51-13_094959634447_rgbf000066-resize_4-target.png,125,1.9955,36,4330,124,meters,jsons/VE125_randls_44.json,1024146,1324153,39,Woman
78,832487,DepthScenes,duration_manipulation_targetAtFixation,jsons/VE125_randls_44.json,http://54.235.29.9/FacialAge/BNav_EC2/DepthDuration/v2_depth_duration_MTurk/v2_DepthDuration_HTML.html#182,182,1366,768,1366,768,9-3-2022,10-58-4,79,depth_duration_stimuli/000736_2014-06-08_18-24-15_260595134347_rgbf000206-resize_3/000736_2014-06-08_18-24-15_260595134347_rgbf000206-resize_3-target.png,125,3.515,41,5329,124,meters,jsons/VE125_randls_44.json,1024146,1324153,39,Woman
79,832487,DepthScenes,duration_manipulation_targetAtFixation,jsons/VE125_randls_44.json,http://54.235.29.9/FacialAge/BNav_EC2/DepthDuration/v2_depth_duration_MTurk/v2_DepthDuration_HTML.html#182,182,1366,768,1366,768,9-3-2022,10-58-4,80,depth_duration_stimuli/000137_2014-05-20_17-04-49_260595134347_rgbf000120-resize_1/000137_2014-05-20_17-04-49_260595134347_rgbf000120-resize_1-target.png,125,3.786,38,5059,125,meters,jsons/VE125_randls_44.json,1024146,1324153,39,Woman
80,832487,DepthScenes,duration_manipulation_targetAtFixation,jsons/VE125_randls_44.json,http://54.235.29.9/FacialAge/BNav_EC2/DepthDuration/v2_depth_duration_MTurk/v2_DepthDuration_HTML.html#182,182,1366,768,1366,768,9-3-2022,10-58-4,81,depth_duration_stimuli/002784_2014-06-22_19-26-30_094959634447_rgbf000083-resize_3/002784_2014-06-22_19-26-30_094959634447_rgbf000083-resize_3-target.png,125,1.8046666666667,33,5315,121,meters,jsons/VE125_randls_44.json,1024146,1324153,39,Woman
81,832487,DepthScenes,duration_manipulation_targetAtFixation,jsons/VE125_randls_44.json,http://54.235.29.9/FacialAge/BNav_EC2/DepthDuration/v2_depth_duration_MTurk/v2_DepthDuration_HTML.html#182,182,1366,768,1366,768,9-3-2022,10-58-4,82,depth_duration_stimuli/001100_2014-06-15_17-46-26_260595134347_rgbf000225-resize_2/001100_2014-06-15_17-46-26_260595134347_rgbf000225-resize_2-target.png,125,2.24,24,4458,123,meters,jsons/VE125_randls_44.json,1024146,1324153,39,Woman
82,832487,DepthScenes,duration_manipulation_targetAtFixation,jsons/VE125_randls_44.json,http://54.235.29.9/FacialAge/BNav_EC2/DepthDuration/v2_depth_duration_MTurk/v2_DepthDuration_HTML.html#182,182,1366,768,1366,768,9-3-2022,10-58-4,83,depth_duration_stimuli/002988_2014-06-15_12-24-20_094959634447_rgbf000150-resize_1/002988_2014-06-15_12-24-20_094959634447_rgbf000150-resize_1-target.png,125,4.7669999999999995,65,7660,125,meters,jsons/VE125_randls_44.json,1024146,1324153,39,Woman
83,832487,DepthScenes,duration_manipulation_targetAtFixation,jsons/VE125_randls_44.json,http://54.235.29.9/FacialAge/BNav_EC2/DepthDuration/v2_depth_duration_MTurk/v2_DepthDuration_HTML.html#182,182,1366,768,1366,768,9-3-2022,10-58-4,84,depth_duration_stimuli/001052_2014-06-08_18-24-54_260595134347_rgbf000130-resize_1/001052_2014-06-08_18-24-54_260595134347_rgbf000130-resize_1-target.png,125,4.1045,52,4458,124,meters,jsons/VE125_randls_44.json,1024146,1324153,39,Woman
84,832487,DepthScenes,duration_manipulation_targetAtFixation,jsons/VE125_randls_44.json,http://54.235.29.9/FacialAge/BNav_EC2/DepthDuration/v2_depth_duration_MTurk/v2_DepthDuration_HTML.html#182,182,1366,768,1366,768,9-3-2022,10-58-4,85,depth_duration_stimuli/002509_2014-06-24_13-19-22_094959634447_rgbf000077-resize_0/002509_2014-06-24_13-19-22_094959634447_rgbf000077-resize_0-target.png,125,1.3065,32,4525,122,meters,jsons/VE125_randls_44.json,1024146,1324153,39,Woman
85,832487,DepthScenes,duration_manipulation_targetAtFixation,jsons/VE125_randls_44.json,http://54.235.29.9/FacialAge/BNav_EC2/DepthDuration/v2_depth_duration_MTurk/v2_DepthDuration_HTML.html#182,182,1366,768,1366,768,9-3-2022,10-58-4,86,depth_duration_stimuli/003338_2014-05-20_11-01-23_094959634447_rgbf000051-resize_6/003338_2014-05-20_11-01-23_094959634447_rgbf000051-resize_6-target.png,125,1.693,30,3169,125,meters,jsons/VE125_randls_44.json,1024146,1324153,39,Woman
86,832487,DepthScenes,duration_manipulation_targetAtFixation,jsons/VE125_randls_44.json,http://54.235.29.9/FacialAge/BNav_EC2/DepthDuration/v2_depth_duration_MTurk/v2_DepthDuration_HTML.html#182,182,1366,768,1366,768,9-3-2022,10-58-4,87,depth_duration_stimuli/001150_2014-06-17_15-27-34_260595134347_rgbf000108-resize_2/001150_2014-06-17_15-27-34_260595134347_rgbf000108-resize_2-target.png,125,4.0325,45,5995,120,meters,jsons/VE125_randls_44.json,1024146,1324153,39,Woman
87,832487,DepthScenes,duration_manipulation_targetAtFixation,jsons/VE125_randls_44.json,http://54.235.29.9/FacialAge/BNav_EC2/DepthDuration/v2_depth_duration_MTurk/v2_DepthDuration_HTML.html#182,182,1366,768,1366,768,9-3-2022,10-58-4,88,depth_duration_stimuli/000665_2014-06-09_20-42-35_260595134347_rgbf000110-resize_1/000665_2014-06-09_20-42-35_260595134347_rgbf000110-resize_1-target.png,125,3.057,44,3029,122,meters,jsons/VE125_randls_44.json,1024146,1324153,39,Woman
88,832487,DepthScenes,duration_manipulation_targetAtFixation,jsons/VE125_randls_44.json,http://54.235.29.9/FacialAge/BNav_EC2/DepthDuration/v2_depth_duration_MTurk/v2_DepthDuration_HTML.html#182,182,1366,768,1366,768,9-3-2022,10-58-4,89,depth_duration_stimuli/002043_2014-06-24_20-29-38_260595134347_rgbf000039-resize_4/002043_2014-06-24_20-29-38_260595134347_rgbf000039-resize_4-target.png,125,2.8435,58,7347,123,meters,jsons/VE125_randls_44.json,1024146,1324153,39,Woman
89,832487,DepthScenes,duration_manipulation_targetAtFixation,jsons/VE125_randls_44.json,http://54.235.29.9/FacialAge/BNav_EC2/DepthDuration/v2_depth_duration_MTurk/v2_DepthDuration_HTML.html#182,182,1366,768,1366,768,9-3-2022,10-58-4,90,depth_duration_stimuli/003048_2014-06-15_13-49-43_094959634447_rgbf000150-resize_1/003048_2014-06-15_13-49-43_094959634447_rgbf000150-resize_1-target.png,125,4.0035,36,4560,124,meters,jsons/VE125_randls_44.json,1024146,1324153,39,Woman
90,832487,DepthScenes,duration_manipulation_targetAtFixation,jsons/VE125_randls_44.json,http://54.235.29.9/FacialAge/BNav_EC2/DepthDuration/v2_depth_duration_MTurk/v2_DepthDuration_HTML.html#182,182,1366,768,1366,768,9-3-2022,10-58-4,91,depth_duration_stimuli/001167_2014-06-17_15-38-07_260595134347_rgbf000108-resize_0/001167_2014-06-17_15-38-07_260595134347_rgbf000108-resize_0-target.png,125,1.8505,26,6848,124,meters,jsons/VE125_randls_44.json,1024146,1324153,39,Woman
91,832487,DepthScenes,duration_manipulation_targetAtFixation,jsons/VE125_randls_44.json,http://54.235.29.9/FacialAge/BNav_EC2/DepthDuration/v2_depth_duration_MTurk/v2_DepthDuration_HTML.html#182,182,1366,768,1366,768,9-3-2022,10-58-4,92,depth_duration_stimuli/003587_2014-05-23_16-48-02_094959634447_rgbf002384-resize_2/003587_2014-05-23_16-48-02_094959634447_rgbf002384-resize_2-target.png,125,1.357,23,3380,125,meters,jsons/VE125_randls_44.json,1024146,1324153,39,Woman
92,832487,DepthScenes,duration_manipulation_targetAtFixation,jsons/VE125_randls_44.json,http://54.235.29.9/FacialAge/BNav_EC2/DepthDuration/v2_depth_duration_MTurk/v2_DepthDuration_HTML.html#182,182,1366,768,1366,768,9-3-2022,10-58-4,93,depth_duration_stimuli/001808_2014-06-26_20-50-58_260595134347_rgbf000029-resize_1/001808_2014-06-26_20-50-58_260595134347_rgbf000029-resize_1-target.png,125,4.249,59,5330,123,meters,jsons/VE125_randls_44.json,1024146,1324153,39,Woman
93,832487,DepthScenes,duration_manipulation_targetAtFixation,jsons/VE125_randls_44.json,http://54.235.29.9/FacialAge/BNav_EC2/DepthDuration/v2_depth_duration_MTurk/v2_DepthDuration_HTML.html#182,182,1366,768,1366,768,9-3-2022,10-58-4,94,depth_duration_stimuli/001815_2014-06-26_20-52-55_260595134347_rgbf000020-resize_0/001815_2014-06-26_20-52-55_260595134347_rgbf000020-resize_0-target.png,125,3.3865,57,3520,116,meters,jsons/VE125_randls_44.json,1024146,1324153,39,Woman
94,832487,DepthScenes,duration_manipulation_targetAtFixation,jsons/VE125_randls_44.json,http://54.235.29.9/FacialAge/BNav_EC2/DepthDuration/v2_depth_duration_MTurk/v2_DepthDuration_HTML.html#182,182,1366,768,1366,768,9-3-2022,10-58-4,95,depth_duration_stimuli/000469_2014-06-09_19-42-10_260595134347_rgbf000081-resize_1/000469_2014-06-09_19-42-10_260595134347_rgbf000081-resize_1-target.png,125,1.652,37,4700,124,meters,jsons/VE125_randls_44.json,1024146,1324153,39,Woman
95,832487,DepthScenes,duration_manipulation_targetAtFixation,jsons/VE125_randls_44.json,http://54.235.29.9/FacialAge/BNav_EC2/DepthDuration/v2_depth_duration_MTurk/v2_DepthDuration_HTML.html#182,182,1366,768,1366,768,9-3-2022,10-58-4,96,depth_duration_stimuli/000483_2014-06-09_20-41-45_260595134347_rgbf000116-resize_4/000483_2014-06-09_20-41-45_260595134347_rgbf000116-resize_4-target.png,125,1.337,35,2687,126,meters,jsons/VE125_randls_44.json,1024146,1324153,39,Woman
96,832487,DepthScenes,duration_manipulation_targetAtFixation,jsons/VE125_randls_44.json,http://54.235.29.9/FacialAge/BNav_EC2/DepthDuration/v2_depth_duration_MTurk/v2_DepthDuration_HTML.html#182,182,1366,768,1366,768,9-3-2022,10-58-4,97,depth_duration_stimuli/001092_2014-06-15_17-34-58_260595134347_rgbf000171-resize_3/001092_2014-06-15_17-34-58_260595134347_rgbf000171-resize_3-target.png,125,2.6935,36,10688,124,meters,jsons/VE125_randls_44.json,1024146,1324153,39,Woman
97,832487,DepthScenes,duration_manipulation_targetAtFixation,jsons/VE125_randls_44.json,http://54.235.29.9/FacialAge/BNav_EC2/DepthDuration/v2_depth_duration_MTurk/v2_DepthDuration_HTML.html#182,182,1366,768,1366,768,9-3-2022,10-58-4,98,depth_duration_stimuli/002545_2014-06-24_13-38-53_094959634447_rgbf000080-resize_4/002545_2014-06-24_13-38-53_094959634447_rgbf000080-resize_4-target.png,125,1.9205,45,3269,125,meters,jsons/VE125_randls_44.json,1024146,1324153,39,Woman
98,832487,DepthScenes,duration_manipulation_targetAtFixation,jsons/VE125_randls_44.json,http://54.235.29.9/FacialAge/BNav_EC2/DepthDuration/v2_depth_duration_MTurk/v2_DepthDuration_HTML.html#182,182,1366,768,1366,768,9-3-2022,10-58-4,99,depth_duration_stimuli/001540_2014-06-20_17-01-05_260595134347_rgbf000086-resize_2/001540_2014-06-20_17-01-05_260595134347_rgbf000086-resize-original.jpg,125,1.459,0,5080,124,meters,jsons/VE125_randls_44.json,1024146,1324153,39,Woman
99,832487,DepthScenes,duration_manipulation_targetAtFixation,jsons/VE125_randls_44.json,http://54.235.29.9/FacialAge/BNav_EC2/DepthDuration/v2_depth_duration_MTurk/v2_DepthDuration_HTML.html#182,182,1366,768,1366,768,9-3-2022,10-58-4,100,depth_duration_stimuli/001056_2014-06-08_18-46-44_260595134347_rgbf000068-resize_0/001056_2014-06-08_18-46-44_260595134347_rgbf000068-resize_0-target.png,125,2.6625,42,5749,124,meters,jsons/VE125_randls_44.json,1024146,1324153,39,Woman
100,832487,DepthScenes,duration_manipulation_targetAtFixation,jsons/VE125_randls_44.json,http://54.235.29.9/FacialAge/BNav_EC2/DepthDuration/v2_depth_duration_MTurk/v2_DepthDuration_HTML.html#182,182,1366,768,1366,768,9-3-2022,10-58-4,101,depth_duration_stimuli/002199_2014-06-28_18-33-56_260595134347_rgbf000074-resize_0/002199_2014-06-28_18-33-56_260595134347_rgbf000074-resize_0-target.png,125,1.996,24,5359,125,meters,jsons/VE125_randls_44.json,1024146,1324153,39,Woman
101,832487,DepthScenes,duration_manipulation_targetAtFixation,jsons/VE125_randls_44.json,http://54.235.29.9/FacialAge/BNav_EC2/DepthDuration/v2_depth_duration_MTurk/v2_DepthDuration_HTML.html#182,182,1366,768,1366,768,9-3-2022,10-58-4,102,depth_duration_stimuli/002905_2014-06-03_18-04-43_094959634447_rgbf000151-resize_2/002905_2014-06-03_18-04-43_094959634447_rgbf000151-resize_2-target.png,125,2.0295,30,5679,124,meters,jsons/VE125_randls_44.json,1024146,1324153,39,Woman
102,832487,DepthScenes,duration_manipulation_targetAtFixation,jsons/VE125_randls_44.json,http://54.235.29.9/FacialAge/BNav_EC2/DepthDuration/v2_depth_duration_MTurk/v2_DepthDuration_HTML.html#182,182,1366,768,1366,768,9-3-2022,10-58-4,103,depth_duration_stimuli/003423_2014-05-21_10-23-26_094959634447_rgbf002665-resize_2/003423_2014-05-21_10-23-26_094959634447_rgbf002665-resize_2-target.png,125,3.2575,35,5968,125,meters,jsons/VE125_randls_44.json,1024146,1324153,39,Woman
103,832487,DepthScenes,duration_manipulation_targetAtFixation,jsons/VE125_randls_44.json,http://54.235.29.9/FacialAge/BNav_EC2/DepthDuration/v2_depth_duration_MTurk/v2_DepthDuration_HTML.html#182,182,1366,768,1366,768,9-3-2022,10-58-4,104,depth_duration_stimuli/001066_2014-06-08_22-03-20_260595134347_rgbf000066-resize_4/001066_2014-06-08_22-03-20_260595134347_rgbf000066-resize_4-target.png,125,4.2330000000000005,59,6409,124,meters,jsons/VE125_randls_44.json,1024146,1324153,39,Woman
104,832487,DepthScenes,duration_manipulation_targetAtFixation,jsons/VE125_randls_44.json,http://54.235.29.9/FacialAge/BNav_EC2/DepthDuration/v2_depth_duration_MTurk/v2_DepthDuration_HTML.html#182,182,1366,768,1366,768,9-3-2022,10-58-4,105,depth_duration_stimuli/000742_2014-06-08_18-48-09_260595134347_rgbf000164-resize_4/000742_2014-06-08_18-48-09_260595134347_rgbf000164-resize_4-target.png,125,4.632,47,5775,123,meters,jsons/VE125_randls_44.json,1024146,1324153,39,Woman
105,832487,DepthScenes,duration_manipulation_targetAtFixation,jsons/VE125_randls_44.json,http://54.235.29.9/FacialAge/BNav_EC2/DepthDuration/v2_depth_duration_MTurk/v2_DepthDuration_HTML.html#182,182,1366,768,1366,768,9-3-2022,10-58-4,106,depth_duration_stimuli/001810_2014-06-26_20-51-35_260595134347_rgbf000040-resize_3/001810_2014-06-26_20-51-35_260595134347_rgbf000040-resize_3-target.png,125,2.2525,38,10972,124,meters,jsons/VE125_randls_44.json,1024146,1324153,39,Woman
106,832487,DepthScenes,duration_manipulation_targetAtFixation,jsons/VE125_randls_44.json,http://54.235.29.9/FacialAge/BNav_EC2/DepthDuration/v2_depth_duration_MTurk/v2_DepthDuration_HTML.html#182,182,1366,768,1366,768,9-3-2022,10-58-4,107,depth_duration_stimuli/003010_2014-06-15_12-54-35_094959634447_rgbf000112-resize_0/003010_2014-06-15_12-54-35_094959634447_rgbf000112-resize_0-target.png,125,3.1185,59,5188,124,meters,jsons/VE125_randls_44.json,1024146,1324153,39,Woman
107,832487,DepthScenes,duration_manipulation_targetAtFixation,jsons/VE125_randls_44.json,http://54.235.29.9/FacialAge/BNav_EC2/DepthDuration/v2_depth_duration_MTurk/v2_DepthDuration_HTML.html#182,182,1366,768,1366,768,9-3-2022,10-58-4,108,depth_duration_stimuli/002272_2014-06-28_18-53-56_260595134347_rgbf000067-resize_2/002272_2014-06-28_18-53-56_260595134347_rgbf000067-resize_2-target.png,125,1.138,30,4078,126,meters,jsons/VE125_randls_44.json,1024146,1324153,39,Woman
108,832487,DepthScenes,duration_manipulation_targetAtFixation,jsons/VE125_randls_44.json,http://54.235.29.9/FacialAge/BNav_EC2/DepthDuration/v2_depth_duration_MTurk/v2_DepthDuration_HTML.html#182,182,1366,768,1366,768,9-3-2022,10-58-4,109,depth_duration_stimuli/001571_2014-06-20_17-21-32_260595134347_rgbf000089-resize_1/001571_2014-06-20_17-21-32_260595134347_rgbf000089-resize_1-target.png,125,1.86,32,10399,124,meters,jsons/VE125_randls_44.json,1024146,1324153,39,Woman
109,832487,DepthScenes,duration_manipulation_targetAtFixation,jsons/VE125_randls_44.json,http://54.235.29.9/FacialAge/BNav_EC2/DepthDuration/v2_depth_duration_MTurk/v2_DepthDuration_HTML.html#182,182,1366,768,1366,768,9-3-2022,10-58-4,110,depth_duration_stimuli/002788_2014-06-22_19-36-03_094959634447_rgbf000088-resize_2/002788_2014-06-22_19-36-03_094959634447_rgbf000088-resize_2-target.png,125,1.6465,48,7361,126,meters,jsons/VE125_randls_44.json,1024146,1324153,39,Woman
110,832487,DepthScenes,duration_manipulation_targetAtFixation,jsons/VE125_randls_44.json,http://54.235.29.9/FacialAge/BNav_EC2/DepthDuration/v2_depth_duration_MTurk/v2_DepthDuration_HTML.html#182,182,1366,768,1366,768,9-3-2022,10-58-4,111,depth_duration_stimuli/000749_2014-06-08_21-55-06_260595134347_rgbf000070-resize_2/000749_2014-06-08_21-55-06_260595134347_rgbf000070-resize_2-target.png,125,2.331,60,5358,125,meters,jsons/VE125_randls_44.json,1024146,1324153,39,Woman
111,832487,DepthScenes,duration_manipulation_targetAtFixation,jsons/VE125_randls_44.json,http://54.235.29.9/FacialAge/BNav_EC2/DepthDuration/v2_depth_duration_MTurk/v2_DepthDuration_HTML.html#182,182,1366,768,1366,768,9-3-2022,10-58-4,112,depth_duration_stimuli/001244_2014-06-17_16-47-45_260595134347_rgbf000030-resize_4/001244_2014-06-17_16-47-45_260595134347_rgbf000030-resize_4-target.png,125,2.0425,44,5399,125,meters,jsons/VE125_randls_44.json,1024146,1324153,39,Woman
112,832487,DepthScenes,duration_manipulation_targetAtFixation,jsons/VE125_randls_44.json,http://54.235.29.9/FacialAge/BNav_EC2/DepthDuration/v2_depth_duration_MTurk/v2_DepthDuration_HTML.html#182,182,1366,768,1366,768,9-3-2022,10-58-4,113,depth_duration_stimuli/003495_2014-05-21_16-01-51_094959634447_rgbf000100-resize_3/003495_2014-05-21_16-01-51_094959634447_rgbf000100-resize_3-target.png,125,1.6255,43,3281,126,meters,jsons/VE125_randls_44.json,1024146,1324153,39,Woman
113,832487,DepthScenes,duration_manipulation_targetAtFixation,jsons/VE125_randls_44.json,http://54.235.29.9/FacialAge/BNav_EC2/DepthDuration/v2_depth_duration_MTurk/v2_DepthDuration_HTML.html#182,182,1366,768,1366,768,9-3-2022,10-58-4,114,depth_duration_stimuli/000906_2014-06-08_13-35-43_260595134347_rgbf000155-resize_1/000906_2014-06-08_13-35-43_260595134347_rgbf000155-resize_1-target.png,125,2.8489999999999998,39,6688,124,meters,jsons/VE125_randls_44.json,1024146,1324153,39,Woman
114,832487,DepthScenes,duration_manipulation_targetAtFixation,jsons/VE125_randls_44.json,http://54.235.29.9/FacialAge/BNav_EC2/DepthDuration/v2_depth_duration_MTurk/v2_DepthDuration_HTML.html#182,182,1366,768,1366,768,9-3-2022,10-58-4,115,depth_duration_stimuli/002805_2014-06-22_19-54-03_094959634447_rgbf000079-resize_1/002805_2014-06-22_19-54-03_094959634447_rgbf000079-resize_1-target.png,125,3.1439999999999997,56,4922,124,meters,jsons/VE125_randls_44.json,1024146,1324153,39,Woman
115,832487,DepthScenes,duration_manipulation_targetAtFixation,jsons/VE125_randls_44.json,http://54.235.29.9/FacialAge/BNav_EC2/DepthDuration/v2_depth_duration_MTurk/v2_DepthDuration_HTML.html#182,182,1366,768,1366,768,9-3-2022,10-58-4,116,depth_duration_stimuli/001170_2014-06-17_15-43-44_260595134347_rgbf000096-resize_6/001170_2014-06-17_15-43-44_260595134347_rgbf000096-resize-original.jpg,125,1.1909999999999998,0,5896,123,meters,jsons/VE125_randls_44.json,1024146,1324153,39,Woman
116,832487,DepthScenes,duration_manipulation_targetAtFixation,jsons/VE125_randls_44.json,http://54.235.29.9/FacialAge/BNav_EC2/DepthDuration/v2_depth_duration_MTurk/v2_DepthDuration_HTML.html#182,182,1366,768,1366,768,9-3-2022,10-58-4,117,depth_duration_stimuli/000414_2014-06-04_19-49-13_260595134347_rgbf000044-resize_0/000414_2014-06-04_19-49-13_260595134347_rgbf000044-resize_0-target.png,125,4.329,60,6999,126,meters,jsons/VE125_randls_44.json,1024146,1324153,39,Woman
117,832487,DepthScenes,duration_manipulation_targetAtFixation,jsons/VE125_randls_44.json,http://54.235.29.9/FacialAge/BNav_EC2/DepthDuration/v2_depth_duration_MTurk/v2_DepthDuration_HTML.html#182,182,1366,768,1366,768,9-3-2022,10-58-4,118,depth_duration_stimuli/003129_2014-05-12_10-48-10_094959634447_rgbf000100-resize_0/003129_2014-05-12_10-48-10_094959634447_rgbf000100-resize_0-target.png,125,4.9305,57,6239,124,meters,jsons/VE125_randls_44.json,1024146,1324153,39,Woman
118,832487,DepthScenes,duration_manipulation_targetAtFixation,jsons/VE125_randls_44.json,http://54.235.29.9/FacialAge/BNav_EC2/DepthDuration/v2_depth_duration_MTurk/v2_DepthDuration_HTML.html#182,182,1366,768,1366,768,9-3-2022,10-58-4,119,depth_duration_stimuli/002763_2014-06-22_19-13-10_094959634447_rgbf000075-resize_4/002763_2014-06-22_19-13-10_094959634447_rgbf000075-resize_4-target.png,125,1.68375,36,8788,124,meters,jsons/VE125_randls_44.json,1024146,1324153,39,Woman
119,832487,DepthScenes,duration_manipulation_targetAtFixation,jsons/VE125_randls_44.json,http://54.235.29.9/FacialAge/BNav_EC2/DepthDuration/v2_depth_duration_MTurk/v2_DepthDuration_HTML.html#182,182,1366,768,1366,768,9-3-2022,10-58-4,120,depth_duration_stimuli/002209_2014-06-28_18-36-10_260595134347_rgbf000051-resize_1/002209_2014-06-28_18-36-10_260595134347_rgbf000051-resize_1-target.png,125,2.057,33,4799,123,meters,jsons/VE125_randls_44.json,1024146,1324153,39,Woman
120,832487,DepthScenes,duration_manipulation_targetAtFixation,jsons/VE125_randls_44.json,http://54.235.29.9/FacialAge/BNav_EC2/DepthDuration/v2_depth_duration_MTurk/v2_DepthDuration_HTML.html#182,182,1366,768,1366,768,9-3-2022,10-58-4,121,depth_duration_stimuli/000436_2014-06-09_22-25-11_260595134347_rgbf000137-resize_1/000436_2014-06-09_22-25-11_260595134347_rgbf000137-resize_1-target.png,125,4.0705,56,10900,123,meters,jsons/VE125_randls_44.json,1024146,1324153,39,Woman
121,832487,DepthScenes,duration_manipulation_targetAtFixation,jsons/VE125_randls_44.json,http://54.235.29.9/FacialAge/BNav_EC2/DepthDuration/v2_depth_duration_MTurk/v2_DepthDuration_HTML.html#182,182,1366,768,1366,768,9-3-2022,10-58-4,122,depth_duration_stimuli/002444_2014-06-28_20-32-08_260595134347_rgbf000027-resize_0/002444_2014-06-28_20-32-08_260595134347_rgbf000027-resize_0-target.png,125,4.388999999999999,65,6257,124,meters,jsons/VE125_randls_44.json,1024146,1324153,39,Woman
122,832487,DepthScenes,duration_manipulation_targetAtFixation,jsons/VE125_randls_44.json,http://54.235.29.9/FacialAge/BNav_EC2/DepthDuration/v2_depth_duration_MTurk/v2_DepthDuration_HTML.html#182,182,1366,768,1366,768,9-3-2022,10-58-4,123,depth_duration_stimuli/001029_2014-06-08_13-17-57_260595134347_rgbf000065-resize_1/001029_2014-06-08_13-17-57_260595134347_rgbf000065-resize_1-target.png,125,3.0835,54,9409,123,meters,jsons/VE125_randls_44.json,1024146,1324153,39,Woman
123,832487,DepthScenes,duration_manipulation_targetAtFixation,jsons/VE125_randls_44.json,http://54.235.29.9/FacialAge/BNav_EC2/DepthDuration/v2_depth_duration_MTurk/v2_DepthDuration_HTML.html#182,182,1366,768,1366,768,9-3-2022,10-58-4,124,depth_duration_stimuli/000677_2014-06-08_23-10-32_260595134347_rgbf000158-resize_6/000677_2014-06-08_23-10-32_260595134347_rgbf000158-resize_6-target.png,125,3.556,45,4729,125,meters,jsons/VE125_randls_44.json,1024146,1324153,39,Woman
124,832487,DepthScenes,duration_manipulation_targetAtFixation,jsons/VE125_randls_44.json,http://54.235.29.9/FacialAge/BNav_EC2/DepthDuration/v2_depth_duration_MTurk/v2_DepthDuration_HTML.html#182,182,1366,768,1366,768,9-3-2022,10-58-4,125,depth_duration_stimuli/001059_2014-06-08_21-53-27_260595134347_rgbf000061-resize_4/001059_2014-06-08_21-53-27_260595134347_rgbf000061-resize_4-target.png,125,2.4185,44,10437,124,meters,jsons/VE125_randls_44.json,1024146,1324153,39,Woman
125,832487,DepthScenes,duration_manipulation_targetAtFixation,jsons/VE125_randls_44.json,http://54.235.29.9/FacialAge/BNav_EC2/DepthDuration/v2_depth_duration_MTurk/v2_DepthDuration_HTML.html#182,182,1366,768,1366,768,9-3-2022,10-58-4,126,depth_duration_stimuli/001032_2014-06-08_13-23-17_260595134347_rgbf000021-resize_3/001032_2014-06-08_13-23-17_260595134347_rgbf000021-resize_3-target.png,125,3.2725,38,4369,125,meters,jsons/VE125_randls_44.json,1024146,1324153,39,Woman
126,832487,DepthScenes,duration_manipulation_targetAtFixation,jsons/VE125_randls_44.json,http://54.235.29.9/FacialAge/BNav_EC2/DepthDuration/v2_depth_duration_MTurk/v2_DepthDuration_HTML.html#182,182,1366,768,1366,768,9-3-2022,10-58-4,127,depth_duration_stimuli/002964_2014-06-08_17-46-11_094959634447_rgbf000091-resize_4/002964_2014-06-08_17-46-11_094959634447_rgbf000091-resize_4-target.png,125,1.6909999999999998,25,8523,126,meters,jsons/VE125_randls_44.json,1024146,1324153,39,Woman
127,832487,DepthScenes,duration_manipulation_targetAtFixation,jsons/VE125_randls_44.json,http://54.235.29.9/FacialAge/BNav_EC2/DepthDuration/v2_depth_duration_MTurk/v2_DepthDuration_HTML.html#182,182,1366,768,1366,768,9-3-2022,10-58-4,128,depth_duration_stimuli/002136_2014-06-25_21-18-03_260595134347_rgbf000109-resize_3/002136_2014-06-25_21-18-03_260595134347_rgbf000109-resize_3-target.png,125,1.9569999999999999,26,5048,124,meters,jsons/VE125_randls_44.json,1024146,1324153,39,Woman
128,832487,DepthScenes,duration_manipulation_targetAtFixation,jsons/VE125_randls_44.json,http://54.235.29.9/FacialAge/BNav_EC2/DepthDuration/v2_depth_duration_MTurk/v2_DepthDuration_HTML.html#182,182,1366,768,1366,768,9-3-2022,10-58-4,129,depth_duration_stimuli/001011_2014-06-08_23-18-54_260595134347_rgbf000044-resize_4/001011_2014-06-08_23-18-54_260595134347_rgbf000044-resize_4-target.png,125,2.4730000000000003,46,11160,125,meters,jsons/VE125_randls_44.json,1024146,1324153,39,Woman
129,832487,DepthScenes,duration_manipulation_targetAtFixation,jsons/VE125_randls_44.json,http://54.235.29.9/FacialAge/BNav_EC2/DepthDuration/v2_depth_duration_MTurk/v2_DepthDuration_HTML.html#182,182,1366,768,1366,768,9-3-2022,10-58-4,130,depth_duration_stimuli/002875_2014-06-01_15-19-00_094959634447_rgbf000151-resize_1/002875_2014-06-01_15-19-00_094959634447_rgbf000151-resize_1-target.png,125,1.9675,35,5207,124,meters,jsons/VE125_randls_44.json,1024146,1324153,39,Woman
130,832487,DepthScenes,duration_manipulation_targetAtFixation,jsons/VE125_randls_44.json,http://54.235.29.9/FacialAge/BNav_EC2/DepthDuration/v2_depth_duration_MTurk/v2_DepthDuration_HTML.html#182,182,1366,768,1366,768,9-3-2022,10-58-4,131,depth_duration_stimuli/001055_2014-06-08_18-45-35_260595134347_rgbf000111-resize_4/001055_2014-06-08_18-45-35_260595134347_rgbf000111-resize_4-target.png,125,2.4290000000000003,57,6481,124,meters,jsons/VE125_randls_44.json,1024146,1324153,39,Woman
131,832487,DepthScenes,duration_manipulation_targetAtFixation,jsons/VE125_randls_44.json,http://54.235.29.9/FacialAge/BNav_EC2/DepthDuration/v2_depth_duration_MTurk/v2_DepthDuration_HTML.html#182,182,1366,768,1366,768,9-3-2022,10-58-4,132,depth_duration_stimuli/000549_2014-06-08_22-10-24_260595134347_rgbf000247-resize_3/000549_2014-06-08_22-10-24_260595134347_rgbf000247-resize_3-target.png,125,1.841,33,3768,125,meters,jsons/VE125_randls_44.json,1024146,1324153,39,Woman
132,832487,DepthScenes,duration_manipulation_targetAtFixation,jsons/VE125_randls_44.json,http://54.235.29.9/FacialAge/BNav_EC2/DepthDuration/v2_depth_duration_MTurk/v2_DepthDuration_HTML.html#182,182,1366,768,1366,768,9-3-2022,10-58-4,133,depth_duration_stimuli/001449_2014-06-19_17-01-27_260595134347_rgbf000116-resize_2/001449_2014-06-19_17-01-27_260595134347_rgbf000116-resize_2-target.png,125,3.452,43,7158,126,meters,jsons/VE125_randls_44.json,1024146,1324153,39,Woman
133,832487,DepthScenes,duration_manipulation_targetAtFixation,jsons/VE125_randls_44.json,http://54.235.29.9/FacialAge/BNav_EC2/DepthDuration/v2_depth_duration_MTurk/v2_DepthDuration_HTML.html#182,182,1366,768,1366,768,9-3-2022,10-58-4,134,depth_duration_stimuli/001450_2014-06-19_17-02-03_260595134347_rgbf000203-resize_4/001450_2014-06-19_17-02-03_260595134347_rgbf000203-resize_4-target.png,125,4.0106666666667,49,3717,124,meters,jsons/VE125_randls_44.json,1024146,1324153,39,Woman
134,832487,DepthScenes,duration_manipulation_targetAtFixation,jsons/VE125_randls_44.json,http://54.235.29.9/FacialAge/BNav_EC2/DepthDuration/v2_depth_duration_MTurk/v2_DepthDuration_HTML.html#182,182,1366,768,1366,768,9-3-2022,10-58-4,135,depth_duration_stimuli/002072_2014-06-24_21-48-06_260595134347_rgbf000115-resize_0/002072_2014-06-24_21-48-06_260595134347_rgbf000115-resize-original.jpg,125,4.702,0,4849,124,meters,jsons/VE125_randls_44.json,1024146,1324153,39,Woman
135,832487,DepthScenes,duration_manipulation_targetAtFixation,jsons/VE125_randls_44.json,http://54.235.29.9/FacialAge/BNav_EC2/DepthDuration/v2_depth_duration_MTurk/v2_DepthDuration_HTML.html#182,182,1366,768,1366,768,9-3-2022,10-58-4,136,depth_duration_stimuli/000493_2014-06-09_21-01-18_260595134347_rgbf000196-resize_3/000493_2014-06-09_21-01-18_260595134347_rgbf000196-resize_3-target.png,125,3.44,39,5868,125,meters,jsons/VE125_randls_44.json,1024146,1324153,39,Woman
136,832487,DepthScenes,duration_manipulation_targetAtFixation,jsons/VE125_randls_44.json,http://54.235.29.9/FacialAge/BNav_EC2/DepthDuration/v2_depth_duration_MTurk/v2_DepthDuration_HTML.html#182,182,1366,768,1366,768,9-3-2022,10-58-4,137,depth_duration_stimuli/000191_2014-05-12_17-07-38_260595134347_rgbf000199-resize_0/000191_2014-05-12_17-07-38_260595134347_rgbf000199-resize_0-target.png,125,3.7995,40,4441,123,meters,jsons/VE125_randls_44.json,1024146,1324153,39,Woman
137,832487,DepthScenes,duration_manipulation_targetAtFixation,jsons/VE125_randls_44.json,http://54.235.29.9/FacialAge/BNav_EC2/DepthDuration/v2_depth_duration_MTurk/v2_DepthDuration_HTML.html#182,182,1366,768,1366,768,9-3-2022,10-58-4,138,depth_duration_stimuli/002057_2014-06-24_21-00-13_260595134347_rgbf000120-resize_1/002057_2014-06-24_21-00-13_260595134347_rgbf000120-resize_1-target.png,125,2.967,55,6736,124,meters,jsons/VE125_randls_44.json,1024146,1324153,39,Woman
138,832487,DepthScenes,duration_manipulation_targetAtFixation,jsons/VE125_randls_44.json,http://54.235.29.9/FacialAge/BNav_EC2/DepthDuration/v2_depth_duration_MTurk/v2_DepthDuration_HTML.html#182,182,1366,768,1366,768,9-3-2022,10-58-4,139,depth_duration_stimuli/000709_2014-06-08_13-51-55_260595134347_rgbf000068-resize_3/000709_2014-06-08_13-51-55_260595134347_rgbf000068-resize_3-target.png,125,1.8030000000000002,31,8509,125,meters,jsons/VE125_randls_44.json,1024146,1324153,39,Woman
139,832487,DepthScenes,duration_manipulation_targetAtFixation,jsons/VE125_randls_44.json,http://54.235.29.9/FacialAge/BNav_EC2/DepthDuration/v2_depth_duration_MTurk/v2_DepthDuration_HTML.html#182,182,1366,768,1366,768,9-3-2022,10-58-4,140,depth_duration_stimuli/000788_2014-06-08_22-34-36_260595134347_rgbf000131-resize_1/000788_2014-06-08_22-34-36_260595134347_rgbf000131-resize_1-target.png,125,3.359,41,9667,124,meters,jsons/VE125_randls_44.json,1024146,1324153,39,Woman
140,832487,DepthScenes,duration_manipulation_targetAtFixation,jsons/VE125_randls_44.json,http://54.235.29.9/FacialAge/BNav_EC2/DepthDuration/v2_depth_duration_MTurk/v2_DepthDuration_HTML.html#182,182,1366,768,1366,768,9-3-2022,10-58-4,141,depth_duration_stimuli/001235_2014-06-17_16-37-36_260595134347_rgbf000084-resize_4/001235_2014-06-17_16-37-36_260595134347_rgbf000084-resize_4-target.png,125,3.6605,58,6268,124,meters,jsons/VE125_randls_44.json,1024146,1324153,39,Woman
141,832487,DepthScenes,duration_manipulation_targetAtFixation,jsons/VE125_randls_44.json,http://54.235.29.9/FacialAge/BNav_EC2/DepthDuration/v2_depth_duration_MTurk/v2_DepthDuration_HTML.html#182,182,1366,768,1366,768,9-3-2022,10-58-4,142,depth_duration_stimuli/000758_2014-06-08_22-05-08_260595134347_rgbf000085-resize_0/000758_2014-06-08_22-05-08_260595134347_rgbf000085-resize_0-target.png,125,3.3810000000000002,61,5050,126,meters,jsons/VE125_randls_44.json,1024146,1324153,39,Woman
142,832487,DepthScenes,duration_manipulation_targetAtFixation,jsons/VE125_randls_44.json,http://54.235.29.9/FacialAge/BNav_EC2/DepthDuration/v2_depth_duration_MTurk/v2_DepthDuration_HTML.html#182,182,1366,768,1366,768,9-3-2022,10-58-4,143,depth_duration_stimuli/000854_2014-06-09_19-43-13_260595134347_rgbf000066-resize_0/000854_2014-06-09_19-43-13_260595134347_rgbf000066-resize_0-target.png,125,3.068,34,4289,125,meters,jsons/VE125_randls_44.json,1024146,1324153,39,Woman
143,832487,DepthScenes,duration_manipulation_targetAtFixation,jsons/VE125_randls_44.json,http://54.235.29.9/FacialAge/BNav_EC2/DepthDuration/v2_depth_duration_MTurk/v2_DepthDuration_HTML.html#182,182,1366,768,1366,768,9-3-2022,10-58-4,144,depth_duration_stimuli/003492_2014-05-21_15-50-55_094959634447_rgbf000828-resize_1/003492_2014-05-21_15-50-55_094959634447_rgbf000828-resize_1-target.png,125,4.06875,57,8349,125,meters,jsons/VE125_randls_44.json,1024146,1324153,39,Woman
144,832487,DepthScenes,duration_manipulation_targetAtFixation,jsons/VE125_randls_44.json,http://54.235.29.9/FacialAge/BNav_EC2/DepthDuration/v2_depth_duration_MTurk/v2_DepthDuration_HTML.html#182,182,1366,768,1366,768,9-3-2022,10-58-4,145,depth_duration_stimuli/002568_2014-06-24_13-59-21_094959634447_rgbf000062-resize_4/002568_2014-06-24_13-59-21_094959634447_rgbf000062-resize_4-target.png,125,3.015,46,4720,123,meters,jsons/VE125_randls_44.json,1024146,1324153,39,Woman
145,832487,DepthScenes,duration_manipulation_targetAtFixation,jsons/VE125_randls_44.json,http://54.235.29.9/FacialAge/BNav_EC2/DepthDuration/v2_depth_duration_MTurk/v2_DepthDuration_HTML.html#182,182,1366,768,1366,768,9-3-2022,10-58-4,146,depth_duration_stimuli/001498_2014-06-19_17-45-14_260595134347_rgbf000129-resize_4/001498_2014-06-19_17-45-14_260595134347_rgbf000129-resize-original.jpg,125,1.4075,0,6036,125,meters,jsons/VE125_randls_44.json,1024146,1324153,39,Woman
146,832487,DepthScenes,duration_manipulation_targetAtFixation,jsons/VE125_randls_44.json,http://54.235.29.9/FacialAge/BNav_EC2/DepthDuration/v2_depth_duration_MTurk/v2_DepthDuration_HTML.html#182,182,1366,768,1366,768,9-3-2022,10-58-4,147,depth_duration_stimuli/002748_2014-06-22_19-07-22_094959634447_rgbf000078-resize_1/002748_2014-06-22_19-07-22_094959634447_rgbf000078-resize_1-target.png,125,4.6705,61,5472,125,meters,jsons/VE125_randls_44.json,1024146,1324153,39,Woman
147,832487,DepthScenes,duration_manipulation_targetAtFixation,jsons/VE125_randls_44.json,http://54.235.29.9/FacialAge/BNav_EC2/DepthDuration/v2_depth_duration_MTurk/v2_DepthDuration_HTML.html#182,182,1366,768,1366,768,9-3-2022,10-58-4,148,depth_duration_stimuli/002995_2014-06-15_12-31-26_094959634447_rgbf000150-resize_1/002995_2014-06-15_12-31-26_094959634447_rgbf000150-resize_1-target.png,125,3.8360000000000003,57,3518,124,meters,jsons/VE125_randls_44.json,1024146,1324153,39,Woman
148,832487,DepthScenes,duration_manipulation_targetAtFixation,jsons/VE125_randls_44.json,http://54.235.29.9/FacialAge/BNav_EC2/DepthDuration/v2_depth_duration_MTurk/v2_DepthDuration_HTML.html#182,182,1366,768,1366,768,9-3-2022,10-58-4,149,depth_duration_stimuli/003292_2014-05-14_21-53-49_094959634447_rgbf000100-resize_2/003292_2014-05-14_21-53-49_094959634447_rgbf000100-resize_2-target.png,125,3.4815,45,4099,124,meters,jsons/VE125_randls_44.json,1024146,1324153,39,Woman
149,832487,DepthScenes,duration_manipulation_targetAtFixation,jsons/VE125_randls_44.json,http://54.235.29.9/FacialAge/BNav_EC2/DepthDuration/v2_depth_duration_MTurk/v2_DepthDuration_HTML.html#182,182,1366,768,1366,768,9-3-2022,10-58-4,150,depth_duration_stimuli/002639_2014-06-24_14-51-37_094959634447_rgbf000074-resize_4/002639_2014-06-24_14-51-37_094959634447_rgbf000074-resize_4-target.png,125,4.0375,56,2988,124,meters,jsons/VE125_randls_44.json,1024146,1324153,39,Woman
150,832487,DepthScenes,duration_manipulation_targetAtFixation,jsons/VE125_randls_44.json,http://54.235.29.9/FacialAge/BNav_EC2/DepthDuration/v2_depth_duration_MTurk/v2_DepthDuration_HTML.html#182,182,1366,768,1366,768,9-3-2022,10-58-4,151,depth_duration_stimuli/001555_2014-06-20_17-12-10_260595134347_rgbf000065-resize_4/001555_2014-06-20_17-12-10_260595134347_rgbf000065-resize_4-target.png,125,1.633,26,4526,125,meters,jsons/VE125_randls_44.json,1024146,1324153,39,Woman
151,832487,DepthScenes,duration_manipulation_targetAtFixation,jsons/VE125_randls_44.json,http://54.235.29.9/FacialAge/BNav_EC2/DepthDuration/v2_depth_duration_MTurk/v2_DepthDuration_HTML.html#182,182,1366,768,1366,768,9-3-2022,10-58-4,152,depth_duration_stimuli/000103_2014-05-14_22-01-17_260595134347_rgbf000152-resize_5/000103_2014-05-14_22-01-17_260595134347_rgbf000152-resize_5-target.png,125,1.993,36,3227,123,meters,jsons/VE125_randls_44.json,1024146,1324153,39,Woman
152,832487,DepthScenes,duration_manipulation_targetAtFixation,jsons/VE125_randls_44.json,http://54.235.29.9/FacialAge/BNav_EC2/DepthDuration/v2_depth_duration_MTurk/v2_DepthDuration_HTML.html#182,182,1366,768,1366,768,9-3-2022,10-58-4,153,depth_duration_stimuli/002600_2014-06-24_14-27-04_094959634447_rgbf000074-resize_2/002600_2014-06-24_14-27-04_094959634447_rgbf000074-resize_2-target.png,125,2.7575,47,5661,125,meters,jsons/VE125_randls_44.json,1024146,1324153,39,Woman
153,832487,DepthScenes,duration_manipulation_targetAtFixation,jsons/VE125_randls_44.json,http://54.235.29.9/FacialAge/BNav_EC2/DepthDuration/v2_depth_duration_MTurk/v2_DepthDuration_HTML.html#182,182,1366,768,1366,768,9-3-2022,10-58-4,154,depth_duration_stimuli/003228_2014-05-14_13-42-35_094959634447_rgbf000101-resize_1/003228_2014-05-14_13-42-35_094959634447_rgbf000101-resize_1-target.png,125,1.9680000000000002,33,5849,124,meters,jsons/VE125_randls_44.json,1024146,1324153,39,Woman
154,832487,DepthScenes,duration_manipulation_targetAtFixation,jsons/VE125_randls_44.json,http://54.235.29.9/FacialAge/BNav_EC2/DepthDuration/v2_depth_duration_MTurk/v2_DepthDuration_HTML.html#182,182,1366,768,1366,768,9-3-2022,10-58-4,155,depth_duration_stimuli/000486_2014-06-09_20-47-20_260595134347_rgbf000143-resize_2/000486_2014-06-09_20-47-20_260595134347_rgbf000143-resize_2-target.png,125,4.8325,35,3908,124,meters,jsons/VE125_randls_44.json,1024146,1324153,39,Woman
155,832487,DepthScenes,duration_manipulation_targetAtFixation,jsons/VE125_randls_44.json,http://54.235.29.9/FacialAge/BNav_EC2/DepthDuration/v2_depth_duration_MTurk/v2_DepthDuration_HTML.html#182,182,1366,768,1366,768,9-3-2022,10-58-4,156,depth_duration_stimuli/003083_2014-06-15_15-21-03_094959634447_rgbf000063-resize_1/003083_2014-06-15_15-21-03_094959634447_rgbf000063-resize_1-target.png,125,4.1405,43,3918,123,meters,jsons/VE125_randls_44.json,1024146,1324153,39,Woman
156,832487,DepthScenes,duration_manipulation_targetAtFixation,jsons/VE125_randls_44.json,http://54.235.29.9/FacialAge/BNav_EC2/DepthDuration/v2_depth_duration_MTurk/v2_DepthDuration_HTML.html#182,182,1366,768,1366,768,9-3-2022,10-58-4,157,depth_duration_stimuli/000506_2014-06-08_23-21-00_260595134347_rgbf000070-resize_7/000506_2014-06-08_23-21-00_260595134347_rgbf000070-resize_7-target.png,125,4.0585,45,4023,96,meters,jsons/VE125_randls_44.json,1024146,1324153,39,Woman
157,832487,DepthScenes,duration_manipulation_targetAtFixation,jsons/VE125_randls_44.json,http://54.235.29.9/FacialAge/BNav_EC2/DepthDuration/v2_depth_duration_MTurk/v2_DepthDuration_HTML.html#182,182,1366,768,1366,768,9-3-2022,10-58-4,158,depth_duration_stimuli/003079_2014-06-15_15-18-20_094959634447_rgbf000152-resize_8/003079_2014-06-15_15-18-20_094959634447_rgbf000152-resize_8-target.png,125,2.8775,63,6246,124,meters,jsons/VE125_randls_44.json,1024146,1324153,39,Woman
158,832487,DepthScenes,duration_manipulation_targetAtFixation,jsons/VE125_randls_44.json,http://54.235.29.9/FacialAge/BNav_EC2/DepthDuration/v2_depth_duration_MTurk/v2_DepthDuration_HTML.html#182,182,1366,768,1366,768,9-3-2022,10-58-4,159,depth_duration_stimuli/000368_2014-06-09_15-53-01_260595134347_rgbf000155-resize_2/000368_2014-06-09_15-53-01_260595134347_rgbf000155-resize_2-target.png,125,2.4859999999999998,34,4030,126,meters,jsons/VE125_randls_44.json,1024146,1324153,39,Woman
159,832487,DepthScenes,duration_manipulation_targetAtFixation,jsons/VE125_randls_44.json,http://54.235.29.9/FacialAge/BNav_EC2/DepthDuration/v2_depth_duration_MTurk/v2_DepthDuration_HTML.html#182,182,1366,768,1366,768,9-3-2022,10-58-4,160,depth_duration_stimuli/002678_2014-06-13_16-15-32_094959634447_rgbf000151-resize_6/002678_2014-06-13_16-15-32_094959634447_rgbf000151-resize_6-target.png,125,2.1830000000000003,36,2616,124,meters,jsons/VE125_randls_44.json,1024146,1324153,39,Woman
160,832487,DepthScenes,duration_manipulation_targetAtFixation,jsons/VE125_randls_44.json,http://54.235.29.9/FacialAge/BNav_EC2/DepthDuration/v2_depth_duration_MTurk/v2_DepthDuration_HTML.html#182,182,1366,768,1366,768,9-3-2022,10-58-4,161,depth_duration_stimuli/002153_2014-06-25_21-27-18_260595134347_rgbf000038-resize_5/002153_2014-06-25_21-27-18_260595134347_rgbf000038-resize_5-target.png,125,2.505,41,3341,125,meters,jsons/VE125_randls_44.json,1024146,1324153,39,Woman
161,832487,DepthScenes,duration_manipulation_targetAtFixation,jsons/VE125_randls_44.json,http://54.235.29.9/FacialAge/BNav_EC2/DepthDuration/v2_depth_duration_MTurk/v2_DepthDuration_HTML.html#182,182,1366,768,1366,768,9-3-2022,10-58-4,162,depth_duration_stimuli/002660_2014-06-13_15-44-18_094959634447_rgbf001878-resize_2/002660_2014-06-13_15-44-18_094959634447_rgbf001878-resize_2-target.png,125,3.576,26,3429,124,meters,jsons/VE125_randls_44.json,1024146,1324153,39,Woman
162,832487,DepthScenes,duration_manipulation_targetAtFixation,jsons/VE125_randls_44.json,http://54.235.29.9/FacialAge/BNav_EC2/DepthDuration/v2_depth_duration_MTurk/v2_DepthDuration_HTML.html#182,182,1366,768,1366,768,9-3-2022,10-58-4,163,depth_duration_stimuli/001570_2014-06-20_17-21-09_260595134347_rgbf000135-resize_4/001570_2014-06-20_17-21-09_260595134347_rgbf000135-resize_4-target.png,125,4.467,62,4559,124,meters,jsons/VE125_randls_44.json,1024146,1324153,39,Woman
163,832487,DepthScenes,duration_manipulation_targetAtFixation,jsons/VE125_randls_44.json,http://54.235.29.9/FacialAge/BNav_EC2/DepthDuration/v2_depth_duration_MTurk/v2_DepthDuration_HTML.html#182,182,1366,768,1366,768,9-3-2022,10-58-4,164,depth_duration_stimuli/001392_2014-06-19_16-07-59_260595134347_rgbf000046-resize_1/001392_2014-06-19_16-07-59_260595134347_rgbf000046-resize_1-target.png,125,4.135,29,4348,124,meters,jsons/VE125_randls_44.json,1024146,1324153,39,Woman
