,subjID,experimentName,versionName,sequenceName,url,selected_row,windowWidth,windowHeight,screenWidth,screenHeight,startDate,startTime,trial,stimulus,duration,actual_depth,depth_estimate,trial_RT,log_sceneDuration,unitSelection,seq_filepath,experimentTime,totalTime,age,gender
0,834029,DepthScenes,duration_manipulation_targetAtFixation,jsons/v1_VE250_randls_2_rotated.json,http://54.235.29.9/FacialAge/BNav_EC2/DepthDuration/v2_depth_duration_MTurk/v2_DepthDuration_HTML.html#27,27,1280,921,1280,1024,8-20-2022,9-19-58,1,depth_duration_stimuli/002209_2014-06-28_18-36-10_260595134347_rgbf000051-resize_1/002209_2014-06-28_18-36-10_260595134347_rgbf000051-resize_1-target.png,250,2.057,5,4293,239,feet,jsons/v1_VE250_randls_2_rotated.json,1113756,1412273,57,Man
1,834029,DepthScenes,duration_manipulation_targetAtFixation,jsons/v1_VE250_randls_2_rotated.json,http://54.235.29.9/FacialAge/BNav_EC2/DepthDuration/v2_depth_duration_MTurk/v2_DepthDuration_HTML.html#27,27,1280,921,1280,1024,8-20-2022,9-19-58,2,depth_duration_stimuli/002763_2014-06-22_19-13-10_094959634447_rgbf000075-resize_4/002763_2014-06-22_19-13-10_094959634447_rgbf000075-resize_4-target.png,250,1.68375,5,4480,241,feet,jsons/v1_VE250_randls_2_rotated.json,1113756,1412273,57,Man
2,834029,DepthScenes,duration_manipulation_targetAtFixation,jsons/v1_VE250_randls_2_rotated.json,http://54.235.29.9/FacialAge/BNav_EC2/DepthDuration/v2_depth_duration_MTurk/v2_DepthDuration_HTML.html#27,27,1280,921,1280,1024,8-20-2022,9-19-58,3,depth_duration_stimuli/000780_2014-06-08_22-28-29_260595134347_rgbf000126-resize_1/000780_2014-06-08_22-28-29_260595134347_rgbf000126-resize_1-target.png,250,3.3825,12,5561,241,feet,jsons/v1_VE250_randls_2_rotated.json,1113756,1412273,57,Man
3,834029,DepthScenes,duration_manipulation_targetAtFixation,jsons/v1_VE250_randls_2_rotated.json,http://54.235.29.9/FacialAge/BNav_EC2/DepthDuration/v2_depth_duration_MTurk/v2_DepthDuration_HTML.html#27,27,1280,921,1280,1024,8-20-2022,9-19-58,4,depth_duration_stimuli/002445_2014-06-28_20-32-16_260595134347_rgbf000029-resize_4/002445_2014-06-28_20-32-16_260595134347_rgbf000029-resize_4-target.png,250,2.5315,6,5696,249,feet,jsons/v1_VE250_randls_2_rotated.json,1113756,1412273,57,Man
4,834029,DepthScenes,duration_manipulation_targetAtFixation,jsons/v1_VE250_randls_2_rotated.json,http://54.235.29.9/FacialAge/BNav_EC2/DepthDuration/v2_depth_duration_MTurk/v2_DepthDuration_HTML.html#27,27,1280,921,1280,1024,8-20-2022,9-19-58,5,depth_duration_stimuli/002805_2014-06-22_19-54-03_094959634447_rgbf000079-resize_1/002805_2014-06-22_19-54-03_094959634447_rgbf000079-resize_1-target.png,250,3.1439999999999997,15,6118,240,feet,jsons/v1_VE250_randls_2_rotated.json,1113756,1412273,57,Man
5,834029,DepthScenes,duration_manipulation_targetAtFixation,jsons/v1_VE250_randls_2_rotated.json,http://54.235.29.9/FacialAge/BNav_EC2/DepthDuration/v2_depth_duration_MTurk/v2_DepthDuration_HTML.html#27,27,1280,921,1280,1024,8-20-2022,9-19-58,6,depth_duration_stimuli/000906_2014-06-08_13-35-43_260595134347_rgbf000155-resize_1/000906_2014-06-08_13-35-43_260595134347_rgbf000155-resize_1-target.png,250,2.8489999999999998,12,6481,249,feet,jsons/v1_VE250_randls_2_rotated.json,1113756,1412273,57,Man
6,834029,DepthScenes,duration_manipulation_targetAtFixation,jsons/v1_VE250_randls_2_rotated.json,http://54.235.29.9/FacialAge/BNav_EC2/DepthDuration/v2_depth_duration_MTurk/v2_DepthDuration_HTML.html#27,27,1280,921,1280,1024,8-20-2022,9-19-58,7,depth_duration_stimuli/000556_2014-06-09_22-42-56_260595134347_rgbf000214-resize_1/000556_2014-06-09_22-42-56_260595134347_rgbf000214-resize_1-target.png,250,4.8415,15,4690,239,feet,jsons/v1_VE250_randls_2_rotated.json,1113756,1412273,57,Man
7,834029,DepthScenes,duration_manipulation_targetAtFixation,jsons/v1_VE250_randls_2_rotated.json,http://54.235.29.9/FacialAge/BNav_EC2/DepthDuration/v2_depth_duration_MTurk/v2_DepthDuration_HTML.html#27,27,1280,921,1280,1024,8-20-2022,9-19-58,8,depth_duration_stimuli/001158_2014-06-17_15-32-16_260595134347_rgbf000138-resize_2/001158_2014-06-17_15-32-16_260595134347_rgbf000138-resize_2-target.png,250,4.5315,20,8830,244,feet,jsons/v1_VE250_randls_2_rotated.json,1113756,1412273,57,Man
8,834029,DepthScenes,duration_manipulation_targetAtFixation,jsons/v1_VE250_randls_2_rotated.json,http://54.235.29.9/FacialAge/BNav_EC2/DepthDuration/v2_depth_duration_MTurk/v2_DepthDuration_HTML.html#27,27,1280,921,1280,1024,8-20-2022,9-19-58,9,depth_duration_stimuli/002444_2014-06-28_20-32-08_260595134347_rgbf000027-resize_0/002444_2014-06-28_20-32-08_260595134347_rgbf000027-resize_0-target.png,250,4.388999999999999,10,7441,237,feet,jsons/v1_VE250_randls_2_rotated.json,1113756,1412273,57,Man
9,834029,DepthScenes,duration_manipulation_targetAtFixation,jsons/v1_VE250_randls_2_rotated.json,http://54.235.29.9/FacialAge/BNav_EC2/DepthDuration/v2_depth_duration_MTurk/v2_DepthDuration_HTML.html#27,27,1280,921,1280,1024,8-20-2022,9-19-58,10,depth_duration_stimuli/000436_2014-06-09_22-25-11_260595134347_rgbf000137-resize_1/000436_2014-06-09_22-25-11_260595134347_rgbf000137-resize_1-target.png,250,4.0705,20,10709,247,feet,jsons/v1_VE250_randls_2_rotated.json,1113756,1412273,57,Man
10,834029,DepthScenes,duration_manipulation_targetAtFixation,jsons/v1_VE250_randls_2_rotated.json,http://54.235.29.9/FacialAge/BNav_EC2/DepthDuration/v2_depth_duration_MTurk/v2_DepthDuration_HTML.html#27,27,1280,921,1280,1024,8-20-2022,9-19-58,11,depth_duration_stimuli/002953_2014-06-08_17-32-18_094959634447_rgbf000059-resize_5/002953_2014-06-08_17-32-18_094959634447_rgbf000059-resize_5-target.png,250,1.551,3,4736,260,feet,jsons/v1_VE250_randls_2_rotated.json,1113756,1412273,57,Man
11,834029,DepthScenes,duration_manipulation_targetAtFixation,jsons/v1_VE250_randls_2_rotated.json,http://54.235.29.9/FacialAge/BNav_EC2/DepthDuration/v2_depth_duration_MTurk/v2_DepthDuration_HTML.html#27,27,1280,921,1280,1024,8-20-2022,9-19-58,12,depth_duration_stimuli/000878_2014-06-08_22-52-45_260595134347_rgbf000045-resize_2/000878_2014-06-08_22-52-45_260595134347_rgbf000045-resize_2-target.png,250,2.092,7,6749,260,feet,jsons/v1_VE250_randls_2_rotated.json,1113756,1412273,57,Man
12,834029,DepthScenes,duration_manipulation_targetAtFixation,jsons/v1_VE250_randls_2_rotated.json,http://54.235.29.9/FacialAge/BNav_EC2/DepthDuration/v2_depth_duration_MTurk/v2_DepthDuration_HTML.html#27,27,1280,921,1280,1024,8-20-2022,9-19-58,13,depth_duration_stimuli/001516_2014-06-20_16-25-09_260595134347_rgbf000076-resize_2/001516_2014-06-20_16-25-09_260595134347_rgbf000076-resize_2-target.png,250,1.7445,5,6330,234,feet,jsons/v1_VE250_randls_2_rotated.json,1113756,1412273,57,Man
13,834029,DepthScenes,duration_manipulation_targetAtFixation,jsons/v1_VE250_randls_2_rotated.json,http://54.235.29.9/FacialAge/BNav_EC2/DepthDuration/v2_depth_duration_MTurk/v2_DepthDuration_HTML.html#27,27,1280,921,1280,1024,8-20-2022,9-19-58,14,depth_duration_stimuli/002118_2014-06-25_20-32-08_260595134347_rgbf000078-resize_1/002118_2014-06-25_20-32-08_260595134347_rgbf000078-resize_1-target.png,250,2.6460000000000004,4,6785,250,feet,jsons/v1_VE250_randls_2_rotated.json,1113756,1412273,57,Man
14,834029,DepthScenes,duration_manipulation_targetAtFixation,jsons/v1_VE250_randls_2_rotated.json,http://54.235.29.9/FacialAge/BNav_EC2/DepthDuration/v2_depth_duration_MTurk/v2_DepthDuration_HTML.html#27,27,1280,921,1280,1024,8-20-2022,9-19-58,15,depth_duration_stimuli/003083_2014-06-15_15-21-03_094959634447_rgbf000063-resize_1/003083_2014-06-15_15-21-03_094959634447_rgbf000063-resize_1-target.png,250,4.1405,15,10525,254,feet,jsons/v1_VE250_randls_2_rotated.json,1113756,1412273,57,Man
15,834029,DepthScenes,duration_manipulation_targetAtFixation,jsons/v1_VE250_randls_2_rotated.json,http://54.235.29.9/FacialAge/BNav_EC2/DepthDuration/v2_depth_duration_MTurk/v2_DepthDuration_HTML.html#27,27,1280,921,1280,1024,8-20-2022,9-19-58,16,depth_duration_stimuli/000486_2014-06-09_20-47-20_260595134347_rgbf000143-resize_2/000486_2014-06-09_20-47-20_260595134347_rgbf000143-resize_2-target.png,250,4.8325,20,8383,257,feet,jsons/v1_VE250_randls_2_rotated.json,1113756,1412273,57,Man
16,834029,DepthScenes,duration_manipulation_targetAtFixation,jsons/v1_VE250_randls_2_rotated.json,http://54.235.29.9/FacialAge/BNav_EC2/DepthDuration/v2_depth_duration_MTurk/v2_DepthDuration_HTML.html#27,27,1280,921,1280,1024,8-20-2022,9-19-58,17,depth_duration_stimuli/000691_2014-06-08_13-08-50_260595134347_rgbf000132-resize_3/000691_2014-06-08_13-08-50_260595134347_rgbf000132-resize_3-target.png,250,4.1530000000000005,7,8009,255,feet,jsons/v1_VE250_randls_2_rotated.json,1113756,1412273,57,Man
17,834029,DepthScenes,duration_manipulation_targetAtFixation,jsons/v1_VE250_randls_2_rotated.json,http://54.235.29.9/FacialAge/BNav_EC2/DepthDuration/v2_depth_duration_MTurk/v2_DepthDuration_HTML.html#27,27,1280,921,1280,1024,8-20-2022,9-19-58,18,depth_duration_stimuli/002213_2014-06-28_18-37-58_260595134347_rgbf000055-resize_1/002213_2014-06-28_18-37-58_260595134347_rgbf000055-resize_1-target.png,250,3.62,10,8701,239,feet,jsons/v1_VE250_randls_2_rotated.json,1113756,1412273,57,Man
18,834029,DepthScenes,duration_manipulation_targetAtFixation,jsons/v1_VE250_randls_2_rotated.json,http://54.235.29.9/FacialAge/BNav_EC2/DepthDuration/v2_depth_duration_MTurk/v2_DepthDuration_HTML.html#27,27,1280,921,1280,1024,8-20-2022,9-19-58,19,depth_duration_stimuli/001498_2014-06-19_17-45-14_260595134347_rgbf000129-resize_4/001498_2014-06-19_17-45-14_260595134347_rgbf000129-resize-original.jpg,250,1.4075,0,4439,249,feet,jsons/v1_VE250_randls_2_rotated.json,1113756,1412273,57,Man
19,834029,DepthScenes,duration_manipulation_targetAtFixation,jsons/v1_VE250_randls_2_rotated.json,http://54.235.29.9/FacialAge/BNav_EC2/DepthDuration/v2_depth_duration_MTurk/v2_DepthDuration_HTML.html#27,27,1280,921,1280,1024,8-20-2022,9-19-58,20,depth_duration_stimuli/003129_2014-05-12_10-48-10_094959634447_rgbf000100-resize_0/003129_2014-05-12_10-48-10_094959634447_rgbf000100-resize_0-target.png,250,4.9305,7,8491,260,feet,jsons/v1_VE250_randls_2_rotated.json,1113756,1412273,57,Man
20,834029,DepthScenes,duration_manipulation_targetAtFixation,jsons/v1_VE250_randls_2_rotated.json,http://54.235.29.9/FacialAge/BNav_EC2/DepthDuration/v2_depth_duration_MTurk/v2_DepthDuration_HTML.html#27,27,1280,921,1280,1024,8-20-2022,9-19-58,21,depth_duration_stimuli/000414_2014-06-04_19-49-13_260595134347_rgbf000044-resize_0/000414_2014-06-04_19-49-13_260595134347_rgbf000044-resize_0-target.png,250,4.329,10,10330,259,feet,jsons/v1_VE250_randls_2_rotated.json,1113756,1412273,57,Man
21,834029,DepthScenes,duration_manipulation_targetAtFixation,jsons/v1_VE250_randls_2_rotated.json,http://54.235.29.9/FacialAge/BNav_EC2/DepthDuration/v2_depth_duration_MTurk/v2_DepthDuration_HTML.html#27,27,1280,921,1280,1024,8-20-2022,9-19-58,22,depth_duration_stimuli/002103_2014-06-25_20-00-40_260595134347_rgbf000049-resize_0/002103_2014-06-25_20-00-40_260595134347_rgbf000049-resize_0-target.png,250,4.105,10,7218,252,feet,jsons/v1_VE250_randls_2_rotated.json,1113756,1412273,57,Man
22,834029,DepthScenes,duration_manipulation_targetAtFixation,jsons/v1_VE250_randls_2_rotated.json,http://54.235.29.9/FacialAge/BNav_EC2/DepthDuration/v2_depth_duration_MTurk/v2_DepthDuration_HTML.html#27,27,1280,921,1280,1024,8-20-2022,9-19-58,23,depth_duration_stimuli/002039_2014-06-24_20-22-38_260595134347_rgbf000084-resize_1/002039_2014-06-24_20-22-38_260595134347_rgbf000084-resize_1-target.png,250,4.408,7,9646,254,feet,jsons/v1_VE250_randls_2_rotated.json,1113756,1412273,57,Man
23,834029,DepthScenes,duration_manipulation_targetAtFixation,jsons/v1_VE250_randls_2_rotated.json,http://54.235.29.9/FacialAge/BNav_EC2/DepthDuration/v2_depth_duration_MTurk/v2_DepthDuration_HTML.html#27,27,1280,921,1280,1024,8-20-2022,9-19-58,24,depth_duration_stimuli/002414_2014-06-28_20-24-58_260595134347_rgbf000067-resize_4/002414_2014-06-28_20-24-58_260595134347_rgbf000067-resize_4-target.png,250,4.363,10,6672,264,feet,jsons/v1_VE250_randls_2_rotated.json,1113756,1412273,57,Man
24,834029,DepthScenes,duration_manipulation_targetAtFixation,jsons/v1_VE250_randls_2_rotated.json,http://54.235.29.9/FacialAge/BNav_EC2/DepthDuration/v2_depth_duration_MTurk/v2_DepthDuration_HTML.html#27,27,1280,921,1280,1024,8-20-2022,9-19-58,25,depth_duration_stimuli/000773_2014-06-08_22-24-54_260595134347_rgbf000093-resize_1/000773_2014-06-08_22-24-54_260595134347_rgbf000093-resize_1-target.png,250,4.973,12,5080,244,feet,jsons/v1_VE250_randls_2_rotated.json,1113756,1412273,57,Man
25,834029,DepthScenes,duration_manipulation_targetAtFixation,jsons/v1_VE250_randls_2_rotated.json,http://54.235.29.9/FacialAge/BNav_EC2/DepthDuration/v2_depth_duration_MTurk/v2_DepthDuration_HTML.html#27,27,1280,921,1280,1024,8-20-2022,9-19-58,26,depth_duration_stimuli/003010_2014-06-15_12-54-35_094959634447_rgbf000112-resize_0/003010_2014-06-15_12-54-35_094959634447_rgbf000112-resize_0-target.png,250,3.1185,10,8846,253,feet,jsons/v1_VE250_randls_2_rotated.json,1113756,1412273,57,Man
26,834029,DepthScenes,duration_manipulation_targetAtFixation,jsons/v1_VE250_randls_2_rotated.json,http://54.235.29.9/FacialAge/BNav_EC2/DepthDuration/v2_depth_duration_MTurk/v2_DepthDuration_HTML.html#27,27,1280,921,1280,1024,8-20-2022,9-19-58,27,depth_duration_stimuli/001810_2014-06-26_20-51-35_260595134347_rgbf000040-resize_3/001810_2014-06-26_20-51-35_260595134347_rgbf000040-resize_3-target.png,250,2.2525,4,5612,240,feet,jsons/v1_VE250_randls_2_rotated.json,1113756,1412273,57,Man
27,834029,DepthScenes,duration_manipulation_targetAtFixation,jsons/v1_VE250_randls_2_rotated.json,http://54.235.29.9/FacialAge/BNav_EC2/DepthDuration/v2_depth_duration_MTurk/v2_DepthDuration_HTML.html#27,27,1280,921,1280,1024,8-20-2022,9-19-58,28,depth_duration_stimuli/001100_2014-06-15_17-46-26_260595134347_rgbf000225-resize_2/001100_2014-06-15_17-46-26_260595134347_rgbf000225-resize_2-target.png,250,2.24,3,4497,250,feet,jsons/v1_VE250_randls_2_rotated.json,1113756,1412273,57,Man
28,834029,DepthScenes,duration_manipulation_targetAtFixation,jsons/v1_VE250_randls_2_rotated.json,http://54.235.29.9/FacialAge/BNav_EC2/DepthDuration/v2_depth_duration_MTurk/v2_DepthDuration_HTML.html#27,27,1280,921,1280,1024,8-20-2022,9-19-58,29,depth_duration_stimuli/002784_2014-06-22_19-26-30_094959634447_rgbf000083-resize_3/002784_2014-06-22_19-26-30_094959634447_rgbf000083-resize_3-target.png,250,1.8046666666667,4,4744,250,feet,jsons/v1_VE250_randls_2_rotated.json,1113756,1412273,57,Man
29,834029,DepthScenes,duration_manipulation_targetAtFixation,jsons/v1_VE250_randls_2_rotated.json,http://54.235.29.9/FacialAge/BNav_EC2/DepthDuration/v2_depth_duration_MTurk/v2_DepthDuration_HTML.html#27,27,1280,921,1280,1024,8-20-2022,9-19-58,30,depth_duration_stimuli/002072_2014-06-24_21-48-06_260595134347_rgbf000115-resize_0/002072_2014-06-24_21-48-06_260595134347_rgbf000115-resize-original.jpg,250,4.702,0,3861,248,feet,jsons/v1_VE250_randls_2_rotated.json,1113756,1412273,57,Man
30,834029,DepthScenes,duration_manipulation_targetAtFixation,jsons/v1_VE250_randls_2_rotated.json,http://54.235.29.9/FacialAge/BNav_EC2/DepthDuration/v2_depth_duration_MTurk/v2_DepthDuration_HTML.html#27,27,1280,921,1280,1024,8-20-2022,9-19-58,31,depth_duration_stimuli/001392_2014-06-19_16-07-59_260595134347_rgbf000046-resize_1/001392_2014-06-19_16-07-59_260595134347_rgbf000046-resize_1-target.png,250,4.135,6,7674,250,feet,jsons/v1_VE250_randls_2_rotated.json,1113756,1412273,57,Man
31,834029,DepthScenes,duration_manipulation_targetAtFixation,jsons/v1_VE250_randls_2_rotated.json,http://54.235.29.9/FacialAge/BNav_EC2/DepthDuration/v2_depth_duration_MTurk/v2_DepthDuration_HTML.html#27,27,1280,921,1280,1024,8-20-2022,9-19-58,32,depth_duration_stimuli/001570_2014-06-20_17-21-09_260595134347_rgbf000135-resize_4/001570_2014-06-20_17-21-09_260595134347_rgbf000135-resize_4-target.png,250,4.467,7,7847,251,feet,jsons/v1_VE250_randls_2_rotated.json,1113756,1412273,57,Man
32,834029,DepthScenes,duration_manipulation_targetAtFixation,jsons/v1_VE250_randls_2_rotated.json,http://54.235.29.9/FacialAge/BNav_EC2/DepthDuration/v2_depth_duration_MTurk/v2_DepthDuration_HTML.html#27,27,1280,921,1280,1024,8-20-2022,9-19-58,33,depth_duration_stimuli/001052_2014-06-08_18-24-54_260595134347_rgbf000130-resize_1/001052_2014-06-08_18-24-54_260595134347_rgbf000130-resize_1-target.png,250,4.1045,10,5353,240,feet,jsons/v1_VE250_randls_2_rotated.json,1113756,1412273,57,Man
33,834029,DepthScenes,duration_manipulation_targetAtFixation,jsons/v1_VE250_randls_2_rotated.json,http://54.235.29.9/FacialAge/BNav_EC2/DepthDuration/v2_depth_duration_MTurk/v2_DepthDuration_HTML.html#27,27,1280,921,1280,1024,8-20-2022,9-19-58,34,depth_duration_stimuli/002988_2014-06-15_12-24-20_094959634447_rgbf000150-resize_1/002988_2014-06-15_12-24-20_094959634447_rgbf000150-resize_1-target.png,250,4.7669999999999995,12,6718,251,feet,jsons/v1_VE250_randls_2_rotated.json,1113756,1412273,57,Man
34,834029,DepthScenes,duration_manipulation_targetAtFixation,jsons/v1_VE250_randls_2_rotated.json,http://54.235.29.9/FacialAge/BNav_EC2/DepthDuration/v2_depth_duration_MTurk/v2_DepthDuration_HTML.html#27,27,1280,921,1280,1024,8-20-2022,9-19-58,35,depth_duration_stimuli/000665_2014-06-09_20-42-35_260595134347_rgbf000110-resize_1/000665_2014-06-09_20-42-35_260595134347_rgbf000110-resize_1-target.png,250,3.057,5,5662,229,feet,jsons/v1_VE250_randls_2_rotated.json,1113756,1412273,57,Man
35,834029,DepthScenes,duration_manipulation_targetAtFixation,jsons/v1_VE250_randls_2_rotated.json,http://54.235.29.9/FacialAge/BNav_EC2/DepthDuration/v2_depth_duration_MTurk/v2_DepthDuration_HTML.html#27,27,1280,921,1280,1024,8-20-2022,9-19-58,36,depth_duration_stimuli/001150_2014-06-17_15-27-34_260595134347_rgbf000108-resize_2/001150_2014-06-17_15-27-34_260595134347_rgbf000108-resize_2-target.png,250,4.0325,7,6327,249,feet,jsons/v1_VE250_randls_2_rotated.json,1113756,1412273,57,Man
36,834029,DepthScenes,duration_manipulation_targetAtFixation,jsons/v1_VE250_randls_2_rotated.json,http://54.235.29.9/FacialAge/BNav_EC2/DepthDuration/v2_depth_duration_MTurk/v2_DepthDuration_HTML.html#27,27,1280,921,1280,1024,8-20-2022,9-19-58,37,depth_duration_stimuli/000137_2014-05-20_17-04-49_260595134347_rgbf000120-resize_1/000137_2014-05-20_17-04-49_260595134347_rgbf000120-resize_1-target.png,250,3.786,7,13379,264,feet,jsons/v1_VE250_randls_2_rotated.json,1113756,1412273,57,Man
37,834029,DepthScenes,duration_manipulation_targetAtFixation,jsons/v1_VE250_randls_2_rotated.json,http://54.235.29.9/FacialAge/BNav_EC2/DepthDuration/v2_depth_duration_MTurk/v2_DepthDuration_HTML.html#27,27,1280,921,1280,1024,8-20-2022,9-19-58,38,depth_duration_stimuli/000736_2014-06-08_18-24-15_260595134347_rgbf000206-resize_3/000736_2014-06-08_18-24-15_260595134347_rgbf000206-resize_3-target.png,250,3.515,6,4687,249,feet,jsons/v1_VE250_randls_2_rotated.json,1113756,1412273,57,Man
38,834029,DepthScenes,duration_manipulation_targetAtFixation,jsons/v1_VE250_randls_2_rotated.json,http://54.235.29.9/FacialAge/BNav_EC2/DepthDuration/v2_depth_duration_MTurk/v2_DepthDuration_HTML.html#27,27,1280,921,1280,1024,8-20-2022,9-19-58,39,depth_duration_stimuli/001235_2014-06-17_16-37-36_260595134347_rgbf000084-resize_4/001235_2014-06-17_16-37-36_260595134347_rgbf000084-resize_4-target.png,250,3.6605,5,5336,249,feet,jsons/v1_VE250_randls_2_rotated.json,1113756,1412273,57,Man
39,834029,DepthScenes,duration_manipulation_targetAtFixation,jsons/v1_VE250_randls_2_rotated.json,http://54.235.29.9/FacialAge/BNav_EC2/DepthDuration/v2_depth_duration_MTurk/v2_DepthDuration_HTML.html#27,27,1280,921,1280,1024,8-20-2022,9-19-58,40,depth_duration_stimuli/000788_2014-06-08_22-34-36_260595134347_rgbf000131-resize_1/000788_2014-06-08_22-34-36_260595134347_rgbf000131-resize_1-target.png,250,3.359,5,5482,250,feet,jsons/v1_VE250_randls_2_rotated.json,1113756,1412273,57,Man
40,834029,DepthScenes,duration_manipulation_targetAtFixation,jsons/v1_VE250_randls_2_rotated.json,http://54.235.29.9/FacialAge/BNav_EC2/DepthDuration/v2_depth_duration_MTurk/v2_DepthDuration_HTML.html#27,27,1280,921,1280,1024,8-20-2022,9-19-58,41,depth_duration_stimuli/002995_2014-06-15_12-31-26_094959634447_rgbf000150-resize_1/002995_2014-06-15_12-31-26_094959634447_rgbf000150-resize_1-target.png,250,3.8360000000000003,7,5986,250,feet,jsons/v1_VE250_randls_2_rotated.json,1113756,1412273,57,Man
41,834029,DepthScenes,duration_manipulation_targetAtFixation,jsons/v1_VE250_randls_2_rotated.json,http://54.235.29.9/FacialAge/BNav_EC2/DepthDuration/v2_depth_duration_MTurk/v2_DepthDuration_HTML.html#27,27,1280,921,1280,1024,8-20-2022,9-19-58,42,depth_duration_stimuli/002748_2014-06-22_19-07-22_094959634447_rgbf000078-resize_1/002748_2014-06-22_19-07-22_094959634447_rgbf000078-resize_1-target.png,250,4.6705,20,9286,241,feet,jsons/v1_VE250_randls_2_rotated.json,1113756,1412273,57,Man
42,834029,DepthScenes,duration_manipulation_targetAtFixation,jsons/v1_VE250_randls_2_rotated.json,http://54.235.29.9/FacialAge/BNav_EC2/DepthDuration/v2_depth_duration_MTurk/v2_DepthDuration_HTML.html#27,27,1280,921,1280,1024,8-20-2022,9-19-58,43,depth_duration_stimuli/000854_2014-06-09_19-43-13_260595134347_rgbf000066-resize_0/000854_2014-06-09_19-43-13_260595134347_rgbf000066-resize_0-target.png,250,3.068,4,4551,258,feet,jsons/v1_VE250_randls_2_rotated.json,1113756,1412273,57,Man
43,834029,DepthScenes,duration_manipulation_targetAtFixation,jsons/v1_VE250_randls_2_rotated.json,http://54.235.29.9/FacialAge/BNav_EC2/DepthDuration/v2_depth_duration_MTurk/v2_DepthDuration_HTML.html#27,27,1280,921,1280,1024,8-20-2022,9-19-58,44,depth_duration_stimuli/000758_2014-06-08_22-05-08_260595134347_rgbf000085-resize_0/000758_2014-06-08_22-05-08_260595134347_rgbf000085-resize_0-target.png,250,3.3810000000000002,12,7996,247,feet,jsons/v1_VE250_randls_2_rotated.json,1113756,1412273,57,Man
44,834029,DepthScenes,duration_manipulation_targetAtFixation,jsons/v1_VE250_randls_2_rotated.json,http://54.235.29.9/FacialAge/BNav_EC2/DepthDuration/v2_depth_duration_MTurk/v2_DepthDuration_HTML.html#27,27,1280,921,1280,1024,8-20-2022,9-19-58,45,depth_duration_stimuli/001584_2014-06-20_11-07-43_260595134347_rgbf000002-resize_1/001584_2014-06-20_11-07-43_260595134347_rgbf000002-resize_1-target.png,250,3.53,10,4545,240,feet,jsons/v1_VE250_randls_2_rotated.json,1113756,1412273,57,Man
45,834029,DepthScenes,duration_manipulation_targetAtFixation,jsons/v1_VE250_randls_2_rotated.json,http://54.235.29.9/FacialAge/BNav_EC2/DepthDuration/v2_depth_duration_MTurk/v2_DepthDuration_HTML.html#27,27,1280,921,1280,1024,8-20-2022,9-19-58,46,depth_duration_stimuli/003621_2014-05-23_18-06-08_094959634447_rgbf000101-resize_1/003621_2014-05-23_18-06-08_094959634447_rgbf000101-resize_1-target.png,250,3.9835,15,4633,253,feet,jsons/v1_VE250_randls_2_rotated.json,1113756,1412273,57,Man
46,834029,DepthScenes,duration_manipulation_targetAtFixation,jsons/v1_VE250_randls_2_rotated.json,http://54.235.29.9/FacialAge/BNav_EC2/DepthDuration/v2_depth_duration_MTurk/v2_DepthDuration_HTML.html#27,27,1280,921,1280,1024,8-20-2022,9-19-58,47,depth_duration_stimuli/000409_2014-06-04_19-23-33_260595134347_rgbf000067-resize_0/000409_2014-06-04_19-23-33_260595134347_rgbf000067-resize_0-target.png,250,3.7335,10,4410,254,feet,jsons/v1_VE250_randls_2_rotated.json,1113756,1412273,57,Man
47,834029,DepthScenes,duration_manipulation_targetAtFixation,jsons/v1_VE250_randls_2_rotated.json,http://54.235.29.9/FacialAge/BNav_EC2/DepthDuration/v2_depth_duration_MTurk/v2_DepthDuration_HTML.html#27,27,1280,921,1280,1024,8-20-2022,9-19-58,48,depth_duration_stimuli/002663_2014-06-13_15-50-26_094959634447_rgbf000075-resize_1/002663_2014-06-13_15-50-26_094959634447_rgbf000075-resize_1-target.png,250,4.7495,15,6191,250,feet,jsons/v1_VE250_randls_2_rotated.json,1113756,1412273,57,Man
48,834029,DepthScenes,duration_manipulation_targetAtFixation,jsons/v1_VE250_randls_2_rotated.json,http://54.235.29.9/FacialAge/BNav_EC2/DepthDuration/v2_depth_duration_MTurk/v2_DepthDuration_HTML.html#27,27,1280,921,1280,1024,8-20-2022,9-19-58,49,depth_duration_stimuli/001170_2014-06-17_15-43-44_260595134347_rgbf000096-resize_6/001170_2014-06-17_15-43-44_260595134347_rgbf000096-resize-original.jpg,250,1.1909999999999998,0,4135,238,feet,jsons/v1_VE250_randls_2_rotated.json,1113756,1412273,57,Man
49,834029,DepthScenes,duration_manipulation_targetAtFixation,jsons/v1_VE250_randls_2_rotated.json,http://54.235.29.9/FacialAge/BNav_EC2/DepthDuration/v2_depth_duration_MTurk/v2_DepthDuration_HTML.html#27,27,1280,921,1280,1024,8-20-2022,9-19-58,50,depth_duration_stimuli/003079_2014-06-15_15-18-20_094959634447_rgbf000152-resize_8/003079_2014-06-15_15-18-20_094959634447_rgbf000152-resize_8-target.png,250,2.8775,10,6863,243,feet,jsons/v1_VE250_randls_2_rotated.json,1113756,1412273,57,Man
50,834029,DepthScenes,duration_manipulation_targetAtFixation,jsons/v1_VE250_randls_2_rotated.json,http://54.235.29.9/FacialAge/BNav_EC2/DepthDuration/v2_depth_duration_MTurk/v2_DepthDuration_HTML.html#27,27,1280,921,1280,1024,8-20-2022,9-19-58,51,depth_duration_stimuli/000506_2014-06-08_23-21-00_260595134347_rgbf000070-resize_7/000506_2014-06-08_23-21-00_260595134347_rgbf000070-resize_7-target.png,250,4.0585,10,9385,250,feet,jsons/v1_VE250_randls_2_rotated.json,1113756,1412273,57,Man
51,834029,DepthScenes,duration_manipulation_targetAtFixation,jsons/v1_VE250_randls_2_rotated.json,http://54.235.29.9/FacialAge/BNav_EC2/DepthDuration/v2_depth_duration_MTurk/v2_DepthDuration_HTML.html#27,27,1280,921,1280,1024,8-20-2022,9-19-58,52,depth_duration_stimuli/001617_2014-06-20_11-35-32_260595134347_rgbf000066-resize_1/001617_2014-06-20_11-35-32_260595134347_rgbf000066-resize_1-target.png,250,3.7910000000000004,7,8826,244,feet,jsons/v1_VE250_randls_2_rotated.json,1113756,1412273,57,Man
52,834029,DepthScenes,duration_manipulation_targetAtFixation,jsons/v1_VE250_randls_2_rotated.json,http://54.235.29.9/FacialAge/BNav_EC2/DepthDuration/v2_depth_duration_MTurk/v2_DepthDuration_HTML.html#27,27,1280,921,1280,1024,8-20-2022,9-19-58,53,depth_duration_stimuli/001806_2014-06-26_20-50-20_260595134347_rgbf000091-resize_1/001806_2014-06-26_20-50-20_260595134347_rgbf000091-resize_1-target.png,250,2.7305,4,4673,249,feet,jsons/v1_VE250_randls_2_rotated.json,1113756,1412273,57,Man
53,834029,DepthScenes,duration_manipulation_targetAtFixation,jsons/v1_VE250_randls_2_rotated.json,http://54.235.29.9/FacialAge/BNav_EC2/DepthDuration/v2_depth_duration_MTurk/v2_DepthDuration_HTML.html#27,27,1280,921,1280,1024,8-20-2022,9-19-58,54,depth_duration_stimuli/000709_2014-06-08_13-51-55_260595134347_rgbf000068-resize_3/000709_2014-06-08_13-51-55_260595134347_rgbf000068-resize_3-target.png,250,1.8030000000000002,4,4347,255,feet,jsons/v1_VE250_randls_2_rotated.json,1113756,1412273,57,Man
54,834029,DepthScenes,duration_manipulation_targetAtFixation,jsons/v1_VE250_randls_2_rotated.json,http://54.235.29.9/FacialAge/BNav_EC2/DepthDuration/v2_depth_duration_MTurk/v2_DepthDuration_HTML.html#27,27,1280,921,1280,1024,8-20-2022,9-19-58,55,depth_duration_stimuli/002057_2014-06-24_21-00-13_260595134347_rgbf000120-resize_1/002057_2014-06-24_21-00-13_260595134347_rgbf000120-resize_1-target.png,250,2.967,7,6395,250,feet,jsons/v1_VE250_randls_2_rotated.json,1113756,1412273,57,Man
55,834029,DepthScenes,duration_manipulation_targetAtFixation,jsons/v1_VE250_randls_2_rotated.json,http://54.235.29.9/FacialAge/BNav_EC2/DepthDuration/v2_depth_duration_MTurk/v2_DepthDuration_HTML.html#27,27,1280,921,1280,1024,8-20-2022,9-19-58,56,depth_duration_stimuli/001032_2014-06-08_13-23-17_260595134347_rgbf000021-resize_3/001032_2014-06-08_13-23-17_260595134347_rgbf000021-resize_3-target.png,250,3.2725,6,5930,259,feet,jsons/v1_VE250_randls_2_rotated.json,1113756,1412273,57,Man
56,834029,DepthScenes,duration_manipulation_targetAtFixation,jsons/v1_VE250_randls_2_rotated.json,http://54.235.29.9/FacialAge/BNav_EC2/DepthDuration/v2_depth_duration_MTurk/v2_DepthDuration_HTML.html#27,27,1280,921,1280,1024,8-20-2022,9-19-58,57,depth_duration_stimuli/001059_2014-06-08_21-53-27_260595134347_rgbf000061-resize_4/001059_2014-06-08_21-53-27_260595134347_rgbf000061-resize_4-target.png,250,2.4185,5,4268,243,feet,jsons/v1_VE250_randls_2_rotated.json,1113756,1412273,57,Man
57,834029,DepthScenes,duration_manipulation_targetAtFixation,jsons/v1_VE250_randls_2_rotated.json,http://54.235.29.9/FacialAge/BNav_EC2/DepthDuration/v2_depth_duration_MTurk/v2_DepthDuration_HTML.html#27,27,1280,921,1280,1024,8-20-2022,9-19-58,58,depth_duration_stimuli/001094_2014-06-15_17-36-00_260595134347_rgbf000205-resize_0/001094_2014-06-15_17-36-00_260595134347_rgbf000205-resize_0-target.png,250,4.2175,7,6794,240,feet,jsons/v1_VE250_randls_2_rotated.json,1113756,1412273,57,Man
58,834029,DepthScenes,duration_manipulation_targetAtFixation,jsons/v1_VE250_randls_2_rotated.json,http://54.235.29.9/FacialAge/BNav_EC2/DepthDuration/v2_depth_duration_MTurk/v2_DepthDuration_HTML.html#27,27,1280,921,1280,1024,8-20-2022,9-19-58,59,depth_duration_stimuli/000692_2014-06-08_13-09-42_260595134347_rgbf000199-resize_2/000692_2014-06-08_13-09-42_260595134347_rgbf000199-resize_2-target.png,250,3.661,10,7209,250,feet,jsons/v1_VE250_randls_2_rotated.json,1113756,1412273,57,Man
59,834029,DepthScenes,duration_manipulation_targetAtFixation,jsons/v1_VE250_randls_2_rotated.json,http://54.235.29.9/FacialAge/BNav_EC2/DepthDuration/v2_depth_duration_MTurk/v2_DepthDuration_HTML.html#27,27,1280,921,1280,1024,8-20-2022,9-19-58,60,depth_duration_stimuli/002344_2014-06-28_20-06-29_260595134347_rgbf000030-resize_1/002344_2014-06-28_20-06-29_260595134347_rgbf000030-resize_1-target.png,250,1.5795,2,8528,254,feet,jsons/v1_VE250_randls_2_rotated.json,1113756,1412273,57,Man
60,834029,DepthScenes,duration_manipulation_targetAtFixation,jsons/v1_VE250_randls_2_rotated.json,http://54.235.29.9/FacialAge/BNav_EC2/DepthDuration/v2_depth_duration_MTurk/v2_DepthDuration_HTML.html#27,27,1280,921,1280,1024,8-20-2022,9-19-58,61,depth_duration_stimuli/002725_2014-06-22_11-47-51_094959634447_rgbf000070-resize_1/002725_2014-06-22_11-47-51_094959634447_rgbf000070-resize_1-target.png,250,2.195,3,5878,250,feet,jsons/v1_VE250_randls_2_rotated.json,1113756,1412273,57,Man
61,834029,DepthScenes,duration_manipulation_targetAtFixation,jsons/v1_VE250_randls_2_rotated.json,http://54.235.29.9/FacialAge/BNav_EC2/DepthDuration/v2_depth_duration_MTurk/v2_DepthDuration_HTML.html#27,27,1280,921,1280,1024,8-20-2022,9-19-58,62,depth_duration_stimuli/000635_2014-06-08_16-38-42_260595134347_rgbf000106-resize_1/000635_2014-06-08_16-38-42_260595134347_rgbf000106-resize_1-target.png,250,2.074,3,8001,248,feet,jsons/v1_VE250_randls_2_rotated.json,1113756,1412273,57,Man
62,834029,DepthScenes,duration_manipulation_targetAtFixation,jsons/v1_VE250_randls_2_rotated.json,http://54.235.29.9/FacialAge/BNav_EC2/DepthDuration/v2_depth_duration_MTurk/v2_DepthDuration_HTML.html#27,27,1280,921,1280,1024,8-20-2022,9-19-58,63,depth_duration_stimuli/002279_2014-06-28_18-55-32_260595134347_rgbf000040-resize_5/002279_2014-06-28_18-55-32_260595134347_rgbf000040-resize_5-target.png,250,1.5043333333333,2,3767,249,feet,jsons/v1_VE250_randls_2_rotated.json,1113756,1412273,57,Man
63,834029,DepthScenes,duration_manipulation_targetAtFixation,jsons/v1_VE250_randls_2_rotated.json,http://54.235.29.9/FacialAge/BNav_EC2/DepthDuration/v2_depth_duration_MTurk/v2_DepthDuration_HTML.html#27,27,1280,921,1280,1024,8-20-2022,9-19-58,64,depth_duration_stimuli/001828_2014-06-26_21-40-03_260595134347_rgbf000024-resize_0/001828_2014-06-26_21-40-03_260595134347_rgbf000024-resize_0-target.png,250,4.8260000000000005,5,4219,252,feet,jsons/v1_VE250_randls_2_rotated.json,1113756,1412273,57,Man
64,834029,DepthScenes,duration_manipulation_targetAtFixation,jsons/v1_VE250_randls_2_rotated.json,http://54.235.29.9/FacialAge/BNav_EC2/DepthDuration/v2_depth_duration_MTurk/v2_DepthDuration_HTML.html#27,27,1280,921,1280,1024,8-20-2022,9-19-58,65,depth_duration_stimuli/000009_2014-05-26_14-32-05_260595134347_rgbf000034-resize_3/000009_2014-05-26_14-32-05_260595134347_rgbf000034-resize_3-target.png,250,3.8715,7,5885,249,feet,jsons/v1_VE250_randls_2_rotated.json,1113756,1412273,57,Man
65,834029,DepthScenes,duration_manipulation_targetAtFixation,jsons/v1_VE250_randls_2_rotated.json,http://54.235.29.9/FacialAge/BNav_EC2/DepthDuration/v2_depth_duration_MTurk/v2_DepthDuration_HTML.html#27,27,1280,921,1280,1024,8-20-2022,9-19-58,66,depth_duration_stimuli/001540_2014-06-20_17-01-05_260595134347_rgbf000086-resize_2/001540_2014-06-20_17-01-05_260595134347_rgbf000086-resize-original.jpg,250,1.459,0,4091,238,feet,jsons/v1_VE250_randls_2_rotated.json,1113756,1412273,57,Man
66,834029,DepthScenes,duration_manipulation_targetAtFixation,jsons/v1_VE250_randls_2_rotated.json,http://54.235.29.9/FacialAge/BNav_EC2/DepthDuration/v2_depth_duration_MTurk/v2_DepthDuration_HTML.html#27,27,1280,921,1280,1024,8-20-2022,9-19-58,67,depth_duration_stimuli/003228_2014-05-14_13-42-35_094959634447_rgbf000101-resize_1/003228_2014-05-14_13-42-35_094959634447_rgbf000101-resize_1-target.png,250,1.9680000000000002,3,5928,252,feet,jsons/v1_VE250_randls_2_rotated.json,1113756,1412273,57,Man
67,834029,DepthScenes,duration_manipulation_targetAtFixation,jsons/v1_VE250_randls_2_rotated.json,http://54.235.29.9/FacialAge/BNav_EC2/DepthDuration/v2_depth_duration_MTurk/v2_DepthDuration_HTML.html#27,27,1280,921,1280,1024,8-20-2022,9-19-58,68,depth_duration_stimuli/002600_2014-06-24_14-27-04_094959634447_rgbf000074-resize_2/002600_2014-06-24_14-27-04_094959634447_rgbf000074-resize_2-target.png,250,2.7575,6,7322,239,feet,jsons/v1_VE250_randls_2_rotated.json,1113756,1412273,57,Man
68,834029,DepthScenes,duration_manipulation_targetAtFixation,jsons/v1_VE250_randls_2_rotated.json,http://54.235.29.9/FacialAge/BNav_EC2/DepthDuration/v2_depth_duration_MTurk/v2_DepthDuration_HTML.html#27,27,1280,921,1280,1024,8-20-2022,9-19-58,69,depth_duration_stimuli/003490_2014-05-21_15-50-11_094959634447_rgbf000101-resize_3/003490_2014-05-21_15-50-11_094959634447_rgbf000101-resize_3-target.png,250,3.6445,10,7253,250,feet,jsons/v1_VE250_randls_2_rotated.json,1113756,1412273,57,Man
69,834029,DepthScenes,duration_manipulation_targetAtFixation,jsons/v1_VE250_randls_2_rotated.json,http://54.235.29.9/FacialAge/BNav_EC2/DepthDuration/v2_depth_duration_MTurk/v2_DepthDuration_HTML.html#27,27,1280,921,1280,1024,8-20-2022,9-19-58,70,depth_duration_stimuli/001175_2014-06-17_15-45-55_260595134347_rgbf000129-resize_4/001175_2014-06-17_15-45-55_260595134347_rgbf000129-resize_4-target.png,250,4.255,12,5457,259,feet,jsons/v1_VE250_randls_2_rotated.json,1113756,1412273,57,Man
70,834029,DepthScenes,duration_manipulation_targetAtFixation,jsons/v1_VE250_randls_2_rotated.json,http://54.235.29.9/FacialAge/BNav_EC2/DepthDuration/v2_depth_duration_MTurk/v2_DepthDuration_HTML.html#27,27,1280,921,1280,1024,8-20-2022,9-19-58,71,depth_duration_stimuli/000749_2014-06-08_21-55-06_260595134347_rgbf000070-resize_2/000749_2014-06-08_21-55-06_260595134347_rgbf000070-resize_2-target.png,250,2.331,5,5004,259,feet,jsons/v1_VE250_randls_2_rotated.json,1113756,1412273,57,Man
71,834029,DepthScenes,duration_manipulation_targetAtFixation,jsons/v1_VE250_randls_2_rotated.json,http://54.235.29.9/FacialAge/BNav_EC2/DepthDuration/v2_depth_duration_MTurk/v2_DepthDuration_HTML.html#27,27,1280,921,1280,1024,8-20-2022,9-19-58,72,depth_duration_stimuli/002788_2014-06-22_19-36-03_094959634447_rgbf000088-resize_2/002788_2014-06-22_19-36-03_094959634447_rgbf000088-resize_2-target.png,250,1.6465,6,6905,263,feet,jsons/v1_VE250_randls_2_rotated.json,1113756,1412273,57,Man
72,834029,DepthScenes,duration_manipulation_targetAtFixation,jsons/v1_VE250_randls_2_rotated.json,http://54.235.29.9/FacialAge/BNav_EC2/DepthDuration/v2_depth_duration_MTurk/v2_DepthDuration_HTML.html#27,27,1280,921,1280,1024,8-20-2022,9-19-58,73,depth_duration_stimuli/002199_2014-06-28_18-33-56_260595134347_rgbf000074-resize_0/002199_2014-06-28_18-33-56_260595134347_rgbf000074-resize_0-target.png,250,1.996,2,3820,253,feet,jsons/v1_VE250_randls_2_rotated.json,1113756,1412273,57,Man
73,834029,DepthScenes,duration_manipulation_targetAtFixation,jsons/v1_VE250_randls_2_rotated.json,http://54.235.29.9/FacialAge/BNav_EC2/DepthDuration/v2_depth_duration_MTurk/v2_DepthDuration_HTML.html#27,27,1280,921,1280,1024,8-20-2022,9-19-58,74,depth_duration_stimuli/001056_2014-06-08_18-46-44_260595134347_rgbf000068-resize_0/001056_2014-06-08_18-46-44_260595134347_rgbf000068-resize_0-target.png,250,2.6625,7,7739,255,feet,jsons/v1_VE250_randls_2_rotated.json,1113756,1412273,57,Man
74,834029,DepthScenes,duration_manipulation_targetAtFixation,jsons/v1_VE250_randls_2_rotated.json,http://54.235.29.9/FacialAge/BNav_EC2/DepthDuration/v2_depth_duration_MTurk/v2_DepthDuration_HTML.html#27,27,1280,921,1280,1024,8-20-2022,9-19-58,75,depth_duration_stimuli/001571_2014-06-20_17-21-32_260595134347_rgbf000089-resize_1/001571_2014-06-20_17-21-32_260595134347_rgbf000089-resize_1-target.png,250,1.86,3,6173,251,feet,jsons/v1_VE250_randls_2_rotated.json,1113756,1412273,57,Man
75,834029,DepthScenes,duration_manipulation_targetAtFixation,jsons/v1_VE250_randls_2_rotated.json,http://54.235.29.9/FacialAge/BNav_EC2/DepthDuration/v2_depth_duration_MTurk/v2_DepthDuration_HTML.html#27,27,1280,921,1280,1024,8-20-2022,9-19-58,76,depth_duration_stimuli/002272_2014-06-28_18-53-56_260595134347_rgbf000067-resize_2/002272_2014-06-28_18-53-56_260595134347_rgbf000067-resize_2-target.png,250,1.138,3,5201,247,feet,jsons/v1_VE250_randls_2_rotated.json,1113756,1412273,57,Man
76,834029,DepthScenes,duration_manipulation_targetAtFixation,jsons/v1_VE250_randls_2_rotated.json,http://54.235.29.9/FacialAge/BNav_EC2/DepthDuration/v2_depth_duration_MTurk/v2_DepthDuration_HTML.html#27,27,1280,921,1280,1024,8-20-2022,9-19-58,77,depth_duration_stimuli/003587_2014-05-23_16-48-02_094959634447_rgbf002384-resize_2/003587_2014-05-23_16-48-02_094959634447_rgbf002384-resize_2-target.png,250,1.357,2,4700,244,feet,jsons/v1_VE250_randls_2_rotated.json,1113756,1412273,57,Man
77,834029,DepthScenes,duration_manipulation_targetAtFixation,jsons/v1_VE250_randls_2_rotated.json,http://54.235.29.9/FacialAge/BNav_EC2/DepthDuration/v2_depth_duration_MTurk/v2_DepthDuration_HTML.html#27,27,1280,921,1280,1024,8-20-2022,9-19-58,78,depth_duration_stimuli/001167_2014-06-17_15-38-07_260595134347_rgbf000108-resize_0/001167_2014-06-17_15-38-07_260595134347_rgbf000108-resize_0-target.png,250,1.8505,3,4407,249,feet,jsons/v1_VE250_randls_2_rotated.json,1113756,1412273,57,Man
78,834029,DepthScenes,duration_manipulation_targetAtFixation,jsons/v1_VE250_randls_2_rotated.json,http://54.235.29.9/FacialAge/BNav_EC2/DepthDuration/v2_depth_duration_MTurk/v2_DepthDuration_HTML.html#27,27,1280,921,1280,1024,8-20-2022,9-19-58,79,depth_duration_stimuli/001650_2014-06-20_12-09-00_260595134347_rgbf000087-resize_3/001650_2014-06-20_12-09-00_260595134347_rgbf000087-resize_3-target.png,250,1.9505,2,4463,230,feet,jsons/v1_VE250_randls_2_rotated.json,1113756,1412273,57,Man
79,834029,DepthScenes,duration_manipulation_targetAtFixation,jsons/v1_VE250_randls_2_rotated.json,http://54.235.29.9/FacialAge/BNav_EC2/DepthDuration/v2_depth_duration_MTurk/v2_DepthDuration_HTML.html#27,27,1280,921,1280,1024,8-20-2022,9-19-58,80,depth_duration_stimuli/000682_2014-06-08_23-14-58_260595134347_rgbf000041-resize_5/000682_2014-06-08_23-14-58_260595134347_rgbf000041-resize_5-target.png,250,2.7239999999999998,5,6908,259,feet,jsons/v1_VE250_randls_2_rotated.json,1113756,1412273,57,Man
80,834029,DepthScenes,duration_manipulation_targetAtFixation,jsons/v1_VE250_randls_2_rotated.json,http://54.235.29.9/FacialAge/BNav_EC2/DepthDuration/v2_depth_duration_MTurk/v2_DepthDuration_HTML.html#27,27,1280,921,1280,1024,8-20-2022,9-19-58,81,depth_duration_stimuli/002323_2014-06-28_20-01-54_260595134347_rgbf000051-resize_4/002323_2014-06-28_20-01-54_260595134347_rgbf000051-resize_4-target.png,250,3.7310000000000003,10,6310,249,feet,jsons/v1_VE250_randls_2_rotated.json,1113756,1412273,57,Man
81,834029,DepthScenes,duration_manipulation_targetAtFixation,jsons/v1_VE250_randls_2_rotated.json,http://54.235.29.9/FacialAge/BNav_EC2/DepthDuration/v2_depth_duration_MTurk/v2_DepthDuration_HTML.html#27,27,1280,921,1280,1024,8-20-2022,9-19-58,82,depth_duration_stimuli/000917_2014-06-09_22-45-29_260595134347_rgbf000149-resize_3/000917_2014-06-09_22-45-29_260595134347_rgbf000149-resize_3-target.png,250,4.1865,6,8287,250,feet,jsons/v1_VE250_randls_2_rotated.json,1113756,1412273,57,Man
82,834029,DepthScenes,duration_manipulation_targetAtFixation,jsons/v1_VE250_randls_2_rotated.json,http://54.235.29.9/FacialAge/BNav_EC2/DepthDuration/v2_depth_duration_MTurk/v2_DepthDuration_HTML.html#27,27,1280,921,1280,1024,8-20-2022,9-19-58,83,depth_duration_stimuli/001447_2014-06-19_17-00-32_260595134347_rgbf000082-resize_5/001447_2014-06-19_17-00-32_260595134347_rgbf000082-resize_5-target.png,250,4.13775,4,6521,260,feet,jsons/v1_VE250_randls_2_rotated.json,1113756,1412273,57,Man
83,834029,DepthScenes,duration_manipulation_targetAtFixation,jsons/v1_VE250_randls_2_rotated.json,http://54.235.29.9/FacialAge/BNav_EC2/DepthDuration/v2_depth_duration_MTurk/v2_DepthDuration_HTML.html#27,27,1280,921,1280,1024,8-20-2022,9-19-58,84,depth_duration_stimuli/000447_2014-06-08_16-15-46_260595134347_rgbf000130-resize_1/000447_2014-06-08_16-15-46_260595134347_rgbf000130-resize_1-target.png,250,4.479,7,6580,257,feet,jsons/v1_VE250_randls_2_rotated.json,1113756,1412273,57,Man
84,834029,DepthScenes,duration_manipulation_targetAtFixation,jsons/v1_VE250_randls_2_rotated.json,http://54.235.29.9/FacialAge/BNav_EC2/DepthDuration/v2_depth_duration_MTurk/v2_DepthDuration_HTML.html#27,27,1280,921,1280,1024,8-20-2022,9-19-58,85,depth_duration_stimuli/002425_2014-06-28_20-27-29_260595134347_rgbf000031-resize_8/002425_2014-06-28_20-27-29_260595134347_rgbf000031-resize_8-target.png,250,3.8960000000000004,7,5438,240,feet,jsons/v1_VE250_randls_2_rotated.json,1113756,1412273,57,Man
85,834029,DepthScenes,duration_manipulation_targetAtFixation,jsons/v1_VE250_randls_2_rotated.json,http://54.235.29.9/FacialAge/BNav_EC2/DepthDuration/v2_depth_duration_MTurk/v2_DepthDuration_HTML.html#27,27,1280,921,1280,1024,8-20-2022,9-19-58,86,depth_duration_stimuli/000642_2014-06-08_16-59-25_260595134347_rgbf000098-resize_2/000642_2014-06-08_16-59-25_260595134347_rgbf000098-resize_2-target.png,250,2.8815,4,8290,255,feet,jsons/v1_VE250_randls_2_rotated.json,1113756,1412273,57,Man
86,834029,DepthScenes,duration_manipulation_targetAtFixation,jsons/v1_VE250_randls_2_rotated.json,http://54.235.29.9/FacialAge/BNav_EC2/DepthDuration/v2_depth_duration_MTurk/v2_DepthDuration_HTML.html#27,27,1280,921,1280,1024,8-20-2022,9-19-58,87,depth_duration_stimuli/000103_2014-05-14_22-01-17_260595134347_rgbf000152-resize_5/000103_2014-05-14_22-01-17_260595134347_rgbf000152-resize_5-target.png,250,1.993,6,4668,254,feet,jsons/v1_VE250_randls_2_rotated.json,1113756,1412273,57,Man
87,834029,DepthScenes,duration_manipulation_targetAtFixation,jsons/v1_VE250_randls_2_rotated.json,http://54.235.29.9/FacialAge/BNav_EC2/DepthDuration/v2_depth_duration_MTurk/v2_DepthDuration_HTML.html#27,27,1280,921,1280,1024,8-20-2022,9-19-58,88,depth_duration_stimuli/001555_2014-06-20_17-12-10_260595134347_rgbf000065-resize_4/001555_2014-06-20_17-12-10_260595134347_rgbf000065-resize_4-target.png,250,1.633,3,4642,249,feet,jsons/v1_VE250_randls_2_rotated.json,1113756,1412273,57,Man
88,834029,DepthScenes,duration_manipulation_targetAtFixation,jsons/v1_VE250_randls_2_rotated.json,http://54.235.29.9/FacialAge/BNav_EC2/DepthDuration/v2_depth_duration_MTurk/v2_DepthDuration_HTML.html#27,27,1280,921,1280,1024,8-20-2022,9-19-58,89,depth_duration_stimuli/003048_2014-06-15_13-49-43_094959634447_rgbf000150-resize_1/003048_2014-06-15_13-49-43_094959634447_rgbf000150-resize_1-target.png,250,4.0035,7,10034,262,feet,jsons/v1_VE250_randls_2_rotated.json,1113756,1412273,57,Man
89,834029,DepthScenes,duration_manipulation_targetAtFixation,jsons/v1_VE250_randls_2_rotated.json,http://54.235.29.9/FacialAge/BNav_EC2/DepthDuration/v2_depth_duration_MTurk/v2_DepthDuration_HTML.html#27,27,1280,921,1280,1024,8-20-2022,9-19-58,90,depth_duration_stimuli/002043_2014-06-24_20-29-38_260595134347_rgbf000039-resize_4/002043_2014-06-24_20-29-38_260595134347_rgbf000039-resize_4-target.png,250,2.8435,8,6541,250,feet,jsons/v1_VE250_randls_2_rotated.json,1113756,1412273,57,Man
90,834029,DepthScenes,duration_manipulation_targetAtFixation,jsons/v1_VE250_randls_2_rotated.json,http://54.235.29.9/FacialAge/BNav_EC2/DepthDuration/v2_depth_duration_MTurk/v2_DepthDuration_HTML.html#27,27,1280,921,1280,1024,8-20-2022,9-19-58,91,depth_duration_stimuli/002758_2014-06-22_19-11-20_094959634447_rgbf000128-resize_1/002758_2014-06-22_19-11-20_094959634447_rgbf000128-resize_1-target.png,250,2.555,4,4812,250,feet,jsons/v1_VE250_randls_2_rotated.json,1113756,1412273,57,Man
91,834029,DepthScenes,duration_manipulation_targetAtFixation,jsons/v1_VE250_randls_2_rotated.json,http://54.235.29.9/FacialAge/BNav_EC2/DepthDuration/v2_depth_duration_MTurk/v2_DepthDuration_HTML.html#27,27,1280,921,1280,1024,8-20-2022,9-19-58,92,depth_duration_stimuli/002630_2014-06-24_14-47-50_094959634447_rgbf000055-resize_1/002630_2014-06-24_14-47-50_094959634447_rgbf000055-resize_1-target.png,250,3.0095,10,5672,245,feet,jsons/v1_VE250_randls_2_rotated.json,1113756,1412273,57,Man
92,834029,DepthScenes,duration_manipulation_targetAtFixation,jsons/v1_VE250_randls_2_rotated.json,http://54.235.29.9/FacialAge/BNav_EC2/DepthDuration/v2_depth_duration_MTurk/v2_DepthDuration_HTML.html#27,27,1280,921,1280,1024,8-20-2022,9-19-58,93,depth_duration_stimuli/003495_2014-05-21_16-01-51_094959634447_rgbf000100-resize_3/003495_2014-05-21_16-01-51_094959634447_rgbf000100-resize_3-target.png,250,1.6255,4,6362,261,feet,jsons/v1_VE250_randls_2_rotated.json,1113756,1412273,57,Man
93,834029,DepthScenes,duration_manipulation_targetAtFixation,jsons/v1_VE250_randls_2_rotated.json,http://54.235.29.9/FacialAge/BNav_EC2/DepthDuration/v2_depth_duration_MTurk/v2_DepthDuration_HTML.html#27,27,1280,921,1280,1024,8-20-2022,9-19-58,94,depth_duration_stimuli/001244_2014-06-17_16-47-45_260595134347_rgbf000030-resize_4/001244_2014-06-17_16-47-45_260595134347_rgbf000030-resize_4-target.png,250,2.0425,4,7466,260,feet,jsons/v1_VE250_randls_2_rotated.json,1113756,1412273,57,Man
94,834029,DepthScenes,duration_manipulation_targetAtFixation,jsons/v1_VE250_randls_2_rotated.json,http://54.235.29.9/FacialAge/BNav_EC2/DepthDuration/v2_depth_duration_MTurk/v2_DepthDuration_HTML.html#27,27,1280,921,1280,1024,8-20-2022,9-19-58,95,depth_duration_stimuli/002639_2014-06-24_14-51-37_094959634447_rgbf000074-resize_4/002639_2014-06-24_14-51-37_094959634447_rgbf000074-resize_4-target.png,250,4.0375,10,8252,228,feet,jsons/v1_VE250_randls_2_rotated.json,1113756,1412273,57,Man
95,834029,DepthScenes,duration_manipulation_targetAtFixation,jsons/v1_VE250_randls_2_rotated.json,http://54.235.29.9/FacialAge/BNav_EC2/DepthDuration/v2_depth_duration_MTurk/v2_DepthDuration_HTML.html#27,27,1280,921,1280,1024,8-20-2022,9-19-58,96,depth_duration_stimuli/003292_2014-05-14_21-53-49_094959634447_rgbf000100-resize_2/003292_2014-05-14_21-53-49_094959634447_rgbf000100-resize_2-target.png,250,3.4815,6,6080,260,feet,jsons/v1_VE250_randls_2_rotated.json,1113756,1412273,57,Man
96,834029,DepthScenes,duration_manipulation_targetAtFixation,jsons/v1_VE250_randls_2_rotated.json,http://54.235.29.9/FacialAge/BNav_EC2/DepthDuration/v2_depth_duration_MTurk/v2_DepthDuration_HTML.html#27,27,1280,921,1280,1024,8-20-2022,9-19-58,97,depth_duration_stimuli/000457_2014-06-08_16-52-43_260595134347_rgbf000199-resize_1/000457_2014-06-08_16-52-43_260595134347_rgbf000199-resize_1-target.png,250,3.6489999999999996,6,5702,269,feet,jsons/v1_VE250_randls_2_rotated.json,1113756,1412273,57,Man
97,834029,DepthScenes,duration_manipulation_targetAtFixation,jsons/v1_VE250_randls_2_rotated.json,http://54.235.29.9/FacialAge/BNav_EC2/DepthDuration/v2_depth_duration_MTurk/v2_DepthDuration_HTML.html#27,27,1280,921,1280,1024,8-20-2022,9-19-58,98,depth_duration_stimuli/000929_2014-06-09_16-33-19_260595134347_rgbf000139-resize_0/000929_2014-06-09_16-33-19_260595134347_rgbf000139-resize_0-target.png,250,2.8680000000000003,5,4508,250,feet,jsons/v1_VE250_randls_2_rotated.json,1113756,1412273,57,Man
98,834029,DepthScenes,duration_manipulation_targetAtFixation,jsons/v1_VE250_randls_2_rotated.json,http://54.235.29.9/FacialAge/BNav_EC2/DepthDuration/v2_depth_duration_MTurk/v2_DepthDuration_HTML.html#27,27,1280,921,1280,1024,8-20-2022,9-19-58,99,depth_duration_stimuli/001222_2014-06-17_16-24-06_260595134347_rgbf000073-resize_0/001222_2014-06-17_16-24-06_260595134347_rgbf000073-resize-original.jpg,250,1.4385,0,13102,230,feet,jsons/v1_VE250_randls_2_rotated.json,1113756,1412273,57,Man
99,834029,DepthScenes,duration_manipulation_targetAtFixation,jsons/v1_VE250_randls_2_rotated.json,http://54.235.29.9/FacialAge/BNav_EC2/DepthDuration/v2_depth_duration_MTurk/v2_DepthDuration_HTML.html#27,27,1280,921,1280,1024,8-20-2022,9-19-58,100,depth_duration_stimuli/003338_2014-05-20_11-01-23_094959634447_rgbf000051-resize_6/003338_2014-05-20_11-01-23_094959634447_rgbf000051-resize_6-target.png,250,1.693,3,8941,236,feet,jsons/v1_VE250_randls_2_rotated.json,1113756,1412273,57,Man
100,834029,DepthScenes,duration_manipulation_targetAtFixation,jsons/v1_VE250_randls_2_rotated.json,http://54.235.29.9/FacialAge/BNav_EC2/DepthDuration/v2_depth_duration_MTurk/v2_DepthDuration_HTML.html#27,27,1280,921,1280,1024,8-20-2022,9-19-58,101,depth_duration_stimuli/002509_2014-06-24_13-19-22_094959634447_rgbf000077-resize_0/002509_2014-06-24_13-19-22_094959634447_rgbf000077-resize_0-target.png,250,1.3065,2,3716,259,feet,jsons/v1_VE250_randls_2_rotated.json,1113756,1412273,57,Man
101,834029,DepthScenes,duration_manipulation_targetAtFixation,jsons/v1_VE250_randls_2_rotated.json,http://54.235.29.9/FacialAge/BNav_EC2/DepthDuration/v2_depth_duration_MTurk/v2_DepthDuration_HTML.html#27,27,1280,921,1280,1024,8-20-2022,9-19-58,102,depth_duration_stimuli/002750_2014-06-22_19-08-03_094959634447_rgbf000094-resize_4/002750_2014-06-22_19-08-03_094959634447_rgbf000094-resize_4-target.png,250,2.354,6,5286,272,feet,jsons/v1_VE250_randls_2_rotated.json,1113756,1412273,57,Man
102,834029,DepthScenes,duration_manipulation_targetAtFixation,jsons/v1_VE250_randls_2_rotated.json,http://54.235.29.9/FacialAge/BNav_EC2/DepthDuration/v2_depth_duration_MTurk/v2_DepthDuration_HTML.html#27,27,1280,921,1280,1024,8-20-2022,9-19-58,103,depth_duration_stimuli/002549_2014-06-24_13-41-39_094959634447_rgbf000022-resize_3/002549_2014-06-24_13-41-39_094959634447_rgbf000022-resize_3-target.png,250,1.476,3,5644,259,feet,jsons/v1_VE250_randls_2_rotated.json,1113756,1412273,57,Man
103,834029,DepthScenes,duration_manipulation_targetAtFixation,jsons/v1_VE250_randls_2_rotated.json,http://54.235.29.9/FacialAge/BNav_EC2/DepthDuration/v2_depth_duration_MTurk/v2_DepthDuration_HTML.html#27,27,1280,921,1280,1024,8-20-2022,9-19-58,104,depth_duration_stimuli/000483_2014-06-09_20-41-45_260595134347_rgbf000116-resize_4/000483_2014-06-09_20-41-45_260595134347_rgbf000116-resize_4-target.png,250,1.337,3,3954,259,feet,jsons/v1_VE250_randls_2_rotated.json,1113756,1412273,57,Man
104,834029,DepthScenes,duration_manipulation_targetAtFixation,jsons/v1_VE250_randls_2_rotated.json,http://54.235.29.9/FacialAge/BNav_EC2/DepthDuration/v2_depth_duration_MTurk/v2_DepthDuration_HTML.html#27,27,1280,921,1280,1024,8-20-2022,9-19-58,105,depth_duration_stimuli/000469_2014-06-09_19-42-10_260595134347_rgbf000081-resize_1/000469_2014-06-09_19-42-10_260595134347_rgbf000081-resize_1-target.png,250,1.652,3,4568,249,feet,jsons/v1_VE250_randls_2_rotated.json,1113756,1412273,57,Man
105,834029,DepthScenes,duration_manipulation_targetAtFixation,jsons/v1_VE250_randls_2_rotated.json,http://54.235.29.9/FacialAge/BNav_EC2/DepthDuration/v2_depth_duration_MTurk/v2_DepthDuration_HTML.html#27,27,1280,921,1280,1024,8-20-2022,9-19-58,106,depth_duration_stimuli/002949_2014-06-26_15-57-42_094959634447_rgbf000079-resize_1/002949_2014-06-26_15-57-42_094959634447_rgbf000079-resize_1-target.png,250,1.8915,3,4252,250,feet,jsons/v1_VE250_randls_2_rotated.json,1113756,1412273,57,Man
106,834029,DepthScenes,duration_manipulation_targetAtFixation,jsons/v1_VE250_randls_2_rotated.json,http://54.235.29.9/FacialAge/BNav_EC2/DepthDuration/v2_depth_duration_MTurk/v2_DepthDuration_HTML.html#27,27,1280,921,1280,1024,8-20-2022,9-19-58,107,depth_duration_stimuli/000522_2014-06-08_13-35-06_260595134347_rgbf000244-resize_1/000522_2014-06-08_13-35-06_260595134347_rgbf000244-resize_1-target.png,250,2.3715,2,3916,254,feet,jsons/v1_VE250_randls_2_rotated.json,1113756,1412273,57,Man
107,834029,DepthScenes,duration_manipulation_targetAtFixation,jsons/v1_VE250_randls_2_rotated.json,http://54.235.29.9/FacialAge/BNav_EC2/DepthDuration/v2_depth_duration_MTurk/v2_DepthDuration_HTML.html#27,27,1280,921,1280,1024,8-20-2022,9-19-58,108,depth_duration_stimuli/003081_2014-06-15_15-19-16_094959634447_rgbf000150-resize_1/003081_2014-06-15_15-19-16_094959634447_rgbf000150-resize_1-target.png,250,3.9125,6,5732,239,feet,jsons/v1_VE250_randls_2_rotated.json,1113756,1412273,57,Man
108,834029,DepthScenes,duration_manipulation_targetAtFixation,jsons/v1_VE250_randls_2_rotated.json,http://54.235.29.9/FacialAge/BNav_EC2/DepthDuration/v2_depth_duration_MTurk/v2_DepthDuration_HTML.html#27,27,1280,921,1280,1024,8-20-2022,9-19-58,109,depth_duration_stimuli/001417_2014-06-19_16-25-36_260595134347_rgbf000115-resize_5/001417_2014-06-19_16-25-36_260595134347_rgbf000115-resize_5-target.png,250,4.6255,10,8814,260,feet,jsons/v1_VE250_randls_2_rotated.json,1113756,1412273,57,Man
109,834029,DepthScenes,duration_manipulation_targetAtFixation,jsons/v1_VE250_randls_2_rotated.json,http://54.235.29.9/FacialAge/BNav_EC2/DepthDuration/v2_depth_duration_MTurk/v2_DepthDuration_HTML.html#27,27,1280,921,1280,1024,8-20-2022,9-19-58,110,depth_duration_stimuli/001132_2014-06-17_14-48-54_260595134347_rgbf000100-resize_2/001132_2014-06-17_14-48-54_260595134347_rgbf000100-resize_2-target.png,250,3.753,6,17266,265,feet,jsons/v1_VE250_randls_2_rotated.json,1113756,1412273,57,Man
110,834029,DepthScenes,duration_manipulation_targetAtFixation,jsons/v1_VE250_randls_2_rotated.json,http://54.235.29.9/FacialAge/BNav_EC2/DepthDuration/v2_depth_duration_MTurk/v2_DepthDuration_HTML.html#27,27,1280,921,1280,1024,8-20-2022,9-19-58,111,depth_duration_stimuli/001133_2014-06-17_14-49-16_260595134347_rgbf000100-resize_0/001133_2014-06-17_14-49-16_260595134347_rgbf000100-resize_0-target.png,250,4.2115,7,9531,241,feet,jsons/v1_VE250_randls_2_rotated.json,1113756,1412273,57,Man
111,834029,DepthScenes,duration_manipulation_targetAtFixation,jsons/v1_VE250_randls_2_rotated.json,http://54.235.29.9/FacialAge/BNav_EC2/DepthDuration/v2_depth_duration_MTurk/v2_DepthDuration_HTML.html#27,27,1280,921,1280,1024,8-20-2022,9-19-58,112,depth_duration_stimuli/000742_2014-06-08_18-48-09_260595134347_rgbf000164-resize_4/000742_2014-06-08_18-48-09_260595134347_rgbf000164-resize_4-target.png,250,4.632,7,8751,259,feet,jsons/v1_VE250_randls_2_rotated.json,1113756,1412273,57,Man
112,834029,DepthScenes,duration_manipulation_targetAtFixation,jsons/v1_VE250_randls_2_rotated.json,http://54.235.29.9/FacialAge/BNav_EC2/DepthDuration/v2_depth_duration_MTurk/v2_DepthDuration_HTML.html#27,27,1280,921,1280,1024,8-20-2022,9-19-58,113,depth_duration_stimuli/001066_2014-06-08_22-03-20_260595134347_rgbf000066-resize_4/001066_2014-06-08_22-03-20_260595134347_rgbf000066-resize_4-target.png,250,4.2330000000000005,8,4522,261,feet,jsons/v1_VE250_randls_2_rotated.json,1113756,1412273,57,Man
113,834029,DepthScenes,duration_manipulation_targetAtFixation,jsons/v1_VE250_randls_2_rotated.json,http://54.235.29.9/FacialAge/BNav_EC2/DepthDuration/v2_depth_duration_MTurk/v2_DepthDuration_HTML.html#27,27,1280,921,1280,1024,8-20-2022,9-19-58,114,depth_duration_stimuli/002136_2014-06-25_21-18-03_260595134347_rgbf000109-resize_3/002136_2014-06-25_21-18-03_260595134347_rgbf000109-resize_3-target.png,250,1.9569999999999999,4,4558,247,feet,jsons/v1_VE250_randls_2_rotated.json,1113756,1412273,57,Man
114,834029,DepthScenes,duration_manipulation_targetAtFixation,jsons/v1_VE250_randls_2_rotated.json,http://54.235.29.9/FacialAge/BNav_EC2/DepthDuration/v2_depth_duration_MTurk/v2_DepthDuration_HTML.html#27,27,1280,921,1280,1024,8-20-2022,9-19-58,115,depth_duration_stimuli/002964_2014-06-08_17-46-11_094959634447_rgbf000091-resize_4/002964_2014-06-08_17-46-11_094959634447_rgbf000091-resize_4-target.png,250,1.6909999999999998,3,4306,244,feet,jsons/v1_VE250_randls_2_rotated.json,1113756,1412273,57,Man
115,834029,DepthScenes,duration_manipulation_targetAtFixation,jsons/v1_VE250_randls_2_rotated.json,http://54.235.29.9/FacialAge/BNav_EC2/DepthDuration/v2_depth_duration_MTurk/v2_DepthDuration_HTML.html#27,27,1280,921,1280,1024,8-20-2022,9-19-58,116,depth_duration_stimuli/001136_2014-06-17_15-19-41_260595134347_rgbf000076-resize_3/001136_2014-06-17_15-19-41_260595134347_rgbf000076-resize_3-target.png,250,1.8655,3,4992,250,feet,jsons/v1_VE250_randls_2_rotated.json,1113756,1412273,57,Man
116,834029,DepthScenes,duration_manipulation_targetAtFixation,jsons/v1_VE250_randls_2_rotated.json,http://54.235.29.9/FacialAge/BNav_EC2/DepthDuration/v2_depth_duration_MTurk/v2_DepthDuration_HTML.html#27,27,1280,921,1280,1024,8-20-2022,9-19-58,117,depth_duration_stimuli/001164_2014-06-17_15-35-46_260595134347_rgbf000085-resize_3/001164_2014-06-17_15-35-46_260595134347_rgbf000085-resize_3-target.png,250,2.354,5,6843,240,feet,jsons/v1_VE250_randls_2_rotated.json,1113756,1412273,57,Man
117,834029,DepthScenes,duration_manipulation_targetAtFixation,jsons/v1_VE250_randls_2_rotated.json,http://54.235.29.9/FacialAge/BNav_EC2/DepthDuration/v2_depth_duration_MTurk/v2_DepthDuration_HTML.html#27,27,1280,921,1280,1024,8-20-2022,9-19-58,118,depth_duration_stimuli/002568_2014-06-24_13-59-21_094959634447_rgbf000062-resize_4/002568_2014-06-24_13-59-21_094959634447_rgbf000062-resize_4-target.png,250,3.015,6,5898,258,feet,jsons/v1_VE250_randls_2_rotated.json,1113756,1412273,57,Man
118,834029,DepthScenes,duration_manipulation_targetAtFixation,jsons/v1_VE250_randls_2_rotated.json,http://54.235.29.9/FacialAge/BNav_EC2/DepthDuration/v2_depth_duration_MTurk/v2_DepthDuration_HTML.html#27,27,1280,921,1280,1024,8-20-2022,9-19-58,119,depth_duration_stimuli/003492_2014-05-21_15-50-55_094959634447_rgbf000828-resize_1/003492_2014-05-21_15-50-55_094959634447_rgbf000828-resize_1-target.png,250,4.06875,9,11212,250,feet,jsons/v1_VE250_randls_2_rotated.json,1113756,1412273,57,Man
119,834029,DepthScenes,duration_manipulation_targetAtFixation,jsons/v1_VE250_randls_2_rotated.json,http://54.235.29.9/FacialAge/BNav_EC2/DepthDuration/v2_depth_duration_MTurk/v2_DepthDuration_HTML.html#27,27,1280,921,1280,1024,8-20-2022,9-19-58,120,depth_duration_stimuli/000787_2014-06-08_22-33-53_260595134347_rgbf000175-resize_1/000787_2014-06-08_22-33-53_260595134347_rgbf000175-resize-original.jpg,250,4.784,0,4218,254,feet,jsons/v1_VE250_randls_2_rotated.json,1113756,1412273,57,Man
120,834029,DepthScenes,duration_manipulation_targetAtFixation,jsons/v1_VE250_randls_2_rotated.json,http://54.235.29.9/FacialAge/BNav_EC2/DepthDuration/v2_depth_duration_MTurk/v2_DepthDuration_HTML.html#27,27,1280,921,1280,1024,8-20-2022,9-19-58,121,depth_duration_stimuli/002467_2014-06-28_20-38-07_260595134347_rgbf000026-resize_2/002467_2014-06-28_20-38-07_260595134347_rgbf000026-resize_2-target.png,250,4.742,8,9202,247,feet,jsons/v1_VE250_randls_2_rotated.json,1113756,1412273,57,Man
121,834029,DepthScenes,duration_manipulation_targetAtFixation,jsons/v1_VE250_randls_2_rotated.json,http://54.235.29.9/FacialAge/BNav_EC2/DepthDuration/v2_depth_duration_MTurk/v2_DepthDuration_HTML.html#27,27,1280,921,1280,1024,8-20-2022,9-19-58,122,depth_duration_stimuli/002570_2014-06-24_13-59-54_094959634447_rgbf000059-resize_0/002570_2014-06-24_13-59-54_094959634447_rgbf000059-resize_0-target.png,250,4.037,6,7701,260,feet,jsons/v1_VE250_randls_2_rotated.json,1113756,1412273,57,Man
122,834029,DepthScenes,duration_manipulation_targetAtFixation,jsons/v1_VE250_randls_2_rotated.json,http://54.235.29.9/FacialAge/BNav_EC2/DepthDuration/v2_depth_duration_MTurk/v2_DepthDuration_HTML.html#27,27,1280,921,1280,1024,8-20-2022,9-19-58,123,depth_duration_stimuli/000866_2014-06-09_20-45-42_260595134347_rgbf000139-resize_1/000866_2014-06-09_20-45-42_260595134347_rgbf000139-resize_1-target.png,250,3.2155,5,5925,236,feet,jsons/v1_VE250_randls_2_rotated.json,1113756,1412273,57,Man
123,834029,DepthScenes,duration_manipulation_targetAtFixation,jsons/v1_VE250_randls_2_rotated.json,http://54.235.29.9/FacialAge/BNav_EC2/DepthDuration/v2_depth_duration_MTurk/v2_DepthDuration_HTML.html#27,27,1280,921,1280,1024,8-20-2022,9-19-58,124,depth_duration_stimuli/002989_2014-06-15_12-25-03_094959634447_rgbf000150-resize_3/002989_2014-06-15_12-25-03_094959634447_rgbf000150-resize_3-target.png,250,4.1975,10,8378,244,feet,jsons/v1_VE250_randls_2_rotated.json,1113756,1412273,57,Man
124,834029,DepthScenes,duration_manipulation_targetAtFixation,jsons/v1_VE250_randls_2_rotated.json,http://54.235.29.9/FacialAge/BNav_EC2/DepthDuration/v2_depth_duration_MTurk/v2_DepthDuration_HTML.html#27,27,1280,921,1280,1024,8-20-2022,9-19-58,125,depth_duration_stimuli/002678_2014-06-13_16-15-32_094959634447_rgbf000151-resize_6/002678_2014-06-13_16-15-32_094959634447_rgbf000151-resize_6-target.png,250,2.1830000000000003,4,7261,252,feet,jsons/v1_VE250_randls_2_rotated.json,1113756,1412273,57,Man
125,834029,DepthScenes,duration_manipulation_targetAtFixation,jsons/v1_VE250_randls_2_rotated.json,http://54.235.29.9/FacialAge/BNav_EC2/DepthDuration/v2_depth_duration_MTurk/v2_DepthDuration_HTML.html#27,27,1280,921,1280,1024,8-20-2022,9-19-58,126,depth_duration_stimuli/000368_2014-06-09_15-53-01_260595134347_rgbf000155-resize_2/000368_2014-06-09_15-53-01_260595134347_rgbf000155-resize_2-target.png,250,2.4859999999999998,3,9121,248,feet,jsons/v1_VE250_randls_2_rotated.json,1113756,1412273,57,Man
126,834029,DepthScenes,duration_manipulation_targetAtFixation,jsons/v1_VE250_randls_2_rotated.json,http://54.235.29.9/FacialAge/BNav_EC2/DepthDuration/v2_depth_duration_MTurk/v2_DepthDuration_HTML.html#27,27,1280,921,1280,1024,8-20-2022,9-19-58,127,depth_duration_stimuli/000502_2014-06-08_23-02-32_260595134347_rgbf000063-resize_4/000502_2014-06-08_23-02-32_260595134347_rgbf000063-resize_4-target.png,250,2.431,4,4507,260,feet,jsons/v1_VE250_randls_2_rotated.json,1113756,1412273,57,Man
127,834029,DepthScenes,duration_manipulation_targetAtFixation,jsons/v1_VE250_randls_2_rotated.json,http://54.235.29.9/FacialAge/BNav_EC2/DepthDuration/v2_depth_duration_MTurk/v2_DepthDuration_HTML.html#27,27,1280,921,1280,1024,8-20-2022,9-19-58,128,depth_duration_stimuli/001199_2014-06-17_16-03-48_260595134347_rgbf000077-resize_0/001199_2014-06-17_16-03-48_260595134347_rgbf000077-resize_0-target.png,250,3.4375,7,4979,248,feet,jsons/v1_VE250_randls_2_rotated.json,1113756,1412273,57,Man
128,834029,DepthScenes,duration_manipulation_targetAtFixation,jsons/v1_VE250_randls_2_rotated.json,http://54.235.29.9/FacialAge/BNav_EC2/DepthDuration/v2_depth_duration_MTurk/v2_DepthDuration_HTML.html#27,27,1280,921,1280,1024,8-20-2022,9-19-58,129,depth_duration_stimuli/000943_2014-06-09_19-31-07_260595134347_rgbf000128-resize_1/000943_2014-06-09_19-31-07_260595134347_rgbf000128-resize_1-target.png,250,1.9765,4,4421,240,feet,jsons/v1_VE250_randls_2_rotated.json,1113756,1412273,57,Man
129,834029,DepthScenes,duration_manipulation_targetAtFixation,jsons/v1_VE250_randls_2_rotated.json,http://54.235.29.9/FacialAge/BNav_EC2/DepthDuration/v2_depth_duration_MTurk/v2_DepthDuration_HTML.html#27,27,1280,921,1280,1024,8-20-2022,9-19-58,130,depth_duration_stimuli/003070_2014-06-15_14-58-27_094959634447_rgbf000150-resize_3/003070_2014-06-15_14-58-27_094959634447_rgbf000150-resize_3-target.png,250,2.9415,5,9189,240,feet,jsons/v1_VE250_randls_2_rotated.json,1113756,1412273,57,Man
130,834029,DepthScenes,duration_manipulation_targetAtFixation,jsons/v1_VE250_randls_2_rotated.json,http://54.235.29.9/FacialAge/BNav_EC2/DepthDuration/v2_depth_duration_MTurk/v2_DepthDuration_HTML.html#27,27,1280,921,1280,1024,8-20-2022,9-19-58,131,depth_duration_stimuli/000191_2014-05-12_17-07-38_260595134347_rgbf000199-resize_0/000191_2014-05-12_17-07-38_260595134347_rgbf000199-resize_0-target.png,250,3.7995,7,6359,252,feet,jsons/v1_VE250_randls_2_rotated.json,1113756,1412273,57,Man
131,834029,DepthScenes,duration_manipulation_targetAtFixation,jsons/v1_VE250_randls_2_rotated.json,http://54.235.29.9/FacialAge/BNav_EC2/DepthDuration/v2_depth_duration_MTurk/v2_DepthDuration_HTML.html#27,27,1280,921,1280,1024,8-20-2022,9-19-58,132,depth_duration_stimuli/000493_2014-06-09_21-01-18_260595134347_rgbf000196-resize_3/000493_2014-06-09_21-01-18_260595134347_rgbf000196-resize_3-target.png,250,3.44,5,7449,250,feet,jsons/v1_VE250_randls_2_rotated.json,1113756,1412273,57,Man
132,834029,DepthScenes,duration_manipulation_targetAtFixation,jsons/v1_VE250_randls_2_rotated.json,http://54.235.29.9/FacialAge/BNav_EC2/DepthDuration/v2_depth_duration_MTurk/v2_DepthDuration_HTML.html#27,27,1280,921,1280,1024,8-20-2022,9-19-58,133,depth_duration_stimuli/001214_2014-06-17_16-13-55_260595134347_rgbf000111-resize_0/001214_2014-06-17_16-13-55_260595134347_rgbf000111-resize_0-target.png,250,2.6505,4,8903,240,feet,jsons/v1_VE250_randls_2_rotated.json,1113756,1412273,57,Man
133,834029,DepthScenes,duration_manipulation_targetAtFixation,jsons/v1_VE250_randls_2_rotated.json,http://54.235.29.9/FacialAge/BNav_EC2/DepthDuration/v2_depth_duration_MTurk/v2_DepthDuration_HTML.html#27,27,1280,921,1280,1024,8-20-2022,9-19-58,134,depth_duration_stimuli/000810_2014-06-08_17-20-01_260595134347_rgbf000105-resize_0/000810_2014-06-08_17-20-01_260595134347_rgbf000105-resize_0-target.png,250,1.4865,3,6394,253,feet,jsons/v1_VE250_randls_2_rotated.json,1113756,1412273,57,Man
134,834029,DepthScenes,duration_manipulation_targetAtFixation,jsons/v1_VE250_randls_2_rotated.json,http://54.235.29.9/FacialAge/BNav_EC2/DepthDuration/v2_depth_duration_MTurk/v2_DepthDuration_HTML.html#27,27,1280,921,1280,1024,8-20-2022,9-19-58,135,depth_duration_stimuli/000375_2014-06-08_11-17-29_260595134347_rgbf000133-resize_2/000375_2014-06-08_11-17-29_260595134347_rgbf000133-resize-original.jpg,250,4.718,0,3951,260,feet,jsons/v1_VE250_randls_2_rotated.json,1113756,1412273,57,Man
135,834029,DepthScenes,duration_manipulation_targetAtFixation,jsons/v1_VE250_randls_2_rotated.json,http://54.235.29.9/FacialAge/BNav_EC2/DepthDuration/v2_depth_duration_MTurk/v2_DepthDuration_HTML.html#27,27,1280,921,1280,1024,8-20-2022,9-19-58,136,depth_duration_stimuli/001815_2014-06-26_20-52-55_260595134347_rgbf000020-resize_0/001815_2014-06-26_20-52-55_260595134347_rgbf000020-resize_0-target.png,250,3.3865,7,4818,249,feet,jsons/v1_VE250_randls_2_rotated.json,1113756,1412273,57,Man
136,834029,DepthScenes,duration_manipulation_targetAtFixation,jsons/v1_VE250_randls_2_rotated.json,http://54.235.29.9/FacialAge/BNav_EC2/DepthDuration/v2_depth_duration_MTurk/v2_DepthDuration_HTML.html#27,27,1280,921,1280,1024,8-20-2022,9-19-58,137,depth_duration_stimuli/001808_2014-06-26_20-50-58_260595134347_rgbf000029-resize_1/001808_2014-06-26_20-50-58_260595134347_rgbf000029-resize_1-target.png,250,4.249,7,4206,244,feet,jsons/v1_VE250_randls_2_rotated.json,1113756,1412273,57,Man
137,834029,DepthScenes,duration_manipulation_targetAtFixation,jsons/v1_VE250_randls_2_rotated.json,http://54.235.29.9/FacialAge/BNav_EC2/DepthDuration/v2_depth_duration_MTurk/v2_DepthDuration_HTML.html#27,27,1280,921,1280,1024,8-20-2022,9-19-58,138,depth_duration_stimuli/002545_2014-06-24_13-38-53_094959634447_rgbf000080-resize_4/002545_2014-06-24_13-38-53_094959634447_rgbf000080-resize_4-target.png,250,1.9205,3,5311,256,feet,jsons/v1_VE250_randls_2_rotated.json,1113756,1412273,57,Man
138,834029,DepthScenes,duration_manipulation_targetAtFixation,jsons/v1_VE250_randls_2_rotated.json,http://54.235.29.9/FacialAge/BNav_EC2/DepthDuration/v2_depth_duration_MTurk/v2_DepthDuration_HTML.html#27,27,1280,921,1280,1024,8-20-2022,9-19-58,139,depth_duration_stimuli/001092_2014-06-15_17-34-58_260595134347_rgbf000171-resize_3/001092_2014-06-15_17-34-58_260595134347_rgbf000171-resize_3-target.png,250,2.6935,3,4293,264,feet,jsons/v1_VE250_randls_2_rotated.json,1113756,1412273,57,Man
139,834029,DepthScenes,duration_manipulation_targetAtFixation,jsons/v1_VE250_randls_2_rotated.json,http://54.235.29.9/FacialAge/BNav_EC2/DepthDuration/v2_depth_duration_MTurk/v2_DepthDuration_HTML.html#27,27,1280,921,1280,1024,8-20-2022,9-19-58,140,depth_duration_stimuli/003423_2014-05-21_10-23-26_094959634447_rgbf002665-resize_2/003423_2014-05-21_10-23-26_094959634447_rgbf002665-resize_2-target.png,250,3.2575,7,5291,239,feet,jsons/v1_VE250_randls_2_rotated.json,1113756,1412273,57,Man
140,834029,DepthScenes,duration_manipulation_targetAtFixation,jsons/v1_VE250_randls_2_rotated.json,http://54.235.29.9/FacialAge/BNav_EC2/DepthDuration/v2_depth_duration_MTurk/v2_DepthDuration_HTML.html#27,27,1280,921,1280,1024,8-20-2022,9-19-58,141,depth_duration_stimuli/002905_2014-06-03_18-04-43_094959634447_rgbf000151-resize_2/002905_2014-06-03_18-04-43_094959634447_rgbf000151-resize_2-target.png,250,2.0295,4,4931,260,feet,jsons/v1_VE250_randls_2_rotated.json,1113756,1412273,57,Man
141,834029,DepthScenes,duration_manipulation_targetAtFixation,jsons/v1_VE250_randls_2_rotated.json,http://54.235.29.9/FacialAge/BNav_EC2/DepthDuration/v2_depth_duration_MTurk/v2_DepthDuration_HTML.html#27,27,1280,921,1280,1024,8-20-2022,9-19-58,142,depth_duration_stimuli/000677_2014-06-08_23-10-32_260595134347_rgbf000158-resize_6/000677_2014-06-08_23-10-32_260595134347_rgbf000158-resize_6-target.png,250,3.556,5,7086,253,feet,jsons/v1_VE250_randls_2_rotated.json,1113756,1412273,57,Man
142,834029,DepthScenes,duration_manipulation_targetAtFixation,jsons/v1_VE250_randls_2_rotated.json,http://54.235.29.9/FacialAge/BNav_EC2/DepthDuration/v2_depth_duration_MTurk/v2_DepthDuration_HTML.html#27,27,1280,921,1280,1024,8-20-2022,9-19-58,143,depth_duration_stimuli/001029_2014-06-08_13-17-57_260595134347_rgbf000065-resize_1/001029_2014-06-08_13-17-57_260595134347_rgbf000065-resize_1-target.png,250,3.0835,6,6494,262,feet,jsons/v1_VE250_randls_2_rotated.json,1113756,1412273,57,Man
143,834029,DepthScenes,duration_manipulation_targetAtFixation,jsons/v1_VE250_randls_2_rotated.json,http://54.235.29.9/FacialAge/BNav_EC2/DepthDuration/v2_depth_duration_MTurk/v2_DepthDuration_HTML.html#27,27,1280,921,1280,1024,8-20-2022,9-19-58,144,depth_duration_stimuli/001450_2014-06-19_17-02-03_260595134347_rgbf000203-resize_4/001450_2014-06-19_17-02-03_260595134347_rgbf000203-resize_4-target.png,250,4.0106666666667,10,5647,260,feet,jsons/v1_VE250_randls_2_rotated.json,1113756,1412273,57,Man
144,834029,DepthScenes,duration_manipulation_targetAtFixation,jsons/v1_VE250_randls_2_rotated.json,http://54.235.29.9/FacialAge/BNav_EC2/DepthDuration/v2_depth_duration_MTurk/v2_DepthDuration_HTML.html#27,27,1280,921,1280,1024,8-20-2022,9-19-58,145,depth_duration_stimuli/001449_2014-06-19_17-01-27_260595134347_rgbf000116-resize_2/001449_2014-06-19_17-01-27_260595134347_rgbf000116-resize_2-target.png,250,3.452,5,4362,249,feet,jsons/v1_VE250_randls_2_rotated.json,1113756,1412273,57,Man
145,834029,DepthScenes,duration_manipulation_targetAtFixation,jsons/v1_VE250_randls_2_rotated.json,http://54.235.29.9/FacialAge/BNav_EC2/DepthDuration/v2_depth_duration_MTurk/v2_DepthDuration_HTML.html#27,27,1280,921,1280,1024,8-20-2022,9-19-58,146,depth_duration_stimuli/002875_2014-06-01_15-19-00_094959634447_rgbf000151-resize_1/002875_2014-06-01_15-19-00_094959634447_rgbf000151-resize_1-target.png,250,1.9675,4,4341,249,feet,jsons/v1_VE250_randls_2_rotated.json,1113756,1412273,57,Man
146,834029,DepthScenes,duration_manipulation_targetAtFixation,jsons/v1_VE250_randls_2_rotated.json,http://54.235.29.9/FacialAge/BNav_EC2/DepthDuration/v2_depth_duration_MTurk/v2_DepthDuration_HTML.html#27,27,1280,921,1280,1024,8-20-2022,9-19-58,147,depth_duration_stimuli/001011_2014-06-08_23-18-54_260595134347_rgbf000044-resize_4/001011_2014-06-08_23-18-54_260595134347_rgbf000044-resize_4-target.png,250,2.4730000000000003,4,4914,247,feet,jsons/v1_VE250_randls_2_rotated.json,1113756,1412273,57,Man
147,834029,DepthScenes,duration_manipulation_targetAtFixation,jsons/v1_VE250_randls_2_rotated.json,http://54.235.29.9/FacialAge/BNav_EC2/DepthDuration/v2_depth_duration_MTurk/v2_DepthDuration_HTML.html#27,27,1280,921,1280,1024,8-20-2022,9-19-58,148,depth_duration_stimuli/000927_2014-06-09_16-32-30_260595134347_rgbf000123-resize_3/000927_2014-06-09_16-32-30_260595134347_rgbf000123-resize_3-target.png,250,2.6785,4,6056,256,feet,jsons/v1_VE250_randls_2_rotated.json,1113756,1412273,57,Man
148,834029,DepthScenes,duration_manipulation_targetAtFixation,jsons/v1_VE250_randls_2_rotated.json,http://54.235.29.9/FacialAge/BNav_EC2/DepthDuration/v2_depth_duration_MTurk/v2_DepthDuration_HTML.html#27,27,1280,921,1280,1024,8-20-2022,9-19-58,149,depth_duration_stimuli/001110_2014-06-15_17-25-28_260595134347_rgbf000150-resize_1/001110_2014-06-15_17-25-28_260595134347_rgbf000150-resize_1-target.png,250,1.7115,3,5462,254,feet,jsons/v1_VE250_randls_2_rotated.json,1113756,1412273,57,Man
149,834029,DepthScenes,duration_manipulation_targetAtFixation,jsons/v1_VE250_randls_2_rotated.json,http://54.235.29.9/FacialAge/BNav_EC2/DepthDuration/v2_depth_duration_MTurk/v2_DepthDuration_HTML.html#27,27,1280,921,1280,1024,8-20-2022,9-19-58,150,depth_duration_stimuli/000549_2014-06-08_22-10-24_260595134347_rgbf000247-resize_3/000549_2014-06-08_22-10-24_260595134347_rgbf000247-resize_3-target.png,250,1.841,2,3711,259,feet,jsons/v1_VE250_randls_2_rotated.json,1113756,1412273,57,Man
150,834029,DepthScenes,duration_manipulation_targetAtFixation,jsons/v1_VE250_randls_2_rotated.json,http://54.235.29.9/FacialAge/BNav_EC2/DepthDuration/v2_depth_duration_MTurk/v2_DepthDuration_HTML.html#27,27,1280,921,1280,1024,8-20-2022,9-19-58,151,depth_duration_stimuli/001055_2014-06-08_18-45-35_260595134347_rgbf000111-resize_4/001055_2014-06-08_18-45-35_260595134347_rgbf000111-resize_4-target.png,250,2.4290000000000003,5,4246,250,feet,jsons/v1_VE250_randls_2_rotated.json,1113756,1412273,57,Man
151,834029,DepthScenes,duration_manipulation_targetAtFixation,jsons/v1_VE250_randls_2_rotated.json,http://54.235.29.9/FacialAge/BNav_EC2/DepthDuration/v2_depth_duration_MTurk/v2_DepthDuration_HTML.html#27,27,1280,921,1280,1024,8-20-2022,9-19-58,152,depth_duration_stimuli/000569_2014-06-09_22-51-47_260595134347_rgbf000141-resize_3/000569_2014-06-09_22-51-47_260595134347_rgbf000141-resize-original.jpg,250,4.512,0,3806,239,feet,jsons/v1_VE250_randls_2_rotated.json,1113756,1412273,57,Man
152,834029,DepthScenes,duration_manipulation_targetAtFixation,jsons/v1_VE250_randls_2_rotated.json,http://54.235.29.9/FacialAge/BNav_EC2/DepthDuration/v2_depth_duration_MTurk/v2_DepthDuration_HTML.html#27,27,1280,921,1280,1024,8-20-2022,9-19-58,153,depth_duration_stimuli/000734_2014-06-08_17-39-11_260595134347_rgbf000128-resize_2/000734_2014-06-08_17-39-11_260595134347_rgbf000128-resize_2-target.png,250,4.098,3,4528,249,feet,jsons/v1_VE250_randls_2_rotated.json,1113756,1412273,57,Man
153,834029,DepthScenes,duration_manipulation_targetAtFixation,jsons/v1_VE250_randls_2_rotated.json,http://54.235.29.9/FacialAge/BNav_EC2/DepthDuration/v2_depth_duration_MTurk/v2_DepthDuration_HTML.html#27,27,1280,921,1280,1024,8-20-2022,9-19-58,154,depth_duration_stimuli/000739_2014-06-08_18-45-58_260595134347_rgbf000068-resize_1/000739_2014-06-08_18-45-58_260595134347_rgbf000068-resize_1-target.png,250,3.534,0,6161,250,feet,jsons/v1_VE250_randls_2_rotated.json,1113756,1412273,57,Man
154,834029,DepthScenes,duration_manipulation_targetAtFixation,jsons/v1_VE250_randls_2_rotated.json,http://54.235.29.9/FacialAge/BNav_EC2/DepthDuration/v2_depth_duration_MTurk/v2_DepthDuration_HTML.html#27,27,1280,921,1280,1024,8-20-2022,9-19-58,155,depth_duration_stimuli/002637_2014-06-24_14-51-13_094959634447_rgbf000066-resize_4/002637_2014-06-24_14-51-13_094959634447_rgbf000066-resize_4-target.png,250,1.9955,4,8417,239,feet,jsons/v1_VE250_randls_2_rotated.json,1113756,1412273,57,Man
155,834029,DepthScenes,duration_manipulation_targetAtFixation,jsons/v1_VE250_randls_2_rotated.json,http://54.235.29.9/FacialAge/BNav_EC2/DepthDuration/v2_depth_duration_MTurk/v2_DepthDuration_HTML.html#27,27,1280,921,1280,1024,8-20-2022,9-19-58,156,depth_duration_stimuli/003534_2014-05-22_15-06-10_094959634447_rgbf000102-resize_4/003534_2014-05-22_15-06-10_094959634447_rgbf000102-resize_4-target.png,250,1.426,2,3893,266,feet,jsons/v1_VE250_randls_2_rotated.json,1113756,1412273,57,Man
156,834029,DepthScenes,duration_manipulation_targetAtFixation,jsons/v1_VE250_randls_2_rotated.json,http://54.235.29.9/FacialAge/BNav_EC2/DepthDuration/v2_depth_duration_MTurk/v2_DepthDuration_HTML.html#27,27,1280,921,1280,1024,8-20-2022,9-19-58,157,depth_duration_stimuli/002660_2014-06-13_15-44-18_094959634447_rgbf001878-resize_2/002660_2014-06-13_15-44-18_094959634447_rgbf001878-resize_2-target.png,250,3.576,6,5452,247,feet,jsons/v1_VE250_randls_2_rotated.json,1113756,1412273,57,Man
157,834029,DepthScenes,duration_manipulation_targetAtFixation,jsons/v1_VE250_randls_2_rotated.json,http://54.235.29.9/FacialAge/BNav_EC2/DepthDuration/v2_depth_duration_MTurk/v2_DepthDuration_HTML.html#27,27,1280,921,1280,1024,8-20-2022,9-19-58,158,depth_duration_stimuli/002153_2014-06-25_21-27-18_260595134347_rgbf000038-resize_5/002153_2014-06-25_21-27-18_260595134347_rgbf000038-resize_5-target.png,250,2.505,5,4755,250,feet,jsons/v1_VE250_randls_2_rotated.json,1113756,1412273,57,Man
158,834029,DepthScenes,duration_manipulation_targetAtFixation,jsons/v1_VE250_randls_2_rotated.json,http://54.235.29.9/FacialAge/BNav_EC2/DepthDuration/v2_depth_duration_MTurk/v2_DepthDuration_HTML.html#27,27,1280,921,1280,1024,8-20-2022,9-19-58,159,depth_duration_stimuli/002340_2014-06-28_20-05-46_260595134347_rgbf000113-resize_0/002340_2014-06-28_20-05-46_260595134347_rgbf000113-resize_0-target.png,250,2.4735,6,4308,250,feet,jsons/v1_VE250_randls_2_rotated.json,1113756,1412273,57,Man
159,834029,DepthScenes,duration_manipulation_targetAtFixation,jsons/v1_VE250_randls_2_rotated.json,http://54.235.29.9/FacialAge/BNav_EC2/DepthDuration/v2_depth_duration_MTurk/v2_DepthDuration_HTML.html#27,27,1280,921,1280,1024,8-20-2022,9-19-58,160,depth_duration_stimuli/001016_2014-06-09_16-16-10_260595134347_rgbf000112-resize_5/001016_2014-06-09_16-16-10_260595134347_rgbf000112-resize_5-target.png,250,1.6565,4,7787,244,feet,jsons/v1_VE250_randls_2_rotated.json,1113756,1412273,57,Man
160,834029,DepthScenes,duration_manipulation_targetAtFixation,jsons/v1_VE250_randls_2_rotated.json,http://54.235.29.9/FacialAge/BNav_EC2/DepthDuration/v2_depth_duration_MTurk/v2_DepthDuration_HTML.html#27,27,1280,921,1280,1024,8-20-2022,9-19-58,161,depth_duration_stimuli/000109_2014-05-14_23-41-52_260595134347_rgbf000035-resize_9/000109_2014-05-14_23-41-52_260595134347_rgbf000035-resize_9-target.png,250,1.3545,2,3781,252,feet,jsons/v1_VE250_randls_2_rotated.json,1113756,1412273,57,Man
161,834029,DepthScenes,duration_manipulation_targetAtFixation,jsons/v1_VE250_randls_2_rotated.json,http://54.235.29.9/FacialAge/BNav_EC2/DepthDuration/v2_depth_duration_MTurk/v2_DepthDuration_HTML.html#27,27,1280,921,1280,1024,8-20-2022,9-19-58,162,depth_duration_stimuli/000470_2014-06-09_19-42-40_260595134347_rgbf000094-resize_1/000470_2014-06-09_19-42-40_260595134347_rgbf000094-resize_1-target.png,250,1.831,3,3539,259,feet,jsons/v1_VE250_randls_2_rotated.json,1113756,1412273,57,Man
162,834029,DepthScenes,duration_manipulation_targetAtFixation,jsons/v1_VE250_randls_2_rotated.json,http://54.235.29.9/FacialAge/BNav_EC2/DepthDuration/v2_depth_duration_MTurk/v2_DepthDuration_HTML.html#27,27,1280,921,1280,1024,8-20-2022,9-19-58,163,depth_duration_stimuli/002657_2014-06-13_15-29-54_094959634447_rgbf000150-resize_1/002657_2014-06-13_15-29-54_094959634447_rgbf000150-resize_1-target.png,250,4.919,7,8358,250,feet,jsons/v1_VE250_randls_2_rotated.json,1113756,1412273,57,Man
163,834029,DepthScenes,duration_manipulation_targetAtFixation,jsons/v1_VE250_randls_2_rotated.json,http://54.235.29.9/FacialAge/BNav_EC2/DepthDuration/v2_depth_duration_MTurk/v2_DepthDuration_HTML.html#27,27,1280,921,1280,1024,8-20-2022,9-19-58,164,depth_duration_stimuli/002375_2014-06-28_20-13-44_260595134347_rgbf000032-resize_1/002375_2014-06-28_20-13-44_260595134347_rgbf000032-resize_1-target.png,250,4.0175,4,3608,240,feet,jsons/v1_VE250_randls_2_rotated.json,1113756,1412273,57,Man
