,subjID,experimentName,versionName,sequenceName,url,selected_row,windowWidth,windowHeight,screenWidth,screenHeight,startDate,startTime,trial,stimulus,duration,actual_depth,depth_estimate,trial_RT,log_sceneDuration,unitSelection,seq_filepath,experimentTime,totalTime,age,gender
0,834720,DepthScenes,duration_manipulation_targetAtFixation,jsons/v1_VE250_randls_29_rotated.json,http://54.235.29.9/FacialAge/BNav_EC2/DepthDuration/v2_depth_duration_MTurk/v2_DepthDuration_HTML.html#230,230,1707,960,1366,768,9-3-2022,6-10-13,1,depth_duration_stimuli/001815_2014-06-26_20-52-55_260595134347_rgbf000020-resize_0/001815_2014-06-26_20-52-55_260595134347_rgbf000020-resize_0-target.png,250,3.3865,4.5,26079,245,meters,jsons/v1_VE250_randls_29_rotated.json,926801,1492528,39,Woman
1,834720,DepthScenes,duration_manipulation_targetAtFixation,jsons/v1_VE250_randls_29_rotated.json,http://54.235.29.9/FacialAge/BNav_EC2/DepthDuration/v2_depth_duration_MTurk/v2_DepthDuration_HTML.html#230,230,1707,960,1366,768,9-3-2022,6-10-13,2,depth_duration_stimuli/001808_2014-06-26_20-50-58_260595134347_rgbf000029-resize_1/001808_2014-06-26_20-50-58_260595134347_rgbf000029-resize_1-target.png,250,4.249,6.0,7083,251,meters,jsons/v1_VE250_randls_29_rotated.json,926801,1492528,39,Woman
2,834720,DepthScenes,duration_manipulation_targetAtFixation,jsons/v1_VE250_randls_29_rotated.json,http://54.235.29.9/FacialAge/BNav_EC2/DepthDuration/v2_depth_duration_MTurk/v2_DepthDuration_HTML.html#230,230,1707,960,1366,768,9-3-2022,6-10-13,3,depth_duration_stimuli/001235_2014-06-17_16-37-36_260595134347_rgbf000084-resize_4/001235_2014-06-17_16-37-36_260595134347_rgbf000084-resize_4-target.png,250,3.6605,5.3,5378,251,meters,jsons/v1_VE250_randls_29_rotated.json,926801,1492528,39,Woman
3,834720,DepthScenes,duration_manipulation_targetAtFixation,jsons/v1_VE250_randls_29_rotated.json,http://54.235.29.9/FacialAge/BNav_EC2/DepthDuration/v2_depth_duration_MTurk/v2_DepthDuration_HTML.html#230,230,1707,960,1366,768,9-3-2022,6-10-13,4,depth_duration_stimuli/000788_2014-06-08_22-34-36_260595134347_rgbf000131-resize_1/000788_2014-06-08_22-34-36_260595134347_rgbf000131-resize_1-target.png,250,3.359,5.0,4840,254,meters,jsons/v1_VE250_randls_29_rotated.json,926801,1492528,39,Woman
4,834720,DepthScenes,duration_manipulation_targetAtFixation,jsons/v1_VE250_randls_29_rotated.json,http://54.235.29.9/FacialAge/BNav_EC2/DepthDuration/v2_depth_duration_MTurk/v2_DepthDuration_HTML.html#230,230,1707,960,1366,768,9-3-2022,6-10-13,5,depth_duration_stimuli/000665_2014-06-09_20-42-35_260595134347_rgbf000110-resize_1/000665_2014-06-09_20-42-35_260595134347_rgbf000110-resize_1-target.png,250,3.057,6.0,5316,239,meters,jsons/v1_VE250_randls_29_rotated.json,926801,1492528,39,Woman
5,834720,DepthScenes,duration_manipulation_targetAtFixation,jsons/v1_VE250_randls_29_rotated.json,http://54.235.29.9/FacialAge/BNav_EC2/DepthDuration/v2_depth_duration_MTurk/v2_DepthDuration_HTML.html#230,230,1707,960,1366,768,9-3-2022,6-10-13,6,depth_duration_stimuli/001150_2014-06-17_15-27-34_260595134347_rgbf000108-resize_2/001150_2014-06-17_15-27-34_260595134347_rgbf000108-resize_2-target.png,250,4.0325,0.0,4722,249,meters,jsons/v1_VE250_randls_29_rotated.json,926801,1492528,39,Woman
6,834720,DepthScenes,duration_manipulation_targetAtFixation,jsons/v1_VE250_randls_29_rotated.json,http://54.235.29.9/FacialAge/BNav_EC2/DepthDuration/v2_depth_duration_MTurk/v2_DepthDuration_HTML.html#230,230,1707,960,1366,768,9-3-2022,6-10-13,7,depth_duration_stimuli/002875_2014-06-01_15-19-00_094959634447_rgbf000151-resize_1/002875_2014-06-01_15-19-00_094959634447_rgbf000151-resize_1-target.png,250,1.9675,3.9,5074,207,meters,jsons/v1_VE250_randls_29_rotated.json,926801,1492528,39,Woman
7,834720,DepthScenes,duration_manipulation_targetAtFixation,jsons/v1_VE250_randls_29_rotated.json,http://54.235.29.9/FacialAge/BNav_EC2/DepthDuration/v2_depth_duration_MTurk/v2_DepthDuration_HTML.html#230,230,1707,960,1366,768,9-3-2022,6-10-13,8,depth_duration_stimuli/001011_2014-06-08_23-18-54_260595134347_rgbf000044-resize_4/001011_2014-06-08_23-18-54_260595134347_rgbf000044-resize_4-target.png,250,2.4730000000000003,4.8,5056,236,meters,jsons/v1_VE250_randls_29_rotated.json,926801,1492528,39,Woman
8,834720,DepthScenes,duration_manipulation_targetAtFixation,jsons/v1_VE250_randls_29_rotated.json,http://54.235.29.9/FacialAge/BNav_EC2/DepthDuration/v2_depth_duration_MTurk/v2_DepthDuration_HTML.html#230,230,1707,960,1366,768,9-3-2022,6-10-13,9,depth_duration_stimuli/002340_2014-06-28_20-05-46_260595134347_rgbf000113-resize_0/002340_2014-06-28_20-05-46_260595134347_rgbf000113-resize_0-target.png,250,2.4735,6.0,3968,255,meters,jsons/v1_VE250_randls_29_rotated.json,926801,1492528,39,Woman
9,834720,DepthScenes,duration_manipulation_targetAtFixation,jsons/v1_VE250_randls_29_rotated.json,http://54.235.29.9/FacialAge/BNav_EC2/DepthDuration/v2_depth_duration_MTurk/v2_DepthDuration_HTML.html#230,230,1707,960,1366,768,9-3-2022,6-10-13,10,depth_duration_stimuli/001016_2014-06-09_16-16-10_260595134347_rgbf000112-resize_5/001016_2014-06-09_16-16-10_260595134347_rgbf000112-resize_5-target.png,250,1.6565,4.7,4556,256,meters,jsons/v1_VE250_randls_29_rotated.json,926801,1492528,39,Woman
10,834720,DepthScenes,duration_manipulation_targetAtFixation,jsons/v1_VE250_randls_29_rotated.json,http://54.235.29.9/FacialAge/BNav_EC2/DepthDuration/v2_depth_duration_MTurk/v2_DepthDuration_HTML.html#230,230,1707,960,1366,768,9-3-2022,6-10-13,11,depth_duration_stimuli/000109_2014-05-14_23-41-52_260595134347_rgbf000035-resize_9/000109_2014-05-14_23-41-52_260595134347_rgbf000035-resize_9-target.png,250,1.3545,0.0,4158,249,meters,jsons/v1_VE250_randls_29_rotated.json,926801,1492528,39,Woman
11,834720,DepthScenes,duration_manipulation_targetAtFixation,jsons/v1_VE250_randls_29_rotated.json,http://54.235.29.9/FacialAge/BNav_EC2/DepthDuration/v2_depth_duration_MTurk/v2_DepthDuration_HTML.html#230,230,1707,960,1366,768,9-3-2022,6-10-13,12,depth_duration_stimuli/000470_2014-06-09_19-42-40_260595134347_rgbf000094-resize_1/000470_2014-06-09_19-42-40_260595134347_rgbf000094-resize_1-target.png,250,1.831,3.2,4608,256,meters,jsons/v1_VE250_randls_29_rotated.json,926801,1492528,39,Woman
12,834720,DepthScenes,duration_manipulation_targetAtFixation,jsons/v1_VE250_randls_29_rotated.json,http://54.235.29.9/FacialAge/BNav_EC2/DepthDuration/v2_depth_duration_MTurk/v2_DepthDuration_HTML.html#230,230,1707,960,1366,768,9-3-2022,6-10-13,13,depth_duration_stimuli/001214_2014-06-17_16-13-55_260595134347_rgbf000111-resize_0/001214_2014-06-17_16-13-55_260595134347_rgbf000111-resize_0-target.png,250,2.6505,3.5,4408,255,meters,jsons/v1_VE250_randls_29_rotated.json,926801,1492528,39,Woman
13,834720,DepthScenes,duration_manipulation_targetAtFixation,jsons/v1_VE250_randls_29_rotated.json,http://54.235.29.9/FacialAge/BNav_EC2/DepthDuration/v2_depth_duration_MTurk/v2_DepthDuration_HTML.html#230,230,1707,960,1366,768,9-3-2022,6-10-13,14,depth_duration_stimuli/000810_2014-06-08_17-20-01_260595134347_rgbf000105-resize_0/000810_2014-06-08_17-20-01_260595134347_rgbf000105-resize_0-target.png,250,1.4865,4.2,4898,251,meters,jsons/v1_VE250_randls_29_rotated.json,926801,1492528,39,Woman
14,834720,DepthScenes,duration_manipulation_targetAtFixation,jsons/v1_VE250_randls_29_rotated.json,http://54.235.29.9/FacialAge/BNav_EC2/DepthDuration/v2_depth_duration_MTurk/v2_DepthDuration_HTML.html#230,230,1707,960,1366,768,9-3-2022,6-10-13,15,depth_duration_stimuli/002209_2014-06-28_18-36-10_260595134347_rgbf000051-resize_1/002209_2014-06-28_18-36-10_260595134347_rgbf000051-resize_1-target.png,250,2.057,3.6,4500,241,meters,jsons/v1_VE250_randls_29_rotated.json,926801,1492528,39,Woman
15,834720,DepthScenes,duration_manipulation_targetAtFixation,jsons/v1_VE250_randls_29_rotated.json,http://54.235.29.9/FacialAge/BNav_EC2/DepthDuration/v2_depth_duration_MTurk/v2_DepthDuration_HTML.html#230,230,1707,960,1366,768,9-3-2022,6-10-13,16,depth_duration_stimuli/002763_2014-06-22_19-13-10_094959634447_rgbf000075-resize_4/002763_2014-06-22_19-13-10_094959634447_rgbf000075-resize_4-target.png,250,1.68375,5.0,3797,253,meters,jsons/v1_VE250_randls_29_rotated.json,926801,1492528,39,Woman
16,834720,DepthScenes,duration_manipulation_targetAtFixation,jsons/v1_VE250_randls_29_rotated.json,http://54.235.29.9/FacialAge/BNav_EC2/DepthDuration/v2_depth_duration_MTurk/v2_DepthDuration_HTML.html#230,230,1707,960,1366,768,9-3-2022,6-10-13,17,depth_duration_stimuli/002660_2014-06-13_15-44-18_094959634447_rgbf001878-resize_2/002660_2014-06-13_15-44-18_094959634447_rgbf001878-resize_2-target.png,250,3.576,5.0,3942,236,meters,jsons/v1_VE250_randls_29_rotated.json,926801,1492528,39,Woman
17,834720,DepthScenes,duration_manipulation_targetAtFixation,jsons/v1_VE250_randls_29_rotated.json,http://54.235.29.9/FacialAge/BNav_EC2/DepthDuration/v2_depth_duration_MTurk/v2_DepthDuration_HTML.html#230,230,1707,960,1366,768,9-3-2022,6-10-13,18,depth_duration_stimuli/002153_2014-06-25_21-27-18_260595134347_rgbf000038-resize_5/002153_2014-06-25_21-27-18_260595134347_rgbf000038-resize_5-target.png,250,2.505,0.0,4333,242,meters,jsons/v1_VE250_randls_29_rotated.json,926801,1492528,39,Woman
18,834720,DepthScenes,duration_manipulation_targetAtFixation,jsons/v1_VE250_randls_29_rotated.json,http://54.235.29.9/FacialAge/BNav_EC2/DepthDuration/v2_depth_duration_MTurk/v2_DepthDuration_HTML.html#230,230,1707,960,1366,768,9-3-2022,6-10-13,19,depth_duration_stimuli/001498_2014-06-19_17-45-14_260595134347_rgbf000129-resize_4/001498_2014-06-19_17-45-14_260595134347_rgbf000129-resize-original.jpg,250,1.4075,0.0,4049,254,meters,jsons/v1_VE250_randls_29_rotated.json,926801,1492528,39,Woman
19,834720,DepthScenes,duration_manipulation_targetAtFixation,jsons/v1_VE250_randls_29_rotated.json,http://54.235.29.9/FacialAge/BNav_EC2/DepthDuration/v2_depth_duration_MTurk/v2_DepthDuration_HTML.html#230,230,1707,960,1366,768,9-3-2022,6-10-13,20,depth_duration_stimuli/001571_2014-06-20_17-21-32_260595134347_rgbf000089-resize_1/001571_2014-06-20_17-21-32_260595134347_rgbf000089-resize_1-target.png,250,1.86,2.6,3675,244,meters,jsons/v1_VE250_randls_29_rotated.json,926801,1492528,39,Woman
20,834720,DepthScenes,duration_manipulation_targetAtFixation,jsons/v1_VE250_randls_29_rotated.json,http://54.235.29.9/FacialAge/BNav_EC2/DepthDuration/v2_depth_duration_MTurk/v2_DepthDuration_HTML.html#230,230,1707,960,1366,768,9-3-2022,6-10-13,21,depth_duration_stimuli/002272_2014-06-28_18-53-56_260595134347_rgbf000067-resize_2/002272_2014-06-28_18-53-56_260595134347_rgbf000067-resize_2-target.png,250,1.138,3.0,4182,245,meters,jsons/v1_VE250_randls_29_rotated.json,926801,1492528,39,Woman
21,834720,DepthScenes,duration_manipulation_targetAtFixation,jsons/v1_VE250_randls_29_rotated.json,http://54.235.29.9/FacialAge/BNav_EC2/DepthDuration/v2_depth_duration_MTurk/v2_DepthDuration_HTML.html#230,230,1707,960,1366,768,9-3-2022,6-10-13,22,depth_duration_stimuli/001828_2014-06-26_21-40-03_260595134347_rgbf000024-resize_0/001828_2014-06-26_21-40-03_260595134347_rgbf000024-resize_0-target.png,250,4.8260000000000005,6.0,4193,255,meters,jsons/v1_VE250_randls_29_rotated.json,926801,1492528,39,Woman
22,834720,DepthScenes,duration_manipulation_targetAtFixation,jsons/v1_VE250_randls_29_rotated.json,http://54.235.29.9/FacialAge/BNav_EC2/DepthDuration/v2_depth_duration_MTurk/v2_DepthDuration_HTML.html#230,230,1707,960,1366,768,9-3-2022,6-10-13,23,depth_duration_stimuli/000009_2014-05-26_14-32-05_260595134347_rgbf000034-resize_3/000009_2014-05-26_14-32-05_260595134347_rgbf000034-resize_3-target.png,250,3.8715,7.0,5468,261,meters,jsons/v1_VE250_randls_29_rotated.json,926801,1492528,39,Woman
23,834720,DepthScenes,duration_manipulation_targetAtFixation,jsons/v1_VE250_randls_29_rotated.json,http://54.235.29.9/FacialAge/BNav_EC2/DepthDuration/v2_depth_duration_MTurk/v2_DepthDuration_HTML.html#230,230,1707,960,1366,768,9-3-2022,6-10-13,24,depth_duration_stimuli/002425_2014-06-28_20-27-29_260595134347_rgbf000031-resize_8/002425_2014-06-28_20-27-29_260595134347_rgbf000031-resize_8-target.png,250,3.8960000000000004,5.4,4501,253,meters,jsons/v1_VE250_randls_29_rotated.json,926801,1492528,39,Woman
24,834720,DepthScenes,duration_manipulation_targetAtFixation,jsons/v1_VE250_randls_29_rotated.json,http://54.235.29.9/FacialAge/BNav_EC2/DepthDuration/v2_depth_duration_MTurk/v2_DepthDuration_HTML.html#230,230,1707,960,1366,768,9-3-2022,6-10-13,25,depth_duration_stimuli/000642_2014-06-08_16-59-25_260595134347_rgbf000098-resize_2/000642_2014-06-08_16-59-25_260595134347_rgbf000098-resize_2-target.png,250,2.8815,3.6,4685,239,meters,jsons/v1_VE250_randls_29_rotated.json,926801,1492528,39,Woman
25,834720,DepthScenes,duration_manipulation_targetAtFixation,jsons/v1_VE250_randls_29_rotated.json,http://54.235.29.9/FacialAge/BNav_EC2/DepthDuration/v2_depth_duration_MTurk/v2_DepthDuration_HTML.html#230,230,1707,960,1366,768,9-3-2022,6-10-13,26,depth_duration_stimuli/000927_2014-06-09_16-32-30_260595134347_rgbf000123-resize_3/000927_2014-06-09_16-32-30_260595134347_rgbf000123-resize_3-target.png,250,2.6785,4.6,5559,212,meters,jsons/v1_VE250_randls_29_rotated.json,926801,1492528,39,Woman
26,834720,DepthScenes,duration_manipulation_targetAtFixation,jsons/v1_VE250_randls_29_rotated.json,http://54.235.29.9/FacialAge/BNav_EC2/DepthDuration/v2_depth_duration_MTurk/v2_DepthDuration_HTML.html#230,230,1707,960,1366,768,9-3-2022,6-10-13,27,depth_duration_stimuli/001110_2014-06-15_17-25-28_260595134347_rgbf000150-resize_1/001110_2014-06-15_17-25-28_260595134347_rgbf000150-resize_1-target.png,250,1.7115,3.7,4494,209,meters,jsons/v1_VE250_randls_29_rotated.json,926801,1492528,39,Woman
27,834720,DepthScenes,duration_manipulation_targetAtFixation,jsons/v1_VE250_randls_29_rotated.json,http://54.235.29.9/FacialAge/BNav_EC2/DepthDuration/v2_depth_duration_MTurk/v2_DepthDuration_HTML.html#230,230,1707,960,1366,768,9-3-2022,6-10-13,28,depth_duration_stimuli/002953_2014-06-08_17-32-18_094959634447_rgbf000059-resize_5/002953_2014-06-08_17-32-18_094959634447_rgbf000059-resize_5-target.png,250,1.551,3.4,7544,250,meters,jsons/v1_VE250_randls_29_rotated.json,926801,1492528,39,Woman
28,834720,DepthScenes,duration_manipulation_targetAtFixation,jsons/v1_VE250_randls_29_rotated.json,http://54.235.29.9/FacialAge/BNav_EC2/DepthDuration/v2_depth_duration_MTurk/v2_DepthDuration_HTML.html#230,230,1707,960,1366,768,9-3-2022,6-10-13,29,depth_duration_stimuli/000878_2014-06-08_22-52-45_260595134347_rgbf000045-resize_2/000878_2014-06-08_22-52-45_260595134347_rgbf000045-resize_2-target.png,250,2.092,4.6,6276,250,meters,jsons/v1_VE250_randls_29_rotated.json,926801,1492528,39,Woman
29,834720,DepthScenes,duration_manipulation_targetAtFixation,jsons/v1_VE250_randls_29_rotated.json,http://54.235.29.9/FacialAge/BNav_EC2/DepthDuration/v2_depth_duration_MTurk/v2_DepthDuration_HTML.html#230,230,1707,960,1366,768,9-3-2022,6-10-13,30,depth_duration_stimuli/002072_2014-06-24_21-48-06_260595134347_rgbf000115-resize_0/002072_2014-06-24_21-48-06_260595134347_rgbf000115-resize-original.jpg,250,4.702,0.0,3257,255,meters,jsons/v1_VE250_randls_29_rotated.json,926801,1492528,39,Woman
30,834720,DepthScenes,duration_manipulation_targetAtFixation,jsons/v1_VE250_randls_29_rotated.json,http://54.235.29.9/FacialAge/BNav_EC2/DepthDuration/v2_depth_duration_MTurk/v2_DepthDuration_HTML.html#230,230,1707,960,1366,768,9-3-2022,6-10-13,31,depth_duration_stimuli/000635_2014-06-08_16-38-42_260595134347_rgbf000106-resize_1/000635_2014-06-08_16-38-42_260595134347_rgbf000106-resize_1-target.png,250,2.074,4.0,3547,236,meters,jsons/v1_VE250_randls_29_rotated.json,926801,1492528,39,Woman
31,834720,DepthScenes,duration_manipulation_targetAtFixation,jsons/v1_VE250_randls_29_rotated.json,http://54.235.29.9/FacialAge/BNav_EC2/DepthDuration/v2_depth_duration_MTurk/v2_DepthDuration_HTML.html#230,230,1707,960,1366,768,9-3-2022,6-10-13,32,depth_duration_stimuli/002279_2014-06-28_18-55-32_260595134347_rgbf000040-resize_5/002279_2014-06-28_18-55-32_260595134347_rgbf000040-resize_5-target.png,250,1.5043333333333,2.4,4347,255,meters,jsons/v1_VE250_randls_29_rotated.json,926801,1492528,39,Woman
32,834720,DepthScenes,duration_manipulation_targetAtFixation,jsons/v1_VE250_randls_29_rotated.json,http://54.235.29.9/FacialAge/BNav_EC2/DepthDuration/v2_depth_duration_MTurk/v2_DepthDuration_HTML.html#230,230,1707,960,1366,768,9-3-2022,6-10-13,33,depth_duration_stimuli/001516_2014-06-20_16-25-09_260595134347_rgbf000076-resize_2/001516_2014-06-20_16-25-09_260595134347_rgbf000076-resize_2-target.png,250,1.7445,3.7,5157,251,meters,jsons/v1_VE250_randls_29_rotated.json,926801,1492528,39,Woman
33,834720,DepthScenes,duration_manipulation_targetAtFixation,jsons/v1_VE250_randls_29_rotated.json,http://54.235.29.9/FacialAge/BNav_EC2/DepthDuration/v2_depth_duration_MTurk/v2_DepthDuration_HTML.html#230,230,1707,960,1366,768,9-3-2022,6-10-13,34,depth_duration_stimuli/002118_2014-06-25_20-32-08_260595134347_rgbf000078-resize_1/002118_2014-06-25_20-32-08_260595134347_rgbf000078-resize_1-target.png,250,2.6460000000000004,3.5,3707,256,meters,jsons/v1_VE250_randls_29_rotated.json,926801,1492528,39,Woman
34,834720,DepthScenes,duration_manipulation_targetAtFixation,jsons/v1_VE250_randls_29_rotated.json,http://54.235.29.9/FacialAge/BNav_EC2/DepthDuration/v2_depth_duration_MTurk/v2_DepthDuration_HTML.html#230,230,1707,960,1366,768,9-3-2022,6-10-13,35,depth_duration_stimuli/001032_2014-06-08_13-23-17_260595134347_rgbf000021-resize_3/001032_2014-06-08_13-23-17_260595134347_rgbf000021-resize_3-target.png,250,3.2725,3.5,4066,251,meters,jsons/v1_VE250_randls_29_rotated.json,926801,1492528,39,Woman
35,834720,DepthScenes,duration_manipulation_targetAtFixation,jsons/v1_VE250_randls_29_rotated.json,http://54.235.29.9/FacialAge/BNav_EC2/DepthDuration/v2_depth_duration_MTurk/v2_DepthDuration_HTML.html#230,230,1707,960,1366,768,9-3-2022,6-10-13,36,depth_duration_stimuli/001059_2014-06-08_21-53-27_260595134347_rgbf000061-resize_4/001059_2014-06-08_21-53-27_260595134347_rgbf000061-resize_4-target.png,250,2.4185,3.8,5235,261,meters,jsons/v1_VE250_randls_29_rotated.json,926801,1492528,39,Woman
36,834720,DepthScenes,duration_manipulation_targetAtFixation,jsons/v1_VE250_randls_29_rotated.json,http://54.235.29.9/FacialAge/BNav_EC2/DepthDuration/v2_depth_duration_MTurk/v2_DepthDuration_HTML.html#230,230,1707,960,1366,768,9-3-2022,6-10-13,37,depth_duration_stimuli/001650_2014-06-20_12-09-00_260595134347_rgbf000087-resize_3/001650_2014-06-20_12-09-00_260595134347_rgbf000087-resize_3-target.png,250,1.9505,2.8,4319,238,meters,jsons/v1_VE250_randls_29_rotated.json,926801,1492528,39,Woman
37,834720,DepthScenes,duration_manipulation_targetAtFixation,jsons/v1_VE250_randls_29_rotated.json,http://54.235.29.9/FacialAge/BNav_EC2/DepthDuration/v2_depth_duration_MTurk/v2_DepthDuration_HTML.html#230,230,1707,960,1366,768,9-3-2022,6-10-13,38,depth_duration_stimuli/000682_2014-06-08_23-14-58_260595134347_rgbf000041-resize_5/000682_2014-06-08_23-14-58_260595134347_rgbf000041-resize_5-target.png,250,2.7239999999999998,3.7,4335,261,meters,jsons/v1_VE250_randls_29_rotated.json,926801,1492528,39,Woman
38,834720,DepthScenes,duration_manipulation_targetAtFixation,jsons/v1_VE250_randls_29_rotated.json,http://54.235.29.9/FacialAge/BNav_EC2/DepthDuration/v2_depth_duration_MTurk/v2_DepthDuration_HTML.html#230,230,1707,960,1366,768,9-3-2022,6-10-13,39,depth_duration_stimuli/002758_2014-06-22_19-11-20_094959634447_rgbf000128-resize_1/002758_2014-06-22_19-11-20_094959634447_rgbf000128-resize_1-target.png,250,2.555,3.5,4780,248,meters,jsons/v1_VE250_randls_29_rotated.json,926801,1492528,39,Woman
39,834720,DepthScenes,duration_manipulation_targetAtFixation,jsons/v1_VE250_randls_29_rotated.json,http://54.235.29.9/FacialAge/BNav_EC2/DepthDuration/v2_depth_duration_MTurk/v2_DepthDuration_HTML.html#230,230,1707,960,1366,768,9-3-2022,6-10-13,40,depth_duration_stimuli/002630_2014-06-24_14-47-50_094959634447_rgbf000055-resize_1/002630_2014-06-24_14-47-50_094959634447_rgbf000055-resize_1-target.png,250,3.0095,6.5,5018,247,meters,jsons/v1_VE250_randls_29_rotated.json,926801,1492528,39,Woman
40,834720,DepthScenes,duration_manipulation_targetAtFixation,jsons/v1_VE250_randls_29_rotated.json,http://54.235.29.9/FacialAge/BNav_EC2/DepthDuration/v2_depth_duration_MTurk/v2_DepthDuration_HTML.html#230,230,1707,960,1366,768,9-3-2022,6-10-13,41,depth_duration_stimuli/001450_2014-06-19_17-02-03_260595134347_rgbf000203-resize_4/001450_2014-06-19_17-02-03_260595134347_rgbf000203-resize_4-target.png,250,4.0106666666667,5.8,4120,194,meters,jsons/v1_VE250_randls_29_rotated.json,926801,1492528,39,Woman
41,834720,DepthScenes,duration_manipulation_targetAtFixation,jsons/v1_VE250_randls_29_rotated.json,http://54.235.29.9/FacialAge/BNav_EC2/DepthDuration/v2_depth_duration_MTurk/v2_DepthDuration_HTML.html#230,230,1707,960,1366,768,9-3-2022,6-10-13,42,depth_duration_stimuli/001449_2014-06-19_17-01-27_260595134347_rgbf000116-resize_2/001449_2014-06-19_17-01-27_260595134347_rgbf000116-resize_2-target.png,250,3.452,5.9,4155,250,meters,jsons/v1_VE250_randls_29_rotated.json,926801,1492528,39,Woman
42,834720,DepthScenes,duration_manipulation_targetAtFixation,jsons/v1_VE250_randls_29_rotated.json,http://54.235.29.9/FacialAge/BNav_EC2/DepthDuration/v2_depth_duration_MTurk/v2_DepthDuration_HTML.html#230,230,1707,960,1366,768,9-3-2022,6-10-13,43,depth_duration_stimuli/003338_2014-05-20_11-01-23_094959634447_rgbf000051-resize_6/003338_2014-05-20_11-01-23_094959634447_rgbf000051-resize_6-target.png,250,1.693,0.0,3517,240,meters,jsons/v1_VE250_randls_29_rotated.json,926801,1492528,39,Woman
43,834720,DepthScenes,duration_manipulation_targetAtFixation,jsons/v1_VE250_randls_29_rotated.json,http://54.235.29.9/FacialAge/BNav_EC2/DepthDuration/v2_depth_duration_MTurk/v2_DepthDuration_HTML.html#230,230,1707,960,1366,768,9-3-2022,6-10-13,44,depth_duration_stimuli/002509_2014-06-24_13-19-22_094959634447_rgbf000077-resize_0/002509_2014-06-24_13-19-22_094959634447_rgbf000077-resize_0-target.png,250,1.3065,2.4,6360,261,meters,jsons/v1_VE250_randls_29_rotated.json,926801,1492528,39,Woman
44,834720,DepthScenes,duration_manipulation_targetAtFixation,jsons/v1_VE250_randls_29_rotated.json,http://54.235.29.9/FacialAge/BNav_EC2/DepthDuration/v2_depth_duration_MTurk/v2_DepthDuration_HTML.html#230,230,1707,960,1366,768,9-3-2022,6-10-13,45,depth_duration_stimuli/002136_2014-06-25_21-18-03_260595134347_rgbf000109-resize_3/002136_2014-06-25_21-18-03_260595134347_rgbf000109-resize_3-target.png,250,1.9569999999999999,2.8,6783,243,meters,jsons/v1_VE250_randls_29_rotated.json,926801,1492528,39,Woman
45,834720,DepthScenes,duration_manipulation_targetAtFixation,jsons/v1_VE250_randls_29_rotated.json,http://54.235.29.9/FacialAge/BNav_EC2/DepthDuration/v2_depth_duration_MTurk/v2_DepthDuration_HTML.html#230,230,1707,960,1366,768,9-3-2022,6-10-13,46,depth_duration_stimuli/002964_2014-06-08_17-46-11_094959634447_rgbf000091-resize_4/002964_2014-06-08_17-46-11_094959634447_rgbf000091-resize_4-target.png,250,1.6909999999999998,2.0,3624,241,meters,jsons/v1_VE250_randls_29_rotated.json,926801,1492528,39,Woman
46,834720,DepthScenes,duration_manipulation_targetAtFixation,jsons/v1_VE250_randls_29_rotated.json,http://54.235.29.9/FacialAge/BNav_EC2/DepthDuration/v2_depth_duration_MTurk/v2_DepthDuration_HTML.html#230,230,1707,960,1366,768,9-3-2022,6-10-13,47,depth_duration_stimuli/002657_2014-06-13_15-29-54_094959634447_rgbf000150-resize_1/002657_2014-06-13_15-29-54_094959634447_rgbf000150-resize_1-target.png,250,4.919,3.8,4791,249,meters,jsons/v1_VE250_randls_29_rotated.json,926801,1492528,39,Woman
47,834720,DepthScenes,duration_manipulation_targetAtFixation,jsons/v1_VE250_randls_29_rotated.json,http://54.235.29.9/FacialAge/BNav_EC2/DepthDuration/v2_depth_duration_MTurk/v2_DepthDuration_HTML.html#230,230,1707,960,1366,768,9-3-2022,6-10-13,48,depth_duration_stimuli/002375_2014-06-28_20-13-44_260595134347_rgbf000032-resize_1/002375_2014-06-28_20-13-44_260595134347_rgbf000032-resize_1-target.png,250,4.0175,4.5,4277,243,meters,jsons/v1_VE250_randls_29_rotated.json,926801,1492528,39,Woman
48,834720,DepthScenes,duration_manipulation_targetAtFixation,jsons/v1_VE250_randls_29_rotated.json,http://54.235.29.9/FacialAge/BNav_EC2/DepthDuration/v2_depth_duration_MTurk/v2_DepthDuration_HTML.html#230,230,1707,960,1366,768,9-3-2022,6-10-13,49,depth_duration_stimuli/001170_2014-06-17_15-43-44_260595134347_rgbf000096-resize_6/001170_2014-06-17_15-43-44_260595134347_rgbf000096-resize-original.jpg,250,1.1909999999999998,0.0,4541,248,meters,jsons/v1_VE250_randls_29_rotated.json,926801,1492528,39,Woman
49,834720,DepthScenes,duration_manipulation_targetAtFixation,jsons/v1_VE250_randls_29_rotated.json,http://54.235.29.9/FacialAge/BNav_EC2/DepthDuration/v2_depth_duration_MTurk/v2_DepthDuration_HTML.html#230,230,1707,960,1366,768,9-3-2022,6-10-13,50,depth_duration_stimuli/001617_2014-06-20_11-35-32_260595134347_rgbf000066-resize_1/001617_2014-06-20_11-35-32_260595134347_rgbf000066-resize_1-target.png,250,3.7910000000000004,5.9,5190,257,meters,jsons/v1_VE250_randls_29_rotated.json,926801,1492528,39,Woman
50,834720,DepthScenes,duration_manipulation_targetAtFixation,jsons/v1_VE250_randls_29_rotated.json,http://54.235.29.9/FacialAge/BNav_EC2/DepthDuration/v2_depth_duration_MTurk/v2_DepthDuration_HTML.html#230,230,1707,960,1366,768,9-3-2022,6-10-13,51,depth_duration_stimuli/001806_2014-06-26_20-50-20_260595134347_rgbf000091-resize_1/001806_2014-06-26_20-50-20_260595134347_rgbf000091-resize_1-target.png,250,2.7305,3.0,3630,248,meters,jsons/v1_VE250_randls_29_rotated.json,926801,1492528,39,Woman
51,834720,DepthScenes,duration_manipulation_targetAtFixation,jsons/v1_VE250_randls_29_rotated.json,http://54.235.29.9/FacialAge/BNav_EC2/DepthDuration/v2_depth_duration_MTurk/v2_DepthDuration_HTML.html#230,230,1707,960,1366,768,9-3-2022,6-10-13,52,depth_duration_stimuli/000854_2014-06-09_19-43-13_260595134347_rgbf000066-resize_0/000854_2014-06-09_19-43-13_260595134347_rgbf000066-resize_0-target.png,250,3.068,0.0,6229,263,meters,jsons/v1_VE250_randls_29_rotated.json,926801,1492528,39,Woman
52,834720,DepthScenes,duration_manipulation_targetAtFixation,jsons/v1_VE250_randls_29_rotated.json,http://54.235.29.9/FacialAge/BNav_EC2/DepthDuration/v2_depth_duration_MTurk/v2_DepthDuration_HTML.html#230,230,1707,960,1366,768,9-3-2022,6-10-13,53,depth_duration_stimuli/000758_2014-06-08_22-05-08_260595134347_rgbf000085-resize_0/000758_2014-06-08_22-05-08_260595134347_rgbf000085-resize_0-target.png,250,3.3810000000000002,5.0,4536,249,meters,jsons/v1_VE250_randls_29_rotated.json,926801,1492528,39,Woman
53,834720,DepthScenes,duration_manipulation_targetAtFixation,jsons/v1_VE250_randls_29_rotated.json,http://54.235.29.9/FacialAge/BNav_EC2/DepthDuration/v2_depth_duration_MTurk/v2_DepthDuration_HTML.html#230,230,1707,960,1366,768,9-3-2022,6-10-13,54,depth_duration_stimuli/003587_2014-05-23_16-48-02_094959634447_rgbf002384-resize_2/003587_2014-05-23_16-48-02_094959634447_rgbf002384-resize_2-target.png,250,1.357,2.4,6705,250,meters,jsons/v1_VE250_randls_29_rotated.json,926801,1492528,39,Woman
54,834720,DepthScenes,duration_manipulation_targetAtFixation,jsons/v1_VE250_randls_29_rotated.json,http://54.235.29.9/FacialAge/BNav_EC2/DepthDuration/v2_depth_duration_MTurk/v2_DepthDuration_HTML.html#230,230,1707,960,1366,768,9-3-2022,6-10-13,55,depth_duration_stimuli/001167_2014-06-17_15-38-07_260595134347_rgbf000108-resize_0/001167_2014-06-17_15-38-07_260595134347_rgbf000108-resize_0-target.png,250,1.8505,0.0,3356,245,meters,jsons/v1_VE250_randls_29_rotated.json,926801,1492528,39,Woman
55,834720,DepthScenes,duration_manipulation_targetAtFixation,jsons/v1_VE250_randls_29_rotated.json,http://54.235.29.9/FacialAge/BNav_EC2/DepthDuration/v2_depth_duration_MTurk/v2_DepthDuration_HTML.html#230,230,1707,960,1366,768,9-3-2022,6-10-13,56,depth_duration_stimuli/000502_2014-06-08_23-02-32_260595134347_rgbf000063-resize_4/000502_2014-06-08_23-02-32_260595134347_rgbf000063-resize_4-target.png,250,2.431,2.6,6760,257,meters,jsons/v1_VE250_randls_29_rotated.json,926801,1492528,39,Woman
56,834720,DepthScenes,duration_manipulation_targetAtFixation,jsons/v1_VE250_randls_29_rotated.json,http://54.235.29.9/FacialAge/BNav_EC2/DepthDuration/v2_depth_duration_MTurk/v2_DepthDuration_HTML.html#230,230,1707,960,1366,768,9-3-2022,6-10-13,57,depth_duration_stimuli/001199_2014-06-17_16-03-48_260595134347_rgbf000077-resize_0/001199_2014-06-17_16-03-48_260595134347_rgbf000077-resize_0-target.png,250,3.4375,3.5,5941,257,meters,jsons/v1_VE250_randls_29_rotated.json,926801,1492528,39,Woman
57,834720,DepthScenes,duration_manipulation_targetAtFixation,jsons/v1_VE250_randls_29_rotated.json,http://54.235.29.9/FacialAge/BNav_EC2/DepthDuration/v2_depth_duration_MTurk/v2_DepthDuration_HTML.html#230,230,1707,960,1366,768,9-3-2022,6-10-13,58,depth_duration_stimuli/000943_2014-06-09_19-31-07_260595134347_rgbf000128-resize_1/000943_2014-06-09_19-31-07_260595134347_rgbf000128-resize_1-target.png,250,1.9765,0.0,4876,248,meters,jsons/v1_VE250_randls_29_rotated.json,926801,1492528,39,Woman
58,834720,DepthScenes,duration_manipulation_targetAtFixation,jsons/v1_VE250_randls_29_rotated.json,http://54.235.29.9/FacialAge/BNav_EC2/DepthDuration/v2_depth_duration_MTurk/v2_DepthDuration_HTML.html#230,230,1707,960,1366,768,9-3-2022,6-10-13,59,depth_duration_stimuli/003070_2014-06-15_14-58-27_094959634447_rgbf000150-resize_3/003070_2014-06-15_14-58-27_094959634447_rgbf000150-resize_3-target.png,250,2.9415,4.9,5838,293,meters,jsons/v1_VE250_randls_29_rotated.json,926801,1492528,39,Woman
59,834720,DepthScenes,duration_manipulation_targetAtFixation,jsons/v1_VE250_randls_29_rotated.json,http://54.235.29.9/FacialAge/BNav_EC2/DepthDuration/v2_depth_duration_MTurk/v2_DepthDuration_HTML.html#230,230,1707,960,1366,768,9-3-2022,6-10-13,60,depth_duration_stimuli/002949_2014-06-26_15-57-42_094959634447_rgbf000079-resize_1/002949_2014-06-26_15-57-42_094959634447_rgbf000079-resize_1-target.png,250,1.8915,3.5,4153,258,meters,jsons/v1_VE250_randls_29_rotated.json,926801,1492528,39,Woman
60,834720,DepthScenes,duration_manipulation_targetAtFixation,jsons/v1_VE250_randls_29_rotated.json,http://54.235.29.9/FacialAge/BNav_EC2/DepthDuration/v2_depth_duration_MTurk/v2_DepthDuration_HTML.html#230,230,1707,960,1366,768,9-3-2022,6-10-13,61,depth_duration_stimuli/000522_2014-06-08_13-35-06_260595134347_rgbf000244-resize_1/000522_2014-06-08_13-35-06_260595134347_rgbf000244-resize_1-target.png,250,2.3715,3.4,4098,249,meters,jsons/v1_VE250_randls_29_rotated.json,926801,1492528,39,Woman
61,834720,DepthScenes,duration_manipulation_targetAtFixation,jsons/v1_VE250_randls_29_rotated.json,http://54.235.29.9/FacialAge/BNav_EC2/DepthDuration/v2_depth_duration_MTurk/v2_DepthDuration_HTML.html#230,230,1707,960,1366,768,9-3-2022,6-10-13,62,depth_duration_stimuli/000457_2014-06-08_16-52-43_260595134347_rgbf000199-resize_1/000457_2014-06-08_16-52-43_260595134347_rgbf000199-resize_1-target.png,250,3.6489999999999996,4.8,5226,252,meters,jsons/v1_VE250_randls_29_rotated.json,926801,1492528,39,Woman
62,834720,DepthScenes,duration_manipulation_targetAtFixation,jsons/v1_VE250_randls_29_rotated.json,http://54.235.29.9/FacialAge/BNav_EC2/DepthDuration/v2_depth_duration_MTurk/v2_DepthDuration_HTML.html#230,230,1707,960,1366,768,9-3-2022,6-10-13,63,depth_duration_stimuli/000929_2014-06-09_16-33-19_260595134347_rgbf000139-resize_0/000929_2014-06-09_16-33-19_260595134347_rgbf000139-resize_0-target.png,250,2.8680000000000003,2.7,4206,251,meters,jsons/v1_VE250_randls_29_rotated.json,926801,1492528,39,Woman
63,834720,DepthScenes,duration_manipulation_targetAtFixation,jsons/v1_VE250_randls_29_rotated.json,http://54.235.29.9/FacialAge/BNav_EC2/DepthDuration/v2_depth_duration_MTurk/v2_DepthDuration_HTML.html#230,230,1707,960,1366,768,9-3-2022,6-10-13,64,depth_duration_stimuli/001392_2014-06-19_16-07-59_260595134347_rgbf000046-resize_1/001392_2014-06-19_16-07-59_260595134347_rgbf000046-resize_1-target.png,250,4.135,5.0,3479,251,meters,jsons/v1_VE250_randls_29_rotated.json,926801,1492528,39,Woman
64,834720,DepthScenes,duration_manipulation_targetAtFixation,jsons/v1_VE250_randls_29_rotated.json,http://54.235.29.9/FacialAge/BNav_EC2/DepthDuration/v2_depth_duration_MTurk/v2_DepthDuration_HTML.html#230,230,1707,960,1366,768,9-3-2022,6-10-13,65,depth_duration_stimuli/001570_2014-06-20_17-21-09_260595134347_rgbf000135-resize_4/001570_2014-06-20_17-21-09_260595134347_rgbf000135-resize_4-target.png,250,4.467,4.6,5636,289,meters,jsons/v1_VE250_randls_29_rotated.json,926801,1492528,39,Woman
65,834720,DepthScenes,duration_manipulation_targetAtFixation,jsons/v1_VE250_randls_29_rotated.json,http://54.235.29.9/FacialAge/BNav_EC2/DepthDuration/v2_depth_duration_MTurk/v2_DepthDuration_HTML.html#230,230,1707,960,1366,768,9-3-2022,6-10-13,66,depth_duration_stimuli/001540_2014-06-20_17-01-05_260595134347_rgbf000086-resize_2/001540_2014-06-20_17-01-05_260595134347_rgbf000086-resize-original.jpg,250,1.459,0.0,4018,251,meters,jsons/v1_VE250_randls_29_rotated.json,926801,1492528,39,Woman
66,834720,DepthScenes,duration_manipulation_targetAtFixation,jsons/v1_VE250_randls_29_rotated.json,http://54.235.29.9/FacialAge/BNav_EC2/DepthDuration/v2_depth_duration_MTurk/v2_DepthDuration_HTML.html#230,230,1707,960,1366,768,9-3-2022,6-10-13,67,depth_duration_stimuli/002199_2014-06-28_18-33-56_260595134347_rgbf000074-resize_0/002199_2014-06-28_18-33-56_260595134347_rgbf000074-resize_0-target.png,250,1.996,2.0,8041,241,meters,jsons/v1_VE250_randls_29_rotated.json,926801,1492528,39,Woman
67,834720,DepthScenes,duration_manipulation_targetAtFixation,jsons/v1_VE250_randls_29_rotated.json,http://54.235.29.9/FacialAge/BNav_EC2/DepthDuration/v2_depth_duration_MTurk/v2_DepthDuration_HTML.html#230,230,1707,960,1366,768,9-3-2022,6-10-13,68,depth_duration_stimuli/001056_2014-06-08_18-46-44_260595134347_rgbf000068-resize_0/001056_2014-06-08_18-46-44_260595134347_rgbf000068-resize_0-target.png,250,2.6625,3.4,4897,260,meters,jsons/v1_VE250_randls_29_rotated.json,926801,1492528,39,Woman
68,834720,DepthScenes,duration_manipulation_targetAtFixation,jsons/v1_VE250_randls_29_rotated.json,http://54.235.29.9/FacialAge/BNav_EC2/DepthDuration/v2_depth_duration_MTurk/v2_DepthDuration_HTML.html#230,230,1707,960,1366,768,9-3-2022,6-10-13,69,depth_duration_stimuli/003495_2014-05-21_16-01-51_094959634447_rgbf000100-resize_3/003495_2014-05-21_16-01-51_094959634447_rgbf000100-resize_3-target.png,250,1.6255,0.0,4586,248,meters,jsons/v1_VE250_randls_29_rotated.json,926801,1492528,39,Woman
69,834720,DepthScenes,duration_manipulation_targetAtFixation,jsons/v1_VE250_randls_29_rotated.json,http://54.235.29.9/FacialAge/BNav_EC2/DepthDuration/v2_depth_duration_MTurk/v2_DepthDuration_HTML.html#230,230,1707,960,1366,768,9-3-2022,6-10-13,70,depth_duration_stimuli/001244_2014-06-17_16-47-45_260595134347_rgbf000030-resize_4/001244_2014-06-17_16-47-45_260595134347_rgbf000030-resize_4-target.png,250,2.0425,3.4,4497,237,meters,jsons/v1_VE250_randls_29_rotated.json,926801,1492528,39,Woman
70,834720,DepthScenes,duration_manipulation_targetAtFixation,jsons/v1_VE250_randls_29_rotated.json,http://54.235.29.9/FacialAge/BNav_EC2/DepthDuration/v2_depth_duration_MTurk/v2_DepthDuration_HTML.html#230,230,1707,960,1366,768,9-3-2022,6-10-13,71,depth_duration_stimuli/001100_2014-06-15_17-46-26_260595134347_rgbf000225-resize_2/001100_2014-06-15_17-46-26_260595134347_rgbf000225-resize_2-target.png,250,2.24,2.5,5163,244,meters,jsons/v1_VE250_randls_29_rotated.json,926801,1492528,39,Woman
71,834720,DepthScenes,duration_manipulation_targetAtFixation,jsons/v1_VE250_randls_29_rotated.json,http://54.235.29.9/FacialAge/BNav_EC2/DepthDuration/v2_depth_duration_MTurk/v2_DepthDuration_HTML.html#230,230,1707,960,1366,768,9-3-2022,6-10-13,72,depth_duration_stimuli/002784_2014-06-22_19-26-30_094959634447_rgbf000083-resize_3/002784_2014-06-22_19-26-30_094959634447_rgbf000083-resize_3-target.png,250,1.8046666666667,2.4,4632,242,meters,jsons/v1_VE250_randls_29_rotated.json,926801,1492528,39,Woman
72,834720,DepthScenes,duration_manipulation_targetAtFixation,jsons/v1_VE250_randls_29_rotated.json,http://54.235.29.9/FacialAge/BNav_EC2/DepthDuration/v2_depth_duration_MTurk/v2_DepthDuration_HTML.html#230,230,1707,960,1366,768,9-3-2022,6-10-13,73,depth_duration_stimuli/003048_2014-06-15_13-49-43_094959634447_rgbf000150-resize_1/003048_2014-06-15_13-49-43_094959634447_rgbf000150-resize_1-target.png,250,4.0035,5.8,4493,248,meters,jsons/v1_VE250_randls_29_rotated.json,926801,1492528,39,Woman
73,834720,DepthScenes,duration_manipulation_targetAtFixation,jsons/v1_VE250_randls_29_rotated.json,http://54.235.29.9/FacialAge/BNav_EC2/DepthDuration/v2_depth_duration_MTurk/v2_DepthDuration_HTML.html#230,230,1707,960,1366,768,9-3-2022,6-10-13,74,depth_duration_stimuli/002043_2014-06-24_20-29-38_260595134347_rgbf000039-resize_4/002043_2014-06-24_20-29-38_260595134347_rgbf000039-resize_4-target.png,250,2.8435,6.0,4034,242,meters,jsons/v1_VE250_randls_29_rotated.json,926801,1492528,39,Woman
74,834720,DepthScenes,duration_manipulation_targetAtFixation,jsons/v1_VE250_randls_29_rotated.json,http://54.235.29.9/FacialAge/BNav_EC2/DepthDuration/v2_depth_duration_MTurk/v2_DepthDuration_HTML.html#230,230,1707,960,1366,768,9-3-2022,6-10-13,75,depth_duration_stimuli/003079_2014-06-15_15-18-20_094959634447_rgbf000152-resize_8/003079_2014-06-15_15-18-20_094959634447_rgbf000152-resize_8-target.png,250,2.8775,7.0,3668,250,meters,jsons/v1_VE250_randls_29_rotated.json,926801,1492528,39,Woman
75,834720,DepthScenes,duration_manipulation_targetAtFixation,jsons/v1_VE250_randls_29_rotated.json,http://54.235.29.9/FacialAge/BNav_EC2/DepthDuration/v2_depth_duration_MTurk/v2_DepthDuration_HTML.html#230,230,1707,960,1366,768,9-3-2022,6-10-13,76,depth_duration_stimuli/000506_2014-06-08_23-21-00_260595134347_rgbf000070-resize_7/000506_2014-06-08_23-21-00_260595134347_rgbf000070-resize_7-target.png,250,4.0585,0.0,3787,250,meters,jsons/v1_VE250_randls_29_rotated.json,926801,1492528,39,Woman
76,834720,DepthScenes,duration_manipulation_targetAtFixation,jsons/v1_VE250_randls_29_rotated.json,http://54.235.29.9/FacialAge/BNav_EC2/DepthDuration/v2_depth_duration_MTurk/v2_DepthDuration_HTML.html#230,230,1707,960,1366,768,9-3-2022,6-10-13,77,depth_duration_stimuli/000483_2014-06-09_20-41-45_260595134347_rgbf000116-resize_4/000483_2014-06-09_20-41-45_260595134347_rgbf000116-resize_4-target.png,250,1.337,2.3,4408,256,meters,jsons/v1_VE250_randls_29_rotated.json,926801,1492528,39,Woman
77,834720,DepthScenes,duration_manipulation_targetAtFixation,jsons/v1_VE250_randls_29_rotated.json,http://54.235.29.9/FacialAge/BNav_EC2/DepthDuration/v2_depth_duration_MTurk/v2_DepthDuration_HTML.html#230,230,1707,960,1366,768,9-3-2022,6-10-13,78,depth_duration_stimuli/000469_2014-06-09_19-42-10_260595134347_rgbf000081-resize_1/000469_2014-06-09_19-42-10_260595134347_rgbf000081-resize_1-target.png,250,1.652,3.6,3968,246,meters,jsons/v1_VE250_randls_29_rotated.json,926801,1492528,39,Woman
78,834720,DepthScenes,duration_manipulation_targetAtFixation,jsons/v1_VE250_randls_29_rotated.json,http://54.235.29.9/FacialAge/BNav_EC2/DepthDuration/v2_depth_duration_MTurk/v2_DepthDuration_HTML.html#230,230,1707,960,1366,768,9-3-2022,6-10-13,79,depth_duration_stimuli/002414_2014-06-28_20-24-58_260595134347_rgbf000067-resize_4/002414_2014-06-28_20-24-58_260595134347_rgbf000067-resize_4-target.png,250,4.363,4.8,4006,249,meters,jsons/v1_VE250_randls_29_rotated.json,926801,1492528,39,Woman
79,834720,DepthScenes,duration_manipulation_targetAtFixation,jsons/v1_VE250_randls_29_rotated.json,http://54.235.29.9/FacialAge/BNav_EC2/DepthDuration/v2_depth_duration_MTurk/v2_DepthDuration_HTML.html#230,230,1707,960,1366,768,9-3-2022,6-10-13,80,depth_duration_stimuli/000773_2014-06-08_22-24-54_260595134347_rgbf000093-resize_1/000773_2014-06-08_22-24-54_260595134347_rgbf000093-resize_1-target.png,250,4.973,5.8,3957,255,meters,jsons/v1_VE250_randls_29_rotated.json,926801,1492528,39,Woman
80,834720,DepthScenes,duration_manipulation_targetAtFixation,jsons/v1_VE250_randls_29_rotated.json,http://54.235.29.9/FacialAge/BNav_EC2/DepthDuration/v2_depth_duration_MTurk/v2_DepthDuration_HTML.html#230,230,1707,960,1366,768,9-3-2022,6-10-13,81,depth_duration_stimuli/002995_2014-06-15_12-31-26_094959634447_rgbf000150-resize_1/002995_2014-06-15_12-31-26_094959634447_rgbf000150-resize_1-target.png,250,3.8360000000000003,6.2,4779,248,meters,jsons/v1_VE250_randls_29_rotated.json,926801,1492528,39,Woman
81,834720,DepthScenes,duration_manipulation_targetAtFixation,jsons/v1_VE250_randls_29_rotated.json,http://54.235.29.9/FacialAge/BNav_EC2/DepthDuration/v2_depth_duration_MTurk/v2_DepthDuration_HTML.html#230,230,1707,960,1366,768,9-3-2022,6-10-13,82,depth_duration_stimuli/002748_2014-06-22_19-07-22_094959634447_rgbf000078-resize_1/002748_2014-06-22_19-07-22_094959634447_rgbf000078-resize_1-target.png,250,4.6705,6.0,3502,279,meters,jsons/v1_VE250_randls_29_rotated.json,926801,1492528,39,Woman
82,834720,DepthScenes,duration_manipulation_targetAtFixation,jsons/v1_VE250_randls_29_rotated.json,http://54.235.29.9/FacialAge/BNav_EC2/DepthDuration/v2_depth_duration_MTurk/v2_DepthDuration_HTML.html#230,230,1707,960,1366,768,9-3-2022,6-10-13,83,depth_duration_stimuli/000137_2014-05-20_17-04-49_260595134347_rgbf000120-resize_1/000137_2014-05-20_17-04-49_260595134347_rgbf000120-resize_1-target.png,250,3.786,4.9,4343,263,meters,jsons/v1_VE250_randls_29_rotated.json,926801,1492528,39,Woman
83,834720,DepthScenes,duration_manipulation_targetAtFixation,jsons/v1_VE250_randls_29_rotated.json,http://54.235.29.9/FacialAge/BNav_EC2/DepthDuration/v2_depth_duration_MTurk/v2_DepthDuration_HTML.html#230,230,1707,960,1366,768,9-3-2022,6-10-13,84,depth_duration_stimuli/000736_2014-06-08_18-24-15_260595134347_rgbf000206-resize_3/000736_2014-06-08_18-24-15_260595134347_rgbf000206-resize_3-target.png,250,3.515,3.4,4636,255,meters,jsons/v1_VE250_randls_29_rotated.json,926801,1492528,39,Woman
84,834720,DepthScenes,duration_manipulation_targetAtFixation,jsons/v1_VE250_randls_29_rotated.json,http://54.235.29.9/FacialAge/BNav_EC2/DepthDuration/v2_depth_duration_MTurk/v2_DepthDuration_HTML.html#230,230,1707,960,1366,768,9-3-2022,6-10-13,85,depth_duration_stimuli/002344_2014-06-28_20-06-29_260595134347_rgbf000030-resize_1/002344_2014-06-28_20-06-29_260595134347_rgbf000030-resize_1-target.png,250,1.5795,0.0,3027,195,meters,jsons/v1_VE250_randls_29_rotated.json,926801,1492528,39,Woman
85,834720,DepthScenes,duration_manipulation_targetAtFixation,jsons/v1_VE250_randls_29_rotated.json,http://54.235.29.9/FacialAge/BNav_EC2/DepthDuration/v2_depth_duration_MTurk/v2_DepthDuration_HTML.html#230,230,1707,960,1366,768,9-3-2022,6-10-13,86,depth_duration_stimuli/002725_2014-06-22_11-47-51_094959634447_rgbf000070-resize_1/002725_2014-06-22_11-47-51_094959634447_rgbf000070-resize_1-target.png,250,2.195,3.5,6964,253,meters,jsons/v1_VE250_randls_29_rotated.json,926801,1492528,39,Woman
86,834720,DepthScenes,duration_manipulation_targetAtFixation,jsons/v1_VE250_randls_29_rotated.json,http://54.235.29.9/FacialAge/BNav_EC2/DepthDuration/v2_depth_duration_MTurk/v2_DepthDuration_HTML.html#230,230,1707,960,1366,768,9-3-2022,6-10-13,87,depth_duration_stimuli/002639_2014-06-24_14-51-37_094959634447_rgbf000074-resize_4/002639_2014-06-24_14-51-37_094959634447_rgbf000074-resize_4-target.png,250,4.0375,4.3,4395,202,meters,jsons/v1_VE250_randls_29_rotated.json,926801,1492528,39,Woman
87,834720,DepthScenes,duration_manipulation_targetAtFixation,jsons/v1_VE250_randls_29_rotated.json,http://54.235.29.9/FacialAge/BNav_EC2/DepthDuration/v2_depth_duration_MTurk/v2_DepthDuration_HTML.html#230,230,1707,960,1366,768,9-3-2022,6-10-13,88,depth_duration_stimuli/003292_2014-05-14_21-53-49_094959634447_rgbf000100-resize_2/003292_2014-05-14_21-53-49_094959634447_rgbf000100-resize_2-target.png,250,3.4815,4.3,4438,252,meters,jsons/v1_VE250_randls_29_rotated.json,926801,1492528,39,Woman
88,834720,DepthScenes,duration_manipulation_targetAtFixation,jsons/v1_VE250_randls_29_rotated.json,http://54.235.29.9/FacialAge/BNav_EC2/DepthDuration/v2_depth_duration_MTurk/v2_DepthDuration_HTML.html#230,230,1707,960,1366,768,9-3-2022,6-10-13,89,depth_duration_stimuli/000866_2014-06-09_20-45-42_260595134347_rgbf000139-resize_1/000866_2014-06-09_20-45-42_260595134347_rgbf000139-resize_1-target.png,250,3.2155,2.0,6472,258,meters,jsons/v1_VE250_randls_29_rotated.json,926801,1492528,39,Woman
89,834720,DepthScenes,duration_manipulation_targetAtFixation,jsons/v1_VE250_randls_29_rotated.json,http://54.235.29.9/FacialAge/BNav_EC2/DepthDuration/v2_depth_duration_MTurk/v2_DepthDuration_HTML.html#230,230,1707,960,1366,768,9-3-2022,6-10-13,90,depth_duration_stimuli/002989_2014-06-15_12-25-03_094959634447_rgbf000150-resize_3/002989_2014-06-15_12-25-03_094959634447_rgbf000150-resize_3-target.png,250,4.1975,5.0,3698,257,meters,jsons/v1_VE250_randls_29_rotated.json,926801,1492528,39,Woman
90,834720,DepthScenes,duration_manipulation_targetAtFixation,jsons/v1_VE250_randls_29_rotated.json,http://54.235.29.9/FacialAge/BNav_EC2/DepthDuration/v2_depth_duration_MTurk/v2_DepthDuration_HTML.html#230,230,1707,960,1366,768,9-3-2022,6-10-13,91,depth_duration_stimuli/002444_2014-06-28_20-32-08_260595134347_rgbf000027-resize_0/002444_2014-06-28_20-32-08_260595134347_rgbf000027-resize_0-target.png,250,4.388999999999999,6.0,4230,253,meters,jsons/v1_VE250_randls_29_rotated.json,926801,1492528,39,Woman
91,834720,DepthScenes,duration_manipulation_targetAtFixation,jsons/v1_VE250_randls_29_rotated.json,http://54.235.29.9/FacialAge/BNav_EC2/DepthDuration/v2_depth_duration_MTurk/v2_DepthDuration_HTML.html#230,230,1707,960,1366,768,9-3-2022,6-10-13,92,depth_duration_stimuli/000436_2014-06-09_22-25-11_260595134347_rgbf000137-resize_1/000436_2014-06-09_22-25-11_260595134347_rgbf000137-resize_1-target.png,250,4.0705,5.6,3665,257,meters,jsons/v1_VE250_randls_29_rotated.json,926801,1492528,39,Woman
92,834720,DepthScenes,duration_manipulation_targetAtFixation,jsons/v1_VE250_randls_29_rotated.json,http://54.235.29.9/FacialAge/BNav_EC2/DepthDuration/v2_depth_duration_MTurk/v2_DepthDuration_HTML.html#230,230,1707,960,1366,768,9-3-2022,6-10-13,93,depth_duration_stimuli/003423_2014-05-21_10-23-26_094959634447_rgbf002665-resize_2/003423_2014-05-21_10-23-26_094959634447_rgbf002665-resize_2-target.png,250,3.2575,0.0,12211,250,meters,jsons/v1_VE250_randls_29_rotated.json,926801,1492528,39,Woman
93,834720,DepthScenes,duration_manipulation_targetAtFixation,jsons/v1_VE250_randls_29_rotated.json,http://54.235.29.9/FacialAge/BNav_EC2/DepthDuration/v2_depth_duration_MTurk/v2_DepthDuration_HTML.html#230,230,1707,960,1366,768,9-3-2022,6-10-13,94,depth_duration_stimuli/002905_2014-06-03_18-04-43_094959634447_rgbf000151-resize_2/002905_2014-06-03_18-04-43_094959634447_rgbf000151-resize_2-target.png,250,2.0295,2.5,4999,253,meters,jsons/v1_VE250_randls_29_rotated.json,926801,1492528,39,Woman
94,834720,DepthScenes,duration_manipulation_targetAtFixation,jsons/v1_VE250_randls_29_rotated.json,http://54.235.29.9/FacialAge/BNav_EC2/DepthDuration/v2_depth_duration_MTurk/v2_DepthDuration_HTML.html#230,230,1707,960,1366,768,9-3-2022,6-10-13,95,depth_duration_stimuli/003081_2014-06-15_15-19-16_094959634447_rgbf000150-resize_1/003081_2014-06-15_15-19-16_094959634447_rgbf000150-resize_1-target.png,250,3.9125,3.7,4735,243,meters,jsons/v1_VE250_randls_29_rotated.json,926801,1492528,39,Woman
95,834720,DepthScenes,duration_manipulation_targetAtFixation,jsons/v1_VE250_randls_29_rotated.json,http://54.235.29.9/FacialAge/BNav_EC2/DepthDuration/v2_depth_duration_MTurk/v2_DepthDuration_HTML.html#230,230,1707,960,1366,768,9-3-2022,6-10-13,96,depth_duration_stimuli/001417_2014-06-19_16-25-36_260595134347_rgbf000115-resize_5/001417_2014-06-19_16-25-36_260595134347_rgbf000115-resize_5-target.png,250,4.6255,3.6,4579,246,meters,jsons/v1_VE250_randls_29_rotated.json,926801,1492528,39,Woman
96,834720,DepthScenes,duration_manipulation_targetAtFixation,jsons/v1_VE250_randls_29_rotated.json,http://54.235.29.9/FacialAge/BNav_EC2/DepthDuration/v2_depth_duration_MTurk/v2_DepthDuration_HTML.html#230,230,1707,960,1366,768,9-3-2022,6-10-13,97,depth_duration_stimuli/003228_2014-05-14_13-42-35_094959634447_rgbf000101-resize_1/003228_2014-05-14_13-42-35_094959634447_rgbf000101-resize_1-target.png,250,1.9680000000000002,0.0,4369,250,meters,jsons/v1_VE250_randls_29_rotated.json,926801,1492528,39,Woman
97,834720,DepthScenes,duration_manipulation_targetAtFixation,jsons/v1_VE250_randls_29_rotated.json,http://54.235.29.9/FacialAge/BNav_EC2/DepthDuration/v2_depth_duration_MTurk/v2_DepthDuration_HTML.html#230,230,1707,960,1366,768,9-3-2022,6-10-13,98,depth_duration_stimuli/002600_2014-06-24_14-27-04_094959634447_rgbf000074-resize_2/002600_2014-06-24_14-27-04_094959634447_rgbf000074-resize_2-target.png,250,2.7575,4.6,5845,249,meters,jsons/v1_VE250_randls_29_rotated.json,926801,1492528,39,Woman
98,834720,DepthScenes,duration_manipulation_targetAtFixation,jsons/v1_VE250_randls_29_rotated.json,http://54.235.29.9/FacialAge/BNav_EC2/DepthDuration/v2_depth_duration_MTurk/v2_DepthDuration_HTML.html#230,230,1707,960,1366,768,9-3-2022,6-10-13,99,depth_duration_stimuli/001222_2014-06-17_16-24-06_260595134347_rgbf000073-resize_0/001222_2014-06-17_16-24-06_260595134347_rgbf000073-resize-original.jpg,250,1.4385,0.0,3660,252,meters,jsons/v1_VE250_randls_29_rotated.json,926801,1492528,39,Woman
99,834720,DepthScenes,duration_manipulation_targetAtFixation,jsons/v1_VE250_randls_29_rotated.json,http://54.235.29.9/FacialAge/BNav_EC2/DepthDuration/v2_depth_duration_MTurk/v2_DepthDuration_HTML.html#230,230,1707,960,1366,768,9-3-2022,6-10-13,100,depth_duration_stimuli/001132_2014-06-17_14-48-54_260595134347_rgbf000100-resize_2/001132_2014-06-17_14-48-54_260595134347_rgbf000100-resize_2-target.png,250,3.753,4.7,6280,249,meters,jsons/v1_VE250_randls_29_rotated.json,926801,1492528,39,Woman
100,834720,DepthScenes,duration_manipulation_targetAtFixation,jsons/v1_VE250_randls_29_rotated.json,http://54.235.29.9/FacialAge/BNav_EC2/DepthDuration/v2_depth_duration_MTurk/v2_DepthDuration_HTML.html#230,230,1707,960,1366,768,9-3-2022,6-10-13,101,depth_duration_stimuli/001133_2014-06-17_14-49-16_260595134347_rgbf000100-resize_0/001133_2014-06-17_14-49-16_260595134347_rgbf000100-resize_0-target.png,250,4.2115,4.9,4049,249,meters,jsons/v1_VE250_randls_29_rotated.json,926801,1492528,39,Woman
101,834720,DepthScenes,duration_manipulation_targetAtFixation,jsons/v1_VE250_randls_29_rotated.json,http://54.235.29.9/FacialAge/BNav_EC2/DepthDuration/v2_depth_duration_MTurk/v2_DepthDuration_HTML.html#230,230,1707,960,1366,768,9-3-2022,6-10-13,102,depth_duration_stimuli/003010_2014-06-15_12-54-35_094959634447_rgbf000112-resize_0/003010_2014-06-15_12-54-35_094959634447_rgbf000112-resize_0-target.png,250,3.1185,5.2,4414,248,meters,jsons/v1_VE250_randls_29_rotated.json,926801,1492528,39,Woman
102,834720,DepthScenes,duration_manipulation_targetAtFixation,jsons/v1_VE250_randls_29_rotated.json,http://54.235.29.9/FacialAge/BNav_EC2/DepthDuration/v2_depth_duration_MTurk/v2_DepthDuration_HTML.html#230,230,1707,960,1366,768,9-3-2022,6-10-13,103,depth_duration_stimuli/001810_2014-06-26_20-51-35_260595134347_rgbf000040-resize_3/001810_2014-06-26_20-51-35_260595134347_rgbf000040-resize_3-target.png,250,2.2525,3.4,6753,289,meters,jsons/v1_VE250_randls_29_rotated.json,926801,1492528,39,Woman
103,834720,DepthScenes,duration_manipulation_targetAtFixation,jsons/v1_VE250_randls_29_rotated.json,http://54.235.29.9/FacialAge/BNav_EC2/DepthDuration/v2_depth_duration_MTurk/v2_DepthDuration_HTML.html#230,230,1707,960,1366,768,9-3-2022,6-10-13,104,depth_duration_stimuli/000409_2014-06-04_19-23-33_260595134347_rgbf000067-resize_0/000409_2014-06-04_19-23-33_260595134347_rgbf000067-resize_0-target.png,250,3.7335,4.3,4649,251,meters,jsons/v1_VE250_randls_29_rotated.json,926801,1492528,39,Woman
104,834720,DepthScenes,duration_manipulation_targetAtFixation,jsons/v1_VE250_randls_29_rotated.json,http://54.235.29.9/FacialAge/BNav_EC2/DepthDuration/v2_depth_duration_MTurk/v2_DepthDuration_HTML.html#230,230,1707,960,1366,768,9-3-2022,6-10-13,105,depth_duration_stimuli/002663_2014-06-13_15-50-26_094959634447_rgbf000075-resize_1/002663_2014-06-13_15-50-26_094959634447_rgbf000075-resize_1-target.png,250,4.7495,5.4,5252,251,meters,jsons/v1_VE250_randls_29_rotated.json,926801,1492528,39,Woman
105,834720,DepthScenes,duration_manipulation_targetAtFixation,jsons/v1_VE250_randls_29_rotated.json,http://54.235.29.9/FacialAge/BNav_EC2/DepthDuration/v2_depth_duration_MTurk/v2_DepthDuration_HTML.html#230,230,1707,960,1366,768,9-3-2022,6-10-13,106,depth_duration_stimuli/000734_2014-06-08_17-39-11_260595134347_rgbf000128-resize_2/000734_2014-06-08_17-39-11_260595134347_rgbf000128-resize_2-target.png,250,4.098,4.6,5636,249,meters,jsons/v1_VE250_randls_29_rotated.json,926801,1492528,39,Woman
106,834720,DepthScenes,duration_manipulation_targetAtFixation,jsons/v1_VE250_randls_29_rotated.json,http://54.235.29.9/FacialAge/BNav_EC2/DepthDuration/v2_depth_duration_MTurk/v2_DepthDuration_HTML.html#230,230,1707,960,1366,768,9-3-2022,6-10-13,107,depth_duration_stimuli/000739_2014-06-08_18-45-58_260595134347_rgbf000068-resize_1/000739_2014-06-08_18-45-58_260595134347_rgbf000068-resize_1-target.png,250,3.534,5.7,3954,255,meters,jsons/v1_VE250_randls_29_rotated.json,926801,1492528,39,Woman
107,834720,DepthScenes,duration_manipulation_targetAtFixation,jsons/v1_VE250_randls_29_rotated.json,http://54.235.29.9/FacialAge/BNav_EC2/DepthDuration/v2_depth_duration_MTurk/v2_DepthDuration_HTML.html#230,230,1707,960,1366,768,9-3-2022,6-10-13,108,depth_duration_stimuli/001447_2014-06-19_17-00-32_260595134347_rgbf000082-resize_5/001447_2014-06-19_17-00-32_260595134347_rgbf000082-resize_5-target.png,250,4.13775,4.8,4587,245,meters,jsons/v1_VE250_randls_29_rotated.json,926801,1492528,39,Woman
108,834720,DepthScenes,duration_manipulation_targetAtFixation,jsons/v1_VE250_randls_29_rotated.json,http://54.235.29.9/FacialAge/BNav_EC2/DepthDuration/v2_depth_duration_MTurk/v2_DepthDuration_HTML.html#230,230,1707,960,1366,768,9-3-2022,6-10-13,109,depth_duration_stimuli/000447_2014-06-08_16-15-46_260595134347_rgbf000130-resize_1/000447_2014-06-08_16-15-46_260595134347_rgbf000130-resize_1-target.png,250,4.479,5.6,3835,256,meters,jsons/v1_VE250_randls_29_rotated.json,926801,1492528,39,Woman
109,834720,DepthScenes,duration_manipulation_targetAtFixation,jsons/v1_VE250_randls_29_rotated.json,http://54.235.29.9/FacialAge/BNav_EC2/DepthDuration/v2_depth_duration_MTurk/v2_DepthDuration_HTML.html#230,230,1707,960,1366,768,9-3-2022,6-10-13,110,depth_duration_stimuli/000749_2014-06-08_21-55-06_260595134347_rgbf000070-resize_2/000749_2014-06-08_21-55-06_260595134347_rgbf000070-resize_2-target.png,250,2.331,5.6,5543,246,meters,jsons/v1_VE250_randls_29_rotated.json,926801,1492528,39,Woman
110,834720,DepthScenes,duration_manipulation_targetAtFixation,jsons/v1_VE250_randls_29_rotated.json,http://54.235.29.9/FacialAge/BNav_EC2/DepthDuration/v2_depth_duration_MTurk/v2_DepthDuration_HTML.html#230,230,1707,960,1366,768,9-3-2022,6-10-13,111,depth_duration_stimuli/002788_2014-06-22_19-36-03_094959634447_rgbf000088-resize_2/002788_2014-06-22_19-36-03_094959634447_rgbf000088-resize_2-target.png,250,1.6465,5.7,4133,248,meters,jsons/v1_VE250_randls_29_rotated.json,926801,1492528,39,Woman
111,834720,DepthScenes,duration_manipulation_targetAtFixation,jsons/v1_VE250_randls_29_rotated.json,http://54.235.29.9/FacialAge/BNav_EC2/DepthDuration/v2_depth_duration_MTurk/v2_DepthDuration_HTML.html#230,230,1707,960,1366,768,9-3-2022,6-10-13,112,depth_duration_stimuli/002805_2014-06-22_19-54-03_094959634447_rgbf000079-resize_1/002805_2014-06-22_19-54-03_094959634447_rgbf000079-resize_1-target.png,250,3.1439999999999997,0.0,3976,258,meters,jsons/v1_VE250_randls_29_rotated.json,926801,1492528,39,Woman
112,834720,DepthScenes,duration_manipulation_targetAtFixation,jsons/v1_VE250_randls_29_rotated.json,http://54.235.29.9/FacialAge/BNav_EC2/DepthDuration/v2_depth_duration_MTurk/v2_DepthDuration_HTML.html#230,230,1707,960,1366,768,9-3-2022,6-10-13,113,depth_duration_stimuli/000906_2014-06-08_13-35-43_260595134347_rgbf000155-resize_1/000906_2014-06-08_13-35-43_260595134347_rgbf000155-resize_1-target.png,250,2.8489999999999998,6.0,3343,234,meters,jsons/v1_VE250_randls_29_rotated.json,926801,1492528,39,Woman
113,834720,DepthScenes,duration_manipulation_targetAtFixation,jsons/v1_VE250_randls_29_rotated.json,http://54.235.29.9/FacialAge/BNav_EC2/DepthDuration/v2_depth_duration_MTurk/v2_DepthDuration_HTML.html#230,230,1707,960,1366,768,9-3-2022,6-10-13,114,depth_duration_stimuli/000103_2014-05-14_22-01-17_260595134347_rgbf000152-resize_5/000103_2014-05-14_22-01-17_260595134347_rgbf000152-resize_5-target.png,250,1.993,5.8,4039,247,meters,jsons/v1_VE250_randls_29_rotated.json,926801,1492528,39,Woman
114,834720,DepthScenes,duration_manipulation_targetAtFixation,jsons/v1_VE250_randls_29_rotated.json,http://54.235.29.9/FacialAge/BNav_EC2/DepthDuration/v2_depth_duration_MTurk/v2_DepthDuration_HTML.html#230,230,1707,960,1366,768,9-3-2022,6-10-13,115,depth_duration_stimuli/001555_2014-06-20_17-12-10_260595134347_rgbf000065-resize_4/001555_2014-06-20_17-12-10_260595134347_rgbf000065-resize_4-target.png,250,1.633,3.1,4123,258,meters,jsons/v1_VE250_randls_29_rotated.json,926801,1492528,39,Woman
115,834720,DepthScenes,duration_manipulation_targetAtFixation,jsons/v1_VE250_randls_29_rotated.json,http://54.235.29.9/FacialAge/BNav_EC2/DepthDuration/v2_depth_duration_MTurk/v2_DepthDuration_HTML.html#230,230,1707,960,1366,768,9-3-2022,6-10-13,116,depth_duration_stimuli/002103_2014-06-25_20-00-40_260595134347_rgbf000049-resize_0/002103_2014-06-25_20-00-40_260595134347_rgbf000049-resize_0-target.png,250,4.105,3.8,4620,259,meters,jsons/v1_VE250_randls_29_rotated.json,926801,1492528,39,Woman
116,834720,DepthScenes,duration_manipulation_targetAtFixation,jsons/v1_VE250_randls_29_rotated.json,http://54.235.29.9/FacialAge/BNav_EC2/DepthDuration/v2_depth_duration_MTurk/v2_DepthDuration_HTML.html#230,230,1707,960,1366,768,9-3-2022,6-10-13,117,depth_duration_stimuli/002039_2014-06-24_20-22-38_260595134347_rgbf000084-resize_1/002039_2014-06-24_20-22-38_260595134347_rgbf000084-resize_1-target.png,250,4.408,3.4,4295,242,meters,jsons/v1_VE250_randls_29_rotated.json,926801,1492528,39,Woman
117,834720,DepthScenes,duration_manipulation_targetAtFixation,jsons/v1_VE250_randls_29_rotated.json,http://54.235.29.9/FacialAge/BNav_EC2/DepthDuration/v2_depth_duration_MTurk/v2_DepthDuration_HTML.html#230,230,1707,960,1366,768,9-3-2022,6-10-13,118,depth_duration_stimuli/003129_2014-05-12_10-48-10_094959634447_rgbf000100-resize_0/003129_2014-05-12_10-48-10_094959634447_rgbf000100-resize_0-target.png,250,4.9305,5.5,4455,222,meters,jsons/v1_VE250_randls_29_rotated.json,926801,1492528,39,Woman
118,834720,DepthScenes,duration_manipulation_targetAtFixation,jsons/v1_VE250_randls_29_rotated.json,http://54.235.29.9/FacialAge/BNav_EC2/DepthDuration/v2_depth_duration_MTurk/v2_DepthDuration_HTML.html#230,230,1707,960,1366,768,9-3-2022,6-10-13,119,depth_duration_stimuli/000414_2014-06-04_19-49-13_260595134347_rgbf000044-resize_0/000414_2014-06-04_19-49-13_260595134347_rgbf000044-resize_0-target.png,250,4.329,6.0,4001,263,meters,jsons/v1_VE250_randls_29_rotated.json,926801,1492528,39,Woman
119,834720,DepthScenes,duration_manipulation_targetAtFixation,jsons/v1_VE250_randls_29_rotated.json,http://54.235.29.9/FacialAge/BNav_EC2/DepthDuration/v2_depth_duration_MTurk/v2_DepthDuration_HTML.html#230,230,1707,960,1366,768,9-3-2022,6-10-13,120,depth_duration_stimuli/000787_2014-06-08_22-33-53_260595134347_rgbf000175-resize_1/000787_2014-06-08_22-33-53_260595134347_rgbf000175-resize-original.jpg,250,4.784,2.3,11833,215,meters,jsons/v1_VE250_randls_29_rotated.json,926801,1492528,39,Woman
120,834720,DepthScenes,duration_manipulation_targetAtFixation,jsons/v1_VE250_randls_29_rotated.json,http://54.235.29.9/FacialAge/BNav_EC2/DepthDuration/v2_depth_duration_MTurk/v2_DepthDuration_HTML.html#230,230,1707,960,1366,768,9-3-2022,6-10-13,121,depth_duration_stimuli/000742_2014-06-08_18-48-09_260595134347_rgbf000164-resize_4/000742_2014-06-08_18-48-09_260595134347_rgbf000164-resize_4-target.png,250,4.632,5.6,5254,234,meters,jsons/v1_VE250_randls_29_rotated.json,926801,1492528,39,Woman
121,834720,DepthScenes,duration_manipulation_targetAtFixation,jsons/v1_VE250_randls_29_rotated.json,http://54.235.29.9/FacialAge/BNav_EC2/DepthDuration/v2_depth_duration_MTurk/v2_DepthDuration_HTML.html#230,230,1707,960,1366,768,9-3-2022,6-10-13,122,depth_duration_stimuli/001066_2014-06-08_22-03-20_260595134347_rgbf000066-resize_4/001066_2014-06-08_22-03-20_260595134347_rgbf000066-resize_4-target.png,250,4.2330000000000005,3.4,4899,250,meters,jsons/v1_VE250_randls_29_rotated.json,926801,1492528,39,Woman
122,834720,DepthScenes,duration_manipulation_targetAtFixation,jsons/v1_VE250_randls_29_rotated.json,http://54.235.29.9/FacialAge/BNav_EC2/DepthDuration/v2_depth_duration_MTurk/v2_DepthDuration_HTML.html#230,230,1707,960,1366,768,9-3-2022,6-10-13,123,depth_duration_stimuli/002323_2014-06-28_20-01-54_260595134347_rgbf000051-resize_4/002323_2014-06-28_20-01-54_260595134347_rgbf000051-resize_4-target.png,250,3.7310000000000003,4.8,6350,243,meters,jsons/v1_VE250_randls_29_rotated.json,926801,1492528,39,Woman
123,834720,DepthScenes,duration_manipulation_targetAtFixation,jsons/v1_VE250_randls_29_rotated.json,http://54.235.29.9/FacialAge/BNav_EC2/DepthDuration/v2_depth_duration_MTurk/v2_DepthDuration_HTML.html#230,230,1707,960,1366,768,9-3-2022,6-10-13,124,depth_duration_stimuli/000917_2014-06-09_22-45-29_260595134347_rgbf000149-resize_3/000917_2014-06-09_22-45-29_260595134347_rgbf000149-resize_3-target.png,250,4.1865,6.8,5520,250,meters,jsons/v1_VE250_randls_29_rotated.json,926801,1492528,39,Woman
124,834720,DepthScenes,duration_manipulation_targetAtFixation,jsons/v1_VE250_randls_29_rotated.json,http://54.235.29.9/FacialAge/BNav_EC2/DepthDuration/v2_depth_duration_MTurk/v2_DepthDuration_HTML.html#230,230,1707,960,1366,768,9-3-2022,6-10-13,125,depth_duration_stimuli/002467_2014-06-28_20-38-07_260595134347_rgbf000026-resize_2/002467_2014-06-28_20-38-07_260595134347_rgbf000026-resize_2-target.png,250,4.742,6.7,6249,239,meters,jsons/v1_VE250_randls_29_rotated.json,926801,1492528,39,Woman
125,834720,DepthScenes,duration_manipulation_targetAtFixation,jsons/v1_VE250_randls_29_rotated.json,http://54.235.29.9/FacialAge/BNav_EC2/DepthDuration/v2_depth_duration_MTurk/v2_DepthDuration_HTML.html#230,230,1707,960,1366,768,9-3-2022,6-10-13,126,depth_duration_stimuli/002570_2014-06-24_13-59-54_094959634447_rgbf000059-resize_0/002570_2014-06-24_13-59-54_094959634447_rgbf000059-resize_0-target.png,250,4.037,0.0,5091,249,meters,jsons/v1_VE250_randls_29_rotated.json,926801,1492528,39,Woman
126,834720,DepthScenes,duration_manipulation_targetAtFixation,jsons/v1_VE250_randls_29_rotated.json,http://54.235.29.9/FacialAge/BNav_EC2/DepthDuration/v2_depth_duration_MTurk/v2_DepthDuration_HTML.html#230,230,1707,960,1366,768,9-3-2022,6-10-13,127,depth_duration_stimuli/000549_2014-06-08_22-10-24_260595134347_rgbf000247-resize_3/000549_2014-06-08_22-10-24_260595134347_rgbf000247-resize_3-target.png,250,1.841,2.8,4102,243,meters,jsons/v1_VE250_randls_29_rotated.json,926801,1492528,39,Woman
127,834720,DepthScenes,duration_manipulation_targetAtFixation,jsons/v1_VE250_randls_29_rotated.json,http://54.235.29.9/FacialAge/BNav_EC2/DepthDuration/v2_depth_duration_MTurk/v2_DepthDuration_HTML.html#230,230,1707,960,1366,768,9-3-2022,6-10-13,128,depth_duration_stimuli/001055_2014-06-08_18-45-35_260595134347_rgbf000111-resize_4/001055_2014-06-08_18-45-35_260595134347_rgbf000111-resize_4-target.png,250,2.4290000000000003,0.0,3591,262,meters,jsons/v1_VE250_randls_29_rotated.json,926801,1492528,39,Woman
128,834720,DepthScenes,duration_manipulation_targetAtFixation,jsons/v1_VE250_randls_29_rotated.json,http://54.235.29.9/FacialAge/BNav_EC2/DepthDuration/v2_depth_duration_MTurk/v2_DepthDuration_HTML.html#230,230,1707,960,1366,768,9-3-2022,6-10-13,129,depth_duration_stimuli/002545_2014-06-24_13-38-53_094959634447_rgbf000080-resize_4/002545_2014-06-24_13-38-53_094959634447_rgbf000080-resize_4-target.png,250,1.9205,0.0,4673,251,meters,jsons/v1_VE250_randls_29_rotated.json,926801,1492528,39,Woman
129,834720,DepthScenes,duration_manipulation_targetAtFixation,jsons/v1_VE250_randls_29_rotated.json,http://54.235.29.9/FacialAge/BNav_EC2/DepthDuration/v2_depth_duration_MTurk/v2_DepthDuration_HTML.html#230,230,1707,960,1366,768,9-3-2022,6-10-13,130,depth_duration_stimuli/001092_2014-06-15_17-34-58_260595134347_rgbf000171-resize_3/001092_2014-06-15_17-34-58_260595134347_rgbf000171-resize_3-target.png,250,2.6935,3.2,4657,255,meters,jsons/v1_VE250_randls_29_rotated.json,926801,1492528,39,Woman
130,834720,DepthScenes,duration_manipulation_targetAtFixation,jsons/v1_VE250_randls_29_rotated.json,http://54.235.29.9/FacialAge/BNav_EC2/DepthDuration/v2_depth_duration_MTurk/v2_DepthDuration_HTML.html#230,230,1707,960,1366,768,9-3-2022,6-10-13,131,depth_duration_stimuli/000709_2014-06-08_13-51-55_260595134347_rgbf000068-resize_3/000709_2014-06-08_13-51-55_260595134347_rgbf000068-resize_3-target.png,250,1.8030000000000002,3.8,6154,243,meters,jsons/v1_VE250_randls_29_rotated.json,926801,1492528,39,Woman
131,834720,DepthScenes,duration_manipulation_targetAtFixation,jsons/v1_VE250_randls_29_rotated.json,http://54.235.29.9/FacialAge/BNav_EC2/DepthDuration/v2_depth_duration_MTurk/v2_DepthDuration_HTML.html#230,230,1707,960,1366,768,9-3-2022,6-10-13,132,depth_duration_stimuli/002057_2014-06-24_21-00-13_260595134347_rgbf000120-resize_1/002057_2014-06-24_21-00-13_260595134347_rgbf000120-resize_1-target.png,250,2.967,6.8,4759,240,meters,jsons/v1_VE250_randls_29_rotated.json,926801,1492528,39,Woman
132,834720,DepthScenes,duration_manipulation_targetAtFixation,jsons/v1_VE250_randls_29_rotated.json,http://54.235.29.9/FacialAge/BNav_EC2/DepthDuration/v2_depth_duration_MTurk/v2_DepthDuration_HTML.html#230,230,1707,960,1366,768,9-3-2022,6-10-13,133,depth_duration_stimuli/001052_2014-06-08_18-24-54_260595134347_rgbf000130-resize_1/001052_2014-06-08_18-24-54_260595134347_rgbf000130-resize_1-target.png,250,4.1045,2.6,13783,242,meters,jsons/v1_VE250_randls_29_rotated.json,926801,1492528,39,Woman
133,834720,DepthScenes,duration_manipulation_targetAtFixation,jsons/v1_VE250_randls_29_rotated.json,http://54.235.29.9/FacialAge/BNav_EC2/DepthDuration/v2_depth_duration_MTurk/v2_DepthDuration_HTML.html#230,230,1707,960,1366,768,9-3-2022,6-10-13,134,depth_duration_stimuli/002988_2014-06-15_12-24-20_094959634447_rgbf000150-resize_1/002988_2014-06-15_12-24-20_094959634447_rgbf000150-resize_1-target.png,250,4.7669999999999995,7.4,6089,257,meters,jsons/v1_VE250_randls_29_rotated.json,926801,1492528,39,Woman
134,834720,DepthScenes,duration_manipulation_targetAtFixation,jsons/v1_VE250_randls_29_rotated.json,http://54.235.29.9/FacialAge/BNav_EC2/DepthDuration/v2_depth_duration_MTurk/v2_DepthDuration_HTML.html#230,230,1707,960,1366,768,9-3-2022,6-10-13,135,depth_duration_stimuli/000375_2014-06-08_11-17-29_260595134347_rgbf000133-resize_2/000375_2014-06-08_11-17-29_260595134347_rgbf000133-resize-original.jpg,250,4.718,0.0,7627,257,meters,jsons/v1_VE250_randls_29_rotated.json,926801,1492528,39,Woman
135,834720,DepthScenes,duration_manipulation_targetAtFixation,jsons/v1_VE250_randls_29_rotated.json,http://54.235.29.9/FacialAge/BNav_EC2/DepthDuration/v2_depth_duration_MTurk/v2_DepthDuration_HTML.html#230,230,1707,960,1366,768,9-3-2022,6-10-13,136,depth_duration_stimuli/001094_2014-06-15_17-36-00_260595134347_rgbf000205-resize_0/001094_2014-06-15_17-36-00_260595134347_rgbf000205-resize_0-target.png,250,4.2175,6.3,5418,250,meters,jsons/v1_VE250_randls_29_rotated.json,926801,1492528,39,Woman
136,834720,DepthScenes,duration_manipulation_targetAtFixation,jsons/v1_VE250_randls_29_rotated.json,http://54.235.29.9/FacialAge/BNav_EC2/DepthDuration/v2_depth_duration_MTurk/v2_DepthDuration_HTML.html#230,230,1707,960,1366,768,9-3-2022,6-10-13,137,depth_duration_stimuli/000692_2014-06-08_13-09-42_260595134347_rgbf000199-resize_2/000692_2014-06-08_13-09-42_260595134347_rgbf000199-resize_2-target.png,250,3.661,6.4,4802,250,meters,jsons/v1_VE250_randls_29_rotated.json,926801,1492528,39,Woman
137,834720,DepthScenes,duration_manipulation_targetAtFixation,jsons/v1_VE250_randls_29_rotated.json,http://54.235.29.9/FacialAge/BNav_EC2/DepthDuration/v2_depth_duration_MTurk/v2_DepthDuration_HTML.html#230,230,1707,960,1366,768,9-3-2022,6-10-13,138,depth_duration_stimuli/000691_2014-06-08_13-08-50_260595134347_rgbf000132-resize_3/000691_2014-06-08_13-08-50_260595134347_rgbf000132-resize_3-target.png,250,4.1530000000000005,6.5,4759,243,meters,jsons/v1_VE250_randls_29_rotated.json,926801,1492528,39,Woman
138,834720,DepthScenes,duration_manipulation_targetAtFixation,jsons/v1_VE250_randls_29_rotated.json,http://54.235.29.9/FacialAge/BNav_EC2/DepthDuration/v2_depth_duration_MTurk/v2_DepthDuration_HTML.html#230,230,1707,960,1366,768,9-3-2022,6-10-13,139,depth_duration_stimuli/002213_2014-06-28_18-37-58_260595134347_rgbf000055-resize_1/002213_2014-06-28_18-37-58_260595134347_rgbf000055-resize_1-target.png,250,3.62,6.7,4380,252,meters,jsons/v1_VE250_randls_29_rotated.json,926801,1492528,39,Woman
139,834720,DepthScenes,duration_manipulation_targetAtFixation,jsons/v1_VE250_randls_29_rotated.json,http://54.235.29.9/FacialAge/BNav_EC2/DepthDuration/v2_depth_duration_MTurk/v2_DepthDuration_HTML.html#230,230,1707,960,1366,768,9-3-2022,6-10-13,140,depth_duration_stimuli/001136_2014-06-17_15-19-41_260595134347_rgbf000076-resize_3/001136_2014-06-17_15-19-41_260595134347_rgbf000076-resize_3-target.png,250,1.8655,4.8,4250,249,meters,jsons/v1_VE250_randls_29_rotated.json,926801,1492528,39,Woman
140,834720,DepthScenes,duration_manipulation_targetAtFixation,jsons/v1_VE250_randls_29_rotated.json,http://54.235.29.9/FacialAge/BNav_EC2/DepthDuration/v2_depth_duration_MTurk/v2_DepthDuration_HTML.html#230,230,1707,960,1366,768,9-3-2022,6-10-13,141,depth_duration_stimuli/001164_2014-06-17_15-35-46_260595134347_rgbf000085-resize_3/001164_2014-06-17_15-35-46_260595134347_rgbf000085-resize_3-target.png,250,2.354,4.5,4608,250,meters,jsons/v1_VE250_randls_29_rotated.json,926801,1492528,39,Woman
141,834720,DepthScenes,duration_manipulation_targetAtFixation,jsons/v1_VE250_randls_29_rotated.json,http://54.235.29.9/FacialAge/BNav_EC2/DepthDuration/v2_depth_duration_MTurk/v2_DepthDuration_HTML.html#230,230,1707,960,1366,768,9-3-2022,6-10-13,142,depth_duration_stimuli/003490_2014-05-21_15-50-11_094959634447_rgbf000101-resize_3/003490_2014-05-21_15-50-11_094959634447_rgbf000101-resize_3-target.png,250,3.6445,0.0,6109,250,meters,jsons/v1_VE250_randls_29_rotated.json,926801,1492528,39,Woman
142,834720,DepthScenes,duration_manipulation_targetAtFixation,jsons/v1_VE250_randls_29_rotated.json,http://54.235.29.9/FacialAge/BNav_EC2/DepthDuration/v2_depth_duration_MTurk/v2_DepthDuration_HTML.html#230,230,1707,960,1366,768,9-3-2022,6-10-13,143,depth_duration_stimuli/001175_2014-06-17_15-45-55_260595134347_rgbf000129-resize_4/001175_2014-06-17_15-45-55_260595134347_rgbf000129-resize_4-target.png,250,4.255,4.8,5479,255,meters,jsons/v1_VE250_randls_29_rotated.json,926801,1492528,39,Woman
143,834720,DepthScenes,duration_manipulation_targetAtFixation,jsons/v1_VE250_randls_29_rotated.json,http://54.235.29.9/FacialAge/BNav_EC2/DepthDuration/v2_depth_duration_MTurk/v2_DepthDuration_HTML.html#230,230,1707,960,1366,768,9-3-2022,6-10-13,144,depth_duration_stimuli/002750_2014-06-22_19-08-03_094959634447_rgbf000094-resize_4/002750_2014-06-22_19-08-03_094959634447_rgbf000094-resize_4-target.png,250,2.354,4.0,4386,247,meters,jsons/v1_VE250_randls_29_rotated.json,926801,1492528,39,Woman
144,834720,DepthScenes,duration_manipulation_targetAtFixation,jsons/v1_VE250_randls_29_rotated.json,http://54.235.29.9/FacialAge/BNav_EC2/DepthDuration/v2_depth_duration_MTurk/v2_DepthDuration_HTML.html#230,230,1707,960,1366,768,9-3-2022,6-10-13,145,depth_duration_stimuli/002549_2014-06-24_13-41-39_094959634447_rgbf000022-resize_3/002549_2014-06-24_13-41-39_094959634447_rgbf000022-resize_3-target.png,250,1.476,2.6,4099,257,meters,jsons/v1_VE250_randls_29_rotated.json,926801,1492528,39,Woman
145,834720,DepthScenes,duration_manipulation_targetAtFixation,jsons/v1_VE250_randls_29_rotated.json,http://54.235.29.9/FacialAge/BNav_EC2/DepthDuration/v2_depth_duration_MTurk/v2_DepthDuration_HTML.html#230,230,1707,960,1366,768,9-3-2022,6-10-13,146,depth_duration_stimuli/002637_2014-06-24_14-51-13_094959634447_rgbf000066-resize_4/002637_2014-06-24_14-51-13_094959634447_rgbf000066-resize_4-target.png,250,1.9955,3.7,5025,255,meters,jsons/v1_VE250_randls_29_rotated.json,926801,1492528,39,Woman
146,834720,DepthScenes,duration_manipulation_targetAtFixation,jsons/v1_VE250_randls_29_rotated.json,http://54.235.29.9/FacialAge/BNav_EC2/DepthDuration/v2_depth_duration_MTurk/v2_DepthDuration_HTML.html#230,230,1707,960,1366,768,9-3-2022,6-10-13,147,depth_duration_stimuli/003534_2014-05-22_15-06-10_094959634447_rgbf000102-resize_4/003534_2014-05-22_15-06-10_094959634447_rgbf000102-resize_4-target.png,250,1.426,2.4,4467,249,meters,jsons/v1_VE250_randls_29_rotated.json,926801,1492528,39,Woman
147,834720,DepthScenes,duration_manipulation_targetAtFixation,jsons/v1_VE250_randls_29_rotated.json,http://54.235.29.9/FacialAge/BNav_EC2/DepthDuration/v2_depth_duration_MTurk/v2_DepthDuration_HTML.html#230,230,1707,960,1366,768,9-3-2022,6-10-13,148,depth_duration_stimuli/001584_2014-06-20_11-07-43_260595134347_rgbf000002-resize_1/001584_2014-06-20_11-07-43_260595134347_rgbf000002-resize_1-target.png,250,3.53,4.07,10726,238,meters,jsons/v1_VE250_randls_29_rotated.json,926801,1492528,39,Woman
148,834720,DepthScenes,duration_manipulation_targetAtFixation,jsons/v1_VE250_randls_29_rotated.json,http://54.235.29.9/FacialAge/BNav_EC2/DepthDuration/v2_depth_duration_MTurk/v2_DepthDuration_HTML.html#230,230,1707,960,1366,768,9-3-2022,6-10-13,149,depth_duration_stimuli/003621_2014-05-23_18-06-08_094959634447_rgbf000101-resize_1/003621_2014-05-23_18-06-08_094959634447_rgbf000101-resize_1-target.png,250,3.9835,0.0,4739,251,meters,jsons/v1_VE250_randls_29_rotated.json,926801,1492528,39,Woman
149,834720,DepthScenes,duration_manipulation_targetAtFixation,jsons/v1_VE250_randls_29_rotated.json,http://54.235.29.9/FacialAge/BNav_EC2/DepthDuration/v2_depth_duration_MTurk/v2_DepthDuration_HTML.html#230,230,1707,960,1366,768,9-3-2022,6-10-13,150,depth_duration_stimuli/000780_2014-06-08_22-28-29_260595134347_rgbf000126-resize_1/000780_2014-06-08_22-28-29_260595134347_rgbf000126-resize_1-target.png,250,3.3825,6.2,7378,245,meters,jsons/v1_VE250_randls_29_rotated.json,926801,1492528,39,Woman
150,834720,DepthScenes,duration_manipulation_targetAtFixation,jsons/v1_VE250_randls_29_rotated.json,http://54.235.29.9/FacialAge/BNav_EC2/DepthDuration/v2_depth_duration_MTurk/v2_DepthDuration_HTML.html#230,230,1707,960,1366,768,9-3-2022,6-10-13,151,depth_duration_stimuli/002445_2014-06-28_20-32-16_260595134347_rgbf000029-resize_4/002445_2014-06-28_20-32-16_260595134347_rgbf000029-resize_4-target.png,250,2.5315,4.5,5149,292,meters,jsons/v1_VE250_randls_29_rotated.json,926801,1492528,39,Woman
151,834720,DepthScenes,duration_manipulation_targetAtFixation,jsons/v1_VE250_randls_29_rotated.json,http://54.235.29.9/FacialAge/BNav_EC2/DepthDuration/v2_depth_duration_MTurk/v2_DepthDuration_HTML.html#230,230,1707,960,1366,768,9-3-2022,6-10-13,152,depth_duration_stimuli/000569_2014-06-09_22-51-47_260595134347_rgbf000141-resize_3/000569_2014-06-09_22-51-47_260595134347_rgbf000141-resize-original.jpg,250,4.512,0.0,4541,251,meters,jsons/v1_VE250_randls_29_rotated.json,926801,1492528,39,Woman
152,834720,DepthScenes,duration_manipulation_targetAtFixation,jsons/v1_VE250_randls_29_rotated.json,http://54.235.29.9/FacialAge/BNav_EC2/DepthDuration/v2_depth_duration_MTurk/v2_DepthDuration_HTML.html#230,230,1707,960,1366,768,9-3-2022,6-10-13,153,depth_duration_stimuli/002678_2014-06-13_16-15-32_094959634447_rgbf000151-resize_6/002678_2014-06-13_16-15-32_094959634447_rgbf000151-resize_6-target.png,250,2.1830000000000003,6.0,4758,250,meters,jsons/v1_VE250_randls_29_rotated.json,926801,1492528,39,Woman
153,834720,DepthScenes,duration_manipulation_targetAtFixation,jsons/v1_VE250_randls_29_rotated.json,http://54.235.29.9/FacialAge/BNav_EC2/DepthDuration/v2_depth_duration_MTurk/v2_DepthDuration_HTML.html#230,230,1707,960,1366,768,9-3-2022,6-10-13,154,depth_duration_stimuli/000368_2014-06-09_15-53-01_260595134347_rgbf000155-resize_2/000368_2014-06-09_15-53-01_260595134347_rgbf000155-resize_2-target.png,250,2.4859999999999998,3.5,5259,250,meters,jsons/v1_VE250_randls_29_rotated.json,926801,1492528,39,Woman
154,834720,DepthScenes,duration_manipulation_targetAtFixation,jsons/v1_VE250_randls_29_rotated.json,http://54.235.29.9/FacialAge/BNav_EC2/DepthDuration/v2_depth_duration_MTurk/v2_DepthDuration_HTML.html#230,230,1707,960,1366,768,9-3-2022,6-10-13,155,depth_duration_stimuli/000191_2014-05-12_17-07-38_260595134347_rgbf000199-resize_0/000191_2014-05-12_17-07-38_260595134347_rgbf000199-resize_0-target.png,250,3.7995,0.0,7041,242,meters,jsons/v1_VE250_randls_29_rotated.json,926801,1492528,39,Woman
155,834720,DepthScenes,duration_manipulation_targetAtFixation,jsons/v1_VE250_randls_29_rotated.json,http://54.235.29.9/FacialAge/BNav_EC2/DepthDuration/v2_depth_duration_MTurk/v2_DepthDuration_HTML.html#230,230,1707,960,1366,768,9-3-2022,6-10-13,156,depth_duration_stimuli/000493_2014-06-09_21-01-18_260595134347_rgbf000196-resize_3/000493_2014-06-09_21-01-18_260595134347_rgbf000196-resize_3-target.png,250,3.44,3.8,4349,253,meters,jsons/v1_VE250_randls_29_rotated.json,926801,1492528,39,Woman
156,834720,DepthScenes,duration_manipulation_targetAtFixation,jsons/v1_VE250_randls_29_rotated.json,http://54.235.29.9/FacialAge/BNav_EC2/DepthDuration/v2_depth_duration_MTurk/v2_DepthDuration_HTML.html#230,230,1707,960,1366,768,9-3-2022,6-10-13,157,depth_duration_stimuli/000677_2014-06-08_23-10-32_260595134347_rgbf000158-resize_6/000677_2014-06-08_23-10-32_260595134347_rgbf000158-resize_6-target.png,250,3.556,5.0,4045,247,meters,jsons/v1_VE250_randls_29_rotated.json,926801,1492528,39,Woman
157,834720,DepthScenes,duration_manipulation_targetAtFixation,jsons/v1_VE250_randls_29_rotated.json,http://54.235.29.9/FacialAge/BNav_EC2/DepthDuration/v2_depth_duration_MTurk/v2_DepthDuration_HTML.html#230,230,1707,960,1366,768,9-3-2022,6-10-13,158,depth_duration_stimuli/001029_2014-06-08_13-17-57_260595134347_rgbf000065-resize_1/001029_2014-06-08_13-17-57_260595134347_rgbf000065-resize_1-target.png,250,3.0835,5.0,4207,249,meters,jsons/v1_VE250_randls_29_rotated.json,926801,1492528,39,Woman
158,834720,DepthScenes,duration_manipulation_targetAtFixation,jsons/v1_VE250_randls_29_rotated.json,http://54.235.29.9/FacialAge/BNav_EC2/DepthDuration/v2_depth_duration_MTurk/v2_DepthDuration_HTML.html#230,230,1707,960,1366,768,9-3-2022,6-10-13,159,depth_duration_stimuli/002568_2014-06-24_13-59-21_094959634447_rgbf000062-resize_4/002568_2014-06-24_13-59-21_094959634447_rgbf000062-resize_4-target.png,250,3.015,4.8,4352,226,meters,jsons/v1_VE250_randls_29_rotated.json,926801,1492528,39,Woman
159,834720,DepthScenes,duration_manipulation_targetAtFixation,jsons/v1_VE250_randls_29_rotated.json,http://54.235.29.9/FacialAge/BNav_EC2/DepthDuration/v2_depth_duration_MTurk/v2_DepthDuration_HTML.html#230,230,1707,960,1366,768,9-3-2022,6-10-13,160,depth_duration_stimuli/003492_2014-05-21_15-50-55_094959634447_rgbf000828-resize_1/003492_2014-05-21_15-50-55_094959634447_rgbf000828-resize_1-target.png,250,4.06875,6.8,4472,252,meters,jsons/v1_VE250_randls_29_rotated.json,926801,1492528,39,Woman
160,834720,DepthScenes,duration_manipulation_targetAtFixation,jsons/v1_VE250_randls_29_rotated.json,http://54.235.29.9/FacialAge/BNav_EC2/DepthDuration/v2_depth_duration_MTurk/v2_DepthDuration_HTML.html#230,230,1707,960,1366,768,9-3-2022,6-10-13,161,depth_duration_stimuli/000556_2014-06-09_22-42-56_260595134347_rgbf000214-resize_1/000556_2014-06-09_22-42-56_260595134347_rgbf000214-resize_1-target.png,250,4.8415,0.0,16083,252,meters,jsons/v1_VE250_randls_29_rotated.json,926801,1492528,39,Woman
161,834720,DepthScenes,duration_manipulation_targetAtFixation,jsons/v1_VE250_randls_29_rotated.json,http://54.235.29.9/FacialAge/BNav_EC2/DepthDuration/v2_depth_duration_MTurk/v2_DepthDuration_HTML.html#230,230,1707,960,1366,768,9-3-2022,6-10-13,162,depth_duration_stimuli/001158_2014-06-17_15-32-16_260595134347_rgbf000138-resize_2/001158_2014-06-17_15-32-16_260595134347_rgbf000138-resize_2-target.png,250,4.5315,6.8,3770,246,meters,jsons/v1_VE250_randls_29_rotated.json,926801,1492528,39,Woman
162,834720,DepthScenes,duration_manipulation_targetAtFixation,jsons/v1_VE250_randls_29_rotated.json,http://54.235.29.9/FacialAge/BNav_EC2/DepthDuration/v2_depth_duration_MTurk/v2_DepthDuration_HTML.html#230,230,1707,960,1366,768,9-3-2022,6-10-13,163,depth_duration_stimuli/003083_2014-06-15_15-21-03_094959634447_rgbf000063-resize_1/003083_2014-06-15_15-21-03_094959634447_rgbf000063-resize_1-target.png,250,4.1405,7.0,4120,260,meters,jsons/v1_VE250_randls_29_rotated.json,926801,1492528,39,Woman
163,834720,DepthScenes,duration_manipulation_targetAtFixation,jsons/v1_VE250_randls_29_rotated.json,http://54.235.29.9/FacialAge/BNav_EC2/DepthDuration/v2_depth_duration_MTurk/v2_DepthDuration_HTML.html#230,230,1707,960,1366,768,9-3-2022,6-10-13,164,depth_duration_stimuli/000486_2014-06-09_20-47-20_260595134347_rgbf000143-resize_2/000486_2014-06-09_20-47-20_260595134347_rgbf000143-resize_2-target.png,250,4.8325,5.4,4286,247,meters,jsons/v1_VE250_randls_29_rotated.json,926801,1492528,39,Woman
