,subjID,experimentName,versionName,sequenceName,url,selected_row,windowWidth,windowHeight,screenWidth,screenHeight,startDate,startTime,trial,stimulus,duration,actual_depth,depth_estimate,trial_RT,log_sceneDuration,unitSelection,seq_filepath,experimentTime,totalTime,age,gender
0,834881,DepthScenes,duration_manipulation_targetAtFixation,jsons/v1_VE1000_randls_19_rotated.json,http://54.235.29.9/FacialAge/BNav_EC2/DepthDuration/v2_depth_duration_MTurk/v2_DepthDuration_HTML.html#14,14,1366,768,1366,768,8-22-2022,6-59-3,1,depth_duration_stimuli/002995_2014-06-15_12-31-26_094959634447_rgbf000150-resize_1/002995_2014-06-15_12-31-26_094959634447_rgbf000150-resize_1-target.png,1000,3.8360000000000003,8,4966,973,feet,jsons/v1_VE1000_randls_19_rotated.json,901254,1386851,25,Woman
1,834881,DepthScenes,duration_manipulation_targetAtFixation,jsons/v1_VE1000_randls_19_rotated.json,http://54.235.29.9/FacialAge/BNav_EC2/DepthDuration/v2_depth_duration_MTurk/v2_DepthDuration_HTML.html#14,14,1366,768,1366,768,8-22-2022,6-59-3,2,depth_duration_stimuli/002748_2014-06-22_19-07-22_094959634447_rgbf000078-resize_1/002748_2014-06-22_19-07-22_094959634447_rgbf000078-resize_1-target.png,1000,4.6705,10,6307,1000,feet,jsons/v1_VE1000_randls_19_rotated.json,901254,1386851,25,Woman
2,834881,DepthScenes,duration_manipulation_targetAtFixation,jsons/v1_VE1000_randls_19_rotated.json,http://54.235.29.9/FacialAge/BNav_EC2/DepthDuration/v2_depth_duration_MTurk/v2_DepthDuration_HTML.html#14,14,1366,768,1366,768,8-22-2022,6-59-3,3,depth_duration_stimuli/002209_2014-06-28_18-36-10_260595134347_rgbf000051-resize_1/002209_2014-06-28_18-36-10_260595134347_rgbf000051-resize_1-target.png,1000,2.057,4,5834,999,feet,jsons/v1_VE1000_randls_19_rotated.json,901254,1386851,25,Woman
3,834881,DepthScenes,duration_manipulation_targetAtFixation,jsons/v1_VE1000_randls_19_rotated.json,http://54.235.29.9/FacialAge/BNav_EC2/DepthDuration/v2_depth_duration_MTurk/v2_DepthDuration_HTML.html#14,14,1366,768,1366,768,8-22-2022,6-59-3,4,depth_duration_stimuli/002763_2014-06-22_19-13-10_094959634447_rgbf000075-resize_4/002763_2014-06-22_19-13-10_094959634447_rgbf000075-resize_4-target.png,1000,1.68375,5,4838,1000,feet,jsons/v1_VE1000_randls_19_rotated.json,901254,1386851,25,Woman
4,834881,DepthScenes,duration_manipulation_targetAtFixation,jsons/v1_VE1000_randls_19_rotated.json,http://54.235.29.9/FacialAge/BNav_EC2/DepthDuration/v2_depth_duration_MTurk/v2_DepthDuration_HTML.html#14,14,1366,768,1366,768,8-22-2022,6-59-3,5,depth_duration_stimuli/003587_2014-05-23_16-48-02_094959634447_rgbf002384-resize_2/003587_2014-05-23_16-48-02_094959634447_rgbf002384-resize_2-target.png,1000,1.357,3,8162,999,feet,jsons/v1_VE1000_randls_19_rotated.json,901254,1386851,25,Woman
5,834881,DepthScenes,duration_manipulation_targetAtFixation,jsons/v1_VE1000_randls_19_rotated.json,http://54.235.29.9/FacialAge/BNav_EC2/DepthDuration/v2_depth_duration_MTurk/v2_DepthDuration_HTML.html#14,14,1366,768,1366,768,8-22-2022,6-59-3,6,depth_duration_stimuli/001167_2014-06-17_15-38-07_260595134347_rgbf000108-resize_0/001167_2014-06-17_15-38-07_260595134347_rgbf000108-resize_0-target.png,1000,1.8505,3,4452,1001,feet,jsons/v1_VE1000_randls_19_rotated.json,901254,1386851,25,Woman
6,834881,DepthScenes,duration_manipulation_targetAtFixation,jsons/v1_VE1000_randls_19_rotated.json,http://54.235.29.9/FacialAge/BNav_EC2/DepthDuration/v2_depth_duration_MTurk/v2_DepthDuration_HTML.html#14,14,1366,768,1366,768,8-22-2022,6-59-3,7,depth_duration_stimuli/000137_2014-05-20_17-04-49_260595134347_rgbf000120-resize_1/000137_2014-05-20_17-04-49_260595134347_rgbf000120-resize_1-target.png,1000,3.786,6,5889,1008,feet,jsons/v1_VE1000_randls_19_rotated.json,901254,1386851,25,Woman
7,834881,DepthScenes,duration_manipulation_targetAtFixation,jsons/v1_VE1000_randls_19_rotated.json,http://54.235.29.9/FacialAge/BNav_EC2/DepthDuration/v2_depth_duration_MTurk/v2_DepthDuration_HTML.html#14,14,1366,768,1366,768,8-22-2022,6-59-3,8,depth_duration_stimuli/000736_2014-06-08_18-24-15_260595134347_rgbf000206-resize_3/000736_2014-06-08_18-24-15_260595134347_rgbf000206-resize_3-target.png,1000,3.515,5,5332,1001,feet,jsons/v1_VE1000_randls_19_rotated.json,901254,1386851,25,Woman
8,834881,DepthScenes,duration_manipulation_targetAtFixation,jsons/v1_VE1000_randls_19_rotated.json,http://54.235.29.9/FacialAge/BNav_EC2/DepthDuration/v2_depth_duration_MTurk/v2_DepthDuration_HTML.html#14,14,1366,768,1366,768,8-22-2022,6-59-3,9,depth_duration_stimuli/003338_2014-05-20_11-01-23_094959634447_rgbf000051-resize_6/003338_2014-05-20_11-01-23_094959634447_rgbf000051-resize_6-target.png,1000,1.693,3,4380,1003,feet,jsons/v1_VE1000_randls_19_rotated.json,901254,1386851,25,Woman
9,834881,DepthScenes,duration_manipulation_targetAtFixation,jsons/v1_VE1000_randls_19_rotated.json,http://54.235.29.9/FacialAge/BNav_EC2/DepthDuration/v2_depth_duration_MTurk/v2_DepthDuration_HTML.html#14,14,1366,768,1366,768,8-22-2022,6-59-3,10,depth_duration_stimuli/002509_2014-06-24_13-19-22_094959634447_rgbf000077-resize_0/002509_2014-06-24_13-19-22_094959634447_rgbf000077-resize_0-target.png,1000,1.3065,4,4742,999,feet,jsons/v1_VE1000_randls_19_rotated.json,901254,1386851,25,Woman
10,834881,DepthScenes,duration_manipulation_targetAtFixation,jsons/v1_VE1000_randls_19_rotated.json,http://54.235.29.9/FacialAge/BNav_EC2/DepthDuration/v2_depth_duration_MTurk/v2_DepthDuration_HTML.html#14,14,1366,768,1366,768,8-22-2022,6-59-3,11,depth_duration_stimuli/002136_2014-06-25_21-18-03_260595134347_rgbf000109-resize_3/002136_2014-06-25_21-18-03_260595134347_rgbf000109-resize_3-target.png,1000,1.9569999999999999,5,4574,1000,feet,jsons/v1_VE1000_randls_19_rotated.json,901254,1386851,25,Woman
11,834881,DepthScenes,duration_manipulation_targetAtFixation,jsons/v1_VE1000_randls_19_rotated.json,http://54.235.29.9/FacialAge/BNav_EC2/DepthDuration/v2_depth_duration_MTurk/v2_DepthDuration_HTML.html#14,14,1366,768,1366,768,8-22-2022,6-59-3,12,depth_duration_stimuli/002964_2014-06-08_17-46-11_094959634447_rgbf000091-resize_4/002964_2014-06-08_17-46-11_094959634447_rgbf000091-resize_4-target.png,1000,1.6909999999999998,6,4575,998,feet,jsons/v1_VE1000_randls_19_rotated.json,901254,1386851,25,Woman
12,834881,DepthScenes,duration_manipulation_targetAtFixation,jsons/v1_VE1000_randls_19_rotated.json,http://54.235.29.9/FacialAge/BNav_EC2/DepthDuration/v2_depth_duration_MTurk/v2_DepthDuration_HTML.html#14,14,1366,768,1366,768,8-22-2022,6-59-3,13,depth_duration_stimuli/000749_2014-06-08_21-55-06_260595134347_rgbf000070-resize_2/000749_2014-06-08_21-55-06_260595134347_rgbf000070-resize_2-target.png,1000,2.331,8,5698,1003,feet,jsons/v1_VE1000_randls_19_rotated.json,901254,1386851,25,Woman
13,834881,DepthScenes,duration_manipulation_targetAtFixation,jsons/v1_VE1000_randls_19_rotated.json,http://54.235.29.9/FacialAge/BNav_EC2/DepthDuration/v2_depth_duration_MTurk/v2_DepthDuration_HTML.html#14,14,1366,768,1366,768,8-22-2022,6-59-3,14,depth_duration_stimuli/002788_2014-06-22_19-36-03_094959634447_rgbf000088-resize_2/002788_2014-06-22_19-36-03_094959634447_rgbf000088-resize_2-target.png,1000,1.6465,6,7721,1000,feet,jsons/v1_VE1000_randls_19_rotated.json,901254,1386851,25,Woman
14,834881,DepthScenes,duration_manipulation_targetAtFixation,jsons/v1_VE1000_randls_19_rotated.json,http://54.235.29.9/FacialAge/BNav_EC2/DepthDuration/v2_depth_duration_MTurk/v2_DepthDuration_HTML.html#14,14,1366,768,1366,768,8-22-2022,6-59-3,15,depth_duration_stimuli/001650_2014-06-20_12-09-00_260595134347_rgbf000087-resize_3/001650_2014-06-20_12-09-00_260595134347_rgbf000087-resize_3-target.png,1000,1.9505,2,5739,1000,feet,jsons/v1_VE1000_randls_19_rotated.json,901254,1386851,25,Woman
15,834881,DepthScenes,duration_manipulation_targetAtFixation,jsons/v1_VE1000_randls_19_rotated.json,http://54.235.29.9/FacialAge/BNav_EC2/DepthDuration/v2_depth_duration_MTurk/v2_DepthDuration_HTML.html#14,14,1366,768,1366,768,8-22-2022,6-59-3,16,depth_duration_stimuli/000682_2014-06-08_23-14-58_260595134347_rgbf000041-resize_5/000682_2014-06-08_23-14-58_260595134347_rgbf000041-resize_5-target.png,1000,2.7239999999999998,5,5879,1000,feet,jsons/v1_VE1000_randls_19_rotated.json,901254,1386851,25,Woman
16,834881,DepthScenes,duration_manipulation_targetAtFixation,jsons/v1_VE1000_randls_19_rotated.json,http://54.235.29.9/FacialAge/BNav_EC2/DepthDuration/v2_depth_duration_MTurk/v2_DepthDuration_HTML.html#14,14,1366,768,1366,768,8-22-2022,6-59-3,17,depth_duration_stimuli/002949_2014-06-26_15-57-42_094959634447_rgbf000079-resize_1/002949_2014-06-26_15-57-42_094959634447_rgbf000079-resize_1-target.png,1000,1.8915,3,4453,1000,feet,jsons/v1_VE1000_randls_19_rotated.json,901254,1386851,25,Woman
17,834881,DepthScenes,duration_manipulation_targetAtFixation,jsons/v1_VE1000_randls_19_rotated.json,http://54.235.29.9/FacialAge/BNav_EC2/DepthDuration/v2_depth_duration_MTurk/v2_DepthDuration_HTML.html#14,14,1366,768,1366,768,8-22-2022,6-59-3,18,depth_duration_stimuli/000522_2014-06-08_13-35-06_260595134347_rgbf000244-resize_1/000522_2014-06-08_13-35-06_260595134347_rgbf000244-resize_1-target.png,1000,2.3715,4,4947,1000,feet,jsons/v1_VE1000_randls_19_rotated.json,901254,1386851,25,Woman
18,834881,DepthScenes,duration_manipulation_targetAtFixation,jsons/v1_VE1000_randls_19_rotated.json,http://54.235.29.9/FacialAge/BNav_EC2/DepthDuration/v2_depth_duration_MTurk/v2_DepthDuration_HTML.html#14,14,1366,768,1366,768,8-22-2022,6-59-3,19,depth_duration_stimuli/001498_2014-06-19_17-45-14_260595134347_rgbf000129-resize_4/001498_2014-06-19_17-45-14_260595134347_rgbf000129-resize-original.jpg,1000,1.4075,0,5835,1001,feet,jsons/v1_VE1000_randls_19_rotated.json,901254,1386851,25,Woman
19,834881,DepthScenes,duration_manipulation_targetAtFixation,jsons/v1_VE1000_randls_19_rotated.json,http://54.235.29.9/FacialAge/BNav_EC2/DepthDuration/v2_depth_duration_MTurk/v2_DepthDuration_HTML.html#14,14,1366,768,1366,768,8-22-2022,6-59-3,20,depth_duration_stimuli/001450_2014-06-19_17-02-03_260595134347_rgbf000203-resize_4/001450_2014-06-19_17-02-03_260595134347_rgbf000203-resize_4-target.png,1000,4.0106666666667,6,5032,1003,feet,jsons/v1_VE1000_randls_19_rotated.json,901254,1386851,25,Woman
20,834881,DepthScenes,duration_manipulation_targetAtFixation,jsons/v1_VE1000_randls_19_rotated.json,http://54.235.29.9/FacialAge/BNav_EC2/DepthDuration/v2_depth_duration_MTurk/v2_DepthDuration_HTML.html#14,14,1366,768,1366,768,8-22-2022,6-59-3,21,depth_duration_stimuli/001449_2014-06-19_17-01-27_260595134347_rgbf000116-resize_2/001449_2014-06-19_17-01-27_260595134347_rgbf000116-resize_2-target.png,1000,3.452,5,4140,999,feet,jsons/v1_VE1000_randls_19_rotated.json,901254,1386851,25,Woman
21,834881,DepthScenes,duration_manipulation_targetAtFixation,jsons/v1_VE1000_randls_19_rotated.json,http://54.235.29.9/FacialAge/BNav_EC2/DepthDuration/v2_depth_duration_MTurk/v2_DepthDuration_HTML.html#14,14,1366,768,1366,768,8-22-2022,6-59-3,22,depth_duration_stimuli/001447_2014-06-19_17-00-32_260595134347_rgbf000082-resize_5/001447_2014-06-19_17-00-32_260595134347_rgbf000082-resize_5-target.png,1000,4.13775,8,5186,998,feet,jsons/v1_VE1000_randls_19_rotated.json,901254,1386851,25,Woman
22,834881,DepthScenes,duration_manipulation_targetAtFixation,jsons/v1_VE1000_randls_19_rotated.json,http://54.235.29.9/FacialAge/BNav_EC2/DepthDuration/v2_depth_duration_MTurk/v2_DepthDuration_HTML.html#14,14,1366,768,1366,768,8-22-2022,6-59-3,23,depth_duration_stimuli/000447_2014-06-08_16-15-46_260595134347_rgbf000130-resize_1/000447_2014-06-08_16-15-46_260595134347_rgbf000130-resize_1-target.png,1000,4.479,10,5171,999,feet,jsons/v1_VE1000_randls_19_rotated.json,901254,1386851,25,Woman
23,834881,DepthScenes,duration_manipulation_targetAtFixation,jsons/v1_VE1000_randls_19_rotated.json,http://54.235.29.9/FacialAge/BNav_EC2/DepthDuration/v2_depth_duration_MTurk/v2_DepthDuration_HTML.html#14,14,1366,768,1366,768,8-22-2022,6-59-3,24,depth_duration_stimuli/000502_2014-06-08_23-02-32_260595134347_rgbf000063-resize_4/000502_2014-06-08_23-02-32_260595134347_rgbf000063-resize_4-target.png,1000,2.431,5,5790,1000,feet,jsons/v1_VE1000_randls_19_rotated.json,901254,1386851,25,Woman
24,834881,DepthScenes,duration_manipulation_targetAtFixation,jsons/v1_VE1000_randls_19_rotated.json,http://54.235.29.9/FacialAge/BNav_EC2/DepthDuration/v2_depth_duration_MTurk/v2_DepthDuration_HTML.html#14,14,1366,768,1366,768,8-22-2022,6-59-3,25,depth_duration_stimuli/001199_2014-06-17_16-03-48_260595134347_rgbf000077-resize_0/001199_2014-06-17_16-03-48_260595134347_rgbf000077-resize_0-target.png,1000,3.4375,6,5681,999,feet,jsons/v1_VE1000_randls_19_rotated.json,901254,1386851,25,Woman
25,834881,DepthScenes,duration_manipulation_targetAtFixation,jsons/v1_VE1000_randls_19_rotated.json,http://54.235.29.9/FacialAge/BNav_EC2/DepthDuration/v2_depth_duration_MTurk/v2_DepthDuration_HTML.html#14,14,1366,768,1366,768,8-22-2022,6-59-3,26,depth_duration_stimuli/003081_2014-06-15_15-19-16_094959634447_rgbf000150-resize_1/003081_2014-06-15_15-19-16_094959634447_rgbf000150-resize_1-target.png,1000,3.9125,8,5788,999,feet,jsons/v1_VE1000_randls_19_rotated.json,901254,1386851,25,Woman
26,834881,DepthScenes,duration_manipulation_targetAtFixation,jsons/v1_VE1000_randls_19_rotated.json,http://54.235.29.9/FacialAge/BNav_EC2/DepthDuration/v2_depth_duration_MTurk/v2_DepthDuration_HTML.html#14,14,1366,768,1366,768,8-22-2022,6-59-3,27,depth_duration_stimuli/001417_2014-06-19_16-25-36_260595134347_rgbf000115-resize_5/001417_2014-06-19_16-25-36_260595134347_rgbf000115-resize_5-target.png,1000,4.6255,10,6487,999,feet,jsons/v1_VE1000_randls_19_rotated.json,901254,1386851,25,Woman
27,834881,DepthScenes,duration_manipulation_targetAtFixation,jsons/v1_VE1000_randls_19_rotated.json,http://54.235.29.9/FacialAge/BNav_EC2/DepthDuration/v2_depth_duration_MTurk/v2_DepthDuration_HTML.html#14,14,1366,768,1366,768,8-22-2022,6-59-3,28,depth_duration_stimuli/001032_2014-06-08_13-23-17_260595134347_rgbf000021-resize_3/001032_2014-06-08_13-23-17_260595134347_rgbf000021-resize_3-target.png,1000,3.2725,6,5308,1001,feet,jsons/v1_VE1000_randls_19_rotated.json,901254,1386851,25,Woman
28,834881,DepthScenes,duration_manipulation_targetAtFixation,jsons/v1_VE1000_randls_19_rotated.json,http://54.235.29.9/FacialAge/BNav_EC2/DepthDuration/v2_depth_duration_MTurk/v2_DepthDuration_HTML.html#14,14,1366,768,1366,768,8-22-2022,6-59-3,29,depth_duration_stimuli/001059_2014-06-08_21-53-27_260595134347_rgbf000061-resize_4/001059_2014-06-08_21-53-27_260595134347_rgbf000061-resize_4-target.png,1000,2.4185,7,5646,1001,feet,jsons/v1_VE1000_randls_19_rotated.json,901254,1386851,25,Woman
29,834881,DepthScenes,duration_manipulation_targetAtFixation,jsons/v1_VE1000_randls_19_rotated.json,http://54.235.29.9/FacialAge/BNav_EC2/DepthDuration/v2_depth_duration_MTurk/v2_DepthDuration_HTML.html#14,14,1366,768,1366,768,8-22-2022,6-59-3,30,depth_duration_stimuli/002072_2014-06-24_21-48-06_260595134347_rgbf000115-resize_0/002072_2014-06-24_21-48-06_260595134347_rgbf000115-resize-original.jpg,1000,4.702,0,4065,999,feet,jsons/v1_VE1000_randls_19_rotated.json,901254,1386851,25,Woman
30,834881,DepthScenes,duration_manipulation_targetAtFixation,jsons/v1_VE1000_randls_19_rotated.json,http://54.235.29.9/FacialAge/BNav_EC2/DepthDuration/v2_depth_duration_MTurk/v2_DepthDuration_HTML.html#14,14,1366,768,1366,768,8-22-2022,6-59-3,31,depth_duration_stimuli/000556_2014-06-09_22-42-56_260595134347_rgbf000214-resize_1/000556_2014-06-09_22-42-56_260595134347_rgbf000214-resize_1-target.png,1000,4.8415,9,5345,998,feet,jsons/v1_VE1000_randls_19_rotated.json,901254,1386851,25,Woman
31,834881,DepthScenes,duration_manipulation_targetAtFixation,jsons/v1_VE1000_randls_19_rotated.json,http://54.235.29.9/FacialAge/BNav_EC2/DepthDuration/v2_depth_duration_MTurk/v2_DepthDuration_HTML.html#14,14,1366,768,1366,768,8-22-2022,6-59-3,32,depth_duration_stimuli/001158_2014-06-17_15-32-16_260595134347_rgbf000138-resize_2/001158_2014-06-17_15-32-16_260595134347_rgbf000138-resize_2-target.png,1000,4.5315,12,6642,998,feet,jsons/v1_VE1000_randls_19_rotated.json,901254,1386851,25,Woman
32,834881,DepthScenes,duration_manipulation_targetAtFixation,jsons/v1_VE1000_randls_19_rotated.json,http://54.235.29.9/FacialAge/BNav_EC2/DepthDuration/v2_depth_duration_MTurk/v2_DepthDuration_HTML.html#14,14,1366,768,1366,768,8-22-2022,6-59-3,33,depth_duration_stimuli/000734_2014-06-08_17-39-11_260595134347_rgbf000128-resize_2/000734_2014-06-08_17-39-11_260595134347_rgbf000128-resize_2-target.png,1000,4.098,6,4777,1000,feet,jsons/v1_VE1000_randls_19_rotated.json,901254,1386851,25,Woman
33,834881,DepthScenes,duration_manipulation_targetAtFixation,jsons/v1_VE1000_randls_19_rotated.json,http://54.235.29.9/FacialAge/BNav_EC2/DepthDuration/v2_depth_duration_MTurk/v2_DepthDuration_HTML.html#14,14,1366,768,1366,768,8-22-2022,6-59-3,34,depth_duration_stimuli/000739_2014-06-08_18-45-58_260595134347_rgbf000068-resize_1/000739_2014-06-08_18-45-58_260595134347_rgbf000068-resize_1-target.png,1000,3.534,8,5634,1000,feet,jsons/v1_VE1000_randls_19_rotated.json,901254,1386851,25,Woman
34,834881,DepthScenes,duration_manipulation_targetAtFixation,jsons/v1_VE1000_randls_19_rotated.json,http://54.235.29.9/FacialAge/BNav_EC2/DepthDuration/v2_depth_duration_MTurk/v2_DepthDuration_HTML.html#14,14,1366,768,1366,768,8-22-2022,6-59-3,35,depth_duration_stimuli/001136_2014-06-17_15-19-41_260595134347_rgbf000076-resize_3/001136_2014-06-17_15-19-41_260595134347_rgbf000076-resize_3-target.png,1000,1.8655,6,5125,999,feet,jsons/v1_VE1000_randls_19_rotated.json,901254,1386851,25,Woman
35,834881,DepthScenes,duration_manipulation_targetAtFixation,jsons/v1_VE1000_randls_19_rotated.json,http://54.235.29.9/FacialAge/BNav_EC2/DepthDuration/v2_depth_duration_MTurk/v2_DepthDuration_HTML.html#14,14,1366,768,1366,768,8-22-2022,6-59-3,36,depth_duration_stimuli/001164_2014-06-17_15-35-46_260595134347_rgbf000085-resize_3/001164_2014-06-17_15-35-46_260595134347_rgbf000085-resize_3-target.png,1000,2.354,5,5256,999,feet,jsons/v1_VE1000_randls_19_rotated.json,901254,1386851,25,Woman
36,834881,DepthScenes,duration_manipulation_targetAtFixation,jsons/v1_VE1000_randls_19_rotated.json,http://54.235.29.9/FacialAge/BNav_EC2/DepthDuration/v2_depth_duration_MTurk/v2_DepthDuration_HTML.html#14,14,1366,768,1366,768,8-22-2022,6-59-3,37,depth_duration_stimuli/000635_2014-06-08_16-38-42_260595134347_rgbf000106-resize_1/000635_2014-06-08_16-38-42_260595134347_rgbf000106-resize_1-target.png,1000,2.074,7,5023,1001,feet,jsons/v1_VE1000_randls_19_rotated.json,901254,1386851,25,Woman
37,834881,DepthScenes,duration_manipulation_targetAtFixation,jsons/v1_VE1000_randls_19_rotated.json,http://54.235.29.9/FacialAge/BNav_EC2/DepthDuration/v2_depth_duration_MTurk/v2_DepthDuration_HTML.html#14,14,1366,768,1366,768,8-22-2022,6-59-3,38,depth_duration_stimuli/002279_2014-06-28_18-55-32_260595134347_rgbf000040-resize_5/002279_2014-06-28_18-55-32_260595134347_rgbf000040-resize_5-target.png,1000,1.5043333333333,6,5595,987,feet,jsons/v1_VE1000_randls_19_rotated.json,901254,1386851,25,Woman
38,834881,DepthScenes,duration_manipulation_targetAtFixation,jsons/v1_VE1000_randls_19_rotated.json,http://54.235.29.9/FacialAge/BNav_EC2/DepthDuration/v2_depth_duration_MTurk/v2_DepthDuration_HTML.html#14,14,1366,768,1366,768,8-22-2022,6-59-3,39,depth_duration_stimuli/001828_2014-06-26_21-40-03_260595134347_rgbf000024-resize_0/001828_2014-06-26_21-40-03_260595134347_rgbf000024-resize_0-target.png,1000,4.8260000000000005,5,4366,1000,feet,jsons/v1_VE1000_randls_19_rotated.json,901254,1386851,25,Woman
39,834881,DepthScenes,duration_manipulation_targetAtFixation,jsons/v1_VE1000_randls_19_rotated.json,http://54.235.29.9/FacialAge/BNav_EC2/DepthDuration/v2_depth_duration_MTurk/v2_DepthDuration_HTML.html#14,14,1366,768,1366,768,8-22-2022,6-59-3,40,depth_duration_stimuli/000009_2014-05-26_14-32-05_260595134347_rgbf000034-resize_3/000009_2014-05-26_14-32-05_260595134347_rgbf000034-resize_3-target.png,1000,3.8715,6,4843,999,feet,jsons/v1_VE1000_randls_19_rotated.json,901254,1386851,25,Woman
40,834881,DepthScenes,duration_manipulation_targetAtFixation,jsons/v1_VE1000_randls_19_rotated.json,http://54.235.29.9/FacialAge/BNav_EC2/DepthDuration/v2_depth_duration_MTurk/v2_DepthDuration_HTML.html#14,14,1366,768,1366,768,8-22-2022,6-59-3,41,depth_duration_stimuli/002340_2014-06-28_20-05-46_260595134347_rgbf000113-resize_0/002340_2014-06-28_20-05-46_260595134347_rgbf000113-resize_0-target.png,1000,2.4735,4,4967,999,feet,jsons/v1_VE1000_randls_19_rotated.json,901254,1386851,25,Woman
41,834881,DepthScenes,duration_manipulation_targetAtFixation,jsons/v1_VE1000_randls_19_rotated.json,http://54.235.29.9/FacialAge/BNav_EC2/DepthDuration/v2_depth_duration_MTurk/v2_DepthDuration_HTML.html#14,14,1366,768,1366,768,8-22-2022,6-59-3,42,depth_duration_stimuli/001016_2014-06-09_16-16-10_260595134347_rgbf000112-resize_5/001016_2014-06-09_16-16-10_260595134347_rgbf000112-resize_5-target.png,1000,1.6565,3,4404,1000,feet,jsons/v1_VE1000_randls_19_rotated.json,901254,1386851,25,Woman
42,834881,DepthScenes,duration_manipulation_targetAtFixation,jsons/v1_VE1000_randls_19_rotated.json,http://54.235.29.9/FacialAge/BNav_EC2/DepthDuration/v2_depth_duration_MTurk/v2_DepthDuration_HTML.html#14,14,1366,768,1366,768,8-22-2022,6-59-3,43,depth_duration_stimuli/000549_2014-06-08_22-10-24_260595134347_rgbf000247-resize_3/000549_2014-06-08_22-10-24_260595134347_rgbf000247-resize_3-target.png,1000,1.841,7,5160,999,feet,jsons/v1_VE1000_randls_19_rotated.json,901254,1386851,25,Woman
43,834881,DepthScenes,duration_manipulation_targetAtFixation,jsons/v1_VE1000_randls_19_rotated.json,http://54.235.29.9/FacialAge/BNav_EC2/DepthDuration/v2_depth_duration_MTurk/v2_DepthDuration_HTML.html#14,14,1366,768,1366,768,8-22-2022,6-59-3,44,depth_duration_stimuli/001055_2014-06-08_18-45-35_260595134347_rgbf000111-resize_4/001055_2014-06-08_18-45-35_260595134347_rgbf000111-resize_4-target.png,1000,2.4290000000000003,5,4971,998,feet,jsons/v1_VE1000_randls_19_rotated.json,901254,1386851,25,Woman
44,834881,DepthScenes,duration_manipulation_targetAtFixation,jsons/v1_VE1000_randls_19_rotated.json,http://54.235.29.9/FacialAge/BNav_EC2/DepthDuration/v2_depth_duration_MTurk/v2_DepthDuration_HTML.html#14,14,1366,768,1366,768,8-22-2022,6-59-3,45,depth_duration_stimuli/000866_2014-06-09_20-45-42_260595134347_rgbf000139-resize_1/000866_2014-06-09_20-45-42_260595134347_rgbf000139-resize_1-target.png,1000,3.2155,7,5292,1000,feet,jsons/v1_VE1000_randls_19_rotated.json,901254,1386851,25,Woman
45,834881,DepthScenes,duration_manipulation_targetAtFixation,jsons/v1_VE1000_randls_19_rotated.json,http://54.235.29.9/FacialAge/BNav_EC2/DepthDuration/v2_depth_duration_MTurk/v2_DepthDuration_HTML.html#14,14,1366,768,1366,768,8-22-2022,6-59-3,46,depth_duration_stimuli/002989_2014-06-15_12-25-03_094959634447_rgbf000150-resize_3/002989_2014-06-15_12-25-03_094959634447_rgbf000150-resize_3-target.png,1000,4.1975,6,6601,1003,feet,jsons/v1_VE1000_randls_19_rotated.json,901254,1386851,25,Woman
46,834881,DepthScenes,duration_manipulation_targetAtFixation,jsons/v1_VE1000_randls_19_rotated.json,http://54.235.29.9/FacialAge/BNav_EC2/DepthDuration/v2_depth_duration_MTurk/v2_DepthDuration_HTML.html#14,14,1366,768,1366,768,8-22-2022,6-59-3,47,depth_duration_stimuli/002678_2014-06-13_16-15-32_094959634447_rgbf000151-resize_6/002678_2014-06-13_16-15-32_094959634447_rgbf000151-resize_6-target.png,1000,2.1830000000000003,7,4869,1000,feet,jsons/v1_VE1000_randls_19_rotated.json,901254,1386851,25,Woman
47,834881,DepthScenes,duration_manipulation_targetAtFixation,jsons/v1_VE1000_randls_19_rotated.json,http://54.235.29.9/FacialAge/BNav_EC2/DepthDuration/v2_depth_duration_MTurk/v2_DepthDuration_HTML.html#14,14,1366,768,1366,768,8-22-2022,6-59-3,48,depth_duration_stimuli/000368_2014-06-09_15-53-01_260595134347_rgbf000155-resize_2/000368_2014-06-09_15-53-01_260595134347_rgbf000155-resize_2-target.png,1000,2.4859999999999998,6,4194,1001,feet,jsons/v1_VE1000_randls_19_rotated.json,901254,1386851,25,Woman
48,834881,DepthScenes,duration_manipulation_targetAtFixation,jsons/v1_VE1000_randls_19_rotated.json,http://54.235.29.9/FacialAge/BNav_EC2/DepthDuration/v2_depth_duration_MTurk/v2_DepthDuration_HTML.html#14,14,1366,768,1366,768,8-22-2022,6-59-3,49,depth_duration_stimuli/001170_2014-06-17_15-43-44_260595134347_rgbf000096-resize_6/001170_2014-06-17_15-43-44_260595134347_rgbf000096-resize-original.jpg,1000,1.1909999999999998,0,4728,999,feet,jsons/v1_VE1000_randls_19_rotated.json,901254,1386851,25,Woman
49,834881,DepthScenes,duration_manipulation_targetAtFixation,jsons/v1_VE1000_randls_19_rotated.json,http://54.235.29.9/FacialAge/BNav_EC2/DepthDuration/v2_depth_duration_MTurk/v2_DepthDuration_HTML.html#14,14,1366,768,1366,768,8-22-2022,6-59-3,50,depth_duration_stimuli/001100_2014-06-15_17-46-26_260595134347_rgbf000225-resize_2/001100_2014-06-15_17-46-26_260595134347_rgbf000225-resize_2-target.png,1000,2.24,5,6277,1021,feet,jsons/v1_VE1000_randls_19_rotated.json,901254,1386851,25,Woman
50,834881,DepthScenes,duration_manipulation_targetAtFixation,jsons/v1_VE1000_randls_19_rotated.json,http://54.235.29.9/FacialAge/BNav_EC2/DepthDuration/v2_depth_duration_MTurk/v2_DepthDuration_HTML.html#14,14,1366,768,1366,768,8-22-2022,6-59-3,51,depth_duration_stimuli/002784_2014-06-22_19-26-30_094959634447_rgbf000083-resize_3/002784_2014-06-22_19-26-30_094959634447_rgbf000083-resize_3-target.png,1000,1.8046666666667,4,5260,999,feet,jsons/v1_VE1000_randls_19_rotated.json,901254,1386851,25,Woman
51,834881,DepthScenes,duration_manipulation_targetAtFixation,jsons/v1_VE1000_randls_19_rotated.json,http://54.235.29.9/FacialAge/BNav_EC2/DepthDuration/v2_depth_duration_MTurk/v2_DepthDuration_HTML.html#14,14,1366,768,1366,768,8-22-2022,6-59-3,52,depth_duration_stimuli/002750_2014-06-22_19-08-03_094959634447_rgbf000094-resize_4/002750_2014-06-22_19-08-03_094959634447_rgbf000094-resize_4-target.png,1000,2.354,7,4785,1000,feet,jsons/v1_VE1000_randls_19_rotated.json,901254,1386851,25,Woman
52,834881,DepthScenes,duration_manipulation_targetAtFixation,jsons/v1_VE1000_randls_19_rotated.json,http://54.235.29.9/FacialAge/BNav_EC2/DepthDuration/v2_depth_duration_MTurk/v2_DepthDuration_HTML.html#14,14,1366,768,1366,768,8-22-2022,6-59-3,53,depth_duration_stimuli/002549_2014-06-24_13-41-39_094959634447_rgbf000022-resize_3/002549_2014-06-24_13-41-39_094959634447_rgbf000022-resize_3-target.png,1000,1.476,3,5148,1000,feet,jsons/v1_VE1000_randls_19_rotated.json,901254,1386851,25,Woman
53,834881,DepthScenes,duration_manipulation_targetAtFixation,jsons/v1_VE1000_randls_19_rotated.json,http://54.235.29.9/FacialAge/BNav_EC2/DepthDuration/v2_depth_duration_MTurk/v2_DepthDuration_HTML.html#14,14,1366,768,1366,768,8-22-2022,6-59-3,54,depth_duration_stimuli/001214_2014-06-17_16-13-55_260595134347_rgbf000111-resize_0/001214_2014-06-17_16-13-55_260595134347_rgbf000111-resize_0-target.png,1000,2.6505,6,5219,999,feet,jsons/v1_VE1000_randls_19_rotated.json,901254,1386851,25,Woman
54,834881,DepthScenes,duration_manipulation_targetAtFixation,jsons/v1_VE1000_randls_19_rotated.json,http://54.235.29.9/FacialAge/BNav_EC2/DepthDuration/v2_depth_duration_MTurk/v2_DepthDuration_HTML.html#14,14,1366,768,1366,768,8-22-2022,6-59-3,55,depth_duration_stimuli/000810_2014-06-08_17-20-01_260595134347_rgbf000105-resize_0/000810_2014-06-08_17-20-01_260595134347_rgbf000105-resize_0-target.png,1000,1.4865,4,4850,1000,feet,jsons/v1_VE1000_randls_19_rotated.json,901254,1386851,25,Woman
55,834881,DepthScenes,duration_manipulation_targetAtFixation,jsons/v1_VE1000_randls_19_rotated.json,http://54.235.29.9/FacialAge/BNav_EC2/DepthDuration/v2_depth_duration_MTurk/v2_DepthDuration_HTML.html#14,14,1366,768,1366,768,8-22-2022,6-59-3,56,depth_duration_stimuli/003079_2014-06-15_15-18-20_094959634447_rgbf000152-resize_8/003079_2014-06-15_15-18-20_094959634447_rgbf000152-resize_8-target.png,1000,2.8775,9,5097,999,feet,jsons/v1_VE1000_randls_19_rotated.json,901254,1386851,25,Woman
56,834881,DepthScenes,duration_manipulation_targetAtFixation,jsons/v1_VE1000_randls_19_rotated.json,http://54.235.29.9/FacialAge/BNav_EC2/DepthDuration/v2_depth_duration_MTurk/v2_DepthDuration_HTML.html#14,14,1366,768,1366,768,8-22-2022,6-59-3,57,depth_duration_stimuli/000506_2014-06-08_23-21-00_260595134347_rgbf000070-resize_7/000506_2014-06-08_23-21-00_260595134347_rgbf000070-resize_7-target.png,1000,4.0585,3,9179,999,feet,jsons/v1_VE1000_randls_19_rotated.json,901254,1386851,25,Woman
57,834881,DepthScenes,duration_manipulation_targetAtFixation,jsons/v1_VE1000_randls_19_rotated.json,http://54.235.29.9/FacialAge/BNav_EC2/DepthDuration/v2_depth_duration_MTurk/v2_DepthDuration_HTML.html#14,14,1366,768,1366,768,8-22-2022,6-59-3,58,depth_duration_stimuli/000854_2014-06-09_19-43-13_260595134347_rgbf000066-resize_0/000854_2014-06-09_19-43-13_260595134347_rgbf000066-resize_0-target.png,1000,3.068,4,6019,1007,feet,jsons/v1_VE1000_randls_19_rotated.json,901254,1386851,25,Woman
58,834881,DepthScenes,duration_manipulation_targetAtFixation,jsons/v1_VE1000_randls_19_rotated.json,http://54.235.29.9/FacialAge/BNav_EC2/DepthDuration/v2_depth_duration_MTurk/v2_DepthDuration_HTML.html#14,14,1366,768,1366,768,8-22-2022,6-59-3,59,depth_duration_stimuli/000758_2014-06-08_22-05-08_260595134347_rgbf000085-resize_0/000758_2014-06-08_22-05-08_260595134347_rgbf000085-resize_0-target.png,1000,3.3810000000000002,6,4660,1000,feet,jsons/v1_VE1000_randls_19_rotated.json,901254,1386851,25,Woman
59,834881,DepthScenes,duration_manipulation_targetAtFixation,jsons/v1_VE1000_randls_19_rotated.json,http://54.235.29.9/FacialAge/BNav_EC2/DepthDuration/v2_depth_duration_MTurk/v2_DepthDuration_HTML.html#14,14,1366,768,1366,768,8-22-2022,6-59-3,60,depth_duration_stimuli/002199_2014-06-28_18-33-56_260595134347_rgbf000074-resize_0/002199_2014-06-28_18-33-56_260595134347_rgbf000074-resize_0-target.png,1000,1.996,7,5335,975,feet,jsons/v1_VE1000_randls_19_rotated.json,901254,1386851,25,Woman
60,834881,DepthScenes,duration_manipulation_targetAtFixation,jsons/v1_VE1000_randls_19_rotated.json,http://54.235.29.9/FacialAge/BNav_EC2/DepthDuration/v2_depth_duration_MTurk/v2_DepthDuration_HTML.html#14,14,1366,768,1366,768,8-22-2022,6-59-3,61,depth_duration_stimuli/001056_2014-06-08_18-46-44_260595134347_rgbf000068-resize_0/001056_2014-06-08_18-46-44_260595134347_rgbf000068-resize_0-target.png,1000,2.6625,6,5034,999,feet,jsons/v1_VE1000_randls_19_rotated.json,901254,1386851,25,Woman
61,834881,DepthScenes,duration_manipulation_targetAtFixation,jsons/v1_VE1000_randls_19_rotated.json,http://54.235.29.9/FacialAge/BNav_EC2/DepthDuration/v2_depth_duration_MTurk/v2_DepthDuration_HTML.html#14,14,1366,768,1366,768,8-22-2022,6-59-3,62,depth_duration_stimuli/003129_2014-05-12_10-48-10_094959634447_rgbf000100-resize_0/003129_2014-05-12_10-48-10_094959634447_rgbf000100-resize_0-target.png,1000,4.9305,9,5172,1000,feet,jsons/v1_VE1000_randls_19_rotated.json,901254,1386851,25,Woman
62,834881,DepthScenes,duration_manipulation_targetAtFixation,jsons/v1_VE1000_randls_19_rotated.json,http://54.235.29.9/FacialAge/BNav_EC2/DepthDuration/v2_depth_duration_MTurk/v2_DepthDuration_HTML.html#14,14,1366,768,1366,768,8-22-2022,6-59-3,63,depth_duration_stimuli/000414_2014-06-04_19-49-13_260595134347_rgbf000044-resize_0/000414_2014-06-04_19-49-13_260595134347_rgbf000044-resize_0-target.png,1000,4.329,4,5456,1000,feet,jsons/v1_VE1000_randls_19_rotated.json,901254,1386851,25,Woman
63,834881,DepthScenes,duration_manipulation_targetAtFixation,jsons/v1_VE1000_randls_19_rotated.json,http://54.235.29.9/FacialAge/BNav_EC2/DepthDuration/v2_depth_duration_MTurk/v2_DepthDuration_HTML.html#14,14,1366,768,1366,768,8-22-2022,6-59-3,64,depth_duration_stimuli/000742_2014-06-08_18-48-09_260595134347_rgbf000164-resize_4/000742_2014-06-08_18-48-09_260595134347_rgbf000164-resize_4-target.png,1000,4.632,6,6411,999,feet,jsons/v1_VE1000_randls_19_rotated.json,901254,1386851,25,Woman
64,834881,DepthScenes,duration_manipulation_targetAtFixation,jsons/v1_VE1000_randls_19_rotated.json,http://54.235.29.9/FacialAge/BNav_EC2/DepthDuration/v2_depth_duration_MTurk/v2_DepthDuration_HTML.html#14,14,1366,768,1366,768,8-22-2022,6-59-3,65,depth_duration_stimuli/001066_2014-06-08_22-03-20_260595134347_rgbf000066-resize_4/001066_2014-06-08_22-03-20_260595134347_rgbf000066-resize_4-target.png,1000,4.2330000000000005,7,4115,1001,feet,jsons/v1_VE1000_randls_19_rotated.json,901254,1386851,25,Woman
65,834881,DepthScenes,duration_manipulation_targetAtFixation,jsons/v1_VE1000_randls_19_rotated.json,http://54.235.29.9/FacialAge/BNav_EC2/DepthDuration/v2_depth_duration_MTurk/v2_DepthDuration_HTML.html#14,14,1366,768,1366,768,8-22-2022,6-59-3,66,depth_duration_stimuli/001540_2014-06-20_17-01-05_260595134347_rgbf000086-resize_2/001540_2014-06-20_17-01-05_260595134347_rgbf000086-resize-original.jpg,1000,1.459,0,4168,1000,feet,jsons/v1_VE1000_randls_19_rotated.json,901254,1386851,25,Woman
66,834881,DepthScenes,duration_manipulation_targetAtFixation,jsons/v1_VE1000_randls_19_rotated.json,http://54.235.29.9/FacialAge/BNav_EC2/DepthDuration/v2_depth_duration_MTurk/v2_DepthDuration_HTML.html#14,14,1366,768,1366,768,8-22-2022,6-59-3,67,depth_duration_stimuli/001584_2014-06-20_11-07-43_260595134347_rgbf000002-resize_1/001584_2014-06-20_11-07-43_260595134347_rgbf000002-resize_1-target.png,1000,3.53,8,4565,998,feet,jsons/v1_VE1000_randls_19_rotated.json,901254,1386851,25,Woman
67,834881,DepthScenes,duration_manipulation_targetAtFixation,jsons/v1_VE1000_randls_19_rotated.json,http://54.235.29.9/FacialAge/BNav_EC2/DepthDuration/v2_depth_duration_MTurk/v2_DepthDuration_HTML.html#14,14,1366,768,1366,768,8-22-2022,6-59-3,68,depth_duration_stimuli/003621_2014-05-23_18-06-08_094959634447_rgbf000101-resize_1/003621_2014-05-23_18-06-08_094959634447_rgbf000101-resize_1-target.png,1000,3.9835,10,5782,998,feet,jsons/v1_VE1000_randls_19_rotated.json,901254,1386851,25,Woman
68,834881,DepthScenes,duration_manipulation_targetAtFixation,jsons/v1_VE1000_randls_19_rotated.json,http://54.235.29.9/FacialAge/BNav_EC2/DepthDuration/v2_depth_duration_MTurk/v2_DepthDuration_HTML.html#14,14,1366,768,1366,768,8-22-2022,6-59-3,69,depth_duration_stimuli/000103_2014-05-14_22-01-17_260595134347_rgbf000152-resize_5/000103_2014-05-14_22-01-17_260595134347_rgbf000152-resize_5-target.png,1000,1.993,9,5830,999,feet,jsons/v1_VE1000_randls_19_rotated.json,901254,1386851,25,Woman
69,834881,DepthScenes,duration_manipulation_targetAtFixation,jsons/v1_VE1000_randls_19_rotated.json,http://54.235.29.9/FacialAge/BNav_EC2/DepthDuration/v2_depth_duration_MTurk/v2_DepthDuration_HTML.html#14,14,1366,768,1366,768,8-22-2022,6-59-3,70,depth_duration_stimuli/001555_2014-06-20_17-12-10_260595134347_rgbf000065-resize_4/001555_2014-06-20_17-12-10_260595134347_rgbf000065-resize_4-target.png,1000,1.633,3,5172,1000,feet,jsons/v1_VE1000_randls_19_rotated.json,901254,1386851,25,Woman
70,834881,DepthScenes,duration_manipulation_targetAtFixation,jsons/v1_VE1000_randls_19_rotated.json,http://54.235.29.9/FacialAge/BNav_EC2/DepthDuration/v2_depth_duration_MTurk/v2_DepthDuration_HTML.html#14,14,1366,768,1366,768,8-22-2022,6-59-3,71,depth_duration_stimuli/003048_2014-06-15_13-49-43_094959634447_rgbf000150-resize_1/003048_2014-06-15_13-49-43_094959634447_rgbf000150-resize_1-target.png,1000,4.0035,8,5177,1000,feet,jsons/v1_VE1000_randls_19_rotated.json,901254,1386851,25,Woman
71,834881,DepthScenes,duration_manipulation_targetAtFixation,jsons/v1_VE1000_randls_19_rotated.json,http://54.235.29.9/FacialAge/BNav_EC2/DepthDuration/v2_depth_duration_MTurk/v2_DepthDuration_HTML.html#14,14,1366,768,1366,768,8-22-2022,6-59-3,72,depth_duration_stimuli/002043_2014-06-24_20-29-38_260595134347_rgbf000039-resize_4/002043_2014-06-24_20-29-38_260595134347_rgbf000039-resize_4-target.png,1000,2.8435,6,5449,999,feet,jsons/v1_VE1000_randls_19_rotated.json,901254,1386851,25,Woman
72,834881,DepthScenes,duration_manipulation_targetAtFixation,jsons/v1_VE1000_randls_19_rotated.json,http://54.235.29.9/FacialAge/BNav_EC2/DepthDuration/v2_depth_duration_MTurk/v2_DepthDuration_HTML.html#14,14,1366,768,1366,768,8-22-2022,6-59-3,73,depth_duration_stimuli/002875_2014-06-01_15-19-00_094959634447_rgbf000151-resize_1/002875_2014-06-01_15-19-00_094959634447_rgbf000151-resize_1-target.png,1000,1.9675,3,4461,1013,feet,jsons/v1_VE1000_randls_19_rotated.json,901254,1386851,25,Woman
73,834881,DepthScenes,duration_manipulation_targetAtFixation,jsons/v1_VE1000_randls_19_rotated.json,http://54.235.29.9/FacialAge/BNav_EC2/DepthDuration/v2_depth_duration_MTurk/v2_DepthDuration_HTML.html#14,14,1366,768,1366,768,8-22-2022,6-59-3,74,depth_duration_stimuli/001011_2014-06-08_23-18-54_260595134347_rgbf000044-resize_4/001011_2014-06-08_23-18-54_260595134347_rgbf000044-resize_4-target.png,1000,2.4730000000000003,6,4343,1000,feet,jsons/v1_VE1000_randls_19_rotated.json,901254,1386851,25,Woman
74,834881,DepthScenes,duration_manipulation_targetAtFixation,jsons/v1_VE1000_randls_19_rotated.json,http://54.235.29.9/FacialAge/BNav_EC2/DepthDuration/v2_depth_duration_MTurk/v2_DepthDuration_HTML.html#14,14,1366,768,1366,768,8-22-2022,6-59-3,75,depth_duration_stimuli/001132_2014-06-17_14-48-54_260595134347_rgbf000100-resize_2/001132_2014-06-17_14-48-54_260595134347_rgbf000100-resize_2-target.png,1000,3.753,9,5466,1000,feet,jsons/v1_VE1000_randls_19_rotated.json,901254,1386851,25,Woman
75,834881,DepthScenes,duration_manipulation_targetAtFixation,jsons/v1_VE1000_randls_19_rotated.json,http://54.235.29.9/FacialAge/BNav_EC2/DepthDuration/v2_depth_duration_MTurk/v2_DepthDuration_HTML.html#14,14,1366,768,1366,768,8-22-2022,6-59-3,76,depth_duration_stimuli/001133_2014-06-17_14-49-16_260595134347_rgbf000100-resize_0/001133_2014-06-17_14-49-16_260595134347_rgbf000100-resize_0-target.png,1000,4.2115,10,5533,1000,feet,jsons/v1_VE1000_randls_19_rotated.json,901254,1386851,25,Woman
76,834881,DepthScenes,duration_manipulation_targetAtFixation,jsons/v1_VE1000_randls_19_rotated.json,http://54.235.29.9/FacialAge/BNav_EC2/DepthDuration/v2_depth_duration_MTurk/v2_DepthDuration_HTML.html#14,14,1366,768,1366,768,8-22-2022,6-59-3,77,depth_duration_stimuli/002414_2014-06-28_20-24-58_260595134347_rgbf000067-resize_4/002414_2014-06-28_20-24-58_260595134347_rgbf000067-resize_4-target.png,1000,4.363,12,5162,1001,feet,jsons/v1_VE1000_randls_19_rotated.json,901254,1386851,25,Woman
77,834881,DepthScenes,duration_manipulation_targetAtFixation,jsons/v1_VE1000_randls_19_rotated.json,http://54.235.29.9/FacialAge/BNav_EC2/DepthDuration/v2_depth_duration_MTurk/v2_DepthDuration_HTML.html#14,14,1366,768,1366,768,8-22-2022,6-59-3,78,depth_duration_stimuli/000773_2014-06-08_22-24-54_260595134347_rgbf000093-resize_1/000773_2014-06-08_22-24-54_260595134347_rgbf000093-resize_1-target.png,1000,4.973,10,4490,1001,feet,jsons/v1_VE1000_randls_19_rotated.json,901254,1386851,25,Woman
78,834881,DepthScenes,duration_manipulation_targetAtFixation,jsons/v1_VE1000_randls_19_rotated.json,http://54.235.29.9/FacialAge/BNav_EC2/DepthDuration/v2_depth_duration_MTurk/v2_DepthDuration_HTML.html#14,14,1366,768,1366,768,8-22-2022,6-59-3,79,depth_duration_stimuli/002444_2014-06-28_20-32-08_260595134347_rgbf000027-resize_0/002444_2014-06-28_20-32-08_260595134347_rgbf000027-resize_0-target.png,1000,4.388999999999999,10,4362,1001,feet,jsons/v1_VE1000_randls_19_rotated.json,901254,1386851,25,Woman
79,834881,DepthScenes,duration_manipulation_targetAtFixation,jsons/v1_VE1000_randls_19_rotated.json,http://54.235.29.9/FacialAge/BNav_EC2/DepthDuration/v2_depth_duration_MTurk/v2_DepthDuration_HTML.html#14,14,1366,768,1366,768,8-22-2022,6-59-3,80,depth_duration_stimuli/000436_2014-06-09_22-25-11_260595134347_rgbf000137-resize_1/000436_2014-06-09_22-25-11_260595134347_rgbf000137-resize_1-target.png,1000,4.0705,13,5019,999,feet,jsons/v1_VE1000_randls_19_rotated.json,901254,1386851,25,Woman
80,834881,DepthScenes,duration_manipulation_targetAtFixation,jsons/v1_VE1000_randls_19_rotated.json,http://54.235.29.9/FacialAge/BNav_EC2/DepthDuration/v2_depth_duration_MTurk/v2_DepthDuration_HTML.html#14,14,1366,768,1366,768,8-22-2022,6-59-3,81,depth_duration_stimuli/001235_2014-06-17_16-37-36_260595134347_rgbf000084-resize_4/001235_2014-06-17_16-37-36_260595134347_rgbf000084-resize_4-target.png,1000,3.6605,10,4456,981,feet,jsons/v1_VE1000_randls_19_rotated.json,901254,1386851,25,Woman
81,834881,DepthScenes,duration_manipulation_targetAtFixation,jsons/v1_VE1000_randls_19_rotated.json,http://54.235.29.9/FacialAge/BNav_EC2/DepthDuration/v2_depth_duration_MTurk/v2_DepthDuration_HTML.html#14,14,1366,768,1366,768,8-22-2022,6-59-3,82,depth_duration_stimuli/000788_2014-06-08_22-34-36_260595134347_rgbf000131-resize_1/000788_2014-06-08_22-34-36_260595134347_rgbf000131-resize_1-target.png,1000,3.359,8,4073,1001,feet,jsons/v1_VE1000_randls_19_rotated.json,901254,1386851,25,Woman
82,834881,DepthScenes,duration_manipulation_targetAtFixation,jsons/v1_VE1000_randls_19_rotated.json,http://54.235.29.9/FacialAge/BNav_EC2/DepthDuration/v2_depth_duration_MTurk/v2_DepthDuration_HTML.html#14,14,1366,768,1366,768,8-22-2022,6-59-3,83,depth_duration_stimuli/003228_2014-05-14_13-42-35_094959634447_rgbf000101-resize_1/003228_2014-05-14_13-42-35_094959634447_rgbf000101-resize_1-target.png,1000,1.9680000000000002,5,4332,1001,feet,jsons/v1_VE1000_randls_19_rotated.json,901254,1386851,25,Woman
83,834881,DepthScenes,duration_manipulation_targetAtFixation,jsons/v1_VE1000_randls_19_rotated.json,http://54.235.29.9/FacialAge/BNav_EC2/DepthDuration/v2_depth_duration_MTurk/v2_DepthDuration_HTML.html#14,14,1366,768,1366,768,8-22-2022,6-59-3,84,depth_duration_stimuli/002600_2014-06-24_14-27-04_094959634447_rgbf000074-resize_2/002600_2014-06-24_14-27-04_094959634447_rgbf000074-resize_2-target.png,1000,2.7575,6,3625,953,feet,jsons/v1_VE1000_randls_19_rotated.json,901254,1386851,25,Woman
84,834881,DepthScenes,duration_manipulation_targetAtFixation,jsons/v1_VE1000_randls_19_rotated.json,http://54.235.29.9/FacialAge/BNav_EC2/DepthDuration/v2_depth_duration_MTurk/v2_DepthDuration_HTML.html#14,14,1366,768,1366,768,8-22-2022,6-59-3,85,depth_duration_stimuli/000943_2014-06-09_19-31-07_260595134347_rgbf000128-resize_1/000943_2014-06-09_19-31-07_260595134347_rgbf000128-resize_1-target.png,1000,1.9765,6,7339,1000,feet,jsons/v1_VE1000_randls_19_rotated.json,901254,1386851,25,Woman
85,834881,DepthScenes,duration_manipulation_targetAtFixation,jsons/v1_VE1000_randls_19_rotated.json,http://54.235.29.9/FacialAge/BNav_EC2/DepthDuration/v2_depth_duration_MTurk/v2_DepthDuration_HTML.html#14,14,1366,768,1366,768,8-22-2022,6-59-3,86,depth_duration_stimuli/003070_2014-06-15_14-58-27_094959634447_rgbf000150-resize_3/003070_2014-06-15_14-58-27_094959634447_rgbf000150-resize_3-target.png,1000,2.9415,7,5316,998,feet,jsons/v1_VE1000_randls_19_rotated.json,901254,1386851,25,Woman
86,834881,DepthScenes,duration_manipulation_targetAtFixation,jsons/v1_VE1000_randls_19_rotated.json,http://54.235.29.9/FacialAge/BNav_EC2/DepthDuration/v2_depth_duration_MTurk/v2_DepthDuration_HTML.html#14,14,1366,768,1366,768,8-22-2022,6-59-3,87,depth_duration_stimuli/000409_2014-06-04_19-23-33_260595134347_rgbf000067-resize_0/000409_2014-06-04_19-23-33_260595134347_rgbf000067-resize_0-target.png,1000,3.7335,8,4911,1000,feet,jsons/v1_VE1000_randls_19_rotated.json,901254,1386851,25,Woman
87,834881,DepthScenes,duration_manipulation_targetAtFixation,jsons/v1_VE1000_randls_19_rotated.json,http://54.235.29.9/FacialAge/BNav_EC2/DepthDuration/v2_depth_duration_MTurk/v2_DepthDuration_HTML.html#14,14,1366,768,1366,768,8-22-2022,6-59-3,88,depth_duration_stimuli/002663_2014-06-13_15-50-26_094959634447_rgbf000075-resize_1/002663_2014-06-13_15-50-26_094959634447_rgbf000075-resize_1-target.png,1000,4.7495,9,4610,924,feet,jsons/v1_VE1000_randls_19_rotated.json,901254,1386851,25,Woman
88,834881,DepthScenes,duration_manipulation_targetAtFixation,jsons/v1_VE1000_randls_19_rotated.json,http://54.235.29.9/FacialAge/BNav_EC2/DepthDuration/v2_depth_duration_MTurk/v2_DepthDuration_HTML.html#14,14,1366,768,1366,768,8-22-2022,6-59-3,89,depth_duration_stimuli/001392_2014-06-19_16-07-59_260595134347_rgbf000046-resize_1/001392_2014-06-19_16-07-59_260595134347_rgbf000046-resize_1-target.png,1000,4.135,10,4283,1001,feet,jsons/v1_VE1000_randls_19_rotated.json,901254,1386851,25,Woman
89,834881,DepthScenes,duration_manipulation_targetAtFixation,jsons/v1_VE1000_randls_19_rotated.json,http://54.235.29.9/FacialAge/BNav_EC2/DepthDuration/v2_depth_duration_MTurk/v2_DepthDuration_HTML.html#14,14,1366,768,1366,768,8-22-2022,6-59-3,90,depth_duration_stimuli/001570_2014-06-20_17-21-09_260595134347_rgbf000135-resize_4/001570_2014-06-20_17-21-09_260595134347_rgbf000135-resize_4-target.png,1000,4.467,10,3964,1001,feet,jsons/v1_VE1000_randls_19_rotated.json,901254,1386851,25,Woman
90,834881,DepthScenes,duration_manipulation_targetAtFixation,jsons/v1_VE1000_randls_19_rotated.json,http://54.235.29.9/FacialAge/BNav_EC2/DepthDuration/v2_depth_duration_MTurk/v2_DepthDuration_HTML.html#14,14,1366,768,1366,768,8-22-2022,6-59-3,91,depth_duration_stimuli/000709_2014-06-08_13-51-55_260595134347_rgbf000068-resize_3/000709_2014-06-08_13-51-55_260595134347_rgbf000068-resize_3-target.png,1000,1.8030000000000002,9,4632,1000,feet,jsons/v1_VE1000_randls_19_rotated.json,901254,1386851,25,Woman
91,834881,DepthScenes,duration_manipulation_targetAtFixation,jsons/v1_VE1000_randls_19_rotated.json,http://54.235.29.9/FacialAge/BNav_EC2/DepthDuration/v2_depth_duration_MTurk/v2_DepthDuration_HTML.html#14,14,1366,768,1366,768,8-22-2022,6-59-3,92,depth_duration_stimuli/002057_2014-06-24_21-00-13_260595134347_rgbf000120-resize_1/002057_2014-06-24_21-00-13_260595134347_rgbf000120-resize_1-target.png,1000,2.967,10,4307,1000,feet,jsons/v1_VE1000_randls_19_rotated.json,901254,1386851,25,Woman
92,834881,DepthScenes,duration_manipulation_targetAtFixation,jsons/v1_VE1000_randls_19_rotated.json,http://54.235.29.9/FacialAge/BNav_EC2/DepthDuration/v2_depth_duration_MTurk/v2_DepthDuration_HTML.html#14,14,1366,768,1366,768,8-22-2022,6-59-3,93,depth_duration_stimuli/003083_2014-06-15_15-21-03_094959634447_rgbf000063-resize_1/003083_2014-06-15_15-21-03_094959634447_rgbf000063-resize_1-target.png,1000,4.1405,12,5742,1040,feet,jsons/v1_VE1000_randls_19_rotated.json,901254,1386851,25,Woman
93,834881,DepthScenes,duration_manipulation_targetAtFixation,jsons/v1_VE1000_randls_19_rotated.json,http://54.235.29.9/FacialAge/BNav_EC2/DepthDuration/v2_depth_duration_MTurk/v2_DepthDuration_HTML.html#14,14,1366,768,1366,768,8-22-2022,6-59-3,94,depth_duration_stimuli/000486_2014-06-09_20-47-20_260595134347_rgbf000143-resize_2/000486_2014-06-09_20-47-20_260595134347_rgbf000143-resize_2-target.png,1000,4.8325,13,4641,999,feet,jsons/v1_VE1000_randls_19_rotated.json,901254,1386851,25,Woman
94,834881,DepthScenes,duration_manipulation_targetAtFixation,jsons/v1_VE1000_randls_19_rotated.json,http://54.235.29.9/FacialAge/BNav_EC2/DepthDuration/v2_depth_duration_MTurk/v2_DepthDuration_HTML.html#14,14,1366,768,1366,768,8-22-2022,6-59-3,95,depth_duration_stimuli/002568_2014-06-24_13-59-21_094959634447_rgbf000062-resize_4/002568_2014-06-24_13-59-21_094959634447_rgbf000062-resize_4-target.png,1000,3.015,5,4418,999,feet,jsons/v1_VE1000_randls_19_rotated.json,901254,1386851,25,Woman
95,834881,DepthScenes,duration_manipulation_targetAtFixation,jsons/v1_VE1000_randls_19_rotated.json,http://54.235.29.9/FacialAge/BNav_EC2/DepthDuration/v2_depth_duration_MTurk/v2_DepthDuration_HTML.html#14,14,1366,768,1366,768,8-22-2022,6-59-3,96,depth_duration_stimuli/003492_2014-05-21_15-50-55_094959634447_rgbf000828-resize_1/003492_2014-05-21_15-50-55_094959634447_rgbf000828-resize_1-target.png,1000,4.06875,6,10352,999,feet,jsons/v1_VE1000_randls_19_rotated.json,901254,1386851,25,Woman
96,834881,DepthScenes,duration_manipulation_targetAtFixation,jsons/v1_VE1000_randls_19_rotated.json,http://54.235.29.9/FacialAge/BNav_EC2/DepthDuration/v2_depth_duration_MTurk/v2_DepthDuration_HTML.html#14,14,1366,768,1366,768,8-22-2022,6-59-3,97,depth_duration_stimuli/003490_2014-05-21_15-50-11_094959634447_rgbf000101-resize_3/003490_2014-05-21_15-50-11_094959634447_rgbf000101-resize_3-target.png,1000,3.6445,4,10458,1001,feet,jsons/v1_VE1000_randls_19_rotated.json,901254,1386851,25,Woman
97,834881,DepthScenes,duration_manipulation_targetAtFixation,jsons/v1_VE1000_randls_19_rotated.json,http://54.235.29.9/FacialAge/BNav_EC2/DepthDuration/v2_depth_duration_MTurk/v2_DepthDuration_HTML.html#14,14,1366,768,1366,768,8-22-2022,6-59-3,98,depth_duration_stimuli/001175_2014-06-17_15-45-55_260595134347_rgbf000129-resize_4/001175_2014-06-17_15-45-55_260595134347_rgbf000129-resize_4-target.png,1000,4.255,15,5069,1000,feet,jsons/v1_VE1000_randls_19_rotated.json,901254,1386851,25,Woman
98,834881,DepthScenes,duration_manipulation_targetAtFixation,jsons/v1_VE1000_randls_19_rotated.json,http://54.235.29.9/FacialAge/BNav_EC2/DepthDuration/v2_depth_duration_MTurk/v2_DepthDuration_HTML.html#14,14,1366,768,1366,768,8-22-2022,6-59-3,99,depth_duration_stimuli/001222_2014-06-17_16-24-06_260595134347_rgbf000073-resize_0/001222_2014-06-17_16-24-06_260595134347_rgbf000073-resize-original.jpg,1000,1.4385,0,3634,1000,feet,jsons/v1_VE1000_randls_19_rotated.json,901254,1386851,25,Woman
99,834881,DepthScenes,duration_manipulation_targetAtFixation,jsons/v1_VE1000_randls_19_rotated.json,http://54.235.29.9/FacialAge/BNav_EC2/DepthDuration/v2_depth_duration_MTurk/v2_DepthDuration_HTML.html#14,14,1366,768,1366,768,8-22-2022,6-59-3,100,depth_duration_stimuli/002953_2014-06-08_17-32-18_094959634447_rgbf000059-resize_5/002953_2014-06-08_17-32-18_094959634447_rgbf000059-resize_5-target.png,1000,1.551,4,6434,1000,feet,jsons/v1_VE1000_randls_19_rotated.json,901254,1386851,25,Woman
100,834881,DepthScenes,duration_manipulation_targetAtFixation,jsons/v1_VE1000_randls_19_rotated.json,http://54.235.29.9/FacialAge/BNav_EC2/DepthDuration/v2_depth_duration_MTurk/v2_DepthDuration_HTML.html#14,14,1366,768,1366,768,8-22-2022,6-59-3,101,depth_duration_stimuli/000878_2014-06-08_22-52-45_260595134347_rgbf000045-resize_2/000878_2014-06-08_22-52-45_260595134347_rgbf000045-resize_2-target.png,1000,2.092,8,5205,1001,feet,jsons/v1_VE1000_randls_19_rotated.json,901254,1386851,25,Woman
101,834881,DepthScenes,duration_manipulation_targetAtFixation,jsons/v1_VE1000_randls_19_rotated.json,http://54.235.29.9/FacialAge/BNav_EC2/DepthDuration/v2_depth_duration_MTurk/v2_DepthDuration_HTML.html#14,14,1366,768,1366,768,8-22-2022,6-59-3,102,depth_duration_stimuli/003495_2014-05-21_16-01-51_094959634447_rgbf000100-resize_3/003495_2014-05-21_16-01-51_094959634447_rgbf000100-resize_3-target.png,1000,1.6255,5,4801,1000,feet,jsons/v1_VE1000_randls_19_rotated.json,901254,1386851,25,Woman
102,834881,DepthScenes,duration_manipulation_targetAtFixation,jsons/v1_VE1000_randls_19_rotated.json,http://54.235.29.9/FacialAge/BNav_EC2/DepthDuration/v2_depth_duration_MTurk/v2_DepthDuration_HTML.html#14,14,1366,768,1366,768,8-22-2022,6-59-3,103,depth_duration_stimuli/001244_2014-06-17_16-47-45_260595134347_rgbf000030-resize_4/001244_2014-06-17_16-47-45_260595134347_rgbf000030-resize_4-target.png,1000,2.0425,6,4435,1000,feet,jsons/v1_VE1000_randls_19_rotated.json,901254,1386851,25,Woman
103,834881,DepthScenes,duration_manipulation_targetAtFixation,jsons/v1_VE1000_randls_19_rotated.json,http://54.235.29.9/FacialAge/BNav_EC2/DepthDuration/v2_depth_duration_MTurk/v2_DepthDuration_HTML.html#14,14,1366,768,1366,768,8-22-2022,6-59-3,104,depth_duration_stimuli/002467_2014-06-28_20-38-07_260595134347_rgbf000026-resize_2/002467_2014-06-28_20-38-07_260595134347_rgbf000026-resize_2-target.png,1000,4.742,6,5053,998,feet,jsons/v1_VE1000_randls_19_rotated.json,901254,1386851,25,Woman
104,834881,DepthScenes,duration_manipulation_targetAtFixation,jsons/v1_VE1000_randls_19_rotated.json,http://54.235.29.9/FacialAge/BNav_EC2/DepthDuration/v2_depth_duration_MTurk/v2_DepthDuration_HTML.html#14,14,1366,768,1366,768,8-22-2022,6-59-3,105,depth_duration_stimuli/002570_2014-06-24_13-59-54_094959634447_rgbf000059-resize_0/002570_2014-06-24_13-59-54_094959634447_rgbf000059-resize_0-target.png,1000,4.037,7,3826,1000,feet,jsons/v1_VE1000_randls_19_rotated.json,901254,1386851,25,Woman
105,834881,DepthScenes,duration_manipulation_targetAtFixation,jsons/v1_VE1000_randls_19_rotated.json,http://54.235.29.9/FacialAge/BNav_EC2/DepthDuration/v2_depth_duration_MTurk/v2_DepthDuration_HTML.html#14,14,1366,768,1366,768,8-22-2022,6-59-3,106,depth_duration_stimuli/000457_2014-06-08_16-52-43_260595134347_rgbf000199-resize_1/000457_2014-06-08_16-52-43_260595134347_rgbf000199-resize_1-target.png,1000,3.6489999999999996,9,4476,1000,feet,jsons/v1_VE1000_randls_19_rotated.json,901254,1386851,25,Woman
106,834881,DepthScenes,duration_manipulation_targetAtFixation,jsons/v1_VE1000_randls_19_rotated.json,http://54.235.29.9/FacialAge/BNav_EC2/DepthDuration/v2_depth_duration_MTurk/v2_DepthDuration_HTML.html#14,14,1366,768,1366,768,8-22-2022,6-59-3,107,depth_duration_stimuli/000929_2014-06-09_16-33-19_260595134347_rgbf000139-resize_0/000929_2014-06-09_16-33-19_260595134347_rgbf000139-resize_0-target.png,1000,2.8680000000000003,5,4987,1001,feet,jsons/v1_VE1000_randls_19_rotated.json,901254,1386851,25,Woman
107,834881,DepthScenes,duration_manipulation_targetAtFixation,jsons/v1_VE1000_randls_19_rotated.json,http://54.235.29.9/FacialAge/BNav_EC2/DepthDuration/v2_depth_duration_MTurk/v2_DepthDuration_HTML.html#14,14,1366,768,1366,768,8-22-2022,6-59-3,108,depth_duration_stimuli/000691_2014-06-08_13-08-50_260595134347_rgbf000132-resize_3/000691_2014-06-08_13-08-50_260595134347_rgbf000132-resize_3-target.png,1000,4.1530000000000005,6,5230,978,feet,jsons/v1_VE1000_randls_19_rotated.json,901254,1386851,25,Woman
108,834881,DepthScenes,duration_manipulation_targetAtFixation,jsons/v1_VE1000_randls_19_rotated.json,http://54.235.29.9/FacialAge/BNav_EC2/DepthDuration/v2_depth_duration_MTurk/v2_DepthDuration_HTML.html#14,14,1366,768,1366,768,8-22-2022,6-59-3,109,depth_duration_stimuli/002213_2014-06-28_18-37-58_260595134347_rgbf000055-resize_1/002213_2014-06-28_18-37-58_260595134347_rgbf000055-resize_1-target.png,1000,3.62,8,5687,1000,feet,jsons/v1_VE1000_randls_19_rotated.json,901254,1386851,25,Woman
109,834881,DepthScenes,duration_manipulation_targetAtFixation,jsons/v1_VE1000_randls_19_rotated.json,http://54.235.29.9/FacialAge/BNav_EC2/DepthDuration/v2_depth_duration_MTurk/v2_DepthDuration_HTML.html#14,14,1366,768,1366,768,8-22-2022,6-59-3,110,depth_duration_stimuli/001094_2014-06-15_17-36-00_260595134347_rgbf000205-resize_0/001094_2014-06-15_17-36-00_260595134347_rgbf000205-resize_0-target.png,1000,4.2175,8,5134,999,feet,jsons/v1_VE1000_randls_19_rotated.json,901254,1386851,25,Woman
110,834881,DepthScenes,duration_manipulation_targetAtFixation,jsons/v1_VE1000_randls_19_rotated.json,http://54.235.29.9/FacialAge/BNav_EC2/DepthDuration/v2_depth_duration_MTurk/v2_DepthDuration_HTML.html#14,14,1366,768,1366,768,8-22-2022,6-59-3,111,depth_duration_stimuli/000692_2014-06-08_13-09-42_260595134347_rgbf000199-resize_2/000692_2014-06-08_13-09-42_260595134347_rgbf000199-resize_2-target.png,1000,3.661,8,5159,998,feet,jsons/v1_VE1000_randls_19_rotated.json,901254,1386851,25,Woman
111,834881,DepthScenes,duration_manipulation_targetAtFixation,jsons/v1_VE1000_randls_19_rotated.json,http://54.235.29.9/FacialAge/BNav_EC2/DepthDuration/v2_depth_duration_MTurk/v2_DepthDuration_HTML.html#14,14,1366,768,1366,768,8-22-2022,6-59-3,112,depth_duration_stimuli/001516_2014-06-20_16-25-09_260595134347_rgbf000076-resize_2/001516_2014-06-20_16-25-09_260595134347_rgbf000076-resize_2-target.png,1000,1.7445,7,4538,1000,feet,jsons/v1_VE1000_randls_19_rotated.json,901254,1386851,25,Woman
112,834881,DepthScenes,duration_manipulation_targetAtFixation,jsons/v1_VE1000_randls_19_rotated.json,http://54.235.29.9/FacialAge/BNav_EC2/DepthDuration/v2_depth_duration_MTurk/v2_DepthDuration_HTML.html#14,14,1366,768,1366,768,8-22-2022,6-59-3,113,depth_duration_stimuli/002118_2014-06-25_20-32-08_260595134347_rgbf000078-resize_1/002118_2014-06-25_20-32-08_260595134347_rgbf000078-resize_1-target.png,1000,2.6460000000000004,4,4611,1000,feet,jsons/v1_VE1000_randls_19_rotated.json,901254,1386851,25,Woman
113,834881,DepthScenes,duration_manipulation_targetAtFixation,jsons/v1_VE1000_randls_19_rotated.json,http://54.235.29.9/FacialAge/BNav_EC2/DepthDuration/v2_depth_duration_MTurk/v2_DepthDuration_HTML.html#14,14,1366,768,1366,768,8-22-2022,6-59-3,114,depth_duration_stimuli/000927_2014-06-09_16-32-30_260595134347_rgbf000123-resize_3/000927_2014-06-09_16-32-30_260595134347_rgbf000123-resize_3-target.png,1000,2.6785,4,4685,1001,feet,jsons/v1_VE1000_randls_19_rotated.json,901254,1386851,25,Woman
114,834881,DepthScenes,duration_manipulation_targetAtFixation,jsons/v1_VE1000_randls_19_rotated.json,http://54.235.29.9/FacialAge/BNav_EC2/DepthDuration/v2_depth_duration_MTurk/v2_DepthDuration_HTML.html#14,14,1366,768,1366,768,8-22-2022,6-59-3,115,depth_duration_stimuli/001110_2014-06-15_17-25-28_260595134347_rgbf000150-resize_1/001110_2014-06-15_17-25-28_260595134347_rgbf000150-resize_1-target.png,1000,1.7115,5,4234,1000,feet,jsons/v1_VE1000_randls_19_rotated.json,901254,1386851,25,Woman
115,834881,DepthScenes,duration_manipulation_targetAtFixation,jsons/v1_VE1000_randls_19_rotated.json,http://54.235.29.9/FacialAge/BNav_EC2/DepthDuration/v2_depth_duration_MTurk/v2_DepthDuration_HTML.html#14,14,1366,768,1366,768,8-22-2022,6-59-3,116,depth_duration_stimuli/001052_2014-06-08_18-24-54_260595134347_rgbf000130-resize_1/001052_2014-06-08_18-24-54_260595134347_rgbf000130-resize_1-target.png,1000,4.1045,6,4083,1000,feet,jsons/v1_VE1000_randls_19_rotated.json,901254,1386851,25,Woman
116,834881,DepthScenes,duration_manipulation_targetAtFixation,jsons/v1_VE1000_randls_19_rotated.json,http://54.235.29.9/FacialAge/BNav_EC2/DepthDuration/v2_depth_duration_MTurk/v2_DepthDuration_HTML.html#14,14,1366,768,1366,768,8-22-2022,6-59-3,117,depth_duration_stimuli/002988_2014-06-15_12-24-20_094959634447_rgbf000150-resize_1/002988_2014-06-15_12-24-20_094959634447_rgbf000150-resize_1-target.png,1000,4.7669999999999995,8,5105,1000,feet,jsons/v1_VE1000_randls_19_rotated.json,901254,1386851,25,Woman
117,834881,DepthScenes,duration_manipulation_targetAtFixation,jsons/v1_VE1000_randls_19_rotated.json,http://54.235.29.9/FacialAge/BNav_EC2/DepthDuration/v2_depth_duration_MTurk/v2_DepthDuration_HTML.html#14,14,1366,768,1366,768,8-22-2022,6-59-3,118,depth_duration_stimuli/000780_2014-06-08_22-28-29_260595134347_rgbf000126-resize_1/000780_2014-06-08_22-28-29_260595134347_rgbf000126-resize_1-target.png,1000,3.3825,9,4525,1001,feet,jsons/v1_VE1000_randls_19_rotated.json,901254,1386851,25,Woman
118,834881,DepthScenes,duration_manipulation_targetAtFixation,jsons/v1_VE1000_randls_19_rotated.json,http://54.235.29.9/FacialAge/BNav_EC2/DepthDuration/v2_depth_duration_MTurk/v2_DepthDuration_HTML.html#14,14,1366,768,1366,768,8-22-2022,6-59-3,119,depth_duration_stimuli/002445_2014-06-28_20-32-16_260595134347_rgbf000029-resize_4/002445_2014-06-28_20-32-16_260595134347_rgbf000029-resize_4-target.png,1000,2.5315,3,4675,999,feet,jsons/v1_VE1000_randls_19_rotated.json,901254,1386851,25,Woman
119,834881,DepthScenes,duration_manipulation_targetAtFixation,jsons/v1_VE1000_randls_19_rotated.json,http://54.235.29.9/FacialAge/BNav_EC2/DepthDuration/v2_depth_duration_MTurk/v2_DepthDuration_HTML.html#14,14,1366,768,1366,768,8-22-2022,6-59-3,120,depth_duration_stimuli/000787_2014-06-08_22-33-53_260595134347_rgbf000175-resize_1/000787_2014-06-08_22-33-53_260595134347_rgbf000175-resize-original.jpg,1000,4.784,4,5066,998,feet,jsons/v1_VE1000_randls_19_rotated.json,901254,1386851,25,Woman
120,834881,DepthScenes,duration_manipulation_targetAtFixation,jsons/v1_VE1000_randls_19_rotated.json,http://54.235.29.9/FacialAge/BNav_EC2/DepthDuration/v2_depth_duration_MTurk/v2_DepthDuration_HTML.html#14,14,1366,768,1366,768,8-22-2022,6-59-3,121,depth_duration_stimuli/002323_2014-06-28_20-01-54_260595134347_rgbf000051-resize_4/002323_2014-06-28_20-01-54_260595134347_rgbf000051-resize_4-target.png,1000,3.7310000000000003,5,3843,1000,feet,jsons/v1_VE1000_randls_19_rotated.json,901254,1386851,25,Woman
121,834881,DepthScenes,duration_manipulation_targetAtFixation,jsons/v1_VE1000_randls_19_rotated.json,http://54.235.29.9/FacialAge/BNav_EC2/DepthDuration/v2_depth_duration_MTurk/v2_DepthDuration_HTML.html#14,14,1366,768,1366,768,8-22-2022,6-59-3,122,depth_duration_stimuli/000917_2014-06-09_22-45-29_260595134347_rgbf000149-resize_3/000917_2014-06-09_22-45-29_260595134347_rgbf000149-resize_3-target.png,1000,4.1865,6,4048,999,feet,jsons/v1_VE1000_randls_19_rotated.json,901254,1386851,25,Woman
122,834881,DepthScenes,duration_manipulation_targetAtFixation,jsons/v1_VE1000_randls_19_rotated.json,http://54.235.29.9/FacialAge/BNav_EC2/DepthDuration/v2_depth_duration_MTurk/v2_DepthDuration_HTML.html#14,14,1366,768,1366,768,8-22-2022,6-59-3,123,depth_duration_stimuli/002344_2014-06-28_20-06-29_260595134347_rgbf000030-resize_1/002344_2014-06-28_20-06-29_260595134347_rgbf000030-resize_1-target.png,1000,1.5795,5,4202,1000,feet,jsons/v1_VE1000_randls_19_rotated.json,901254,1386851,25,Woman
123,834881,DepthScenes,duration_manipulation_targetAtFixation,jsons/v1_VE1000_randls_19_rotated.json,http://54.235.29.9/FacialAge/BNav_EC2/DepthDuration/v2_depth_duration_MTurk/v2_DepthDuration_HTML.html#14,14,1366,768,1366,768,8-22-2022,6-59-3,124,depth_duration_stimuli/002725_2014-06-22_11-47-51_094959634447_rgbf000070-resize_1/002725_2014-06-22_11-47-51_094959634447_rgbf000070-resize_1-target.png,1000,2.195,6,4110,1000,feet,jsons/v1_VE1000_randls_19_rotated.json,901254,1386851,25,Woman
124,834881,DepthScenes,duration_manipulation_targetAtFixation,jsons/v1_VE1000_randls_19_rotated.json,http://54.235.29.9/FacialAge/BNav_EC2/DepthDuration/v2_depth_duration_MTurk/v2_DepthDuration_HTML.html#14,14,1366,768,1366,768,8-22-2022,6-59-3,125,depth_duration_stimuli/002657_2014-06-13_15-29-54_094959634447_rgbf000150-resize_1/002657_2014-06-13_15-29-54_094959634447_rgbf000150-resize_1-target.png,1000,4.919,6,4218,1001,feet,jsons/v1_VE1000_randls_19_rotated.json,901254,1386851,25,Woman
125,834881,DepthScenes,duration_manipulation_targetAtFixation,jsons/v1_VE1000_randls_19_rotated.json,http://54.235.29.9/FacialAge/BNav_EC2/DepthDuration/v2_depth_duration_MTurk/v2_DepthDuration_HTML.html#14,14,1366,768,1366,768,8-22-2022,6-59-3,126,depth_duration_stimuli/002375_2014-06-28_20-13-44_260595134347_rgbf000032-resize_1/002375_2014-06-28_20-13-44_260595134347_rgbf000032-resize_1-target.png,1000,4.0175,4,4618,1001,feet,jsons/v1_VE1000_randls_19_rotated.json,901254,1386851,25,Woman
126,834881,DepthScenes,duration_manipulation_targetAtFixation,jsons/v1_VE1000_randls_19_rotated.json,http://54.235.29.9/FacialAge/BNav_EC2/DepthDuration/v2_depth_duration_MTurk/v2_DepthDuration_HTML.html#14,14,1366,768,1366,768,8-22-2022,6-59-3,127,depth_duration_stimuli/002425_2014-06-28_20-27-29_260595134347_rgbf000031-resize_8/002425_2014-06-28_20-27-29_260595134347_rgbf000031-resize_8-target.png,1000,3.8960000000000004,5,4317,1001,feet,jsons/v1_VE1000_randls_19_rotated.json,901254,1386851,25,Woman
127,834881,DepthScenes,duration_manipulation_targetAtFixation,jsons/v1_VE1000_randls_19_rotated.json,http://54.235.29.9/FacialAge/BNav_EC2/DepthDuration/v2_depth_duration_MTurk/v2_DepthDuration_HTML.html#14,14,1366,768,1366,768,8-22-2022,6-59-3,128,depth_duration_stimuli/000642_2014-06-08_16-59-25_260595134347_rgbf000098-resize_2/000642_2014-06-08_16-59-25_260595134347_rgbf000098-resize_2-target.png,1000,2.8815,7,4594,999,feet,jsons/v1_VE1000_randls_19_rotated.json,901254,1386851,25,Woman
128,834881,DepthScenes,duration_manipulation_targetAtFixation,jsons/v1_VE1000_randls_19_rotated.json,http://54.235.29.9/FacialAge/BNav_EC2/DepthDuration/v2_depth_duration_MTurk/v2_DepthDuration_HTML.html#14,14,1366,768,1366,768,8-22-2022,6-59-3,129,depth_duration_stimuli/001617_2014-06-20_11-35-32_260595134347_rgbf000066-resize_1/001617_2014-06-20_11-35-32_260595134347_rgbf000066-resize_1-target.png,1000,3.7910000000000004,9,4473,1000,feet,jsons/v1_VE1000_randls_19_rotated.json,901254,1386851,25,Woman
129,834881,DepthScenes,duration_manipulation_targetAtFixation,jsons/v1_VE1000_randls_19_rotated.json,http://54.235.29.9/FacialAge/BNav_EC2/DepthDuration/v2_depth_duration_MTurk/v2_DepthDuration_HTML.html#14,14,1366,768,1366,768,8-22-2022,6-59-3,130,depth_duration_stimuli/001806_2014-06-26_20-50-20_260595134347_rgbf000091-resize_1/001806_2014-06-26_20-50-20_260595134347_rgbf000091-resize_1-target.png,1000,2.7305,5,3538,999,feet,jsons/v1_VE1000_randls_19_rotated.json,901254,1386851,25,Woman
130,834881,DepthScenes,duration_manipulation_targetAtFixation,jsons/v1_VE1000_randls_19_rotated.json,http://54.235.29.9/FacialAge/BNav_EC2/DepthDuration/v2_depth_duration_MTurk/v2_DepthDuration_HTML.html#14,14,1366,768,1366,768,8-22-2022,6-59-3,131,depth_duration_stimuli/000483_2014-06-09_20-41-45_260595134347_rgbf000116-resize_4/000483_2014-06-09_20-41-45_260595134347_rgbf000116-resize_4-target.png,1000,1.337,5,3856,1000,feet,jsons/v1_VE1000_randls_19_rotated.json,901254,1386851,25,Woman
131,834881,DepthScenes,duration_manipulation_targetAtFixation,jsons/v1_VE1000_randls_19_rotated.json,http://54.235.29.9/FacialAge/BNav_EC2/DepthDuration/v2_depth_duration_MTurk/v2_DepthDuration_HTML.html#14,14,1366,768,1366,768,8-22-2022,6-59-3,132,depth_duration_stimuli/000469_2014-06-09_19-42-10_260595134347_rgbf000081-resize_1/000469_2014-06-09_19-42-10_260595134347_rgbf000081-resize_1-target.png,1000,1.652,5,4042,999,feet,jsons/v1_VE1000_randls_19_rotated.json,901254,1386851,25,Woman
132,834881,DepthScenes,duration_manipulation_targetAtFixation,jsons/v1_VE1000_randls_19_rotated.json,http://54.235.29.9/FacialAge/BNav_EC2/DepthDuration/v2_depth_duration_MTurk/v2_DepthDuration_HTML.html#14,14,1366,768,1366,768,8-22-2022,6-59-3,133,depth_duration_stimuli/002545_2014-06-24_13-38-53_094959634447_rgbf000080-resize_4/002545_2014-06-24_13-38-53_094959634447_rgbf000080-resize_4-target.png,1000,1.9205,4,3702,1001,feet,jsons/v1_VE1000_randls_19_rotated.json,901254,1386851,25,Woman
133,834881,DepthScenes,duration_manipulation_targetAtFixation,jsons/v1_VE1000_randls_19_rotated.json,http://54.235.29.9/FacialAge/BNav_EC2/DepthDuration/v2_depth_duration_MTurk/v2_DepthDuration_HTML.html#14,14,1366,768,1366,768,8-22-2022,6-59-3,134,depth_duration_stimuli/001092_2014-06-15_17-34-58_260595134347_rgbf000171-resize_3/001092_2014-06-15_17-34-58_260595134347_rgbf000171-resize_3-target.png,1000,2.6935,6,4102,996,feet,jsons/v1_VE1000_randls_19_rotated.json,901254,1386851,25,Woman
134,834881,DepthScenes,duration_manipulation_targetAtFixation,jsons/v1_VE1000_randls_19_rotated.json,http://54.235.29.9/FacialAge/BNav_EC2/DepthDuration/v2_depth_duration_MTurk/v2_DepthDuration_HTML.html#14,14,1366,768,1366,768,8-22-2022,6-59-3,135,depth_duration_stimuli/000375_2014-06-08_11-17-29_260595134347_rgbf000133-resize_2/000375_2014-06-08_11-17-29_260595134347_rgbf000133-resize-original.jpg,1000,4.718,0,4507,1000,feet,jsons/v1_VE1000_randls_19_rotated.json,901254,1386851,25,Woman
135,834881,DepthScenes,duration_manipulation_targetAtFixation,jsons/v1_VE1000_randls_19_rotated.json,http://54.235.29.9/FacialAge/BNav_EC2/DepthDuration/v2_depth_duration_MTurk/v2_DepthDuration_HTML.html#14,14,1366,768,1366,768,8-22-2022,6-59-3,136,depth_duration_stimuli/003423_2014-05-21_10-23-26_094959634447_rgbf002665-resize_2/003423_2014-05-21_10-23-26_094959634447_rgbf002665-resize_2-target.png,1000,3.2575,7,4506,988,feet,jsons/v1_VE1000_randls_19_rotated.json,901254,1386851,25,Woman
136,834881,DepthScenes,duration_manipulation_targetAtFixation,jsons/v1_VE1000_randls_19_rotated.json,http://54.235.29.9/FacialAge/BNav_EC2/DepthDuration/v2_depth_duration_MTurk/v2_DepthDuration_HTML.html#14,14,1366,768,1366,768,8-22-2022,6-59-3,137,depth_duration_stimuli/002905_2014-06-03_18-04-43_094959634447_rgbf000151-resize_2/002905_2014-06-03_18-04-43_094959634447_rgbf000151-resize_2-target.png,1000,2.0295,6,4546,1000,feet,jsons/v1_VE1000_randls_19_rotated.json,901254,1386851,25,Woman
137,834881,DepthScenes,duration_manipulation_targetAtFixation,jsons/v1_VE1000_randls_19_rotated.json,http://54.235.29.9/FacialAge/BNav_EC2/DepthDuration/v2_depth_duration_MTurk/v2_DepthDuration_HTML.html#14,14,1366,768,1366,768,8-22-2022,6-59-3,138,depth_duration_stimuli/002637_2014-06-24_14-51-13_094959634447_rgbf000066-resize_4/002637_2014-06-24_14-51-13_094959634447_rgbf000066-resize_4-target.png,1000,1.9955,8,4317,999,feet,jsons/v1_VE1000_randls_19_rotated.json,901254,1386851,25,Woman
138,834881,DepthScenes,duration_manipulation_targetAtFixation,jsons/v1_VE1000_randls_19_rotated.json,http://54.235.29.9/FacialAge/BNav_EC2/DepthDuration/v2_depth_duration_MTurk/v2_DepthDuration_HTML.html#14,14,1366,768,1366,768,8-22-2022,6-59-3,139,depth_duration_stimuli/003534_2014-05-22_15-06-10_094959634447_rgbf000102-resize_4/003534_2014-05-22_15-06-10_094959634447_rgbf000102-resize_4-target.png,1000,1.426,8,4720,1000,feet,jsons/v1_VE1000_randls_19_rotated.json,901254,1386851,25,Woman
139,834881,DepthScenes,duration_manipulation_targetAtFixation,jsons/v1_VE1000_randls_19_rotated.json,http://54.235.29.9/FacialAge/BNav_EC2/DepthDuration/v2_depth_duration_MTurk/v2_DepthDuration_HTML.html#14,14,1366,768,1366,768,8-22-2022,6-59-3,140,depth_duration_stimuli/003010_2014-06-15_12-54-35_094959634447_rgbf000112-resize_0/003010_2014-06-15_12-54-35_094959634447_rgbf000112-resize_0-target.png,1000,3.1185,7,4041,1001,feet,jsons/v1_VE1000_randls_19_rotated.json,901254,1386851,25,Woman
140,834881,DepthScenes,duration_manipulation_targetAtFixation,jsons/v1_VE1000_randls_19_rotated.json,http://54.235.29.9/FacialAge/BNav_EC2/DepthDuration/v2_depth_duration_MTurk/v2_DepthDuration_HTML.html#14,14,1366,768,1366,768,8-22-2022,6-59-3,141,depth_duration_stimuli/001810_2014-06-26_20-51-35_260595134347_rgbf000040-resize_3/001810_2014-06-26_20-51-35_260595134347_rgbf000040-resize_3-target.png,1000,2.2525,10,5571,1034,feet,jsons/v1_VE1000_randls_19_rotated.json,901254,1386851,25,Woman
141,834881,DepthScenes,duration_manipulation_targetAtFixation,jsons/v1_VE1000_randls_19_rotated.json,http://54.235.29.9/FacialAge/BNav_EC2/DepthDuration/v2_depth_duration_MTurk/v2_DepthDuration_HTML.html#14,14,1366,768,1366,768,8-22-2022,6-59-3,142,depth_duration_stimuli/002805_2014-06-22_19-54-03_094959634447_rgbf000079-resize_1/002805_2014-06-22_19-54-03_094959634447_rgbf000079-resize_1-target.png,1000,3.1439999999999997,5,3825,998,feet,jsons/v1_VE1000_randls_19_rotated.json,901254,1386851,25,Woman
142,834881,DepthScenes,duration_manipulation_targetAtFixation,jsons/v1_VE1000_randls_19_rotated.json,http://54.235.29.9/FacialAge/BNav_EC2/DepthDuration/v2_depth_duration_MTurk/v2_DepthDuration_HTML.html#14,14,1366,768,1366,768,8-22-2022,6-59-3,143,depth_duration_stimuli/000906_2014-06-08_13-35-43_260595134347_rgbf000155-resize_1/000906_2014-06-08_13-35-43_260595134347_rgbf000155-resize_1-target.png,1000,2.8489999999999998,6,3900,1000,feet,jsons/v1_VE1000_randls_19_rotated.json,901254,1386851,25,Woman
143,834881,DepthScenes,duration_manipulation_targetAtFixation,jsons/v1_VE1000_randls_19_rotated.json,http://54.235.29.9/FacialAge/BNav_EC2/DepthDuration/v2_depth_duration_MTurk/v2_DepthDuration_HTML.html#14,14,1366,768,1366,768,8-22-2022,6-59-3,144,depth_duration_stimuli/000665_2014-06-09_20-42-35_260595134347_rgbf000110-resize_1/000665_2014-06-09_20-42-35_260595134347_rgbf000110-resize_1-target.png,1000,3.057,7,4241,1000,feet,jsons/v1_VE1000_randls_19_rotated.json,901254,1386851,25,Woman
144,834881,DepthScenes,duration_manipulation_targetAtFixation,jsons/v1_VE1000_randls_19_rotated.json,http://54.235.29.9/FacialAge/BNav_EC2/DepthDuration/v2_depth_duration_MTurk/v2_DepthDuration_HTML.html#14,14,1366,768,1366,768,8-22-2022,6-59-3,145,depth_duration_stimuli/001150_2014-06-17_15-27-34_260595134347_rgbf000108-resize_2/001150_2014-06-17_15-27-34_260595134347_rgbf000108-resize_2-target.png,1000,4.0325,8,4404,1001,feet,jsons/v1_VE1000_randls_19_rotated.json,901254,1386851,25,Woman
145,834881,DepthScenes,duration_manipulation_targetAtFixation,jsons/v1_VE1000_randls_19_rotated.json,http://54.235.29.9/FacialAge/BNav_EC2/DepthDuration/v2_depth_duration_MTurk/v2_DepthDuration_HTML.html#14,14,1366,768,1366,768,8-22-2022,6-59-3,146,depth_duration_stimuli/001571_2014-06-20_17-21-32_260595134347_rgbf000089-resize_1/001571_2014-06-20_17-21-32_260595134347_rgbf000089-resize_1-target.png,1000,1.86,8,3970,1000,feet,jsons/v1_VE1000_randls_19_rotated.json,901254,1386851,25,Woman
146,834881,DepthScenes,duration_manipulation_targetAtFixation,jsons/v1_VE1000_randls_19_rotated.json,http://54.235.29.9/FacialAge/BNav_EC2/DepthDuration/v2_depth_duration_MTurk/v2_DepthDuration_HTML.html#14,14,1366,768,1366,768,8-22-2022,6-59-3,147,depth_duration_stimuli/002272_2014-06-28_18-53-56_260595134347_rgbf000067-resize_2/002272_2014-06-28_18-53-56_260595134347_rgbf000067-resize_2-target.png,1000,1.138,9,4517,1009,feet,jsons/v1_VE1000_randls_19_rotated.json,901254,1386851,25,Woman
147,834881,DepthScenes,duration_manipulation_targetAtFixation,jsons/v1_VE1000_randls_19_rotated.json,http://54.235.29.9/FacialAge/BNav_EC2/DepthDuration/v2_depth_duration_MTurk/v2_DepthDuration_HTML.html#14,14,1366,768,1366,768,8-22-2022,6-59-3,148,depth_duration_stimuli/001815_2014-06-26_20-52-55_260595134347_rgbf000020-resize_0/001815_2014-06-26_20-52-55_260595134347_rgbf000020-resize_0-target.png,1000,3.3865,6,4057,1000,feet,jsons/v1_VE1000_randls_19_rotated.json,901254,1386851,25,Woman
148,834881,DepthScenes,duration_manipulation_targetAtFixation,jsons/v1_VE1000_randls_19_rotated.json,http://54.235.29.9/FacialAge/BNav_EC2/DepthDuration/v2_depth_duration_MTurk/v2_DepthDuration_HTML.html#14,14,1366,768,1366,768,8-22-2022,6-59-3,149,depth_duration_stimuli/001808_2014-06-26_20-50-58_260595134347_rgbf000029-resize_1/001808_2014-06-26_20-50-58_260595134347_rgbf000029-resize_1-target.png,1000,4.249,5,3850,1001,feet,jsons/v1_VE1000_randls_19_rotated.json,901254,1386851,25,Woman
149,834881,DepthScenes,duration_manipulation_targetAtFixation,jsons/v1_VE1000_randls_19_rotated.json,http://54.235.29.9/FacialAge/BNav_EC2/DepthDuration/v2_depth_duration_MTurk/v2_DepthDuration_HTML.html#14,14,1366,768,1366,768,8-22-2022,6-59-3,150,depth_duration_stimuli/002758_2014-06-22_19-11-20_094959634447_rgbf000128-resize_1/002758_2014-06-22_19-11-20_094959634447_rgbf000128-resize_1-target.png,1000,2.555,6,4300,1000,feet,jsons/v1_VE1000_randls_19_rotated.json,901254,1386851,25,Woman
150,834881,DepthScenes,duration_manipulation_targetAtFixation,jsons/v1_VE1000_randls_19_rotated.json,http://54.235.29.9/FacialAge/BNav_EC2/DepthDuration/v2_depth_duration_MTurk/v2_DepthDuration_HTML.html#14,14,1366,768,1366,768,8-22-2022,6-59-3,151,depth_duration_stimuli/002630_2014-06-24_14-47-50_094959634447_rgbf000055-resize_1/002630_2014-06-24_14-47-50_094959634447_rgbf000055-resize_1-target.png,1000,3.0095,6,4241,999,feet,jsons/v1_VE1000_randls_19_rotated.json,901254,1386851,25,Woman
151,834881,DepthScenes,duration_manipulation_targetAtFixation,jsons/v1_VE1000_randls_19_rotated.json,http://54.235.29.9/FacialAge/BNav_EC2/DepthDuration/v2_depth_duration_MTurk/v2_DepthDuration_HTML.html#14,14,1366,768,1366,768,8-22-2022,6-59-3,152,depth_duration_stimuli/000569_2014-06-09_22-51-47_260595134347_rgbf000141-resize_3/000569_2014-06-09_22-51-47_260595134347_rgbf000141-resize-original.jpg,1000,4.512,0,3881,999,feet,jsons/v1_VE1000_randls_19_rotated.json,901254,1386851,25,Woman
152,834881,DepthScenes,duration_manipulation_targetAtFixation,jsons/v1_VE1000_randls_19_rotated.json,http://54.235.29.9/FacialAge/BNav_EC2/DepthDuration/v2_depth_duration_MTurk/v2_DepthDuration_HTML.html#14,14,1366,768,1366,768,8-22-2022,6-59-3,153,depth_duration_stimuli/000677_2014-06-08_23-10-32_260595134347_rgbf000158-resize_6/000677_2014-06-08_23-10-32_260595134347_rgbf000158-resize_6-target.png,1000,3.556,0,5669,999,feet,jsons/v1_VE1000_randls_19_rotated.json,901254,1386851,25,Woman
153,834881,DepthScenes,duration_manipulation_targetAtFixation,jsons/v1_VE1000_randls_19_rotated.json,http://54.235.29.9/FacialAge/BNav_EC2/DepthDuration/v2_depth_duration_MTurk/v2_DepthDuration_HTML.html#14,14,1366,768,1366,768,8-22-2022,6-59-3,154,depth_duration_stimuli/001029_2014-06-08_13-17-57_260595134347_rgbf000065-resize_1/001029_2014-06-08_13-17-57_260595134347_rgbf000065-resize_1-target.png,1000,3.0835,4,4870,1001,feet,jsons/v1_VE1000_randls_19_rotated.json,901254,1386851,25,Woman
154,834881,DepthScenes,duration_manipulation_targetAtFixation,jsons/v1_VE1000_randls_19_rotated.json,http://54.235.29.9/FacialAge/BNav_EC2/DepthDuration/v2_depth_duration_MTurk/v2_DepthDuration_HTML.html#14,14,1366,768,1366,768,8-22-2022,6-59-3,155,depth_duration_stimuli/000109_2014-05-14_23-41-52_260595134347_rgbf000035-resize_9/000109_2014-05-14_23-41-52_260595134347_rgbf000035-resize_9-target.png,1000,1.3545,3,4555,1000,feet,jsons/v1_VE1000_randls_19_rotated.json,901254,1386851,25,Woman
155,834881,DepthScenes,duration_manipulation_targetAtFixation,jsons/v1_VE1000_randls_19_rotated.json,http://54.235.29.9/FacialAge/BNav_EC2/DepthDuration/v2_depth_duration_MTurk/v2_DepthDuration_HTML.html#14,14,1366,768,1366,768,8-22-2022,6-59-3,156,depth_duration_stimuli/000470_2014-06-09_19-42-40_260595134347_rgbf000094-resize_1/000470_2014-06-09_19-42-40_260595134347_rgbf000094-resize_1-target.png,1000,1.831,5,5157,1000,feet,jsons/v1_VE1000_randls_19_rotated.json,901254,1386851,25,Woman
156,834881,DepthScenes,duration_manipulation_targetAtFixation,jsons/v1_VE1000_randls_19_rotated.json,http://54.235.29.9/FacialAge/BNav_EC2/DepthDuration/v2_depth_duration_MTurk/v2_DepthDuration_HTML.html#14,14,1366,768,1366,768,8-22-2022,6-59-3,157,depth_duration_stimuli/000191_2014-05-12_17-07-38_260595134347_rgbf000199-resize_0/000191_2014-05-12_17-07-38_260595134347_rgbf000199-resize_0-target.png,1000,3.7995,8,5300,999,feet,jsons/v1_VE1000_randls_19_rotated.json,901254,1386851,25,Woman
157,834881,DepthScenes,duration_manipulation_targetAtFixation,jsons/v1_VE1000_randls_19_rotated.json,http://54.235.29.9/FacialAge/BNav_EC2/DepthDuration/v2_depth_duration_MTurk/v2_DepthDuration_HTML.html#14,14,1366,768,1366,768,8-22-2022,6-59-3,158,depth_duration_stimuli/000493_2014-06-09_21-01-18_260595134347_rgbf000196-resize_3/000493_2014-06-09_21-01-18_260595134347_rgbf000196-resize_3-target.png,1000,3.44,9,4690,1000,feet,jsons/v1_VE1000_randls_19_rotated.json,901254,1386851,25,Woman
158,834881,DepthScenes,duration_manipulation_targetAtFixation,jsons/v1_VE1000_randls_19_rotated.json,http://54.235.29.9/FacialAge/BNav_EC2/DepthDuration/v2_depth_duration_MTurk/v2_DepthDuration_HTML.html#14,14,1366,768,1366,768,8-22-2022,6-59-3,159,depth_duration_stimuli/002660_2014-06-13_15-44-18_094959634447_rgbf001878-resize_2/002660_2014-06-13_15-44-18_094959634447_rgbf001878-resize_2-target.png,1000,3.576,4,4312,999,feet,jsons/v1_VE1000_randls_19_rotated.json,901254,1386851,25,Woman
159,834881,DepthScenes,duration_manipulation_targetAtFixation,jsons/v1_VE1000_randls_19_rotated.json,http://54.235.29.9/FacialAge/BNav_EC2/DepthDuration/v2_depth_duration_MTurk/v2_DepthDuration_HTML.html#14,14,1366,768,1366,768,8-22-2022,6-59-3,160,depth_duration_stimuli/002153_2014-06-25_21-27-18_260595134347_rgbf000038-resize_5/002153_2014-06-25_21-27-18_260595134347_rgbf000038-resize_5-target.png,1000,2.505,6,4442,1000,feet,jsons/v1_VE1000_randls_19_rotated.json,901254,1386851,25,Woman
160,834881,DepthScenes,duration_manipulation_targetAtFixation,jsons/v1_VE1000_randls_19_rotated.json,http://54.235.29.9/FacialAge/BNav_EC2/DepthDuration/v2_depth_duration_MTurk/v2_DepthDuration_HTML.html#14,14,1366,768,1366,768,8-22-2022,6-59-3,161,depth_duration_stimuli/002639_2014-06-24_14-51-37_094959634447_rgbf000074-resize_4/002639_2014-06-24_14-51-37_094959634447_rgbf000074-resize_4-target.png,1000,4.0375,6,4870,1000,feet,jsons/v1_VE1000_randls_19_rotated.json,901254,1386851,25,Woman
161,834881,DepthScenes,duration_manipulation_targetAtFixation,jsons/v1_VE1000_randls_19_rotated.json,http://54.235.29.9/FacialAge/BNav_EC2/DepthDuration/v2_depth_duration_MTurk/v2_DepthDuration_HTML.html#14,14,1366,768,1366,768,8-22-2022,6-59-3,162,depth_duration_stimuli/003292_2014-05-14_21-53-49_094959634447_rgbf000100-resize_2/003292_2014-05-14_21-53-49_094959634447_rgbf000100-resize_2-target.png,1000,3.4815,5,4372,999,feet,jsons/v1_VE1000_randls_19_rotated.json,901254,1386851,25,Woman
162,834881,DepthScenes,duration_manipulation_targetAtFixation,jsons/v1_VE1000_randls_19_rotated.json,http://54.235.29.9/FacialAge/BNav_EC2/DepthDuration/v2_depth_duration_MTurk/v2_DepthDuration_HTML.html#14,14,1366,768,1366,768,8-22-2022,6-59-3,163,depth_duration_stimuli/002103_2014-06-25_20-00-40_260595134347_rgbf000049-resize_0/002103_2014-06-25_20-00-40_260595134347_rgbf000049-resize_0-target.png,1000,4.105,7,5232,999,feet,jsons/v1_VE1000_randls_19_rotated.json,901254,1386851,25,Woman
163,834881,DepthScenes,duration_manipulation_targetAtFixation,jsons/v1_VE1000_randls_19_rotated.json,http://54.235.29.9/FacialAge/BNav_EC2/DepthDuration/v2_depth_duration_MTurk/v2_DepthDuration_HTML.html#14,14,1366,768,1366,768,8-22-2022,6-59-3,164,depth_duration_stimuli/002039_2014-06-24_20-22-38_260595134347_rgbf000084-resize_1/002039_2014-06-24_20-22-38_260595134347_rgbf000084-resize_1-target.png,1000,4.408,10,4762,999,feet,jsons/v1_VE1000_randls_19_rotated.json,901254,1386851,25,Woman
