,subjID,experimentName,versionName,sequenceName,url,selected_row,windowWidth,windowHeight,screenWidth,screenHeight,startDate,startTime,trial,stimulus,duration,actual_depth,depth_estimate,trial_RT,log_sceneDuration,unitSelection,seq_filepath,experimentTime,totalTime,age,gender
0,835332,DepthScenes,duration_manipulation_targetAtFixation,jsons/VE125_randls_41.json,http://54.235.29.9/FacialAge/BNav_EC2/DepthDuration/v2_depth_duration_MTurk/v2_DepthDuration_HTML.html#156,156,1366,625,1366,768,8-21-2022,9-0-33,1,depth_duration_stimuli/002213_2014-06-28_18-37-58_260595134347_rgbf000055-resize_1/002213_2014-06-28_18-37-58_260595134347_rgbf000055-resize_1-target.png,125,3.62,10,7081,124,meters,jsons/VE125_randls_41.json,1240025,1636337,47,Woman
1,835332,DepthScenes,duration_manipulation_targetAtFixation,jsons/VE125_randls_41.json,http://54.235.29.9/FacialAge/BNav_EC2/DepthDuration/v2_depth_duration_MTurk/v2_DepthDuration_HTML.html#156,156,1366,625,1366,768,8-21-2022,9-0-33,2,depth_duration_stimuli/000691_2014-06-08_13-08-50_260595134347_rgbf000132-resize_3/000691_2014-06-08_13-08-50_260595134347_rgbf000132-resize_3-target.png,125,4.1530000000000005,0,4896,124,meters,jsons/VE125_randls_41.json,1240025,1636337,47,Woman
2,835332,DepthScenes,duration_manipulation_targetAtFixation,jsons/VE125_randls_41.json,http://54.235.29.9/FacialAge/BNav_EC2/DepthDuration/v2_depth_duration_MTurk/v2_DepthDuration_HTML.html#156,156,1366,625,1366,768,8-21-2022,9-0-33,3,depth_duration_stimuli/001055_2014-06-08_18-45-35_260595134347_rgbf000111-resize_4/001055_2014-06-08_18-45-35_260595134347_rgbf000111-resize_4-target.png,125,2.4290000000000003,15,4082,124,meters,jsons/VE125_randls_41.json,1240025,1636337,47,Woman
3,835332,DepthScenes,duration_manipulation_targetAtFixation,jsons/VE125_randls_41.json,http://54.235.29.9/FacialAge/BNav_EC2/DepthDuration/v2_depth_duration_MTurk/v2_DepthDuration_HTML.html#156,156,1366,625,1366,768,8-21-2022,9-0-33,4,depth_duration_stimuli/000549_2014-06-08_22-10-24_260595134347_rgbf000247-resize_3/000549_2014-06-08_22-10-24_260595134347_rgbf000247-resize_3-target.png,125,1.841,8,4859,124,meters,jsons/VE125_randls_41.json,1240025,1636337,47,Woman
4,835332,DepthScenes,duration_manipulation_targetAtFixation,jsons/VE125_randls_41.json,http://54.235.29.9/FacialAge/BNav_EC2/DepthDuration/v2_depth_duration_MTurk/v2_DepthDuration_HTML.html#156,156,1366,625,1366,768,8-21-2022,9-0-33,5,depth_duration_stimuli/002509_2014-06-24_13-19-22_094959634447_rgbf000077-resize_0/002509_2014-06-24_13-19-22_094959634447_rgbf000077-resize_0-target.png,125,1.3065,2,5867,125,meters,jsons/VE125_randls_41.json,1240025,1636337,47,Woman
5,835332,DepthScenes,duration_manipulation_targetAtFixation,jsons/VE125_randls_41.json,http://54.235.29.9/FacialAge/BNav_EC2/DepthDuration/v2_depth_duration_MTurk/v2_DepthDuration_HTML.html#156,156,1366,625,1366,768,8-21-2022,9-0-33,6,depth_duration_stimuli/003338_2014-05-20_11-01-23_094959634447_rgbf000051-resize_6/003338_2014-05-20_11-01-23_094959634447_rgbf000051-resize_6-target.png,125,1.693,5,4393,125,meters,jsons/VE125_randls_41.json,1240025,1636337,47,Woman
6,835332,DepthScenes,duration_manipulation_targetAtFixation,jsons/VE125_randls_41.json,http://54.235.29.9/FacialAge/BNav_EC2/DepthDuration/v2_depth_duration_MTurk/v2_DepthDuration_HTML.html#156,156,1366,625,1366,768,8-21-2022,9-0-33,7,depth_duration_stimuli/001167_2014-06-17_15-38-07_260595134347_rgbf000108-resize_0/001167_2014-06-17_15-38-07_260595134347_rgbf000108-resize_0-target.png,125,1.8505,3,4947,123,meters,jsons/VE125_randls_41.json,1240025,1636337,47,Woman
7,835332,DepthScenes,duration_manipulation_targetAtFixation,jsons/VE125_randls_41.json,http://54.235.29.9/FacialAge/BNav_EC2/DepthDuration/v2_depth_duration_MTurk/v2_DepthDuration_HTML.html#156,156,1366,625,1366,768,8-21-2022,9-0-33,8,depth_duration_stimuli/003587_2014-05-23_16-48-02_094959634447_rgbf002384-resize_2/003587_2014-05-23_16-48-02_094959634447_rgbf002384-resize_2-target.png,125,1.357,5,7738,125,meters,jsons/VE125_randls_41.json,1240025,1636337,47,Woman
8,835332,DepthScenes,duration_manipulation_targetAtFixation,jsons/VE125_randls_41.json,http://54.235.29.9/FacialAge/BNav_EC2/DepthDuration/v2_depth_duration_MTurk/v2_DepthDuration_HTML.html#156,156,1366,625,1366,768,8-21-2022,9-0-33,9,depth_duration_stimuli/002445_2014-06-28_20-32-16_260595134347_rgbf000029-resize_4/002445_2014-06-28_20-32-16_260595134347_rgbf000029-resize_4-target.png,125,2.5315,8,8986,125,meters,jsons/VE125_randls_41.json,1240025,1636337,47,Woman
9,835332,DepthScenes,duration_manipulation_targetAtFixation,jsons/VE125_randls_41.json,http://54.235.29.9/FacialAge/BNav_EC2/DepthDuration/v2_depth_duration_MTurk/v2_DepthDuration_HTML.html#156,156,1366,625,1366,768,8-21-2022,9-0-33,10,depth_duration_stimuli/000780_2014-06-08_22-28-29_260595134347_rgbf000126-resize_1/000780_2014-06-08_22-28-29_260595134347_rgbf000126-resize_1-target.png,125,3.3825,10,6058,123,meters,jsons/VE125_randls_41.json,1240025,1636337,47,Woman
10,835332,DepthScenes,duration_manipulation_targetAtFixation,jsons/VE125_randls_41.json,http://54.235.29.9/FacialAge/BNav_EC2/DepthDuration/v2_depth_duration_MTurk/v2_DepthDuration_HTML.html#156,156,1366,625,1366,768,8-21-2022,9-0-33,11,depth_duration_stimuli/000929_2014-06-09_16-33-19_260595134347_rgbf000139-resize_0/000929_2014-06-09_16-33-19_260595134347_rgbf000139-resize_0-target.png,125,2.8680000000000003,3,5153,124,meters,jsons/VE125_randls_41.json,1240025,1636337,47,Woman
11,835332,DepthScenes,duration_manipulation_targetAtFixation,jsons/VE125_randls_41.json,http://54.235.29.9/FacialAge/BNav_EC2/DepthDuration/v2_depth_duration_MTurk/v2_DepthDuration_HTML.html#156,156,1366,625,1366,768,8-21-2022,9-0-33,12,depth_duration_stimuli/000457_2014-06-08_16-52-43_260595134347_rgbf000199-resize_1/000457_2014-06-08_16-52-43_260595134347_rgbf000199-resize_1-target.png,125,3.6489999999999996,5,27995,125,meters,jsons/VE125_randls_41.json,1240025,1636337,47,Woman
12,835332,DepthScenes,duration_manipulation_targetAtFixation,jsons/VE125_randls_41.json,http://54.235.29.9/FacialAge/BNav_EC2/DepthDuration/v2_depth_duration_MTurk/v2_DepthDuration_HTML.html#156,156,1366,625,1366,768,8-21-2022,9-0-33,13,depth_duration_stimuli/000569_2014-06-09_22-51-47_260595134347_rgbf000141-resize_3/000569_2014-06-09_22-51-47_260595134347_rgbf000141-resize-original.jpg,125,4.512,0,5994,124,meters,jsons/VE125_randls_41.json,1240025,1636337,47,Woman
13,835332,DepthScenes,duration_manipulation_targetAtFixation,jsons/VE125_randls_41.json,http://54.235.29.9/FacialAge/BNav_EC2/DepthDuration/v2_depth_duration_MTurk/v2_DepthDuration_HTML.html#156,156,1366,625,1366,768,8-21-2022,9-0-33,14,depth_duration_stimuli/000447_2014-06-08_16-15-46_260595134347_rgbf000130-resize_1/000447_2014-06-08_16-15-46_260595134347_rgbf000130-resize_1-target.png,125,4.479,0,63403,124,meters,jsons/VE125_randls_41.json,1240025,1636337,47,Woman
14,835332,DepthScenes,duration_manipulation_targetAtFixation,jsons/VE125_randls_41.json,http://54.235.29.9/FacialAge/BNav_EC2/DepthDuration/v2_depth_duration_MTurk/v2_DepthDuration_HTML.html#156,156,1366,625,1366,768,8-21-2022,9-0-33,15,depth_duration_stimuli/001447_2014-06-19_17-00-32_260595134347_rgbf000082-resize_5/001447_2014-06-19_17-00-32_260595134347_rgbf000082-resize_5-target.png,125,4.13775,10,5783,124,meters,jsons/VE125_randls_41.json,1240025,1636337,47,Woman
15,835332,DepthScenes,duration_manipulation_targetAtFixation,jsons/VE125_randls_41.json,http://54.235.29.9/FacialAge/BNav_EC2/DepthDuration/v2_depth_duration_MTurk/v2_DepthDuration_HTML.html#156,156,1366,625,1366,768,8-21-2022,9-0-33,16,depth_duration_stimuli/002375_2014-06-28_20-13-44_260595134347_rgbf000032-resize_1/002375_2014-06-28_20-13-44_260595134347_rgbf000032-resize_1-target.png,125,4.0175,5,7344,123,meters,jsons/VE125_randls_41.json,1240025,1636337,47,Woman
16,835332,DepthScenes,duration_manipulation_targetAtFixation,jsons/VE125_randls_41.json,http://54.235.29.9/FacialAge/BNav_EC2/DepthDuration/v2_depth_duration_MTurk/v2_DepthDuration_HTML.html#156,156,1366,625,1366,768,8-21-2022,9-0-33,17,depth_duration_stimuli/002657_2014-06-13_15-29-54_094959634447_rgbf000150-resize_1/002657_2014-06-13_15-29-54_094959634447_rgbf000150-resize_1-target.png,125,4.919,15,5831,124,meters,jsons/VE125_randls_41.json,1240025,1636337,47,Woman
17,835332,DepthScenes,duration_manipulation_targetAtFixation,jsons/VE125_randls_41.json,http://54.235.29.9/FacialAge/BNav_EC2/DepthDuration/v2_depth_duration_MTurk/v2_DepthDuration_HTML.html#156,156,1366,625,1366,768,8-21-2022,9-0-33,18,depth_duration_stimuli/001016_2014-06-09_16-16-10_260595134347_rgbf000112-resize_5/001016_2014-06-09_16-16-10_260595134347_rgbf000112-resize_5-target.png,125,1.6565,5,5705,123,meters,jsons/VE125_randls_41.json,1240025,1636337,47,Woman
18,835332,DepthScenes,duration_manipulation_targetAtFixation,jsons/VE125_randls_41.json,http://54.235.29.9/FacialAge/BNav_EC2/DepthDuration/v2_depth_duration_MTurk/v2_DepthDuration_HTML.html#156,156,1366,625,1366,768,8-21-2022,9-0-33,19,depth_duration_stimuli/002340_2014-06-28_20-05-46_260595134347_rgbf000113-resize_0/002340_2014-06-28_20-05-46_260595134347_rgbf000113-resize_0-target.png,125,2.4735,20,5219,124,meters,jsons/VE125_randls_41.json,1240025,1636337,47,Woman
19,835332,DepthScenes,duration_manipulation_targetAtFixation,jsons/VE125_randls_41.json,http://54.235.29.9/FacialAge/BNav_EC2/DepthDuration/v2_depth_duration_MTurk/v2_DepthDuration_HTML.html#156,156,1366,625,1366,768,8-21-2022,9-0-33,20,depth_duration_stimuli/002788_2014-06-22_19-36-03_094959634447_rgbf000088-resize_2/002788_2014-06-22_19-36-03_094959634447_rgbf000088-resize_2-target.png,125,1.6465,30,4769,124,meters,jsons/VE125_randls_41.json,1240025,1636337,47,Woman
20,835332,DepthScenes,duration_manipulation_targetAtFixation,jsons/VE125_randls_41.json,http://54.235.29.9/FacialAge/BNav_EC2/DepthDuration/v2_depth_duration_MTurk/v2_DepthDuration_HTML.html#156,156,1366,625,1366,768,8-21-2022,9-0-33,21,depth_duration_stimuli/000749_2014-06-08_21-55-06_260595134347_rgbf000070-resize_2/000749_2014-06-08_21-55-06_260595134347_rgbf000070-resize_2-target.png,125,2.331,0,9106,124,meters,jsons/VE125_randls_41.json,1240025,1636337,47,Woman
21,835332,DepthScenes,duration_manipulation_targetAtFixation,jsons/VE125_randls_41.json,http://54.235.29.9/FacialAge/BNav_EC2/DepthDuration/v2_depth_duration_MTurk/v2_DepthDuration_HTML.html#156,156,1366,625,1366,768,8-21-2022,9-0-33,22,depth_duration_stimuli/000436_2014-06-09_22-25-11_260595134347_rgbf000137-resize_1/000436_2014-06-09_22-25-11_260595134347_rgbf000137-resize_1-target.png,125,4.0705,45,4913,125,meters,jsons/VE125_randls_41.json,1240025,1636337,47,Woman
22,835332,DepthScenes,duration_manipulation_targetAtFixation,jsons/VE125_randls_41.json,http://54.235.29.9/FacialAge/BNav_EC2/DepthDuration/v2_depth_duration_MTurk/v2_DepthDuration_HTML.html#156,156,1366,625,1366,768,8-21-2022,9-0-33,23,depth_duration_stimuli/002444_2014-06-28_20-32-08_260595134347_rgbf000027-resize_0/002444_2014-06-28_20-32-08_260595134347_rgbf000027-resize_0-target.png,125,4.388999999999999,30,11825,124,meters,jsons/VE125_randls_41.json,1240025,1636337,47,Woman
23,835332,DepthScenes,duration_manipulation_targetAtFixation,jsons/VE125_randls_41.json,http://54.235.29.9/FacialAge/BNav_EC2/DepthDuration/v2_depth_duration_MTurk/v2_DepthDuration_HTML.html#156,156,1366,625,1366,768,8-21-2022,9-0-33,24,depth_duration_stimuli/002600_2014-06-24_14-27-04_094959634447_rgbf000074-resize_2/002600_2014-06-24_14-27-04_094959634447_rgbf000074-resize_2-target.png,125,2.7575,20,4529,124,meters,jsons/VE125_randls_41.json,1240025,1636337,47,Woman
24,835332,DepthScenes,duration_manipulation_targetAtFixation,jsons/VE125_randls_41.json,http://54.235.29.9/FacialAge/BNav_EC2/DepthDuration/v2_depth_duration_MTurk/v2_DepthDuration_HTML.html#156,156,1366,625,1366,768,8-21-2022,9-0-33,25,depth_duration_stimuli/003228_2014-05-14_13-42-35_094959634447_rgbf000101-resize_1/003228_2014-05-14_13-42-35_094959634447_rgbf000101-resize_1-target.png,125,1.9680000000000002,15,7706,126,meters,jsons/VE125_randls_41.json,1240025,1636337,47,Woman
25,835332,DepthScenes,duration_manipulation_targetAtFixation,jsons/VE125_randls_41.json,http://54.235.29.9/FacialAge/BNav_EC2/DepthDuration/v2_depth_duration_MTurk/v2_DepthDuration_HTML.html#156,156,1366,625,1366,768,8-21-2022,9-0-33,26,depth_duration_stimuli/001175_2014-06-17_15-45-55_260595134347_rgbf000129-resize_4/001175_2014-06-17_15-45-55_260595134347_rgbf000129-resize_4-target.png,125,4.255,30,3894,127,meters,jsons/VE125_randls_41.json,1240025,1636337,47,Woman
26,835332,DepthScenes,duration_manipulation_targetAtFixation,jsons/VE125_randls_41.json,http://54.235.29.9/FacialAge/BNav_EC2/DepthDuration/v2_depth_duration_MTurk/v2_DepthDuration_HTML.html#156,156,1366,625,1366,768,8-21-2022,9-0-33,27,depth_duration_stimuli/003490_2014-05-21_15-50-11_094959634447_rgbf000101-resize_3/003490_2014-05-21_15-50-11_094959634447_rgbf000101-resize_3-target.png,125,3.6445,20,4488,125,meters,jsons/VE125_randls_41.json,1240025,1636337,47,Woman
27,835332,DepthScenes,duration_manipulation_targetAtFixation,jsons/VE125_randls_41.json,http://54.235.29.9/FacialAge/BNav_EC2/DepthDuration/v2_depth_duration_MTurk/v2_DepthDuration_HTML.html#156,156,1366,625,1366,768,8-21-2022,9-0-33,28,depth_duration_stimuli/001164_2014-06-17_15-35-46_260595134347_rgbf000085-resize_3/001164_2014-06-17_15-35-46_260595134347_rgbf000085-resize_3-target.png,125,2.354,25,4723,125,meters,jsons/VE125_randls_41.json,1240025,1636337,47,Woman
28,835332,DepthScenes,duration_manipulation_targetAtFixation,jsons/VE125_randls_41.json,http://54.235.29.9/FacialAge/BNav_EC2/DepthDuration/v2_depth_duration_MTurk/v2_DepthDuration_HTML.html#156,156,1366,625,1366,768,8-21-2022,9-0-33,29,depth_duration_stimuli/001136_2014-06-17_15-19-41_260595134347_rgbf000076-resize_3/001136_2014-06-17_15-19-41_260595134347_rgbf000076-resize_3-target.png,125,1.8655,25,4610,127,meters,jsons/VE125_randls_41.json,1240025,1636337,47,Woman
29,835332,DepthScenes,duration_manipulation_targetAtFixation,jsons/VE125_randls_41.json,http://54.235.29.9/FacialAge/BNav_EC2/DepthDuration/v2_depth_duration_MTurk/v2_DepthDuration_HTML.html#156,156,1366,625,1366,768,8-21-2022,9-0-33,30,depth_duration_stimuli/000375_2014-06-08_11-17-29_260595134347_rgbf000133-resize_2/000375_2014-06-08_11-17-29_260595134347_rgbf000133-resize-original.jpg,125,4.718,15,4209,124,meters,jsons/VE125_randls_41.json,1240025,1636337,47,Woman
30,835332,DepthScenes,duration_manipulation_targetAtFixation,jsons/VE125_randls_41.json,http://54.235.29.9/FacialAge/BNav_EC2/DepthDuration/v2_depth_duration_MTurk/v2_DepthDuration_HTML.html#156,156,1366,625,1366,768,8-21-2022,9-0-33,31,depth_duration_stimuli/002748_2014-06-22_19-07-22_094959634447_rgbf000078-resize_1/002748_2014-06-22_19-07-22_094959634447_rgbf000078-resize_1-target.png,125,4.6705,45,4181,126,meters,jsons/VE125_randls_41.json,1240025,1636337,47,Woman
31,835332,DepthScenes,duration_manipulation_targetAtFixation,jsons/VE125_randls_41.json,http://54.235.29.9/FacialAge/BNav_EC2/DepthDuration/v2_depth_duration_MTurk/v2_DepthDuration_HTML.html#156,156,1366,625,1366,768,8-21-2022,9-0-33,32,depth_duration_stimuli/002995_2014-06-15_12-31-26_094959634447_rgbf000150-resize_1/002995_2014-06-15_12-31-26_094959634447_rgbf000150-resize_1-target.png,125,3.8360000000000003,10,6260,124,meters,jsons/VE125_randls_41.json,1240025,1636337,47,Woman
32,835332,DepthScenes,duration_manipulation_targetAtFixation,jsons/VE125_randls_41.json,http://54.235.29.9/FacialAge/BNav_EC2/DepthDuration/v2_depth_duration_MTurk/v2_DepthDuration_HTML.html#156,156,1366,625,1366,768,8-21-2022,9-0-33,33,depth_duration_stimuli/000810_2014-06-08_17-20-01_260595134347_rgbf000105-resize_0/000810_2014-06-08_17-20-01_260595134347_rgbf000105-resize_0-target.png,125,1.4865,10,5633,123,meters,jsons/VE125_randls_41.json,1240025,1636337,47,Woman
33,835332,DepthScenes,duration_manipulation_targetAtFixation,jsons/VE125_randls_41.json,http://54.235.29.9/FacialAge/BNav_EC2/DepthDuration/v2_depth_duration_MTurk/v2_DepthDuration_HTML.html#156,156,1366,625,1366,768,8-21-2022,9-0-33,34,depth_duration_stimuli/001214_2014-06-17_16-13-55_260595134347_rgbf000111-resize_0/001214_2014-06-17_16-13-55_260595134347_rgbf000111-resize_0-target.png,125,2.6505,15,4136,124,meters,jsons/VE125_randls_41.json,1240025,1636337,47,Woman
34,835332,DepthScenes,duration_manipulation_targetAtFixation,jsons/VE125_randls_41.json,http://54.235.29.9/FacialAge/BNav_EC2/DepthDuration/v2_depth_duration_MTurk/v2_DepthDuration_HTML.html#156,156,1366,625,1366,768,8-21-2022,9-0-33,35,depth_duration_stimuli/001150_2014-06-17_15-27-34_260595134347_rgbf000108-resize_2/001150_2014-06-17_15-27-34_260595134347_rgbf000108-resize_2-target.png,125,4.0325,20,4970,125,meters,jsons/VE125_randls_41.json,1240025,1636337,47,Woman
35,835332,DepthScenes,duration_manipulation_targetAtFixation,jsons/VE125_randls_41.json,http://54.235.29.9/FacialAge/BNav_EC2/DepthDuration/v2_depth_duration_MTurk/v2_DepthDuration_HTML.html#156,156,1366,625,1366,768,8-21-2022,9-0-33,36,depth_duration_stimuli/000665_2014-06-09_20-42-35_260595134347_rgbf000110-resize_1/000665_2014-06-09_20-42-35_260595134347_rgbf000110-resize_1-target.png,125,3.057,10,3780,125,meters,jsons/VE125_randls_41.json,1240025,1636337,47,Woman
36,835332,DepthScenes,duration_manipulation_targetAtFixation,jsons/VE125_randls_41.json,http://54.235.29.9/FacialAge/BNav_EC2/DepthDuration/v2_depth_duration_MTurk/v2_DepthDuration_HTML.html#156,156,1366,625,1366,768,8-21-2022,9-0-33,37,depth_duration_stimuli/003292_2014-05-14_21-53-49_094959634447_rgbf000100-resize_2/003292_2014-05-14_21-53-49_094959634447_rgbf000100-resize_2-target.png,125,3.4815,30,4484,129,meters,jsons/VE125_randls_41.json,1240025,1636337,47,Woman
37,835332,DepthScenes,duration_manipulation_targetAtFixation,jsons/VE125_randls_41.json,http://54.235.29.9/FacialAge/BNav_EC2/DepthDuration/v2_depth_duration_MTurk/v2_DepthDuration_HTML.html#156,156,1366,625,1366,768,8-21-2022,9-0-33,38,depth_duration_stimuli/002639_2014-06-24_14-51-37_094959634447_rgbf000074-resize_4/002639_2014-06-24_14-51-37_094959634447_rgbf000074-resize_4-target.png,125,4.0375,20,4547,124,meters,jsons/VE125_randls_41.json,1240025,1636337,47,Woman
38,835332,DepthScenes,duration_manipulation_targetAtFixation,jsons/VE125_randls_41.json,http://54.235.29.9/FacialAge/BNav_EC2/DepthDuration/v2_depth_duration_MTurk/v2_DepthDuration_HTML.html#156,156,1366,625,1366,768,8-21-2022,9-0-33,39,depth_duration_stimuli/001555_2014-06-20_17-12-10_260595134347_rgbf000065-resize_4/001555_2014-06-20_17-12-10_260595134347_rgbf000065-resize_4-target.png,125,1.633,30,7290,124,meters,jsons/VE125_randls_41.json,1240025,1636337,47,Woman
39,835332,DepthScenes,duration_manipulation_targetAtFixation,jsons/VE125_randls_41.json,http://54.235.29.9/FacialAge/BNav_EC2/DepthDuration/v2_depth_duration_MTurk/v2_DepthDuration_HTML.html#156,156,1366,625,1366,768,8-21-2022,9-0-33,40,depth_duration_stimuli/000103_2014-05-14_22-01-17_260595134347_rgbf000152-resize_5/000103_2014-05-14_22-01-17_260595134347_rgbf000152-resize_5-target.png,125,1.993,40,4653,124,meters,jsons/VE125_randls_41.json,1240025,1636337,47,Woman
40,835332,DepthScenes,duration_manipulation_targetAtFixation,jsons/VE125_randls_41.json,http://54.235.29.9/FacialAge/BNav_EC2/DepthDuration/v2_depth_duration_MTurk/v2_DepthDuration_HTML.html#156,156,1366,625,1366,768,8-21-2022,9-0-33,41,depth_duration_stimuli/001158_2014-06-17_15-32-16_260595134347_rgbf000138-resize_2/001158_2014-06-17_15-32-16_260595134347_rgbf000138-resize_2-target.png,125,4.5315,50,3799,125,meters,jsons/VE125_randls_41.json,1240025,1636337,47,Woman
41,835332,DepthScenes,duration_manipulation_targetAtFixation,jsons/VE125_randls_41.json,http://54.235.29.9/FacialAge/BNav_EC2/DepthDuration/v2_depth_duration_MTurk/v2_DepthDuration_HTML.html#156,156,1366,625,1366,768,8-21-2022,9-0-33,42,depth_duration_stimuli/000556_2014-06-09_22-42-56_260595134347_rgbf000214-resize_1/000556_2014-06-09_22-42-56_260595134347_rgbf000214-resize_1-target.png,125,4.8415,30,4510,125,meters,jsons/VE125_randls_41.json,1240025,1636337,47,Woman
42,835332,DepthScenes,duration_manipulation_targetAtFixation,jsons/VE125_randls_41.json,http://54.235.29.9/FacialAge/BNav_EC2/DepthDuration/v2_depth_duration_MTurk/v2_DepthDuration_HTML.html#156,156,1366,625,1366,768,8-21-2022,9-0-33,43,depth_duration_stimuli/002905_2014-06-03_18-04-43_094959634447_rgbf000151-resize_2/002905_2014-06-03_18-04-43_094959634447_rgbf000151-resize_2-target.png,125,2.0295,30,4618,125,meters,jsons/VE125_randls_41.json,1240025,1636337,47,Woman
43,835332,DepthScenes,duration_manipulation_targetAtFixation,jsons/VE125_randls_41.json,http://54.235.29.9/FacialAge/BNav_EC2/DepthDuration/v2_depth_duration_MTurk/v2_DepthDuration_HTML.html#156,156,1366,625,1366,768,8-21-2022,9-0-33,44,depth_duration_stimuli/003423_2014-05-21_10-23-26_094959634447_rgbf002665-resize_2/003423_2014-05-21_10-23-26_094959634447_rgbf002665-resize_2-target.png,125,3.2575,45,4082,124,meters,jsons/VE125_randls_41.json,1240025,1636337,47,Woman
44,835332,DepthScenes,duration_manipulation_targetAtFixation,jsons/VE125_randls_41.json,http://54.235.29.9/FacialAge/BNav_EC2/DepthDuration/v2_depth_duration_MTurk/v2_DepthDuration_HTML.html#156,156,1366,625,1366,768,8-21-2022,9-0-33,45,depth_duration_stimuli/000787_2014-06-08_22-33-53_260595134347_rgbf000175-resize_1/000787_2014-06-08_22-33-53_260595134347_rgbf000175-resize-original.jpg,125,4.784,0,3526,127,meters,jsons/VE125_randls_41.json,1240025,1636337,47,Woman
45,835332,DepthScenes,duration_manipulation_targetAtFixation,jsons/VE125_randls_41.json,http://54.235.29.9/FacialAge/BNav_EC2/DepthDuration/v2_depth_duration_MTurk/v2_DepthDuration_HTML.html#156,156,1366,625,1366,768,8-21-2022,9-0-33,46,depth_duration_stimuli/001570_2014-06-20_17-21-09_260595134347_rgbf000135-resize_4/001570_2014-06-20_17-21-09_260595134347_rgbf000135-resize_4-target.png,125,4.467,30,4333,125,meters,jsons/VE125_randls_41.json,1240025,1636337,47,Woman
46,835332,DepthScenes,duration_manipulation_targetAtFixation,jsons/VE125_randls_41.json,http://54.235.29.9/FacialAge/BNav_EC2/DepthDuration/v2_depth_duration_MTurk/v2_DepthDuration_HTML.html#156,156,1366,625,1366,768,8-21-2022,9-0-33,47,depth_duration_stimuli/001392_2014-06-19_16-07-59_260595134347_rgbf000046-resize_1/001392_2014-06-19_16-07-59_260595134347_rgbf000046-resize_1-target.png,125,4.135,30,3608,125,meters,jsons/VE125_randls_41.json,1240025,1636337,47,Woman
47,835332,DepthScenes,duration_manipulation_targetAtFixation,jsons/VE125_randls_41.json,http://54.235.29.9/FacialAge/BNav_EC2/DepthDuration/v2_depth_duration_MTurk/v2_DepthDuration_HTML.html#156,156,1366,625,1366,768,8-21-2022,9-0-33,48,depth_duration_stimuli/001806_2014-06-26_20-50-20_260595134347_rgbf000091-resize_1/001806_2014-06-26_20-50-20_260595134347_rgbf000091-resize_1-target.png,125,2.7305,20,4252,124,meters,jsons/VE125_randls_41.json,1240025,1636337,47,Woman
48,835332,DepthScenes,duration_manipulation_targetAtFixation,jsons/VE125_randls_41.json,http://54.235.29.9/FacialAge/BNav_EC2/DepthDuration/v2_depth_duration_MTurk/v2_DepthDuration_HTML.html#156,156,1366,625,1366,768,8-21-2022,9-0-33,49,depth_duration_stimuli/001617_2014-06-20_11-35-32_260595134347_rgbf000066-resize_1/001617_2014-06-20_11-35-32_260595134347_rgbf000066-resize_1-target.png,125,3.7910000000000004,45,4650,125,meters,jsons/VE125_randls_41.json,1240025,1636337,47,Woman
49,835332,DepthScenes,duration_manipulation_targetAtFixation,jsons/VE125_randls_41.json,http://54.235.29.9/FacialAge/BNav_EC2/DepthDuration/v2_depth_duration_MTurk/v2_DepthDuration_HTML.html#156,156,1366,625,1366,768,8-21-2022,9-0-33,50,depth_duration_stimuli/000470_2014-06-09_19-42-40_260595134347_rgbf000094-resize_1/000470_2014-06-09_19-42-40_260595134347_rgbf000094-resize_1-target.png,125,1.831,20,4259,125,meters,jsons/VE125_randls_41.json,1240025,1636337,47,Woman
50,835332,DepthScenes,duration_manipulation_targetAtFixation,jsons/VE125_randls_41.json,http://54.235.29.9/FacialAge/BNav_EC2/DepthDuration/v2_depth_duration_MTurk/v2_DepthDuration_HTML.html#156,156,1366,625,1366,768,8-21-2022,9-0-33,51,depth_duration_stimuli/000109_2014-05-14_23-41-52_260595134347_rgbf000035-resize_9/000109_2014-05-14_23-41-52_260595134347_rgbf000035-resize_9-target.png,125,1.3545,10,3127,125,meters,jsons/VE125_randls_41.json,1240025,1636337,47,Woman
51,835332,DepthScenes,duration_manipulation_targetAtFixation,jsons/VE125_randls_41.json,http://54.235.29.9/FacialAge/BNav_EC2/DepthDuration/v2_depth_duration_MTurk/v2_DepthDuration_HTML.html#156,156,1366,625,1366,768,8-21-2022,9-0-33,52,depth_duration_stimuli/002663_2014-06-13_15-50-26_094959634447_rgbf000075-resize_1/002663_2014-06-13_15-50-26_094959634447_rgbf000075-resize_1-target.png,125,4.7495,20,5925,124,meters,jsons/VE125_randls_41.json,1240025,1636337,47,Woman
52,835332,DepthScenes,duration_manipulation_targetAtFixation,jsons/VE125_randls_41.json,http://54.235.29.9/FacialAge/BNav_EC2/DepthDuration/v2_depth_duration_MTurk/v2_DepthDuration_HTML.html#156,156,1366,625,1366,768,8-21-2022,9-0-33,53,depth_duration_stimuli/000409_2014-06-04_19-23-33_260595134347_rgbf000067-resize_0/000409_2014-06-04_19-23-33_260595134347_rgbf000067-resize_0-target.png,125,3.7335,0,7627,125,meters,jsons/VE125_randls_41.json,1240025,1636337,47,Woman
53,835332,DepthScenes,duration_manipulation_targetAtFixation,jsons/VE125_randls_41.json,http://54.235.29.9/FacialAge/BNav_EC2/DepthDuration/v2_depth_duration_MTurk/v2_DepthDuration_HTML.html#156,156,1366,625,1366,768,8-21-2022,9-0-33,54,depth_duration_stimuli/002118_2014-06-25_20-32-08_260595134347_rgbf000078-resize_1/002118_2014-06-25_20-32-08_260595134347_rgbf000078-resize_1-target.png,125,2.6460000000000004,20,3381,124,meters,jsons/VE125_randls_41.json,1240025,1636337,47,Woman
54,835332,DepthScenes,duration_manipulation_targetAtFixation,jsons/VE125_randls_41.json,http://54.235.29.9/FacialAge/BNav_EC2/DepthDuration/v2_depth_duration_MTurk/v2_DepthDuration_HTML.html#156,156,1366,625,1366,768,8-21-2022,9-0-33,55,depth_duration_stimuli/001516_2014-06-20_16-25-09_260595134347_rgbf000076-resize_2/001516_2014-06-20_16-25-09_260595134347_rgbf000076-resize_2-target.png,125,1.7445,30,3071,125,meters,jsons/VE125_randls_41.json,1240025,1636337,47,Woman
55,835332,DepthScenes,duration_manipulation_targetAtFixation,jsons/VE125_randls_41.json,http://54.235.29.9/FacialAge/BNav_EC2/DepthDuration/v2_depth_duration_MTurk/v2_DepthDuration_HTML.html#156,156,1366,625,1366,768,8-21-2022,9-0-33,56,depth_duration_stimuli/002039_2014-06-24_20-22-38_260595134347_rgbf000084-resize_1/002039_2014-06-24_20-22-38_260595134347_rgbf000084-resize_1-target.png,125,4.408,20,3235,125,meters,jsons/VE125_randls_41.json,1240025,1636337,47,Woman
56,835332,DepthScenes,duration_manipulation_targetAtFixation,jsons/VE125_randls_41.json,http://54.235.29.9/FacialAge/BNav_EC2/DepthDuration/v2_depth_duration_MTurk/v2_DepthDuration_HTML.html#156,156,1366,625,1366,768,8-21-2022,9-0-33,57,depth_duration_stimuli/002103_2014-06-25_20-00-40_260595134347_rgbf000049-resize_0/002103_2014-06-25_20-00-40_260595134347_rgbf000049-resize_0-target.png,125,4.105,25,2933,125,meters,jsons/VE125_randls_41.json,1240025,1636337,47,Woman
57,835332,DepthScenes,duration_manipulation_targetAtFixation,jsons/VE125_randls_41.json,http://54.235.29.9/FacialAge/BNav_EC2/DepthDuration/v2_depth_duration_MTurk/v2_DepthDuration_HTML.html#156,156,1366,625,1366,768,8-21-2022,9-0-33,58,depth_duration_stimuli/001066_2014-06-08_22-03-20_260595134347_rgbf000066-resize_4/001066_2014-06-08_22-03-20_260595134347_rgbf000066-resize_4-target.png,125,4.2330000000000005,25,2881,125,meters,jsons/VE125_randls_41.json,1240025,1636337,47,Woman
58,835332,DepthScenes,duration_manipulation_targetAtFixation,jsons/VE125_randls_41.json,http://54.235.29.9/FacialAge/BNav_EC2/DepthDuration/v2_depth_duration_MTurk/v2_DepthDuration_HTML.html#156,156,1366,625,1366,768,8-21-2022,9-0-33,59,depth_duration_stimuli/000742_2014-06-08_18-48-09_260595134347_rgbf000164-resize_4/000742_2014-06-08_18-48-09_260595134347_rgbf000164-resize_4-target.png,125,4.632,30,2650,125,meters,jsons/VE125_randls_41.json,1240025,1636337,47,Woman
59,835332,DepthScenes,duration_manipulation_targetAtFixation,jsons/VE125_randls_41.json,http://54.235.29.9/FacialAge/BNav_EC2/DepthDuration/v2_depth_duration_MTurk/v2_DepthDuration_HTML.html#156,156,1366,625,1366,768,8-21-2022,9-0-33,60,depth_duration_stimuli/000493_2014-06-09_21-01-18_260595134347_rgbf000196-resize_3/000493_2014-06-09_21-01-18_260595134347_rgbf000196-resize_3-target.png,125,3.44,30,2769,124,meters,jsons/VE125_randls_41.json,1240025,1636337,47,Woman
60,835332,DepthScenes,duration_manipulation_targetAtFixation,jsons/VE125_randls_41.json,http://54.235.29.9/FacialAge/BNav_EC2/DepthDuration/v2_depth_duration_MTurk/v2_DepthDuration_HTML.html#156,156,1366,625,1366,768,8-21-2022,9-0-33,61,depth_duration_stimuli/000191_2014-05-12_17-07-38_260595134347_rgbf000199-resize_0/000191_2014-05-12_17-07-38_260595134347_rgbf000199-resize_0-target.png,125,3.7995,25,2827,125,meters,jsons/VE125_randls_41.json,1240025,1636337,47,Woman
61,835332,DepthScenes,duration_manipulation_targetAtFixation,jsons/VE125_randls_41.json,http://54.235.29.9/FacialAge/BNav_EC2/DepthDuration/v2_depth_duration_MTurk/v2_DepthDuration_HTML.html#156,156,1366,625,1366,768,8-21-2022,9-0-33,62,depth_duration_stimuli/002279_2014-06-28_18-55-32_260595134347_rgbf000040-resize_5/002279_2014-06-28_18-55-32_260595134347_rgbf000040-resize_5-target.png,125,1.5043333333333,10,4620,125,meters,jsons/VE125_randls_41.json,1240025,1636337,47,Woman
62,835332,DepthScenes,duration_manipulation_targetAtFixation,jsons/VE125_randls_41.json,http://54.235.29.9/FacialAge/BNav_EC2/DepthDuration/v2_depth_duration_MTurk/v2_DepthDuration_HTML.html#156,156,1366,625,1366,768,8-21-2022,9-0-33,63,depth_duration_stimuli/000635_2014-06-08_16-38-42_260595134347_rgbf000106-resize_1/000635_2014-06-08_16-38-42_260595134347_rgbf000106-resize_1-target.png,125,2.074,35,2888,125,meters,jsons/VE125_randls_41.json,1240025,1636337,47,Woman
63,835332,DepthScenes,duration_manipulation_targetAtFixation,jsons/VE125_randls_41.json,http://54.235.29.9/FacialAge/BNav_EC2/DepthDuration/v2_depth_duration_MTurk/v2_DepthDuration_HTML.html#156,156,1366,625,1366,768,8-21-2022,9-0-33,64,depth_duration_stimuli/000009_2014-05-26_14-32-05_260595134347_rgbf000034-resize_3/000009_2014-05-26_14-32-05_260595134347_rgbf000034-resize_3-target.png,125,3.8715,45,2891,121,meters,jsons/VE125_randls_41.json,1240025,1636337,47,Woman
64,835332,DepthScenes,duration_manipulation_targetAtFixation,jsons/VE125_randls_41.json,http://54.235.29.9/FacialAge/BNav_EC2/DepthDuration/v2_depth_duration_MTurk/v2_DepthDuration_HTML.html#156,156,1366,625,1366,768,8-21-2022,9-0-33,65,depth_duration_stimuli/001828_2014-06-26_21-40-03_260595134347_rgbf000024-resize_0/001828_2014-06-26_21-40-03_260595134347_rgbf000024-resize_0-target.png,125,4.8260000000000005,25,3178,125,meters,jsons/VE125_randls_41.json,1240025,1636337,47,Woman
65,835332,DepthScenes,duration_manipulation_targetAtFixation,jsons/VE125_randls_41.json,http://54.235.29.9/FacialAge/BNav_EC2/DepthDuration/v2_depth_duration_MTurk/v2_DepthDuration_HTML.html#156,156,1366,625,1366,768,8-21-2022,9-0-33,66,depth_duration_stimuli/001222_2014-06-17_16-24-06_260595134347_rgbf000073-resize_0/001222_2014-06-17_16-24-06_260595134347_rgbf000073-resize-original.jpg,125,1.4385,0,3657,124,meters,jsons/VE125_randls_41.json,1240025,1636337,47,Woman
66,835332,DepthScenes,duration_manipulation_targetAtFixation,jsons/VE125_randls_41.json,http://54.235.29.9/FacialAge/BNav_EC2/DepthDuration/v2_depth_duration_MTurk/v2_DepthDuration_HTML.html#156,156,1366,625,1366,768,8-21-2022,9-0-33,67,depth_duration_stimuli/000736_2014-06-08_18-24-15_260595134347_rgbf000206-resize_3/000736_2014-06-08_18-24-15_260595134347_rgbf000206-resize_3-target.png,125,3.515,30,2694,124,meters,jsons/VE125_randls_41.json,1240025,1636337,47,Woman
67,835332,DepthScenes,duration_manipulation_targetAtFixation,jsons/VE125_randls_41.json,http://54.235.29.9/FacialAge/BNav_EC2/DepthDuration/v2_depth_duration_MTurk/v2_DepthDuration_HTML.html#156,156,1366,625,1366,768,8-21-2022,9-0-33,68,depth_duration_stimuli/000137_2014-05-20_17-04-49_260595134347_rgbf000120-resize_1/000137_2014-05-20_17-04-49_260595134347_rgbf000120-resize_1-target.png,125,3.786,30,4279,124,meters,jsons/VE125_randls_41.json,1240025,1636337,47,Woman
68,835332,DepthScenes,duration_manipulation_targetAtFixation,jsons/VE125_randls_41.json,http://54.235.29.9/FacialAge/BNav_EC2/DepthDuration/v2_depth_duration_MTurk/v2_DepthDuration_HTML.html#156,156,1366,625,1366,768,8-21-2022,9-0-33,69,depth_duration_stimuli/001810_2014-06-26_20-51-35_260595134347_rgbf000040-resize_3/001810_2014-06-26_20-51-35_260595134347_rgbf000040-resize_3-target.png,125,2.2525,10,2577,123,meters,jsons/VE125_randls_41.json,1240025,1636337,47,Woman
69,835332,DepthScenes,duration_manipulation_targetAtFixation,jsons/VE125_randls_41.json,http://54.235.29.9/FacialAge/BNav_EC2/DepthDuration/v2_depth_duration_MTurk/v2_DepthDuration_HTML.html#156,156,1366,625,1366,768,8-21-2022,9-0-33,70,depth_duration_stimuli/003010_2014-06-15_12-54-35_094959634447_rgbf000112-resize_0/003010_2014-06-15_12-54-35_094959634447_rgbf000112-resize_0-target.png,125,3.1185,25,2689,97,meters,jsons/VE125_randls_41.json,1240025,1636337,47,Woman
70,835332,DepthScenes,duration_manipulation_targetAtFixation,jsons/VE125_randls_41.json,http://54.235.29.9/FacialAge/BNav_EC2/DepthDuration/v2_depth_duration_MTurk/v2_DepthDuration_HTML.html#156,156,1366,625,1366,768,8-21-2022,9-0-33,71,depth_duration_stimuli/002057_2014-06-24_21-00-13_260595134347_rgbf000120-resize_1/002057_2014-06-24_21-00-13_260595134347_rgbf000120-resize_1-target.png,125,2.967,40,6006,124,meters,jsons/VE125_randls_41.json,1240025,1636337,47,Woman
71,835332,DepthScenes,duration_manipulation_targetAtFixation,jsons/VE125_randls_41.json,http://54.235.29.9/FacialAge/BNav_EC2/DepthDuration/v2_depth_duration_MTurk/v2_DepthDuration_HTML.html#156,156,1366,625,1366,768,8-21-2022,9-0-33,72,depth_duration_stimuli/000709_2014-06-08_13-51-55_260595134347_rgbf000068-resize_3/000709_2014-06-08_13-51-55_260595134347_rgbf000068-resize_3-target.png,125,1.8030000000000002,20,2798,121,meters,jsons/VE125_randls_41.json,1240025,1636337,47,Woman
72,835332,DepthScenes,duration_manipulation_targetAtFixation,jsons/VE125_randls_41.json,http://54.235.29.9/FacialAge/BNav_EC2/DepthDuration/v2_depth_duration_MTurk/v2_DepthDuration_HTML.html#156,156,1366,625,1366,768,8-21-2022,9-0-33,73,depth_duration_stimuli/000788_2014-06-08_22-34-36_260595134347_rgbf000131-resize_1/000788_2014-06-08_22-34-36_260595134347_rgbf000131-resize_1-target.png,125,3.359,25,2644,125,meters,jsons/VE125_randls_41.json,1240025,1636337,47,Woman
73,835332,DepthScenes,duration_manipulation_targetAtFixation,jsons/VE125_randls_41.json,http://54.235.29.9/FacialAge/BNav_EC2/DepthDuration/v2_depth_duration_MTurk/v2_DepthDuration_HTML.html#156,156,1366,625,1366,768,8-21-2022,9-0-33,74,depth_duration_stimuli/001235_2014-06-17_16-37-36_260595134347_rgbf000084-resize_4/001235_2014-06-17_16-37-36_260595134347_rgbf000084-resize_4-target.png,125,3.6605,35,5065,124,meters,jsons/VE125_randls_41.json,1240025,1636337,47,Woman
74,835332,DepthScenes,duration_manipulation_targetAtFixation,jsons/VE125_randls_41.json,http://54.235.29.9/FacialAge/BNav_EC2/DepthDuration/v2_depth_duration_MTurk/v2_DepthDuration_HTML.html#156,156,1366,625,1366,768,8-21-2022,9-0-33,75,depth_duration_stimuli/002784_2014-06-22_19-26-30_094959634447_rgbf000083-resize_3/002784_2014-06-22_19-26-30_094959634447_rgbf000083-resize_3-target.png,125,1.8046666666667,20,4946,122,meters,jsons/VE125_randls_41.json,1240025,1636337,47,Woman
75,835332,DepthScenes,duration_manipulation_targetAtFixation,jsons/VE125_randls_41.json,http://54.235.29.9/FacialAge/BNav_EC2/DepthDuration/v2_depth_duration_MTurk/v2_DepthDuration_HTML.html#156,156,1366,625,1366,768,8-21-2022,9-0-33,76,depth_duration_stimuli/001100_2014-06-15_17-46-26_260595134347_rgbf000225-resize_2/001100_2014-06-15_17-46-26_260595134347_rgbf000225-resize_2-target.png,125,2.24,10,7755,125,meters,jsons/VE125_randls_41.json,1240025,1636337,47,Woman
76,835332,DepthScenes,duration_manipulation_targetAtFixation,jsons/VE125_randls_41.json,http://54.235.29.9/FacialAge/BNav_EC2/DepthDuration/v2_depth_duration_MTurk/v2_DepthDuration_HTML.html#156,156,1366,625,1366,768,8-21-2022,9-0-33,77,depth_duration_stimuli/002043_2014-06-24_20-29-38_260595134347_rgbf000039-resize_4/002043_2014-06-24_20-29-38_260595134347_rgbf000039-resize_4-target.png,125,2.8435,20,2922,126,meters,jsons/VE125_randls_41.json,1240025,1636337,47,Woman
77,835332,DepthScenes,duration_manipulation_targetAtFixation,jsons/VE125_randls_41.json,http://54.235.29.9/FacialAge/BNav_EC2/DepthDuration/v2_depth_duration_MTurk/v2_DepthDuration_HTML.html#156,156,1366,625,1366,768,8-21-2022,9-0-33,78,depth_duration_stimuli/003048_2014-06-15_13-49-43_094959634447_rgbf000150-resize_1/003048_2014-06-15_13-49-43_094959634447_rgbf000150-resize_1-target.png,125,4.0035,30,7373,125,meters,jsons/VE125_randls_41.json,1240025,1636337,47,Woman
78,835332,DepthScenes,duration_manipulation_targetAtFixation,jsons/VE125_randls_41.json,http://54.235.29.9/FacialAge/BNav_EC2/DepthDuration/v2_depth_duration_MTurk/v2_DepthDuration_HTML.html#156,156,1366,625,1366,768,8-21-2022,9-0-33,79,depth_duration_stimuli/000906_2014-06-08_13-35-43_260595134347_rgbf000155-resize_1/000906_2014-06-08_13-35-43_260595134347_rgbf000155-resize_1-target.png,125,2.8489999999999998,25,3201,124,meters,jsons/VE125_randls_41.json,1240025,1636337,47,Woman
79,835332,DepthScenes,duration_manipulation_targetAtFixation,jsons/VE125_randls_41.json,http://54.235.29.9/FacialAge/BNav_EC2/DepthDuration/v2_depth_duration_MTurk/v2_DepthDuration_HTML.html#156,156,1366,625,1366,768,8-21-2022,9-0-33,80,depth_duration_stimuli/002805_2014-06-22_19-54-03_094959634447_rgbf000079-resize_1/002805_2014-06-22_19-54-03_094959634447_rgbf000079-resize_1-target.png,125,3.1439999999999997,45,2782,125,meters,jsons/VE125_randls_41.json,1240025,1636337,47,Woman
80,835332,DepthScenes,duration_manipulation_targetAtFixation,jsons/VE125_randls_41.json,http://54.235.29.9/FacialAge/BNav_EC2/DepthDuration/v2_depth_duration_MTurk/v2_DepthDuration_HTML.html#156,156,1366,625,1366,768,8-21-2022,9-0-33,81,depth_duration_stimuli/000773_2014-06-08_22-24-54_260595134347_rgbf000093-resize_1/000773_2014-06-08_22-24-54_260595134347_rgbf000093-resize_1-target.png,125,4.973,20,4397,125,meters,jsons/VE125_randls_41.json,1240025,1636337,47,Woman
81,835332,DepthScenes,duration_manipulation_targetAtFixation,jsons/VE125_randls_41.json,http://54.235.29.9/FacialAge/BNav_EC2/DepthDuration/v2_depth_duration_MTurk/v2_DepthDuration_HTML.html#156,156,1366,625,1366,768,8-21-2022,9-0-33,82,depth_duration_stimuli/002414_2014-06-28_20-24-58_260595134347_rgbf000067-resize_4/002414_2014-06-28_20-24-58_260595134347_rgbf000067-resize_4-target.png,125,4.363,15,31165,124,meters,jsons/VE125_randls_41.json,1240025,1636337,47,Woman
82,835332,DepthScenes,duration_manipulation_targetAtFixation,jsons/VE125_randls_41.json,http://54.235.29.9/FacialAge/BNav_EC2/DepthDuration/v2_depth_duration_MTurk/v2_DepthDuration_HTML.html#156,156,1366,625,1366,768,8-21-2022,9-0-33,83,depth_duration_stimuli/003492_2014-05-21_15-50-55_094959634447_rgbf000828-resize_1/003492_2014-05-21_15-50-55_094959634447_rgbf000828-resize_1-target.png,125,4.06875,35,2849,125,meters,jsons/VE125_randls_41.json,1240025,1636337,47,Woman
83,835332,DepthScenes,duration_manipulation_targetAtFixation,jsons/VE125_randls_41.json,http://54.235.29.9/FacialAge/BNav_EC2/DepthDuration/v2_depth_duration_MTurk/v2_DepthDuration_HTML.html#156,156,1366,625,1366,768,8-21-2022,9-0-33,84,depth_duration_stimuli/002568_2014-06-24_13-59-21_094959634447_rgbf000062-resize_4/002568_2014-06-24_13-59-21_094959634447_rgbf000062-resize_4-target.png,125,3.015,0,3564,126,meters,jsons/VE125_randls_41.json,1240025,1636337,47,Woman
84,835332,DepthScenes,duration_manipulation_targetAtFixation,jsons/VE125_randls_41.json,http://54.235.29.9/FacialAge/BNav_EC2/DepthDuration/v2_depth_duration_MTurk/v2_DepthDuration_HTML.html#156,156,1366,625,1366,768,8-21-2022,9-0-33,85,depth_duration_stimuli/000642_2014-06-08_16-59-25_260595134347_rgbf000098-resize_2/000642_2014-06-08_16-59-25_260595134347_rgbf000098-resize_2-target.png,125,2.8815,30,14011,125,meters,jsons/VE125_randls_41.json,1240025,1636337,47,Woman
85,835332,DepthScenes,duration_manipulation_targetAtFixation,jsons/VE125_randls_41.json,http://54.235.29.9/FacialAge/BNav_EC2/DepthDuration/v2_depth_duration_MTurk/v2_DepthDuration_HTML.html#156,156,1366,625,1366,768,8-21-2022,9-0-33,86,depth_duration_stimuli/002425_2014-06-28_20-27-29_260595134347_rgbf000031-resize_8/002425_2014-06-28_20-27-29_260595134347_rgbf000031-resize_8-target.png,125,3.8960000000000004,20,17476,125,meters,jsons/VE125_randls_41.json,1240025,1636337,47,Woman
86,835332,DepthScenes,duration_manipulation_targetAtFixation,jsons/VE125_randls_41.json,http://54.235.29.9/FacialAge/BNav_EC2/DepthDuration/v2_depth_duration_MTurk/v2_DepthDuration_HTML.html#156,156,1366,625,1366,768,8-21-2022,9-0-33,87,depth_duration_stimuli/001244_2014-06-17_16-47-45_260595134347_rgbf000030-resize_4/001244_2014-06-17_16-47-45_260595134347_rgbf000030-resize_4-target.png,125,2.0425,20,3633,124,meters,jsons/VE125_randls_41.json,1240025,1636337,47,Woman
87,835332,DepthScenes,duration_manipulation_targetAtFixation,jsons/VE125_randls_41.json,http://54.235.29.9/FacialAge/BNav_EC2/DepthDuration/v2_depth_duration_MTurk/v2_DepthDuration_HTML.html#156,156,1366,625,1366,768,8-21-2022,9-0-33,88,depth_duration_stimuli/003495_2014-05-21_16-01-51_094959634447_rgbf000100-resize_3/003495_2014-05-21_16-01-51_094959634447_rgbf000100-resize_3-target.png,125,1.6255,10,4106,123,meters,jsons/VE125_randls_41.json,1240025,1636337,47,Woman
88,835332,DepthScenes,duration_manipulation_targetAtFixation,jsons/VE125_randls_41.json,http://54.235.29.9/FacialAge/BNav_EC2/DepthDuration/v2_depth_duration_MTurk/v2_DepthDuration_HTML.html#156,156,1366,625,1366,768,8-21-2022,9-0-33,89,depth_duration_stimuli/001110_2014-06-15_17-25-28_260595134347_rgbf000150-resize_1/001110_2014-06-15_17-25-28_260595134347_rgbf000150-resize_1-target.png,125,1.7115,15,7492,126,meters,jsons/VE125_randls_41.json,1240025,1636337,47,Woman
89,835332,DepthScenes,duration_manipulation_targetAtFixation,jsons/VE125_randls_41.json,http://54.235.29.9/FacialAge/BNav_EC2/DepthDuration/v2_depth_duration_MTurk/v2_DepthDuration_HTML.html#156,156,1366,625,1366,768,8-21-2022,9-0-33,90,depth_duration_stimuli/000927_2014-06-09_16-32-30_260595134347_rgbf000123-resize_3/000927_2014-06-09_16-32-30_260595134347_rgbf000123-resize_3-target.png,125,2.6785,0,2769,125,meters,jsons/VE125_randls_41.json,1240025,1636337,47,Woman
90,835332,DepthScenes,duration_manipulation_targetAtFixation,jsons/VE125_randls_41.json,http://54.235.29.9/FacialAge/BNav_EC2/DepthDuration/v2_depth_duration_MTurk/v2_DepthDuration_HTML.html#156,156,1366,625,1366,768,8-21-2022,9-0-33,91,depth_duration_stimuli/000414_2014-06-04_19-49-13_260595134347_rgbf000044-resize_0/000414_2014-06-04_19-49-13_260595134347_rgbf000044-resize_0-target.png,125,4.329,40,3232,122,meters,jsons/VE125_randls_41.json,1240025,1636337,47,Woman
91,835332,DepthScenes,duration_manipulation_targetAtFixation,jsons/VE125_randls_41.json,http://54.235.29.9/FacialAge/BNav_EC2/DepthDuration/v2_depth_duration_MTurk/v2_DepthDuration_HTML.html#156,156,1366,625,1366,768,8-21-2022,9-0-33,92,depth_duration_stimuli/003129_2014-05-12_10-48-10_094959634447_rgbf000100-resize_0/003129_2014-05-12_10-48-10_094959634447_rgbf000100-resize_0-target.png,125,4.9305,40,3411,124,meters,jsons/VE125_randls_41.json,1240025,1636337,47,Woman
92,835332,DepthScenes,duration_manipulation_targetAtFixation,jsons/VE125_randls_41.json,http://54.235.29.9/FacialAge/BNav_EC2/DepthDuration/v2_depth_duration_MTurk/v2_DepthDuration_HTML.html#156,156,1366,625,1366,768,8-21-2022,9-0-33,93,depth_duration_stimuli/000522_2014-06-08_13-35-06_260595134347_rgbf000244-resize_1/000522_2014-06-08_13-35-06_260595134347_rgbf000244-resize_1-target.png,125,2.3715,20,2827,124,meters,jsons/VE125_randls_41.json,1240025,1636337,47,Woman
93,835332,DepthScenes,duration_manipulation_targetAtFixation,jsons/VE125_randls_41.json,http://54.235.29.9/FacialAge/BNav_EC2/DepthDuration/v2_depth_duration_MTurk/v2_DepthDuration_HTML.html#156,156,1366,625,1366,768,8-21-2022,9-0-33,94,depth_duration_stimuli/002949_2014-06-26_15-57-42_094959634447_rgbf000079-resize_1/002949_2014-06-26_15-57-42_094959634447_rgbf000079-resize_1-target.png,125,1.8915,10,3156,124,meters,jsons/VE125_randls_41.json,1240025,1636337,47,Woman
94,835332,DepthScenes,duration_manipulation_targetAtFixation,jsons/VE125_randls_41.json,http://54.235.29.9/FacialAge/BNav_EC2/DepthDuration/v2_depth_duration_MTurk/v2_DepthDuration_HTML.html#156,156,1366,625,1366,768,8-21-2022,9-0-33,95,depth_duration_stimuli/000917_2014-06-09_22-45-29_260595134347_rgbf000149-resize_3/000917_2014-06-09_22-45-29_260595134347_rgbf000149-resize_3-target.png,125,4.1865,25,2963,124,meters,jsons/VE125_randls_41.json,1240025,1636337,47,Woman
95,835332,DepthScenes,duration_manipulation_targetAtFixation,jsons/VE125_randls_41.json,http://54.235.29.9/FacialAge/BNav_EC2/DepthDuration/v2_depth_duration_MTurk/v2_DepthDuration_HTML.html#156,156,1366,625,1366,768,8-21-2022,9-0-33,96,depth_duration_stimuli/002323_2014-06-28_20-01-54_260595134347_rgbf000051-resize_4/002323_2014-06-28_20-01-54_260595134347_rgbf000051-resize_4-target.png,125,3.7310000000000003,20,4290,124,meters,jsons/VE125_randls_41.json,1240025,1636337,47,Woman
96,835332,DepthScenes,duration_manipulation_targetAtFixation,jsons/VE125_randls_41.json,http://54.235.29.9/FacialAge/BNav_EC2/DepthDuration/v2_depth_duration_MTurk/v2_DepthDuration_HTML.html#156,156,1366,625,1366,768,8-21-2022,9-0-33,97,depth_duration_stimuli/001011_2014-06-08_23-18-54_260595134347_rgbf000044-resize_4/001011_2014-06-08_23-18-54_260595134347_rgbf000044-resize_4-target.png,125,2.4730000000000003,10,56421,124,meters,jsons/VE125_randls_41.json,1240025,1636337,47,Woman
97,835332,DepthScenes,duration_manipulation_targetAtFixation,jsons/VE125_randls_41.json,http://54.235.29.9/FacialAge/BNav_EC2/DepthDuration/v2_depth_duration_MTurk/v2_DepthDuration_HTML.html#156,156,1366,625,1366,768,8-21-2022,9-0-33,98,depth_duration_stimuli/002875_2014-06-01_15-19-00_094959634447_rgbf000151-resize_1/002875_2014-06-01_15-19-00_094959634447_rgbf000151-resize_1-target.png,125,1.9675,10,42210,124,meters,jsons/VE125_randls_41.json,1240025,1636337,47,Woman
98,835332,DepthScenes,duration_manipulation_targetAtFixation,jsons/VE125_randls_41.json,http://54.235.29.9/FacialAge/BNav_EC2/DepthDuration/v2_depth_duration_MTurk/v2_DepthDuration_HTML.html#156,156,1366,625,1366,768,8-21-2022,9-0-33,99,depth_duration_stimuli/001540_2014-06-20_17-01-05_260595134347_rgbf000086-resize_2/001540_2014-06-20_17-01-05_260595134347_rgbf000086-resize-original.jpg,125,1.459,0,6259,124,meters,jsons/VE125_randls_41.json,1240025,1636337,47,Woman
99,835332,DepthScenes,duration_manipulation_targetAtFixation,jsons/VE125_randls_41.json,http://54.235.29.9/FacialAge/BNav_EC2/DepthDuration/v2_depth_duration_MTurk/v2_DepthDuration_HTML.html#156,156,1366,625,1366,768,8-21-2022,9-0-33,100,depth_duration_stimuli/002630_2014-06-24_14-47-50_094959634447_rgbf000055-resize_1/002630_2014-06-24_14-47-50_094959634447_rgbf000055-resize_1-target.png,125,3.0095,25,8081,124,meters,jsons/VE125_randls_41.json,1240025,1636337,47,Woman
100,835332,DepthScenes,duration_manipulation_targetAtFixation,jsons/VE125_randls_41.json,http://54.235.29.9/FacialAge/BNav_EC2/DepthDuration/v2_depth_duration_MTurk/v2_DepthDuration_HTML.html#156,156,1366,625,1366,768,8-21-2022,9-0-33,101,depth_duration_stimuli/002758_2014-06-22_19-11-20_094959634447_rgbf000128-resize_1/002758_2014-06-22_19-11-20_094959634447_rgbf000128-resize_1-target.png,125,2.555,0,3354,125,meters,jsons/VE125_randls_41.json,1240025,1636337,47,Woman
101,835332,DepthScenes,duration_manipulation_targetAtFixation,jsons/VE125_randls_41.json,http://54.235.29.9/FacialAge/BNav_EC2/DepthDuration/v2_depth_duration_MTurk/v2_DepthDuration_HTML.html#156,156,1366,625,1366,768,8-21-2022,9-0-33,102,depth_duration_stimuli/002763_2014-06-22_19-13-10_094959634447_rgbf000075-resize_4/002763_2014-06-22_19-13-10_094959634447_rgbf000075-resize_4-target.png,125,1.68375,20,49580,124,meters,jsons/VE125_randls_41.json,1240025,1636337,47,Woman
102,835332,DepthScenes,duration_manipulation_targetAtFixation,jsons/VE125_randls_41.json,http://54.235.29.9/FacialAge/BNav_EC2/DepthDuration/v2_depth_duration_MTurk/v2_DepthDuration_HTML.html#156,156,1366,625,1366,768,8-21-2022,9-0-33,103,depth_duration_stimuli/002209_2014-06-28_18-36-10_260595134347_rgbf000051-resize_1/002209_2014-06-28_18-36-10_260595134347_rgbf000051-resize_1-target.png,125,2.057,25,44628,124,meters,jsons/VE125_randls_41.json,1240025,1636337,47,Woman
103,835332,DepthScenes,duration_manipulation_targetAtFixation,jsons/VE125_randls_41.json,http://54.235.29.9/FacialAge/BNav_EC2/DepthDuration/v2_depth_duration_MTurk/v2_DepthDuration_HTML.html#156,156,1366,625,1366,768,8-21-2022,9-0-33,104,depth_duration_stimuli/002570_2014-06-24_13-59-54_094959634447_rgbf000059-resize_0/002570_2014-06-24_13-59-54_094959634447_rgbf000059-resize_0-target.png,125,4.037,20,3435,124,meters,jsons/VE125_randls_41.json,1240025,1636337,47,Woman
104,835332,DepthScenes,duration_manipulation_targetAtFixation,jsons/VE125_randls_41.json,http://54.235.29.9/FacialAge/BNav_EC2/DepthDuration/v2_depth_duration_MTurk/v2_DepthDuration_HTML.html#156,156,1366,625,1366,768,8-21-2022,9-0-33,105,depth_duration_stimuli/002467_2014-06-28_20-38-07_260595134347_rgbf000026-resize_2/002467_2014-06-28_20-38-07_260595134347_rgbf000026-resize_2-target.png,125,4.742,20,6594,124,meters,jsons/VE125_randls_41.json,1240025,1636337,47,Woman
105,835332,DepthScenes,duration_manipulation_targetAtFixation,jsons/VE125_randls_41.json,http://54.235.29.9/FacialAge/BNav_EC2/DepthDuration/v2_depth_duration_MTurk/v2_DepthDuration_HTML.html#156,156,1366,625,1366,768,8-21-2022,9-0-33,106,depth_duration_stimuli/001808_2014-06-26_20-50-58_260595134347_rgbf000029-resize_1/001808_2014-06-26_20-50-58_260595134347_rgbf000029-resize_1-target.png,125,4.249,0,3907,125,meters,jsons/VE125_randls_41.json,1240025,1636337,47,Woman
106,835332,DepthScenes,duration_manipulation_targetAtFixation,jsons/VE125_randls_41.json,http://54.235.29.9/FacialAge/BNav_EC2/DepthDuration/v2_depth_duration_MTurk/v2_DepthDuration_HTML.html#156,156,1366,625,1366,768,8-21-2022,9-0-33,107,depth_duration_stimuli/001815_2014-06-26_20-52-55_260595134347_rgbf000020-resize_0/001815_2014-06-26_20-52-55_260595134347_rgbf000020-resize_0-target.png,125,3.3865,20,13363,124,meters,jsons/VE125_randls_41.json,1240025,1636337,47,Woman
107,835332,DepthScenes,duration_manipulation_targetAtFixation,jsons/VE125_randls_41.json,http://54.235.29.9/FacialAge/BNav_EC2/DepthDuration/v2_depth_duration_MTurk/v2_DepthDuration_HTML.html#156,156,1366,625,1366,768,8-21-2022,9-0-33,108,depth_duration_stimuli/002964_2014-06-08_17-46-11_094959634447_rgbf000091-resize_4/002964_2014-06-08_17-46-11_094959634447_rgbf000091-resize_4-target.png,125,1.6909999999999998,15,3784,125,meters,jsons/VE125_randls_41.json,1240025,1636337,47,Woman
108,835332,DepthScenes,duration_manipulation_targetAtFixation,jsons/VE125_randls_41.json,http://54.235.29.9/FacialAge/BNav_EC2/DepthDuration/v2_depth_duration_MTurk/v2_DepthDuration_HTML.html#156,156,1366,625,1366,768,8-21-2022,9-0-33,109,depth_duration_stimuli/002136_2014-06-25_21-18-03_260595134347_rgbf000109-resize_3/002136_2014-06-25_21-18-03_260595134347_rgbf000109-resize_3-target.png,125,1.9569999999999999,15,12812,123,meters,jsons/VE125_randls_41.json,1240025,1636337,47,Woman
109,835332,DepthScenes,duration_manipulation_targetAtFixation,jsons/VE125_randls_41.json,http://54.235.29.9/FacialAge/BNav_EC2/DepthDuration/v2_depth_duration_MTurk/v2_DepthDuration_HTML.html#156,156,1366,625,1366,768,8-21-2022,9-0-33,110,depth_duration_stimuli/003534_2014-05-22_15-06-10_094959634447_rgbf000102-resize_4/003534_2014-05-22_15-06-10_094959634447_rgbf000102-resize_4-target.png,125,1.426,10,4745,125,meters,jsons/VE125_randls_41.json,1240025,1636337,47,Woman
110,835332,DepthScenes,duration_manipulation_targetAtFixation,jsons/VE125_randls_41.json,http://54.235.29.9/FacialAge/BNav_EC2/DepthDuration/v2_depth_duration_MTurk/v2_DepthDuration_HTML.html#156,156,1366,625,1366,768,8-21-2022,9-0-33,111,depth_duration_stimuli/002637_2014-06-24_14-51-13_094959634447_rgbf000066-resize_4/002637_2014-06-24_14-51-13_094959634447_rgbf000066-resize_4-target.png,125,1.9955,30,3084,124,meters,jsons/VE125_randls_41.json,1240025,1636337,47,Woman
111,835332,DepthScenes,duration_manipulation_targetAtFixation,jsons/VE125_randls_41.json,http://54.235.29.9/FacialAge/BNav_EC2/DepthDuration/v2_depth_duration_MTurk/v2_DepthDuration_HTML.html#156,156,1366,625,1366,768,8-21-2022,9-0-33,112,depth_duration_stimuli/000739_2014-06-08_18-45-58_260595134347_rgbf000068-resize_1/000739_2014-06-08_18-45-58_260595134347_rgbf000068-resize_1-target.png,125,3.534,30,3033,124,meters,jsons/VE125_randls_41.json,1240025,1636337,47,Woman
112,835332,DepthScenes,duration_manipulation_targetAtFixation,jsons/VE125_randls_41.json,http://54.235.29.9/FacialAge/BNav_EC2/DepthDuration/v2_depth_duration_MTurk/v2_DepthDuration_HTML.html#156,156,1366,625,1366,768,8-21-2022,9-0-33,113,depth_duration_stimuli/000734_2014-06-08_17-39-11_260595134347_rgbf000128-resize_2/000734_2014-06-08_17-39-11_260595134347_rgbf000128-resize_2-target.png,125,4.098,20,2785,124,meters,jsons/VE125_randls_41.json,1240025,1636337,47,Woman
113,835332,DepthScenes,duration_manipulation_targetAtFixation,jsons/VE125_randls_41.json,http://54.235.29.9/FacialAge/BNav_EC2/DepthDuration/v2_depth_duration_MTurk/v2_DepthDuration_HTML.html#156,156,1366,625,1366,768,8-21-2022,9-0-33,114,depth_duration_stimuli/001133_2014-06-17_14-49-16_260595134347_rgbf000100-resize_0/001133_2014-06-17_14-49-16_260595134347_rgbf000100-resize_0-target.png,125,4.2115,25,11940,126,meters,jsons/VE125_randls_41.json,1240025,1636337,47,Woman
114,835332,DepthScenes,duration_manipulation_targetAtFixation,jsons/VE125_randls_41.json,http://54.235.29.9/FacialAge/BNav_EC2/DepthDuration/v2_depth_duration_MTurk/v2_DepthDuration_HTML.html#156,156,1366,625,1366,768,8-21-2022,9-0-33,115,depth_duration_stimuli/001132_2014-06-17_14-48-54_260595134347_rgbf000100-resize_2/001132_2014-06-17_14-48-54_260595134347_rgbf000100-resize_2-target.png,125,3.753,0,3747,124,meters,jsons/VE125_randls_41.json,1240025,1636337,47,Woman
115,835332,DepthScenes,duration_manipulation_targetAtFixation,jsons/VE125_randls_41.json,http://54.235.29.9/FacialAge/BNav_EC2/DepthDuration/v2_depth_duration_MTurk/v2_DepthDuration_HTML.html#156,156,1366,625,1366,768,8-21-2022,9-0-33,116,depth_duration_stimuli/001170_2014-06-17_15-43-44_260595134347_rgbf000096-resize_6/001170_2014-06-17_15-43-44_260595134347_rgbf000096-resize-original.jpg,125,1.1909999999999998,0,10539,124,meters,jsons/VE125_randls_41.json,1240025,1636337,47,Woman
116,835332,DepthScenes,duration_manipulation_targetAtFixation,jsons/VE125_randls_41.json,http://54.235.29.9/FacialAge/BNav_EC2/DepthDuration/v2_depth_duration_MTurk/v2_DepthDuration_HTML.html#156,156,1366,625,1366,768,8-21-2022,9-0-33,117,depth_duration_stimuli/001449_2014-06-19_17-01-27_260595134347_rgbf000116-resize_2/001449_2014-06-19_17-01-27_260595134347_rgbf000116-resize_2-target.png,125,3.452,25,3921,124,meters,jsons/VE125_randls_41.json,1240025,1636337,47,Woman
117,835332,DepthScenes,duration_manipulation_targetAtFixation,jsons/VE125_randls_41.json,http://54.235.29.9/FacialAge/BNav_EC2/DepthDuration/v2_depth_duration_MTurk/v2_DepthDuration_HTML.html#156,156,1366,625,1366,768,8-21-2022,9-0-33,118,depth_duration_stimuli/001450_2014-06-19_17-02-03_260595134347_rgbf000203-resize_4/001450_2014-06-19_17-02-03_260595134347_rgbf000203-resize_4-target.png,125,4.0106666666667,35,4386,124,meters,jsons/VE125_randls_41.json,1240025,1636337,47,Woman
118,835332,DepthScenes,duration_manipulation_targetAtFixation,jsons/VE125_randls_41.json,http://54.235.29.9/FacialAge/BNav_EC2/DepthDuration/v2_depth_duration_MTurk/v2_DepthDuration_HTML.html#156,156,1366,625,1366,768,8-21-2022,9-0-33,119,depth_duration_stimuli/000758_2014-06-08_22-05-08_260595134347_rgbf000085-resize_0/000758_2014-06-08_22-05-08_260595134347_rgbf000085-resize_0-target.png,125,3.3810000000000002,35,42347,123,meters,jsons/VE125_randls_41.json,1240025,1636337,47,Woman
119,835332,DepthScenes,duration_manipulation_targetAtFixation,jsons/VE125_randls_41.json,http://54.235.29.9/FacialAge/BNav_EC2/DepthDuration/v2_depth_duration_MTurk/v2_DepthDuration_HTML.html#156,156,1366,625,1366,768,8-21-2022,9-0-33,120,depth_duration_stimuli/000854_2014-06-09_19-43-13_260595134347_rgbf000066-resize_0/000854_2014-06-09_19-43-13_260595134347_rgbf000066-resize_0-target.png,125,3.068,30,2665,124,meters,jsons/VE125_randls_41.json,1240025,1636337,47,Woman
120,835332,DepthScenes,duration_manipulation_targetAtFixation,jsons/VE125_randls_41.json,http://54.235.29.9/FacialAge/BNav_EC2/DepthDuration/v2_depth_duration_MTurk/v2_DepthDuration_HTML.html#156,156,1366,625,1366,768,8-21-2022,9-0-33,121,depth_duration_stimuli/001199_2014-06-17_16-03-48_260595134347_rgbf000077-resize_0/001199_2014-06-17_16-03-48_260595134347_rgbf000077-resize_0-target.png,125,3.4375,45,3723,124,meters,jsons/VE125_randls_41.json,1240025,1636337,47,Woman
121,835332,DepthScenes,duration_manipulation_targetAtFixation,jsons/VE125_randls_41.json,http://54.235.29.9/FacialAge/BNav_EC2/DepthDuration/v2_depth_duration_MTurk/v2_DepthDuration_HTML.html#156,156,1366,625,1366,768,8-21-2022,9-0-33,122,depth_duration_stimuli/000502_2014-06-08_23-02-32_260595134347_rgbf000063-resize_4/000502_2014-06-08_23-02-32_260595134347_rgbf000063-resize_4-target.png,125,2.431,25,3657,126,meters,jsons/VE125_randls_41.json,1240025,1636337,47,Woman
122,835332,DepthScenes,duration_manipulation_targetAtFixation,jsons/VE125_randls_41.json,http://54.235.29.9/FacialAge/BNav_EC2/DepthDuration/v2_depth_duration_MTurk/v2_DepthDuration_HTML.html#156,156,1366,625,1366,768,8-21-2022,9-0-33,123,depth_duration_stimuli/000486_2014-06-09_20-47-20_260595134347_rgbf000143-resize_2/000486_2014-06-09_20-47-20_260595134347_rgbf000143-resize_2-target.png,125,4.8325,20,4471,124,meters,jsons/VE125_randls_41.json,1240025,1636337,47,Woman
123,835332,DepthScenes,duration_manipulation_targetAtFixation,jsons/VE125_randls_41.json,http://54.235.29.9/FacialAge/BNav_EC2/DepthDuration/v2_depth_duration_MTurk/v2_DepthDuration_HTML.html#156,156,1366,625,1366,768,8-21-2022,9-0-33,124,depth_duration_stimuli/003083_2014-06-15_15-21-03_094959634447_rgbf000063-resize_1/003083_2014-06-15_15-21-03_094959634447_rgbf000063-resize_1-target.png,125,4.1405,30,2683,125,meters,jsons/VE125_randls_41.json,1240025,1636337,47,Woman
124,835332,DepthScenes,duration_manipulation_targetAtFixation,jsons/VE125_randls_41.json,http://54.235.29.9/FacialAge/BNav_EC2/DepthDuration/v2_depth_duration_MTurk/v2_DepthDuration_HTML.html#156,156,1366,625,1366,768,8-21-2022,9-0-33,125,depth_duration_stimuli/002272_2014-06-28_18-53-56_260595134347_rgbf000067-resize_2/002272_2014-06-28_18-53-56_260595134347_rgbf000067-resize_2-target.png,125,1.138,15,2643,125,meters,jsons/VE125_randls_41.json,1240025,1636337,47,Woman
125,835332,DepthScenes,duration_manipulation_targetAtFixation,jsons/VE125_randls_41.json,http://54.235.29.9/FacialAge/BNav_EC2/DepthDuration/v2_depth_duration_MTurk/v2_DepthDuration_HTML.html#156,156,1366,625,1366,768,8-21-2022,9-0-33,126,depth_duration_stimuli/001571_2014-06-20_17-21-32_260595134347_rgbf000089-resize_1/001571_2014-06-20_17-21-32_260595134347_rgbf000089-resize_1-target.png,125,1.86,25,2529,123,meters,jsons/VE125_randls_41.json,1240025,1636337,47,Woman
126,835332,DepthScenes,duration_manipulation_targetAtFixation,jsons/VE125_randls_41.json,http://54.235.29.9/FacialAge/BNav_EC2/DepthDuration/v2_depth_duration_MTurk/v2_DepthDuration_HTML.html#156,156,1366,625,1366,768,8-21-2022,9-0-33,127,depth_duration_stimuli/000506_2014-06-08_23-21-00_260595134347_rgbf000070-resize_7/000506_2014-06-08_23-21-00_260595134347_rgbf000070-resize_7-target.png,125,4.0585,40,2878,120,meters,jsons/VE125_randls_41.json,1240025,1636337,47,Woman
127,835332,DepthScenes,duration_manipulation_targetAtFixation,jsons/VE125_randls_41.json,http://54.235.29.9/FacialAge/BNav_EC2/DepthDuration/v2_depth_duration_MTurk/v2_DepthDuration_HTML.html#156,156,1366,625,1366,768,8-21-2022,9-0-33,128,depth_duration_stimuli/003079_2014-06-15_15-18-20_094959634447_rgbf000152-resize_8/003079_2014-06-15_15-18-20_094959634447_rgbf000152-resize_8-target.png,125,2.8775,35,3461,125,meters,jsons/VE125_randls_41.json,1240025,1636337,47,Woman
128,835332,DepthScenes,duration_manipulation_targetAtFixation,jsons/VE125_randls_41.json,http://54.235.29.9/FacialAge/BNav_EC2/DepthDuration/v2_depth_duration_MTurk/v2_DepthDuration_HTML.html#156,156,1366,625,1366,768,8-21-2022,9-0-33,129,depth_duration_stimuli/003070_2014-06-15_14-58-27_094959634447_rgbf000150-resize_3/003070_2014-06-15_14-58-27_094959634447_rgbf000150-resize_3-target.png,125,2.9415,45,2667,125,meters,jsons/VE125_randls_41.json,1240025,1636337,47,Woman
129,835332,DepthScenes,duration_manipulation_targetAtFixation,jsons/VE125_randls_41.json,http://54.235.29.9/FacialAge/BNav_EC2/DepthDuration/v2_depth_duration_MTurk/v2_DepthDuration_HTML.html#156,156,1366,625,1366,768,8-21-2022,9-0-33,130,depth_duration_stimuli/000943_2014-06-09_19-31-07_260595134347_rgbf000128-resize_1/000943_2014-06-09_19-31-07_260595134347_rgbf000128-resize_1-target.png,125,1.9765,25,2629,124,meters,jsons/VE125_randls_41.json,1240025,1636337,47,Woman
130,835332,DepthScenes,duration_manipulation_targetAtFixation,jsons/VE125_randls_41.json,http://54.235.29.9/FacialAge/BNav_EC2/DepthDuration/v2_depth_duration_MTurk/v2_DepthDuration_HTML.html#156,156,1366,625,1366,768,8-21-2022,9-0-33,131,depth_duration_stimuli/003621_2014-05-23_18-06-08_094959634447_rgbf000101-resize_1/003621_2014-05-23_18-06-08_094959634447_rgbf000101-resize_1-target.png,125,3.9835,35,6200,124,meters,jsons/VE125_randls_41.json,1240025,1636337,47,Woman
131,835332,DepthScenes,duration_manipulation_targetAtFixation,jsons/VE125_randls_41.json,http://54.235.29.9/FacialAge/BNav_EC2/DepthDuration/v2_depth_duration_MTurk/v2_DepthDuration_HTML.html#156,156,1366,625,1366,768,8-21-2022,9-0-33,132,depth_duration_stimuli/001584_2014-06-20_11-07-43_260595134347_rgbf000002-resize_1/001584_2014-06-20_11-07-43_260595134347_rgbf000002-resize_1-target.png,125,3.53,45,2811,124,meters,jsons/VE125_randls_41.json,1240025,1636337,47,Woman
132,835332,DepthScenes,duration_manipulation_targetAtFixation,jsons/VE125_randls_41.json,http://54.235.29.9/FacialAge/BNav_EC2/DepthDuration/v2_depth_duration_MTurk/v2_DepthDuration_HTML.html#156,156,1366,625,1366,768,8-21-2022,9-0-33,133,depth_duration_stimuli/000692_2014-06-08_13-09-42_260595134347_rgbf000199-resize_2/000692_2014-06-08_13-09-42_260595134347_rgbf000199-resize_2-target.png,125,3.661,50,3569,125,meters,jsons/VE125_randls_41.json,1240025,1636337,47,Woman
133,835332,DepthScenes,duration_manipulation_targetAtFixation,jsons/VE125_randls_41.json,http://54.235.29.9/FacialAge/BNav_EC2/DepthDuration/v2_depth_duration_MTurk/v2_DepthDuration_HTML.html#156,156,1366,625,1366,768,8-21-2022,9-0-33,134,depth_duration_stimuli/001094_2014-06-15_17-36-00_260595134347_rgbf000205-resize_0/001094_2014-06-15_17-36-00_260595134347_rgbf000205-resize_0-target.png,125,4.2175,0,3000,126,meters,jsons/VE125_randls_41.json,1240025,1636337,47,Woman
134,835332,DepthScenes,duration_manipulation_targetAtFixation,jsons/VE125_randls_41.json,http://54.235.29.9/FacialAge/BNav_EC2/DepthDuration/v2_depth_duration_MTurk/v2_DepthDuration_HTML.html#156,156,1366,625,1366,768,8-21-2022,9-0-33,135,depth_duration_stimuli/002072_2014-06-24_21-48-06_260595134347_rgbf000115-resize_0/002072_2014-06-24_21-48-06_260595134347_rgbf000115-resize-original.jpg,125,4.702,0,5797,123,meters,jsons/VE125_randls_41.json,1240025,1636337,47,Woman
135,835332,DepthScenes,duration_manipulation_targetAtFixation,jsons/VE125_randls_41.json,http://54.235.29.9/FacialAge/BNav_EC2/DepthDuration/v2_depth_duration_MTurk/v2_DepthDuration_HTML.html#156,156,1366,625,1366,768,8-21-2022,9-0-33,136,depth_duration_stimuli/002153_2014-06-25_21-27-18_260595134347_rgbf000038-resize_5/002153_2014-06-25_21-27-18_260595134347_rgbf000038-resize_5-target.png,125,2.505,15,3736,125,meters,jsons/VE125_randls_41.json,1240025,1636337,47,Woman
136,835332,DepthScenes,duration_manipulation_targetAtFixation,jsons/VE125_randls_41.json,http://54.235.29.9/FacialAge/BNav_EC2/DepthDuration/v2_depth_duration_MTurk/v2_DepthDuration_HTML.html#156,156,1366,625,1366,768,8-21-2022,9-0-33,137,depth_duration_stimuli/002660_2014-06-13_15-44-18_094959634447_rgbf001878-resize_2/002660_2014-06-13_15-44-18_094959634447_rgbf001878-resize_2-target.png,125,3.576,30,7899,125,meters,jsons/VE125_randls_41.json,1240025,1636337,47,Woman
137,835332,DepthScenes,duration_manipulation_targetAtFixation,jsons/VE125_randls_41.json,http://54.235.29.9/FacialAge/BNav_EC2/DepthDuration/v2_depth_duration_MTurk/v2_DepthDuration_HTML.html#156,156,1366,625,1366,768,8-21-2022,9-0-33,138,depth_duration_stimuli/000368_2014-06-09_15-53-01_260595134347_rgbf000155-resize_2/000368_2014-06-09_15-53-01_260595134347_rgbf000155-resize_2-target.png,125,2.4859999999999998,25,4107,124,meters,jsons/VE125_randls_41.json,1240025,1636337,47,Woman
138,835332,DepthScenes,duration_manipulation_targetAtFixation,jsons/VE125_randls_41.json,http://54.235.29.9/FacialAge/BNav_EC2/DepthDuration/v2_depth_duration_MTurk/v2_DepthDuration_HTML.html#156,156,1366,625,1366,768,8-21-2022,9-0-33,139,depth_duration_stimuli/002678_2014-06-13_16-15-32_094959634447_rgbf000151-resize_6/002678_2014-06-13_16-15-32_094959634447_rgbf000151-resize_6-target.png,125,2.1830000000000003,45,2623,124,meters,jsons/VE125_randls_41.json,1240025,1636337,47,Woman
139,835332,DepthScenes,duration_manipulation_targetAtFixation,jsons/VE125_randls_41.json,http://54.235.29.9/FacialAge/BNav_EC2/DepthDuration/v2_depth_duration_MTurk/v2_DepthDuration_HTML.html#156,156,1366,625,1366,768,8-21-2022,9-0-33,140,depth_duration_stimuli/002988_2014-06-15_12-24-20_094959634447_rgbf000150-resize_1/002988_2014-06-15_12-24-20_094959634447_rgbf000150-resize_1-target.png,125,4.7669999999999995,55,4779,124,meters,jsons/VE125_randls_41.json,1240025,1636337,47,Woman
140,835332,DepthScenes,duration_manipulation_targetAtFixation,jsons/VE125_randls_41.json,http://54.235.29.9/FacialAge/BNav_EC2/DepthDuration/v2_depth_duration_MTurk/v2_DepthDuration_HTML.html#156,156,1366,625,1366,768,8-21-2022,9-0-33,141,depth_duration_stimuli/001052_2014-06-08_18-24-54_260595134347_rgbf000130-resize_1/001052_2014-06-08_18-24-54_260595134347_rgbf000130-resize_1-target.png,125,4.1045,0,3913,122,meters,jsons/VE125_randls_41.json,1240025,1636337,47,Woman
141,835332,DepthScenes,duration_manipulation_targetAtFixation,jsons/VE125_randls_41.json,http://54.235.29.9/FacialAge/BNav_EC2/DepthDuration/v2_depth_duration_MTurk/v2_DepthDuration_HTML.html#156,156,1366,625,1366,768,8-21-2022,9-0-33,142,depth_duration_stimuli/001029_2014-06-08_13-17-57_260595134347_rgbf000065-resize_1/001029_2014-06-08_13-17-57_260595134347_rgbf000065-resize_1-target.png,125,3.0835,30,2817,125,meters,jsons/VE125_randls_41.json,1240025,1636337,47,Woman
142,835332,DepthScenes,duration_manipulation_targetAtFixation,jsons/VE125_randls_41.json,http://54.235.29.9/FacialAge/BNav_EC2/DepthDuration/v2_depth_duration_MTurk/v2_DepthDuration_HTML.html#156,156,1366,625,1366,768,8-21-2022,9-0-33,143,depth_duration_stimuli/000677_2014-06-08_23-10-32_260595134347_rgbf000158-resize_6/000677_2014-06-08_23-10-32_260595134347_rgbf000158-resize_6-target.png,125,3.556,35,2931,123,meters,jsons/VE125_randls_41.json,1240025,1636337,47,Woman
143,835332,DepthScenes,duration_manipulation_targetAtFixation,jsons/VE125_randls_41.json,http://54.235.29.9/FacialAge/BNav_EC2/DepthDuration/v2_depth_duration_MTurk/v2_DepthDuration_HTML.html#156,156,1366,625,1366,768,8-21-2022,9-0-33,144,depth_duration_stimuli/000878_2014-06-08_22-52-45_260595134347_rgbf000045-resize_2/000878_2014-06-08_22-52-45_260595134347_rgbf000045-resize_2-target.png,125,2.092,45,4698,124,meters,jsons/VE125_randls_41.json,1240025,1636337,47,Woman
144,835332,DepthScenes,duration_manipulation_targetAtFixation,jsons/VE125_randls_41.json,http://54.235.29.9/FacialAge/BNav_EC2/DepthDuration/v2_depth_duration_MTurk/v2_DepthDuration_HTML.html#156,156,1366,625,1366,768,8-21-2022,9-0-33,145,depth_duration_stimuli/002953_2014-06-08_17-32-18_094959634447_rgbf000059-resize_5/002953_2014-06-08_17-32-18_094959634447_rgbf000059-resize_5-target.png,125,1.551,15,3060,127,meters,jsons/VE125_randls_41.json,1240025,1636337,47,Woman
145,835332,DepthScenes,duration_manipulation_targetAtFixation,jsons/VE125_randls_41.json,http://54.235.29.9/FacialAge/BNav_EC2/DepthDuration/v2_depth_duration_MTurk/v2_DepthDuration_HTML.html#156,156,1366,625,1366,768,8-21-2022,9-0-33,146,depth_duration_stimuli/001498_2014-06-19_17-45-14_260595134347_rgbf000129-resize_4/001498_2014-06-19_17-45-14_260595134347_rgbf000129-resize-original.jpg,125,1.4075,0,2943,122,meters,jsons/VE125_randls_41.json,1240025,1636337,47,Woman
146,835332,DepthScenes,duration_manipulation_targetAtFixation,jsons/VE125_randls_41.json,http://54.235.29.9/FacialAge/BNav_EC2/DepthDuration/v2_depth_duration_MTurk/v2_DepthDuration_HTML.html#156,156,1366,625,1366,768,8-21-2022,9-0-33,147,depth_duration_stimuli/001059_2014-06-08_21-53-27_260595134347_rgbf000061-resize_4/001059_2014-06-08_21-53-27_260595134347_rgbf000061-resize_4-target.png,125,2.4185,25,3044,124,meters,jsons/VE125_randls_41.json,1240025,1636337,47,Woman
147,835332,DepthScenes,duration_manipulation_targetAtFixation,jsons/VE125_randls_41.json,http://54.235.29.9/FacialAge/BNav_EC2/DepthDuration/v2_depth_duration_MTurk/v2_DepthDuration_HTML.html#156,156,1366,625,1366,768,8-21-2022,9-0-33,148,depth_duration_stimuli/001032_2014-06-08_13-23-17_260595134347_rgbf000021-resize_3/001032_2014-06-08_13-23-17_260595134347_rgbf000021-resize_3-target.png,125,3.2725,25,2790,120,meters,jsons/VE125_randls_41.json,1240025,1636337,47,Woman
148,835332,DepthScenes,duration_manipulation_targetAtFixation,jsons/VE125_randls_41.json,http://54.235.29.9/FacialAge/BNav_EC2/DepthDuration/v2_depth_duration_MTurk/v2_DepthDuration_HTML.html#156,156,1366,625,1366,768,8-21-2022,9-0-33,149,depth_duration_stimuli/001092_2014-06-15_17-34-58_260595134347_rgbf000171-resize_3/001092_2014-06-15_17-34-58_260595134347_rgbf000171-resize_3-target.png,125,2.6935,35,3115,124,meters,jsons/VE125_randls_41.json,1240025,1636337,47,Woman
149,835332,DepthScenes,duration_manipulation_targetAtFixation,jsons/VE125_randls_41.json,http://54.235.29.9/FacialAge/BNav_EC2/DepthDuration/v2_depth_duration_MTurk/v2_DepthDuration_HTML.html#156,156,1366,625,1366,768,8-21-2022,9-0-33,150,depth_duration_stimuli/002545_2014-06-24_13-38-53_094959634447_rgbf000080-resize_4/002545_2014-06-24_13-38-53_094959634447_rgbf000080-resize_4-target.png,125,1.9205,30,3521,124,meters,jsons/VE125_randls_41.json,1240025,1636337,47,Woman
150,835332,DepthScenes,duration_manipulation_targetAtFixation,jsons/VE125_randls_41.json,http://54.235.29.9/FacialAge/BNav_EC2/DepthDuration/v2_depth_duration_MTurk/v2_DepthDuration_HTML.html#156,156,1366,625,1366,768,8-21-2022,9-0-33,151,depth_duration_stimuli/000682_2014-06-08_23-14-58_260595134347_rgbf000041-resize_5/000682_2014-06-08_23-14-58_260595134347_rgbf000041-resize_5-target.png,125,2.7239999999999998,35,3740,124,meters,jsons/VE125_randls_41.json,1240025,1636337,47,Woman
151,835332,DepthScenes,duration_manipulation_targetAtFixation,jsons/VE125_randls_41.json,http://54.235.29.9/FacialAge/BNav_EC2/DepthDuration/v2_depth_duration_MTurk/v2_DepthDuration_HTML.html#156,156,1366,625,1366,768,8-21-2022,9-0-33,152,depth_duration_stimuli/001650_2014-06-20_12-09-00_260595134347_rgbf000087-resize_3/001650_2014-06-20_12-09-00_260595134347_rgbf000087-resize_3-target.png,125,1.9505,10,3176,123,meters,jsons/VE125_randls_41.json,1240025,1636337,47,Woman
152,835332,DepthScenes,duration_manipulation_targetAtFixation,jsons/VE125_randls_41.json,http://54.235.29.9/FacialAge/BNav_EC2/DepthDuration/v2_depth_duration_MTurk/v2_DepthDuration_HTML.html#156,156,1366,625,1366,768,8-21-2022,9-0-33,153,depth_duration_stimuli/000469_2014-06-09_19-42-10_260595134347_rgbf000081-resize_1/000469_2014-06-09_19-42-10_260595134347_rgbf000081-resize_1-target.png,125,1.652,20,4772,124,meters,jsons/VE125_randls_41.json,1240025,1636337,47,Woman
153,835332,DepthScenes,duration_manipulation_targetAtFixation,jsons/VE125_randls_41.json,http://54.235.29.9/FacialAge/BNav_EC2/DepthDuration/v2_depth_duration_MTurk/v2_DepthDuration_HTML.html#156,156,1366,625,1366,768,8-21-2022,9-0-33,154,depth_duration_stimuli/000483_2014-06-09_20-41-45_260595134347_rgbf000116-resize_4/000483_2014-06-09_20-41-45_260595134347_rgbf000116-resize_4-target.png,125,1.337,10,3057,125,meters,jsons/VE125_randls_41.json,1240025,1636337,47,Woman
154,835332,DepthScenes,duration_manipulation_targetAtFixation,jsons/VE125_randls_41.json,http://54.235.29.9/FacialAge/BNav_EC2/DepthDuration/v2_depth_duration_MTurk/v2_DepthDuration_HTML.html#156,156,1366,625,1366,768,8-21-2022,9-0-33,155,depth_duration_stimuli/002549_2014-06-24_13-41-39_094959634447_rgbf000022-resize_3/002549_2014-06-24_13-41-39_094959634447_rgbf000022-resize_3-target.png,125,1.476,15,3995,124,meters,jsons/VE125_randls_41.json,1240025,1636337,47,Woman
155,835332,DepthScenes,duration_manipulation_targetAtFixation,jsons/VE125_randls_41.json,http://54.235.29.9/FacialAge/BNav_EC2/DepthDuration/v2_depth_duration_MTurk/v2_DepthDuration_HTML.html#156,156,1366,625,1366,768,8-21-2022,9-0-33,156,depth_duration_stimuli/002750_2014-06-22_19-08-03_094959634447_rgbf000094-resize_4/002750_2014-06-22_19-08-03_094959634447_rgbf000094-resize_4-target.png,125,2.354,25,5333,125,meters,jsons/VE125_randls_41.json,1240025,1636337,47,Woman
156,835332,DepthScenes,duration_manipulation_targetAtFixation,jsons/VE125_randls_41.json,http://54.235.29.9/FacialAge/BNav_EC2/DepthDuration/v2_depth_duration_MTurk/v2_DepthDuration_HTML.html#156,156,1366,625,1366,768,8-21-2022,9-0-33,157,depth_duration_stimuli/002725_2014-06-22_11-47-51_094959634447_rgbf000070-resize_1/002725_2014-06-22_11-47-51_094959634447_rgbf000070-resize_1-target.png,125,2.195,30,3177,123,meters,jsons/VE125_randls_41.json,1240025,1636337,47,Woman
157,835332,DepthScenes,duration_manipulation_targetAtFixation,jsons/VE125_randls_41.json,http://54.235.29.9/FacialAge/BNav_EC2/DepthDuration/v2_depth_duration_MTurk/v2_DepthDuration_HTML.html#156,156,1366,625,1366,768,8-21-2022,9-0-33,158,depth_duration_stimuli/002344_2014-06-28_20-06-29_260595134347_rgbf000030-resize_1/002344_2014-06-28_20-06-29_260595134347_rgbf000030-resize_1-target.png,125,1.5795,15,81750,124,meters,jsons/VE125_randls_41.json,1240025,1636337,47,Woman
158,835332,DepthScenes,duration_manipulation_targetAtFixation,jsons/VE125_randls_41.json,http://54.235.29.9/FacialAge/BNav_EC2/DepthDuration/v2_depth_duration_MTurk/v2_DepthDuration_HTML.html#156,156,1366,625,1366,768,8-21-2022,9-0-33,159,depth_duration_stimuli/002989_2014-06-15_12-25-03_094959634447_rgbf000150-resize_3/002989_2014-06-15_12-25-03_094959634447_rgbf000150-resize_3-target.png,125,4.1975,30,4306,124,meters,jsons/VE125_randls_41.json,1240025,1636337,47,Woman
159,835332,DepthScenes,duration_manipulation_targetAtFixation,jsons/VE125_randls_41.json,http://54.235.29.9/FacialAge/BNav_EC2/DepthDuration/v2_depth_duration_MTurk/v2_DepthDuration_HTML.html#156,156,1366,625,1366,768,8-21-2022,9-0-33,160,depth_duration_stimuli/000866_2014-06-09_20-45-42_260595134347_rgbf000139-resize_1/000866_2014-06-09_20-45-42_260595134347_rgbf000139-resize_1-target.png,125,3.2155,20,2658,125,meters,jsons/VE125_randls_41.json,1240025,1636337,47,Woman
160,835332,DepthScenes,duration_manipulation_targetAtFixation,jsons/VE125_randls_41.json,http://54.235.29.9/FacialAge/BNav_EC2/DepthDuration/v2_depth_duration_MTurk/v2_DepthDuration_HTML.html#156,156,1366,625,1366,768,8-21-2022,9-0-33,161,depth_duration_stimuli/001056_2014-06-08_18-46-44_260595134347_rgbf000068-resize_0/001056_2014-06-08_18-46-44_260595134347_rgbf000068-resize_0-target.png,125,2.6625,35,2954,124,meters,jsons/VE125_randls_41.json,1240025,1636337,47,Woman
161,835332,DepthScenes,duration_manipulation_targetAtFixation,jsons/VE125_randls_41.json,http://54.235.29.9/FacialAge/BNav_EC2/DepthDuration/v2_depth_duration_MTurk/v2_DepthDuration_HTML.html#156,156,1366,625,1366,768,8-21-2022,9-0-33,162,depth_duration_stimuli/002199_2014-06-28_18-33-56_260595134347_rgbf000074-resize_0/002199_2014-06-28_18-33-56_260595134347_rgbf000074-resize_0-target.png,125,1.996,20,2515,125,meters,jsons/VE125_randls_41.json,1240025,1636337,47,Woman
162,835332,DepthScenes,duration_manipulation_targetAtFixation,jsons/VE125_randls_41.json,http://54.235.29.9/FacialAge/BNav_EC2/DepthDuration/v2_depth_duration_MTurk/v2_DepthDuration_HTML.html#156,156,1366,625,1366,768,8-21-2022,9-0-33,163,depth_duration_stimuli/001417_2014-06-19_16-25-36_260595134347_rgbf000115-resize_5/001417_2014-06-19_16-25-36_260595134347_rgbf000115-resize_5-target.png,125,4.6255,50,3000,123,meters,jsons/VE125_randls_41.json,1240025,1636337,47,Woman
163,835332,DepthScenes,duration_manipulation_targetAtFixation,jsons/VE125_randls_41.json,http://54.235.29.9/FacialAge/BNav_EC2/DepthDuration/v2_depth_duration_MTurk/v2_DepthDuration_HTML.html#156,156,1366,625,1366,768,8-21-2022,9-0-33,164,depth_duration_stimuli/003081_2014-06-15_15-19-16_094959634447_rgbf000150-resize_1/003081_2014-06-15_15-19-16_094959634447_rgbf000150-resize_1-target.png,125,3.9125,35,2532,124,meters,jsons/VE125_randls_41.json,1240025,1636337,47,Woman
