,subjID,experimentName,versionName,sequenceName,url,selected_row,windowWidth,windowHeight,screenWidth,screenHeight,startDate,startTime,trial,stimulus,duration,actual_depth,depth_estimate,trial_RT,log_sceneDuration,unitSelection,seq_filepath,experimentTime,totalTime,age,gender
0,835457,DepthScenes,duration_manipulation_targetAtFixation,jsons/v1_VE1000_randls_54_rotated.json,http://54.235.29.9/FacialAge/BNav_EC2/DepthDuration/v2_depth_duration_MTurk/v2_DepthDuration_HTML.html#43,43,1366,625,1366,768,8-22-2022,7-59-47,1,depth_duration_stimuli/000137_2014-05-20_17-04-49_260595134347_rgbf000120-resize_1/000137_2014-05-20_17-04-49_260595134347_rgbf000120-resize_1-target.png,1000,3.786,5,4612,991,feet,jsons/v1_VE1000_randls_54_rotated.json,863802,1160259,26,Man
1,835457,DepthScenes,duration_manipulation_targetAtFixation,jsons/v1_VE1000_randls_54_rotated.json,http://54.235.29.9/FacialAge/BNav_EC2/DepthDuration/v2_depth_duration_MTurk/v2_DepthDuration_HTML.html#43,43,1366,625,1366,768,8-22-2022,7-59-47,2,depth_duration_stimuli/000736_2014-06-08_18-24-15_260595134347_rgbf000206-resize_3/000736_2014-06-08_18-24-15_260595134347_rgbf000206-resize_3-target.png,1000,3.515,5,4452,1005,feet,jsons/v1_VE1000_randls_54_rotated.json,863802,1160259,26,Man
2,835457,DepthScenes,duration_manipulation_targetAtFixation,jsons/v1_VE1000_randls_54_rotated.json,http://54.235.29.9/FacialAge/BNav_EC2/DepthDuration/v2_depth_duration_MTurk/v2_DepthDuration_HTML.html#43,43,1366,625,1366,768,8-22-2022,7-59-47,3,depth_duration_stimuli/001815_2014-06-26_20-52-55_260595134347_rgbf000020-resize_0/001815_2014-06-26_20-52-55_260595134347_rgbf000020-resize_0-target.png,1000,3.3865,4,4072,998,feet,jsons/v1_VE1000_randls_54_rotated.json,863802,1160259,26,Man
3,835457,DepthScenes,duration_manipulation_targetAtFixation,jsons/v1_VE1000_randls_54_rotated.json,http://54.235.29.9/FacialAge/BNav_EC2/DepthDuration/v2_depth_duration_MTurk/v2_DepthDuration_HTML.html#43,43,1366,625,1366,768,8-22-2022,7-59-47,4,depth_duration_stimuli/001808_2014-06-26_20-50-58_260595134347_rgbf000029-resize_1/001808_2014-06-26_20-50-58_260595134347_rgbf000029-resize_1-target.png,1000,4.249,3,4803,996,feet,jsons/v1_VE1000_randls_54_rotated.json,863802,1160259,26,Man
4,835457,DepthScenes,duration_manipulation_targetAtFixation,jsons/v1_VE1000_randls_54_rotated.json,http://54.235.29.9/FacialAge/BNav_EC2/DepthDuration/v2_depth_duration_MTurk/v2_DepthDuration_HTML.html#43,43,1366,625,1366,768,8-22-2022,7-59-47,5,depth_duration_stimuli/001132_2014-06-17_14-48-54_260595134347_rgbf000100-resize_2/001132_2014-06-17_14-48-54_260595134347_rgbf000100-resize_2-target.png,1000,3.753,4,4926,1003,feet,jsons/v1_VE1000_randls_54_rotated.json,863802,1160259,26,Man
5,835457,DepthScenes,duration_manipulation_targetAtFixation,jsons/v1_VE1000_randls_54_rotated.json,http://54.235.29.9/FacialAge/BNav_EC2/DepthDuration/v2_depth_duration_MTurk/v2_DepthDuration_HTML.html#43,43,1366,625,1366,768,8-22-2022,7-59-47,6,depth_duration_stimuli/001133_2014-06-17_14-49-16_260595134347_rgbf000100-resize_0/001133_2014-06-17_14-49-16_260595134347_rgbf000100-resize_0-target.png,1000,4.2115,6,4249,1008,feet,jsons/v1_VE1000_randls_54_rotated.json,863802,1160259,26,Man
6,835457,DepthScenes,duration_manipulation_targetAtFixation,jsons/v1_VE1000_randls_54_rotated.json,http://54.235.29.9/FacialAge/BNav_EC2/DepthDuration/v2_depth_duration_MTurk/v2_DepthDuration_HTML.html#43,43,1366,625,1366,768,8-22-2022,7-59-47,7,depth_duration_stimuli/001235_2014-06-17_16-37-36_260595134347_rgbf000084-resize_4/001235_2014-06-17_16-37-36_260595134347_rgbf000084-resize_4-target.png,1000,3.6605,4,4592,990,feet,jsons/v1_VE1000_randls_54_rotated.json,863802,1160259,26,Man
7,835457,DepthScenes,duration_manipulation_targetAtFixation,jsons/v1_VE1000_randls_54_rotated.json,http://54.235.29.9/FacialAge/BNav_EC2/DepthDuration/v2_depth_duration_MTurk/v2_DepthDuration_HTML.html#43,43,1366,625,1366,768,8-22-2022,7-59-47,8,depth_duration_stimuli/000788_2014-06-08_22-34-36_260595134347_rgbf000131-resize_1/000788_2014-06-08_22-34-36_260595134347_rgbf000131-resize_1-target.png,1000,3.359,3,4691,990,feet,jsons/v1_VE1000_randls_54_rotated.json,863802,1160259,26,Man
8,835457,DepthScenes,duration_manipulation_targetAtFixation,jsons/v1_VE1000_randls_54_rotated.json,http://54.235.29.9/FacialAge/BNav_EC2/DepthDuration/v2_depth_duration_MTurk/v2_DepthDuration_HTML.html#43,43,1366,625,1366,768,8-22-2022,7-59-47,9,depth_duration_stimuli/001094_2014-06-15_17-36-00_260595134347_rgbf000205-resize_0/001094_2014-06-15_17-36-00_260595134347_rgbf000205-resize_0-target.png,1000,4.2175,5,4820,1001,feet,jsons/v1_VE1000_randls_54_rotated.json,863802,1160259,26,Man
9,835457,DepthScenes,duration_manipulation_targetAtFixation,jsons/v1_VE1000_randls_54_rotated.json,http://54.235.29.9/FacialAge/BNav_EC2/DepthDuration/v2_depth_duration_MTurk/v2_DepthDuration_HTML.html#43,43,1366,625,1366,768,8-22-2022,7-59-47,10,depth_duration_stimuli/000692_2014-06-08_13-09-42_260595134347_rgbf000199-resize_2/000692_2014-06-08_13-09-42_260595134347_rgbf000199-resize_2-target.png,1000,3.661,6,4258,999,feet,jsons/v1_VE1000_randls_54_rotated.json,863802,1160259,26,Man
10,835457,DepthScenes,duration_manipulation_targetAtFixation,jsons/v1_VE1000_randls_54_rotated.json,http://54.235.29.9/FacialAge/BNav_EC2/DepthDuration/v2_depth_duration_MTurk/v2_DepthDuration_HTML.html#43,43,1366,625,1366,768,8-22-2022,7-59-47,11,depth_duration_stimuli/001571_2014-06-20_17-21-32_260595134347_rgbf000089-resize_1/001571_2014-06-20_17-21-32_260595134347_rgbf000089-resize_1-target.png,1000,1.86,2,4186,985,feet,jsons/v1_VE1000_randls_54_rotated.json,863802,1160259,26,Man
11,835457,DepthScenes,duration_manipulation_targetAtFixation,jsons/v1_VE1000_randls_54_rotated.json,http://54.235.29.9/FacialAge/BNav_EC2/DepthDuration/v2_depth_duration_MTurk/v2_DepthDuration_HTML.html#43,43,1366,625,1366,768,8-22-2022,7-59-47,12,depth_duration_stimuli/002272_2014-06-28_18-53-56_260595134347_rgbf000067-resize_2/002272_2014-06-28_18-53-56_260595134347_rgbf000067-resize_2-target.png,1000,1.138,1,4466,990,feet,jsons/v1_VE1000_randls_54_rotated.json,863802,1160259,26,Man
12,835457,DepthScenes,duration_manipulation_targetAtFixation,jsons/v1_VE1000_randls_54_rotated.json,http://54.235.29.9/FacialAge/BNav_EC2/DepthDuration/v2_depth_duration_MTurk/v2_DepthDuration_HTML.html#43,43,1366,625,1366,768,8-22-2022,7-59-47,13,depth_duration_stimuli/000191_2014-05-12_17-07-38_260595134347_rgbf000199-resize_0/000191_2014-05-12_17-07-38_260595134347_rgbf000199-resize_0-target.png,1000,3.7995,7,5294,1012,feet,jsons/v1_VE1000_randls_54_rotated.json,863802,1160259,26,Man
13,835457,DepthScenes,duration_manipulation_targetAtFixation,jsons/v1_VE1000_randls_54_rotated.json,http://54.235.29.9/FacialAge/BNav_EC2/DepthDuration/v2_depth_duration_MTurk/v2_DepthDuration_HTML.html#43,43,1366,625,1366,768,8-22-2022,7-59-47,14,depth_duration_stimuli/000493_2014-06-09_21-01-18_260595134347_rgbf000196-resize_3/000493_2014-06-09_21-01-18_260595134347_rgbf000196-resize_3-target.png,1000,3.44,5,4567,1005,feet,jsons/v1_VE1000_randls_54_rotated.json,863802,1160259,26,Man
14,835457,DepthScenes,duration_manipulation_targetAtFixation,jsons/v1_VE1000_randls_54_rotated.json,http://54.235.29.9/FacialAge/BNav_EC2/DepthDuration/v2_depth_duration_MTurk/v2_DepthDuration_HTML.html#43,43,1366,625,1366,768,8-22-2022,7-59-47,15,depth_duration_stimuli/000780_2014-06-08_22-28-29_260595134347_rgbf000126-resize_1/000780_2014-06-08_22-28-29_260595134347_rgbf000126-resize_1-target.png,1000,3.3825,7,4567,993,feet,jsons/v1_VE1000_randls_54_rotated.json,863802,1160259,26,Man
15,835457,DepthScenes,duration_manipulation_targetAtFixation,jsons/v1_VE1000_randls_54_rotated.json,http://54.235.29.9/FacialAge/BNav_EC2/DepthDuration/v2_depth_duration_MTurk/v2_DepthDuration_HTML.html#43,43,1366,625,1366,768,8-22-2022,7-59-47,16,depth_duration_stimuli/002445_2014-06-28_20-32-16_260595134347_rgbf000029-resize_4/002445_2014-06-28_20-32-16_260595134347_rgbf000029-resize_4-target.png,1000,2.5315,2,4588,1009,feet,jsons/v1_VE1000_randls_54_rotated.json,863802,1160259,26,Man
16,835457,DepthScenes,duration_manipulation_targetAtFixation,jsons/v1_VE1000_randls_54_rotated.json,http://54.235.29.9/FacialAge/BNav_EC2/DepthDuration/v2_depth_duration_MTurk/v2_DepthDuration_HTML.html#43,43,1366,625,1366,768,8-22-2022,7-59-47,17,depth_duration_stimuli/000109_2014-05-14_23-41-52_260595134347_rgbf000035-resize_9/000109_2014-05-14_23-41-52_260595134347_rgbf000035-resize_9-target.png,1000,1.3545,1,3916,1002,feet,jsons/v1_VE1000_randls_54_rotated.json,863802,1160259,26,Man
17,835457,DepthScenes,duration_manipulation_targetAtFixation,jsons/v1_VE1000_randls_54_rotated.json,http://54.235.29.9/FacialAge/BNav_EC2/DepthDuration/v2_depth_duration_MTurk/v2_DepthDuration_HTML.html#43,43,1366,625,1366,768,8-22-2022,7-59-47,18,depth_duration_stimuli/000470_2014-06-09_19-42-40_260595134347_rgbf000094-resize_1/000470_2014-06-09_19-42-40_260595134347_rgbf000094-resize_1-target.png,1000,1.831,2,4310,986,feet,jsons/v1_VE1000_randls_54_rotated.json,863802,1160259,26,Man
18,835457,DepthScenes,duration_manipulation_targetAtFixation,jsons/v1_VE1000_randls_54_rotated.json,http://54.235.29.9/FacialAge/BNav_EC2/DepthDuration/v2_depth_duration_MTurk/v2_DepthDuration_HTML.html#43,43,1366,625,1366,768,8-22-2022,7-59-47,19,depth_duration_stimuli/001498_2014-06-19_17-45-14_260595134347_rgbf000129-resize_4/001498_2014-06-19_17-45-14_260595134347_rgbf000129-resize-original.jpg,1000,1.4075,0,4546,1008,feet,jsons/v1_VE1000_randls_54_rotated.json,863802,1160259,26,Man
19,835457,DepthScenes,duration_manipulation_targetAtFixation,jsons/v1_VE1000_randls_54_rotated.json,http://54.235.29.9/FacialAge/BNav_EC2/DepthDuration/v2_depth_duration_MTurk/v2_DepthDuration_HTML.html#43,43,1366,625,1366,768,8-22-2022,7-59-47,20,depth_duration_stimuli/003010_2014-06-15_12-54-35_094959634447_rgbf000112-resize_0/003010_2014-06-15_12-54-35_094959634447_rgbf000112-resize_0-target.png,1000,3.1185,5,5843,995,feet,jsons/v1_VE1000_randls_54_rotated.json,863802,1160259,26,Man
20,835457,DepthScenes,duration_manipulation_targetAtFixation,jsons/v1_VE1000_randls_54_rotated.json,http://54.235.29.9/FacialAge/BNav_EC2/DepthDuration/v2_depth_duration_MTurk/v2_DepthDuration_HTML.html#43,43,1366,625,1366,768,8-22-2022,7-59-47,21,depth_duration_stimuli/001810_2014-06-26_20-51-35_260595134347_rgbf000040-resize_3/001810_2014-06-26_20-51-35_260595134347_rgbf000040-resize_3-target.png,1000,2.2525,2,4552,1001,feet,jsons/v1_VE1000_randls_54_rotated.json,863802,1160259,26,Man
21,835457,DepthScenes,duration_manipulation_targetAtFixation,jsons/v1_VE1000_randls_54_rotated.json,http://54.235.29.9/FacialAge/BNav_EC2/DepthDuration/v2_depth_duration_MTurk/v2_DepthDuration_HTML.html#43,43,1366,625,1366,768,8-22-2022,7-59-47,22,depth_duration_stimuli/001392_2014-06-19_16-07-59_260595134347_rgbf000046-resize_1/001392_2014-06-19_16-07-59_260595134347_rgbf000046-resize_1-target.png,1000,4.135,5,4277,1000,feet,jsons/v1_VE1000_randls_54_rotated.json,863802,1160259,26,Man
22,835457,DepthScenes,duration_manipulation_targetAtFixation,jsons/v1_VE1000_randls_54_rotated.json,http://54.235.29.9/FacialAge/BNav_EC2/DepthDuration/v2_depth_duration_MTurk/v2_DepthDuration_HTML.html#43,43,1366,625,1366,768,8-22-2022,7-59-47,23,depth_duration_stimuli/001570_2014-06-20_17-21-09_260595134347_rgbf000135-resize_4/001570_2014-06-20_17-21-09_260595134347_rgbf000135-resize_4-target.png,1000,4.467,6,4002,993,feet,jsons/v1_VE1000_randls_54_rotated.json,863802,1160259,26,Man
23,835457,DepthScenes,duration_manipulation_targetAtFixation,jsons/v1_VE1000_randls_54_rotated.json,http://54.235.29.9/FacialAge/BNav_EC2/DepthDuration/v2_depth_duration_MTurk/v2_DepthDuration_HTML.html#43,43,1366,625,1366,768,8-22-2022,7-59-47,24,depth_duration_stimuli/000943_2014-06-09_19-31-07_260595134347_rgbf000128-resize_1/000943_2014-06-09_19-31-07_260595134347_rgbf000128-resize_1-target.png,1000,1.9765,2,4165,1000,feet,jsons/v1_VE1000_randls_54_rotated.json,863802,1160259,26,Man
24,835457,DepthScenes,duration_manipulation_targetAtFixation,jsons/v1_VE1000_randls_54_rotated.json,http://54.235.29.9/FacialAge/BNav_EC2/DepthDuration/v2_depth_duration_MTurk/v2_DepthDuration_HTML.html#43,43,1366,625,1366,768,8-22-2022,7-59-47,25,depth_duration_stimuli/003070_2014-06-15_14-58-27_094959634447_rgbf000150-resize_3/003070_2014-06-15_14-58-27_094959634447_rgbf000150-resize_3-target.png,1000,2.9415,5,6043,1008,feet,jsons/v1_VE1000_randls_54_rotated.json,863802,1160259,26,Man
25,835457,DepthScenes,duration_manipulation_targetAtFixation,jsons/v1_VE1000_randls_54_rotated.json,http://54.235.29.9/FacialAge/BNav_EC2/DepthDuration/v2_depth_duration_MTurk/v2_DepthDuration_HTML.html#43,43,1366,625,1366,768,8-22-2022,7-59-47,26,depth_duration_stimuli/003338_2014-05-20_11-01-23_094959634447_rgbf000051-resize_6/003338_2014-05-20_11-01-23_094959634447_rgbf000051-resize_6-target.png,1000,1.693,1,6836,1005,feet,jsons/v1_VE1000_randls_54_rotated.json,863802,1160259,26,Man
26,835457,DepthScenes,duration_manipulation_targetAtFixation,jsons/v1_VE1000_randls_54_rotated.json,http://54.235.29.9/FacialAge/BNav_EC2/DepthDuration/v2_depth_duration_MTurk/v2_DepthDuration_HTML.html#43,43,1366,625,1366,768,8-22-2022,7-59-47,27,depth_duration_stimuli/002509_2014-06-24_13-19-22_094959634447_rgbf000077-resize_0/002509_2014-06-24_13-19-22_094959634447_rgbf000077-resize_0-target.png,1000,1.3065,1,4234,1009,feet,jsons/v1_VE1000_randls_54_rotated.json,863802,1160259,26,Man
27,835457,DepthScenes,duration_manipulation_targetAtFixation,jsons/v1_VE1000_randls_54_rotated.json,http://54.235.29.9/FacialAge/BNav_EC2/DepthDuration/v2_depth_duration_MTurk/v2_DepthDuration_HTML.html#43,43,1366,625,1366,768,8-22-2022,7-59-47,28,depth_duration_stimuli/002657_2014-06-13_15-29-54_094959634447_rgbf000150-resize_1/002657_2014-06-13_15-29-54_094959634447_rgbf000150-resize_1-target.png,1000,4.919,9,4654,994,feet,jsons/v1_VE1000_randls_54_rotated.json,863802,1160259,26,Man
28,835457,DepthScenes,duration_manipulation_targetAtFixation,jsons/v1_VE1000_randls_54_rotated.json,http://54.235.29.9/FacialAge/BNav_EC2/DepthDuration/v2_depth_duration_MTurk/v2_DepthDuration_HTML.html#43,43,1366,625,1366,768,8-22-2022,7-59-47,29,depth_duration_stimuli/002375_2014-06-28_20-13-44_260595134347_rgbf000032-resize_1/002375_2014-06-28_20-13-44_260595134347_rgbf000032-resize_1-target.png,1000,4.0175,3,4586,999,feet,jsons/v1_VE1000_randls_54_rotated.json,863802,1160259,26,Man
29,835457,DepthScenes,duration_manipulation_targetAtFixation,jsons/v1_VE1000_randls_54_rotated.json,http://54.235.29.9/FacialAge/BNav_EC2/DepthDuration/v2_depth_duration_MTurk/v2_DepthDuration_HTML.html#43,43,1366,625,1366,768,8-22-2022,7-59-47,30,depth_duration_stimuli/002072_2014-06-24_21-48-06_260595134347_rgbf000115-resize_0/002072_2014-06-24_21-48-06_260595134347_rgbf000115-resize-original.jpg,1000,4.702,0,4982,1000,feet,jsons/v1_VE1000_randls_54_rotated.json,863802,1160259,26,Man
30,835457,DepthScenes,duration_manipulation_targetAtFixation,jsons/v1_VE1000_randls_54_rotated.json,http://54.235.29.9/FacialAge/BNav_EC2/DepthDuration/v2_depth_duration_MTurk/v2_DepthDuration_HTML.html#43,43,1366,625,1366,768,8-22-2022,7-59-47,31,depth_duration_stimuli/000502_2014-06-08_23-02-32_260595134347_rgbf000063-resize_4/000502_2014-06-08_23-02-32_260595134347_rgbf000063-resize_4-target.png,1000,2.431,3,4262,991,feet,jsons/v1_VE1000_randls_54_rotated.json,863802,1160259,26,Man
31,835457,DepthScenes,duration_manipulation_targetAtFixation,jsons/v1_VE1000_randls_54_rotated.json,http://54.235.29.9/FacialAge/BNav_EC2/DepthDuration/v2_depth_duration_MTurk/v2_DepthDuration_HTML.html#43,43,1366,625,1366,768,8-22-2022,7-59-47,32,depth_duration_stimuli/001199_2014-06-17_16-03-48_260595134347_rgbf000077-resize_0/001199_2014-06-17_16-03-48_260595134347_rgbf000077-resize_0-target.png,1000,3.4375,10,5866,988,feet,jsons/v1_VE1000_randls_54_rotated.json,863802,1160259,26,Man
32,835457,DepthScenes,duration_manipulation_targetAtFixation,jsons/v1_VE1000_randls_54_rotated.json,http://54.235.29.9/FacialAge/BNav_EC2/DepthDuration/v2_depth_duration_MTurk/v2_DepthDuration_HTML.html#43,43,1366,625,1366,768,8-22-2022,7-59-47,33,depth_duration_stimuli/001828_2014-06-26_21-40-03_260595134347_rgbf000024-resize_0/001828_2014-06-26_21-40-03_260595134347_rgbf000024-resize_0-target.png,1000,4.8260000000000005,9,4425,995,feet,jsons/v1_VE1000_randls_54_rotated.json,863802,1160259,26,Man
33,835457,DepthScenes,duration_manipulation_targetAtFixation,jsons/v1_VE1000_randls_54_rotated.json,http://54.235.29.9/FacialAge/BNav_EC2/DepthDuration/v2_depth_duration_MTurk/v2_DepthDuration_HTML.html#43,43,1366,625,1366,768,8-22-2022,7-59-47,34,depth_duration_stimuli/000009_2014-05-26_14-32-05_260595134347_rgbf000034-resize_3/000009_2014-05-26_14-32-05_260595134347_rgbf000034-resize_3-target.png,1000,3.8715,9,4294,1009,feet,jsons/v1_VE1000_randls_54_rotated.json,863802,1160259,26,Man
34,835457,DepthScenes,duration_manipulation_targetAtFixation,jsons/v1_VE1000_randls_54_rotated.json,http://54.235.29.9/FacialAge/BNav_EC2/DepthDuration/v2_depth_duration_MTurk/v2_DepthDuration_HTML.html#43,43,1366,625,1366,768,8-22-2022,7-59-47,35,depth_duration_stimuli/003587_2014-05-23_16-48-02_094959634447_rgbf002384-resize_2/003587_2014-05-23_16-48-02_094959634447_rgbf002384-resize_2-target.png,1000,1.357,1,4125,996,feet,jsons/v1_VE1000_randls_54_rotated.json,863802,1160259,26,Man
35,835457,DepthScenes,duration_manipulation_targetAtFixation,jsons/v1_VE1000_randls_54_rotated.json,http://54.235.29.9/FacialAge/BNav_EC2/DepthDuration/v2_depth_duration_MTurk/v2_DepthDuration_HTML.html#43,43,1366,625,1366,768,8-22-2022,7-59-47,36,depth_duration_stimuli/001167_2014-06-17_15-38-07_260595134347_rgbf000108-resize_0/001167_2014-06-17_15-38-07_260595134347_rgbf000108-resize_0-target.png,1000,1.8505,2,4205,1003,feet,jsons/v1_VE1000_randls_54_rotated.json,863802,1160259,26,Man
36,835457,DepthScenes,duration_manipulation_targetAtFixation,jsons/v1_VE1000_randls_54_rotated.json,http://54.235.29.9/FacialAge/BNav_EC2/DepthDuration/v2_depth_duration_MTurk/v2_DepthDuration_HTML.html#43,43,1366,625,1366,768,8-22-2022,7-59-47,37,depth_duration_stimuli/001032_2014-06-08_13-23-17_260595134347_rgbf000021-resize_3/001032_2014-06-08_13-23-17_260595134347_rgbf000021-resize_3-target.png,1000,3.2725,5,5032,1000,feet,jsons/v1_VE1000_randls_54_rotated.json,863802,1160259,26,Man
37,835457,DepthScenes,duration_manipulation_targetAtFixation,jsons/v1_VE1000_randls_54_rotated.json,http://54.235.29.9/FacialAge/BNav_EC2/DepthDuration/v2_depth_duration_MTurk/v2_DepthDuration_HTML.html#43,43,1366,625,1366,768,8-22-2022,7-59-47,38,depth_duration_stimuli/001059_2014-06-08_21-53-27_260595134347_rgbf000061-resize_4/001059_2014-06-08_21-53-27_260595134347_rgbf000061-resize_4-target.png,1000,2.4185,4,5120,999,feet,jsons/v1_VE1000_randls_54_rotated.json,863802,1160259,26,Man
38,835457,DepthScenes,duration_manipulation_targetAtFixation,jsons/v1_VE1000_randls_54_rotated.json,http://54.235.29.9/FacialAge/BNav_EC2/DepthDuration/v2_depth_duration_MTurk/v2_DepthDuration_HTML.html#43,43,1366,625,1366,768,8-22-2022,7-59-47,39,depth_duration_stimuli/002953_2014-06-08_17-32-18_094959634447_rgbf000059-resize_5/002953_2014-06-08_17-32-18_094959634447_rgbf000059-resize_5-target.png,1000,1.551,2,4001,985,feet,jsons/v1_VE1000_randls_54_rotated.json,863802,1160259,26,Man
39,835457,DepthScenes,duration_manipulation_targetAtFixation,jsons/v1_VE1000_randls_54_rotated.json,http://54.235.29.9/FacialAge/BNav_EC2/DepthDuration/v2_depth_duration_MTurk/v2_DepthDuration_HTML.html#43,43,1366,625,1366,768,8-22-2022,7-59-47,40,depth_duration_stimuli/000878_2014-06-08_22-52-45_260595134347_rgbf000045-resize_2/000878_2014-06-08_22-52-45_260595134347_rgbf000045-resize_2-target.png,1000,2.092,5,4446,997,feet,jsons/v1_VE1000_randls_54_rotated.json,863802,1160259,26,Man
40,835457,DepthScenes,duration_manipulation_targetAtFixation,jsons/v1_VE1000_randls_54_rotated.json,http://54.235.29.9/FacialAge/BNav_EC2/DepthDuration/v2_depth_duration_MTurk/v2_DepthDuration_HTML.html#43,43,1366,625,1366,768,8-22-2022,7-59-47,41,depth_duration_stimuli/000691_2014-06-08_13-08-50_260595134347_rgbf000132-resize_3/000691_2014-06-08_13-08-50_260595134347_rgbf000132-resize_3-target.png,1000,4.1530000000000005,6,4580,989,feet,jsons/v1_VE1000_randls_54_rotated.json,863802,1160259,26,Man
41,835457,DepthScenes,duration_manipulation_targetAtFixation,jsons/v1_VE1000_randls_54_rotated.json,http://54.235.29.9/FacialAge/BNav_EC2/DepthDuration/v2_depth_duration_MTurk/v2_DepthDuration_HTML.html#43,43,1366,625,1366,768,8-22-2022,7-59-47,42,depth_duration_stimuli/002213_2014-06-28_18-37-58_260595134347_rgbf000055-resize_1/002213_2014-06-28_18-37-58_260595134347_rgbf000055-resize_1-target.png,1000,3.62,11,4631,995,feet,jsons/v1_VE1000_randls_54_rotated.json,863802,1160259,26,Man
42,835457,DepthScenes,duration_manipulation_targetAtFixation,jsons/v1_VE1000_randls_54_rotated.json,http://54.235.29.9/FacialAge/BNav_EC2/DepthDuration/v2_depth_duration_MTurk/v2_DepthDuration_HTML.html#43,43,1366,625,1366,768,8-22-2022,7-59-47,43,depth_duration_stimuli/000103_2014-05-14_22-01-17_260595134347_rgbf000152-resize_5/000103_2014-05-14_22-01-17_260595134347_rgbf000152-resize_5-target.png,1000,1.993,6,4166,990,feet,jsons/v1_VE1000_randls_54_rotated.json,863802,1160259,26,Man
43,835457,DepthScenes,duration_manipulation_targetAtFixation,jsons/v1_VE1000_randls_54_rotated.json,http://54.235.29.9/FacialAge/BNav_EC2/DepthDuration/v2_depth_duration_MTurk/v2_DepthDuration_HTML.html#43,43,1366,625,1366,768,8-22-2022,7-59-47,44,depth_duration_stimuli/001555_2014-06-20_17-12-10_260595134347_rgbf000065-resize_4/001555_2014-06-20_17-12-10_260595134347_rgbf000065-resize_4-target.png,1000,1.633,2,4432,989,feet,jsons/v1_VE1000_randls_54_rotated.json,863802,1160259,26,Man
44,835457,DepthScenes,duration_manipulation_targetAtFixation,jsons/v1_VE1000_randls_54_rotated.json,http://54.235.29.9/FacialAge/BNav_EC2/DepthDuration/v2_depth_duration_MTurk/v2_DepthDuration_HTML.html#43,43,1366,625,1366,768,8-22-2022,7-59-47,45,depth_duration_stimuli/002323_2014-06-28_20-01-54_260595134347_rgbf000051-resize_4/002323_2014-06-28_20-01-54_260595134347_rgbf000051-resize_4-target.png,1000,3.7310000000000003,15,4733,1009,feet,jsons/v1_VE1000_randls_54_rotated.json,863802,1160259,26,Man
45,835457,DepthScenes,duration_manipulation_targetAtFixation,jsons/v1_VE1000_randls_54_rotated.json,http://54.235.29.9/FacialAge/BNav_EC2/DepthDuration/v2_depth_duration_MTurk/v2_DepthDuration_HTML.html#43,43,1366,625,1366,768,8-22-2022,7-59-47,46,depth_duration_stimuli/000917_2014-06-09_22-45-29_260595134347_rgbf000149-resize_3/000917_2014-06-09_22-45-29_260595134347_rgbf000149-resize_3-target.png,1000,4.1865,12,4709,989,feet,jsons/v1_VE1000_randls_54_rotated.json,863802,1160259,26,Man
46,835457,DepthScenes,duration_manipulation_targetAtFixation,jsons/v1_VE1000_randls_54_rotated.json,http://54.235.29.9/FacialAge/BNav_EC2/DepthDuration/v2_depth_duration_MTurk/v2_DepthDuration_HTML.html#43,43,1366,625,1366,768,8-22-2022,7-59-47,47,depth_duration_stimuli/001214_2014-06-17_16-13-55_260595134347_rgbf000111-resize_0/001214_2014-06-17_16-13-55_260595134347_rgbf000111-resize_0-target.png,1000,2.6505,6,3917,1004,feet,jsons/v1_VE1000_randls_54_rotated.json,863802,1160259,26,Man
47,835457,DepthScenes,duration_manipulation_targetAtFixation,jsons/v1_VE1000_randls_54_rotated.json,http://54.235.29.9/FacialAge/BNav_EC2/DepthDuration/v2_depth_duration_MTurk/v2_DepthDuration_HTML.html#43,43,1366,625,1366,768,8-22-2022,7-59-47,48,depth_duration_stimuli/000810_2014-06-08_17-20-01_260595134347_rgbf000105-resize_0/000810_2014-06-08_17-20-01_260595134347_rgbf000105-resize_0-target.png,1000,1.4865,4,4094,1002,feet,jsons/v1_VE1000_randls_54_rotated.json,863802,1160259,26,Man
48,835457,DepthScenes,duration_manipulation_targetAtFixation,jsons/v1_VE1000_randls_54_rotated.json,http://54.235.29.9/FacialAge/BNav_EC2/DepthDuration/v2_depth_duration_MTurk/v2_DepthDuration_HTML.html#43,43,1366,625,1366,768,8-22-2022,7-59-47,49,depth_duration_stimuli/001170_2014-06-17_15-43-44_260595134347_rgbf000096-resize_6/001170_2014-06-17_15-43-44_260595134347_rgbf000096-resize-original.jpg,1000,1.1909999999999998,0,4486,1002,feet,jsons/v1_VE1000_randls_54_rotated.json,863802,1160259,26,Man
49,835457,DepthScenes,duration_manipulation_targetAtFixation,jsons/v1_VE1000_randls_54_rotated.json,http://54.235.29.9/FacialAge/BNav_EC2/DepthDuration/v2_depth_duration_MTurk/v2_DepthDuration_HTML.html#43,43,1366,625,1366,768,8-22-2022,7-59-47,50,depth_duration_stimuli/002103_2014-06-25_20-00-40_260595134347_rgbf000049-resize_0/002103_2014-06-25_20-00-40_260595134347_rgbf000049-resize_0-target.png,1000,4.105,9,4820,1001,feet,jsons/v1_VE1000_randls_54_rotated.json,863802,1160259,26,Man
50,835457,DepthScenes,duration_manipulation_targetAtFixation,jsons/v1_VE1000_randls_54_rotated.json,http://54.235.29.9/FacialAge/BNav_EC2/DepthDuration/v2_depth_duration_MTurk/v2_DepthDuration_HTML.html#43,43,1366,625,1366,768,8-22-2022,7-59-47,51,depth_duration_stimuli/002039_2014-06-24_20-22-38_260595134347_rgbf000084-resize_1/002039_2014-06-24_20-22-38_260595134347_rgbf000084-resize_1-target.png,1000,4.408,11,5178,1000,feet,jsons/v1_VE1000_randls_54_rotated.json,863802,1160259,26,Man
51,835457,DepthScenes,duration_manipulation_targetAtFixation,jsons/v1_VE1000_randls_54_rotated.json,http://54.235.29.9/FacialAge/BNav_EC2/DepthDuration/v2_depth_duration_MTurk/v2_DepthDuration_HTML.html#43,43,1366,625,1366,768,8-22-2022,7-59-47,52,depth_duration_stimuli/000665_2014-06-09_20-42-35_260595134347_rgbf000110-resize_1/000665_2014-06-09_20-42-35_260595134347_rgbf000110-resize_1-target.png,1000,3.057,6,4375,991,feet,jsons/v1_VE1000_randls_54_rotated.json,863802,1160259,26,Man
52,835457,DepthScenes,duration_manipulation_targetAtFixation,jsons/v1_VE1000_randls_54_rotated.json,http://54.235.29.9/FacialAge/BNav_EC2/DepthDuration/v2_depth_duration_MTurk/v2_DepthDuration_HTML.html#43,43,1366,625,1366,768,8-22-2022,7-59-47,53,depth_duration_stimuli/001150_2014-06-17_15-27-34_260595134347_rgbf000108-resize_2/001150_2014-06-17_15-27-34_260595134347_rgbf000108-resize_2-target.png,1000,4.0325,9,4042,1002,feet,jsons/v1_VE1000_randls_54_rotated.json,863802,1160259,26,Man
53,835457,DepthScenes,duration_manipulation_targetAtFixation,jsons/v1_VE1000_randls_54_rotated.json,http://54.235.29.9/FacialAge/BNav_EC2/DepthDuration/v2_depth_duration_MTurk/v2_DepthDuration_HTML.html#43,43,1366,625,1366,768,8-22-2022,7-59-47,54,depth_duration_stimuli/001052_2014-06-08_18-24-54_260595134347_rgbf000130-resize_1/001052_2014-06-08_18-24-54_260595134347_rgbf000130-resize_1-target.png,1000,4.1045,12,5118,1005,feet,jsons/v1_VE1000_randls_54_rotated.json,863802,1160259,26,Man
54,835457,DepthScenes,duration_manipulation_targetAtFixation,jsons/v1_VE1000_randls_54_rotated.json,http://54.235.29.9/FacialAge/BNav_EC2/DepthDuration/v2_depth_duration_MTurk/v2_DepthDuration_HTML.html#43,43,1366,625,1366,768,8-22-2022,7-59-47,55,depth_duration_stimuli/002988_2014-06-15_12-24-20_094959634447_rgbf000150-resize_1/002988_2014-06-15_12-24-20_094959634447_rgbf000150-resize_1-target.png,1000,4.7669999999999995,13,4442,999,feet,jsons/v1_VE1000_randls_54_rotated.json,863802,1160259,26,Man
55,835457,DepthScenes,duration_manipulation_targetAtFixation,jsons/v1_VE1000_randls_54_rotated.json,http://54.235.29.9/FacialAge/BNav_EC2/DepthDuration/v2_depth_duration_MTurk/v2_DepthDuration_HTML.html#43,43,1366,625,1366,768,8-22-2022,7-59-47,56,depth_duration_stimuli/000409_2014-06-04_19-23-33_260595134347_rgbf000067-resize_0/000409_2014-06-04_19-23-33_260595134347_rgbf000067-resize_0-target.png,1000,3.7335,8,4667,996,feet,jsons/v1_VE1000_randls_54_rotated.json,863802,1160259,26,Man
56,835457,DepthScenes,duration_manipulation_targetAtFixation,jsons/v1_VE1000_randls_54_rotated.json,http://54.235.29.9/FacialAge/BNav_EC2/DepthDuration/v2_depth_duration_MTurk/v2_DepthDuration_HTML.html#43,43,1366,625,1366,768,8-22-2022,7-59-47,57,depth_duration_stimuli/002663_2014-06-13_15-50-26_094959634447_rgbf000075-resize_1/002663_2014-06-13_15-50-26_094959634447_rgbf000075-resize_1-target.png,1000,4.7495,12,5420,995,feet,jsons/v1_VE1000_randls_54_rotated.json,863802,1160259,26,Man
57,835457,DepthScenes,duration_manipulation_targetAtFixation,jsons/v1_VE1000_randls_54_rotated.json,http://54.235.29.9/FacialAge/BNav_EC2/DepthDuration/v2_depth_duration_MTurk/v2_DepthDuration_HTML.html#43,43,1366,625,1366,768,8-22-2022,7-59-47,58,depth_duration_stimuli/002949_2014-06-26_15-57-42_094959634447_rgbf000079-resize_1/002949_2014-06-26_15-57-42_094959634447_rgbf000079-resize_1-target.png,1000,1.8915,3,5117,997,feet,jsons/v1_VE1000_randls_54_rotated.json,863802,1160259,26,Man
58,835457,DepthScenes,duration_manipulation_targetAtFixation,jsons/v1_VE1000_randls_54_rotated.json,http://54.235.29.9/FacialAge/BNav_EC2/DepthDuration/v2_depth_duration_MTurk/v2_DepthDuration_HTML.html#43,43,1366,625,1366,768,8-22-2022,7-59-47,59,depth_duration_stimuli/000522_2014-06-08_13-35-06_260595134347_rgbf000244-resize_1/000522_2014-06-08_13-35-06_260595134347_rgbf000244-resize_1-target.png,1000,2.3715,2,4375,999,feet,jsons/v1_VE1000_randls_54_rotated.json,863802,1160259,26,Man
59,835457,DepthScenes,duration_manipulation_targetAtFixation,jsons/v1_VE1000_randls_54_rotated.json,http://54.235.29.9/FacialAge/BNav_EC2/DepthDuration/v2_depth_duration_MTurk/v2_DepthDuration_HTML.html#43,43,1366,625,1366,768,8-22-2022,7-59-47,60,depth_duration_stimuli/000866_2014-06-09_20-45-42_260595134347_rgbf000139-resize_1/000866_2014-06-09_20-45-42_260595134347_rgbf000139-resize_1-target.png,1000,3.2155,6,4763,999,feet,jsons/v1_VE1000_randls_54_rotated.json,863802,1160259,26,Man
60,835457,DepthScenes,duration_manipulation_targetAtFixation,jsons/v1_VE1000_randls_54_rotated.json,http://54.235.29.9/FacialAge/BNav_EC2/DepthDuration/v2_depth_duration_MTurk/v2_DepthDuration_HTML.html#43,43,1366,625,1366,768,8-22-2022,7-59-47,61,depth_duration_stimuli/002989_2014-06-15_12-25-03_094959634447_rgbf000150-resize_3/002989_2014-06-15_12-25-03_094959634447_rgbf000150-resize_3-target.png,1000,4.1975,12,4859,1000,feet,jsons/v1_VE1000_randls_54_rotated.json,863802,1160259,26,Man
61,835457,DepthScenes,duration_manipulation_targetAtFixation,jsons/v1_VE1000_randls_54_rotated.json,http://54.235.29.9/FacialAge/BNav_EC2/DepthDuration/v2_depth_duration_MTurk/v2_DepthDuration_HTML.html#43,43,1366,625,1366,768,8-22-2022,7-59-47,62,depth_duration_stimuli/000927_2014-06-09_16-32-30_260595134347_rgbf000123-resize_3/000927_2014-06-09_16-32-30_260595134347_rgbf000123-resize_3-target.png,1000,2.6785,8,4225,990,feet,jsons/v1_VE1000_randls_54_rotated.json,863802,1160259,26,Man
62,835457,DepthScenes,duration_manipulation_targetAtFixation,jsons/v1_VE1000_randls_54_rotated.json,http://54.235.29.9/FacialAge/BNav_EC2/DepthDuration/v2_depth_duration_MTurk/v2_DepthDuration_HTML.html#43,43,1366,625,1366,768,8-22-2022,7-59-47,63,depth_duration_stimuli/001110_2014-06-15_17-25-28_260595134347_rgbf000150-resize_1/001110_2014-06-15_17-25-28_260595134347_rgbf000150-resize_1-target.png,1000,1.7115,4,4297,994,feet,jsons/v1_VE1000_randls_54_rotated.json,863802,1160259,26,Man
63,835457,DepthScenes,duration_manipulation_targetAtFixation,jsons/v1_VE1000_randls_54_rotated.json,http://54.235.29.9/FacialAge/BNav_EC2/DepthDuration/v2_depth_duration_MTurk/v2_DepthDuration_HTML.html#43,43,1366,625,1366,768,8-22-2022,7-59-47,64,depth_duration_stimuli/002444_2014-06-28_20-32-08_260595134347_rgbf000027-resize_0/002444_2014-06-28_20-32-08_260595134347_rgbf000027-resize_0-target.png,1000,4.388999999999999,15,4659,1005,feet,jsons/v1_VE1000_randls_54_rotated.json,863802,1160259,26,Man
64,835457,DepthScenes,duration_manipulation_targetAtFixation,jsons/v1_VE1000_randls_54_rotated.json,http://54.235.29.9/FacialAge/BNav_EC2/DepthDuration/v2_depth_duration_MTurk/v2_DepthDuration_HTML.html#43,43,1366,625,1366,768,8-22-2022,7-59-47,65,depth_duration_stimuli/000436_2014-06-09_22-25-11_260595134347_rgbf000137-resize_1/000436_2014-06-09_22-25-11_260595134347_rgbf000137-resize_1-target.png,1000,4.0705,12,4592,1014,feet,jsons/v1_VE1000_randls_54_rotated.json,863802,1160259,26,Man
65,835457,DepthScenes,duration_manipulation_targetAtFixation,jsons/v1_VE1000_randls_54_rotated.json,http://54.235.29.9/FacialAge/BNav_EC2/DepthDuration/v2_depth_duration_MTurk/v2_DepthDuration_HTML.html#43,43,1366,625,1366,768,8-22-2022,7-59-47,66,depth_duration_stimuli/001540_2014-06-20_17-01-05_260595134347_rgbf000086-resize_2/001540_2014-06-20_17-01-05_260595134347_rgbf000086-resize-original.jpg,1000,1.459,0,6167,1000,feet,jsons/v1_VE1000_randls_54_rotated.json,863802,1160259,26,Man
66,835457,DepthScenes,duration_manipulation_targetAtFixation,jsons/v1_VE1000_randls_54_rotated.json,http://54.235.29.9/FacialAge/BNav_EC2/DepthDuration/v2_depth_duration_MTurk/v2_DepthDuration_HTML.html#43,43,1366,625,1366,768,8-22-2022,7-59-47,67,depth_duration_stimuli/001516_2014-06-20_16-25-09_260595134347_rgbf000076-resize_2/001516_2014-06-20_16-25-09_260595134347_rgbf000076-resize_2-target.png,1000,1.7445,5,4047,1012,feet,jsons/v1_VE1000_randls_54_rotated.json,863802,1160259,26,Man
67,835457,DepthScenes,duration_manipulation_targetAtFixation,jsons/v1_VE1000_randls_54_rotated.json,http://54.235.29.9/FacialAge/BNav_EC2/DepthDuration/v2_depth_duration_MTurk/v2_DepthDuration_HTML.html#43,43,1366,625,1366,768,8-22-2022,7-59-47,68,depth_duration_stimuli/002118_2014-06-25_20-32-08_260595134347_rgbf000078-resize_1/002118_2014-06-25_20-32-08_260595134347_rgbf000078-resize_1-target.png,1000,2.6460000000000004,7,4049,1005,feet,jsons/v1_VE1000_randls_54_rotated.json,863802,1160259,26,Man
68,835457,DepthScenes,duration_manipulation_targetAtFixation,jsons/v1_VE1000_randls_54_rotated.json,http://54.235.29.9/FacialAge/BNav_EC2/DepthDuration/v2_depth_duration_MTurk/v2_DepthDuration_HTML.html#43,43,1366,625,1366,768,8-22-2022,7-59-47,69,depth_duration_stimuli/002209_2014-06-28_18-36-10_260595134347_rgbf000051-resize_1/002209_2014-06-28_18-36-10_260595134347_rgbf000051-resize_1-target.png,1000,2.057,4,8296,996,feet,jsons/v1_VE1000_randls_54_rotated.json,863802,1160259,26,Man
69,835457,DepthScenes,duration_manipulation_targetAtFixation,jsons/v1_VE1000_randls_54_rotated.json,http://54.235.29.9/FacialAge/BNav_EC2/DepthDuration/v2_depth_duration_MTurk/v2_DepthDuration_HTML.html#43,43,1366,625,1366,768,8-22-2022,7-59-47,70,depth_duration_stimuli/002763_2014-06-22_19-13-10_094959634447_rgbf000075-resize_4/002763_2014-06-22_19-13-10_094959634447_rgbf000075-resize_4-target.png,1000,1.68375,5,5092,1019,feet,jsons/v1_VE1000_randls_54_rotated.json,863802,1160259,26,Man
70,835457,DepthScenes,duration_manipulation_targetAtFixation,jsons/v1_VE1000_randls_54_rotated.json,http://54.235.29.9/FacialAge/BNav_EC2/DepthDuration/v2_depth_duration_MTurk/v2_DepthDuration_HTML.html#43,43,1366,625,1366,768,8-22-2022,7-59-47,71,depth_duration_stimuli/000734_2014-06-08_17-39-11_260595134347_rgbf000128-resize_2/000734_2014-06-08_17-39-11_260595134347_rgbf000128-resize_2-target.png,1000,4.098,8,4741,1011,feet,jsons/v1_VE1000_randls_54_rotated.json,863802,1160259,26,Man
71,835457,DepthScenes,duration_manipulation_targetAtFixation,jsons/v1_VE1000_randls_54_rotated.json,http://54.235.29.9/FacialAge/BNav_EC2/DepthDuration/v2_depth_duration_MTurk/v2_DepthDuration_HTML.html#43,43,1366,625,1366,768,8-22-2022,7-59-47,72,depth_duration_stimuli/000739_2014-06-08_18-45-58_260595134347_rgbf000068-resize_1/000739_2014-06-08_18-45-58_260595134347_rgbf000068-resize_1-target.png,1000,3.534,6,4379,993,feet,jsons/v1_VE1000_randls_54_rotated.json,863802,1160259,26,Man
72,835457,DepthScenes,duration_manipulation_targetAtFixation,jsons/v1_VE1000_randls_54_rotated.json,http://54.235.29.9/FacialAge/BNav_EC2/DepthDuration/v2_depth_duration_MTurk/v2_DepthDuration_HTML.html#43,43,1366,625,1366,768,8-22-2022,7-59-47,73,depth_duration_stimuli/001584_2014-06-20_11-07-43_260595134347_rgbf000002-resize_1/001584_2014-06-20_11-07-43_260595134347_rgbf000002-resize_1-target.png,1000,3.53,9,5096,999,feet,jsons/v1_VE1000_randls_54_rotated.json,863802,1160259,26,Man
73,835457,DepthScenes,duration_manipulation_targetAtFixation,jsons/v1_VE1000_randls_54_rotated.json,http://54.235.29.9/FacialAge/BNav_EC2/DepthDuration/v2_depth_duration_MTurk/v2_DepthDuration_HTML.html#43,43,1366,625,1366,768,8-22-2022,7-59-47,74,depth_duration_stimuli/003621_2014-05-23_18-06-08_094959634447_rgbf000101-resize_1/003621_2014-05-23_18-06-08_094959634447_rgbf000101-resize_1-target.png,1000,3.9835,15,4897,1002,feet,jsons/v1_VE1000_randls_54_rotated.json,863802,1160259,26,Man
74,835457,DepthScenes,duration_manipulation_targetAtFixation,jsons/v1_VE1000_randls_54_rotated.json,http://54.235.29.9/FacialAge/BNav_EC2/DepthDuration/v2_depth_duration_MTurk/v2_DepthDuration_HTML.html#43,43,1366,625,1366,768,8-22-2022,7-59-47,75,depth_duration_stimuli/002875_2014-06-01_15-19-00_094959634447_rgbf000151-resize_1/002875_2014-06-01_15-19-00_094959634447_rgbf000151-resize_1-target.png,1000,1.9675,5,5331,1011,feet,jsons/v1_VE1000_randls_54_rotated.json,863802,1160259,26,Man
75,835457,DepthScenes,duration_manipulation_targetAtFixation,jsons/v1_VE1000_randls_54_rotated.json,http://54.235.29.9/FacialAge/BNav_EC2/DepthDuration/v2_depth_duration_MTurk/v2_DepthDuration_HTML.html#43,43,1366,625,1366,768,8-22-2022,7-59-47,76,depth_duration_stimuli/001011_2014-06-08_23-18-54_260595134347_rgbf000044-resize_4/001011_2014-06-08_23-18-54_260595134347_rgbf000044-resize_4-target.png,1000,2.4730000000000003,6,4279,1011,feet,jsons/v1_VE1000_randls_54_rotated.json,863802,1160259,26,Man
76,835457,DepthScenes,duration_manipulation_targetAtFixation,jsons/v1_VE1000_randls_54_rotated.json,http://54.235.29.9/FacialAge/BNav_EC2/DepthDuration/v2_depth_duration_MTurk/v2_DepthDuration_HTML.html#43,43,1366,625,1366,768,8-22-2022,7-59-47,77,depth_duration_stimuli/002344_2014-06-28_20-06-29_260595134347_rgbf000030-resize_1/002344_2014-06-28_20-06-29_260595134347_rgbf000030-resize_1-target.png,1000,1.5795,3,6845,996,feet,jsons/v1_VE1000_randls_54_rotated.json,863802,1160259,26,Man
77,835457,DepthScenes,duration_manipulation_targetAtFixation,jsons/v1_VE1000_randls_54_rotated.json,http://54.235.29.9/FacialAge/BNav_EC2/DepthDuration/v2_depth_duration_MTurk/v2_DepthDuration_HTML.html#43,43,1366,625,1366,768,8-22-2022,7-59-47,78,depth_duration_stimuli/002725_2014-06-22_11-47-51_094959634447_rgbf000070-resize_1/002725_2014-06-22_11-47-51_094959634447_rgbf000070-resize_1-target.png,1000,2.195,5,4253,1000,feet,jsons/v1_VE1000_randls_54_rotated.json,863802,1160259,26,Man
78,835457,DepthScenes,duration_manipulation_targetAtFixation,jsons/v1_VE1000_randls_54_rotated.json,http://54.235.29.9/FacialAge/BNav_EC2/DepthDuration/v2_depth_duration_MTurk/v2_DepthDuration_HTML.html#43,43,1366,625,1366,768,8-22-2022,7-59-47,79,depth_duration_stimuli/002136_2014-06-25_21-18-03_260595134347_rgbf000109-resize_3/002136_2014-06-25_21-18-03_260595134347_rgbf000109-resize_3-target.png,1000,1.9569999999999999,3,4520,1001,feet,jsons/v1_VE1000_randls_54_rotated.json,863802,1160259,26,Man
79,835457,DepthScenes,duration_manipulation_targetAtFixation,jsons/v1_VE1000_randls_54_rotated.json,http://54.235.29.9/FacialAge/BNav_EC2/DepthDuration/v2_depth_duration_MTurk/v2_DepthDuration_HTML.html#43,43,1366,625,1366,768,8-22-2022,7-59-47,80,depth_duration_stimuli/002964_2014-06-08_17-46-11_094959634447_rgbf000091-resize_4/002964_2014-06-08_17-46-11_094959634447_rgbf000091-resize_4-target.png,1000,1.6909999999999998,2,6887,1007,feet,jsons/v1_VE1000_randls_54_rotated.json,863802,1160259,26,Man
80,835457,DepthScenes,duration_manipulation_targetAtFixation,jsons/v1_VE1000_randls_54_rotated.json,http://54.235.29.9/FacialAge/BNav_EC2/DepthDuration/v2_depth_duration_MTurk/v2_DepthDuration_HTML.html#43,43,1366,625,1366,768,8-22-2022,7-59-47,81,depth_duration_stimuli/003079_2014-06-15_15-18-20_094959634447_rgbf000152-resize_8/003079_2014-06-15_15-18-20_094959634447_rgbf000152-resize_8-target.png,1000,2.8775,6,4685,989,feet,jsons/v1_VE1000_randls_54_rotated.json,863802,1160259,26,Man
81,835457,DepthScenes,duration_manipulation_targetAtFixation,jsons/v1_VE1000_randls_54_rotated.json,http://54.235.29.9/FacialAge/BNav_EC2/DepthDuration/v2_depth_duration_MTurk/v2_DepthDuration_HTML.html#43,43,1366,625,1366,768,8-22-2022,7-59-47,82,depth_duration_stimuli/000506_2014-06-08_23-21-00_260595134347_rgbf000070-resize_7/000506_2014-06-08_23-21-00_260595134347_rgbf000070-resize_7-target.png,1000,4.0585,9,5733,1001,feet,jsons/v1_VE1000_randls_54_rotated.json,863802,1160259,26,Man
82,835457,DepthScenes,duration_manipulation_targetAtFixation,jsons/v1_VE1000_randls_54_rotated.json,http://54.235.29.9/FacialAge/BNav_EC2/DepthDuration/v2_depth_duration_MTurk/v2_DepthDuration_HTML.html#43,43,1366,625,1366,768,8-22-2022,7-59-47,83,depth_duration_stimuli/001136_2014-06-17_15-19-41_260595134347_rgbf000076-resize_3/001136_2014-06-17_15-19-41_260595134347_rgbf000076-resize_3-target.png,1000,1.8655,4,4155,1012,feet,jsons/v1_VE1000_randls_54_rotated.json,863802,1160259,26,Man
83,835457,DepthScenes,duration_manipulation_targetAtFixation,jsons/v1_VE1000_randls_54_rotated.json,http://54.235.29.9/FacialAge/BNav_EC2/DepthDuration/v2_depth_duration_MTurk/v2_DepthDuration_HTML.html#43,43,1366,625,1366,768,8-22-2022,7-59-47,84,depth_duration_stimuli/001164_2014-06-17_15-35-46_260595134347_rgbf000085-resize_3/001164_2014-06-17_15-35-46_260595134347_rgbf000085-resize_3-target.png,1000,2.354,5,4320,1000,feet,jsons/v1_VE1000_randls_54_rotated.json,863802,1160259,26,Man
84,835457,DepthScenes,duration_manipulation_targetAtFixation,jsons/v1_VE1000_randls_54_rotated.json,http://54.235.29.9/FacialAge/BNav_EC2/DepthDuration/v2_depth_duration_MTurk/v2_DepthDuration_HTML.html#43,43,1366,625,1366,768,8-22-2022,7-59-47,85,depth_duration_stimuli/002568_2014-06-24_13-59-21_094959634447_rgbf000062-resize_4/002568_2014-06-24_13-59-21_094959634447_rgbf000062-resize_4-target.png,1000,3.015,12,4448,998,feet,jsons/v1_VE1000_randls_54_rotated.json,863802,1160259,26,Man
85,835457,DepthScenes,duration_manipulation_targetAtFixation,jsons/v1_VE1000_randls_54_rotated.json,http://54.235.29.9/FacialAge/BNav_EC2/DepthDuration/v2_depth_duration_MTurk/v2_DepthDuration_HTML.html#43,43,1366,625,1366,768,8-22-2022,7-59-47,86,depth_duration_stimuli/003492_2014-05-21_15-50-55_094959634447_rgbf000828-resize_1/003492_2014-05-21_15-50-55_094959634447_rgbf000828-resize_1-target.png,1000,4.06875,14,5119,990,feet,jsons/v1_VE1000_randls_54_rotated.json,863802,1160259,26,Man
86,835457,DepthScenes,duration_manipulation_targetAtFixation,jsons/v1_VE1000_randls_54_rotated.json,http://54.235.29.9/FacialAge/BNav_EC2/DepthDuration/v2_depth_duration_MTurk/v2_DepthDuration_HTML.html#43,43,1366,625,1366,768,8-22-2022,7-59-47,87,depth_duration_stimuli/000677_2014-06-08_23-10-32_260595134347_rgbf000158-resize_6/000677_2014-06-08_23-10-32_260595134347_rgbf000158-resize_6-target.png,1000,3.556,8,4564,1010,feet,jsons/v1_VE1000_randls_54_rotated.json,863802,1160259,26,Man
87,835457,DepthScenes,duration_manipulation_targetAtFixation,jsons/v1_VE1000_randls_54_rotated.json,http://54.235.29.9/FacialAge/BNav_EC2/DepthDuration/v2_depth_duration_MTurk/v2_DepthDuration_HTML.html#43,43,1366,625,1366,768,8-22-2022,7-59-47,88,depth_duration_stimuli/001029_2014-06-08_13-17-57_260595134347_rgbf000065-resize_1/001029_2014-06-08_13-17-57_260595134347_rgbf000065-resize_1-target.png,1000,3.0835,8,4287,992,feet,jsons/v1_VE1000_randls_54_rotated.json,863802,1160259,26,Man
88,835457,DepthScenes,duration_manipulation_targetAtFixation,jsons/v1_VE1000_randls_54_rotated.json,http://54.235.29.9/FacialAge/BNav_EC2/DepthDuration/v2_depth_duration_MTurk/v2_DepthDuration_HTML.html#43,43,1366,625,1366,768,8-22-2022,7-59-47,89,depth_duration_stimuli/002750_2014-06-22_19-08-03_094959634447_rgbf000094-resize_4/002750_2014-06-22_19-08-03_094959634447_rgbf000094-resize_4-target.png,1000,2.354,5,4292,997,feet,jsons/v1_VE1000_randls_54_rotated.json,863802,1160259,26,Man
89,835457,DepthScenes,duration_manipulation_targetAtFixation,jsons/v1_VE1000_randls_54_rotated.json,http://54.235.29.9/FacialAge/BNav_EC2/DepthDuration/v2_depth_duration_MTurk/v2_DepthDuration_HTML.html#43,43,1366,625,1366,768,8-22-2022,7-59-47,90,depth_duration_stimuli/002549_2014-06-24_13-41-39_094959634447_rgbf000022-resize_3/002549_2014-06-24_13-41-39_094959634447_rgbf000022-resize_3-target.png,1000,1.476,3,4321,990,feet,jsons/v1_VE1000_randls_54_rotated.json,863802,1160259,26,Man
90,835457,DepthScenes,duration_manipulation_targetAtFixation,jsons/v1_VE1000_randls_54_rotated.json,http://54.235.29.9/FacialAge/BNav_EC2/DepthDuration/v2_depth_duration_MTurk/v2_DepthDuration_HTML.html#43,43,1366,625,1366,768,8-22-2022,7-59-47,91,depth_duration_stimuli/002340_2014-06-28_20-05-46_260595134347_rgbf000113-resize_0/002340_2014-06-28_20-05-46_260595134347_rgbf000113-resize_0-target.png,1000,2.4735,6,4064,997,feet,jsons/v1_VE1000_randls_54_rotated.json,863802,1160259,26,Man
91,835457,DepthScenes,duration_manipulation_targetAtFixation,jsons/v1_VE1000_randls_54_rotated.json,http://54.235.29.9/FacialAge/BNav_EC2/DepthDuration/v2_depth_duration_MTurk/v2_DepthDuration_HTML.html#43,43,1366,625,1366,768,8-22-2022,7-59-47,92,depth_duration_stimuli/001016_2014-06-09_16-16-10_260595134347_rgbf000112-resize_5/001016_2014-06-09_16-16-10_260595134347_rgbf000112-resize_5-target.png,1000,1.6565,4,4454,1002,feet,jsons/v1_VE1000_randls_54_rotated.json,863802,1160259,26,Man
92,835457,DepthScenes,duration_manipulation_targetAtFixation,jsons/v1_VE1000_randls_54_rotated.json,http://54.235.29.9/FacialAge/BNav_EC2/DepthDuration/v2_depth_duration_MTurk/v2_DepthDuration_HTML.html#43,43,1366,625,1366,768,8-22-2022,7-59-47,93,depth_duration_stimuli/000749_2014-06-08_21-55-06_260595134347_rgbf000070-resize_2/000749_2014-06-08_21-55-06_260595134347_rgbf000070-resize_2-target.png,1000,2.331,6,4692,988,feet,jsons/v1_VE1000_randls_54_rotated.json,863802,1160259,26,Man
93,835457,DepthScenes,duration_manipulation_targetAtFixation,jsons/v1_VE1000_randls_54_rotated.json,http://54.235.29.9/FacialAge/BNav_EC2/DepthDuration/v2_depth_duration_MTurk/v2_DepthDuration_HTML.html#43,43,1366,625,1366,768,8-22-2022,7-59-47,94,depth_duration_stimuli/002788_2014-06-22_19-36-03_094959634447_rgbf000088-resize_2/002788_2014-06-22_19-36-03_094959634447_rgbf000088-resize_2-target.png,1000,1.6465,7,4750,1000,feet,jsons/v1_VE1000_randls_54_rotated.json,863802,1160259,26,Man
94,835457,DepthScenes,duration_manipulation_targetAtFixation,jsons/v1_VE1000_randls_54_rotated.json,http://54.235.29.9/FacialAge/BNav_EC2/DepthDuration/v2_depth_duration_MTurk/v2_DepthDuration_HTML.html#43,43,1366,625,1366,768,8-22-2022,7-59-47,95,depth_duration_stimuli/003228_2014-05-14_13-42-35_094959634447_rgbf000101-resize_1/003228_2014-05-14_13-42-35_094959634447_rgbf000101-resize_1-target.png,1000,1.9680000000000002,3,4211,996,feet,jsons/v1_VE1000_randls_54_rotated.json,863802,1160259,26,Man
95,835457,DepthScenes,duration_manipulation_targetAtFixation,jsons/v1_VE1000_randls_54_rotated.json,http://54.235.29.9/FacialAge/BNav_EC2/DepthDuration/v2_depth_duration_MTurk/v2_DepthDuration_HTML.html#43,43,1366,625,1366,768,8-22-2022,7-59-47,96,depth_duration_stimuli/002600_2014-06-24_14-27-04_094959634447_rgbf000074-resize_2/002600_2014-06-24_14-27-04_094959634447_rgbf000074-resize_2-target.png,1000,2.7575,7,4491,1007,feet,jsons/v1_VE1000_randls_54_rotated.json,863802,1160259,26,Man
96,835457,DepthScenes,duration_manipulation_targetAtFixation,jsons/v1_VE1000_randls_54_rotated.json,http://54.235.29.9/FacialAge/BNav_EC2/DepthDuration/v2_depth_duration_MTurk/v2_DepthDuration_HTML.html#43,43,1366,625,1366,768,8-22-2022,7-59-47,97,depth_duration_stimuli/000556_2014-06-09_22-42-56_260595134347_rgbf000214-resize_1/000556_2014-06-09_22-42-56_260595134347_rgbf000214-resize_1-target.png,1000,4.8415,6,7310,998,feet,jsons/v1_VE1000_randls_54_rotated.json,863802,1160259,26,Man
97,835457,DepthScenes,duration_manipulation_targetAtFixation,jsons/v1_VE1000_randls_54_rotated.json,http://54.235.29.9/FacialAge/BNav_EC2/DepthDuration/v2_depth_duration_MTurk/v2_DepthDuration_HTML.html#43,43,1366,625,1366,768,8-22-2022,7-59-47,98,depth_duration_stimuli/001158_2014-06-17_15-32-16_260595134347_rgbf000138-resize_2/001158_2014-06-17_15-32-16_260595134347_rgbf000138-resize_2-target.png,1000,4.5315,9,4255,990,feet,jsons/v1_VE1000_randls_54_rotated.json,863802,1160259,26,Man
98,835457,DepthScenes,duration_manipulation_targetAtFixation,jsons/v1_VE1000_randls_54_rotated.json,http://54.235.29.9/FacialAge/BNav_EC2/DepthDuration/v2_depth_duration_MTurk/v2_DepthDuration_HTML.html#43,43,1366,625,1366,768,8-22-2022,7-59-47,99,depth_duration_stimuli/001222_2014-06-17_16-24-06_260595134347_rgbf000073-resize_0/001222_2014-06-17_16-24-06_260595134347_rgbf000073-resize-original.jpg,1000,1.4385,0,4307,989,feet,jsons/v1_VE1000_randls_54_rotated.json,863802,1160259,26,Man
99,835457,DepthScenes,duration_manipulation_targetAtFixation,jsons/v1_VE1000_randls_54_rotated.json,http://54.235.29.9/FacialAge/BNav_EC2/DepthDuration/v2_depth_duration_MTurk/v2_DepthDuration_HTML.html#43,43,1366,625,1366,768,8-22-2022,7-59-47,100,depth_duration_stimuli/001447_2014-06-19_17-00-32_260595134347_rgbf000082-resize_5/001447_2014-06-19_17-00-32_260595134347_rgbf000082-resize_5-target.png,1000,4.13775,7,4116,1007,feet,jsons/v1_VE1000_randls_54_rotated.json,863802,1160259,26,Man
100,835457,DepthScenes,duration_manipulation_targetAtFixation,jsons/v1_VE1000_randls_54_rotated.json,http://54.235.29.9/FacialAge/BNav_EC2/DepthDuration/v2_depth_duration_MTurk/v2_DepthDuration_HTML.html#43,43,1366,625,1366,768,8-22-2022,7-59-47,101,depth_duration_stimuli/000447_2014-06-08_16-15-46_260595134347_rgbf000130-resize_1/000447_2014-06-08_16-15-46_260595134347_rgbf000130-resize_1-target.png,1000,4.479,14,4659,1002,feet,jsons/v1_VE1000_randls_54_rotated.json,863802,1160259,26,Man
101,835457,DepthScenes,duration_manipulation_targetAtFixation,jsons/v1_VE1000_randls_54_rotated.json,http://54.235.29.9/FacialAge/BNav_EC2/DepthDuration/v2_depth_duration_MTurk/v2_DepthDuration_HTML.html#43,43,1366,625,1366,768,8-22-2022,7-59-47,102,depth_duration_stimuli/003490_2014-05-21_15-50-11_094959634447_rgbf000101-resize_3/003490_2014-05-21_15-50-11_094959634447_rgbf000101-resize_3-target.png,1000,3.6445,9,5994,1003,feet,jsons/v1_VE1000_randls_54_rotated.json,863802,1160259,26,Man
102,835457,DepthScenes,duration_manipulation_targetAtFixation,jsons/v1_VE1000_randls_54_rotated.json,http://54.235.29.9/FacialAge/BNav_EC2/DepthDuration/v2_depth_duration_MTurk/v2_DepthDuration_HTML.html#43,43,1366,625,1366,768,8-22-2022,7-59-47,103,depth_duration_stimuli/001175_2014-06-17_15-45-55_260595134347_rgbf000129-resize_4/001175_2014-06-17_15-45-55_260595134347_rgbf000129-resize_4-target.png,1000,4.255,15,5489,1000,feet,jsons/v1_VE1000_randls_54_rotated.json,863802,1160259,26,Man
103,835457,DepthScenes,duration_manipulation_targetAtFixation,jsons/v1_VE1000_randls_54_rotated.json,http://54.235.29.9/FacialAge/BNav_EC2/DepthDuration/v2_depth_duration_MTurk/v2_DepthDuration_HTML.html#43,43,1366,625,1366,768,8-22-2022,7-59-47,104,depth_duration_stimuli/002637_2014-06-24_14-51-13_094959634447_rgbf000066-resize_4/002637_2014-06-24_14-51-13_094959634447_rgbf000066-resize_4-target.png,1000,1.9955,5,6061,996,feet,jsons/v1_VE1000_randls_54_rotated.json,863802,1160259,26,Man
104,835457,DepthScenes,duration_manipulation_targetAtFixation,jsons/v1_VE1000_randls_54_rotated.json,http://54.235.29.9/FacialAge/BNav_EC2/DepthDuration/v2_depth_duration_MTurk/v2_DepthDuration_HTML.html#43,43,1366,625,1366,768,8-22-2022,7-59-47,105,depth_duration_stimuli/003534_2014-05-22_15-06-10_094959634447_rgbf000102-resize_4/003534_2014-05-22_15-06-10_094959634447_rgbf000102-resize_4-target.png,1000,1.426,1,4602,999,feet,jsons/v1_VE1000_randls_54_rotated.json,863802,1160259,26,Man
105,835457,DepthScenes,duration_manipulation_targetAtFixation,jsons/v1_VE1000_randls_54_rotated.json,http://54.235.29.9/FacialAge/BNav_EC2/DepthDuration/v2_depth_duration_MTurk/v2_DepthDuration_HTML.html#43,43,1366,625,1366,768,8-22-2022,7-59-47,106,depth_duration_stimuli/002545_2014-06-24_13-38-53_094959634447_rgbf000080-resize_4/002545_2014-06-24_13-38-53_094959634447_rgbf000080-resize_4-target.png,1000,1.9205,5,6145,1001,feet,jsons/v1_VE1000_randls_54_rotated.json,863802,1160259,26,Man
106,835457,DepthScenes,duration_manipulation_targetAtFixation,jsons/v1_VE1000_randls_54_rotated.json,http://54.235.29.9/FacialAge/BNav_EC2/DepthDuration/v2_depth_duration_MTurk/v2_DepthDuration_HTML.html#43,43,1366,625,1366,768,8-22-2022,7-59-47,107,depth_duration_stimuli/001092_2014-06-15_17-34-58_260595134347_rgbf000171-resize_3/001092_2014-06-15_17-34-58_260595134347_rgbf000171-resize_3-target.png,1000,2.6935,4,4373,1001,feet,jsons/v1_VE1000_randls_54_rotated.json,863802,1160259,26,Man
107,835457,DepthScenes,duration_manipulation_targetAtFixation,jsons/v1_VE1000_randls_54_rotated.json,http://54.235.29.9/FacialAge/BNav_EC2/DepthDuration/v2_depth_duration_MTurk/v2_DepthDuration_HTML.html#43,43,1366,625,1366,768,8-22-2022,7-59-47,108,depth_duration_stimuli/003129_2014-05-12_10-48-10_094959634447_rgbf000100-resize_0/003129_2014-05-12_10-48-10_094959634447_rgbf000100-resize_0-target.png,1000,4.9305,8,4261,1002,feet,jsons/v1_VE1000_randls_54_rotated.json,863802,1160259,26,Man
108,835457,DepthScenes,duration_manipulation_targetAtFixation,jsons/v1_VE1000_randls_54_rotated.json,http://54.235.29.9/FacialAge/BNav_EC2/DepthDuration/v2_depth_duration_MTurk/v2_DepthDuration_HTML.html#43,43,1366,625,1366,768,8-22-2022,7-59-47,109,depth_duration_stimuli/000414_2014-06-04_19-49-13_260595134347_rgbf000044-resize_0/000414_2014-06-04_19-49-13_260595134347_rgbf000044-resize_0-target.png,1000,4.329,12,4404,990,feet,jsons/v1_VE1000_randls_54_rotated.json,863802,1160259,26,Man
109,835457,DepthScenes,duration_manipulation_targetAtFixation,jsons/v1_VE1000_randls_54_rotated.json,http://54.235.29.9/FacialAge/BNav_EC2/DepthDuration/v2_depth_duration_MTurk/v2_DepthDuration_HTML.html#43,43,1366,625,1366,768,8-22-2022,7-59-47,110,depth_duration_stimuli/000635_2014-06-08_16-38-42_260595134347_rgbf000106-resize_1/000635_2014-06-08_16-38-42_260595134347_rgbf000106-resize_1-target.png,1000,2.074,6,4616,1013,feet,jsons/v1_VE1000_randls_54_rotated.json,863802,1160259,26,Man
110,835457,DepthScenes,duration_manipulation_targetAtFixation,jsons/v1_VE1000_randls_54_rotated.json,http://54.235.29.9/FacialAge/BNav_EC2/DepthDuration/v2_depth_duration_MTurk/v2_DepthDuration_HTML.html#43,43,1366,625,1366,768,8-22-2022,7-59-47,111,depth_duration_stimuli/002279_2014-06-28_18-55-32_260595134347_rgbf000040-resize_5/002279_2014-06-28_18-55-32_260595134347_rgbf000040-resize_5-target.png,1000,1.5043333333333,2,4190,995,feet,jsons/v1_VE1000_randls_54_rotated.json,863802,1160259,26,Man
111,835457,DepthScenes,duration_manipulation_targetAtFixation,jsons/v1_VE1000_randls_54_rotated.json,http://54.235.29.9/FacialAge/BNav_EC2/DepthDuration/v2_depth_duration_MTurk/v2_DepthDuration_HTML.html#43,43,1366,625,1366,768,8-22-2022,7-59-47,112,depth_duration_stimuli/000483_2014-06-09_20-41-45_260595134347_rgbf000116-resize_4/000483_2014-06-09_20-41-45_260595134347_rgbf000116-resize_4-target.png,1000,1.337,2,4347,997,feet,jsons/v1_VE1000_randls_54_rotated.json,863802,1160259,26,Man
112,835457,DepthScenes,duration_manipulation_targetAtFixation,jsons/v1_VE1000_randls_54_rotated.json,http://54.235.29.9/FacialAge/BNav_EC2/DepthDuration/v2_depth_duration_MTurk/v2_DepthDuration_HTML.html#43,43,1366,625,1366,768,8-22-2022,7-59-47,113,depth_duration_stimuli/000469_2014-06-09_19-42-10_260595134347_rgbf000081-resize_1/000469_2014-06-09_19-42-10_260595134347_rgbf000081-resize_1-target.png,1000,1.652,2,4246,999,feet,jsons/v1_VE1000_randls_54_rotated.json,863802,1160259,26,Man
113,835457,DepthScenes,duration_manipulation_targetAtFixation,jsons/v1_VE1000_randls_54_rotated.json,http://54.235.29.9/FacialAge/BNav_EC2/DepthDuration/v2_depth_duration_MTurk/v2_DepthDuration_HTML.html#43,43,1366,625,1366,768,8-22-2022,7-59-47,114,depth_duration_stimuli/003423_2014-05-21_10-23-26_094959634447_rgbf002665-resize_2/003423_2014-05-21_10-23-26_094959634447_rgbf002665-resize_2-target.png,1000,3.2575,8,4112,1000,feet,jsons/v1_VE1000_randls_54_rotated.json,863802,1160259,26,Man
114,835457,DepthScenes,duration_manipulation_targetAtFixation,jsons/v1_VE1000_randls_54_rotated.json,http://54.235.29.9/FacialAge/BNav_EC2/DepthDuration/v2_depth_duration_MTurk/v2_DepthDuration_HTML.html#43,43,1366,625,1366,768,8-22-2022,7-59-47,115,depth_duration_stimuli/002905_2014-06-03_18-04-43_094959634447_rgbf000151-resize_2/002905_2014-06-03_18-04-43_094959634447_rgbf000151-resize_2-target.png,1000,2.0295,4,5181,997,feet,jsons/v1_VE1000_randls_54_rotated.json,863802,1160259,26,Man
115,835457,DepthScenes,duration_manipulation_targetAtFixation,jsons/v1_VE1000_randls_54_rotated.json,http://54.235.29.9/FacialAge/BNav_EC2/DepthDuration/v2_depth_duration_MTurk/v2_DepthDuration_HTML.html#43,43,1366,625,1366,768,8-22-2022,7-59-47,116,depth_duration_stimuli/003495_2014-05-21_16-01-51_094959634447_rgbf000100-resize_3/003495_2014-05-21_16-01-51_094959634447_rgbf000100-resize_3-target.png,1000,1.6255,3,4053,1008,feet,jsons/v1_VE1000_randls_54_rotated.json,863802,1160259,26,Man
116,835457,DepthScenes,duration_manipulation_targetAtFixation,jsons/v1_VE1000_randls_54_rotated.json,http://54.235.29.9/FacialAge/BNav_EC2/DepthDuration/v2_depth_duration_MTurk/v2_DepthDuration_HTML.html#43,43,1366,625,1366,768,8-22-2022,7-59-47,117,depth_duration_stimuli/001244_2014-06-17_16-47-45_260595134347_rgbf000030-resize_4/001244_2014-06-17_16-47-45_260595134347_rgbf000030-resize_4-target.png,1000,2.0425,4,4164,997,feet,jsons/v1_VE1000_randls_54_rotated.json,863802,1160259,26,Man
117,835457,DepthScenes,duration_manipulation_targetAtFixation,jsons/v1_VE1000_randls_54_rotated.json,http://54.235.29.9/FacialAge/BNav_EC2/DepthDuration/v2_depth_duration_MTurk/v2_DepthDuration_HTML.html#43,43,1366,625,1366,768,8-22-2022,7-59-47,118,depth_duration_stimuli/002199_2014-06-28_18-33-56_260595134347_rgbf000074-resize_0/002199_2014-06-28_18-33-56_260595134347_rgbf000074-resize_0-target.png,1000,1.996,2,4076,1010,feet,jsons/v1_VE1000_randls_54_rotated.json,863802,1160259,26,Man
118,835457,DepthScenes,duration_manipulation_targetAtFixation,jsons/v1_VE1000_randls_54_rotated.json,http://54.235.29.9/FacialAge/BNav_EC2/DepthDuration/v2_depth_duration_MTurk/v2_DepthDuration_HTML.html#43,43,1366,625,1366,768,8-22-2022,7-59-47,119,depth_duration_stimuli/001056_2014-06-08_18-46-44_260595134347_rgbf000068-resize_0/001056_2014-06-08_18-46-44_260595134347_rgbf000068-resize_0-target.png,1000,2.6625,6,4233,988,feet,jsons/v1_VE1000_randls_54_rotated.json,863802,1160259,26,Man
119,835457,DepthScenes,duration_manipulation_targetAtFixation,jsons/v1_VE1000_randls_54_rotated.json,http://54.235.29.9/FacialAge/BNav_EC2/DepthDuration/v2_depth_duration_MTurk/v2_DepthDuration_HTML.html#43,43,1366,625,1366,768,8-22-2022,7-59-47,120,depth_duration_stimuli/000787_2014-06-08_22-33-53_260595134347_rgbf000175-resize_1/000787_2014-06-08_22-33-53_260595134347_rgbf000175-resize-original.jpg,1000,4.784,0,4939,995,feet,jsons/v1_VE1000_randls_54_rotated.json,863802,1160259,26,Man
120,835457,DepthScenes,duration_manipulation_targetAtFixation,jsons/v1_VE1000_randls_54_rotated.json,http://54.235.29.9/FacialAge/BNav_EC2/DepthDuration/v2_depth_duration_MTurk/v2_DepthDuration_HTML.html#43,43,1366,625,1366,768,8-22-2022,7-59-47,121,depth_duration_stimuli/002414_2014-06-28_20-24-58_260595134347_rgbf000067-resize_4/002414_2014-06-28_20-24-58_260595134347_rgbf000067-resize_4-target.png,1000,4.363,9,4701,1000,feet,jsons/v1_VE1000_randls_54_rotated.json,863802,1160259,26,Man
121,835457,DepthScenes,duration_manipulation_targetAtFixation,jsons/v1_VE1000_randls_54_rotated.json,http://54.235.29.9/FacialAge/BNav_EC2/DepthDuration/v2_depth_duration_MTurk/v2_DepthDuration_HTML.html#43,43,1366,625,1366,768,8-22-2022,7-59-47,122,depth_duration_stimuli/000773_2014-06-08_22-24-54_260595134347_rgbf000093-resize_1/000773_2014-06-08_22-24-54_260595134347_rgbf000093-resize_1-target.png,1000,4.973,12,4700,999,feet,jsons/v1_VE1000_randls_54_rotated.json,863802,1160259,26,Man
122,835457,DepthScenes,duration_manipulation_targetAtFixation,jsons/v1_VE1000_randls_54_rotated.json,http://54.235.29.9/FacialAge/BNav_EC2/DepthDuration/v2_depth_duration_MTurk/v2_DepthDuration_HTML.html#43,43,1366,625,1366,768,8-22-2022,7-59-47,123,depth_duration_stimuli/001450_2014-06-19_17-02-03_260595134347_rgbf000203-resize_4/001450_2014-06-19_17-02-03_260595134347_rgbf000203-resize_4-target.png,1000,4.0106666666667,13,4900,999,feet,jsons/v1_VE1000_randls_54_rotated.json,863802,1160259,26,Man
123,835457,DepthScenes,duration_manipulation_targetAtFixation,jsons/v1_VE1000_randls_54_rotated.json,http://54.235.29.9/FacialAge/BNav_EC2/DepthDuration/v2_depth_duration_MTurk/v2_DepthDuration_HTML.html#43,43,1366,625,1366,768,8-22-2022,7-59-47,124,depth_duration_stimuli/001449_2014-06-19_17-01-27_260595134347_rgbf000116-resize_2/001449_2014-06-19_17-01-27_260595134347_rgbf000116-resize_2-target.png,1000,3.452,8,4135,997,feet,jsons/v1_VE1000_randls_54_rotated.json,863802,1160259,26,Man
124,835457,DepthScenes,duration_manipulation_targetAtFixation,jsons/v1_VE1000_randls_54_rotated.json,http://54.235.29.9/FacialAge/BNav_EC2/DepthDuration/v2_depth_duration_MTurk/v2_DepthDuration_HTML.html#43,43,1366,625,1366,768,8-22-2022,7-59-47,125,depth_duration_stimuli/001650_2014-06-20_12-09-00_260595134347_rgbf000087-resize_3/001650_2014-06-20_12-09-00_260595134347_rgbf000087-resize_3-target.png,1000,1.9505,3,4321,999,feet,jsons/v1_VE1000_randls_54_rotated.json,863802,1160259,26,Man
125,835457,DepthScenes,duration_manipulation_targetAtFixation,jsons/v1_VE1000_randls_54_rotated.json,http://54.235.29.9/FacialAge/BNav_EC2/DepthDuration/v2_depth_duration_MTurk/v2_DepthDuration_HTML.html#43,43,1366,625,1366,768,8-22-2022,7-59-47,126,depth_duration_stimuli/000682_2014-06-08_23-14-58_260595134347_rgbf000041-resize_5/000682_2014-06-08_23-14-58_260595134347_rgbf000041-resize_5-target.png,1000,2.7239999999999998,5,5160,990,feet,jsons/v1_VE1000_randls_54_rotated.json,863802,1160259,26,Man
126,835457,DepthScenes,duration_manipulation_targetAtFixation,jsons/v1_VE1000_randls_54_rotated.json,http://54.235.29.9/FacialAge/BNav_EC2/DepthDuration/v2_depth_duration_MTurk/v2_DepthDuration_HTML.html#43,43,1366,625,1366,768,8-22-2022,7-59-47,127,depth_duration_stimuli/002758_2014-06-22_19-11-20_094959634447_rgbf000128-resize_1/002758_2014-06-22_19-11-20_094959634447_rgbf000128-resize_1-target.png,1000,2.555,6,5333,995,feet,jsons/v1_VE1000_randls_54_rotated.json,863802,1160259,26,Man
127,835457,DepthScenes,duration_manipulation_targetAtFixation,jsons/v1_VE1000_randls_54_rotated.json,http://54.235.29.9/FacialAge/BNav_EC2/DepthDuration/v2_depth_duration_MTurk/v2_DepthDuration_HTML.html#43,43,1366,625,1366,768,8-22-2022,7-59-47,128,depth_duration_stimuli/002630_2014-06-24_14-47-50_094959634447_rgbf000055-resize_1/002630_2014-06-24_14-47-50_094959634447_rgbf000055-resize_1-target.png,1000,3.0095,8,6409,998,feet,jsons/v1_VE1000_randls_54_rotated.json,863802,1160259,26,Man
128,835457,DepthScenes,duration_manipulation_targetAtFixation,jsons/v1_VE1000_randls_54_rotated.json,http://54.235.29.9/FacialAge/BNav_EC2/DepthDuration/v2_depth_duration_MTurk/v2_DepthDuration_HTML.html#43,43,1366,625,1366,768,8-22-2022,7-59-47,129,depth_duration_stimuli/002995_2014-06-15_12-31-26_094959634447_rgbf000150-resize_1/002995_2014-06-15_12-31-26_094959634447_rgbf000150-resize_1-target.png,1000,3.8360000000000003,8,4567,995,feet,jsons/v1_VE1000_randls_54_rotated.json,863802,1160259,26,Man
129,835457,DepthScenes,duration_manipulation_targetAtFixation,jsons/v1_VE1000_randls_54_rotated.json,http://54.235.29.9/FacialAge/BNav_EC2/DepthDuration/v2_depth_duration_MTurk/v2_DepthDuration_HTML.html#43,43,1366,625,1366,768,8-22-2022,7-59-47,130,depth_duration_stimuli/002748_2014-06-22_19-07-22_094959634447_rgbf000078-resize_1/002748_2014-06-22_19-07-22_094959634447_rgbf000078-resize_1-target.png,1000,4.6705,12,4457,998,feet,jsons/v1_VE1000_randls_54_rotated.json,863802,1160259,26,Man
130,835457,DepthScenes,duration_manipulation_targetAtFixation,jsons/v1_VE1000_randls_54_rotated.json,http://54.235.29.9/FacialAge/BNav_EC2/DepthDuration/v2_depth_duration_MTurk/v2_DepthDuration_HTML.html#43,43,1366,625,1366,768,8-22-2022,7-59-47,131,depth_duration_stimuli/000854_2014-06-09_19-43-13_260595134347_rgbf000066-resize_0/000854_2014-06-09_19-43-13_260595134347_rgbf000066-resize_0-target.png,1000,3.068,4,7652,1009,feet,jsons/v1_VE1000_randls_54_rotated.json,863802,1160259,26,Man
131,835457,DepthScenes,duration_manipulation_targetAtFixation,jsons/v1_VE1000_randls_54_rotated.json,http://54.235.29.9/FacialAge/BNav_EC2/DepthDuration/v2_depth_duration_MTurk/v2_DepthDuration_HTML.html#43,43,1366,625,1366,768,8-22-2022,7-59-47,132,depth_duration_stimuli/000758_2014-06-08_22-05-08_260595134347_rgbf000085-resize_0/000758_2014-06-08_22-05-08_260595134347_rgbf000085-resize_0-target.png,1000,3.3810000000000002,9,5622,1008,feet,jsons/v1_VE1000_randls_54_rotated.json,863802,1160259,26,Man
132,835457,DepthScenes,duration_manipulation_targetAtFixation,jsons/v1_VE1000_randls_54_rotated.json,http://54.235.29.9/FacialAge/BNav_EC2/DepthDuration/v2_depth_duration_MTurk/v2_DepthDuration_HTML.html#43,43,1366,625,1366,768,8-22-2022,7-59-47,133,depth_duration_stimuli/002425_2014-06-28_20-27-29_260595134347_rgbf000031-resize_8/002425_2014-06-28_20-27-29_260595134347_rgbf000031-resize_8-target.png,1000,3.8960000000000004,8,6425,1011,feet,jsons/v1_VE1000_randls_54_rotated.json,863802,1160259,26,Man
133,835457,DepthScenes,duration_manipulation_targetAtFixation,jsons/v1_VE1000_randls_54_rotated.json,http://54.235.29.9/FacialAge/BNav_EC2/DepthDuration/v2_depth_duration_MTurk/v2_DepthDuration_HTML.html#43,43,1366,625,1366,768,8-22-2022,7-59-47,134,depth_duration_stimuli/000642_2014-06-08_16-59-25_260595134347_rgbf000098-resize_2/000642_2014-06-08_16-59-25_260595134347_rgbf000098-resize_2-target.png,1000,2.8815,6,4782,1002,feet,jsons/v1_VE1000_randls_54_rotated.json,863802,1160259,26,Man
134,835457,DepthScenes,duration_manipulation_targetAtFixation,jsons/v1_VE1000_randls_54_rotated.json,http://54.235.29.9/FacialAge/BNav_EC2/DepthDuration/v2_depth_duration_MTurk/v2_DepthDuration_HTML.html#43,43,1366,625,1366,768,8-22-2022,7-59-47,135,depth_duration_stimuli/000375_2014-06-08_11-17-29_260595134347_rgbf000133-resize_2/000375_2014-06-08_11-17-29_260595134347_rgbf000133-resize-original.jpg,1000,4.718,0,4873,998,feet,jsons/v1_VE1000_randls_54_rotated.json,863802,1160259,26,Man
135,835457,DepthScenes,duration_manipulation_targetAtFixation,jsons/v1_VE1000_randls_54_rotated.json,http://54.235.29.9/FacialAge/BNav_EC2/DepthDuration/v2_depth_duration_MTurk/v2_DepthDuration_HTML.html#43,43,1366,625,1366,768,8-22-2022,7-59-47,136,depth_duration_stimuli/001617_2014-06-20_11-35-32_260595134347_rgbf000066-resize_1/001617_2014-06-20_11-35-32_260595134347_rgbf000066-resize_1-target.png,1000,3.7910000000000004,9,3895,989,feet,jsons/v1_VE1000_randls_54_rotated.json,863802,1160259,26,Man
136,835457,DepthScenes,duration_manipulation_targetAtFixation,jsons/v1_VE1000_randls_54_rotated.json,http://54.235.29.9/FacialAge/BNav_EC2/DepthDuration/v2_depth_duration_MTurk/v2_DepthDuration_HTML.html#43,43,1366,625,1366,768,8-22-2022,7-59-47,137,depth_duration_stimuli/001806_2014-06-26_20-50-20_260595134347_rgbf000091-resize_1/001806_2014-06-26_20-50-20_260595134347_rgbf000091-resize_1-target.png,1000,2.7305,4,4102,1010,feet,jsons/v1_VE1000_randls_54_rotated.json,863802,1160259,26,Man
137,835457,DepthScenes,duration_manipulation_targetAtFixation,jsons/v1_VE1000_randls_54_rotated.json,http://54.235.29.9/FacialAge/BNav_EC2/DepthDuration/v2_depth_duration_MTurk/v2_DepthDuration_HTML.html#43,43,1366,625,1366,768,8-22-2022,7-59-47,138,depth_duration_stimuli/000549_2014-06-08_22-10-24_260595134347_rgbf000247-resize_3/000549_2014-06-08_22-10-24_260595134347_rgbf000247-resize_3-target.png,1000,1.841,2,4408,1002,feet,jsons/v1_VE1000_randls_54_rotated.json,863802,1160259,26,Man
138,835457,DepthScenes,duration_manipulation_targetAtFixation,jsons/v1_VE1000_randls_54_rotated.json,http://54.235.29.9/FacialAge/BNav_EC2/DepthDuration/v2_depth_duration_MTurk/v2_DepthDuration_HTML.html#43,43,1366,625,1366,768,8-22-2022,7-59-47,139,depth_duration_stimuli/001055_2014-06-08_18-45-35_260595134347_rgbf000111-resize_4/001055_2014-06-08_18-45-35_260595134347_rgbf000111-resize_4-target.png,1000,2.4290000000000003,5,6924,995,feet,jsons/v1_VE1000_randls_54_rotated.json,863802,1160259,26,Man
139,835457,DepthScenes,duration_manipulation_targetAtFixation,jsons/v1_VE1000_randls_54_rotated.json,http://54.235.29.9/FacialAge/BNav_EC2/DepthDuration/v2_depth_duration_MTurk/v2_DepthDuration_HTML.html#43,43,1366,625,1366,768,8-22-2022,7-59-47,140,depth_duration_stimuli/000457_2014-06-08_16-52-43_260595134347_rgbf000199-resize_1/000457_2014-06-08_16-52-43_260595134347_rgbf000199-resize_1-target.png,1000,3.6489999999999996,5,5358,999,feet,jsons/v1_VE1000_randls_54_rotated.json,863802,1160259,26,Man
140,835457,DepthScenes,duration_manipulation_targetAtFixation,jsons/v1_VE1000_randls_54_rotated.json,http://54.235.29.9/FacialAge/BNav_EC2/DepthDuration/v2_depth_duration_MTurk/v2_DepthDuration_HTML.html#43,43,1366,625,1366,768,8-22-2022,7-59-47,141,depth_duration_stimuli/000929_2014-06-09_16-33-19_260595134347_rgbf000139-resize_0/000929_2014-06-09_16-33-19_260595134347_rgbf000139-resize_0-target.png,1000,2.8680000000000003,4,4192,999,feet,jsons/v1_VE1000_randls_54_rotated.json,863802,1160259,26,Man
141,835457,DepthScenes,duration_manipulation_targetAtFixation,jsons/v1_VE1000_randls_54_rotated.json,http://54.235.29.9/FacialAge/BNav_EC2/DepthDuration/v2_depth_duration_MTurk/v2_DepthDuration_HTML.html#43,43,1366,625,1366,768,8-22-2022,7-59-47,142,depth_duration_stimuli/003048_2014-06-15_13-49-43_094959634447_rgbf000150-resize_1/003048_2014-06-15_13-49-43_094959634447_rgbf000150-resize_1-target.png,1000,4.0035,9,4145,1005,feet,jsons/v1_VE1000_randls_54_rotated.json,863802,1160259,26,Man
142,835457,DepthScenes,duration_manipulation_targetAtFixation,jsons/v1_VE1000_randls_54_rotated.json,http://54.235.29.9/FacialAge/BNav_EC2/DepthDuration/v2_depth_duration_MTurk/v2_DepthDuration_HTML.html#43,43,1366,625,1366,768,8-22-2022,7-59-47,143,depth_duration_stimuli/002043_2014-06-24_20-29-38_260595134347_rgbf000039-resize_4/002043_2014-06-24_20-29-38_260595134347_rgbf000039-resize_4-target.png,1000,2.8435,9,4116,993,feet,jsons/v1_VE1000_randls_54_rotated.json,863802,1160259,26,Man
143,835457,DepthScenes,duration_manipulation_targetAtFixation,jsons/v1_VE1000_randls_54_rotated.json,http://54.235.29.9/FacialAge/BNav_EC2/DepthDuration/v2_depth_duration_MTurk/v2_DepthDuration_HTML.html#43,43,1366,625,1366,768,8-22-2022,7-59-47,144,depth_duration_stimuli/002660_2014-06-13_15-44-18_094959634447_rgbf001878-resize_2/002660_2014-06-13_15-44-18_094959634447_rgbf001878-resize_2-target.png,1000,3.576,11,4417,998,feet,jsons/v1_VE1000_randls_54_rotated.json,863802,1160259,26,Man
144,835457,DepthScenes,duration_manipulation_targetAtFixation,jsons/v1_VE1000_randls_54_rotated.json,http://54.235.29.9/FacialAge/BNav_EC2/DepthDuration/v2_depth_duration_MTurk/v2_DepthDuration_HTML.html#43,43,1366,625,1366,768,8-22-2022,7-59-47,145,depth_duration_stimuli/002153_2014-06-25_21-27-18_260595134347_rgbf000038-resize_5/002153_2014-06-25_21-27-18_260595134347_rgbf000038-resize_5-target.png,1000,2.505,5,4104,997,feet,jsons/v1_VE1000_randls_54_rotated.json,863802,1160259,26,Man
145,835457,DepthScenes,duration_manipulation_targetAtFixation,jsons/v1_VE1000_randls_54_rotated.json,http://54.235.29.9/FacialAge/BNav_EC2/DepthDuration/v2_depth_duration_MTurk/v2_DepthDuration_HTML.html#43,43,1366,625,1366,768,8-22-2022,7-59-47,146,depth_duration_stimuli/003083_2014-06-15_15-21-03_094959634447_rgbf000063-resize_1/003083_2014-06-15_15-21-03_094959634447_rgbf000063-resize_1-target.png,1000,4.1405,9,5169,1002,feet,jsons/v1_VE1000_randls_54_rotated.json,863802,1160259,26,Man
146,835457,DepthScenes,duration_manipulation_targetAtFixation,jsons/v1_VE1000_randls_54_rotated.json,http://54.235.29.9/FacialAge/BNav_EC2/DepthDuration/v2_depth_duration_MTurk/v2_DepthDuration_HTML.html#43,43,1366,625,1366,768,8-22-2022,7-59-47,147,depth_duration_stimuli/000486_2014-06-09_20-47-20_260595134347_rgbf000143-resize_2/000486_2014-06-09_20-47-20_260595134347_rgbf000143-resize_2-target.png,1000,4.8325,8,5196,1001,feet,jsons/v1_VE1000_randls_54_rotated.json,863802,1160259,26,Man
147,835457,DepthScenes,duration_manipulation_targetAtFixation,jsons/v1_VE1000_randls_54_rotated.json,http://54.235.29.9/FacialAge/BNav_EC2/DepthDuration/v2_depth_duration_MTurk/v2_DepthDuration_HTML.html#43,43,1366,625,1366,768,8-22-2022,7-59-47,148,depth_duration_stimuli/002678_2014-06-13_16-15-32_094959634447_rgbf000151-resize_6/002678_2014-06-13_16-15-32_094959634447_rgbf000151-resize_6-target.png,1000,2.1830000000000003,5,4712,998,feet,jsons/v1_VE1000_randls_54_rotated.json,863802,1160259,26,Man
148,835457,DepthScenes,duration_manipulation_targetAtFixation,jsons/v1_VE1000_randls_54_rotated.json,http://54.235.29.9/FacialAge/BNav_EC2/DepthDuration/v2_depth_duration_MTurk/v2_DepthDuration_HTML.html#43,43,1366,625,1366,768,8-22-2022,7-59-47,149,depth_duration_stimuli/000368_2014-06-09_15-53-01_260595134347_rgbf000155-resize_2/000368_2014-06-09_15-53-01_260595134347_rgbf000155-resize_2-target.png,1000,2.4859999999999998,3,4003,999,feet,jsons/v1_VE1000_randls_54_rotated.json,863802,1160259,26,Man
149,835457,DepthScenes,duration_manipulation_targetAtFixation,jsons/v1_VE1000_randls_54_rotated.json,http://54.235.29.9/FacialAge/BNav_EC2/DepthDuration/v2_depth_duration_MTurk/v2_DepthDuration_HTML.html#43,43,1366,625,1366,768,8-22-2022,7-59-47,150,depth_duration_stimuli/003081_2014-06-15_15-19-16_094959634447_rgbf000150-resize_1/003081_2014-06-15_15-19-16_094959634447_rgbf000150-resize_1-target.png,1000,3.9125,7,4324,1010,feet,jsons/v1_VE1000_randls_54_rotated.json,863802,1160259,26,Man
150,835457,DepthScenes,duration_manipulation_targetAtFixation,jsons/v1_VE1000_randls_54_rotated.json,http://54.235.29.9/FacialAge/BNav_EC2/DepthDuration/v2_depth_duration_MTurk/v2_DepthDuration_HTML.html#43,43,1366,625,1366,768,8-22-2022,7-59-47,151,depth_duration_stimuli/001417_2014-06-19_16-25-36_260595134347_rgbf000115-resize_5/001417_2014-06-19_16-25-36_260595134347_rgbf000115-resize_5-target.png,1000,4.6255,11,5137,999,feet,jsons/v1_VE1000_randls_54_rotated.json,863802,1160259,26,Man
151,835457,DepthScenes,duration_manipulation_targetAtFixation,jsons/v1_VE1000_randls_54_rotated.json,http://54.235.29.9/FacialAge/BNav_EC2/DepthDuration/v2_depth_duration_MTurk/v2_DepthDuration_HTML.html#43,43,1366,625,1366,768,8-22-2022,7-59-47,152,depth_duration_stimuli/000569_2014-06-09_22-51-47_260595134347_rgbf000141-resize_3/000569_2014-06-09_22-51-47_260595134347_rgbf000141-resize-original.jpg,1000,4.512,0,4874,999,feet,jsons/v1_VE1000_randls_54_rotated.json,863802,1160259,26,Man
152,835457,DepthScenes,duration_manipulation_targetAtFixation,jsons/v1_VE1000_randls_54_rotated.json,http://54.235.29.9/FacialAge/BNav_EC2/DepthDuration/v2_depth_duration_MTurk/v2_DepthDuration_HTML.html#43,43,1366,625,1366,768,8-22-2022,7-59-47,153,depth_duration_stimuli/002467_2014-06-28_20-38-07_260595134347_rgbf000026-resize_2/002467_2014-06-28_20-38-07_260595134347_rgbf000026-resize_2-target.png,1000,4.742,9,6118,994,feet,jsons/v1_VE1000_randls_54_rotated.json,863802,1160259,26,Man
153,835457,DepthScenes,duration_manipulation_targetAtFixation,jsons/v1_VE1000_randls_54_rotated.json,http://54.235.29.9/FacialAge/BNav_EC2/DepthDuration/v2_depth_duration_MTurk/v2_DepthDuration_HTML.html#43,43,1366,625,1366,768,8-22-2022,7-59-47,154,depth_duration_stimuli/002570_2014-06-24_13-59-54_094959634447_rgbf000059-resize_0/002570_2014-06-24_13-59-54_094959634447_rgbf000059-resize_0-target.png,1000,4.037,9,5088,1002,feet,jsons/v1_VE1000_randls_54_rotated.json,863802,1160259,26,Man
154,835457,DepthScenes,duration_manipulation_targetAtFixation,jsons/v1_VE1000_randls_54_rotated.json,http://54.235.29.9/FacialAge/BNav_EC2/DepthDuration/v2_depth_duration_MTurk/v2_DepthDuration_HTML.html#43,43,1366,625,1366,768,8-22-2022,7-59-47,155,depth_duration_stimuli/002805_2014-06-22_19-54-03_094959634447_rgbf000079-resize_1/002805_2014-06-22_19-54-03_094959634447_rgbf000079-resize_1-target.png,1000,3.1439999999999997,8,3907,1008,feet,jsons/v1_VE1000_randls_54_rotated.json,863802,1160259,26,Man
155,835457,DepthScenes,duration_manipulation_targetAtFixation,jsons/v1_VE1000_randls_54_rotated.json,http://54.235.29.9/FacialAge/BNav_EC2/DepthDuration/v2_depth_duration_MTurk/v2_DepthDuration_HTML.html#43,43,1366,625,1366,768,8-22-2022,7-59-47,156,depth_duration_stimuli/000906_2014-06-08_13-35-43_260595134347_rgbf000155-resize_1/000906_2014-06-08_13-35-43_260595134347_rgbf000155-resize_1-target.png,1000,2.8489999999999998,7,4191,1003,feet,jsons/v1_VE1000_randls_54_rotated.json,863802,1160259,26,Man
156,835457,DepthScenes,duration_manipulation_targetAtFixation,jsons/v1_VE1000_randls_54_rotated.json,http://54.235.29.9/FacialAge/BNav_EC2/DepthDuration/v2_depth_duration_MTurk/v2_DepthDuration_HTML.html#43,43,1366,625,1366,768,8-22-2022,7-59-47,157,depth_duration_stimuli/002639_2014-06-24_14-51-37_094959634447_rgbf000074-resize_4/002639_2014-06-24_14-51-37_094959634447_rgbf000074-resize_4-target.png,1000,4.0375,8,3998,999,feet,jsons/v1_VE1000_randls_54_rotated.json,863802,1160259,26,Man
157,835457,DepthScenes,duration_manipulation_targetAtFixation,jsons/v1_VE1000_randls_54_rotated.json,http://54.235.29.9/FacialAge/BNav_EC2/DepthDuration/v2_depth_duration_MTurk/v2_DepthDuration_HTML.html#43,43,1366,625,1366,768,8-22-2022,7-59-47,158,depth_duration_stimuli/003292_2014-05-14_21-53-49_094959634447_rgbf000100-resize_2/003292_2014-05-14_21-53-49_094959634447_rgbf000100-resize_2-target.png,1000,3.4815,7,5422,991,feet,jsons/v1_VE1000_randls_54_rotated.json,863802,1160259,26,Man
158,835457,DepthScenes,duration_manipulation_targetAtFixation,jsons/v1_VE1000_randls_54_rotated.json,http://54.235.29.9/FacialAge/BNav_EC2/DepthDuration/v2_depth_duration_MTurk/v2_DepthDuration_HTML.html#43,43,1366,625,1366,768,8-22-2022,7-59-47,159,depth_duration_stimuli/000709_2014-06-08_13-51-55_260595134347_rgbf000068-resize_3/000709_2014-06-08_13-51-55_260595134347_rgbf000068-resize_3-target.png,1000,1.8030000000000002,5,4602,1002,feet,jsons/v1_VE1000_randls_54_rotated.json,863802,1160259,26,Man
159,835457,DepthScenes,duration_manipulation_targetAtFixation,jsons/v1_VE1000_randls_54_rotated.json,http://54.235.29.9/FacialAge/BNav_EC2/DepthDuration/v2_depth_duration_MTurk/v2_DepthDuration_HTML.html#43,43,1366,625,1366,768,8-22-2022,7-59-47,160,depth_duration_stimuli/002057_2014-06-24_21-00-13_260595134347_rgbf000120-resize_1/002057_2014-06-24_21-00-13_260595134347_rgbf000120-resize_1-target.png,1000,2.967,7,4807,999,feet,jsons/v1_VE1000_randls_54_rotated.json,863802,1160259,26,Man
160,835457,DepthScenes,duration_manipulation_targetAtFixation,jsons/v1_VE1000_randls_54_rotated.json,http://54.235.29.9/FacialAge/BNav_EC2/DepthDuration/v2_depth_duration_MTurk/v2_DepthDuration_HTML.html#43,43,1366,625,1366,768,8-22-2022,7-59-47,161,depth_duration_stimuli/001100_2014-06-15_17-46-26_260595134347_rgbf000225-resize_2/001100_2014-06-15_17-46-26_260595134347_rgbf000225-resize_2-target.png,1000,2.24,2,4653,1010,feet,jsons/v1_VE1000_randls_54_rotated.json,863802,1160259,26,Man
161,835457,DepthScenes,duration_manipulation_targetAtFixation,jsons/v1_VE1000_randls_54_rotated.json,http://54.235.29.9/FacialAge/BNav_EC2/DepthDuration/v2_depth_duration_MTurk/v2_DepthDuration_HTML.html#43,43,1366,625,1366,768,8-22-2022,7-59-47,162,depth_duration_stimuli/002784_2014-06-22_19-26-30_094959634447_rgbf000083-resize_3/002784_2014-06-22_19-26-30_094959634447_rgbf000083-resize_3-target.png,1000,1.8046666666667,2,4239,1002,feet,jsons/v1_VE1000_randls_54_rotated.json,863802,1160259,26,Man
162,835457,DepthScenes,duration_manipulation_targetAtFixation,jsons/v1_VE1000_randls_54_rotated.json,http://54.235.29.9/FacialAge/BNav_EC2/DepthDuration/v2_depth_duration_MTurk/v2_DepthDuration_HTML.html#43,43,1366,625,1366,768,8-22-2022,7-59-47,163,depth_duration_stimuli/000742_2014-06-08_18-48-09_260595134347_rgbf000164-resize_4/000742_2014-06-08_18-48-09_260595134347_rgbf000164-resize_4-target.png,1000,4.632,9,5317,1000,feet,jsons/v1_VE1000_randls_54_rotated.json,863802,1160259,26,Man
163,835457,DepthScenes,duration_manipulation_targetAtFixation,jsons/v1_VE1000_randls_54_rotated.json,http://54.235.29.9/FacialAge/BNav_EC2/DepthDuration/v2_depth_duration_MTurk/v2_DepthDuration_HTML.html#43,43,1366,625,1366,768,8-22-2022,7-59-47,164,depth_duration_stimuli/001066_2014-06-08_22-03-20_260595134347_rgbf000066-resize_4/001066_2014-06-08_22-03-20_260595134347_rgbf000066-resize_4-target.png,1000,4.2330000000000005,14,4744,997,feet,jsons/v1_VE1000_randls_54_rotated.json,863802,1160259,26,Man
