,subjID,experimentName,versionName,sequenceName,url,selected_row,windowWidth,windowHeight,screenWidth,screenHeight,startDate,startTime,trial,stimulus,duration,actual_depth,depth_estimate,trial_RT,log_sceneDuration,unitSelection,seq_filepath,experimentTime,totalTime,age,gender
0,835650,DepthScenes,duration_manipulation_targetAtFixation,jsons/v1_VE1000_randls_20.json,http://54.235.29.9/FacialAge/BNav_EC2/DepthDuration/v2_depth_duration_MTurk/v2_DepthDuration_HTML.html#85,85,1366,625,1366,768,9-18-2022,12-43-14,1,depth_duration_stimuli/001164_2014-06-17_15-35-46_260595134347_rgbf000085-resize_3/001164_2014-06-17_15-35-46_260595134347_rgbf000085-resize_3-target.png,1000,2.354,0,6407,1006,meters,jsons/v1_VE1000_randls_20.json,1664552,1917301,1995,Woman
1,835650,DepthScenes,duration_manipulation_targetAtFixation,jsons/v1_VE1000_randls_20.json,http://54.235.29.9/FacialAge/BNav_EC2/DepthDuration/v2_depth_duration_MTurk/v2_DepthDuration_HTML.html#85,85,1366,625,1366,768,9-18-2022,12-43-14,2,depth_duration_stimuli/001136_2014-06-17_15-19-41_260595134347_rgbf000076-resize_3/001136_2014-06-17_15-19-41_260595134347_rgbf000076-resize_3-target.png,1000,1.8655,0,5694,1001,meters,jsons/v1_VE1000_randls_20.json,1664552,1917301,1995,Woman
2,835650,DepthScenes,duration_manipulation_targetAtFixation,jsons/v1_VE1000_randls_20.json,http://54.235.29.9/FacialAge/BNav_EC2/DepthDuration/v2_depth_duration_MTurk/v2_DepthDuration_HTML.html#85,85,1366,625,1366,768,9-18-2022,12-43-14,3,depth_duration_stimuli/002043_2014-06-24_20-29-38_260595134347_rgbf000039-resize_4/002043_2014-06-24_20-29-38_260595134347_rgbf000039-resize_4-target.png,1000,2.8435,0,6216,999,meters,jsons/v1_VE1000_randls_20.json,1664552,1917301,1995,Woman
3,835650,DepthScenes,duration_manipulation_targetAtFixation,jsons/v1_VE1000_randls_20.json,http://54.235.29.9/FacialAge/BNav_EC2/DepthDuration/v2_depth_duration_MTurk/v2_DepthDuration_HTML.html#85,85,1366,625,1366,768,9-18-2022,12-43-14,4,depth_duration_stimuli/003048_2014-06-15_13-49-43_094959634447_rgbf000150-resize_1/003048_2014-06-15_13-49-43_094959634447_rgbf000150-resize_1-target.png,1000,4.0035,0,9609,1003,meters,jsons/v1_VE1000_randls_20.json,1664552,1917301,1995,Woman
4,835650,DepthScenes,duration_manipulation_targetAtFixation,jsons/v1_VE1000_randls_20.json,http://54.235.29.9/FacialAge/BNav_EC2/DepthDuration/v2_depth_duration_MTurk/v2_DepthDuration_HTML.html#85,85,1366,625,1366,768,9-18-2022,12-43-14,5,depth_duration_stimuli/002630_2014-06-24_14-47-50_094959634447_rgbf000055-resize_1/002630_2014-06-24_14-47-50_094959634447_rgbf000055-resize_1-target.png,1000,3.0095,0,7533,1000,meters,jsons/v1_VE1000_randls_20.json,1664552,1917301,1995,Woman
5,835650,DepthScenes,duration_manipulation_targetAtFixation,jsons/v1_VE1000_randls_20.json,http://54.235.29.9/FacialAge/BNav_EC2/DepthDuration/v2_depth_duration_MTurk/v2_DepthDuration_HTML.html#85,85,1366,625,1366,768,9-18-2022,12-43-14,6,depth_duration_stimuli/002758_2014-06-22_19-11-20_094959634447_rgbf000128-resize_1/002758_2014-06-22_19-11-20_094959634447_rgbf000128-resize_1-target.png,1000,2.555,0,52035,1019,meters,jsons/v1_VE1000_randls_20.json,1664552,1917301,1995,Woman
6,835650,DepthScenes,duration_manipulation_targetAtFixation,jsons/v1_VE1000_randls_20.json,http://54.235.29.9/FacialAge/BNav_EC2/DepthDuration/v2_depth_duration_MTurk/v2_DepthDuration_HTML.html#85,85,1366,625,1366,768,9-18-2022,12-43-14,7,depth_duration_stimuli/000522_2014-06-08_13-35-06_260595134347_rgbf000244-resize_1/000522_2014-06-08_13-35-06_260595134347_rgbf000244-resize_1-target.png,1000,2.3715,0,7895,996,meters,jsons/v1_VE1000_randls_20.json,1664552,1917301,1995,Woman
7,835650,DepthScenes,duration_manipulation_targetAtFixation,jsons/v1_VE1000_randls_20.json,http://54.235.29.9/FacialAge/BNav_EC2/DepthDuration/v2_depth_duration_MTurk/v2_DepthDuration_HTML.html#85,85,1366,625,1366,768,9-18-2022,12-43-14,8,depth_duration_stimuli/002949_2014-06-26_15-57-42_094959634447_rgbf000079-resize_1/002949_2014-06-26_15-57-42_094959634447_rgbf000079-resize_1-target.png,1000,1.8915,0,6079,1011,meters,jsons/v1_VE1000_randls_20.json,1664552,1917301,1995,Woman
8,835650,DepthScenes,duration_manipulation_targetAtFixation,jsons/v1_VE1000_randls_20.json,http://54.235.29.9/FacialAge/BNav_EC2/DepthDuration/v2_depth_duration_MTurk/v2_DepthDuration_HTML.html#85,85,1366,625,1366,768,9-18-2022,12-43-14,9,depth_duration_stimuli/001167_2014-06-17_15-38-07_260595134347_rgbf000108-resize_0/001167_2014-06-17_15-38-07_260595134347_rgbf000108-resize_0-target.png,1000,1.8505,0,5926,999,meters,jsons/v1_VE1000_randls_20.json,1664552,1917301,1995,Woman
9,835650,DepthScenes,duration_manipulation_targetAtFixation,jsons/v1_VE1000_randls_20.json,http://54.235.29.9/FacialAge/BNav_EC2/DepthDuration/v2_depth_duration_MTurk/v2_DepthDuration_HTML.html#85,85,1366,625,1366,768,9-18-2022,12-43-14,10,depth_duration_stimuli/003587_2014-05-23_16-48-02_094959634447_rgbf002384-resize_2/003587_2014-05-23_16-48-02_094959634447_rgbf002384-resize_2-target.png,1000,1.357,0,5632,994,meters,jsons/v1_VE1000_randls_20.json,1664552,1917301,1995,Woman
10,835650,DepthScenes,duration_manipulation_targetAtFixation,jsons/v1_VE1000_randls_20.json,http://54.235.29.9/FacialAge/BNav_EC2/DepthDuration/v2_depth_duration_MTurk/v2_DepthDuration_HTML.html#85,85,1366,625,1366,768,9-18-2022,12-43-14,11,depth_duration_stimuli/002784_2014-06-22_19-26-30_094959634447_rgbf000083-resize_3/002784_2014-06-22_19-26-30_094959634447_rgbf000083-resize_3-target.png,1000,1.8046666666667,0,7661,1002,meters,jsons/v1_VE1000_randls_20.json,1664552,1917301,1995,Woman
11,835650,DepthScenes,duration_manipulation_targetAtFixation,jsons/v1_VE1000_randls_20.json,http://54.235.29.9/FacialAge/BNav_EC2/DepthDuration/v2_depth_duration_MTurk/v2_DepthDuration_HTML.html#85,85,1366,625,1366,768,9-18-2022,12-43-14,12,depth_duration_stimuli/001100_2014-06-15_17-46-26_260595134347_rgbf000225-resize_2/001100_2014-06-15_17-46-26_260595134347_rgbf000225-resize_2-target.png,1000,2.24,0,8533,989,meters,jsons/v1_VE1000_randls_20.json,1664552,1917301,1995,Woman
12,835650,DepthScenes,duration_manipulation_targetAtFixation,jsons/v1_VE1000_randls_20.json,http://54.235.29.9/FacialAge/BNav_EC2/DepthDuration/v2_depth_duration_MTurk/v2_DepthDuration_HTML.html#85,85,1366,625,1366,768,9-18-2022,12-43-14,13,depth_duration_stimuli/000569_2014-06-09_22-51-47_260595134347_rgbf000141-resize_3/000569_2014-06-09_22-51-47_260595134347_rgbf000141-resize-original.jpg,1000,4.512,0,8148,1006,meters,jsons/v1_VE1000_randls_20.json,1664552,1917301,1995,Woman
13,835650,DepthScenes,duration_manipulation_targetAtFixation,jsons/v1_VE1000_randls_20.json,http://54.235.29.9/FacialAge/BNav_EC2/DepthDuration/v2_depth_duration_MTurk/v2_DepthDuration_HTML.html#85,85,1366,625,1366,768,9-18-2022,12-43-14,14,depth_duration_stimuli/002118_2014-06-25_20-32-08_260595134347_rgbf000078-resize_1/002118_2014-06-25_20-32-08_260595134347_rgbf000078-resize_1-target.png,1000,2.6460000000000004,0,5990,989,meters,jsons/v1_VE1000_randls_20.json,1664552,1917301,1995,Woman
14,835650,DepthScenes,duration_manipulation_targetAtFixation,jsons/v1_VE1000_randls_20.json,http://54.235.29.9/FacialAge/BNav_EC2/DepthDuration/v2_depth_duration_MTurk/v2_DepthDuration_HTML.html#85,85,1366,625,1366,768,9-18-2022,12-43-14,15,depth_duration_stimuli/001516_2014-06-20_16-25-09_260595134347_rgbf000076-resize_2/001516_2014-06-20_16-25-09_260595134347_rgbf000076-resize_2-target.png,1000,1.7445,0,116062,1001,meters,jsons/v1_VE1000_randls_20.json,1664552,1917301,1995,Woman
15,835650,DepthScenes,duration_manipulation_targetAtFixation,jsons/v1_VE1000_randls_20.json,http://54.235.29.9/FacialAge/BNav_EC2/DepthDuration/v2_depth_duration_MTurk/v2_DepthDuration_HTML.html#85,85,1366,625,1366,768,9-18-2022,12-43-14,16,depth_duration_stimuli/001199_2014-06-17_16-03-48_260595134347_rgbf000077-resize_0/001199_2014-06-17_16-03-48_260595134347_rgbf000077-resize_0-target.png,1000,3.4375,0,6746,992,meters,jsons/v1_VE1000_randls_20.json,1664552,1917301,1995,Woman
16,835650,DepthScenes,duration_manipulation_targetAtFixation,jsons/v1_VE1000_randls_20.json,http://54.235.29.9/FacialAge/BNav_EC2/DepthDuration/v2_depth_duration_MTurk/v2_DepthDuration_HTML.html#85,85,1366,625,1366,768,9-18-2022,12-43-14,17,depth_duration_stimuli/000502_2014-06-08_23-02-32_260595134347_rgbf000063-resize_4/000502_2014-06-08_23-02-32_260595134347_rgbf000063-resize_4-target.png,1000,2.431,0,5774,990,meters,jsons/v1_VE1000_randls_20.json,1664552,1917301,1995,Woman
17,835650,DepthScenes,duration_manipulation_targetAtFixation,jsons/v1_VE1000_randls_20.json,http://54.235.29.9/FacialAge/BNav_EC2/DepthDuration/v2_depth_duration_MTurk/v2_DepthDuration_HTML.html#85,85,1366,625,1366,768,9-18-2022,12-43-14,18,depth_duration_stimuli/001059_2014-06-08_21-53-27_260595134347_rgbf000061-resize_4/001059_2014-06-08_21-53-27_260595134347_rgbf000061-resize_4-target.png,1000,2.4185,0,5838,998,meters,jsons/v1_VE1000_randls_20.json,1664552,1917301,1995,Woman
18,835650,DepthScenes,duration_manipulation_targetAtFixation,jsons/v1_VE1000_randls_20.json,http://54.235.29.9/FacialAge/BNav_EC2/DepthDuration/v2_depth_duration_MTurk/v2_DepthDuration_HTML.html#85,85,1366,625,1366,768,9-18-2022,12-43-14,19,depth_duration_stimuli/001032_2014-06-08_13-23-17_260595134347_rgbf000021-resize_3/001032_2014-06-08_13-23-17_260595134347_rgbf000021-resize_3-target.png,1000,3.2725,0,5188,998,meters,jsons/v1_VE1000_randls_20.json,1664552,1917301,1995,Woman
19,835650,DepthScenes,duration_manipulation_targetAtFixation,jsons/v1_VE1000_randls_20.json,http://54.235.29.9/FacialAge/BNav_EC2/DepthDuration/v2_depth_duration_MTurk/v2_DepthDuration_HTML.html#85,85,1366,625,1366,768,9-18-2022,12-43-14,20,depth_duration_stimuli/001056_2014-06-08_18-46-44_260595134347_rgbf000068-resize_0/001056_2014-06-08_18-46-44_260595134347_rgbf000068-resize_0-target.png,1000,2.6625,0,5660,1007,meters,jsons/v1_VE1000_randls_20.json,1664552,1917301,1995,Woman
20,835650,DepthScenes,duration_manipulation_targetAtFixation,jsons/v1_VE1000_randls_20.json,http://54.235.29.9/FacialAge/BNav_EC2/DepthDuration/v2_depth_duration_MTurk/v2_DepthDuration_HTML.html#85,85,1366,625,1366,768,9-18-2022,12-43-14,21,depth_duration_stimuli/002199_2014-06-28_18-33-56_260595134347_rgbf000074-resize_0/002199_2014-06-28_18-33-56_260595134347_rgbf000074-resize_0-target.png,1000,1.996,0,5721,967,meters,jsons/v1_VE1000_randls_20.json,1664552,1917301,1995,Woman
21,835650,DepthScenes,duration_manipulation_targetAtFixation,jsons/v1_VE1000_randls_20.json,http://54.235.29.9/FacialAge/BNav_EC2/DepthDuration/v2_depth_duration_MTurk/v2_DepthDuration_HTML.html#85,85,1366,625,1366,768,9-18-2022,12-43-14,22,depth_duration_stimuli/001092_2014-06-15_17-34-58_260595134347_rgbf000171-resize_3/001092_2014-06-15_17-34-58_260595134347_rgbf000171-resize_3-target.png,1000,2.6935,0,5631,991,meters,jsons/v1_VE1000_randls_20.json,1664552,1917301,1995,Woman
22,835650,DepthScenes,duration_manipulation_targetAtFixation,jsons/v1_VE1000_randls_20.json,http://54.235.29.9/FacialAge/BNav_EC2/DepthDuration/v2_depth_duration_MTurk/v2_DepthDuration_HTML.html#85,85,1366,625,1366,768,9-18-2022,12-43-14,23,depth_duration_stimuli/002545_2014-06-24_13-38-53_094959634447_rgbf000080-resize_4/002545_2014-06-24_13-38-53_094959634447_rgbf000080-resize_4-target.png,1000,1.9205,0,5485,968,meters,jsons/v1_VE1000_randls_20.json,1664552,1917301,1995,Woman
23,835650,DepthScenes,duration_manipulation_targetAtFixation,jsons/v1_VE1000_randls_20.json,http://54.235.29.9/FacialAge/BNav_EC2/DepthDuration/v2_depth_duration_MTurk/v2_DepthDuration_HTML.html#85,85,1366,625,1366,768,9-18-2022,12-43-14,24,depth_duration_stimuli/001055_2014-06-08_18-45-35_260595134347_rgbf000111-resize_4/001055_2014-06-08_18-45-35_260595134347_rgbf000111-resize_4-target.png,1000,2.4290000000000003,0,4798,1043,meters,jsons/v1_VE1000_randls_20.json,1664552,1917301,1995,Woman
24,835650,DepthScenes,duration_manipulation_targetAtFixation,jsons/v1_VE1000_randls_20.json,http://54.235.29.9/FacialAge/BNav_EC2/DepthDuration/v2_depth_duration_MTurk/v2_DepthDuration_HTML.html#85,85,1366,625,1366,768,9-18-2022,12-43-14,25,depth_duration_stimuli/000549_2014-06-08_22-10-24_260595134347_rgbf000247-resize_3/000549_2014-06-08_22-10-24_260595134347_rgbf000247-resize_3-target.png,1000,1.841,0,5586,989,meters,jsons/v1_VE1000_randls_20.json,1664552,1917301,1995,Woman
25,835650,DepthScenes,duration_manipulation_targetAtFixation,jsons/v1_VE1000_randls_20.json,http://54.235.29.9/FacialAge/BNav_EC2/DepthDuration/v2_depth_duration_MTurk/v2_DepthDuration_HTML.html#85,85,1366,625,1366,768,9-18-2022,12-43-14,26,depth_duration_stimuli/000692_2014-06-08_13-09-42_260595134347_rgbf000199-resize_2/000692_2014-06-08_13-09-42_260595134347_rgbf000199-resize_2-target.png,1000,3.661,0,5239,989,meters,jsons/v1_VE1000_randls_20.json,1664552,1917301,1995,Woman
26,835650,DepthScenes,duration_manipulation_targetAtFixation,jsons/v1_VE1000_randls_20.json,http://54.235.29.9/FacialAge/BNav_EC2/DepthDuration/v2_depth_duration_MTurk/v2_DepthDuration_HTML.html#85,85,1366,625,1366,768,9-18-2022,12-43-14,27,depth_duration_stimuli/001094_2014-06-15_17-36-00_260595134347_rgbf000205-resize_0/001094_2014-06-15_17-36-00_260595134347_rgbf000205-resize_0-target.png,1000,4.2175,0,5880,998,meters,jsons/v1_VE1000_randls_20.json,1664552,1917301,1995,Woman
27,835650,DepthScenes,duration_manipulation_targetAtFixation,jsons/v1_VE1000_randls_20.json,http://54.235.29.9/FacialAge/BNav_EC2/DepthDuration/v2_depth_duration_MTurk/v2_DepthDuration_HTML.html#85,85,1366,625,1366,768,9-18-2022,12-43-14,28,depth_duration_stimuli/000506_2014-06-08_23-21-00_260595134347_rgbf000070-resize_7/000506_2014-06-08_23-21-00_260595134347_rgbf000070-resize_7-target.png,1000,4.0585,0,5534,1084,meters,jsons/v1_VE1000_randls_20.json,1664552,1917301,1995,Woman
28,835650,DepthScenes,duration_manipulation_targetAtFixation,jsons/v1_VE1000_randls_20.json,http://54.235.29.9/FacialAge/BNav_EC2/DepthDuration/v2_depth_duration_MTurk/v2_DepthDuration_HTML.html#85,85,1366,625,1366,768,9-18-2022,12-43-14,29,depth_duration_stimuli/003079_2014-06-15_15-18-20_094959634447_rgbf000152-resize_8/003079_2014-06-15_15-18-20_094959634447_rgbf000152-resize_8-target.png,1000,2.8775,0,6826,1001,meters,jsons/v1_VE1000_randls_20.json,1664552,1917301,1995,Woman
29,835650,DepthScenes,duration_manipulation_targetAtFixation,jsons/v1_VE1000_randls_20.json,http://54.235.29.9/FacialAge/BNav_EC2/DepthDuration/v2_depth_duration_MTurk/v2_DepthDuration_HTML.html#85,85,1366,625,1366,768,9-18-2022,12-43-14,30,depth_duration_stimuli/000375_2014-06-08_11-17-29_260595134347_rgbf000133-resize_2/000375_2014-06-08_11-17-29_260595134347_rgbf000133-resize-original.jpg,1000,4.718,0,16002,1000,meters,jsons/v1_VE1000_randls_20.json,1664552,1917301,1995,Woman
30,835650,DepthScenes,duration_manipulation_targetAtFixation,jsons/v1_VE1000_randls_20.json,http://54.235.29.9/FacialAge/BNav_EC2/DepthDuration/v2_depth_duration_MTurk/v2_DepthDuration_HTML.html#85,85,1366,625,1366,768,9-18-2022,12-43-14,31,depth_duration_stimuli/000469_2014-06-09_19-42-10_260595134347_rgbf000081-resize_1/000469_2014-06-09_19-42-10_260595134347_rgbf000081-resize_1-target.png,1000,1.652,0,19478,1003,meters,jsons/v1_VE1000_randls_20.json,1664552,1917301,1995,Woman
31,835650,DepthScenes,duration_manipulation_targetAtFixation,jsons/v1_VE1000_randls_20.json,http://54.235.29.9/FacialAge/BNav_EC2/DepthDuration/v2_depth_duration_MTurk/v2_DepthDuration_HTML.html#85,85,1366,625,1366,768,9-18-2022,12-43-14,32,depth_duration_stimuli/000483_2014-06-09_20-41-45_260595134347_rgbf000116-resize_4/000483_2014-06-09_20-41-45_260595134347_rgbf000116-resize_4-target.png,1000,1.337,0,9801,978,meters,jsons/v1_VE1000_randls_20.json,1664552,1917301,1995,Woman
32,835650,DepthScenes,duration_manipulation_targetAtFixation,jsons/v1_VE1000_randls_20.json,http://54.235.29.9/FacialAge/BNav_EC2/DepthDuration/v2_depth_duration_MTurk/v2_DepthDuration_HTML.html#85,85,1366,625,1366,768,9-18-2022,12-43-14,33,depth_duration_stimuli/001810_2014-06-26_20-51-35_260595134347_rgbf000040-resize_3/001810_2014-06-26_20-51-35_260595134347_rgbf000040-resize_3-target.png,1000,2.2525,0,24370,1000,meters,jsons/v1_VE1000_randls_20.json,1664552,1917301,1995,Woman
33,835650,DepthScenes,duration_manipulation_targetAtFixation,jsons/v1_VE1000_randls_20.json,http://54.235.29.9/FacialAge/BNav_EC2/DepthDuration/v2_depth_duration_MTurk/v2_DepthDuration_HTML.html#85,85,1366,625,1366,768,9-18-2022,12-43-14,34,depth_duration_stimuli/003010_2014-06-15_12-54-35_094959634447_rgbf000112-resize_0/003010_2014-06-15_12-54-35_094959634447_rgbf000112-resize_0-target.png,1000,3.1185,0,19158,993,meters,jsons/v1_VE1000_randls_20.json,1664552,1917301,1995,Woman
34,835650,DepthScenes,duration_manipulation_targetAtFixation,jsons/v1_VE1000_randls_20.json,http://54.235.29.9/FacialAge/BNav_EC2/DepthDuration/v2_depth_duration_MTurk/v2_DepthDuration_HTML.html#85,85,1366,625,1366,768,9-18-2022,12-43-14,35,depth_duration_stimuli/000739_2014-06-08_18-45-58_260595134347_rgbf000068-resize_1/000739_2014-06-08_18-45-58_260595134347_rgbf000068-resize_1-target.png,1000,3.534,0,6668,998,meters,jsons/v1_VE1000_randls_20.json,1664552,1917301,1995,Woman
35,835650,DepthScenes,duration_manipulation_targetAtFixation,jsons/v1_VE1000_randls_20.json,http://54.235.29.9/FacialAge/BNav_EC2/DepthDuration/v2_depth_duration_MTurk/v2_DepthDuration_HTML.html#85,85,1366,625,1366,768,9-18-2022,12-43-14,36,depth_duration_stimuli/000734_2014-06-08_17-39-11_260595134347_rgbf000128-resize_2/000734_2014-06-08_17-39-11_260595134347_rgbf000128-resize_2-target.png,1000,4.098,0,12723,995,meters,jsons/v1_VE1000_randls_20.json,1664552,1917301,1995,Woman
36,835650,DepthScenes,duration_manipulation_targetAtFixation,jsons/v1_VE1000_randls_20.json,http://54.235.29.9/FacialAge/BNav_EC2/DepthDuration/v2_depth_duration_MTurk/v2_DepthDuration_HTML.html#85,85,1366,625,1366,768,9-18-2022,12-43-14,37,depth_duration_stimuli/000736_2014-06-08_18-24-15_260595134347_rgbf000206-resize_3/000736_2014-06-08_18-24-15_260595134347_rgbf000206-resize_3-target.png,1000,3.515,0,5342,1001,meters,jsons/v1_VE1000_randls_20.json,1664552,1917301,1995,Woman
37,835650,DepthScenes,duration_manipulation_targetAtFixation,jsons/v1_VE1000_randls_20.json,http://54.235.29.9/FacialAge/BNav_EC2/DepthDuration/v2_depth_duration_MTurk/v2_DepthDuration_HTML.html#85,85,1366,625,1366,768,9-18-2022,12-43-14,38,depth_duration_stimuli/000137_2014-05-20_17-04-49_260595134347_rgbf000120-resize_1/000137_2014-05-20_17-04-49_260595134347_rgbf000120-resize_1-target.png,1000,3.786,0,6568,999,meters,jsons/v1_VE1000_randls_20.json,1664552,1917301,1995,Woman
38,835650,DepthScenes,duration_manipulation_targetAtFixation,jsons/v1_VE1000_randls_20.json,http://54.235.29.9/FacialAge/BNav_EC2/DepthDuration/v2_depth_duration_MTurk/v2_DepthDuration_HTML.html#85,85,1366,625,1366,768,9-18-2022,12-43-14,39,depth_duration_stimuli/003534_2014-05-22_15-06-10_094959634447_rgbf000102-resize_4/003534_2014-05-22_15-06-10_094959634447_rgbf000102-resize_4-target.png,1000,1.426,0,40520,1000,meters,jsons/v1_VE1000_randls_20.json,1664552,1917301,1995,Woman
39,835650,DepthScenes,duration_manipulation_targetAtFixation,jsons/v1_VE1000_randls_20.json,http://54.235.29.9/FacialAge/BNav_EC2/DepthDuration/v2_depth_duration_MTurk/v2_DepthDuration_HTML.html#85,85,1366,625,1366,768,9-18-2022,12-43-14,40,depth_duration_stimuli/002637_2014-06-24_14-51-13_094959634447_rgbf000066-resize_4/002637_2014-06-24_14-51-13_094959634447_rgbf000066-resize_4-target.png,1000,1.9955,0,23739,999,meters,jsons/v1_VE1000_randls_20.json,1664552,1917301,1995,Woman
40,835650,DepthScenes,duration_manipulation_targetAtFixation,jsons/v1_VE1000_randls_20.json,http://54.235.29.9/FacialAge/BNav_EC2/DepthDuration/v2_depth_duration_MTurk/v2_DepthDuration_HTML.html#85,85,1366,625,1366,768,9-18-2022,12-43-14,41,depth_duration_stimuli/002375_2014-06-28_20-13-44_260595134347_rgbf000032-resize_1/002375_2014-06-28_20-13-44_260595134347_rgbf000032-resize_1-target.png,1000,4.0175,0,9255,999,meters,jsons/v1_VE1000_randls_20.json,1664552,1917301,1995,Woman
41,835650,DepthScenes,duration_manipulation_targetAtFixation,jsons/v1_VE1000_randls_20.json,http://54.235.29.9/FacialAge/BNav_EC2/DepthDuration/v2_depth_duration_MTurk/v2_DepthDuration_HTML.html#85,85,1366,625,1366,768,9-18-2022,12-43-14,42,depth_duration_stimuli/002657_2014-06-13_15-29-54_094959634447_rgbf000150-resize_1/002657_2014-06-13_15-29-54_094959634447_rgbf000150-resize_1-target.png,1000,4.919,0,13792,999,meters,jsons/v1_VE1000_randls_20.json,1664552,1917301,1995,Woman
42,835650,DepthScenes,duration_manipulation_targetAtFixation,jsons/v1_VE1000_randls_20.json,http://54.235.29.9/FacialAge/BNav_EC2/DepthDuration/v2_depth_duration_MTurk/v2_DepthDuration_HTML.html#85,85,1366,625,1366,768,9-18-2022,12-43-14,43,depth_duration_stimuli/001555_2014-06-20_17-12-10_260595134347_rgbf000065-resize_4/001555_2014-06-20_17-12-10_260595134347_rgbf000065-resize_4-target.png,1000,1.633,0,90359,999,meters,jsons/v1_VE1000_randls_20.json,1664552,1917301,1995,Woman
43,835650,DepthScenes,duration_manipulation_targetAtFixation,jsons/v1_VE1000_randls_20.json,http://54.235.29.9/FacialAge/BNav_EC2/DepthDuration/v2_depth_duration_MTurk/v2_DepthDuration_HTML.html#85,85,1366,625,1366,768,9-18-2022,12-43-14,44,depth_duration_stimuli/000103_2014-05-14_22-01-17_260595134347_rgbf000152-resize_5/000103_2014-05-14_22-01-17_260595134347_rgbf000152-resize_5-target.png,1000,1.993,0,6956,1007,meters,jsons/v1_VE1000_randls_20.json,1664552,1917301,1995,Woman
44,835650,DepthScenes,duration_manipulation_targetAtFixation,jsons/v1_VE1000_randls_20.json,http://54.235.29.9/FacialAge/BNav_EC2/DepthDuration/v2_depth_duration_MTurk/v2_DepthDuration_HTML.html#85,85,1366,625,1366,768,9-18-2022,12-43-14,45,depth_duration_stimuli/000787_2014-06-08_22-33-53_260595134347_rgbf000175-resize_1/000787_2014-06-08_22-33-53_260595134347_rgbf000175-resize-original.jpg,1000,4.784,0,6217,990,meters,jsons/v1_VE1000_randls_20.json,1664552,1917301,1995,Woman
45,835650,DepthScenes,duration_manipulation_targetAtFixation,jsons/v1_VE1000_randls_20.json,http://54.235.29.9/FacialAge/BNav_EC2/DepthDuration/v2_depth_duration_MTurk/v2_DepthDuration_HTML.html#85,85,1366,625,1366,768,9-18-2022,12-43-14,46,depth_duration_stimuli/002213_2014-06-28_18-37-58_260595134347_rgbf000055-resize_1/002213_2014-06-28_18-37-58_260595134347_rgbf000055-resize_1-target.png,1000,3.62,0,6668,984,meters,jsons/v1_VE1000_randls_20.json,1664552,1917301,1995,Woman
46,835650,DepthScenes,duration_manipulation_targetAtFixation,jsons/v1_VE1000_randls_20.json,http://54.235.29.9/FacialAge/BNav_EC2/DepthDuration/v2_depth_duration_MTurk/v2_DepthDuration_HTML.html#85,85,1366,625,1366,768,9-18-2022,12-43-14,47,depth_duration_stimuli/000691_2014-06-08_13-08-50_260595134347_rgbf000132-resize_3/000691_2014-06-08_13-08-50_260595134347_rgbf000132-resize_3-target.png,1000,4.1530000000000005,0,9776,989,meters,jsons/v1_VE1000_randls_20.json,1664552,1917301,1995,Woman
47,835650,DepthScenes,duration_manipulation_targetAtFixation,jsons/v1_VE1000_randls_20.json,http://54.235.29.9/FacialAge/BNav_EC2/DepthDuration/v2_depth_duration_MTurk/v2_DepthDuration_HTML.html#85,85,1366,625,1366,768,9-18-2022,12-43-14,48,depth_duration_stimuli/001449_2014-06-19_17-01-27_260595134347_rgbf000116-resize_2/001449_2014-06-19_17-01-27_260595134347_rgbf000116-resize_2-target.png,1000,3.452,0,7289,1000,meters,jsons/v1_VE1000_randls_20.json,1664552,1917301,1995,Woman
48,835650,DepthScenes,duration_manipulation_targetAtFixation,jsons/v1_VE1000_randls_20.json,http://54.235.29.9/FacialAge/BNav_EC2/DepthDuration/v2_depth_duration_MTurk/v2_DepthDuration_HTML.html#85,85,1366,625,1366,768,9-18-2022,12-43-14,49,depth_duration_stimuli/001450_2014-06-19_17-02-03_260595134347_rgbf000203-resize_4/001450_2014-06-19_17-02-03_260595134347_rgbf000203-resize_4-target.png,1000,4.0106666666667,0,6252,999,meters,jsons/v1_VE1000_randls_20.json,1664552,1917301,1995,Woman
49,835650,DepthScenes,duration_manipulation_targetAtFixation,jsons/v1_VE1000_randls_20.json,http://54.235.29.9/FacialAge/BNav_EC2/DepthDuration/v2_depth_duration_MTurk/v2_DepthDuration_HTML.html#85,85,1366,625,1366,768,9-18-2022,12-43-14,50,depth_duration_stimuli/001011_2014-06-08_23-18-54_260595134347_rgbf000044-resize_4/001011_2014-06-08_23-18-54_260595134347_rgbf000044-resize_4-target.png,1000,2.4730000000000003,0,21850,990,meters,jsons/v1_VE1000_randls_20.json,1664552,1917301,1995,Woman
50,835650,DepthScenes,duration_manipulation_targetAtFixation,jsons/v1_VE1000_randls_20.json,http://54.235.29.9/FacialAge/BNav_EC2/DepthDuration/v2_depth_duration_MTurk/v2_DepthDuration_HTML.html#85,85,1366,625,1366,768,9-18-2022,12-43-14,51,depth_duration_stimuli/002875_2014-06-01_15-19-00_094959634447_rgbf000151-resize_1/002875_2014-06-01_15-19-00_094959634447_rgbf000151-resize_1-target.png,1000,1.9675,0,6136,998,meters,jsons/v1_VE1000_randls_20.json,1664552,1917301,1995,Woman
51,835650,DepthScenes,duration_manipulation_targetAtFixation,jsons/v1_VE1000_randls_20.json,http://54.235.29.9/FacialAge/BNav_EC2/DepthDuration/v2_depth_duration_MTurk/v2_DepthDuration_HTML.html#85,85,1366,625,1366,768,9-18-2022,12-43-14,52,depth_duration_stimuli/002039_2014-06-24_20-22-38_260595134347_rgbf000084-resize_1/002039_2014-06-24_20-22-38_260595134347_rgbf000084-resize_1-target.png,1000,4.408,0,6854,999,meters,jsons/v1_VE1000_randls_20.json,1664552,1917301,1995,Woman
52,835650,DepthScenes,duration_manipulation_targetAtFixation,jsons/v1_VE1000_randls_20.json,http://54.235.29.9/FacialAge/BNav_EC2/DepthDuration/v2_depth_duration_MTurk/v2_DepthDuration_HTML.html#85,85,1366,625,1366,768,9-18-2022,12-43-14,53,depth_duration_stimuli/002103_2014-06-25_20-00-40_260595134347_rgbf000049-resize_0/002103_2014-06-25_20-00-40_260595134347_rgbf000049-resize_0-target.png,1000,4.105,0,5936,998,meters,jsons/v1_VE1000_randls_20.json,1664552,1917301,1995,Woman
53,835650,DepthScenes,duration_manipulation_targetAtFixation,jsons/v1_VE1000_randls_20.json,http://54.235.29.9/FacialAge/BNav_EC2/DepthDuration/v2_depth_duration_MTurk/v2_DepthDuration_HTML.html#85,85,1366,625,1366,768,9-18-2022,12-43-14,54,depth_duration_stimuli/002989_2014-06-15_12-25-03_094959634447_rgbf000150-resize_3/002989_2014-06-15_12-25-03_094959634447_rgbf000150-resize_3-target.png,1000,4.1975,0,5874,998,meters,jsons/v1_VE1000_randls_20.json,1664552,1917301,1995,Woman
54,835650,DepthScenes,duration_manipulation_targetAtFixation,jsons/v1_VE1000_randls_20.json,http://54.235.29.9/FacialAge/BNav_EC2/DepthDuration/v2_depth_duration_MTurk/v2_DepthDuration_HTML.html#85,85,1366,625,1366,768,9-18-2022,12-43-14,55,depth_duration_stimuli/000866_2014-06-09_20-45-42_260595134347_rgbf000139-resize_1/000866_2014-06-09_20-45-42_260595134347_rgbf000139-resize_1-target.png,1000,3.2155,0,7801,999,meters,jsons/v1_VE1000_randls_20.json,1664552,1917301,1995,Woman
55,835650,DepthScenes,duration_manipulation_targetAtFixation,jsons/v1_VE1000_randls_20.json,http://54.235.29.9/FacialAge/BNav_EC2/DepthDuration/v2_depth_duration_MTurk/v2_DepthDuration_HTML.html#85,85,1366,625,1366,768,9-18-2022,12-43-14,56,depth_duration_stimuli/002279_2014-06-28_18-55-32_260595134347_rgbf000040-resize_5/002279_2014-06-28_18-55-32_260595134347_rgbf000040-resize_5-target.png,1000,1.5043333333333,0,5863,986,meters,jsons/v1_VE1000_randls_20.json,1664552,1917301,1995,Woman
56,835650,DepthScenes,duration_manipulation_targetAtFixation,jsons/v1_VE1000_randls_20.json,http://54.235.29.9/FacialAge/BNav_EC2/DepthDuration/v2_depth_duration_MTurk/v2_DepthDuration_HTML.html#85,85,1366,625,1366,768,9-18-2022,12-43-14,57,depth_duration_stimuli/000635_2014-06-08_16-38-42_260595134347_rgbf000106-resize_1/000635_2014-06-08_16-38-42_260595134347_rgbf000106-resize_1-target.png,1000,2.074,0,5942,1000,meters,jsons/v1_VE1000_randls_20.json,1664552,1917301,1995,Woman
57,835650,DepthScenes,duration_manipulation_targetAtFixation,jsons/v1_VE1000_randls_20.json,http://54.235.29.9/FacialAge/BNav_EC2/DepthDuration/v2_depth_duration_MTurk/v2_DepthDuration_HTML.html#85,85,1366,625,1366,768,9-18-2022,12-43-14,58,depth_duration_stimuli/002549_2014-06-24_13-41-39_094959634447_rgbf000022-resize_3/002549_2014-06-24_13-41-39_094959634447_rgbf000022-resize_3-target.png,1000,1.476,0,5920,999,meters,jsons/v1_VE1000_randls_20.json,1664552,1917301,1995,Woman
58,835650,DepthScenes,duration_manipulation_targetAtFixation,jsons/v1_VE1000_randls_20.json,http://54.235.29.9/FacialAge/BNav_EC2/DepthDuration/v2_depth_duration_MTurk/v2_DepthDuration_HTML.html#85,85,1366,625,1366,768,9-18-2022,12-43-14,59,depth_duration_stimuli/002750_2014-06-22_19-08-03_094959634447_rgbf000094-resize_4/002750_2014-06-22_19-08-03_094959634447_rgbf000094-resize_4-target.png,1000,2.354,0,5441,1001,meters,jsons/v1_VE1000_randls_20.json,1664552,1917301,1995,Woman
59,835650,DepthScenes,duration_manipulation_targetAtFixation,jsons/v1_VE1000_randls_20.json,http://54.235.29.9/FacialAge/BNav_EC2/DepthDuration/v2_depth_duration_MTurk/v2_DepthDuration_HTML.html#85,85,1366,625,1366,768,9-18-2022,12-43-14,60,depth_duration_stimuli/002600_2014-06-24_14-27-04_094959634447_rgbf000074-resize_2/002600_2014-06-24_14-27-04_094959634447_rgbf000074-resize_2-target.png,1000,2.7575,0,5700,1000,meters,jsons/v1_VE1000_randls_20.json,1664552,1917301,1995,Woman
60,835650,DepthScenes,duration_manipulation_targetAtFixation,jsons/v1_VE1000_randls_20.json,http://54.235.29.9/FacialAge/BNav_EC2/DepthDuration/v2_depth_duration_MTurk/v2_DepthDuration_HTML.html#85,85,1366,625,1366,768,9-18-2022,12-43-14,61,depth_duration_stimuli/003228_2014-05-14_13-42-35_094959634447_rgbf000101-resize_1/003228_2014-05-14_13-42-35_094959634447_rgbf000101-resize_1-target.png,1000,1.9680000000000002,0,10384,1000,meters,jsons/v1_VE1000_randls_20.json,1664552,1917301,1995,Woman
61,835650,DepthScenes,duration_manipulation_targetAtFixation,jsons/v1_VE1000_randls_20.json,http://54.235.29.9/FacialAge/BNav_EC2/DepthDuration/v2_depth_duration_MTurk/v2_DepthDuration_HTML.html#85,85,1366,625,1366,768,9-18-2022,12-43-14,62,depth_duration_stimuli/002153_2014-06-25_21-27-18_260595134347_rgbf000038-resize_5/002153_2014-06-25_21-27-18_260595134347_rgbf000038-resize_5-target.png,1000,2.505,0,7129,1000,meters,jsons/v1_VE1000_randls_20.json,1664552,1917301,1995,Woman
62,835650,DepthScenes,duration_manipulation_targetAtFixation,jsons/v1_VE1000_randls_20.json,http://54.235.29.9/FacialAge/BNav_EC2/DepthDuration/v2_depth_duration_MTurk/v2_DepthDuration_HTML.html#85,85,1366,625,1366,768,9-18-2022,12-43-14,63,depth_duration_stimuli/002660_2014-06-13_15-44-18_094959634447_rgbf001878-resize_2/002660_2014-06-13_15-44-18_094959634447_rgbf001878-resize_2-target.png,1000,3.576,0,31790,1001,meters,jsons/v1_VE1000_randls_20.json,1664552,1917301,1995,Woman
63,835650,DepthScenes,duration_manipulation_targetAtFixation,jsons/v1_VE1000_randls_20.json,http://54.235.29.9/FacialAge/BNav_EC2/DepthDuration/v2_depth_duration_MTurk/v2_DepthDuration_HTML.html#85,85,1366,625,1366,768,9-18-2022,12-43-14,64,depth_duration_stimuli/002057_2014-06-24_21-00-13_260595134347_rgbf000120-resize_1/002057_2014-06-24_21-00-13_260595134347_rgbf000120-resize_1-target.png,1000,2.967,0,13114,995,meters,jsons/v1_VE1000_randls_20.json,1664552,1917301,1995,Woman
64,835650,DepthScenes,duration_manipulation_targetAtFixation,jsons/v1_VE1000_randls_20.json,http://54.235.29.9/FacialAge/BNav_EC2/DepthDuration/v2_depth_duration_MTurk/v2_DepthDuration_HTML.html#85,85,1366,625,1366,768,9-18-2022,12-43-14,65,depth_duration_stimuli/000709_2014-06-08_13-51-55_260595134347_rgbf000068-resize_3/000709_2014-06-08_13-51-55_260595134347_rgbf000068-resize_3-target.png,1000,1.8030000000000002,0,6458,990,meters,jsons/v1_VE1000_randls_20.json,1664552,1917301,1995,Woman
65,835650,DepthScenes,duration_manipulation_targetAtFixation,jsons/v1_VE1000_randls_20.json,http://54.235.29.9/FacialAge/BNav_EC2/DepthDuration/v2_depth_duration_MTurk/v2_DepthDuration_HTML.html#85,85,1366,625,1366,768,9-18-2022,12-43-14,66,depth_duration_stimuli/001222_2014-06-17_16-24-06_260595134347_rgbf000073-resize_0/001222_2014-06-17_16-24-06_260595134347_rgbf000073-resize-original.jpg,1000,1.4385,0,42588,1000,meters,jsons/v1_VE1000_randls_20.json,1664552,1917301,1995,Woman
66,835650,DepthScenes,duration_manipulation_targetAtFixation,jsons/v1_VE1000_randls_20.json,http://54.235.29.9/FacialAge/BNav_EC2/DepthDuration/v2_depth_duration_MTurk/v2_DepthDuration_HTML.html#85,85,1366,625,1366,768,9-18-2022,12-43-14,67,depth_duration_stimuli/000682_2014-06-08_23-14-58_260595134347_rgbf000041-resize_5/000682_2014-06-08_23-14-58_260595134347_rgbf000041-resize_5-target.png,1000,2.7239999999999998,0,17474,1005,meters,jsons/v1_VE1000_randls_20.json,1664552,1917301,1995,Woman
67,835650,DepthScenes,duration_manipulation_targetAtFixation,jsons/v1_VE1000_randls_20.json,http://54.235.29.9/FacialAge/BNav_EC2/DepthDuration/v2_depth_duration_MTurk/v2_DepthDuration_HTML.html#85,85,1366,625,1366,768,9-18-2022,12-43-14,68,depth_duration_stimuli/001650_2014-06-20_12-09-00_260595134347_rgbf000087-resize_3/001650_2014-06-20_12-09-00_260595134347_rgbf000087-resize_3-target.png,1000,1.9505,0,8791,991,meters,jsons/v1_VE1000_randls_20.json,1664552,1917301,1995,Woman
68,835650,DepthScenes,duration_manipulation_targetAtFixation,jsons/v1_VE1000_randls_20.json,http://54.235.29.9/FacialAge/BNav_EC2/DepthDuration/v2_depth_duration_MTurk/v2_DepthDuration_HTML.html#85,85,1366,625,1366,768,9-18-2022,12-43-14,69,depth_duration_stimuli/000493_2014-06-09_21-01-18_260595134347_rgbf000196-resize_3/000493_2014-06-09_21-01-18_260595134347_rgbf000196-resize_3-target.png,1000,3.44,0,8415,998,meters,jsons/v1_VE1000_randls_20.json,1664552,1917301,1995,Woman
69,835650,DepthScenes,duration_manipulation_targetAtFixation,jsons/v1_VE1000_randls_20.json,http://54.235.29.9/FacialAge/BNav_EC2/DepthDuration/v2_depth_duration_MTurk/v2_DepthDuration_HTML.html#85,85,1366,625,1366,768,9-18-2022,12-43-14,70,depth_duration_stimuli/000191_2014-05-12_17-07-38_260595134347_rgbf000199-resize_0/000191_2014-05-12_17-07-38_260595134347_rgbf000199-resize_0-target.png,1000,3.7995,0,21331,1001,meters,jsons/v1_VE1000_randls_20.json,1664552,1917301,1995,Woman
70,835650,DepthScenes,duration_manipulation_targetAtFixation,jsons/v1_VE1000_randls_20.json,http://54.235.29.9/FacialAge/BNav_EC2/DepthDuration/v2_depth_duration_MTurk/v2_DepthDuration_HTML.html#85,85,1366,625,1366,768,9-18-2022,12-43-14,71,depth_duration_stimuli/002748_2014-06-22_19-07-22_094959634447_rgbf000078-resize_1/002748_2014-06-22_19-07-22_094959634447_rgbf000078-resize_1-target.png,1000,4.6705,0,17869,1012,meters,jsons/v1_VE1000_randls_20.json,1664552,1917301,1995,Woman
71,835650,DepthScenes,duration_manipulation_targetAtFixation,jsons/v1_VE1000_randls_20.json,http://54.235.29.9/FacialAge/BNav_EC2/DepthDuration/v2_depth_duration_MTurk/v2_DepthDuration_HTML.html#85,85,1366,625,1366,768,9-18-2022,12-43-14,72,depth_duration_stimuli/002995_2014-06-15_12-31-26_094959634447_rgbf000150-resize_1/002995_2014-06-15_12-31-26_094959634447_rgbf000150-resize_1-target.png,1000,3.8360000000000003,0,6819,983,meters,jsons/v1_VE1000_randls_20.json,1664552,1917301,1995,Woman
72,835650,DepthScenes,duration_manipulation_targetAtFixation,jsons/v1_VE1000_randls_20.json,http://54.235.29.9/FacialAge/BNav_EC2/DepthDuration/v2_depth_duration_MTurk/v2_DepthDuration_HTML.html#85,85,1366,625,1366,768,9-18-2022,12-43-14,73,depth_duration_stimuli/001806_2014-06-26_20-50-20_260595134347_rgbf000091-resize_1/001806_2014-06-26_20-50-20_260595134347_rgbf000091-resize_1-target.png,1000,2.7305,0,15090,992,meters,jsons/v1_VE1000_randls_20.json,1664552,1917301,1995,Woman
73,835650,DepthScenes,duration_manipulation_targetAtFixation,jsons/v1_VE1000_randls_20.json,http://54.235.29.9/FacialAge/BNav_EC2/DepthDuration/v2_depth_duration_MTurk/v2_DepthDuration_HTML.html#85,85,1366,625,1366,768,9-18-2022,12-43-14,74,depth_duration_stimuli/001617_2014-06-20_11-35-32_260595134347_rgbf000066-resize_1/001617_2014-06-20_11-35-32_260595134347_rgbf000066-resize_1-target.png,1000,3.7910000000000004,0,6717,997,meters,jsons/v1_VE1000_randls_20.json,1664552,1917301,1995,Woman
74,835650,DepthScenes,duration_manipulation_targetAtFixation,jsons/v1_VE1000_randls_20.json,http://54.235.29.9/FacialAge/BNav_EC2/DepthDuration/v2_depth_duration_MTurk/v2_DepthDuration_HTML.html#85,85,1366,625,1366,768,9-18-2022,12-43-14,75,depth_duration_stimuli/003070_2014-06-15_14-58-27_094959634447_rgbf000150-resize_3/003070_2014-06-15_14-58-27_094959634447_rgbf000150-resize_3-target.png,1000,2.9415,0,13668,929,meters,jsons/v1_VE1000_randls_20.json,1664552,1917301,1995,Woman
75,835650,DepthScenes,duration_manipulation_targetAtFixation,jsons/v1_VE1000_randls_20.json,http://54.235.29.9/FacialAge/BNav_EC2/DepthDuration/v2_depth_duration_MTurk/v2_DepthDuration_HTML.html#85,85,1366,625,1366,768,9-18-2022,12-43-14,76,depth_duration_stimuli/000943_2014-06-09_19-31-07_260595134347_rgbf000128-resize_1/000943_2014-06-09_19-31-07_260595134347_rgbf000128-resize_1-target.png,1000,1.9765,0,5930,990,meters,jsons/v1_VE1000_randls_20.json,1664552,1917301,1995,Woman
76,835650,DepthScenes,duration_manipulation_targetAtFixation,jsons/v1_VE1000_randls_20.json,http://54.235.29.9/FacialAge/BNav_EC2/DepthDuration/v2_depth_duration_MTurk/v2_DepthDuration_HTML.html#85,85,1366,625,1366,768,9-18-2022,12-43-14,77,depth_duration_stimuli/000810_2014-06-08_17-20-01_260595134347_rgbf000105-resize_0/000810_2014-06-08_17-20-01_260595134347_rgbf000105-resize_0-target.png,1000,1.4865,0,6002,999,meters,jsons/v1_VE1000_randls_20.json,1664552,1917301,1995,Woman
77,835650,DepthScenes,duration_manipulation_targetAtFixation,jsons/v1_VE1000_randls_20.json,http://54.235.29.9/FacialAge/BNav_EC2/DepthDuration/v2_depth_duration_MTurk/v2_DepthDuration_HTML.html#85,85,1366,625,1366,768,9-18-2022,12-43-14,78,depth_duration_stimuli/001214_2014-06-17_16-13-55_260595134347_rgbf000111-resize_0/001214_2014-06-17_16-13-55_260595134347_rgbf000111-resize_0-target.png,1000,2.6505,0,6444,1000,meters,jsons/v1_VE1000_randls_20.json,1664552,1917301,1995,Woman
78,835650,DepthScenes,duration_manipulation_targetAtFixation,jsons/v1_VE1000_randls_20.json,http://54.235.29.9/FacialAge/BNav_EC2/DepthDuration/v2_depth_duration_MTurk/v2_DepthDuration_HTML.html#85,85,1366,625,1366,768,9-18-2022,12-43-14,79,depth_duration_stimuli/001808_2014-06-26_20-50-58_260595134347_rgbf000029-resize_1/001808_2014-06-26_20-50-58_260595134347_rgbf000029-resize_1-target.png,1000,4.249,0,5865,1003,meters,jsons/v1_VE1000_randls_20.json,1664552,1917301,1995,Woman
79,835650,DepthScenes,duration_manipulation_targetAtFixation,jsons/v1_VE1000_randls_20.json,http://54.235.29.9/FacialAge/BNav_EC2/DepthDuration/v2_depth_duration_MTurk/v2_DepthDuration_HTML.html#85,85,1366,625,1366,768,9-18-2022,12-43-14,80,depth_duration_stimuli/001815_2014-06-26_20-52-55_260595134347_rgbf000020-resize_0/001815_2014-06-26_20-52-55_260595134347_rgbf000020-resize_0-target.png,1000,3.3865,0,5926,1013,meters,jsons/v1_VE1000_randls_20.json,1664552,1917301,1995,Woman
80,835650,DepthScenes,duration_manipulation_targetAtFixation,jsons/v1_VE1000_randls_20.json,http://54.235.29.9/FacialAge/BNav_EC2/DepthDuration/v2_depth_duration_MTurk/v2_DepthDuration_HTML.html#85,85,1366,625,1366,768,9-18-2022,12-43-14,81,depth_duration_stimuli/001029_2014-06-08_13-17-57_260595134347_rgbf000065-resize_1/001029_2014-06-08_13-17-57_260595134347_rgbf000065-resize_1-target.png,1000,3.0835,0,6888,1000,meters,jsons/v1_VE1000_randls_20.json,1664552,1917301,1995,Woman
81,835650,DepthScenes,duration_manipulation_targetAtFixation,jsons/v1_VE1000_randls_20.json,http://54.235.29.9/FacialAge/BNav_EC2/DepthDuration/v2_depth_duration_MTurk/v2_DepthDuration_HTML.html#85,85,1366,625,1366,768,9-18-2022,12-43-14,82,depth_duration_stimuli/000677_2014-06-08_23-10-32_260595134347_rgbf000158-resize_6/000677_2014-06-08_23-10-32_260595134347_rgbf000158-resize_6-target.png,1000,3.556,0,5708,968,meters,jsons/v1_VE1000_randls_20.json,1664552,1917301,1995,Woman
82,835650,DepthScenes,duration_manipulation_targetAtFixation,jsons/v1_VE1000_randls_20.json,http://54.235.29.9/FacialAge/BNav_EC2/DepthDuration/v2_depth_duration_MTurk/v2_DepthDuration_HTML.html#85,85,1366,625,1366,768,9-18-2022,12-43-14,83,depth_duration_stimuli/002788_2014-06-22_19-36-03_094959634447_rgbf000088-resize_2/002788_2014-06-22_19-36-03_094959634447_rgbf000088-resize_2-target.png,1000,1.6465,0,6843,977,meters,jsons/v1_VE1000_randls_20.json,1664552,1917301,1995,Woman
83,835650,DepthScenes,duration_manipulation_targetAtFixation,jsons/v1_VE1000_randls_20.json,http://54.235.29.9/FacialAge/BNav_EC2/DepthDuration/v2_depth_duration_MTurk/v2_DepthDuration_HTML.html#85,85,1366,625,1366,768,9-18-2022,12-43-14,84,depth_duration_stimuli/000749_2014-06-08_21-55-06_260595134347_rgbf000070-resize_2/000749_2014-06-08_21-55-06_260595134347_rgbf000070-resize_2-target.png,1000,2.331,0,7711,996,meters,jsons/v1_VE1000_randls_20.json,1664552,1917301,1995,Woman
84,835650,DepthScenes,duration_manipulation_targetAtFixation,jsons/v1_VE1000_randls_20.json,http://54.235.29.9/FacialAge/BNav_EC2/DepthDuration/v2_depth_duration_MTurk/v2_DepthDuration_HTML.html#85,85,1366,625,1366,768,9-18-2022,12-43-14,85,depth_duration_stimuli/001066_2014-06-08_22-03-20_260595134347_rgbf000066-resize_4/001066_2014-06-08_22-03-20_260595134347_rgbf000066-resize_4-target.png,1000,4.2330000000000005,0,6842,1009,meters,jsons/v1_VE1000_randls_20.json,1664552,1917301,1995,Woman
85,835650,DepthScenes,duration_manipulation_targetAtFixation,jsons/v1_VE1000_randls_20.json,http://54.235.29.9/FacialAge/BNav_EC2/DepthDuration/v2_depth_duration_MTurk/v2_DepthDuration_HTML.html#85,85,1366,625,1366,768,9-18-2022,12-43-14,86,depth_duration_stimuli/000742_2014-06-08_18-48-09_260595134347_rgbf000164-resize_4/000742_2014-06-08_18-48-09_260595134347_rgbf000164-resize_4-target.png,1000,4.632,0,7375,1000,meters,jsons/v1_VE1000_randls_20.json,1664552,1917301,1995,Woman
86,835650,DepthScenes,duration_manipulation_targetAtFixation,jsons/v1_VE1000_randls_20.json,http://54.235.29.9/FacialAge/BNav_EC2/DepthDuration/v2_depth_duration_MTurk/v2_DepthDuration_HTML.html#85,85,1366,625,1366,768,9-18-2022,12-43-14,87,depth_duration_stimuli/002964_2014-06-08_17-46-11_094959634447_rgbf000091-resize_4/002964_2014-06-08_17-46-11_094959634447_rgbf000091-resize_4-target.png,1000,1.6909999999999998,0,15804,991,meters,jsons/v1_VE1000_randls_20.json,1664552,1917301,1995,Woman
87,835650,DepthScenes,duration_manipulation_targetAtFixation,jsons/v1_VE1000_randls_20.json,http://54.235.29.9/FacialAge/BNav_EC2/DepthDuration/v2_depth_duration_MTurk/v2_DepthDuration_HTML.html#85,85,1366,625,1366,768,9-18-2022,12-43-14,88,depth_duration_stimuli/002136_2014-06-25_21-18-03_260595134347_rgbf000109-resize_3/002136_2014-06-25_21-18-03_260595134347_rgbf000109-resize_3-target.png,1000,1.9569999999999999,0,16981,1001,meters,jsons/v1_VE1000_randls_20.json,1664552,1917301,1995,Woman
88,835650,DepthScenes,duration_manipulation_targetAtFixation,jsons/v1_VE1000_randls_20.json,http://54.235.29.9/FacialAge/BNav_EC2/DepthDuration/v2_depth_duration_MTurk/v2_DepthDuration_HTML.html#85,85,1366,625,1366,768,9-18-2022,12-43-14,89,depth_duration_stimuli/000414_2014-06-04_19-49-13_260595134347_rgbf000044-resize_0/000414_2014-06-04_19-49-13_260595134347_rgbf000044-resize_0-target.png,1000,4.329,0,8068,1000,meters,jsons/v1_VE1000_randls_20.json,1664552,1917301,1995,Woman
89,835650,DepthScenes,duration_manipulation_targetAtFixation,jsons/v1_VE1000_randls_20.json,http://54.235.29.9/FacialAge/BNav_EC2/DepthDuration/v2_depth_duration_MTurk/v2_DepthDuration_HTML.html#85,85,1366,625,1366,768,9-18-2022,12-43-14,90,depth_duration_stimuli/003129_2014-05-12_10-48-10_094959634447_rgbf000100-resize_0/003129_2014-05-12_10-48-10_094959634447_rgbf000100-resize_0-target.png,1000,4.9305,0,6996,991,meters,jsons/v1_VE1000_randls_20.json,1664552,1917301,1995,Woman
90,835650,DepthScenes,duration_manipulation_targetAtFixation,jsons/v1_VE1000_randls_20.json,http://54.235.29.9/FacialAge/BNav_EC2/DepthDuration/v2_depth_duration_MTurk/v2_DepthDuration_HTML.html#85,85,1366,625,1366,768,9-18-2022,12-43-14,91,depth_duration_stimuli/000486_2014-06-09_20-47-20_260595134347_rgbf000143-resize_2/000486_2014-06-09_20-47-20_260595134347_rgbf000143-resize_2-target.png,1000,4.8325,0,8429,1000,meters,jsons/v1_VE1000_randls_20.json,1664552,1917301,1995,Woman
91,835650,DepthScenes,duration_manipulation_targetAtFixation,jsons/v1_VE1000_randls_20.json,http://54.235.29.9/FacialAge/BNav_EC2/DepthDuration/v2_depth_duration_MTurk/v2_DepthDuration_HTML.html#85,85,1366,625,1366,768,9-18-2022,12-43-14,92,depth_duration_stimuli/003083_2014-06-15_15-21-03_094959634447_rgbf000063-resize_1/003083_2014-06-15_15-21-03_094959634447_rgbf000063-resize_1-target.png,1000,4.1405,0,5557,1001,meters,jsons/v1_VE1000_randls_20.json,1664552,1917301,1995,Woman
92,835650,DepthScenes,duration_manipulation_targetAtFixation,jsons/v1_VE1000_randls_20.json,http://54.235.29.9/FacialAge/BNav_EC2/DepthDuration/v2_depth_duration_MTurk/v2_DepthDuration_HTML.html#85,85,1366,625,1366,768,9-18-2022,12-43-14,93,depth_duration_stimuli/000773_2014-06-08_22-24-54_260595134347_rgbf000093-resize_1/000773_2014-06-08_22-24-54_260595134347_rgbf000093-resize_1-target.png,1000,4.973,0,5805,994,meters,jsons/v1_VE1000_randls_20.json,1664552,1917301,1995,Woman
93,835650,DepthScenes,duration_manipulation_targetAtFixation,jsons/v1_VE1000_randls_20.json,http://54.235.29.9/FacialAge/BNav_EC2/DepthDuration/v2_depth_duration_MTurk/v2_DepthDuration_HTML.html#85,85,1366,625,1366,768,9-18-2022,12-43-14,94,depth_duration_stimuli/002414_2014-06-28_20-24-58_260595134347_rgbf000067-resize_4/002414_2014-06-28_20-24-58_260595134347_rgbf000067-resize_4-target.png,1000,4.363,0,9454,1000,meters,jsons/v1_VE1000_randls_20.json,1664552,1917301,1995,Woman
94,835650,DepthScenes,duration_manipulation_targetAtFixation,jsons/v1_VE1000_randls_20.json,http://54.235.29.9/FacialAge/BNav_EC2/DepthDuration/v2_depth_duration_MTurk/v2_DepthDuration_HTML.html#85,85,1366,625,1366,768,9-18-2022,12-43-14,95,depth_duration_stimuli/000906_2014-06-08_13-35-43_260595134347_rgbf000155-resize_1/000906_2014-06-08_13-35-43_260595134347_rgbf000155-resize_1-target.png,1000,2.8489999999999998,0,6178,998,meters,jsons/v1_VE1000_randls_20.json,1664552,1917301,1995,Woman
95,835650,DepthScenes,duration_manipulation_targetAtFixation,jsons/v1_VE1000_randls_20.json,http://54.235.29.9/FacialAge/BNav_EC2/DepthDuration/v2_depth_duration_MTurk/v2_DepthDuration_HTML.html#85,85,1366,625,1366,768,9-18-2022,12-43-14,96,depth_duration_stimuli/002805_2014-06-22_19-54-03_094959634447_rgbf000079-resize_1/002805_2014-06-22_19-54-03_094959634447_rgbf000079-resize_1-target.png,1000,3.1439999999999997,0,5751,998,meters,jsons/v1_VE1000_randls_20.json,1664552,1917301,1995,Woman
96,835650,DepthScenes,duration_manipulation_targetAtFixation,jsons/v1_VE1000_randls_20.json,http://54.235.29.9/FacialAge/BNav_EC2/DepthDuration/v2_depth_duration_MTurk/v2_DepthDuration_HTML.html#85,85,1366,625,1366,768,9-18-2022,12-43-14,97,depth_duration_stimuli/000470_2014-06-09_19-42-40_260595134347_rgbf000094-resize_1/000470_2014-06-09_19-42-40_260595134347_rgbf000094-resize_1-target.png,1000,1.831,0,5762,998,meters,jsons/v1_VE1000_randls_20.json,1664552,1917301,1995,Woman
97,835650,DepthScenes,duration_manipulation_targetAtFixation,jsons/v1_VE1000_randls_20.json,http://54.235.29.9/FacialAge/BNav_EC2/DepthDuration/v2_depth_duration_MTurk/v2_DepthDuration_HTML.html#85,85,1366,625,1366,768,9-18-2022,12-43-14,98,depth_duration_stimuli/000109_2014-05-14_23-41-52_260595134347_rgbf000035-resize_9/000109_2014-05-14_23-41-52_260595134347_rgbf000035-resize_9-target.png,1000,1.3545,0,7324,999,meters,jsons/v1_VE1000_randls_20.json,1664552,1917301,1995,Woman
98,835650,DepthScenes,duration_manipulation_targetAtFixation,jsons/v1_VE1000_randls_20.json,http://54.235.29.9/FacialAge/BNav_EC2/DepthDuration/v2_depth_duration_MTurk/v2_DepthDuration_HTML.html#85,85,1366,625,1366,768,9-18-2022,12-43-14,99,depth_duration_stimuli/001540_2014-06-20_17-01-05_260595134347_rgbf000086-resize_2/001540_2014-06-20_17-01-05_260595134347_rgbf000086-resize-original.jpg,1000,1.459,0,5659,992,meters,jsons/v1_VE1000_randls_20.json,1664552,1917301,1995,Woman
99,835650,DepthScenes,duration_manipulation_targetAtFixation,jsons/v1_VE1000_randls_20.json,http://54.235.29.9/FacialAge/BNav_EC2/DepthDuration/v2_depth_duration_MTurk/v2_DepthDuration_HTML.html#85,85,1366,625,1366,768,9-18-2022,12-43-14,100,depth_duration_stimuli/001110_2014-06-15_17-25-28_260595134347_rgbf000150-resize_1/001110_2014-06-15_17-25-28_260595134347_rgbf000150-resize_1-target.png,1000,1.7115,0,6200,1008,meters,jsons/v1_VE1000_randls_20.json,1664552,1917301,1995,Woman
100,835650,DepthScenes,duration_manipulation_targetAtFixation,jsons/v1_VE1000_randls_20.json,http://54.235.29.9/FacialAge/BNav_EC2/DepthDuration/v2_depth_duration_MTurk/v2_DepthDuration_HTML.html#85,85,1366,625,1366,768,9-18-2022,12-43-14,101,depth_duration_stimuli/000927_2014-06-09_16-32-30_260595134347_rgbf000123-resize_3/000927_2014-06-09_16-32-30_260595134347_rgbf000123-resize_3-target.png,1000,2.6785,0,5655,995,meters,jsons/v1_VE1000_randls_20.json,1664552,1917301,1995,Woman
101,835650,DepthScenes,duration_manipulation_targetAtFixation,jsons/v1_VE1000_randls_20.json,http://54.235.29.9/FacialAge/BNav_EC2/DepthDuration/v2_depth_duration_MTurk/v2_DepthDuration_HTML.html#85,85,1366,625,1366,768,9-18-2022,12-43-14,102,depth_duration_stimuli/000878_2014-06-08_22-52-45_260595134347_rgbf000045-resize_2/000878_2014-06-08_22-52-45_260595134347_rgbf000045-resize_2-target.png,1000,2.092,0,5920,999,meters,jsons/v1_VE1000_randls_20.json,1664552,1917301,1995,Woman
102,835650,DepthScenes,duration_manipulation_targetAtFixation,jsons/v1_VE1000_randls_20.json,http://54.235.29.9/FacialAge/BNav_EC2/DepthDuration/v2_depth_duration_MTurk/v2_DepthDuration_HTML.html#85,85,1366,625,1366,768,9-18-2022,12-43-14,103,depth_duration_stimuli/002953_2014-06-08_17-32-18_094959634447_rgbf000059-resize_5/002953_2014-06-08_17-32-18_094959634447_rgbf000059-resize_5-target.png,1000,1.551,0,6730,1011,meters,jsons/v1_VE1000_randls_20.json,1664552,1917301,1995,Woman
103,835650,DepthScenes,duration_manipulation_targetAtFixation,jsons/v1_VE1000_randls_20.json,http://54.235.29.9/FacialAge/BNav_EC2/DepthDuration/v2_depth_duration_MTurk/v2_DepthDuration_HTML.html#85,85,1366,625,1366,768,9-18-2022,12-43-14,104,depth_duration_stimuli/001150_2014-06-17_15-27-34_260595134347_rgbf000108-resize_2/001150_2014-06-17_15-27-34_260595134347_rgbf000108-resize_2-target.png,1000,4.0325,0,8410,985,meters,jsons/v1_VE1000_randls_20.json,1664552,1917301,1995,Woman
104,835650,DepthScenes,duration_manipulation_targetAtFixation,jsons/v1_VE1000_randls_20.json,http://54.235.29.9/FacialAge/BNav_EC2/DepthDuration/v2_depth_duration_MTurk/v2_DepthDuration_HTML.html#85,85,1366,625,1366,768,9-18-2022,12-43-14,105,depth_duration_stimuli/000665_2014-06-09_20-42-35_260595134347_rgbf000110-resize_1/000665_2014-06-09_20-42-35_260595134347_rgbf000110-resize_1-target.png,1000,3.057,0,6965,1003,meters,jsons/v1_VE1000_randls_20.json,1664552,1917301,1995,Woman
105,835650,DepthScenes,duration_manipulation_targetAtFixation,jsons/v1_VE1000_randls_20.json,http://54.235.29.9/FacialAge/BNav_EC2/DepthDuration/v2_depth_duration_MTurk/v2_DepthDuration_HTML.html#85,85,1366,625,1366,768,9-18-2022,12-43-14,106,depth_duration_stimuli/002763_2014-06-22_19-13-10_094959634447_rgbf000075-resize_4/002763_2014-06-22_19-13-10_094959634447_rgbf000075-resize_4-target.png,1000,1.68375,0,10156,998,meters,jsons/v1_VE1000_randls_20.json,1664552,1917301,1995,Woman
106,835650,DepthScenes,duration_manipulation_targetAtFixation,jsons/v1_VE1000_randls_20.json,http://54.235.29.9/FacialAge/BNav_EC2/DepthDuration/v2_depth_duration_MTurk/v2_DepthDuration_HTML.html#85,85,1366,625,1366,768,9-18-2022,12-43-14,107,depth_duration_stimuli/002209_2014-06-28_18-36-10_260595134347_rgbf000051-resize_1/002209_2014-06-28_18-36-10_260595134347_rgbf000051-resize_1-target.png,1000,2.057,0,10096,992,meters,jsons/v1_VE1000_randls_20.json,1664552,1917301,1995,Woman
107,835650,DepthScenes,duration_manipulation_targetAtFixation,jsons/v1_VE1000_randls_20.json,http://54.235.29.9/FacialAge/BNav_EC2/DepthDuration/v2_depth_duration_MTurk/v2_DepthDuration_HTML.html#85,85,1366,625,1366,768,9-18-2022,12-43-14,108,depth_duration_stimuli/003492_2014-05-21_15-50-55_094959634447_rgbf000828-resize_1/003492_2014-05-21_15-50-55_094959634447_rgbf000828-resize_1-target.png,1000,4.06875,0,7394,1000,meters,jsons/v1_VE1000_randls_20.json,1664552,1917301,1995,Woman
108,835650,DepthScenes,duration_manipulation_targetAtFixation,jsons/v1_VE1000_randls_20.json,http://54.235.29.9/FacialAge/BNav_EC2/DepthDuration/v2_depth_duration_MTurk/v2_DepthDuration_HTML.html#85,85,1366,625,1366,768,9-18-2022,12-43-14,109,depth_duration_stimuli/002568_2014-06-24_13-59-21_094959634447_rgbf000062-resize_4/002568_2014-06-24_13-59-21_094959634447_rgbf000062-resize_4-target.png,1000,3.015,0,6022,995,meters,jsons/v1_VE1000_randls_20.json,1664552,1917301,1995,Woman
109,835650,DepthScenes,duration_manipulation_targetAtFixation,jsons/v1_VE1000_randls_20.json,http://54.235.29.9/FacialAge/BNav_EC2/DepthDuration/v2_depth_duration_MTurk/v2_DepthDuration_HTML.html#85,85,1366,625,1366,768,9-18-2022,12-43-14,110,depth_duration_stimuli/002663_2014-06-13_15-50-26_094959634447_rgbf000075-resize_1/002663_2014-06-13_15-50-26_094959634447_rgbf000075-resize_1-target.png,1000,4.7495,0,7684,1005,meters,jsons/v1_VE1000_randls_20.json,1664552,1917301,1995,Woman
110,835650,DepthScenes,duration_manipulation_targetAtFixation,jsons/v1_VE1000_randls_20.json,http://54.235.29.9/FacialAge/BNav_EC2/DepthDuration/v2_depth_duration_MTurk/v2_DepthDuration_HTML.html#85,85,1366,625,1366,768,9-18-2022,12-43-14,111,depth_duration_stimuli/000409_2014-06-04_19-23-33_260595134347_rgbf000067-resize_0/000409_2014-06-04_19-23-33_260595134347_rgbf000067-resize_0-target.png,1000,3.7335,0,6233,1008,meters,jsons/v1_VE1000_randls_20.json,1664552,1917301,1995,Woman
111,835650,DepthScenes,duration_manipulation_targetAtFixation,jsons/v1_VE1000_randls_20.json,http://54.235.29.9/FacialAge/BNav_EC2/DepthDuration/v2_depth_duration_MTurk/v2_DepthDuration_HTML.html#85,85,1366,625,1366,768,9-18-2022,12-43-14,112,depth_duration_stimuli/003292_2014-05-14_21-53-49_094959634447_rgbf000100-resize_2/003292_2014-05-14_21-53-49_094959634447_rgbf000100-resize_2-target.png,1000,3.4815,0,6113,1001,meters,jsons/v1_VE1000_randls_20.json,1664552,1917301,1995,Woman
112,835650,DepthScenes,duration_manipulation_targetAtFixation,jsons/v1_VE1000_randls_20.json,http://54.235.29.9/FacialAge/BNav_EC2/DepthDuration/v2_depth_duration_MTurk/v2_DepthDuration_HTML.html#85,85,1366,625,1366,768,9-18-2022,12-43-14,113,depth_duration_stimuli/002639_2014-06-24_14-51-37_094959634447_rgbf000074-resize_4/002639_2014-06-24_14-51-37_094959634447_rgbf000074-resize_4-target.png,1000,4.0375,0,6213,1000,meters,jsons/v1_VE1000_randls_20.json,1664552,1917301,1995,Woman
113,835650,DepthScenes,duration_manipulation_targetAtFixation,jsons/v1_VE1000_randls_20.json,http://54.235.29.9/FacialAge/BNav_EC2/DepthDuration/v2_depth_duration_MTurk/v2_DepthDuration_HTML.html#85,85,1366,625,1366,768,9-18-2022,12-43-14,114,depth_duration_stimuli/000929_2014-06-09_16-33-19_260595134347_rgbf000139-resize_0/000929_2014-06-09_16-33-19_260595134347_rgbf000139-resize_0-target.png,1000,2.8680000000000003,0,6429,1000,meters,jsons/v1_VE1000_randls_20.json,1664552,1917301,1995,Woman
114,835650,DepthScenes,duration_manipulation_targetAtFixation,jsons/v1_VE1000_randls_20.json,http://54.235.29.9/FacialAge/BNav_EC2/DepthDuration/v2_depth_duration_MTurk/v2_DepthDuration_HTML.html#85,85,1366,625,1366,768,9-18-2022,12-43-14,115,depth_duration_stimuli/000457_2014-06-08_16-52-43_260595134347_rgbf000199-resize_1/000457_2014-06-08_16-52-43_260595134347_rgbf000199-resize_1-target.png,1000,3.6489999999999996,0,5786,991,meters,jsons/v1_VE1000_randls_20.json,1664552,1917301,1995,Woman
115,835650,DepthScenes,duration_manipulation_targetAtFixation,jsons/v1_VE1000_randls_20.json,http://54.235.29.9/FacialAge/BNav_EC2/DepthDuration/v2_depth_duration_MTurk/v2_DepthDuration_HTML.html#85,85,1366,625,1366,768,9-18-2022,12-43-14,116,depth_duration_stimuli/001170_2014-06-17_15-43-44_260595134347_rgbf000096-resize_6/001170_2014-06-17_15-43-44_260595134347_rgbf000096-resize-original.jpg,1000,1.1909999999999998,0,10173,1007,meters,jsons/v1_VE1000_randls_20.json,1664552,1917301,1995,Woman
116,835650,DepthScenes,duration_manipulation_targetAtFixation,jsons/v1_VE1000_randls_20.json,http://54.235.29.9/FacialAge/BNav_EC2/DepthDuration/v2_depth_duration_MTurk/v2_DepthDuration_HTML.html#85,85,1366,625,1366,768,9-18-2022,12-43-14,117,depth_duration_stimuli/000436_2014-06-09_22-25-11_260595134347_rgbf000137-resize_1/000436_2014-06-09_22-25-11_260595134347_rgbf000137-resize_1-target.png,1000,4.0705,0,5720,1000,meters,jsons/v1_VE1000_randls_20.json,1664552,1917301,1995,Woman
117,835650,DepthScenes,duration_manipulation_targetAtFixation,jsons/v1_VE1000_randls_20.json,http://54.235.29.9/FacialAge/BNav_EC2/DepthDuration/v2_depth_duration_MTurk/v2_DepthDuration_HTML.html#85,85,1366,625,1366,768,9-18-2022,12-43-14,118,depth_duration_stimuli/002444_2014-06-28_20-32-08_260595134347_rgbf000027-resize_0/002444_2014-06-28_20-32-08_260595134347_rgbf000027-resize_0-target.png,1000,4.388999999999999,0,5890,1001,meters,jsons/v1_VE1000_randls_20.json,1664552,1917301,1995,Woman
118,835650,DepthScenes,duration_manipulation_targetAtFixation,jsons/v1_VE1000_randls_20.json,http://54.235.29.9/FacialAge/BNav_EC2/DepthDuration/v2_depth_duration_MTurk/v2_DepthDuration_HTML.html#85,85,1366,625,1366,768,9-18-2022,12-43-14,119,depth_duration_stimuli/001244_2014-06-17_16-47-45_260595134347_rgbf000030-resize_4/001244_2014-06-17_16-47-45_260595134347_rgbf000030-resize_4-target.png,1000,2.0425,0,6302,1004,meters,jsons/v1_VE1000_randls_20.json,1664552,1917301,1995,Woman
119,835650,DepthScenes,duration_manipulation_targetAtFixation,jsons/v1_VE1000_randls_20.json,http://54.235.29.9/FacialAge/BNav_EC2/DepthDuration/v2_depth_duration_MTurk/v2_DepthDuration_HTML.html#85,85,1366,625,1366,768,9-18-2022,12-43-14,120,depth_duration_stimuli/003495_2014-05-21_16-01-51_094959634447_rgbf000100-resize_3/003495_2014-05-21_16-01-51_094959634447_rgbf000100-resize_3-target.png,1000,1.6255,0,5408,1013,meters,jsons/v1_VE1000_randls_20.json,1664552,1917301,1995,Woman
120,835650,DepthScenes,duration_manipulation_targetAtFixation,jsons/v1_VE1000_randls_20.json,http://54.235.29.9/FacialAge/BNav_EC2/DepthDuration/v2_depth_duration_MTurk/v2_DepthDuration_HTML.html#85,85,1366,625,1366,768,9-18-2022,12-43-14,121,depth_duration_stimuli/002905_2014-06-03_18-04-43_094959634447_rgbf000151-resize_2/002905_2014-06-03_18-04-43_094959634447_rgbf000151-resize_2-target.png,1000,2.0295,0,6305,995,meters,jsons/v1_VE1000_randls_20.json,1664552,1917301,1995,Woman
121,835650,DepthScenes,duration_manipulation_targetAtFixation,jsons/v1_VE1000_randls_20.json,http://54.235.29.9/FacialAge/BNav_EC2/DepthDuration/v2_depth_duration_MTurk/v2_DepthDuration_HTML.html#85,85,1366,625,1366,768,9-18-2022,12-43-14,122,depth_duration_stimuli/003423_2014-05-21_10-23-26_094959634447_rgbf002665-resize_2/003423_2014-05-21_10-23-26_094959634447_rgbf002665-resize_2-target.png,1000,3.2575,0,6347,1002,meters,jsons/v1_VE1000_randls_20.json,1664552,1917301,1995,Woman
122,835650,DepthScenes,duration_manipulation_targetAtFixation,jsons/v1_VE1000_randls_20.json,http://54.235.29.9/FacialAge/BNav_EC2/DepthDuration/v2_depth_duration_MTurk/v2_DepthDuration_HTML.html#85,85,1366,625,1366,768,9-18-2022,12-43-14,123,depth_duration_stimuli/001133_2014-06-17_14-49-16_260595134347_rgbf000100-resize_0/001133_2014-06-17_14-49-16_260595134347_rgbf000100-resize_0-target.png,1000,4.2115,0,5856,989,meters,jsons/v1_VE1000_randls_20.json,1664552,1917301,1995,Woman
123,835650,DepthScenes,duration_manipulation_targetAtFixation,jsons/v1_VE1000_randls_20.json,http://54.235.29.9/FacialAge/BNav_EC2/DepthDuration/v2_depth_duration_MTurk/v2_DepthDuration_HTML.html#85,85,1366,625,1366,768,9-18-2022,12-43-14,124,depth_duration_stimuli/001132_2014-06-17_14-48-54_260595134347_rgbf000100-resize_2/001132_2014-06-17_14-48-54_260595134347_rgbf000100-resize_2-target.png,1000,3.753,0,5927,1001,meters,jsons/v1_VE1000_randls_20.json,1664552,1917301,1995,Woman
124,835650,DepthScenes,duration_manipulation_targetAtFixation,jsons/v1_VE1000_randls_20.json,http://54.235.29.9/FacialAge/BNav_EC2/DepthDuration/v2_depth_duration_MTurk/v2_DepthDuration_HTML.html#85,85,1366,625,1366,768,9-18-2022,12-43-14,125,depth_duration_stimuli/000758_2014-06-08_22-05-08_260595134347_rgbf000085-resize_0/000758_2014-06-08_22-05-08_260595134347_rgbf000085-resize_0-target.png,1000,3.3810000000000002,0,5651,1000,meters,jsons/v1_VE1000_randls_20.json,1664552,1917301,1995,Woman
125,835650,DepthScenes,duration_manipulation_targetAtFixation,jsons/v1_VE1000_randls_20.json,http://54.235.29.9/FacialAge/BNav_EC2/DepthDuration/v2_depth_duration_MTurk/v2_DepthDuration_HTML.html#85,85,1366,625,1366,768,9-18-2022,12-43-14,126,depth_duration_stimuli/000854_2014-06-09_19-43-13_260595134347_rgbf000066-resize_0/000854_2014-06-09_19-43-13_260595134347_rgbf000066-resize_0-target.png,1000,3.068,0,6547,1000,meters,jsons/v1_VE1000_randls_20.json,1664552,1917301,1995,Woman
126,835650,DepthScenes,duration_manipulation_targetAtFixation,jsons/v1_VE1000_randls_20.json,http://54.235.29.9/FacialAge/BNav_EC2/DepthDuration/v2_depth_duration_MTurk/v2_DepthDuration_HTML.html#85,85,1366,625,1366,768,9-18-2022,12-43-14,127,depth_duration_stimuli/001016_2014-06-09_16-16-10_260595134347_rgbf000112-resize_5/001016_2014-06-09_16-16-10_260595134347_rgbf000112-resize_5-target.png,1000,1.6565,0,8035,998,meters,jsons/v1_VE1000_randls_20.json,1664552,1917301,1995,Woman
127,835650,DepthScenes,duration_manipulation_targetAtFixation,jsons/v1_VE1000_randls_20.json,http://54.235.29.9/FacialAge/BNav_EC2/DepthDuration/v2_depth_duration_MTurk/v2_DepthDuration_HTML.html#85,85,1366,625,1366,768,9-18-2022,12-43-14,128,depth_duration_stimuli/002340_2014-06-28_20-05-46_260595134347_rgbf000113-resize_0/002340_2014-06-28_20-05-46_260595134347_rgbf000113-resize_0-target.png,1000,2.4735,0,6027,1000,meters,jsons/v1_VE1000_randls_20.json,1664552,1917301,1995,Woman
128,835650,DepthScenes,duration_manipulation_targetAtFixation,jsons/v1_VE1000_randls_20.json,http://54.235.29.9/FacialAge/BNav_EC2/DepthDuration/v2_depth_duration_MTurk/v2_DepthDuration_HTML.html#85,85,1366,625,1366,768,9-18-2022,12-43-14,129,depth_duration_stimuli/002445_2014-06-28_20-32-16_260595134347_rgbf000029-resize_4/002445_2014-06-28_20-32-16_260595134347_rgbf000029-resize_4-target.png,1000,2.5315,0,5089,999,meters,jsons/v1_VE1000_randls_20.json,1664552,1917301,1995,Woman
129,835650,DepthScenes,duration_manipulation_targetAtFixation,jsons/v1_VE1000_randls_20.json,http://54.235.29.9/FacialAge/BNav_EC2/DepthDuration/v2_depth_duration_MTurk/v2_DepthDuration_HTML.html#85,85,1366,625,1366,768,9-18-2022,12-43-14,130,depth_duration_stimuli/000780_2014-06-08_22-28-29_260595134347_rgbf000126-resize_1/000780_2014-06-08_22-28-29_260595134347_rgbf000126-resize_1-target.png,1000,3.3825,0,6315,999,meters,jsons/v1_VE1000_randls_20.json,1664552,1917301,1995,Woman
130,835650,DepthScenes,duration_manipulation_targetAtFixation,jsons/v1_VE1000_randls_20.json,http://54.235.29.9/FacialAge/BNav_EC2/DepthDuration/v2_depth_duration_MTurk/v2_DepthDuration_HTML.html#85,85,1366,625,1366,768,9-18-2022,12-43-14,131,depth_duration_stimuli/002509_2014-06-24_13-19-22_094959634447_rgbf000077-resize_0/002509_2014-06-24_13-19-22_094959634447_rgbf000077-resize_0-target.png,1000,1.3065,0,5993,1013,meters,jsons/v1_VE1000_randls_20.json,1664552,1917301,1995,Woman
131,835650,DepthScenes,duration_manipulation_targetAtFixation,jsons/v1_VE1000_randls_20.json,http://54.235.29.9/FacialAge/BNav_EC2/DepthDuration/v2_depth_duration_MTurk/v2_DepthDuration_HTML.html#85,85,1366,625,1366,768,9-18-2022,12-43-14,132,depth_duration_stimuli/003338_2014-05-20_11-01-23_094959634447_rgbf000051-resize_6/003338_2014-05-20_11-01-23_094959634447_rgbf000051-resize_6-target.png,1000,1.693,0,5795,999,meters,jsons/v1_VE1000_randls_20.json,1664552,1917301,1995,Woman
132,835650,DepthScenes,duration_manipulation_targetAtFixation,jsons/v1_VE1000_randls_20.json,http://54.235.29.9/FacialAge/BNav_EC2/DepthDuration/v2_depth_duration_MTurk/v2_DepthDuration_HTML.html#85,85,1366,625,1366,768,9-18-2022,12-43-14,133,depth_duration_stimuli/002272_2014-06-28_18-53-56_260595134347_rgbf000067-resize_2/002272_2014-06-28_18-53-56_260595134347_rgbf000067-resize_2-target.png,1000,1.138,0,6481,999,meters,jsons/v1_VE1000_randls_20.json,1664552,1917301,1995,Woman
133,835650,DepthScenes,duration_manipulation_targetAtFixation,jsons/v1_VE1000_randls_20.json,http://54.235.29.9/FacialAge/BNav_EC2/DepthDuration/v2_depth_duration_MTurk/v2_DepthDuration_HTML.html#85,85,1366,625,1366,768,9-18-2022,12-43-14,134,depth_duration_stimuli/001571_2014-06-20_17-21-32_260595134347_rgbf000089-resize_1/001571_2014-06-20_17-21-32_260595134347_rgbf000089-resize_1-target.png,1000,1.86,0,5321,1012,meters,jsons/v1_VE1000_randls_20.json,1664552,1917301,1995,Woman
134,835650,DepthScenes,duration_manipulation_targetAtFixation,jsons/v1_VE1000_randls_20.json,http://54.235.29.9/FacialAge/BNav_EC2/DepthDuration/v2_depth_duration_MTurk/v2_DepthDuration_HTML.html#85,85,1366,625,1366,768,9-18-2022,12-43-14,135,depth_duration_stimuli/002072_2014-06-24_21-48-06_260595134347_rgbf000115-resize_0/002072_2014-06-24_21-48-06_260595134347_rgbf000115-resize-original.jpg,1000,4.702,0,6303,991,meters,jsons/v1_VE1000_randls_20.json,1664552,1917301,1995,Woman
135,835650,DepthScenes,duration_manipulation_targetAtFixation,jsons/v1_VE1000_randls_20.json,http://54.235.29.9/FacialAge/BNav_EC2/DepthDuration/v2_depth_duration_MTurk/v2_DepthDuration_HTML.html#85,85,1366,625,1366,768,9-18-2022,12-43-14,136,depth_duration_stimuli/000447_2014-06-08_16-15-46_260595134347_rgbf000130-resize_1/000447_2014-06-08_16-15-46_260595134347_rgbf000130-resize_1-target.png,1000,4.479,0,5329,1000,meters,jsons/v1_VE1000_randls_20.json,1664552,1917301,1995,Woman
136,835650,DepthScenes,duration_manipulation_targetAtFixation,jsons/v1_VE1000_randls_20.json,http://54.235.29.9/FacialAge/BNav_EC2/DepthDuration/v2_depth_duration_MTurk/v2_DepthDuration_HTML.html#85,85,1366,625,1366,768,9-18-2022,12-43-14,137,depth_duration_stimuli/001447_2014-06-19_17-00-32_260595134347_rgbf000082-resize_5/001447_2014-06-19_17-00-32_260595134347_rgbf000082-resize_5-target.png,1000,4.13775,0,6867,1032,meters,jsons/v1_VE1000_randls_20.json,1664552,1917301,1995,Woman
137,835650,DepthScenes,duration_manipulation_targetAtFixation,jsons/v1_VE1000_randls_20.json,http://54.235.29.9/FacialAge/BNav_EC2/DepthDuration/v2_depth_duration_MTurk/v2_DepthDuration_HTML.html#85,85,1366,625,1366,768,9-18-2022,12-43-14,138,depth_duration_stimuli/000009_2014-05-26_14-32-05_260595134347_rgbf000034-resize_3/000009_2014-05-26_14-32-05_260595134347_rgbf000034-resize_3-target.png,1000,3.8715,0,7386,987,meters,jsons/v1_VE1000_randls_20.json,1664552,1917301,1995,Woman
138,835650,DepthScenes,duration_manipulation_targetAtFixation,jsons/v1_VE1000_randls_20.json,http://54.235.29.9/FacialAge/BNav_EC2/DepthDuration/v2_depth_duration_MTurk/v2_DepthDuration_HTML.html#85,85,1366,625,1366,768,9-18-2022,12-43-14,139,depth_duration_stimuli/001828_2014-06-26_21-40-03_260595134347_rgbf000024-resize_0/001828_2014-06-26_21-40-03_260595134347_rgbf000024-resize_0-target.png,1000,4.8260000000000005,0,5931,999,meters,jsons/v1_VE1000_randls_20.json,1664552,1917301,1995,Woman
139,835650,DepthScenes,duration_manipulation_targetAtFixation,jsons/v1_VE1000_randls_20.json,http://54.235.29.9/FacialAge/BNav_EC2/DepthDuration/v2_depth_duration_MTurk/v2_DepthDuration_HTML.html#85,85,1366,625,1366,768,9-18-2022,12-43-14,140,depth_duration_stimuli/000368_2014-06-09_15-53-01_260595134347_rgbf000155-resize_2/000368_2014-06-09_15-53-01_260595134347_rgbf000155-resize_2-target.png,1000,2.4859999999999998,0,5368,1001,meters,jsons/v1_VE1000_randls_20.json,1664552,1917301,1995,Woman
140,835650,DepthScenes,duration_manipulation_targetAtFixation,jsons/v1_VE1000_randls_20.json,http://54.235.29.9/FacialAge/BNav_EC2/DepthDuration/v2_depth_duration_MTurk/v2_DepthDuration_HTML.html#85,85,1366,625,1366,768,9-18-2022,12-43-14,141,depth_duration_stimuli/002678_2014-06-13_16-15-32_094959634447_rgbf000151-resize_6/002678_2014-06-13_16-15-32_094959634447_rgbf000151-resize_6-target.png,1000,2.1830000000000003,0,5589,1000,meters,jsons/v1_VE1000_randls_20.json,1664552,1917301,1995,Woman
141,835650,DepthScenes,duration_manipulation_targetAtFixation,jsons/v1_VE1000_randls_20.json,http://54.235.29.9/FacialAge/BNav_EC2/DepthDuration/v2_depth_duration_MTurk/v2_DepthDuration_HTML.html#85,85,1366,625,1366,768,9-18-2022,12-43-14,142,depth_duration_stimuli/001175_2014-06-17_15-45-55_260595134347_rgbf000129-resize_4/001175_2014-06-17_15-45-55_260595134347_rgbf000129-resize_4-target.png,1000,4.255,0,5560,1000,meters,jsons/v1_VE1000_randls_20.json,1664552,1917301,1995,Woman
142,835650,DepthScenes,duration_manipulation_targetAtFixation,jsons/v1_VE1000_randls_20.json,http://54.235.29.9/FacialAge/BNav_EC2/DepthDuration/v2_depth_duration_MTurk/v2_DepthDuration_HTML.html#85,85,1366,625,1366,768,9-18-2022,12-43-14,143,depth_duration_stimuli/003490_2014-05-21_15-50-11_094959634447_rgbf000101-resize_3/003490_2014-05-21_15-50-11_094959634447_rgbf000101-resize_3-target.png,1000,3.6445,0,5442,1006,meters,jsons/v1_VE1000_randls_20.json,1664552,1917301,1995,Woman
143,835650,DepthScenes,duration_manipulation_targetAtFixation,jsons/v1_VE1000_randls_20.json,http://54.235.29.9/FacialAge/BNav_EC2/DepthDuration/v2_depth_duration_MTurk/v2_DepthDuration_HTML.html#85,85,1366,625,1366,768,9-18-2022,12-43-14,144,depth_duration_stimuli/001158_2014-06-17_15-32-16_260595134347_rgbf000138-resize_2/001158_2014-06-17_15-32-16_260595134347_rgbf000138-resize_2-target.png,1000,4.5315,0,5514,999,meters,jsons/v1_VE1000_randls_20.json,1664552,1917301,1995,Woman
144,835650,DepthScenes,duration_manipulation_targetAtFixation,jsons/v1_VE1000_randls_20.json,http://54.235.29.9/FacialAge/BNav_EC2/DepthDuration/v2_depth_duration_MTurk/v2_DepthDuration_HTML.html#85,85,1366,625,1366,768,9-18-2022,12-43-14,145,depth_duration_stimuli/000556_2014-06-09_22-42-56_260595134347_rgbf000214-resize_1/000556_2014-06-09_22-42-56_260595134347_rgbf000214-resize_1-target.png,1000,4.8415,0,6021,999,meters,jsons/v1_VE1000_randls_20.json,1664552,1917301,1995,Woman
145,835650,DepthScenes,duration_manipulation_targetAtFixation,jsons/v1_VE1000_randls_20.json,http://54.235.29.9/FacialAge/BNav_EC2/DepthDuration/v2_depth_duration_MTurk/v2_DepthDuration_HTML.html#85,85,1366,625,1366,768,9-18-2022,12-43-14,146,depth_duration_stimuli/001498_2014-06-19_17-45-14_260595134347_rgbf000129-resize_4/001498_2014-06-19_17-45-14_260595134347_rgbf000129-resize-original.jpg,1000,1.4075,0,6112,1000,meters,jsons/v1_VE1000_randls_20.json,1664552,1917301,1995,Woman
146,835650,DepthScenes,duration_manipulation_targetAtFixation,jsons/v1_VE1000_randls_20.json,http://54.235.29.9/FacialAge/BNav_EC2/DepthDuration/v2_depth_duration_MTurk/v2_DepthDuration_HTML.html#85,85,1366,625,1366,768,9-18-2022,12-43-14,147,depth_duration_stimuli/002725_2014-06-22_11-47-51_094959634447_rgbf000070-resize_1/002725_2014-06-22_11-47-51_094959634447_rgbf000070-resize_1-target.png,1000,2.195,0,5659,1007,meters,jsons/v1_VE1000_randls_20.json,1664552,1917301,1995,Woman
147,835650,DepthScenes,duration_manipulation_targetAtFixation,jsons/v1_VE1000_randls_20.json,http://54.235.29.9/FacialAge/BNav_EC2/DepthDuration/v2_depth_duration_MTurk/v2_DepthDuration_HTML.html#85,85,1366,625,1366,768,9-18-2022,12-43-14,148,depth_duration_stimuli/002344_2014-06-28_20-06-29_260595134347_rgbf000030-resize_1/002344_2014-06-28_20-06-29_260595134347_rgbf000030-resize_1-target.png,1000,1.5795,0,5819,998,meters,jsons/v1_VE1000_randls_20.json,1664552,1917301,1995,Woman
148,835650,DepthScenes,duration_manipulation_targetAtFixation,jsons/v1_VE1000_randls_20.json,http://54.235.29.9/FacialAge/BNav_EC2/DepthDuration/v2_depth_duration_MTurk/v2_DepthDuration_HTML.html#85,85,1366,625,1366,768,9-18-2022,12-43-14,149,depth_duration_stimuli/002570_2014-06-24_13-59-54_094959634447_rgbf000059-resize_0/002570_2014-06-24_13-59-54_094959634447_rgbf000059-resize_0-target.png,1000,4.037,0,7607,993,meters,jsons/v1_VE1000_randls_20.json,1664552,1917301,1995,Woman
149,835650,DepthScenes,duration_manipulation_targetAtFixation,jsons/v1_VE1000_randls_20.json,http://54.235.29.9/FacialAge/BNav_EC2/DepthDuration/v2_depth_duration_MTurk/v2_DepthDuration_HTML.html#85,85,1366,625,1366,768,9-18-2022,12-43-14,150,depth_duration_stimuli/002467_2014-06-28_20-38-07_260595134347_rgbf000026-resize_2/002467_2014-06-28_20-38-07_260595134347_rgbf000026-resize_2-target.png,1000,4.742,0,5900,1002,meters,jsons/v1_VE1000_randls_20.json,1664552,1917301,1995,Woman
150,835650,DepthScenes,duration_manipulation_targetAtFixation,jsons/v1_VE1000_randls_20.json,http://54.235.29.9/FacialAge/BNav_EC2/DepthDuration/v2_depth_duration_MTurk/v2_DepthDuration_HTML.html#85,85,1366,625,1366,768,9-18-2022,12-43-14,151,depth_duration_stimuli/001570_2014-06-20_17-21-09_260595134347_rgbf000135-resize_4/001570_2014-06-20_17-21-09_260595134347_rgbf000135-resize_4-target.png,1000,4.467,0,5991,1005,meters,jsons/v1_VE1000_randls_20.json,1664552,1917301,1995,Woman
151,835650,DepthScenes,duration_manipulation_targetAtFixation,jsons/v1_VE1000_randls_20.json,http://54.235.29.9/FacialAge/BNav_EC2/DepthDuration/v2_depth_duration_MTurk/v2_DepthDuration_HTML.html#85,85,1366,625,1366,768,9-18-2022,12-43-14,152,depth_duration_stimuli/001392_2014-06-19_16-07-59_260595134347_rgbf000046-resize_1/001392_2014-06-19_16-07-59_260595134347_rgbf000046-resize_1-target.png,1000,4.135,0,5272,1002,meters,jsons/v1_VE1000_randls_20.json,1664552,1917301,1995,Woman
152,835650,DepthScenes,duration_manipulation_targetAtFixation,jsons/v1_VE1000_randls_20.json,http://54.235.29.9/FacialAge/BNav_EC2/DepthDuration/v2_depth_duration_MTurk/v2_DepthDuration_HTML.html#85,85,1366,625,1366,768,9-18-2022,12-43-14,153,depth_duration_stimuli/000788_2014-06-08_22-34-36_260595134347_rgbf000131-resize_1/000788_2014-06-08_22-34-36_260595134347_rgbf000131-resize_1-target.png,1000,3.359,0,5696,1000,meters,jsons/v1_VE1000_randls_20.json,1664552,1917301,1995,Woman
153,835650,DepthScenes,duration_manipulation_targetAtFixation,jsons/v1_VE1000_randls_20.json,http://54.235.29.9/FacialAge/BNav_EC2/DepthDuration/v2_depth_duration_MTurk/v2_DepthDuration_HTML.html#85,85,1366,625,1366,768,9-18-2022,12-43-14,154,depth_duration_stimuli/001235_2014-06-17_16-37-36_260595134347_rgbf000084-resize_4/001235_2014-06-17_16-37-36_260595134347_rgbf000084-resize_4-target.png,1000,3.6605,0,5653,1007,meters,jsons/v1_VE1000_randls_20.json,1664552,1917301,1995,Woman
154,835650,DepthScenes,duration_manipulation_targetAtFixation,jsons/v1_VE1000_randls_20.json,http://54.235.29.9/FacialAge/BNav_EC2/DepthDuration/v2_depth_duration_MTurk/v2_DepthDuration_HTML.html#85,85,1366,625,1366,768,9-18-2022,12-43-14,155,depth_duration_stimuli/001417_2014-06-19_16-25-36_260595134347_rgbf000115-resize_5/001417_2014-06-19_16-25-36_260595134347_rgbf000115-resize_5-target.png,1000,4.6255,0,6082,998,meters,jsons/v1_VE1000_randls_20.json,1664552,1917301,1995,Woman
155,835650,DepthScenes,duration_manipulation_targetAtFixation,jsons/v1_VE1000_randls_20.json,http://54.235.29.9/FacialAge/BNav_EC2/DepthDuration/v2_depth_duration_MTurk/v2_DepthDuration_HTML.html#85,85,1366,625,1366,768,9-18-2022,12-43-14,156,depth_duration_stimuli/003081_2014-06-15_15-19-16_094959634447_rgbf000150-resize_1/003081_2014-06-15_15-19-16_094959634447_rgbf000150-resize_1-target.png,1000,3.9125,0,5330,995,meters,jsons/v1_VE1000_randls_20.json,1664552,1917301,1995,Woman
156,835650,DepthScenes,duration_manipulation_targetAtFixation,jsons/v1_VE1000_randls_20.json,http://54.235.29.9/FacialAge/BNav_EC2/DepthDuration/v2_depth_duration_MTurk/v2_DepthDuration_HTML.html#85,85,1366,625,1366,768,9-18-2022,12-43-14,157,depth_duration_stimuli/000642_2014-06-08_16-59-25_260595134347_rgbf000098-resize_2/000642_2014-06-08_16-59-25_260595134347_rgbf000098-resize_2-target.png,1000,2.8815,0,10805,999,meters,jsons/v1_VE1000_randls_20.json,1664552,1917301,1995,Woman
157,835650,DepthScenes,duration_manipulation_targetAtFixation,jsons/v1_VE1000_randls_20.json,http://54.235.29.9/FacialAge/BNav_EC2/DepthDuration/v2_depth_duration_MTurk/v2_DepthDuration_HTML.html#85,85,1366,625,1366,768,9-18-2022,12-43-14,158,depth_duration_stimuli/002425_2014-06-28_20-27-29_260595134347_rgbf000031-resize_8/002425_2014-06-28_20-27-29_260595134347_rgbf000031-resize_8-target.png,1000,3.8960000000000004,0,5242,998,meters,jsons/v1_VE1000_randls_20.json,1664552,1917301,1995,Woman
158,835650,DepthScenes,duration_manipulation_targetAtFixation,jsons/v1_VE1000_randls_20.json,http://54.235.29.9/FacialAge/BNav_EC2/DepthDuration/v2_depth_duration_MTurk/v2_DepthDuration_HTML.html#85,85,1366,625,1366,768,9-18-2022,12-43-14,159,depth_duration_stimuli/000917_2014-06-09_22-45-29_260595134347_rgbf000149-resize_3/000917_2014-06-09_22-45-29_260595134347_rgbf000149-resize_3-target.png,1000,4.1865,0,5092,992,meters,jsons/v1_VE1000_randls_20.json,1664552,1917301,1995,Woman
159,835650,DepthScenes,duration_manipulation_targetAtFixation,jsons/v1_VE1000_randls_20.json,http://54.235.29.9/FacialAge/BNav_EC2/DepthDuration/v2_depth_duration_MTurk/v2_DepthDuration_HTML.html#85,85,1366,625,1366,768,9-18-2022,12-43-14,160,depth_duration_stimuli/002323_2014-06-28_20-01-54_260595134347_rgbf000051-resize_4/002323_2014-06-28_20-01-54_260595134347_rgbf000051-resize_4-target.png,1000,3.7310000000000003,0,5631,1001,meters,jsons/v1_VE1000_randls_20.json,1664552,1917301,1995,Woman
160,835650,DepthScenes,duration_manipulation_targetAtFixation,jsons/v1_VE1000_randls_20.json,http://54.235.29.9/FacialAge/BNav_EC2/DepthDuration/v2_depth_duration_MTurk/v2_DepthDuration_HTML.html#85,85,1366,625,1366,768,9-18-2022,12-43-14,161,depth_duration_stimuli/002988_2014-06-15_12-24-20_094959634447_rgbf000150-resize_1/002988_2014-06-15_12-24-20_094959634447_rgbf000150-resize_1-target.png,1000,4.7669999999999995,0,5741,997,meters,jsons/v1_VE1000_randls_20.json,1664552,1917301,1995,Woman
161,835650,DepthScenes,duration_manipulation_targetAtFixation,jsons/v1_VE1000_randls_20.json,http://54.235.29.9/FacialAge/BNav_EC2/DepthDuration/v2_depth_duration_MTurk/v2_DepthDuration_HTML.html#85,85,1366,625,1366,768,9-18-2022,12-43-14,162,depth_duration_stimuli/001052_2014-06-08_18-24-54_260595134347_rgbf000130-resize_1/001052_2014-06-08_18-24-54_260595134347_rgbf000130-resize_1-target.png,1000,4.1045,0,5107,995,meters,jsons/v1_VE1000_randls_20.json,1664552,1917301,1995,Woman
162,835650,DepthScenes,duration_manipulation_targetAtFixation,jsons/v1_VE1000_randls_20.json,http://54.235.29.9/FacialAge/BNav_EC2/DepthDuration/v2_depth_duration_MTurk/v2_DepthDuration_HTML.html#85,85,1366,625,1366,768,9-18-2022,12-43-14,163,depth_duration_stimuli/003621_2014-05-23_18-06-08_094959634447_rgbf000101-resize_1/003621_2014-05-23_18-06-08_094959634447_rgbf000101-resize_1-target.png,1000,3.9835,0,5862,1000,meters,jsons/v1_VE1000_randls_20.json,1664552,1917301,1995,Woman
163,835650,DepthScenes,duration_manipulation_targetAtFixation,jsons/v1_VE1000_randls_20.json,http://54.235.29.9/FacialAge/BNav_EC2/DepthDuration/v2_depth_duration_MTurk/v2_DepthDuration_HTML.html#85,85,1366,625,1366,768,9-18-2022,12-43-14,164,depth_duration_stimuli/001584_2014-06-20_11-07-43_260595134347_rgbf000002-resize_1/001584_2014-06-20_11-07-43_260595134347_rgbf000002-resize_1-target.png,1000,3.53,0,5602,998,meters,jsons/v1_VE1000_randls_20.json,1664552,1917301,1995,Woman
