,subjID,experimentName,versionName,sequenceName,url,selected_row,windowWidth,windowHeight,screenWidth,screenHeight,startDate,startTime,trial,stimulus,duration,actual_depth,depth_estimate,trial_RT,log_sceneDuration,unitSelection,seq_filepath,experimentTime,totalTime,age,gender
0,835910,DepthScenes,duration_manipulation_targetAtFixation,jsons/v1_VE250_randls_70_rotated.json,http://54.235.29.9/FacialAge/BNav_EC2/DepthDuration/v2_depth_duration_MTurk/v2_DepthDuration_HTML.html#66,66,1364,625,1364,768,8-29-2022,12-22-8,1,depth_duration_stimuli/002953_2014-06-08_17-32-18_094959634447_rgbf000059-resize_5/002953_2014-06-08_17-32-18_094959634447_rgbf000059-resize_5-target.png,250,1.551,3,4065,265,feet,jsons/v1_VE250_randls_70_rotated.json,791878,2972018,22,Woman
1,835910,DepthScenes,duration_manipulation_targetAtFixation,jsons/v1_VE250_randls_70_rotated.json,http://54.235.29.9/FacialAge/BNav_EC2/DepthDuration/v2_depth_duration_MTurk/v2_DepthDuration_HTML.html#66,66,1364,625,1364,768,8-29-2022,12-22-8,2,depth_duration_stimuli/000878_2014-06-08_22-52-45_260595134347_rgbf000045-resize_2/000878_2014-06-08_22-52-45_260595134347_rgbf000045-resize_2-target.png,250,2.092,0,2713,247,feet,jsons/v1_VE250_randls_70_rotated.json,791878,2972018,22,Woman
2,835910,DepthScenes,duration_manipulation_targetAtFixation,jsons/v1_VE250_randls_70_rotated.json,http://54.235.29.9/FacialAge/BNav_EC2/DepthDuration/v2_depth_duration_MTurk/v2_DepthDuration_HTML.html#66,66,1364,625,1364,768,8-29-2022,12-22-8,3,depth_duration_stimuli/001100_2014-06-15_17-46-26_260595134347_rgbf000225-resize_2/001100_2014-06-15_17-46-26_260595134347_rgbf000225-resize_2-target.png,250,2.24,3,4010,237,feet,jsons/v1_VE250_randls_70_rotated.json,791878,2972018,22,Woman
3,835910,DepthScenes,duration_manipulation_targetAtFixation,jsons/v1_VE250_randls_70_rotated.json,http://54.235.29.9/FacialAge/BNav_EC2/DepthDuration/v2_depth_duration_MTurk/v2_DepthDuration_HTML.html#66,66,1364,625,1364,768,8-29-2022,12-22-8,4,depth_duration_stimuli/002784_2014-06-22_19-26-30_094959634447_rgbf000083-resize_3/002784_2014-06-22_19-26-30_094959634447_rgbf000083-resize_3-target.png,250,1.8046666666667,0,3053,249,feet,jsons/v1_VE250_randls_70_rotated.json,791878,2972018,22,Woman
4,835910,DepthScenes,duration_manipulation_targetAtFixation,jsons/v1_VE250_randls_70_rotated.json,http://54.235.29.9/FacialAge/BNav_EC2/DepthDuration/v2_depth_duration_MTurk/v2_DepthDuration_HTML.html#66,66,1364,625,1364,768,8-29-2022,12-22-8,5,depth_duration_stimuli/002444_2014-06-28_20-32-08_260595134347_rgbf000027-resize_0/002444_2014-06-28_20-32-08_260595134347_rgbf000027-resize_0-target.png,250,4.388999999999999,3,3667,251,feet,jsons/v1_VE250_randls_70_rotated.json,791878,2972018,22,Woman
5,835910,DepthScenes,duration_manipulation_targetAtFixation,jsons/v1_VE250_randls_70_rotated.json,http://54.235.29.9/FacialAge/BNav_EC2/DepthDuration/v2_depth_duration_MTurk/v2_DepthDuration_HTML.html#66,66,1364,625,1364,768,8-29-2022,12-22-8,6,depth_duration_stimuli/000436_2014-06-09_22-25-11_260595134347_rgbf000137-resize_1/000436_2014-06-09_22-25-11_260595134347_rgbf000137-resize_1-target.png,250,4.0705,0,2508,253,feet,jsons/v1_VE250_randls_70_rotated.json,791878,2972018,22,Woman
6,835910,DepthScenes,duration_manipulation_targetAtFixation,jsons/v1_VE250_randls_70_rotated.json,http://54.235.29.9/FacialAge/BNav_EC2/DepthDuration/v2_depth_duration_MTurk/v2_DepthDuration_HTML.html#66,66,1364,625,1364,768,8-29-2022,12-22-8,7,depth_duration_stimuli/001094_2014-06-15_17-36-00_260595134347_rgbf000205-resize_0/001094_2014-06-15_17-36-00_260595134347_rgbf000205-resize_0-target.png,250,4.2175,0,3463,249,feet,jsons/v1_VE250_randls_70_rotated.json,791878,2972018,22,Woman
7,835910,DepthScenes,duration_manipulation_targetAtFixation,jsons/v1_VE250_randls_70_rotated.json,http://54.235.29.9/FacialAge/BNav_EC2/DepthDuration/v2_depth_duration_MTurk/v2_DepthDuration_HTML.html#66,66,1364,625,1364,768,8-29-2022,12-22-8,8,depth_duration_stimuli/000692_2014-06-08_13-09-42_260595134347_rgbf000199-resize_2/000692_2014-06-08_13-09-42_260595134347_rgbf000199-resize_2-target.png,250,3.661,0,3001,261,feet,jsons/v1_VE250_randls_70_rotated.json,791878,2972018,22,Woman
8,835910,DepthScenes,duration_manipulation_targetAtFixation,jsons/v1_VE250_randls_70_rotated.json,http://54.235.29.9/FacialAge/BNav_EC2/DepthDuration/v2_depth_duration_MTurk/v2_DepthDuration_HTML.html#66,66,1364,625,1364,768,8-29-2022,12-22-8,9,depth_duration_stimuli/000103_2014-05-14_22-01-17_260595134347_rgbf000152-resize_5/000103_2014-05-14_22-01-17_260595134347_rgbf000152-resize_5-target.png,250,1.993,4,3547,253,feet,jsons/v1_VE250_randls_70_rotated.json,791878,2972018,22,Woman
9,835910,DepthScenes,duration_manipulation_targetAtFixation,jsons/v1_VE250_randls_70_rotated.json,http://54.235.29.9/FacialAge/BNav_EC2/DepthDuration/v2_depth_duration_MTurk/v2_DepthDuration_HTML.html#66,66,1364,625,1364,768,8-29-2022,12-22-8,10,depth_duration_stimuli/001555_2014-06-20_17-12-10_260595134347_rgbf000065-resize_4/001555_2014-06-20_17-12-10_260595134347_rgbf000065-resize_4-target.png,250,1.633,0,2485,290,feet,jsons/v1_VE250_randls_70_rotated.json,791878,2972018,22,Woman
10,835910,DepthScenes,duration_manipulation_targetAtFixation,jsons/v1_VE250_randls_70_rotated.json,http://54.235.29.9/FacialAge/BNav_EC2/DepthDuration/v2_depth_duration_MTurk/v2_DepthDuration_HTML.html#66,66,1364,625,1364,768,8-29-2022,12-22-8,11,depth_duration_stimuli/000943_2014-06-09_19-31-07_260595134347_rgbf000128-resize_1/000943_2014-06-09_19-31-07_260595134347_rgbf000128-resize_1-target.png,250,1.9765,3,4923,250,feet,jsons/v1_VE250_randls_70_rotated.json,791878,2972018,22,Woman
11,835910,DepthScenes,duration_manipulation_targetAtFixation,jsons/v1_VE250_randls_70_rotated.json,http://54.235.29.9/FacialAge/BNav_EC2/DepthDuration/v2_depth_duration_MTurk/v2_DepthDuration_HTML.html#66,66,1364,625,1364,768,8-29-2022,12-22-8,12,depth_duration_stimuli/003070_2014-06-15_14-58-27_094959634447_rgbf000150-resize_3/003070_2014-06-15_14-58-27_094959634447_rgbf000150-resize_3-target.png,250,2.9415,0,2640,260,feet,jsons/v1_VE250_randls_70_rotated.json,791878,2972018,22,Woman
12,835910,DepthScenes,duration_manipulation_targetAtFixation,jsons/v1_VE250_randls_70_rotated.json,http://54.235.29.9/FacialAge/BNav_EC2/DepthDuration/v2_depth_duration_MTurk/v2_DepthDuration_HTML.html#66,66,1364,625,1364,768,8-29-2022,12-22-8,13,depth_duration_stimuli/000137_2014-05-20_17-04-49_260595134347_rgbf000120-resize_1/000137_2014-05-20_17-04-49_260595134347_rgbf000120-resize_1-target.png,250,3.786,5,3895,250,feet,jsons/v1_VE250_randls_70_rotated.json,791878,2972018,22,Woman
13,835910,DepthScenes,duration_manipulation_targetAtFixation,jsons/v1_VE250_randls_70_rotated.json,http://54.235.29.9/FacialAge/BNav_EC2/DepthDuration/v2_depth_duration_MTurk/v2_DepthDuration_HTML.html#66,66,1364,625,1364,768,8-29-2022,12-22-8,14,depth_duration_stimuli/000736_2014-06-08_18-24-15_260595134347_rgbf000206-resize_3/000736_2014-06-08_18-24-15_260595134347_rgbf000206-resize_3-target.png,250,3.515,0,26310,387,feet,jsons/v1_VE250_randls_70_rotated.json,791878,2972018,22,Woman
14,835910,DepthScenes,duration_manipulation_targetAtFixation,jsons/v1_VE250_randls_70_rotated.json,http://54.235.29.9/FacialAge/BNav_EC2/DepthDuration/v2_depth_duration_MTurk/v2_DepthDuration_HTML.html#66,66,1364,625,1364,768,8-29-2022,12-22-8,15,depth_duration_stimuli/001214_2014-06-17_16-13-55_260595134347_rgbf000111-resize_0/001214_2014-06-17_16-13-55_260595134347_rgbf000111-resize_0-target.png,250,2.6505,1,4093,245,feet,jsons/v1_VE250_randls_70_rotated.json,791878,2972018,22,Woman
15,835910,DepthScenes,duration_manipulation_targetAtFixation,jsons/v1_VE250_randls_70_rotated.json,http://54.235.29.9/FacialAge/BNav_EC2/DepthDuration/v2_depth_duration_MTurk/v2_DepthDuration_HTML.html#66,66,1364,625,1364,768,8-29-2022,12-22-8,16,depth_duration_stimuli/000810_2014-06-08_17-20-01_260595134347_rgbf000105-resize_0/000810_2014-06-08_17-20-01_260595134347_rgbf000105-resize_0-target.png,250,1.4865,0,2506,249,feet,jsons/v1_VE250_randls_70_rotated.json,791878,2972018,22,Woman
16,835910,DepthScenes,duration_manipulation_targetAtFixation,jsons/v1_VE250_randls_70_rotated.json,http://54.235.29.9/FacialAge/BNav_EC2/DepthDuration/v2_depth_duration_MTurk/v2_DepthDuration_HTML.html#66,66,1364,625,1364,768,8-29-2022,12-22-8,17,depth_duration_stimuli/000854_2014-06-09_19-43-13_260595134347_rgbf000066-resize_0/000854_2014-06-09_19-43-13_260595134347_rgbf000066-resize_0-target.png,250,3.068,2,4398,249,feet,jsons/v1_VE250_randls_70_rotated.json,791878,2972018,22,Woman
17,835910,DepthScenes,duration_manipulation_targetAtFixation,jsons/v1_VE250_randls_70_rotated.json,http://54.235.29.9/FacialAge/BNav_EC2/DepthDuration/v2_depth_duration_MTurk/v2_DepthDuration_HTML.html#66,66,1364,625,1364,768,8-29-2022,12-22-8,18,depth_duration_stimuli/000758_2014-06-08_22-05-08_260595134347_rgbf000085-resize_0/000758_2014-06-08_22-05-08_260595134347_rgbf000085-resize_0-target.png,250,3.3810000000000002,3,2696,255,feet,jsons/v1_VE250_randls_70_rotated.json,791878,2972018,22,Woman
18,835910,DepthScenes,duration_manipulation_targetAtFixation,jsons/v1_VE250_randls_70_rotated.json,http://54.235.29.9/FacialAge/BNav_EC2/DepthDuration/v2_depth_duration_MTurk/v2_DepthDuration_HTML.html#66,66,1364,625,1364,768,8-29-2022,12-22-8,19,depth_duration_stimuli/001498_2014-06-19_17-45-14_260595134347_rgbf000129-resize_4/001498_2014-06-19_17-45-14_260595134347_rgbf000129-resize-original.jpg,250,1.4075,3,3977,254,feet,jsons/v1_VE250_randls_70_rotated.json,791878,2972018,22,Woman
19,835910,DepthScenes,duration_manipulation_targetAtFixation,jsons/v1_VE250_randls_70_rotated.json,http://54.235.29.9/FacialAge/BNav_EC2/DepthDuration/v2_depth_duration_MTurk/v2_DepthDuration_HTML.html#66,66,1364,625,1364,768,8-29-2022,12-22-8,20,depth_duration_stimuli/003587_2014-05-23_16-48-02_094959634447_rgbf002384-resize_2/003587_2014-05-23_16-48-02_094959634447_rgbf002384-resize_2-target.png,250,1.357,3,3774,245,feet,jsons/v1_VE250_randls_70_rotated.json,791878,2972018,22,Woman
20,835910,DepthScenes,duration_manipulation_targetAtFixation,jsons/v1_VE250_randls_70_rotated.json,http://54.235.29.9/FacialAge/BNav_EC2/DepthDuration/v2_depth_duration_MTurk/v2_DepthDuration_HTML.html#66,66,1364,625,1364,768,8-29-2022,12-22-8,21,depth_duration_stimuli/001167_2014-06-17_15-38-07_260595134347_rgbf000108-resize_0/001167_2014-06-17_15-38-07_260595134347_rgbf000108-resize_0-target.png,250,1.8505,0,2175,230,feet,jsons/v1_VE250_randls_70_rotated.json,791878,2972018,22,Woman
21,835910,DepthScenes,duration_manipulation_targetAtFixation,jsons/v1_VE250_randls_70_rotated.json,http://54.235.29.9/FacialAge/BNav_EC2/DepthDuration/v2_depth_duration_MTurk/v2_DepthDuration_HTML.html#66,66,1364,625,1364,768,8-29-2022,12-22-8,22,depth_duration_stimuli/000549_2014-06-08_22-10-24_260595134347_rgbf000247-resize_3/000549_2014-06-08_22-10-24_260595134347_rgbf000247-resize_3-target.png,250,1.841,2,3121,249,feet,jsons/v1_VE250_randls_70_rotated.json,791878,2972018,22,Woman
22,835910,DepthScenes,duration_manipulation_targetAtFixation,jsons/v1_VE250_randls_70_rotated.json,http://54.235.29.9/FacialAge/BNav_EC2/DepthDuration/v2_depth_duration_MTurk/v2_DepthDuration_HTML.html#66,66,1364,625,1364,768,8-29-2022,12-22-8,23,depth_duration_stimuli/001055_2014-06-08_18-45-35_260595134347_rgbf000111-resize_4/001055_2014-06-08_18-45-35_260595134347_rgbf000111-resize_4-target.png,250,2.4290000000000003,0,2504,378,feet,jsons/v1_VE250_randls_70_rotated.json,791878,2972018,22,Woman
23,835910,DepthScenes,duration_manipulation_targetAtFixation,jsons/v1_VE250_randls_70_rotated.json,http://54.235.29.9/FacialAge/BNav_EC2/DepthDuration/v2_depth_duration_MTurk/v2_DepthDuration_HTML.html#66,66,1364,625,1364,768,8-29-2022,12-22-8,24,depth_duration_stimuli/002660_2014-06-13_15-44-18_094959634447_rgbf001878-resize_2/002660_2014-06-13_15-44-18_094959634447_rgbf001878-resize_2-target.png,250,3.576,3,3022,238,feet,jsons/v1_VE250_randls_70_rotated.json,791878,2972018,22,Woman
24,835910,DepthScenes,duration_manipulation_targetAtFixation,jsons/v1_VE250_randls_70_rotated.json,http://54.235.29.9/FacialAge/BNav_EC2/DepthDuration/v2_depth_duration_MTurk/v2_DepthDuration_HTML.html#66,66,1364,625,1364,768,8-29-2022,12-22-8,25,depth_duration_stimuli/002153_2014-06-25_21-27-18_260595134347_rgbf000038-resize_5/002153_2014-06-25_21-27-18_260595134347_rgbf000038-resize_5-target.png,250,2.505,0,2534,241,feet,jsons/v1_VE250_randls_70_rotated.json,791878,2972018,22,Woman
25,835910,DepthScenes,duration_manipulation_targetAtFixation,jsons/v1_VE250_randls_70_rotated.json,http://54.235.29.9/FacialAge/BNav_EC2/DepthDuration/v2_depth_duration_MTurk/v2_DepthDuration_HTML.html#66,66,1364,625,1364,768,8-29-2022,12-22-8,26,depth_duration_stimuli/002467_2014-06-28_20-38-07_260595134347_rgbf000026-resize_2/002467_2014-06-28_20-38-07_260595134347_rgbf000026-resize_2-target.png,250,4.742,4,3886,248,feet,jsons/v1_VE250_randls_70_rotated.json,791878,2972018,22,Woman
26,835910,DepthScenes,duration_manipulation_targetAtFixation,jsons/v1_VE250_randls_70_rotated.json,http://54.235.29.9/FacialAge/BNav_EC2/DepthDuration/v2_depth_duration_MTurk/v2_DepthDuration_HTML.html#66,66,1364,625,1364,768,8-29-2022,12-22-8,27,depth_duration_stimuli/002570_2014-06-24_13-59-54_094959634447_rgbf000059-resize_0/002570_2014-06-24_13-59-54_094959634447_rgbf000059-resize_0-target.png,250,4.037,0,2282,251,feet,jsons/v1_VE250_randls_70_rotated.json,791878,2972018,22,Woman
27,835910,DepthScenes,duration_manipulation_targetAtFixation,jsons/v1_VE250_randls_70_rotated.json,http://54.235.29.9/FacialAge/BNav_EC2/DepthDuration/v2_depth_duration_MTurk/v2_DepthDuration_HTML.html#66,66,1364,625,1364,768,8-29-2022,12-22-8,28,depth_duration_stimuli/000780_2014-06-08_22-28-29_260595134347_rgbf000126-resize_1/000780_2014-06-08_22-28-29_260595134347_rgbf000126-resize_1-target.png,250,3.3825,5,3535,247,feet,jsons/v1_VE250_randls_70_rotated.json,791878,2972018,22,Woman
28,835910,DepthScenes,duration_manipulation_targetAtFixation,jsons/v1_VE250_randls_70_rotated.json,http://54.235.29.9/FacialAge/BNav_EC2/DepthDuration/v2_depth_duration_MTurk/v2_DepthDuration_HTML.html#66,66,1364,625,1364,768,8-29-2022,12-22-8,29,depth_duration_stimuli/002445_2014-06-28_20-32-16_260595134347_rgbf000029-resize_4/002445_2014-06-28_20-32-16_260595134347_rgbf000029-resize_4-target.png,250,2.5315,0,2308,250,feet,jsons/v1_VE250_randls_70_rotated.json,791878,2972018,22,Woman
29,835910,DepthScenes,duration_manipulation_targetAtFixation,jsons/v1_VE250_randls_70_rotated.json,http://54.235.29.9/FacialAge/BNav_EC2/DepthDuration/v2_depth_duration_MTurk/v2_DepthDuration_HTML.html#66,66,1364,625,1364,768,8-29-2022,12-22-8,30,depth_duration_stimuli/002072_2014-06-24_21-48-06_260595134347_rgbf000115-resize_0/002072_2014-06-24_21-48-06_260595134347_rgbf000115-resize-original.jpg,250,4.702,0,2531,258,feet,jsons/v1_VE250_randls_70_rotated.json,791878,2972018,22,Woman
30,835910,DepthScenes,duration_manipulation_targetAtFixation,jsons/v1_VE250_randls_70_rotated.json,http://54.235.29.9/FacialAge/BNav_EC2/DepthDuration/v2_depth_duration_MTurk/v2_DepthDuration_HTML.html#66,66,1364,625,1364,768,8-29-2022,12-22-8,31,depth_duration_stimuli/002639_2014-06-24_14-51-37_094959634447_rgbf000074-resize_4/002639_2014-06-24_14-51-37_094959634447_rgbf000074-resize_4-target.png,250,4.0375,3,2970,246,feet,jsons/v1_VE250_randls_70_rotated.json,791878,2972018,22,Woman
31,835910,DepthScenes,duration_manipulation_targetAtFixation,jsons/v1_VE250_randls_70_rotated.json,http://54.235.29.9/FacialAge/BNav_EC2/DepthDuration/v2_depth_duration_MTurk/v2_DepthDuration_HTML.html#66,66,1364,625,1364,768,8-29-2022,12-22-8,32,depth_duration_stimuli/003292_2014-05-14_21-53-49_094959634447_rgbf000100-resize_2/003292_2014-05-14_21-53-49_094959634447_rgbf000100-resize_2-target.png,250,3.4815,0,2763,236,feet,jsons/v1_VE250_randls_70_rotated.json,791878,2972018,22,Woman
32,835910,DepthScenes,duration_manipulation_targetAtFixation,jsons/v1_VE250_randls_70_rotated.json,http://54.235.29.9/FacialAge/BNav_EC2/DepthDuration/v2_depth_duration_MTurk/v2_DepthDuration_HTML.html#66,66,1364,625,1364,768,8-29-2022,12-22-8,33,depth_duration_stimuli/001032_2014-06-08_13-23-17_260595134347_rgbf000021-resize_3/001032_2014-06-08_13-23-17_260595134347_rgbf000021-resize_3-target.png,250,3.2725,3,3633,248,feet,jsons/v1_VE250_randls_70_rotated.json,791878,2972018,22,Woman
33,835910,DepthScenes,duration_manipulation_targetAtFixation,jsons/v1_VE250_randls_70_rotated.json,http://54.235.29.9/FacialAge/BNav_EC2/DepthDuration/v2_depth_duration_MTurk/v2_DepthDuration_HTML.html#66,66,1364,625,1364,768,8-29-2022,12-22-8,34,depth_duration_stimuli/001059_2014-06-08_21-53-27_260595134347_rgbf000061-resize_4/001059_2014-06-08_21-53-27_260595134347_rgbf000061-resize_4-target.png,250,2.4185,3,2376,355,feet,jsons/v1_VE250_randls_70_rotated.json,791878,2972018,22,Woman
34,835910,DepthScenes,duration_manipulation_targetAtFixation,jsons/v1_VE250_randls_70_rotated.json,http://54.235.29.9/FacialAge/BNav_EC2/DepthDuration/v2_depth_duration_MTurk/v2_DepthDuration_HTML.html#66,66,1364,625,1364,768,8-29-2022,12-22-8,35,depth_duration_stimuli/000109_2014-05-14_23-41-52_260595134347_rgbf000035-resize_9/000109_2014-05-14_23-41-52_260595134347_rgbf000035-resize_9-target.png,250,1.3545,2,4442,385,feet,jsons/v1_VE250_randls_70_rotated.json,791878,2972018,22,Woman
35,835910,DepthScenes,duration_manipulation_targetAtFixation,jsons/v1_VE250_randls_70_rotated.json,http://54.235.29.9/FacialAge/BNav_EC2/DepthDuration/v2_depth_duration_MTurk/v2_DepthDuration_HTML.html#66,66,1364,625,1364,768,8-29-2022,12-22-8,36,depth_duration_stimuli/000470_2014-06-09_19-42-40_260595134347_rgbf000094-resize_1/000470_2014-06-09_19-42-40_260595134347_rgbf000094-resize_1-target.png,250,1.831,0,2933,261,feet,jsons/v1_VE250_randls_70_rotated.json,791878,2972018,22,Woman
36,835910,DepthScenes,duration_manipulation_targetAtFixation,jsons/v1_VE250_randls_70_rotated.json,http://54.235.29.9/FacialAge/BNav_EC2/DepthDuration/v2_depth_duration_MTurk/v2_DepthDuration_HTML.html#66,66,1364,625,1364,768,8-29-2022,12-22-8,37,depth_duration_stimuli/002425_2014-06-28_20-27-29_260595134347_rgbf000031-resize_8/002425_2014-06-28_20-27-29_260595134347_rgbf000031-resize_8-target.png,250,3.8960000000000004,0,3585,225,feet,jsons/v1_VE250_randls_70_rotated.json,791878,2972018,22,Woman
37,835910,DepthScenes,duration_manipulation_targetAtFixation,jsons/v1_VE250_randls_70_rotated.json,http://54.235.29.9/FacialAge/BNav_EC2/DepthDuration/v2_depth_duration_MTurk/v2_DepthDuration_HTML.html#66,66,1364,625,1364,768,8-29-2022,12-22-8,38,depth_duration_stimuli/000642_2014-06-08_16-59-25_260595134347_rgbf000098-resize_2/000642_2014-06-08_16-59-25_260595134347_rgbf000098-resize_2-target.png,250,2.8815,0,2162,239,feet,jsons/v1_VE250_randls_70_rotated.json,791878,2972018,22,Woman
38,835910,DepthScenes,duration_manipulation_targetAtFixation,jsons/v1_VE250_randls_70_rotated.json,http://54.235.29.9/FacialAge/BNav_EC2/DepthDuration/v2_depth_duration_MTurk/v2_DepthDuration_HTML.html#66,66,1364,625,1364,768,8-29-2022,12-22-8,39,depth_duration_stimuli/002136_2014-06-25_21-18-03_260595134347_rgbf000109-resize_3/002136_2014-06-25_21-18-03_260595134347_rgbf000109-resize_3-target.png,250,1.9569999999999999,3,2927,252,feet,jsons/v1_VE250_randls_70_rotated.json,791878,2972018,22,Woman
39,835910,DepthScenes,duration_manipulation_targetAtFixation,jsons/v1_VE250_randls_70_rotated.json,http://54.235.29.9/FacialAge/BNav_EC2/DepthDuration/v2_depth_duration_MTurk/v2_DepthDuration_HTML.html#66,66,1364,625,1364,768,8-29-2022,12-22-8,40,depth_duration_stimuli/002964_2014-06-08_17-46-11_094959634447_rgbf000091-resize_4/002964_2014-06-08_17-46-11_094959634447_rgbf000091-resize_4-target.png,250,1.6909999999999998,0,3059,248,feet,jsons/v1_VE250_randls_70_rotated.json,791878,2972018,22,Woman
40,835910,DepthScenes,duration_manipulation_targetAtFixation,jsons/v1_VE250_randls_70_rotated.json,http://54.235.29.9/FacialAge/BNav_EC2/DepthDuration/v2_depth_duration_MTurk/v2_DepthDuration_HTML.html#66,66,1364,625,1364,768,8-29-2022,12-22-8,41,depth_duration_stimuli/002103_2014-06-25_20-00-40_260595134347_rgbf000049-resize_0/002103_2014-06-25_20-00-40_260595134347_rgbf000049-resize_0-target.png,250,4.105,0,5728,250,feet,jsons/v1_VE250_randls_70_rotated.json,791878,2972018,22,Woman
41,835910,DepthScenes,duration_manipulation_targetAtFixation,jsons/v1_VE250_randls_70_rotated.json,http://54.235.29.9/FacialAge/BNav_EC2/DepthDuration/v2_depth_duration_MTurk/v2_DepthDuration_HTML.html#66,66,1364,625,1364,768,8-29-2022,12-22-8,42,depth_duration_stimuli/002039_2014-06-24_20-22-38_260595134347_rgbf000084-resize_1/002039_2014-06-24_20-22-38_260595134347_rgbf000084-resize_1-target.png,250,4.408,0,3783,253,feet,jsons/v1_VE250_randls_70_rotated.json,791878,2972018,22,Woman
42,835910,DepthScenes,duration_manipulation_targetAtFixation,jsons/v1_VE250_randls_70_rotated.json,http://54.235.29.9/FacialAge/BNav_EC2/DepthDuration/v2_depth_duration_MTurk/v2_DepthDuration_HTML.html#66,66,1364,625,1364,768,8-29-2022,12-22-8,43,depth_duration_stimuli/000709_2014-06-08_13-51-55_260595134347_rgbf000068-resize_3/000709_2014-06-08_13-51-55_260595134347_rgbf000068-resize_3-target.png,250,1.8030000000000002,4,3364,233,feet,jsons/v1_VE250_randls_70_rotated.json,791878,2972018,22,Woman
43,835910,DepthScenes,duration_manipulation_targetAtFixation,jsons/v1_VE250_randls_70_rotated.json,http://54.235.29.9/FacialAge/BNav_EC2/DepthDuration/v2_depth_duration_MTurk/v2_DepthDuration_HTML.html#66,66,1364,625,1364,768,8-29-2022,12-22-8,44,depth_duration_stimuli/002057_2014-06-24_21-00-13_260595134347_rgbf000120-resize_1/002057_2014-06-24_21-00-13_260595134347_rgbf000120-resize_1-target.png,250,2.967,0,14617,249,feet,jsons/v1_VE250_randls_70_rotated.json,791878,2972018,22,Woman
44,835910,DepthScenes,duration_manipulation_targetAtFixation,jsons/v1_VE250_randls_70_rotated.json,http://54.235.29.9/FacialAge/BNav_EC2/DepthDuration/v2_depth_duration_MTurk/v2_DepthDuration_HTML.html#66,66,1364,625,1364,768,8-29-2022,12-22-8,45,depth_duration_stimuli/001516_2014-06-20_16-25-09_260595134347_rgbf000076-resize_2/001516_2014-06-20_16-25-09_260595134347_rgbf000076-resize_2-target.png,250,1.7445,3,3983,248,feet,jsons/v1_VE250_randls_70_rotated.json,791878,2972018,22,Woman
45,835910,DepthScenes,duration_manipulation_targetAtFixation,jsons/v1_VE250_randls_70_rotated.json,http://54.235.29.9/FacialAge/BNav_EC2/DepthDuration/v2_depth_duration_MTurk/v2_DepthDuration_HTML.html#66,66,1364,625,1364,768,8-29-2022,12-22-8,46,depth_duration_stimuli/002118_2014-06-25_20-32-08_260595134347_rgbf000078-resize_1/002118_2014-06-25_20-32-08_260595134347_rgbf000078-resize_1-target.png,250,2.6460000000000004,0,2824,251,feet,jsons/v1_VE250_randls_70_rotated.json,791878,2972018,22,Woman
46,835910,DepthScenes,duration_manipulation_targetAtFixation,jsons/v1_VE250_randls_70_rotated.json,http://54.235.29.9/FacialAge/BNav_EC2/DepthDuration/v2_depth_duration_MTurk/v2_DepthDuration_HTML.html#66,66,1364,625,1364,768,8-29-2022,12-22-8,47,depth_duration_stimuli/002199_2014-06-28_18-33-56_260595134347_rgbf000074-resize_0/002199_2014-06-28_18-33-56_260595134347_rgbf000074-resize_0-target.png,250,1.996,0,4170,254,feet,jsons/v1_VE250_randls_70_rotated.json,791878,2972018,22,Woman
47,835910,DepthScenes,duration_manipulation_targetAtFixation,jsons/v1_VE250_randls_70_rotated.json,http://54.235.29.9/FacialAge/BNav_EC2/DepthDuration/v2_depth_duration_MTurk/v2_DepthDuration_HTML.html#66,66,1364,625,1364,768,8-29-2022,12-22-8,48,depth_duration_stimuli/001056_2014-06-08_18-46-44_260595134347_rgbf000068-resize_0/001056_2014-06-08_18-46-44_260595134347_rgbf000068-resize_0-target.png,250,2.6625,3,3312,249,feet,jsons/v1_VE250_randls_70_rotated.json,791878,2972018,22,Woman
48,835910,DepthScenes,duration_manipulation_targetAtFixation,jsons/v1_VE250_randls_70_rotated.json,http://54.235.29.9/FacialAge/BNav_EC2/DepthDuration/v2_depth_duration_MTurk/v2_DepthDuration_HTML.html#66,66,1364,625,1364,768,8-29-2022,12-22-8,49,depth_duration_stimuli/001170_2014-06-17_15-43-44_260595134347_rgbf000096-resize_6/001170_2014-06-17_15-43-44_260595134347_rgbf000096-resize-original.jpg,250,1.1909999999999998,3,3564,249,feet,jsons/v1_VE250_randls_70_rotated.json,791878,2972018,22,Woman
49,835910,DepthScenes,duration_manipulation_targetAtFixation,jsons/v1_VE250_randls_70_rotated.json,http://54.235.29.9/FacialAge/BNav_EC2/DepthDuration/v2_depth_duration_MTurk/v2_DepthDuration_HTML.html#66,66,1364,625,1364,768,8-29-2022,12-22-8,50,depth_duration_stimuli/002340_2014-06-28_20-05-46_260595134347_rgbf000113-resize_0/002340_2014-06-28_20-05-46_260595134347_rgbf000113-resize_0-target.png,250,2.4735,0,4624,248,feet,jsons/v1_VE250_randls_70_rotated.json,791878,2972018,22,Woman
50,835910,DepthScenes,duration_manipulation_targetAtFixation,jsons/v1_VE250_randls_70_rotated.json,http://54.235.29.9/FacialAge/BNav_EC2/DepthDuration/v2_depth_duration_MTurk/v2_DepthDuration_HTML.html#66,66,1364,625,1364,768,8-29-2022,12-22-8,51,depth_duration_stimuli/001016_2014-06-09_16-16-10_260595134347_rgbf000112-resize_5/001016_2014-06-09_16-16-10_260595134347_rgbf000112-resize_5-target.png,250,1.6565,0,11454,250,feet,jsons/v1_VE250_randls_70_rotated.json,791878,2972018,22,Woman
51,835910,DepthScenes,duration_manipulation_targetAtFixation,jsons/v1_VE250_randls_70_rotated.json,http://54.235.29.9/FacialAge/BNav_EC2/DepthDuration/v2_depth_duration_MTurk/v2_DepthDuration_HTML.html#66,66,1364,625,1364,768,8-29-2022,12-22-8,52,depth_duration_stimuli/003010_2014-06-15_12-54-35_094959634447_rgbf000112-resize_0/003010_2014-06-15_12-54-35_094959634447_rgbf000112-resize_0-target.png,250,3.1185,0,87948,250,feet,jsons/v1_VE250_randls_70_rotated.json,791878,2972018,22,Woman
52,835910,DepthScenes,duration_manipulation_targetAtFixation,jsons/v1_VE250_randls_70_rotated.json,http://54.235.29.9/FacialAge/BNav_EC2/DepthDuration/v2_depth_duration_MTurk/v2_DepthDuration_HTML.html#66,66,1364,625,1364,768,8-29-2022,12-22-8,53,depth_duration_stimuli/001810_2014-06-26_20-51-35_260595134347_rgbf000040-resize_3/001810_2014-06-26_20-51-35_260595134347_rgbf000040-resize_3-target.png,250,2.2525,0,3131,250,feet,jsons/v1_VE250_randls_70_rotated.json,791878,2972018,22,Woman
53,835910,DepthScenes,duration_manipulation_targetAtFixation,jsons/v1_VE250_randls_70_rotated.json,http://54.235.29.9/FacialAge/BNav_EC2/DepthDuration/v2_depth_duration_MTurk/v2_DepthDuration_HTML.html#66,66,1364,625,1364,768,8-29-2022,12-22-8,54,depth_duration_stimuli/002805_2014-06-22_19-54-03_094959634447_rgbf000079-resize_1/002805_2014-06-22_19-54-03_094959634447_rgbf000079-resize_1-target.png,250,3.1439999999999997,3,3506,217,feet,jsons/v1_VE250_randls_70_rotated.json,791878,2972018,22,Woman
54,835910,DepthScenes,duration_manipulation_targetAtFixation,jsons/v1_VE250_randls_70_rotated.json,http://54.235.29.9/FacialAge/BNav_EC2/DepthDuration/v2_depth_duration_MTurk/v2_DepthDuration_HTML.html#66,66,1364,625,1364,768,8-29-2022,12-22-8,55,depth_duration_stimuli/000906_2014-06-08_13-35-43_260595134347_rgbf000155-resize_1/000906_2014-06-08_13-35-43_260595134347_rgbf000155-resize_1-target.png,250,2.8489999999999998,5,2874,250,feet,jsons/v1_VE250_randls_70_rotated.json,791878,2972018,22,Woman
55,835910,DepthScenes,duration_manipulation_targetAtFixation,jsons/v1_VE250_randls_70_rotated.json,http://54.235.29.9/FacialAge/BNav_EC2/DepthDuration/v2_depth_duration_MTurk/v2_DepthDuration_HTML.html#66,66,1364,625,1364,768,8-29-2022,12-22-8,56,depth_duration_stimuli/001828_2014-06-26_21-40-03_260595134347_rgbf000024-resize_0/001828_2014-06-26_21-40-03_260595134347_rgbf000024-resize_0-target.png,250,4.8260000000000005,3,3438,278,feet,jsons/v1_VE250_randls_70_rotated.json,791878,2972018,22,Woman
56,835910,DepthScenes,duration_manipulation_targetAtFixation,jsons/v1_VE250_randls_70_rotated.json,http://54.235.29.9/FacialAge/BNav_EC2/DepthDuration/v2_depth_duration_MTurk/v2_DepthDuration_HTML.html#66,66,1364,625,1364,768,8-29-2022,12-22-8,57,depth_duration_stimuli/000009_2014-05-26_14-32-05_260595134347_rgbf000034-resize_3/000009_2014-05-26_14-32-05_260595134347_rgbf000034-resize_3-target.png,250,3.8715,0,2314,248,feet,jsons/v1_VE250_randls_70_rotated.json,791878,2972018,22,Woman
57,835910,DepthScenes,duration_manipulation_targetAtFixation,jsons/v1_VE250_randls_70_rotated.json,http://54.235.29.9/FacialAge/BNav_EC2/DepthDuration/v2_depth_duration_MTurk/v2_DepthDuration_HTML.html#66,66,1364,625,1364,768,8-29-2022,12-22-8,58,depth_duration_stimuli/003048_2014-06-15_13-49-43_094959634447_rgbf000150-resize_1/003048_2014-06-15_13-49-43_094959634447_rgbf000150-resize_1-target.png,250,4.0035,4,4010,236,feet,jsons/v1_VE250_randls_70_rotated.json,791878,2972018,22,Woman
58,835910,DepthScenes,duration_manipulation_targetAtFixation,jsons/v1_VE250_randls_70_rotated.json,http://54.235.29.9/FacialAge/BNav_EC2/DepthDuration/v2_depth_duration_MTurk/v2_DepthDuration_HTML.html#66,66,1364,625,1364,768,8-29-2022,12-22-8,59,depth_duration_stimuli/002043_2014-06-24_20-29-38_260595134347_rgbf000039-resize_4/002043_2014-06-24_20-29-38_260595134347_rgbf000039-resize_4-target.png,250,2.8435,0,4488,250,feet,jsons/v1_VE250_randls_70_rotated.json,791878,2972018,22,Woman
59,835910,DepthScenes,duration_manipulation_targetAtFixation,jsons/v1_VE250_randls_70_rotated.json,http://54.235.29.9/FacialAge/BNav_EC2/DepthDuration/v2_depth_duration_MTurk/v2_DepthDuration_HTML.html#66,66,1364,625,1364,768,8-29-2022,12-22-8,60,depth_duration_stimuli/001571_2014-06-20_17-21-32_260595134347_rgbf000089-resize_1/001571_2014-06-20_17-21-32_260595134347_rgbf000089-resize_1-target.png,250,1.86,2,3052,252,feet,jsons/v1_VE250_randls_70_rotated.json,791878,2972018,22,Woman
60,835910,DepthScenes,duration_manipulation_targetAtFixation,jsons/v1_VE250_randls_70_rotated.json,http://54.235.29.9/FacialAge/BNav_EC2/DepthDuration/v2_depth_duration_MTurk/v2_DepthDuration_HTML.html#66,66,1364,625,1364,768,8-29-2022,12-22-8,61,depth_duration_stimuli/002272_2014-06-28_18-53-56_260595134347_rgbf000067-resize_2/002272_2014-06-28_18-53-56_260595134347_rgbf000067-resize_2-target.png,250,1.138,0,5700,262,feet,jsons/v1_VE250_randls_70_rotated.json,791878,2972018,22,Woman
61,835910,DepthScenes,duration_manipulation_targetAtFixation,jsons/v1_VE250_randls_70_rotated.json,http://54.235.29.9/FacialAge/BNav_EC2/DepthDuration/v2_depth_duration_MTurk/v2_DepthDuration_HTML.html#66,66,1364,625,1364,768,8-29-2022,12-22-8,62,depth_duration_stimuli/002657_2014-06-13_15-29-54_094959634447_rgbf000150-resize_1/002657_2014-06-13_15-29-54_094959634447_rgbf000150-resize_1-target.png,250,4.919,3,5241,251,feet,jsons/v1_VE250_randls_70_rotated.json,791878,2972018,22,Woman
62,835910,DepthScenes,duration_manipulation_targetAtFixation,jsons/v1_VE250_randls_70_rotated.json,http://54.235.29.9/FacialAge/BNav_EC2/DepthDuration/v2_depth_duration_MTurk/v2_DepthDuration_HTML.html#66,66,1364,625,1364,768,8-29-2022,12-22-8,63,depth_duration_stimuli/002375_2014-06-28_20-13-44_260595134347_rgbf000032-resize_1/002375_2014-06-28_20-13-44_260595134347_rgbf000032-resize_1-target.png,250,4.0175,0,2748,248,feet,jsons/v1_VE250_randls_70_rotated.json,791878,2972018,22,Woman
63,835910,DepthScenes,duration_manipulation_targetAtFixation,jsons/v1_VE250_randls_70_rotated.json,http://54.235.29.9/FacialAge/BNav_EC2/DepthDuration/v2_depth_duration_MTurk/v2_DepthDuration_HTML.html#66,66,1364,625,1364,768,8-29-2022,12-22-8,64,depth_duration_stimuli/003338_2014-05-20_11-01-23_094959634447_rgbf000051-resize_6/003338_2014-05-20_11-01-23_094959634447_rgbf000051-resize_6-target.png,250,1.693,3,8015,249,feet,jsons/v1_VE250_randls_70_rotated.json,791878,2972018,22,Woman
64,835910,DepthScenes,duration_manipulation_targetAtFixation,jsons/v1_VE250_randls_70_rotated.json,http://54.235.29.9/FacialAge/BNav_EC2/DepthDuration/v2_depth_duration_MTurk/v2_DepthDuration_HTML.html#66,66,1364,625,1364,768,8-29-2022,12-22-8,65,depth_duration_stimuli/002509_2014-06-24_13-19-22_094959634447_rgbf000077-resize_0/002509_2014-06-24_13-19-22_094959634447_rgbf000077-resize_0-target.png,250,1.3065,0,2663,248,feet,jsons/v1_VE250_randls_70_rotated.json,791878,2972018,22,Woman
65,835910,DepthScenes,duration_manipulation_targetAtFixation,jsons/v1_VE250_randls_70_rotated.json,http://54.235.29.9/FacialAge/BNav_EC2/DepthDuration/v2_depth_duration_MTurk/v2_DepthDuration_HTML.html#66,66,1364,625,1364,768,8-29-2022,12-22-8,66,depth_duration_stimuli/001540_2014-06-20_17-01-05_260595134347_rgbf000086-resize_2/001540_2014-06-20_17-01-05_260595134347_rgbf000086-resize-original.jpg,250,1.459,2,2788,248,feet,jsons/v1_VE250_randls_70_rotated.json,791878,2972018,22,Woman
66,835910,DepthScenes,duration_manipulation_targetAtFixation,jsons/v1_VE250_randls_70_rotated.json,http://54.235.29.9/FacialAge/BNav_EC2/DepthDuration/v2_depth_duration_MTurk/v2_DepthDuration_HTML.html#66,66,1364,625,1364,768,8-29-2022,12-22-8,67,depth_duration_stimuli/000483_2014-06-09_20-41-45_260595134347_rgbf000116-resize_4/000483_2014-06-09_20-41-45_260595134347_rgbf000116-resize_4-target.png,250,1.337,3,3430,255,feet,jsons/v1_VE250_randls_70_rotated.json,791878,2972018,22,Woman
67,835910,DepthScenes,duration_manipulation_targetAtFixation,jsons/v1_VE250_randls_70_rotated.json,http://54.235.29.9/FacialAge/BNav_EC2/DepthDuration/v2_depth_duration_MTurk/v2_DepthDuration_HTML.html#66,66,1364,625,1364,768,8-29-2022,12-22-8,68,depth_duration_stimuli/000469_2014-06-09_19-42-10_260595134347_rgbf000081-resize_1/000469_2014-06-09_19-42-10_260595134347_rgbf000081-resize_1-target.png,250,1.652,0,3622,251,feet,jsons/v1_VE250_randls_70_rotated.json,791878,2972018,22,Woman
68,835910,DepthScenes,duration_manipulation_targetAtFixation,jsons/v1_VE250_randls_70_rotated.json,http://54.235.29.9/FacialAge/BNav_EC2/DepthDuration/v2_depth_duration_MTurk/v2_DepthDuration_HTML.html#66,66,1364,625,1364,768,8-29-2022,12-22-8,69,depth_duration_stimuli/001450_2014-06-19_17-02-03_260595134347_rgbf000203-resize_4/001450_2014-06-19_17-02-03_260595134347_rgbf000203-resize_4-target.png,250,4.0106666666667,0,2466,235,feet,jsons/v1_VE250_randls_70_rotated.json,791878,2972018,22,Woman
69,835910,DepthScenes,duration_manipulation_targetAtFixation,jsons/v1_VE250_randls_70_rotated.json,http://54.235.29.9/FacialAge/BNav_EC2/DepthDuration/v2_depth_duration_MTurk/v2_DepthDuration_HTML.html#66,66,1364,625,1364,768,8-29-2022,12-22-8,70,depth_duration_stimuli/001449_2014-06-19_17-01-27_260595134347_rgbf000116-resize_2/001449_2014-06-19_17-01-27_260595134347_rgbf000116-resize_2-target.png,250,3.452,0,2930,244,feet,jsons/v1_VE250_randls_70_rotated.json,791878,2972018,22,Woman
70,835910,DepthScenes,duration_manipulation_targetAtFixation,jsons/v1_VE250_randls_70_rotated.json,http://54.235.29.9/FacialAge/BNav_EC2/DepthDuration/v2_depth_duration_MTurk/v2_DepthDuration_HTML.html#66,66,1364,625,1364,768,8-29-2022,12-22-8,71,depth_duration_stimuli/001447_2014-06-19_17-00-32_260595134347_rgbf000082-resize_5/001447_2014-06-19_17-00-32_260595134347_rgbf000082-resize_5-target.png,250,4.13775,0,25250,248,feet,jsons/v1_VE250_randls_70_rotated.json,791878,2972018,22,Woman
71,835910,DepthScenes,duration_manipulation_targetAtFixation,jsons/v1_VE250_randls_70_rotated.json,http://54.235.29.9/FacialAge/BNav_EC2/DepthDuration/v2_depth_duration_MTurk/v2_DepthDuration_HTML.html#66,66,1364,625,1364,768,8-29-2022,12-22-8,72,depth_duration_stimuli/000447_2014-06-08_16-15-46_260595134347_rgbf000130-resize_1/000447_2014-06-08_16-15-46_260595134347_rgbf000130-resize_1-target.png,250,4.479,0,2921,248,feet,jsons/v1_VE250_randls_70_rotated.json,791878,2972018,22,Woman
72,835910,DepthScenes,duration_manipulation_targetAtFixation,jsons/v1_VE250_randls_70_rotated.json,http://54.235.29.9/FacialAge/BNav_EC2/DepthDuration/v2_depth_duration_MTurk/v2_DepthDuration_HTML.html#66,66,1364,625,1364,768,8-29-2022,12-22-8,73,depth_duration_stimuli/003081_2014-06-15_15-19-16_094959634447_rgbf000150-resize_1/003081_2014-06-15_15-19-16_094959634447_rgbf000150-resize_1-target.png,250,3.9125,0,3317,249,feet,jsons/v1_VE250_randls_70_rotated.json,791878,2972018,22,Woman
73,835910,DepthScenes,duration_manipulation_targetAtFixation,jsons/v1_VE250_randls_70_rotated.json,http://54.235.29.9/FacialAge/BNav_EC2/DepthDuration/v2_depth_duration_MTurk/v2_DepthDuration_HTML.html#66,66,1364,625,1364,768,8-29-2022,12-22-8,74,depth_duration_stimuli/001417_2014-06-19_16-25-36_260595134347_rgbf000115-resize_5/001417_2014-06-19_16-25-36_260595134347_rgbf000115-resize_5-target.png,250,4.6255,0,3044,251,feet,jsons/v1_VE250_randls_70_rotated.json,791878,2972018,22,Woman
74,835910,DepthScenes,duration_manipulation_targetAtFixation,jsons/v1_VE250_randls_70_rotated.json,http://54.235.29.9/FacialAge/BNav_EC2/DepthDuration/v2_depth_duration_MTurk/v2_DepthDuration_HTML.html#66,66,1364,625,1364,768,8-29-2022,12-22-8,75,depth_duration_stimuli/002568_2014-06-24_13-59-21_094959634447_rgbf000062-resize_4/002568_2014-06-24_13-59-21_094959634447_rgbf000062-resize_4-target.png,250,3.015,3,3246,252,feet,jsons/v1_VE250_randls_70_rotated.json,791878,2972018,22,Woman
75,835910,DepthScenes,duration_manipulation_targetAtFixation,jsons/v1_VE250_randls_70_rotated.json,http://54.235.29.9/FacialAge/BNav_EC2/DepthDuration/v2_depth_duration_MTurk/v2_DepthDuration_HTML.html#66,66,1364,625,1364,768,8-29-2022,12-22-8,76,depth_duration_stimuli/003492_2014-05-21_15-50-55_094959634447_rgbf000828-resize_1/003492_2014-05-21_15-50-55_094959634447_rgbf000828-resize_1-target.png,250,4.06875,0,2440,249,feet,jsons/v1_VE250_randls_70_rotated.json,791878,2972018,22,Woman
76,835910,DepthScenes,duration_manipulation_targetAtFixation,jsons/v1_VE250_randls_70_rotated.json,http://54.235.29.9/FacialAge/BNav_EC2/DepthDuration/v2_depth_duration_MTurk/v2_DepthDuration_HTML.html#66,66,1364,625,1364,768,8-29-2022,12-22-8,77,depth_duration_stimuli/001136_2014-06-17_15-19-41_260595134347_rgbf000076-resize_3/001136_2014-06-17_15-19-41_260595134347_rgbf000076-resize_3-target.png,250,1.8655,5,3207,239,feet,jsons/v1_VE250_randls_70_rotated.json,791878,2972018,22,Woman
77,835910,DepthScenes,duration_manipulation_targetAtFixation,jsons/v1_VE250_randls_70_rotated.json,http://54.235.29.9/FacialAge/BNav_EC2/DepthDuration/v2_depth_duration_MTurk/v2_DepthDuration_HTML.html#66,66,1364,625,1364,768,8-29-2022,12-22-8,78,depth_duration_stimuli/001164_2014-06-17_15-35-46_260595134347_rgbf000085-resize_3/001164_2014-06-17_15-35-46_260595134347_rgbf000085-resize_3-target.png,250,2.354,0,3121,248,feet,jsons/v1_VE250_randls_70_rotated.json,791878,2972018,22,Woman
78,835910,DepthScenes,duration_manipulation_targetAtFixation,jsons/v1_VE250_randls_70_rotated.json,http://54.235.29.9/FacialAge/BNav_EC2/DepthDuration/v2_depth_duration_MTurk/v2_DepthDuration_HTML.html#66,66,1364,625,1364,768,8-29-2022,12-22-8,79,depth_duration_stimuli/003228_2014-05-14_13-42-35_094959634447_rgbf000101-resize_1/003228_2014-05-14_13-42-35_094959634447_rgbf000101-resize_1-target.png,250,1.9680000000000002,0,5545,252,feet,jsons/v1_VE250_randls_70_rotated.json,791878,2972018,22,Woman
79,835910,DepthScenes,duration_manipulation_targetAtFixation,jsons/v1_VE250_randls_70_rotated.json,http://54.235.29.9/FacialAge/BNav_EC2/DepthDuration/v2_depth_duration_MTurk/v2_DepthDuration_HTML.html#66,66,1364,625,1364,768,8-29-2022,12-22-8,80,depth_duration_stimuli/002600_2014-06-24_14-27-04_094959634447_rgbf000074-resize_2/002600_2014-06-24_14-27-04_094959634447_rgbf000074-resize_2-target.png,250,2.7575,0,7628,265,feet,jsons/v1_VE250_randls_70_rotated.json,791878,2972018,22,Woman
80,835910,DepthScenes,duration_manipulation_targetAtFixation,jsons/v1_VE250_randls_70_rotated.json,http://54.235.29.9/FacialAge/BNav_EC2/DepthDuration/v2_depth_duration_MTurk/v2_DepthDuration_HTML.html#66,66,1364,625,1364,768,8-29-2022,12-22-8,81,depth_duration_stimuli/001132_2014-06-17_14-48-54_260595134347_rgbf000100-resize_2/001132_2014-06-17_14-48-54_260595134347_rgbf000100-resize_2-target.png,250,3.753,3,3681,261,feet,jsons/v1_VE250_randls_70_rotated.json,791878,2972018,22,Woman
81,835910,DepthScenes,duration_manipulation_targetAtFixation,jsons/v1_VE250_randls_70_rotated.json,http://54.235.29.9/FacialAge/BNav_EC2/DepthDuration/v2_depth_duration_MTurk/v2_DepthDuration_HTML.html#66,66,1364,625,1364,768,8-29-2022,12-22-8,82,depth_duration_stimuli/001133_2014-06-17_14-49-16_260595134347_rgbf000100-resize_0/001133_2014-06-17_14-49-16_260595134347_rgbf000100-resize_0-target.png,250,4.2115,3,3052,258,feet,jsons/v1_VE250_randls_70_rotated.json,791878,2972018,22,Woman
82,835910,DepthScenes,duration_manipulation_targetAtFixation,jsons/v1_VE250_randls_70_rotated.json,http://54.235.29.9/FacialAge/BNav_EC2/DepthDuration/v2_depth_duration_MTurk/v2_DepthDuration_HTML.html#66,66,1364,625,1364,768,8-29-2022,12-22-8,83,depth_duration_stimuli/000191_2014-05-12_17-07-38_260595134347_rgbf000199-resize_0/000191_2014-05-12_17-07-38_260595134347_rgbf000199-resize_0-target.png,250,3.7995,0,2566,245,feet,jsons/v1_VE250_randls_70_rotated.json,791878,2972018,22,Woman
83,835910,DepthScenes,duration_manipulation_targetAtFixation,jsons/v1_VE250_randls_70_rotated.json,http://54.235.29.9/FacialAge/BNav_EC2/DepthDuration/v2_depth_duration_MTurk/v2_DepthDuration_HTML.html#66,66,1364,625,1364,768,8-29-2022,12-22-8,84,depth_duration_stimuli/000493_2014-06-09_21-01-18_260595134347_rgbf000196-resize_3/000493_2014-06-09_21-01-18_260595134347_rgbf000196-resize_3-target.png,250,3.44,0,2449,249,feet,jsons/v1_VE250_randls_70_rotated.json,791878,2972018,22,Woman
84,835910,DepthScenes,duration_manipulation_targetAtFixation,jsons/v1_VE250_randls_70_rotated.json,http://54.235.29.9/FacialAge/BNav_EC2/DepthDuration/v2_depth_duration_MTurk/v2_DepthDuration_HTML.html#66,66,1364,625,1364,768,8-29-2022,12-22-8,85,depth_duration_stimuli/000866_2014-06-09_20-45-42_260595134347_rgbf000139-resize_1/000866_2014-06-09_20-45-42_260595134347_rgbf000139-resize_1-target.png,250,3.2155,0,2640,250,feet,jsons/v1_VE250_randls_70_rotated.json,791878,2972018,22,Woman
85,835910,DepthScenes,duration_manipulation_targetAtFixation,jsons/v1_VE250_randls_70_rotated.json,http://54.235.29.9/FacialAge/BNav_EC2/DepthDuration/v2_depth_duration_MTurk/v2_DepthDuration_HTML.html#66,66,1364,625,1364,768,8-29-2022,12-22-8,86,depth_duration_stimuli/002989_2014-06-15_12-25-03_094959634447_rgbf000150-resize_3/002989_2014-06-15_12-25-03_094959634447_rgbf000150-resize_3-target.png,250,4.1975,0,1990,250,feet,jsons/v1_VE250_randls_70_rotated.json,791878,2972018,22,Woman
86,835910,DepthScenes,duration_manipulation_targetAtFixation,jsons/v1_VE250_randls_70_rotated.json,http://54.235.29.9/FacialAge/BNav_EC2/DepthDuration/v2_depth_duration_MTurk/v2_DepthDuration_HTML.html#66,66,1364,625,1364,768,8-29-2022,12-22-8,87,depth_duration_stimuli/000691_2014-06-08_13-08-50_260595134347_rgbf000132-resize_3/000691_2014-06-08_13-08-50_260595134347_rgbf000132-resize_3-target.png,250,4.1530000000000005,4,3423,249,feet,jsons/v1_VE250_randls_70_rotated.json,791878,2972018,22,Woman
87,835910,DepthScenes,duration_manipulation_targetAtFixation,jsons/v1_VE250_randls_70_rotated.json,http://54.235.29.9/FacialAge/BNav_EC2/DepthDuration/v2_depth_duration_MTurk/v2_DepthDuration_HTML.html#66,66,1364,625,1364,768,8-29-2022,12-22-8,88,depth_duration_stimuli/002213_2014-06-28_18-37-58_260595134347_rgbf000055-resize_1/002213_2014-06-28_18-37-58_260595134347_rgbf000055-resize_1-target.png,250,3.62,0,2299,202,feet,jsons/v1_VE250_randls_70_rotated.json,791878,2972018,22,Woman
88,835910,DepthScenes,duration_manipulation_targetAtFixation,jsons/v1_VE250_randls_70_rotated.json,http://54.235.29.9/FacialAge/BNav_EC2/DepthDuration/v2_depth_duration_MTurk/v2_DepthDuration_HTML.html#66,66,1364,625,1364,768,8-29-2022,12-22-8,89,depth_duration_stimuli/000927_2014-06-09_16-32-30_260595134347_rgbf000123-resize_3/000927_2014-06-09_16-32-30_260595134347_rgbf000123-resize_3-target.png,250,2.6785,4,3842,253,feet,jsons/v1_VE250_randls_70_rotated.json,791878,2972018,22,Woman
89,835910,DepthScenes,duration_manipulation_targetAtFixation,jsons/v1_VE250_randls_70_rotated.json,http://54.235.29.9/FacialAge/BNav_EC2/DepthDuration/v2_depth_duration_MTurk/v2_DepthDuration_HTML.html#66,66,1364,625,1364,768,8-29-2022,12-22-8,90,depth_duration_stimuli/001110_2014-06-15_17-25-28_260595134347_rgbf000150-resize_1/001110_2014-06-15_17-25-28_260595134347_rgbf000150-resize_1-target.png,250,1.7115,0,2606,191,feet,jsons/v1_VE250_randls_70_rotated.json,791878,2972018,22,Woman
90,835910,DepthScenes,duration_manipulation_targetAtFixation,jsons/v1_VE250_randls_70_rotated.json,http://54.235.29.9/FacialAge/BNav_EC2/DepthDuration/v2_depth_duration_MTurk/v2_DepthDuration_HTML.html#66,66,1364,625,1364,768,8-29-2022,12-22-8,91,depth_duration_stimuli/000665_2014-06-09_20-42-35_260595134347_rgbf000110-resize_1/000665_2014-06-09_20-42-35_260595134347_rgbf000110-resize_1-target.png,250,3.057,4,5804,252,feet,jsons/v1_VE250_randls_70_rotated.json,791878,2972018,22,Woman
91,835910,DepthScenes,duration_manipulation_targetAtFixation,jsons/v1_VE250_randls_70_rotated.json,http://54.235.29.9/FacialAge/BNav_EC2/DepthDuration/v2_depth_duration_MTurk/v2_DepthDuration_HTML.html#66,66,1364,625,1364,768,8-29-2022,12-22-8,92,depth_duration_stimuli/001150_2014-06-17_15-27-34_260595134347_rgbf000108-resize_2/001150_2014-06-17_15-27-34_260595134347_rgbf000108-resize_2-target.png,250,4.0325,0,2121,250,feet,jsons/v1_VE250_randls_70_rotated.json,791878,2972018,22,Woman
92,835910,DepthScenes,duration_manipulation_targetAtFixation,jsons/v1_VE250_randls_70_rotated.json,http://54.235.29.9/FacialAge/BNav_EC2/DepthDuration/v2_depth_duration_MTurk/v2_DepthDuration_HTML.html#66,66,1364,625,1364,768,8-29-2022,12-22-8,93,depth_duration_stimuli/000742_2014-06-08_18-48-09_260595134347_rgbf000164-resize_4/000742_2014-06-08_18-48-09_260595134347_rgbf000164-resize_4-target.png,250,4.632,4,3696,261,feet,jsons/v1_VE250_randls_70_rotated.json,791878,2972018,22,Woman
93,835910,DepthScenes,duration_manipulation_targetAtFixation,jsons/v1_VE250_randls_70_rotated.json,http://54.235.29.9/FacialAge/BNav_EC2/DepthDuration/v2_depth_duration_MTurk/v2_DepthDuration_HTML.html#66,66,1364,625,1364,768,8-29-2022,12-22-8,94,depth_duration_stimuli/001066_2014-06-08_22-03-20_260595134347_rgbf000066-resize_4/001066_2014-06-08_22-03-20_260595134347_rgbf000066-resize_4-target.png,250,4.2330000000000005,0,2136,253,feet,jsons/v1_VE250_randls_70_rotated.json,791878,2972018,22,Woman
94,835910,DepthScenes,duration_manipulation_targetAtFixation,jsons/v1_VE250_randls_70_rotated.json,http://54.235.29.9/FacialAge/BNav_EC2/DepthDuration/v2_depth_duration_MTurk/v2_DepthDuration_HTML.html#66,66,1364,625,1364,768,8-29-2022,12-22-8,95,depth_duration_stimuli/002545_2014-06-24_13-38-53_094959634447_rgbf000080-resize_4/002545_2014-06-24_13-38-53_094959634447_rgbf000080-resize_4-target.png,250,1.9205,4,2898,268,feet,jsons/v1_VE250_randls_70_rotated.json,791878,2972018,22,Woman
95,835910,DepthScenes,duration_manipulation_targetAtFixation,jsons/v1_VE250_randls_70_rotated.json,http://54.235.29.9/FacialAge/BNav_EC2/DepthDuration/v2_depth_duration_MTurk/v2_DepthDuration_HTML.html#66,66,1364,625,1364,768,8-29-2022,12-22-8,96,depth_duration_stimuli/001092_2014-06-15_17-34-58_260595134347_rgbf000171-resize_3/001092_2014-06-15_17-34-58_260595134347_rgbf000171-resize_3-target.png,250,2.6935,0,2111,247,feet,jsons/v1_VE250_randls_70_rotated.json,791878,2972018,22,Woman
96,835910,DepthScenes,duration_manipulation_targetAtFixation,jsons/v1_VE250_randls_70_rotated.json,http://54.235.29.9/FacialAge/BNav_EC2/DepthDuration/v2_depth_duration_MTurk/v2_DepthDuration_HTML.html#66,66,1364,625,1364,768,8-29-2022,12-22-8,97,depth_duration_stimuli/001235_2014-06-17_16-37-36_260595134347_rgbf000084-resize_4/001235_2014-06-17_16-37-36_260595134347_rgbf000084-resize_4-target.png,250,3.6605,4,4215,252,feet,jsons/v1_VE250_randls_70_rotated.json,791878,2972018,22,Woman
97,835910,DepthScenes,duration_manipulation_targetAtFixation,jsons/v1_VE250_randls_70_rotated.json,http://54.235.29.9/FacialAge/BNav_EC2/DepthDuration/v2_depth_duration_MTurk/v2_DepthDuration_HTML.html#66,66,1364,625,1364,768,8-29-2022,12-22-8,98,depth_duration_stimuli/000788_2014-06-08_22-34-36_260595134347_rgbf000131-resize_1/000788_2014-06-08_22-34-36_260595134347_rgbf000131-resize_1-target.png,250,3.359,0,2357,249,feet,jsons/v1_VE250_randls_70_rotated.json,791878,2972018,22,Woman
98,835910,DepthScenes,duration_manipulation_targetAtFixation,jsons/v1_VE250_randls_70_rotated.json,http://54.235.29.9/FacialAge/BNav_EC2/DepthDuration/v2_depth_duration_MTurk/v2_DepthDuration_HTML.html#66,66,1364,625,1364,768,8-29-2022,12-22-8,99,depth_duration_stimuli/001222_2014-06-17_16-24-06_260595134347_rgbf000073-resize_0/001222_2014-06-17_16-24-06_260595134347_rgbf000073-resize-original.jpg,250,1.4385,0,2313,250,feet,jsons/v1_VE250_randls_70_rotated.json,791878,2972018,22,Woman
99,835910,DepthScenes,duration_manipulation_targetAtFixation,jsons/v1_VE250_randls_70_rotated.json,http://54.235.29.9/FacialAge/BNav_EC2/DepthDuration/v2_depth_duration_MTurk/v2_DepthDuration_HTML.html#66,66,1364,625,1364,768,8-29-2022,12-22-8,100,depth_duration_stimuli/000409_2014-06-04_19-23-33_260595134347_rgbf000067-resize_0/000409_2014-06-04_19-23-33_260595134347_rgbf000067-resize_0-target.png,250,3.7335,3,6960,251,feet,jsons/v1_VE250_randls_70_rotated.json,791878,2972018,22,Woman
100,835910,DepthScenes,duration_manipulation_targetAtFixation,jsons/v1_VE250_randls_70_rotated.json,http://54.235.29.9/FacialAge/BNav_EC2/DepthDuration/v2_depth_duration_MTurk/v2_DepthDuration_HTML.html#66,66,1364,625,1364,768,8-29-2022,12-22-8,101,depth_duration_stimuli/002663_2014-06-13_15-50-26_094959634447_rgbf000075-resize_1/002663_2014-06-13_15-50-26_094959634447_rgbf000075-resize_1-target.png,250,4.7495,0,2302,248,feet,jsons/v1_VE250_randls_70_rotated.json,791878,2972018,22,Woman
101,835910,DepthScenes,duration_manipulation_targetAtFixation,jsons/v1_VE250_randls_70_rotated.json,http://54.235.29.9/FacialAge/BNav_EC2/DepthDuration/v2_depth_duration_MTurk/v2_DepthDuration_HTML.html#66,66,1364,625,1364,768,8-29-2022,12-22-8,102,depth_duration_stimuli/000677_2014-06-08_23-10-32_260595134347_rgbf000158-resize_6/000677_2014-06-08_23-10-32_260595134347_rgbf000158-resize_6-target.png,250,3.556,3,5174,250,feet,jsons/v1_VE250_randls_70_rotated.json,791878,2972018,22,Woman
102,835910,DepthScenes,duration_manipulation_targetAtFixation,jsons/v1_VE250_randls_70_rotated.json,http://54.235.29.9/FacialAge/BNav_EC2/DepthDuration/v2_depth_duration_MTurk/v2_DepthDuration_HTML.html#66,66,1364,625,1364,768,8-29-2022,12-22-8,103,depth_duration_stimuli/001029_2014-06-08_13-17-57_260595134347_rgbf000065-resize_1/001029_2014-06-08_13-17-57_260595134347_rgbf000065-resize_1-target.png,250,3.0835,0,2762,249,feet,jsons/v1_VE250_randls_70_rotated.json,791878,2972018,22,Woman
103,835910,DepthScenes,duration_manipulation_targetAtFixation,jsons/v1_VE250_randls_70_rotated.json,http://54.235.29.9/FacialAge/BNav_EC2/DepthDuration/v2_depth_duration_MTurk/v2_DepthDuration_HTML.html#66,66,1364,625,1364,768,8-29-2022,12-22-8,104,depth_duration_stimuli/000635_2014-06-08_16-38-42_260595134347_rgbf000106-resize_1/000635_2014-06-08_16-38-42_260595134347_rgbf000106-resize_1-target.png,250,2.074,3,3206,255,feet,jsons/v1_VE250_randls_70_rotated.json,791878,2972018,22,Woman
104,835910,DepthScenes,duration_manipulation_targetAtFixation,jsons/v1_VE250_randls_70_rotated.json,http://54.235.29.9/FacialAge/BNav_EC2/DepthDuration/v2_depth_duration_MTurk/v2_DepthDuration_HTML.html#66,66,1364,625,1364,768,8-29-2022,12-22-8,105,depth_duration_stimuli/002279_2014-06-28_18-55-32_260595134347_rgbf000040-resize_5/002279_2014-06-28_18-55-32_260595134347_rgbf000040-resize_5-target.png,250,1.5043333333333,0,2153,304,feet,jsons/v1_VE250_randls_70_rotated.json,791878,2972018,22,Woman
105,835910,DepthScenes,duration_manipulation_targetAtFixation,jsons/v1_VE250_randls_70_rotated.json,http://54.235.29.9/FacialAge/BNav_EC2/DepthDuration/v2_depth_duration_MTurk/v2_DepthDuration_HTML.html#66,66,1364,625,1364,768,8-29-2022,12-22-8,106,depth_duration_stimuli/001617_2014-06-20_11-35-32_260595134347_rgbf000066-resize_1/001617_2014-06-20_11-35-32_260595134347_rgbf000066-resize_1-target.png,250,3.7910000000000004,0,2803,247,feet,jsons/v1_VE250_randls_70_rotated.json,791878,2972018,22,Woman
106,835910,DepthScenes,duration_manipulation_targetAtFixation,jsons/v1_VE250_randls_70_rotated.json,http://54.235.29.9/FacialAge/BNav_EC2/DepthDuration/v2_depth_duration_MTurk/v2_DepthDuration_HTML.html#66,66,1364,625,1364,768,8-29-2022,12-22-8,107,depth_duration_stimuli/001806_2014-06-26_20-50-20_260595134347_rgbf000091-resize_1/001806_2014-06-26_20-50-20_260595134347_rgbf000091-resize_1-target.png,250,2.7305,0,2022,250,feet,jsons/v1_VE250_randls_70_rotated.json,791878,2972018,22,Woman
107,835910,DepthScenes,duration_manipulation_targetAtFixation,jsons/v1_VE250_randls_70_rotated.json,http://54.235.29.9/FacialAge/BNav_EC2/DepthDuration/v2_depth_duration_MTurk/v2_DepthDuration_HTML.html#66,66,1364,625,1364,768,8-29-2022,12-22-8,108,depth_duration_stimuli/003079_2014-06-15_15-18-20_094959634447_rgbf000152-resize_8/003079_2014-06-15_15-18-20_094959634447_rgbf000152-resize_8-target.png,250,2.8775,7,14994,251,feet,jsons/v1_VE250_randls_70_rotated.json,791878,2972018,22,Woman
108,835910,DepthScenes,duration_manipulation_targetAtFixation,jsons/v1_VE250_randls_70_rotated.json,http://54.235.29.9/FacialAge/BNav_EC2/DepthDuration/v2_depth_duration_MTurk/v2_DepthDuration_HTML.html#66,66,1364,625,1364,768,8-29-2022,12-22-8,109,depth_duration_stimuli/000506_2014-06-08_23-21-00_260595134347_rgbf000070-resize_7/000506_2014-06-08_23-21-00_260595134347_rgbf000070-resize_7-target.png,250,4.0585,0,3278,250,feet,jsons/v1_VE250_randls_70_rotated.json,791878,2972018,22,Woman
109,835910,DepthScenes,duration_manipulation_targetAtFixation,jsons/v1_VE250_randls_70_rotated.json,http://54.235.29.9/FacialAge/BNav_EC2/DepthDuration/v2_depth_duration_MTurk/v2_DepthDuration_HTML.html#66,66,1364,625,1364,768,8-29-2022,12-22-8,110,depth_duration_stimuli/002758_2014-06-22_19-11-20_094959634447_rgbf000128-resize_1/002758_2014-06-22_19-11-20_094959634447_rgbf000128-resize_1-target.png,250,2.555,3,4089,254,feet,jsons/v1_VE250_randls_70_rotated.json,791878,2972018,22,Woman
110,835910,DepthScenes,duration_manipulation_targetAtFixation,jsons/v1_VE250_randls_70_rotated.json,http://54.235.29.9/FacialAge/BNav_EC2/DepthDuration/v2_depth_duration_MTurk/v2_DepthDuration_HTML.html#66,66,1364,625,1364,768,8-29-2022,12-22-8,111,depth_duration_stimuli/002630_2014-06-24_14-47-50_094959634447_rgbf000055-resize_1/002630_2014-06-24_14-47-50_094959634447_rgbf000055-resize_1-target.png,250,3.0095,0,3348,249,feet,jsons/v1_VE250_randls_70_rotated.json,791878,2972018,22,Woman
111,835910,DepthScenes,duration_manipulation_targetAtFixation,jsons/v1_VE250_randls_70_rotated.json,http://54.235.29.9/FacialAge/BNav_EC2/DepthDuration/v2_depth_duration_MTurk/v2_DepthDuration_HTML.html#66,66,1364,625,1364,768,8-29-2022,12-22-8,112,depth_duration_stimuli/002949_2014-06-26_15-57-42_094959634447_rgbf000079-resize_1/002949_2014-06-26_15-57-42_094959634447_rgbf000079-resize_1-target.png,250,1.8915,3,3311,264,feet,jsons/v1_VE250_randls_70_rotated.json,791878,2972018,22,Woman
112,835910,DepthScenes,duration_manipulation_targetAtFixation,jsons/v1_VE250_randls_70_rotated.json,http://54.235.29.9/FacialAge/BNav_EC2/DepthDuration/v2_depth_duration_MTurk/v2_DepthDuration_HTML.html#66,66,1364,625,1364,768,8-29-2022,12-22-8,113,depth_duration_stimuli/000522_2014-06-08_13-35-06_260595134347_rgbf000244-resize_1/000522_2014-06-08_13-35-06_260595134347_rgbf000244-resize_1-target.png,250,2.3715,0,4029,262,feet,jsons/v1_VE250_randls_70_rotated.json,791878,2972018,22,Woman
113,835910,DepthScenes,duration_manipulation_targetAtFixation,jsons/v1_VE250_randls_70_rotated.json,http://54.235.29.9/FacialAge/BNav_EC2/DepthDuration/v2_depth_duration_MTurk/v2_DepthDuration_HTML.html#66,66,1364,625,1364,768,8-29-2022,12-22-8,114,depth_duration_stimuli/002637_2014-06-24_14-51-13_094959634447_rgbf000066-resize_4/002637_2014-06-24_14-51-13_094959634447_rgbf000066-resize_4-target.png,250,1.9955,0,9467,520,feet,jsons/v1_VE250_randls_70_rotated.json,791878,2972018,22,Woman
114,835910,DepthScenes,duration_manipulation_targetAtFixation,jsons/v1_VE250_randls_70_rotated.json,http://54.235.29.9/FacialAge/BNav_EC2/DepthDuration/v2_depth_duration_MTurk/v2_DepthDuration_HTML.html#66,66,1364,625,1364,768,8-29-2022,12-22-8,115,depth_duration_stimuli/003534_2014-05-22_15-06-10_094959634447_rgbf000102-resize_4/003534_2014-05-22_15-06-10_094959634447_rgbf000102-resize_4-target.png,250,1.426,3,3537,236,feet,jsons/v1_VE250_randls_70_rotated.json,791878,2972018,22,Woman
115,835910,DepthScenes,duration_manipulation_targetAtFixation,jsons/v1_VE250_randls_70_rotated.json,http://54.235.29.9/FacialAge/BNav_EC2/DepthDuration/v2_depth_duration_MTurk/v2_DepthDuration_HTML.html#66,66,1364,625,1364,768,8-29-2022,12-22-8,116,depth_duration_stimuli/002323_2014-06-28_20-01-54_260595134347_rgbf000051-resize_4/002323_2014-06-28_20-01-54_260595134347_rgbf000051-resize_4-target.png,250,3.7310000000000003,3,2563,264,feet,jsons/v1_VE250_randls_70_rotated.json,791878,2972018,22,Woman
116,835910,DepthScenes,duration_manipulation_targetAtFixation,jsons/v1_VE250_randls_70_rotated.json,http://54.235.29.9/FacialAge/BNav_EC2/DepthDuration/v2_depth_duration_MTurk/v2_DepthDuration_HTML.html#66,66,1364,625,1364,768,8-29-2022,12-22-8,117,depth_duration_stimuli/000917_2014-06-09_22-45-29_260595134347_rgbf000149-resize_3/000917_2014-06-09_22-45-29_260595134347_rgbf000149-resize_3-target.png,250,4.1865,3,2381,366,feet,jsons/v1_VE250_randls_70_rotated.json,791878,2972018,22,Woman
117,835910,DepthScenes,duration_manipulation_targetAtFixation,jsons/v1_VE250_randls_70_rotated.json,http://54.235.29.9/FacialAge/BNav_EC2/DepthDuration/v2_depth_duration_MTurk/v2_DepthDuration_HTML.html#66,66,1364,625,1364,768,8-29-2022,12-22-8,118,depth_duration_stimuli/003490_2014-05-21_15-50-11_094959634447_rgbf000101-resize_3/003490_2014-05-21_15-50-11_094959634447_rgbf000101-resize_3-target.png,250,3.6445,4,3398,482,feet,jsons/v1_VE250_randls_70_rotated.json,791878,2972018,22,Woman
118,835910,DepthScenes,duration_manipulation_targetAtFixation,jsons/v1_VE250_randls_70_rotated.json,http://54.235.29.9/FacialAge/BNav_EC2/DepthDuration/v2_depth_duration_MTurk/v2_DepthDuration_HTML.html#66,66,1364,625,1364,768,8-29-2022,12-22-8,119,depth_duration_stimuli/001175_2014-06-17_15-45-55_260595134347_rgbf000129-resize_4/001175_2014-06-17_15-45-55_260595134347_rgbf000129-resize_4-target.png,250,4.255,6,3806,252,feet,jsons/v1_VE250_randls_70_rotated.json,791878,2972018,22,Woman
119,835910,DepthScenes,duration_manipulation_targetAtFixation,jsons/v1_VE250_randls_70_rotated.json,http://54.235.29.9/FacialAge/BNav_EC2/DepthDuration/v2_depth_duration_MTurk/v2_DepthDuration_HTML.html#66,66,1364,625,1364,768,8-29-2022,12-22-8,120,depth_duration_stimuli/000787_2014-06-08_22-33-53_260595134347_rgbf000175-resize_1/000787_2014-06-08_22-33-53_260595134347_rgbf000175-resize-original.jpg,250,4.784,3,4257,250,feet,jsons/v1_VE250_randls_70_rotated.json,791878,2972018,22,Woman
120,835910,DepthScenes,duration_manipulation_targetAtFixation,jsons/v1_VE250_randls_70_rotated.json,http://54.235.29.9/FacialAge/BNav_EC2/DepthDuration/v2_depth_duration_MTurk/v2_DepthDuration_HTML.html#66,66,1364,625,1364,768,8-29-2022,12-22-8,121,depth_duration_stimuli/002750_2014-06-22_19-08-03_094959634447_rgbf000094-resize_4/002750_2014-06-22_19-08-03_094959634447_rgbf000094-resize_4-target.png,250,2.354,2,3673,225,feet,jsons/v1_VE250_randls_70_rotated.json,791878,2972018,22,Woman
121,835910,DepthScenes,duration_manipulation_targetAtFixation,jsons/v1_VE250_randls_70_rotated.json,http://54.235.29.9/FacialAge/BNav_EC2/DepthDuration/v2_depth_duration_MTurk/v2_DepthDuration_HTML.html#66,66,1364,625,1364,768,8-29-2022,12-22-8,122,depth_duration_stimuli/002549_2014-06-24_13-41-39_094959634447_rgbf000022-resize_3/002549_2014-06-24_13-41-39_094959634447_rgbf000022-resize_3-target.png,250,1.476,0,3217,244,feet,jsons/v1_VE250_randls_70_rotated.json,791878,2972018,22,Woman
122,835910,DepthScenes,duration_manipulation_targetAtFixation,jsons/v1_VE250_randls_70_rotated.json,http://54.235.29.9/FacialAge/BNav_EC2/DepthDuration/v2_depth_duration_MTurk/v2_DepthDuration_HTML.html#66,66,1364,625,1364,768,8-29-2022,12-22-8,123,depth_duration_stimuli/001392_2014-06-19_16-07-59_260595134347_rgbf000046-resize_1/001392_2014-06-19_16-07-59_260595134347_rgbf000046-resize_1-target.png,250,4.135,5,3691,251,feet,jsons/v1_VE250_randls_70_rotated.json,791878,2972018,22,Woman
123,835910,DepthScenes,duration_manipulation_targetAtFixation,jsons/v1_VE250_randls_70_rotated.json,http://54.235.29.9/FacialAge/BNav_EC2/DepthDuration/v2_depth_duration_MTurk/v2_DepthDuration_HTML.html#66,66,1364,625,1364,768,8-29-2022,12-22-8,124,depth_duration_stimuli/001570_2014-06-20_17-21-09_260595134347_rgbf000135-resize_4/001570_2014-06-20_17-21-09_260595134347_rgbf000135-resize_4-target.png,250,4.467,0,2389,247,feet,jsons/v1_VE250_randls_70_rotated.json,791878,2972018,22,Woman
124,835910,DepthScenes,duration_manipulation_targetAtFixation,jsons/v1_VE250_randls_70_rotated.json,http://54.235.29.9/FacialAge/BNav_EC2/DepthDuration/v2_depth_duration_MTurk/v2_DepthDuration_HTML.html#66,66,1364,625,1364,768,8-29-2022,12-22-8,125,depth_duration_stimuli/002414_2014-06-28_20-24-58_260595134347_rgbf000067-resize_4/002414_2014-06-28_20-24-58_260595134347_rgbf000067-resize_4-target.png,250,4.363,3,3061,250,feet,jsons/v1_VE250_randls_70_rotated.json,791878,2972018,22,Woman
125,835910,DepthScenes,duration_manipulation_targetAtFixation,jsons/v1_VE250_randls_70_rotated.json,http://54.235.29.9/FacialAge/BNav_EC2/DepthDuration/v2_depth_duration_MTurk/v2_DepthDuration_HTML.html#66,66,1364,625,1364,768,8-29-2022,12-22-8,126,depth_duration_stimuli/000773_2014-06-08_22-24-54_260595134347_rgbf000093-resize_1/000773_2014-06-08_22-24-54_260595134347_rgbf000093-resize_1-target.png,250,4.973,0,1999,248,feet,jsons/v1_VE250_randls_70_rotated.json,791878,2972018,22,Woman
126,835910,DepthScenes,duration_manipulation_targetAtFixation,jsons/v1_VE250_randls_70_rotated.json,http://54.235.29.9/FacialAge/BNav_EC2/DepthDuration/v2_depth_duration_MTurk/v2_DepthDuration_HTML.html#66,66,1364,625,1364,768,8-29-2022,12-22-8,127,depth_duration_stimuli/001052_2014-06-08_18-24-54_260595134347_rgbf000130-resize_1/001052_2014-06-08_18-24-54_260595134347_rgbf000130-resize_1-target.png,250,4.1045,4,2845,251,feet,jsons/v1_VE250_randls_70_rotated.json,791878,2972018,22,Woman
127,835910,DepthScenes,duration_manipulation_targetAtFixation,jsons/v1_VE250_randls_70_rotated.json,http://54.235.29.9/FacialAge/BNav_EC2/DepthDuration/v2_depth_duration_MTurk/v2_DepthDuration_HTML.html#66,66,1364,625,1364,768,8-29-2022,12-22-8,128,depth_duration_stimuli/002988_2014-06-15_12-24-20_094959634447_rgbf000150-resize_1/002988_2014-06-15_12-24-20_094959634447_rgbf000150-resize_1-target.png,250,4.7669999999999995,0,2072,249,feet,jsons/v1_VE250_randls_70_rotated.json,791878,2972018,22,Woman
128,835910,DepthScenes,duration_manipulation_targetAtFixation,jsons/v1_VE250_randls_70_rotated.json,http://54.235.29.9/FacialAge/BNav_EC2/DepthDuration/v2_depth_duration_MTurk/v2_DepthDuration_HTML.html#66,66,1364,625,1364,768,8-29-2022,12-22-8,129,depth_duration_stimuli/000556_2014-06-09_22-42-56_260595134347_rgbf000214-resize_1/000556_2014-06-09_22-42-56_260595134347_rgbf000214-resize_1-target.png,250,4.8415,3,3183,259,feet,jsons/v1_VE250_randls_70_rotated.json,791878,2972018,22,Woman
129,835910,DepthScenes,duration_manipulation_targetAtFixation,jsons/v1_VE250_randls_70_rotated.json,http://54.235.29.9/FacialAge/BNav_EC2/DepthDuration/v2_depth_duration_MTurk/v2_DepthDuration_HTML.html#66,66,1364,625,1364,768,8-29-2022,12-22-8,130,depth_duration_stimuli/001158_2014-06-17_15-32-16_260595134347_rgbf000138-resize_2/001158_2014-06-17_15-32-16_260595134347_rgbf000138-resize_2-target.png,250,4.5315,0,2831,256,feet,jsons/v1_VE250_randls_70_rotated.json,791878,2972018,22,Woman
130,835910,DepthScenes,duration_manipulation_targetAtFixation,jsons/v1_VE250_randls_70_rotated.json,http://54.235.29.9/FacialAge/BNav_EC2/DepthDuration/v2_depth_duration_MTurk/v2_DepthDuration_HTML.html#66,66,1364,625,1364,768,8-29-2022,12-22-8,131,depth_duration_stimuli/000502_2014-06-08_23-02-32_260595134347_rgbf000063-resize_4/000502_2014-06-08_23-02-32_260595134347_rgbf000063-resize_4-target.png,250,2.431,2,3348,243,feet,jsons/v1_VE250_randls_70_rotated.json,791878,2972018,22,Woman
131,835910,DepthScenes,duration_manipulation_targetAtFixation,jsons/v1_VE250_randls_70_rotated.json,http://54.235.29.9/FacialAge/BNav_EC2/DepthDuration/v2_depth_duration_MTurk/v2_DepthDuration_HTML.html#66,66,1364,625,1364,768,8-29-2022,12-22-8,132,depth_duration_stimuli/001199_2014-06-17_16-03-48_260595134347_rgbf000077-resize_0/001199_2014-06-17_16-03-48_260595134347_rgbf000077-resize_0-target.png,250,3.4375,0,2157,250,feet,jsons/v1_VE250_randls_70_rotated.json,791878,2972018,22,Woman
132,835910,DepthScenes,duration_manipulation_targetAtFixation,jsons/v1_VE250_randls_70_rotated.json,http://54.235.29.9/FacialAge/BNav_EC2/DepthDuration/v2_depth_duration_MTurk/v2_DepthDuration_HTML.html#66,66,1364,625,1364,768,8-29-2022,12-22-8,133,depth_duration_stimuli/000749_2014-06-08_21-55-06_260595134347_rgbf000070-resize_2/000749_2014-06-08_21-55-06_260595134347_rgbf000070-resize_2-target.png,250,2.331,3,3061,251,feet,jsons/v1_VE250_randls_70_rotated.json,791878,2972018,22,Woman
133,835910,DepthScenes,duration_manipulation_targetAtFixation,jsons/v1_VE250_randls_70_rotated.json,http://54.235.29.9/FacialAge/BNav_EC2/DepthDuration/v2_depth_duration_MTurk/v2_DepthDuration_HTML.html#66,66,1364,625,1364,768,8-29-2022,12-22-8,134,depth_duration_stimuli/002788_2014-06-22_19-36-03_094959634447_rgbf000088-resize_2/002788_2014-06-22_19-36-03_094959634447_rgbf000088-resize_2-target.png,250,1.6465,0,2644,171,feet,jsons/v1_VE250_randls_70_rotated.json,791878,2972018,22,Woman
134,835910,DepthScenes,duration_manipulation_targetAtFixation,jsons/v1_VE250_randls_70_rotated.json,http://54.235.29.9/FacialAge/BNav_EC2/DepthDuration/v2_depth_duration_MTurk/v2_DepthDuration_HTML.html#66,66,1364,625,1364,768,8-29-2022,12-22-8,135,depth_duration_stimuli/000375_2014-06-08_11-17-29_260595134347_rgbf000133-resize_2/000375_2014-06-08_11-17-29_260595134347_rgbf000133-resize-original.jpg,250,4.718,0,2672,368,feet,jsons/v1_VE250_randls_70_rotated.json,791878,2972018,22,Woman
135,835910,DepthScenes,duration_manipulation_targetAtFixation,jsons/v1_VE250_randls_70_rotated.json,http://54.235.29.9/FacialAge/BNav_EC2/DepthDuration/v2_depth_duration_MTurk/v2_DepthDuration_HTML.html#66,66,1364,625,1364,768,8-29-2022,12-22-8,136,depth_duration_stimuli/002678_2014-06-13_16-15-32_094959634447_rgbf000151-resize_6/002678_2014-06-13_16-15-32_094959634447_rgbf000151-resize_6-target.png,250,2.1830000000000003,4,3559,229,feet,jsons/v1_VE250_randls_70_rotated.json,791878,2972018,22,Woman
136,835910,DepthScenes,duration_manipulation_targetAtFixation,jsons/v1_VE250_randls_70_rotated.json,http://54.235.29.9/FacialAge/BNav_EC2/DepthDuration/v2_depth_duration_MTurk/v2_DepthDuration_HTML.html#66,66,1364,625,1364,768,8-29-2022,12-22-8,137,depth_duration_stimuli/000368_2014-06-09_15-53-01_260595134347_rgbf000155-resize_2/000368_2014-06-09_15-53-01_260595134347_rgbf000155-resize_2-target.png,250,2.4859999999999998,0,3017,255,feet,jsons/v1_VE250_randls_70_rotated.json,791878,2972018,22,Woman
137,835910,DepthScenes,duration_manipulation_targetAtFixation,jsons/v1_VE250_randls_70_rotated.json,http://54.235.29.9/FacialAge/BNav_EC2/DepthDuration/v2_depth_duration_MTurk/v2_DepthDuration_HTML.html#66,66,1364,625,1364,768,8-29-2022,12-22-8,138,depth_duration_stimuli/000734_2014-06-08_17-39-11_260595134347_rgbf000128-resize_2/000734_2014-06-08_17-39-11_260595134347_rgbf000128-resize_2-target.png,250,4.098,5,4286,240,feet,jsons/v1_VE250_randls_70_rotated.json,791878,2972018,22,Woman
138,835910,DepthScenes,duration_manipulation_targetAtFixation,jsons/v1_VE250_randls_70_rotated.json,http://54.235.29.9/FacialAge/BNav_EC2/DepthDuration/v2_depth_duration_MTurk/v2_DepthDuration_HTML.html#66,66,1364,625,1364,768,8-29-2022,12-22-8,139,depth_duration_stimuli/000739_2014-06-08_18-45-58_260595134347_rgbf000068-resize_1/000739_2014-06-08_18-45-58_260595134347_rgbf000068-resize_1-target.png,250,3.534,0,2130,248,feet,jsons/v1_VE250_randls_70_rotated.json,791878,2972018,22,Woman
139,835910,DepthScenes,duration_manipulation_targetAtFixation,jsons/v1_VE250_randls_70_rotated.json,http://54.235.29.9/FacialAge/BNav_EC2/DepthDuration/v2_depth_duration_MTurk/v2_DepthDuration_HTML.html#66,66,1364,625,1364,768,8-29-2022,12-22-8,140,depth_duration_stimuli/001650_2014-06-20_12-09-00_260595134347_rgbf000087-resize_3/001650_2014-06-20_12-09-00_260595134347_rgbf000087-resize_3-target.png,250,1.9505,2,2879,254,feet,jsons/v1_VE250_randls_70_rotated.json,791878,2972018,22,Woman
140,835910,DepthScenes,duration_manipulation_targetAtFixation,jsons/v1_VE250_randls_70_rotated.json,http://54.235.29.9/FacialAge/BNav_EC2/DepthDuration/v2_depth_duration_MTurk/v2_DepthDuration_HTML.html#66,66,1364,625,1364,768,8-29-2022,12-22-8,141,depth_duration_stimuli/000682_2014-06-08_23-14-58_260595134347_rgbf000041-resize_5/000682_2014-06-08_23-14-58_260595134347_rgbf000041-resize_5-target.png,250,2.7239999999999998,0,2235,232,feet,jsons/v1_VE250_randls_70_rotated.json,791878,2972018,22,Woman
141,835910,DepthScenes,duration_manipulation_targetAtFixation,jsons/v1_VE250_randls_70_rotated.json,http://54.235.29.9/FacialAge/BNav_EC2/DepthDuration/v2_depth_duration_MTurk/v2_DepthDuration_HTML.html#66,66,1364,625,1364,768,8-29-2022,12-22-8,142,depth_duration_stimuli/003495_2014-05-21_16-01-51_094959634447_rgbf000100-resize_3/003495_2014-05-21_16-01-51_094959634447_rgbf000100-resize_3-target.png,250,1.6255,2,3575,253,feet,jsons/v1_VE250_randls_70_rotated.json,791878,2972018,22,Woman
142,835910,DepthScenes,duration_manipulation_targetAtFixation,jsons/v1_VE250_randls_70_rotated.json,http://54.235.29.9/FacialAge/BNav_EC2/DepthDuration/v2_depth_duration_MTurk/v2_DepthDuration_HTML.html#66,66,1364,625,1364,768,8-29-2022,12-22-8,143,depth_duration_stimuli/001244_2014-06-17_16-47-45_260595134347_rgbf000030-resize_4/001244_2014-06-17_16-47-45_260595134347_rgbf000030-resize_4-target.png,250,2.0425,3,2759,251,feet,jsons/v1_VE250_randls_70_rotated.json,791878,2972018,22,Woman
143,835910,DepthScenes,duration_manipulation_targetAtFixation,jsons/v1_VE250_randls_70_rotated.json,http://54.235.29.9/FacialAge/BNav_EC2/DepthDuration/v2_depth_duration_MTurk/v2_DepthDuration_HTML.html#66,66,1364,625,1364,768,8-29-2022,12-22-8,144,depth_duration_stimuli/000457_2014-06-08_16-52-43_260595134347_rgbf000199-resize_1/000457_2014-06-08_16-52-43_260595134347_rgbf000199-resize_1-target.png,250,3.6489999999999996,5,3074,253,feet,jsons/v1_VE250_randls_70_rotated.json,791878,2972018,22,Woman
144,835910,DepthScenes,duration_manipulation_targetAtFixation,jsons/v1_VE250_randls_70_rotated.json,http://54.235.29.9/FacialAge/BNav_EC2/DepthDuration/v2_depth_duration_MTurk/v2_DepthDuration_HTML.html#66,66,1364,625,1364,768,8-29-2022,12-22-8,145,depth_duration_stimuli/000929_2014-06-09_16-33-19_260595134347_rgbf000139-resize_0/000929_2014-06-09_16-33-19_260595134347_rgbf000139-resize_0-target.png,250,2.8680000000000003,2,4045,274,feet,jsons/v1_VE250_randls_70_rotated.json,791878,2972018,22,Woman
145,835910,DepthScenes,duration_manipulation_targetAtFixation,jsons/v1_VE250_randls_70_rotated.json,http://54.235.29.9/FacialAge/BNav_EC2/DepthDuration/v2_depth_duration_MTurk/v2_DepthDuration_HTML.html#66,66,1364,625,1364,768,8-29-2022,12-22-8,146,depth_duration_stimuli/003423_2014-05-21_10-23-26_094959634447_rgbf002665-resize_2/003423_2014-05-21_10-23-26_094959634447_rgbf002665-resize_2-target.png,250,3.2575,2,3391,249,feet,jsons/v1_VE250_randls_70_rotated.json,791878,2972018,22,Woman
146,835910,DepthScenes,duration_manipulation_targetAtFixation,jsons/v1_VE250_randls_70_rotated.json,http://54.235.29.9/FacialAge/BNav_EC2/DepthDuration/v2_depth_duration_MTurk/v2_DepthDuration_HTML.html#66,66,1364,625,1364,768,8-29-2022,12-22-8,147,depth_duration_stimuli/002905_2014-06-03_18-04-43_094959634447_rgbf000151-resize_2/002905_2014-06-03_18-04-43_094959634447_rgbf000151-resize_2-target.png,250,2.0295,0,2130,245,feet,jsons/v1_VE250_randls_70_rotated.json,791878,2972018,22,Woman
147,835910,DepthScenes,duration_manipulation_targetAtFixation,jsons/v1_VE250_randls_70_rotated.json,http://54.235.29.9/FacialAge/BNav_EC2/DepthDuration/v2_depth_duration_MTurk/v2_DepthDuration_HTML.html#66,66,1364,625,1364,768,8-29-2022,12-22-8,148,depth_duration_stimuli/002209_2014-06-28_18-36-10_260595134347_rgbf000051-resize_1/002209_2014-06-28_18-36-10_260595134347_rgbf000051-resize_1-target.png,250,2.057,3,2991,385,feet,jsons/v1_VE250_randls_70_rotated.json,791878,2972018,22,Woman
148,835910,DepthScenes,duration_manipulation_targetAtFixation,jsons/v1_VE250_randls_70_rotated.json,http://54.235.29.9/FacialAge/BNav_EC2/DepthDuration/v2_depth_duration_MTurk/v2_DepthDuration_HTML.html#66,66,1364,625,1364,768,8-29-2022,12-22-8,149,depth_duration_stimuli/002763_2014-06-22_19-13-10_094959634447_rgbf000075-resize_4/002763_2014-06-22_19-13-10_094959634447_rgbf000075-resize_4-target.png,250,1.68375,0,2163,250,feet,jsons/v1_VE250_randls_70_rotated.json,791878,2972018,22,Woman
149,835910,DepthScenes,duration_manipulation_targetAtFixation,jsons/v1_VE250_randls_70_rotated.json,http://54.235.29.9/FacialAge/BNav_EC2/DepthDuration/v2_depth_duration_MTurk/v2_DepthDuration_HTML.html#66,66,1364,625,1364,768,8-29-2022,12-22-8,150,depth_duration_stimuli/002875_2014-06-01_15-19-00_094959634447_rgbf000151-resize_1/002875_2014-06-01_15-19-00_094959634447_rgbf000151-resize_1-target.png,250,1.9675,3,3634,232,feet,jsons/v1_VE250_randls_70_rotated.json,791878,2972018,22,Woman
150,835910,DepthScenes,duration_manipulation_targetAtFixation,jsons/v1_VE250_randls_70_rotated.json,http://54.235.29.9/FacialAge/BNav_EC2/DepthDuration/v2_depth_duration_MTurk/v2_DepthDuration_HTML.html#66,66,1364,625,1364,768,8-29-2022,12-22-8,151,depth_duration_stimuli/001011_2014-06-08_23-18-54_260595134347_rgbf000044-resize_4/001011_2014-06-08_23-18-54_260595134347_rgbf000044-resize_4-target.png,250,2.4730000000000003,4,3169,260,feet,jsons/v1_VE250_randls_70_rotated.json,791878,2972018,22,Woman
151,835910,DepthScenes,duration_manipulation_targetAtFixation,jsons/v1_VE250_randls_70_rotated.json,http://54.235.29.9/FacialAge/BNav_EC2/DepthDuration/v2_depth_duration_MTurk/v2_DepthDuration_HTML.html#66,66,1364,625,1364,768,8-29-2022,12-22-8,152,depth_duration_stimuli/000569_2014-06-09_22-51-47_260595134347_rgbf000141-resize_3/000569_2014-06-09_22-51-47_260595134347_rgbf000141-resize-original.jpg,250,4.512,0,3981,250,feet,jsons/v1_VE250_randls_70_rotated.json,791878,2972018,22,Woman
152,835910,DepthScenes,duration_manipulation_targetAtFixation,jsons/v1_VE250_randls_70_rotated.json,http://54.235.29.9/FacialAge/BNav_EC2/DepthDuration/v2_depth_duration_MTurk/v2_DepthDuration_HTML.html#66,66,1364,625,1364,768,8-29-2022,12-22-8,153,depth_duration_stimuli/002995_2014-06-15_12-31-26_094959634447_rgbf000150-resize_1/002995_2014-06-15_12-31-26_094959634447_rgbf000150-resize_1-target.png,250,3.8360000000000003,0,2892,249,feet,jsons/v1_VE250_randls_70_rotated.json,791878,2972018,22,Woman
153,835910,DepthScenes,duration_manipulation_targetAtFixation,jsons/v1_VE250_randls_70_rotated.json,http://54.235.29.9/FacialAge/BNav_EC2/DepthDuration/v2_depth_duration_MTurk/v2_DepthDuration_HTML.html#66,66,1364,625,1364,768,8-29-2022,12-22-8,154,depth_duration_stimuli/002748_2014-06-22_19-07-22_094959634447_rgbf000078-resize_1/002748_2014-06-22_19-07-22_094959634447_rgbf000078-resize_1-target.png,250,4.6705,0,2370,249,feet,jsons/v1_VE250_randls_70_rotated.json,791878,2972018,22,Woman
154,835910,DepthScenes,duration_manipulation_targetAtFixation,jsons/v1_VE250_randls_70_rotated.json,http://54.235.29.9/FacialAge/BNav_EC2/DepthDuration/v2_depth_duration_MTurk/v2_DepthDuration_HTML.html#66,66,1364,625,1364,768,8-29-2022,12-22-8,155,depth_duration_stimuli/001584_2014-06-20_11-07-43_260595134347_rgbf000002-resize_1/001584_2014-06-20_11-07-43_260595134347_rgbf000002-resize_1-target.png,250,3.53,0,2236,285,feet,jsons/v1_VE250_randls_70_rotated.json,791878,2972018,22,Woman
155,835910,DepthScenes,duration_manipulation_targetAtFixation,jsons/v1_VE250_randls_70_rotated.json,http://54.235.29.9/FacialAge/BNav_EC2/DepthDuration/v2_depth_duration_MTurk/v2_DepthDuration_HTML.html#66,66,1364,625,1364,768,8-29-2022,12-22-8,156,depth_duration_stimuli/003621_2014-05-23_18-06-08_094959634447_rgbf000101-resize_1/003621_2014-05-23_18-06-08_094959634447_rgbf000101-resize_1-target.png,250,3.9835,0,2659,249,feet,jsons/v1_VE250_randls_70_rotated.json,791878,2972018,22,Woman
156,835910,DepthScenes,duration_manipulation_targetAtFixation,jsons/v1_VE250_randls_70_rotated.json,http://54.235.29.9/FacialAge/BNav_EC2/DepthDuration/v2_depth_duration_MTurk/v2_DepthDuration_HTML.html#66,66,1364,625,1364,768,8-29-2022,12-22-8,157,depth_duration_stimuli/003129_2014-05-12_10-48-10_094959634447_rgbf000100-resize_0/003129_2014-05-12_10-48-10_094959634447_rgbf000100-resize_0-target.png,250,4.9305,2,3298,251,feet,jsons/v1_VE250_randls_70_rotated.json,791878,2972018,22,Woman
157,835910,DepthScenes,duration_manipulation_targetAtFixation,jsons/v1_VE250_randls_70_rotated.json,http://54.235.29.9/FacialAge/BNav_EC2/DepthDuration/v2_depth_duration_MTurk/v2_DepthDuration_HTML.html#66,66,1364,625,1364,768,8-29-2022,12-22-8,158,depth_duration_stimuli/000414_2014-06-04_19-49-13_260595134347_rgbf000044-resize_0/000414_2014-06-04_19-49-13_260595134347_rgbf000044-resize_0-target.png,250,4.329,0,4774,248,feet,jsons/v1_VE250_randls_70_rotated.json,791878,2972018,22,Woman
158,835910,DepthScenes,duration_manipulation_targetAtFixation,jsons/v1_VE250_randls_70_rotated.json,http://54.235.29.9/FacialAge/BNav_EC2/DepthDuration/v2_depth_duration_MTurk/v2_DepthDuration_HTML.html#66,66,1364,625,1364,768,8-29-2022,12-22-8,159,depth_duration_stimuli/003083_2014-06-15_15-21-03_094959634447_rgbf000063-resize_1/003083_2014-06-15_15-21-03_094959634447_rgbf000063-resize_1-target.png,250,4.1405,5,4036,253,feet,jsons/v1_VE250_randls_70_rotated.json,791878,2972018,22,Woman
159,835910,DepthScenes,duration_manipulation_targetAtFixation,jsons/v1_VE250_randls_70_rotated.json,http://54.235.29.9/FacialAge/BNav_EC2/DepthDuration/v2_depth_duration_MTurk/v2_DepthDuration_HTML.html#66,66,1364,625,1364,768,8-29-2022,12-22-8,160,depth_duration_stimuli/000486_2014-06-09_20-47-20_260595134347_rgbf000143-resize_2/000486_2014-06-09_20-47-20_260595134347_rgbf000143-resize_2-target.png,250,4.8325,0,7104,249,feet,jsons/v1_VE250_randls_70_rotated.json,791878,2972018,22,Woman
160,835910,DepthScenes,duration_manipulation_targetAtFixation,jsons/v1_VE250_randls_70_rotated.json,http://54.235.29.9/FacialAge/BNav_EC2/DepthDuration/v2_depth_duration_MTurk/v2_DepthDuration_HTML.html#66,66,1364,625,1364,768,8-29-2022,12-22-8,161,depth_duration_stimuli/001815_2014-06-26_20-52-55_260595134347_rgbf000020-resize_0/001815_2014-06-26_20-52-55_260595134347_rgbf000020-resize_0-target.png,250,3.3865,0,3005,316,feet,jsons/v1_VE250_randls_70_rotated.json,791878,2972018,22,Woman
161,835910,DepthScenes,duration_manipulation_targetAtFixation,jsons/v1_VE250_randls_70_rotated.json,http://54.235.29.9/FacialAge/BNav_EC2/DepthDuration/v2_depth_duration_MTurk/v2_DepthDuration_HTML.html#66,66,1364,625,1364,768,8-29-2022,12-22-8,162,depth_duration_stimuli/001808_2014-06-26_20-50-58_260595134347_rgbf000029-resize_1/001808_2014-06-26_20-50-58_260595134347_rgbf000029-resize_1-target.png,250,4.249,0,2489,249,feet,jsons/v1_VE250_randls_70_rotated.json,791878,2972018,22,Woman
162,835910,DepthScenes,duration_manipulation_targetAtFixation,jsons/v1_VE250_randls_70_rotated.json,http://54.235.29.9/FacialAge/BNav_EC2/DepthDuration/v2_depth_duration_MTurk/v2_DepthDuration_HTML.html#66,66,1364,625,1364,768,8-29-2022,12-22-8,163,depth_duration_stimuli/002344_2014-06-28_20-06-29_260595134347_rgbf000030-resize_1/002344_2014-06-28_20-06-29_260595134347_rgbf000030-resize_1-target.png,250,1.5795,3,3507,249,feet,jsons/v1_VE250_randls_70_rotated.json,791878,2972018,22,Woman
163,835910,DepthScenes,duration_manipulation_targetAtFixation,jsons/v1_VE250_randls_70_rotated.json,http://54.235.29.9/FacialAge/BNav_EC2/DepthDuration/v2_depth_duration_MTurk/v2_DepthDuration_HTML.html#66,66,1364,625,1364,768,8-29-2022,12-22-8,164,depth_duration_stimuli/002725_2014-06-22_11-47-51_094959634447_rgbf000070-resize_1/002725_2014-06-22_11-47-51_094959634447_rgbf000070-resize_1-target.png,250,2.195,0,2520,251,feet,jsons/v1_VE250_randls_70_rotated.json,791878,2972018,22,Woman
