,subjID,experimentName,versionName,sequenceName,url,selected_row,windowWidth,windowHeight,screenWidth,screenHeight,startDate,startTime,trial,stimulus,duration,actual_depth,depth_estimate,trial_RT,log_sceneDuration,unitSelection,seq_filepath,experimentTime,totalTime,age,gender
0,838264,DepthScenes,duration_manipulation_targetAtFixation,jsons/VE125_randls_45.json,http://54.235.29.9/FacialAge/BNav_EC2/DepthDuration/v2_depth_duration_MTurk/v2_DepthDuration_HTML.html#61,61,1024,768,1024,768,8-21-2022,10-38-19,1,depth_duration_stimuli/001158_2014-06-17_15-32-16_260595134347_rgbf000138-resize_2/001158_2014-06-17_15-32-16_260595134347_rgbf000138-resize_2-target.png,125,4.5315,2,27621,143,meters,jsons/VE125_randls_45.json,1361327,1783858,29,Man
1,838264,DepthScenes,duration_manipulation_targetAtFixation,jsons/VE125_randls_45.json,http://54.235.29.9/FacialAge/BNav_EC2/DepthDuration/v2_depth_duration_MTurk/v2_DepthDuration_HTML.html#61,61,1024,768,1024,768,8-21-2022,10-38-19,2,depth_duration_stimuli/000556_2014-06-09_22-42-56_260595134347_rgbf000214-resize_1/000556_2014-06-09_22-42-56_260595134347_rgbf000214-resize_1-target.png,125,4.8415,5,12528,89,meters,jsons/VE125_randls_45.json,1361327,1783858,29,Man
2,838264,DepthScenes,duration_manipulation_targetAtFixation,jsons/VE125_randls_45.json,http://54.235.29.9/FacialAge/BNav_EC2/DepthDuration/v2_depth_duration_MTurk/v2_DepthDuration_HTML.html#61,61,1024,768,1024,768,8-21-2022,10-38-19,3,depth_duration_stimuli/001110_2014-06-15_17-25-28_260595134347_rgbf000150-resize_1/001110_2014-06-15_17-25-28_260595134347_rgbf000150-resize_1-target.png,125,1.7115,3,3242,92,meters,jsons/VE125_randls_45.json,1361327,1783858,29,Man
3,838264,DepthScenes,duration_manipulation_targetAtFixation,jsons/VE125_randls_45.json,http://54.235.29.9/FacialAge/BNav_EC2/DepthDuration/v2_depth_duration_MTurk/v2_DepthDuration_HTML.html#61,61,1024,768,1024,768,8-21-2022,10-38-19,4,depth_duration_stimuli/000927_2014-06-09_16-32-30_260595134347_rgbf000123-resize_3/000927_2014-06-09_16-32-30_260595134347_rgbf000123-resize_3-target.png,125,2.6785,3,2523,125,meters,jsons/VE125_randls_45.json,1361327,1783858,29,Man
4,838264,DepthScenes,duration_manipulation_targetAtFixation,jsons/VE125_randls_45.json,http://54.235.29.9/FacialAge/BNav_EC2/DepthDuration/v2_depth_duration_MTurk/v2_DepthDuration_HTML.html#61,61,1024,768,1024,768,8-21-2022,10-38-19,5,depth_duration_stimuli/000906_2014-06-08_13-35-43_260595134347_rgbf000155-resize_1/000906_2014-06-08_13-35-43_260595134347_rgbf000155-resize_1-target.png,125,2.8489999999999998,68,10065,33,meters,jsons/VE125_randls_45.json,1361327,1783858,29,Man
5,838264,DepthScenes,duration_manipulation_targetAtFixation,jsons/VE125_randls_45.json,http://54.235.29.9/FacialAge/BNav_EC2/DepthDuration/v2_depth_duration_MTurk/v2_DepthDuration_HTML.html#61,61,1024,768,1024,768,8-21-2022,10-38-19,6,depth_duration_stimuli/002805_2014-06-22_19-54-03_094959634447_rgbf000079-resize_1/002805_2014-06-22_19-54-03_094959634447_rgbf000079-resize_1-target.png,125,3.1439999999999997,6,18302,573,meters,jsons/VE125_randls_45.json,1361327,1783858,29,Man
6,838264,DepthScenes,duration_manipulation_targetAtFixation,jsons/VE125_randls_45.json,http://54.235.29.9/FacialAge/BNav_EC2/DepthDuration/v2_depth_duration_MTurk/v2_DepthDuration_HTML.html#61,61,1024,768,1024,768,8-21-2022,10-38-19,7,depth_duration_stimuli/001808_2014-06-26_20-50-58_260595134347_rgbf000029-resize_1/001808_2014-06-26_20-50-58_260595134347_rgbf000029-resize_1-target.png,125,4.249,3,2884,278,meters,jsons/VE125_randls_45.json,1361327,1783858,29,Man
7,838264,DepthScenes,duration_manipulation_targetAtFixation,jsons/VE125_randls_45.json,http://54.235.29.9/FacialAge/BNav_EC2/DepthDuration/v2_depth_duration_MTurk/v2_DepthDuration_HTML.html#61,61,1024,768,1024,768,8-21-2022,10-38-19,8,depth_duration_stimuli/001815_2014-06-26_20-52-55_260595134347_rgbf000020-resize_0/001815_2014-06-26_20-52-55_260595134347_rgbf000020-resize_0-target.png,125,3.3865,2,3156,141,meters,jsons/VE125_randls_45.json,1361327,1783858,29,Man
8,838264,DepthScenes,duration_manipulation_targetAtFixation,jsons/VE125_randls_45.json,http://54.235.29.9/FacialAge/BNav_EC2/DepthDuration/v2_depth_duration_MTurk/v2_DepthDuration_HTML.html#61,61,1024,768,1024,768,8-21-2022,10-38-19,9,depth_duration_stimuli/001449_2014-06-19_17-01-27_260595134347_rgbf000116-resize_2/001449_2014-06-19_17-01-27_260595134347_rgbf000116-resize_2-target.png,125,3.452,3,4367,126,meters,jsons/VE125_randls_45.json,1361327,1783858,29,Man
9,838264,DepthScenes,duration_manipulation_targetAtFixation,jsons/VE125_randls_45.json,http://54.235.29.9/FacialAge/BNav_EC2/DepthDuration/v2_depth_duration_MTurk/v2_DepthDuration_HTML.html#61,61,1024,768,1024,768,8-21-2022,10-38-19,10,depth_duration_stimuli/001450_2014-06-19_17-02-03_260595134347_rgbf000203-resize_4/001450_2014-06-19_17-02-03_260595134347_rgbf000203-resize_4-target.png,125,4.0106666666667,2,2722,71,meters,jsons/VE125_randls_45.json,1361327,1783858,29,Man
10,838264,DepthScenes,duration_manipulation_targetAtFixation,jsons/VE125_randls_45.json,http://54.235.29.9/FacialAge/BNav_EC2/DepthDuration/v2_depth_duration_MTurk/v2_DepthDuration_HTML.html#61,61,1024,768,1024,768,8-21-2022,10-38-19,11,depth_duration_stimuli/000642_2014-06-08_16-59-25_260595134347_rgbf000098-resize_2/000642_2014-06-08_16-59-25_260595134347_rgbf000098-resize_2-target.png,125,2.8815,2,3229,86,meters,jsons/VE125_randls_45.json,1361327,1783858,29,Man
11,838264,DepthScenes,duration_manipulation_targetAtFixation,jsons/VE125_randls_45.json,http://54.235.29.9/FacialAge/BNav_EC2/DepthDuration/v2_depth_duration_MTurk/v2_DepthDuration_HTML.html#61,61,1024,768,1024,768,8-21-2022,10-38-19,12,depth_duration_stimuli/002425_2014-06-28_20-27-29_260595134347_rgbf000031-resize_8/002425_2014-06-28_20-27-29_260595134347_rgbf000031-resize_8-target.png,125,3.8960000000000004,3,2832,31,meters,jsons/VE125_randls_45.json,1361327,1783858,29,Man
12,838264,DepthScenes,duration_manipulation_targetAtFixation,jsons/VE125_randls_45.json,http://54.235.29.9/FacialAge/BNav_EC2/DepthDuration/v2_depth_duration_MTurk/v2_DepthDuration_HTML.html#61,61,1024,768,1024,768,8-21-2022,10-38-19,13,depth_duration_stimuli/000569_2014-06-09_22-51-47_260595134347_rgbf000141-resize_3/000569_2014-06-09_22-51-47_260595134347_rgbf000141-resize-original.jpg,125,4.512,5,2663,62,meters,jsons/VE125_randls_45.json,1361327,1783858,29,Man
13,838264,DepthScenes,duration_manipulation_targetAtFixation,jsons/VE125_randls_45.json,http://54.235.29.9/FacialAge/BNav_EC2/DepthDuration/v2_depth_duration_MTurk/v2_DepthDuration_HTML.html#61,61,1024,768,1024,768,8-21-2022,10-38-19,14,depth_duration_stimuli/003292_2014-05-14_21-53-49_094959634447_rgbf000100-resize_2/003292_2014-05-14_21-53-49_094959634447_rgbf000100-resize_2-target.png,125,3.4815,5,2592,125,meters,jsons/VE125_randls_45.json,1361327,1783858,29,Man
14,838264,DepthScenes,duration_manipulation_targetAtFixation,jsons/VE125_randls_45.json,http://54.235.29.9/FacialAge/BNav_EC2/DepthDuration/v2_depth_duration_MTurk/v2_DepthDuration_HTML.html#61,61,1024,768,1024,768,8-21-2022,10-38-19,15,depth_duration_stimuli/002639_2014-06-24_14-51-37_094959634447_rgbf000074-resize_4/002639_2014-06-24_14-51-37_094959634447_rgbf000074-resize_4-target.png,125,4.0375,6,2271,134,meters,jsons/VE125_randls_45.json,1361327,1783858,29,Man
15,838264,DepthScenes,duration_manipulation_targetAtFixation,jsons/VE125_randls_45.json,http://54.235.29.9/FacialAge/BNav_EC2/DepthDuration/v2_depth_duration_MTurk/v2_DepthDuration_HTML.html#61,61,1024,768,1024,768,8-21-2022,10-38-19,16,depth_duration_stimuli/002570_2014-06-24_13-59-54_094959634447_rgbf000059-resize_0/002570_2014-06-24_13-59-54_094959634447_rgbf000059-resize_0-target.png,125,4.037,5,5607,87,meters,jsons/VE125_randls_45.json,1361327,1783858,29,Man
16,838264,DepthScenes,duration_manipulation_targetAtFixation,jsons/VE125_randls_45.json,http://54.235.29.9/FacialAge/BNav_EC2/DepthDuration/v2_depth_duration_MTurk/v2_DepthDuration_HTML.html#61,61,1024,768,1024,768,8-21-2022,10-38-19,17,depth_duration_stimuli/002467_2014-06-28_20-38-07_260595134347_rgbf000026-resize_2/002467_2014-06-28_20-38-07_260595134347_rgbf000026-resize_2-target.png,125,4.742,6,16963,130,meters,jsons/VE125_randls_45.json,1361327,1783858,29,Man
17,838264,DepthScenes,duration_manipulation_targetAtFixation,jsons/VE125_randls_45.json,http://54.235.29.9/FacialAge/BNav_EC2/DepthDuration/v2_depth_duration_MTurk/v2_DepthDuration_HTML.html#61,61,1024,768,1024,768,8-21-2022,10-38-19,18,depth_duration_stimuli/002057_2014-06-24_21-00-13_260595134347_rgbf000120-resize_1/002057_2014-06-24_21-00-13_260595134347_rgbf000120-resize_1-target.png,125,2.967,2,2839,108,meters,jsons/VE125_randls_45.json,1361327,1783858,29,Man
18,838264,DepthScenes,duration_manipulation_targetAtFixation,jsons/VE125_randls_45.json,http://54.235.29.9/FacialAge/BNav_EC2/DepthDuration/v2_depth_duration_MTurk/v2_DepthDuration_HTML.html#61,61,1024,768,1024,768,8-21-2022,10-38-19,19,depth_duration_stimuli/000709_2014-06-08_13-51-55_260595134347_rgbf000068-resize_3/000709_2014-06-08_13-51-55_260595134347_rgbf000068-resize_3-target.png,125,1.8030000000000002,1,7343,127,meters,jsons/VE125_randls_45.json,1361327,1783858,29,Man
19,838264,DepthScenes,duration_manipulation_targetAtFixation,jsons/VE125_randls_45.json,http://54.235.29.9/FacialAge/BNav_EC2/DepthDuration/v2_depth_duration_MTurk/v2_DepthDuration_HTML.html#61,61,1024,768,1024,768,8-21-2022,10-38-19,20,depth_duration_stimuli/000773_2014-06-08_22-24-54_260595134347_rgbf000093-resize_1/000773_2014-06-08_22-24-54_260595134347_rgbf000093-resize_1-target.png,125,4.973,5,3860,1,meters,jsons/VE125_randls_45.json,1361327,1783858,29,Man
20,838264,DepthScenes,duration_manipulation_targetAtFixation,jsons/VE125_randls_45.json,http://54.235.29.9/FacialAge/BNav_EC2/DepthDuration/v2_depth_duration_MTurk/v2_DepthDuration_HTML.html#61,61,1024,768,1024,768,8-21-2022,10-38-19,21,depth_duration_stimuli/002414_2014-06-28_20-24-58_260595134347_rgbf000067-resize_4/002414_2014-06-28_20-24-58_260595134347_rgbf000067-resize_4-target.png,125,4.363,5,3441,129,meters,jsons/VE125_randls_45.json,1361327,1783858,29,Man
21,838264,DepthScenes,duration_manipulation_targetAtFixation,jsons/VE125_randls_45.json,http://54.235.29.9/FacialAge/BNav_EC2/DepthDuration/v2_depth_duration_MTurk/v2_DepthDuration_HTML.html#61,61,1024,768,1024,768,8-21-2022,10-38-19,22,depth_duration_stimuli/000414_2014-06-04_19-49-13_260595134347_rgbf000044-resize_0/000414_2014-06-04_19-49-13_260595134347_rgbf000044-resize_0-target.png,125,4.329,3,38316,0,meters,jsons/VE125_randls_45.json,1361327,1783858,29,Man
22,838264,DepthScenes,duration_manipulation_targetAtFixation,jsons/VE125_randls_45.json,http://54.235.29.9/FacialAge/BNav_EC2/DepthDuration/v2_depth_duration_MTurk/v2_DepthDuration_HTML.html#61,61,1024,768,1024,768,8-21-2022,10-38-19,23,depth_duration_stimuli/003129_2014-05-12_10-48-10_094959634447_rgbf000100-resize_0/003129_2014-05-12_10-48-10_094959634447_rgbf000100-resize_0-target.png,125,4.9305,5,3095,59,meters,jsons/VE125_randls_45.json,1361327,1783858,29,Man
23,838264,DepthScenes,duration_manipulation_targetAtFixation,jsons/VE125_randls_45.json,http://54.235.29.9/FacialAge/BNav_EC2/DepthDuration/v2_depth_duration_MTurk/v2_DepthDuration_HTML.html#61,61,1024,768,1024,768,8-21-2022,10-38-19,24,depth_duration_stimuli/002988_2014-06-15_12-24-20_094959634447_rgbf000150-resize_1/002988_2014-06-15_12-24-20_094959634447_rgbf000150-resize_1-target.png,125,4.7669999999999995,2,4820,346,meters,jsons/VE125_randls_45.json,1361327,1783858,29,Man
24,838264,DepthScenes,duration_manipulation_targetAtFixation,jsons/VE125_randls_45.json,http://54.235.29.9/FacialAge/BNav_EC2/DepthDuration/v2_depth_duration_MTurk/v2_DepthDuration_HTML.html#61,61,1024,768,1024,768,8-21-2022,10-38-19,25,depth_duration_stimuli/001052_2014-06-08_18-24-54_260595134347_rgbf000130-resize_1/001052_2014-06-08_18-24-54_260595134347_rgbf000130-resize_1-target.png,125,4.1045,0,3211,125,meters,jsons/VE125_randls_45.json,1361327,1783858,29,Man
25,838264,DepthScenes,duration_manipulation_targetAtFixation,jsons/VE125_randls_45.json,http://54.235.29.9/FacialAge/BNav_EC2/DepthDuration/v2_depth_duration_MTurk/v2_DepthDuration_HTML.html#61,61,1024,768,1024,768,8-21-2022,10-38-19,26,depth_duration_stimuli/003492_2014-05-21_15-50-55_094959634447_rgbf000828-resize_1/003492_2014-05-21_15-50-55_094959634447_rgbf000828-resize_1-target.png,125,4.06875,3,2523,221,meters,jsons/VE125_randls_45.json,1361327,1783858,29,Man
26,838264,DepthScenes,duration_manipulation_targetAtFixation,jsons/VE125_randls_45.json,http://54.235.29.9/FacialAge/BNav_EC2/DepthDuration/v2_depth_duration_MTurk/v2_DepthDuration_HTML.html#61,61,1024,768,1024,768,8-21-2022,10-38-19,27,depth_duration_stimuli/002568_2014-06-24_13-59-21_094959634447_rgbf000062-resize_4/002568_2014-06-24_13-59-21_094959634447_rgbf000062-resize_4-target.png,125,3.015,3,2402,125,meters,jsons/VE125_randls_45.json,1361327,1783858,29,Man
27,838264,DepthScenes,duration_manipulation_targetAtFixation,jsons/VE125_randls_45.json,http://54.235.29.9/FacialAge/BNav_EC2/DepthDuration/v2_depth_duration_MTurk/v2_DepthDuration_HTML.html#61,61,1024,768,1024,768,8-21-2022,10-38-19,28,depth_duration_stimuli/002118_2014-06-25_20-32-08_260595134347_rgbf000078-resize_1/002118_2014-06-25_20-32-08_260595134347_rgbf000078-resize_1-target.png,125,2.6460000000000004,2,2010,123,meters,jsons/VE125_randls_45.json,1361327,1783858,29,Man
28,838264,DepthScenes,duration_manipulation_targetAtFixation,jsons/VE125_randls_45.json,http://54.235.29.9/FacialAge/BNav_EC2/DepthDuration/v2_depth_duration_MTurk/v2_DepthDuration_HTML.html#61,61,1024,768,1024,768,8-21-2022,10-38-19,29,depth_duration_stimuli/001516_2014-06-20_16-25-09_260595134347_rgbf000076-resize_2/001516_2014-06-20_16-25-09_260595134347_rgbf000076-resize_2-target.png,125,1.7445,2,2508,143,meters,jsons/VE125_randls_45.json,1361327,1783858,29,Man
29,838264,DepthScenes,duration_manipulation_targetAtFixation,jsons/VE125_randls_45.json,http://54.235.29.9/FacialAge/BNav_EC2/DepthDuration/v2_depth_duration_MTurk/v2_DepthDuration_HTML.html#61,61,1024,768,1024,768,8-21-2022,10-38-19,30,depth_duration_stimuli/000375_2014-06-08_11-17-29_260595134347_rgbf000133-resize_2/000375_2014-06-08_11-17-29_260595134347_rgbf000133-resize-original.jpg,125,4.718,2,2807,133,meters,jsons/VE125_randls_45.json,1361327,1783858,29,Man
30,838264,DepthScenes,duration_manipulation_targetAtFixation,jsons/VE125_randls_45.json,http://54.235.29.9/FacialAge/BNav_EC2/DepthDuration/v2_depth_duration_MTurk/v2_DepthDuration_HTML.html#61,61,1024,768,1024,768,8-21-2022,10-38-19,31,depth_duration_stimuli/003534_2014-05-22_15-06-10_094959634447_rgbf000102-resize_4/003534_2014-05-22_15-06-10_094959634447_rgbf000102-resize_4-target.png,125,1.426,2,7569,125,meters,jsons/VE125_randls_45.json,1361327,1783858,29,Man
31,838264,DepthScenes,duration_manipulation_targetAtFixation,jsons/VE125_randls_45.json,http://54.235.29.9/FacialAge/BNav_EC2/DepthDuration/v2_depth_duration_MTurk/v2_DepthDuration_HTML.html#61,61,1024,768,1024,768,8-21-2022,10-38-19,32,depth_duration_stimuli/002637_2014-06-24_14-51-13_094959634447_rgbf000066-resize_4/002637_2014-06-24_14-51-13_094959634447_rgbf000066-resize_4-target.png,125,1.9955,5,16139,109,meters,jsons/VE125_randls_45.json,1361327,1783858,29,Man
32,838264,DepthScenes,duration_manipulation_targetAtFixation,jsons/VE125_randls_45.json,http://54.235.29.9/FacialAge/BNav_EC2/DepthDuration/v2_depth_duration_MTurk/v2_DepthDuration_HTML.html#61,61,1024,768,1024,768,8-21-2022,10-38-19,33,depth_duration_stimuli/002600_2014-06-24_14-27-04_094959634447_rgbf000074-resize_2/002600_2014-06-24_14-27-04_094959634447_rgbf000074-resize_2-target.png,125,2.7575,3,4495,74,meters,jsons/VE125_randls_45.json,1361327,1783858,29,Man
33,838264,DepthScenes,duration_manipulation_targetAtFixation,jsons/VE125_randls_45.json,http://54.235.29.9/FacialAge/BNav_EC2/DepthDuration/v2_depth_duration_MTurk/v2_DepthDuration_HTML.html#61,61,1024,768,1024,768,8-21-2022,10-38-19,34,depth_duration_stimuli/003228_2014-05-14_13-42-35_094959634447_rgbf000101-resize_1/003228_2014-05-14_13-42-35_094959634447_rgbf000101-resize_1-target.png,125,1.9680000000000002,2,2231,90,meters,jsons/VE125_randls_45.json,1361327,1783858,29,Man
34,838264,DepthScenes,duration_manipulation_targetAtFixation,jsons/VE125_randls_45.json,http://54.235.29.9/FacialAge/BNav_EC2/DepthDuration/v2_depth_duration_MTurk/v2_DepthDuration_HTML.html#61,61,1024,768,1024,768,8-21-2022,10-38-19,35,depth_duration_stimuli/000736_2014-06-08_18-24-15_260595134347_rgbf000206-resize_3/000736_2014-06-08_18-24-15_260595134347_rgbf000206-resize_3-target.png,125,3.515,2,2698,28,meters,jsons/VE125_randls_45.json,1361327,1783858,29,Man
35,838264,DepthScenes,duration_manipulation_targetAtFixation,jsons/VE125_randls_45.json,http://54.235.29.9/FacialAge/BNav_EC2/DepthDuration/v2_depth_duration_MTurk/v2_DepthDuration_HTML.html#61,61,1024,768,1024,768,8-21-2022,10-38-19,36,depth_duration_stimuli/000137_2014-05-20_17-04-49_260595134347_rgbf000120-resize_1/000137_2014-05-20_17-04-49_260595134347_rgbf000120-resize_1-target.png,125,3.786,0,3774,193,meters,jsons/VE125_randls_45.json,1361327,1783858,29,Man
36,838264,DepthScenes,duration_manipulation_targetAtFixation,jsons/VE125_randls_45.json,http://54.235.29.9/FacialAge/BNav_EC2/DepthDuration/v2_depth_duration_MTurk/v2_DepthDuration_HTML.html#61,61,1024,768,1024,768,8-21-2022,10-38-19,37,depth_duration_stimuli/001555_2014-06-20_17-12-10_260595134347_rgbf000065-resize_4/001555_2014-06-20_17-12-10_260595134347_rgbf000065-resize_4-target.png,125,1.633,2,2466,116,meters,jsons/VE125_randls_45.json,1361327,1783858,29,Man
37,838264,DepthScenes,duration_manipulation_targetAtFixation,jsons/VE125_randls_45.json,http://54.235.29.9/FacialAge/BNav_EC2/DepthDuration/v2_depth_duration_MTurk/v2_DepthDuration_HTML.html#61,61,1024,768,1024,768,8-21-2022,10-38-19,38,depth_duration_stimuli/000103_2014-05-14_22-01-17_260595134347_rgbf000152-resize_5/000103_2014-05-14_22-01-17_260595134347_rgbf000152-resize_5-target.png,125,1.993,0,1906,150,meters,jsons/VE125_randls_45.json,1361327,1783858,29,Man
38,838264,DepthScenes,duration_manipulation_targetAtFixation,jsons/VE125_randls_45.json,http://54.235.29.9/FacialAge/BNav_EC2/DepthDuration/v2_depth_duration_MTurk/v2_DepthDuration_HTML.html#61,61,1024,768,1024,768,8-21-2022,10-38-19,39,depth_duration_stimuli/000522_2014-06-08_13-35-06_260595134347_rgbf000244-resize_1/000522_2014-06-08_13-35-06_260595134347_rgbf000244-resize_1-target.png,125,2.3715,2,1821,126,meters,jsons/VE125_randls_45.json,1361327,1783858,29,Man
39,838264,DepthScenes,duration_manipulation_targetAtFixation,jsons/VE125_randls_45.json,http://54.235.29.9/FacialAge/BNav_EC2/DepthDuration/v2_depth_duration_MTurk/v2_DepthDuration_HTML.html#61,61,1024,768,1024,768,8-21-2022,10-38-19,40,depth_duration_stimuli/002949_2014-06-26_15-57-42_094959634447_rgbf000079-resize_1/002949_2014-06-26_15-57-42_094959634447_rgbf000079-resize_1-target.png,125,1.8915,2,2775,119,meters,jsons/VE125_randls_45.json,1361327,1783858,29,Man
40,838264,DepthScenes,duration_manipulation_targetAtFixation,jsons/VE125_randls_45.json,http://54.235.29.9/FacialAge/BNav_EC2/DepthDuration/v2_depth_duration_MTurk/v2_DepthDuration_HTML.html#61,61,1024,768,1024,768,8-21-2022,10-38-19,41,depth_duration_stimuli/001059_2014-06-08_21-53-27_260595134347_rgbf000061-resize_4/001059_2014-06-08_21-53-27_260595134347_rgbf000061-resize_4-target.png,125,2.4185,2,3111,115,meters,jsons/VE125_randls_45.json,1361327,1783858,29,Man
41,838264,DepthScenes,duration_manipulation_targetAtFixation,jsons/VE125_randls_45.json,http://54.235.29.9/FacialAge/BNav_EC2/DepthDuration/v2_depth_duration_MTurk/v2_DepthDuration_HTML.html#61,61,1024,768,1024,768,8-21-2022,10-38-19,42,depth_duration_stimuli/001032_2014-06-08_13-23-17_260595134347_rgbf000021-resize_3/001032_2014-06-08_13-23-17_260595134347_rgbf000021-resize_3-target.png,125,3.2725,0,1917,131,meters,jsons/VE125_randls_45.json,1361327,1783858,29,Man
42,838264,DepthScenes,duration_manipulation_targetAtFixation,jsons/VE125_randls_45.json,http://54.235.29.9/FacialAge/BNav_EC2/DepthDuration/v2_depth_duration_MTurk/v2_DepthDuration_HTML.html#61,61,1024,768,1024,768,8-21-2022,10-38-19,43,depth_duration_stimuli/001806_2014-06-26_20-50-20_260595134347_rgbf000091-resize_1/001806_2014-06-26_20-50-20_260595134347_rgbf000091-resize_1-target.png,125,2.7305,6,2250,90,meters,jsons/VE125_randls_45.json,1361327,1783858,29,Man
43,838264,DepthScenes,duration_manipulation_targetAtFixation,jsons/VE125_randls_45.json,http://54.235.29.9/FacialAge/BNav_EC2/DepthDuration/v2_depth_duration_MTurk/v2_DepthDuration_HTML.html#61,61,1024,768,1024,768,8-21-2022,10-38-19,44,depth_duration_stimuli/001617_2014-06-20_11-35-32_260595134347_rgbf000066-resize_1/001617_2014-06-20_11-35-32_260595134347_rgbf000066-resize_1-target.png,125,3.7910000000000004,2,4194,142,meters,jsons/VE125_randls_45.json,1361327,1783858,29,Man
44,838264,DepthScenes,duration_manipulation_targetAtFixation,jsons/VE125_randls_45.json,http://54.235.29.9/FacialAge/BNav_EC2/DepthDuration/v2_depth_duration_MTurk/v2_DepthDuration_HTML.html#61,61,1024,768,1024,768,8-21-2022,10-38-19,45,depth_duration_stimuli/000787_2014-06-08_22-33-53_260595134347_rgbf000175-resize_1/000787_2014-06-08_22-33-53_260595134347_rgbf000175-resize-original.jpg,125,4.784,2,5111,187,meters,jsons/VE125_randls_45.json,1361327,1783858,29,Man
45,838264,DepthScenes,duration_manipulation_targetAtFixation,jsons/VE125_randls_45.json,http://54.235.29.9/FacialAge/BNav_EC2/DepthDuration/v2_depth_duration_MTurk/v2_DepthDuration_HTML.html#61,61,1024,768,1024,768,8-21-2022,10-38-19,46,depth_duration_stimuli/002725_2014-06-22_11-47-51_094959634447_rgbf000070-resize_1/002725_2014-06-22_11-47-51_094959634447_rgbf000070-resize_1-target.png,125,2.195,2,2799,185,meters,jsons/VE125_randls_45.json,1361327,1783858,29,Man
46,838264,DepthScenes,duration_manipulation_targetAtFixation,jsons/VE125_randls_45.json,http://54.235.29.9/FacialAge/BNav_EC2/DepthDuration/v2_depth_duration_MTurk/v2_DepthDuration_HTML.html#61,61,1024,768,1024,768,8-21-2022,10-38-19,47,depth_duration_stimuli/002344_2014-06-28_20-06-29_260595134347_rgbf000030-resize_1/002344_2014-06-28_20-06-29_260595134347_rgbf000030-resize_1-target.png,125,1.5795,6,37789,203,meters,jsons/VE125_randls_45.json,1361327,1783858,29,Man
47,838264,DepthScenes,duration_manipulation_targetAtFixation,jsons/VE125_randls_45.json,http://54.235.29.9/FacialAge/BNav_EC2/DepthDuration/v2_depth_duration_MTurk/v2_DepthDuration_HTML.html#61,61,1024,768,1024,768,8-21-2022,10-38-19,48,depth_duration_stimuli/000486_2014-06-09_20-47-20_260595134347_rgbf000143-resize_2/000486_2014-06-09_20-47-20_260595134347_rgbf000143-resize_2-target.png,125,4.8325,2,3554,82,meters,jsons/VE125_randls_45.json,1361327,1783858,29,Man
48,838264,DepthScenes,duration_manipulation_targetAtFixation,jsons/VE125_randls_45.json,http://54.235.29.9/FacialAge/BNav_EC2/DepthDuration/v2_depth_duration_MTurk/v2_DepthDuration_HTML.html#61,61,1024,768,1024,768,8-21-2022,10-38-19,49,depth_duration_stimuli/003083_2014-06-15_15-21-03_094959634447_rgbf000063-resize_1/003083_2014-06-15_15-21-03_094959634447_rgbf000063-resize_1-target.png,125,4.1405,3,11672,456,meters,jsons/VE125_randls_45.json,1361327,1783858,29,Man
49,838264,DepthScenes,duration_manipulation_targetAtFixation,jsons/VE125_randls_45.json,http://54.235.29.9/FacialAge/BNav_EC2/DepthDuration/v2_depth_duration_MTurk/v2_DepthDuration_HTML.html#61,61,1024,768,1024,768,8-21-2022,10-38-19,50,depth_duration_stimuli/001244_2014-06-17_16-47-45_260595134347_rgbf000030-resize_4/001244_2014-06-17_16-47-45_260595134347_rgbf000030-resize_4-target.png,125,2.0425,6,28053,4222,meters,jsons/VE125_randls_45.json,1361327,1783858,29,Man
50,838264,DepthScenes,duration_manipulation_targetAtFixation,jsons/VE125_randls_45.json,http://54.235.29.9/FacialAge/BNav_EC2/DepthDuration/v2_depth_duration_MTurk/v2_DepthDuration_HTML.html#61,61,1024,768,1024,768,8-21-2022,10-38-19,51,depth_duration_stimuli/003495_2014-05-21_16-01-51_094959634447_rgbf000100-resize_3/003495_2014-05-21_16-01-51_094959634447_rgbf000100-resize_3-target.png,125,1.6255,3,5826,182,meters,jsons/VE125_randls_45.json,1361327,1783858,29,Man
51,838264,DepthScenes,duration_manipulation_targetAtFixation,jsons/VE125_randls_45.json,http://54.235.29.9/FacialAge/BNav_EC2/DepthDuration/v2_depth_duration_MTurk/v2_DepthDuration_HTML.html#61,61,1024,768,1024,768,8-21-2022,10-38-19,52,depth_duration_stimuli/002788_2014-06-22_19-36-03_094959634447_rgbf000088-resize_2/002788_2014-06-22_19-36-03_094959634447_rgbf000088-resize_2-target.png,125,1.6465,6,2337,244,meters,jsons/VE125_randls_45.json,1361327,1783858,29,Man
52,838264,DepthScenes,duration_manipulation_targetAtFixation,jsons/VE125_randls_45.json,http://54.235.29.9/FacialAge/BNav_EC2/DepthDuration/v2_depth_duration_MTurk/v2_DepthDuration_HTML.html#61,61,1024,768,1024,768,8-21-2022,10-38-19,53,depth_duration_stimuli/000749_2014-06-08_21-55-06_260595134347_rgbf000070-resize_2/000749_2014-06-08_21-55-06_260595134347_rgbf000070-resize_2-target.png,125,2.331,2,2485,188,meters,jsons/VE125_randls_45.json,1361327,1783858,29,Man
53,838264,DepthScenes,duration_manipulation_targetAtFixation,jsons/VE125_randls_45.json,http://54.235.29.9/FacialAge/BNav_EC2/DepthDuration/v2_depth_duration_MTurk/v2_DepthDuration_HTML.html#61,61,1024,768,1024,768,8-21-2022,10-38-19,54,depth_duration_stimuli/002763_2014-06-22_19-13-10_094959634447_rgbf000075-resize_4/002763_2014-06-22_19-13-10_094959634447_rgbf000075-resize_4-target.png,125,1.68375,2,11371,92,meters,jsons/VE125_randls_45.json,1361327,1783858,29,Man
54,838264,DepthScenes,duration_manipulation_targetAtFixation,jsons/VE125_randls_45.json,http://54.235.29.9/FacialAge/BNav_EC2/DepthDuration/v2_depth_duration_MTurk/v2_DepthDuration_HTML.html#61,61,1024,768,1024,768,8-21-2022,10-38-19,55,depth_duration_stimuli/002209_2014-06-28_18-36-10_260595134347_rgbf000051-resize_1/002209_2014-06-28_18-36-10_260595134347_rgbf000051-resize_1-target.png,125,2.057,2,28012,126,meters,jsons/VE125_randls_45.json,1361327,1783858,29,Man
55,838264,DepthScenes,duration_manipulation_targetAtFixation,jsons/VE125_randls_45.json,http://54.235.29.9/FacialAge/BNav_EC2/DepthDuration/v2_depth_duration_MTurk/v2_DepthDuration_HTML.html#61,61,1024,768,1024,768,8-21-2022,10-38-19,56,depth_duration_stimuli/000436_2014-06-09_22-25-11_260595134347_rgbf000137-resize_1/000436_2014-06-09_22-25-11_260595134347_rgbf000137-resize_1-target.png,125,4.0705,2,3432,100,meters,jsons/VE125_randls_45.json,1361327,1783858,29,Man
56,838264,DepthScenes,duration_manipulation_targetAtFixation,jsons/VE125_randls_45.json,http://54.235.29.9/FacialAge/BNav_EC2/DepthDuration/v2_depth_duration_MTurk/v2_DepthDuration_HTML.html#61,61,1024,768,1024,768,8-21-2022,10-38-19,57,depth_duration_stimuli/002444_2014-06-28_20-32-08_260595134347_rgbf000027-resize_0/002444_2014-06-28_20-32-08_260595134347_rgbf000027-resize_0-target.png,125,4.388999999999999,2,2757,355,meters,jsons/VE125_randls_45.json,1361327,1783858,29,Man
57,838264,DepthScenes,duration_manipulation_targetAtFixation,jsons/VE125_randls_45.json,http://54.235.29.9/FacialAge/BNav_EC2/DepthDuration/v2_depth_duration_MTurk/v2_DepthDuration_HTML.html#61,61,1024,768,1024,768,8-21-2022,10-38-19,58,depth_duration_stimuli/000810_2014-06-08_17-20-01_260595134347_rgbf000105-resize_0/000810_2014-06-08_17-20-01_260595134347_rgbf000105-resize_0-target.png,125,1.4865,2,2666,0,meters,jsons/VE125_randls_45.json,1361327,1783858,29,Man
58,838264,DepthScenes,duration_manipulation_targetAtFixation,jsons/VE125_randls_45.json,http://54.235.29.9/FacialAge/BNav_EC2/DepthDuration/v2_depth_duration_MTurk/v2_DepthDuration_HTML.html#61,61,1024,768,1024,768,8-21-2022,10-38-19,59,depth_duration_stimuli/001214_2014-06-17_16-13-55_260595134347_rgbf000111-resize_0/001214_2014-06-17_16-13-55_260595134347_rgbf000111-resize_0-target.png,125,2.6505,2,3514,4,meters,jsons/VE125_randls_45.json,1361327,1783858,29,Man
59,838264,DepthScenes,duration_manipulation_targetAtFixation,jsons/VE125_randls_45.json,http://54.235.29.9/FacialAge/BNav_EC2/DepthDuration/v2_depth_duration_MTurk/v2_DepthDuration_HTML.html#61,61,1024,768,1024,768,8-21-2022,10-38-19,60,depth_duration_stimuli/000682_2014-06-08_23-14-58_260595134347_rgbf000041-resize_5/000682_2014-06-08_23-14-58_260595134347_rgbf000041-resize_5-target.png,125,2.7239999999999998,2,3258,82,meters,jsons/VE125_randls_45.json,1361327,1783858,29,Man
60,838264,DepthScenes,duration_manipulation_targetAtFixation,jsons/VE125_randls_45.json,http://54.235.29.9/FacialAge/BNav_EC2/DepthDuration/v2_depth_duration_MTurk/v2_DepthDuration_HTML.html#61,61,1024,768,1024,768,8-21-2022,10-38-19,61,depth_duration_stimuli/001650_2014-06-20_12-09-00_260595134347_rgbf000087-resize_3/001650_2014-06-20_12-09-00_260595134347_rgbf000087-resize_3-target.png,125,1.9505,3,2954,125,meters,jsons/VE125_randls_45.json,1361327,1783858,29,Man
61,838264,DepthScenes,duration_manipulation_targetAtFixation,jsons/VE125_randls_45.json,http://54.235.29.9/FacialAge/BNav_EC2/DepthDuration/v2_depth_duration_MTurk/v2_DepthDuration_HTML.html#61,61,1024,768,1024,768,8-21-2022,10-38-19,62,depth_duration_stimuli/001133_2014-06-17_14-49-16_260595134347_rgbf000100-resize_0/001133_2014-06-17_14-49-16_260595134347_rgbf000100-resize_0-target.png,125,4.2115,3,2246,124,meters,jsons/VE125_randls_45.json,1361327,1783858,29,Man
62,838264,DepthScenes,duration_manipulation_targetAtFixation,jsons/VE125_randls_45.json,http://54.235.29.9/FacialAge/BNav_EC2/DepthDuration/v2_depth_duration_MTurk/v2_DepthDuration_HTML.html#61,61,1024,768,1024,768,8-21-2022,10-38-19,63,depth_duration_stimuli/001132_2014-06-17_14-48-54_260595134347_rgbf000100-resize_2/001132_2014-06-17_14-48-54_260595134347_rgbf000100-resize_2-target.png,125,3.753,2,84682,75,meters,jsons/VE125_randls_45.json,1361327,1783858,29,Man
63,838264,DepthScenes,duration_manipulation_targetAtFixation,jsons/VE125_randls_45.json,http://54.235.29.9/FacialAge/BNav_EC2/DepthDuration/v2_depth_duration_MTurk/v2_DepthDuration_HTML.html#61,61,1024,768,1024,768,8-21-2022,10-38-19,64,depth_duration_stimuli/002043_2014-06-24_20-29-38_260595134347_rgbf000039-resize_4/002043_2014-06-24_20-29-38_260595134347_rgbf000039-resize_4-target.png,125,2.8435,2,20830,0,meters,jsons/VE125_randls_45.json,1361327,1783858,29,Man
64,838264,DepthScenes,duration_manipulation_targetAtFixation,jsons/VE125_randls_45.json,http://54.235.29.9/FacialAge/BNav_EC2/DepthDuration/v2_depth_duration_MTurk/v2_DepthDuration_HTML.html#61,61,1024,768,1024,768,8-21-2022,10-38-19,65,depth_duration_stimuli/003048_2014-06-15_13-49-43_094959634447_rgbf000150-resize_1/003048_2014-06-15_13-49-43_094959634447_rgbf000150-resize_1-target.png,125,4.0035,2,6393,356,meters,jsons/VE125_randls_45.json,1361327,1783858,29,Man
65,838264,DepthScenes,duration_manipulation_targetAtFixation,jsons/VE125_randls_45.json,http://54.235.29.9/FacialAge/BNav_EC2/DepthDuration/v2_depth_duration_MTurk/v2_DepthDuration_HTML.html#61,61,1024,768,1024,768,8-21-2022,10-38-19,66,depth_duration_stimuli/001222_2014-06-17_16-24-06_260595134347_rgbf000073-resize_0/001222_2014-06-17_16-24-06_260595134347_rgbf000073-resize-original.jpg,125,1.4385,3,319329,607,meters,jsons/VE125_randls_45.json,1361327,1783858,29,Man
66,838264,DepthScenes,duration_manipulation_targetAtFixation,jsons/VE125_randls_45.json,http://54.235.29.9/FacialAge/BNav_EC2/DepthDuration/v2_depth_duration_MTurk/v2_DepthDuration_HTML.html#61,61,1024,768,1024,768,8-21-2022,10-38-19,67,depth_duration_stimuli/002213_2014-06-28_18-37-58_260595134347_rgbf000055-resize_1/002213_2014-06-28_18-37-58_260595134347_rgbf000055-resize_1-target.png,125,3.62,2,15195,28,meters,jsons/VE125_randls_45.json,1361327,1783858,29,Man
67,838264,DepthScenes,duration_manipulation_targetAtFixation,jsons/VE125_randls_45.json,http://54.235.29.9/FacialAge/BNav_EC2/DepthDuration/v2_depth_duration_MTurk/v2_DepthDuration_HTML.html#61,61,1024,768,1024,768,8-21-2022,10-38-19,68,depth_duration_stimuli/000691_2014-06-08_13-08-50_260595134347_rgbf000132-resize_3/000691_2014-06-08_13-08-50_260595134347_rgbf000132-resize_3-target.png,125,4.1530000000000005,2,8708,120,meters,jsons/VE125_randls_45.json,1361327,1783858,29,Man
68,838264,DepthScenes,duration_manipulation_targetAtFixation,jsons/VE125_randls_45.json,http://54.235.29.9/FacialAge/BNav_EC2/DepthDuration/v2_depth_duration_MTurk/v2_DepthDuration_HTML.html#61,61,1024,625,1024,768,8-21-2022,10-38-19,69,depth_duration_stimuli/000929_2014-06-09_16-33-19_260595134347_rgbf000139-resize_0/000929_2014-06-09_16-33-19_260595134347_rgbf000139-resize_0-target.png,125,2.8680000000000003,1,122973,16,meters,jsons/VE125_randls_45.json,1361327,1783858,29,Man
69,838264,DepthScenes,duration_manipulation_targetAtFixation,jsons/VE125_randls_45.json,http://54.235.29.9/FacialAge/BNav_EC2/DepthDuration/v2_depth_duration_MTurk/v2_DepthDuration_HTML.html#61,61,1024,768,1024,768,8-21-2022,10-38-19,70,depth_duration_stimuli/000457_2014-06-08_16-52-43_260595134347_rgbf000199-resize_1/000457_2014-06-08_16-52-43_260595134347_rgbf000199-resize_1-target.png,125,3.6489999999999996,2,3881,407,meters,jsons/VE125_randls_45.json,1361327,1783858,29,Man
70,838264,DepthScenes,duration_manipulation_targetAtFixation,jsons/VE125_randls_45.json,http://54.235.29.9/FacialAge/BNav_EC2/DepthDuration/v2_depth_duration_MTurk/v2_DepthDuration_HTML.html#61,61,1024,768,1024,768,8-21-2022,10-38-19,71,depth_duration_stimuli/000788_2014-06-08_22-34-36_260595134347_rgbf000131-resize_1/000788_2014-06-08_22-34-36_260595134347_rgbf000131-resize_1-target.png,125,3.359,1,5858,160,meters,jsons/VE125_randls_45.json,1361327,1783858,29,Man
71,838264,DepthScenes,duration_manipulation_targetAtFixation,jsons/VE125_randls_45.json,http://54.235.29.9/FacialAge/BNav_EC2/DepthDuration/v2_depth_duration_MTurk/v2_DepthDuration_HTML.html#61,61,1024,768,1024,768,8-21-2022,10-38-19,72,depth_duration_stimuli/001235_2014-06-17_16-37-36_260595134347_rgbf000084-resize_4/001235_2014-06-17_16-37-36_260595134347_rgbf000084-resize_4-target.png,125,3.6605,1,2437,45,meters,jsons/VE125_randls_45.json,1361327,1783858,29,Man
72,838264,DepthScenes,duration_manipulation_targetAtFixation,jsons/VE125_randls_45.json,http://54.235.29.9/FacialAge/BNav_EC2/DepthDuration/v2_depth_duration_MTurk/v2_DepthDuration_HTML.html#61,61,1024,768,1024,768,8-21-2022,10-38-19,73,depth_duration_stimuli/001011_2014-06-08_23-18-54_260595134347_rgbf000044-resize_4/001011_2014-06-08_23-18-54_260595134347_rgbf000044-resize_4-target.png,125,2.4730000000000003,1,2915,104,meters,jsons/VE125_randls_45.json,1361327,1783858,29,Man
73,838264,DepthScenes,duration_manipulation_targetAtFixation,jsons/VE125_randls_45.json,http://54.235.29.9/FacialAge/BNav_EC2/DepthDuration/v2_depth_duration_MTurk/v2_DepthDuration_HTML.html#61,61,1024,768,1024,768,8-21-2022,10-38-19,74,depth_duration_stimuli/002875_2014-06-01_15-19-00_094959634447_rgbf000151-resize_1/002875_2014-06-01_15-19-00_094959634447_rgbf000151-resize_1-target.png,125,1.9675,1,2014,108,meters,jsons/VE125_randls_45.json,1361327,1783858,29,Man
74,838264,DepthScenes,duration_manipulation_targetAtFixation,jsons/VE125_randls_45.json,http://54.235.29.9/FacialAge/BNav_EC2/DepthDuration/v2_depth_duration_MTurk/v2_DepthDuration_HTML.html#61,61,1024,768,1024,768,8-21-2022,10-38-19,75,depth_duration_stimuli/002039_2014-06-24_20-22-38_260595134347_rgbf000084-resize_1/002039_2014-06-24_20-22-38_260595134347_rgbf000084-resize_1-target.png,125,4.408,1,2380,111,meters,jsons/VE125_randls_45.json,1361327,1783858,29,Man
75,838264,DepthScenes,duration_manipulation_targetAtFixation,jsons/VE125_randls_45.json,http://54.235.29.9/FacialAge/BNav_EC2/DepthDuration/v2_depth_duration_MTurk/v2_DepthDuration_HTML.html#61,61,1024,768,1024,768,8-21-2022,10-38-19,76,depth_duration_stimuli/002103_2014-06-25_20-00-40_260595134347_rgbf000049-resize_0/002103_2014-06-25_20-00-40_260595134347_rgbf000049-resize_0-target.png,125,4.105,1,2977,124,meters,jsons/VE125_randls_45.json,1361327,1783858,29,Man
76,838264,DepthScenes,duration_manipulation_targetAtFixation,jsons/VE125_randls_45.json,http://54.235.29.9/FacialAge/BNav_EC2/DepthDuration/v2_depth_duration_MTurk/v2_DepthDuration_HTML.html#61,61,1024,768,1024,768,8-21-2022,10-38-19,77,depth_duration_stimuli/002549_2014-06-24_13-41-39_094959634447_rgbf000022-resize_3/002549_2014-06-24_13-41-39_094959634447_rgbf000022-resize_3-target.png,125,1.476,1,2344,119,meters,jsons/VE125_randls_45.json,1361327,1783858,29,Man
77,838264,DepthScenes,duration_manipulation_targetAtFixation,jsons/VE125_randls_45.json,http://54.235.29.9/FacialAge/BNav_EC2/DepthDuration/v2_depth_duration_MTurk/v2_DepthDuration_HTML.html#61,61,1024,768,1024,768,8-21-2022,10-38-19,78,depth_duration_stimuli/002750_2014-06-22_19-08-03_094959634447_rgbf000094-resize_4/002750_2014-06-22_19-08-03_094959634447_rgbf000094-resize_4-target.png,125,2.354,1,1863,113,meters,jsons/VE125_randls_45.json,1361327,1783858,29,Man
78,838264,DepthScenes,duration_manipulation_targetAtFixation,jsons/VE125_randls_45.json,http://54.235.29.9/FacialAge/BNav_EC2/DepthDuration/v2_depth_duration_MTurk/v2_DepthDuration_HTML.html#61,61,1024,768,1024,768,8-21-2022,10-38-19,79,depth_duration_stimuli/000758_2014-06-08_22-05-08_260595134347_rgbf000085-resize_0/000758_2014-06-08_22-05-08_260595134347_rgbf000085-resize_0-target.png,125,3.3810000000000002,1,3176,60,meters,jsons/VE125_randls_45.json,1361327,1783858,29,Man
79,838264,DepthScenes,duration_manipulation_targetAtFixation,jsons/VE125_randls_45.json,http://54.235.29.9/FacialAge/BNav_EC2/DepthDuration/v2_depth_duration_MTurk/v2_DepthDuration_HTML.html#61,61,1024,768,1024,768,8-21-2022,10-38-19,80,depth_duration_stimuli/000854_2014-06-09_19-43-13_260595134347_rgbf000066-resize_0/000854_2014-06-09_19-43-13_260595134347_rgbf000066-resize_0-target.png,125,3.068,1,1475,131,meters,jsons/VE125_randls_45.json,1361327,1783858,29,Man
80,838264,DepthScenes,duration_manipulation_targetAtFixation,jsons/VE125_randls_45.json,http://54.235.29.9/FacialAge/BNav_EC2/DepthDuration/v2_depth_duration_MTurk/v2_DepthDuration_HTML.html#61,61,1024,768,1024,768,8-21-2022,10-38-19,81,depth_duration_stimuli/000470_2014-06-09_19-42-40_260595134347_rgbf000094-resize_1/000470_2014-06-09_19-42-40_260595134347_rgbf000094-resize_1-target.png,125,1.831,1,2445,119,meters,jsons/VE125_randls_45.json,1361327,1783858,29,Man
81,838264,DepthScenes,duration_manipulation_targetAtFixation,jsons/VE125_randls_45.json,http://54.235.29.9/FacialAge/BNav_EC2/DepthDuration/v2_depth_duration_MTurk/v2_DepthDuration_HTML.html#61,61,1024,768,1024,768,8-21-2022,10-38-19,82,depth_duration_stimuli/000109_2014-05-14_23-41-52_260595134347_rgbf000035-resize_9/000109_2014-05-14_23-41-52_260595134347_rgbf000035-resize_9-target.png,125,1.3545,1,2259,118,meters,jsons/VE125_randls_45.json,1361327,1783858,29,Man
82,838264,DepthScenes,duration_manipulation_targetAtFixation,jsons/VE125_randls_45.json,http://54.235.29.9/FacialAge/BNav_EC2/DepthDuration/v2_depth_duration_MTurk/v2_DepthDuration_HTML.html#61,61,1024,768,1024,768,8-21-2022,10-38-19,83,depth_duration_stimuli/002663_2014-06-13_15-50-26_094959634447_rgbf000075-resize_1/002663_2014-06-13_15-50-26_094959634447_rgbf000075-resize_1-target.png,125,4.7495,1,3512,146,meters,jsons/VE125_randls_45.json,1361327,1783858,29,Man
83,838264,DepthScenes,duration_manipulation_targetAtFixation,jsons/VE125_randls_45.json,http://54.235.29.9/FacialAge/BNav_EC2/DepthDuration/v2_depth_duration_MTurk/v2_DepthDuration_HTML.html#61,61,1024,768,1024,768,8-21-2022,10-38-19,84,depth_duration_stimuli/000409_2014-06-04_19-23-33_260595134347_rgbf000067-resize_0/000409_2014-06-04_19-23-33_260595134347_rgbf000067-resize_0-target.png,125,3.7335,1,1964,95,meters,jsons/VE125_randls_45.json,1361327,1783858,29,Man
84,838264,DepthScenes,duration_manipulation_targetAtFixation,jsons/VE125_randls_45.json,http://54.235.29.9/FacialAge/BNav_EC2/DepthDuration/v2_depth_duration_MTurk/v2_DepthDuration_HTML.html#61,61,1024,768,1024,768,8-21-2022,10-38-19,85,depth_duration_stimuli/001417_2014-06-19_16-25-36_260595134347_rgbf000115-resize_5/001417_2014-06-19_16-25-36_260595134347_rgbf000115-resize_5-target.png,125,4.6255,1,2967,121,meters,jsons/VE125_randls_45.json,1361327,1783858,29,Man
85,838264,DepthScenes,duration_manipulation_targetAtFixation,jsons/VE125_randls_45.json,http://54.235.29.9/FacialAge/BNav_EC2/DepthDuration/v2_depth_duration_MTurk/v2_DepthDuration_HTML.html#61,61,1024,768,1024,768,8-21-2022,10-38-19,86,depth_duration_stimuli/003081_2014-06-15_15-19-16_094959634447_rgbf000150-resize_1/003081_2014-06-15_15-19-16_094959634447_rgbf000150-resize_1-target.png,125,3.9125,1,2163,118,meters,jsons/VE125_randls_45.json,1361327,1783858,29,Man
86,838264,DepthScenes,duration_manipulation_targetAtFixation,jsons/VE125_randls_45.json,http://54.235.29.9/FacialAge/BNav_EC2/DepthDuration/v2_depth_duration_MTurk/v2_DepthDuration_HTML.html#61,61,1024,768,1024,768,8-21-2022,10-38-19,87,depth_duration_stimuli/002375_2014-06-28_20-13-44_260595134347_rgbf000032-resize_1/002375_2014-06-28_20-13-44_260595134347_rgbf000032-resize_1-target.png,125,4.0175,1,1917,0,meters,jsons/VE125_randls_45.json,1361327,1783858,29,Man
87,838264,DepthScenes,duration_manipulation_targetAtFixation,jsons/VE125_randls_45.json,http://54.235.29.9/FacialAge/BNav_EC2/DepthDuration/v2_depth_duration_MTurk/v2_DepthDuration_HTML.html#61,61,1024,768,1024,768,8-21-2022,10-38-19,88,depth_duration_stimuli/002657_2014-06-13_15-29-54_094959634447_rgbf000150-resize_1/002657_2014-06-13_15-29-54_094959634447_rgbf000150-resize_1-target.png,125,4.919,1,1991,123,meters,jsons/VE125_randls_45.json,1361327,1783858,29,Man
88,838264,DepthScenes,duration_manipulation_targetAtFixation,jsons/VE125_randls_45.json,http://54.235.29.9/FacialAge/BNav_EC2/DepthDuration/v2_depth_duration_MTurk/v2_DepthDuration_HTML.html#61,61,1024,768,1024,768,8-21-2022,10-38-19,89,depth_duration_stimuli/001810_2014-06-26_20-51-35_260595134347_rgbf000040-resize_3/001810_2014-06-26_20-51-35_260595134347_rgbf000040-resize_3-target.png,125,2.2525,1,2891,121,meters,jsons/VE125_randls_45.json,1361327,1783858,29,Man
89,838264,DepthScenes,duration_manipulation_targetAtFixation,jsons/VE125_randls_45.json,http://54.235.29.9/FacialAge/BNav_EC2/DepthDuration/v2_depth_duration_MTurk/v2_DepthDuration_HTML.html#61,61,1024,768,1024,768,8-21-2022,10-38-19,90,depth_duration_stimuli/003010_2014-06-15_12-54-35_094959634447_rgbf000112-resize_0/003010_2014-06-15_12-54-35_094959634447_rgbf000112-resize_0-target.png,125,3.1185,1,2618,118,meters,jsons/VE125_randls_45.json,1361327,1783858,29,Man
90,838264,DepthScenes,duration_manipulation_targetAtFixation,jsons/VE125_randls_45.json,http://54.235.29.9/FacialAge/BNav_EC2/DepthDuration/v2_depth_duration_MTurk/v2_DepthDuration_HTML.html#61,61,1024,768,1024,768,8-21-2022,10-38-19,91,depth_duration_stimuli/002784_2014-06-22_19-26-30_094959634447_rgbf000083-resize_3/002784_2014-06-22_19-26-30_094959634447_rgbf000083-resize_3-target.png,125,1.8046666666667,1,2085,0,meters,jsons/VE125_randls_45.json,1361327,1783858,29,Man
91,838264,DepthScenes,duration_manipulation_targetAtFixation,jsons/VE125_randls_45.json,http://54.235.29.9/FacialAge/BNav_EC2/DepthDuration/v2_depth_duration_MTurk/v2_DepthDuration_HTML.html#61,61,1024,768,1024,768,8-21-2022,10-38-19,92,depth_duration_stimuli/001100_2014-06-15_17-46-26_260595134347_rgbf000225-resize_2/001100_2014-06-15_17-46-26_260595134347_rgbf000225-resize_2-target.png,125,2.24,1,1613,117,meters,jsons/VE125_randls_45.json,1361327,1783858,29,Man
92,838264,DepthScenes,duration_manipulation_targetAtFixation,jsons/VE125_randls_45.json,http://54.235.29.9/FacialAge/BNav_EC2/DepthDuration/v2_depth_duration_MTurk/v2_DepthDuration_HTML.html#61,61,1024,768,1024,768,8-21-2022,10-38-19,93,depth_duration_stimuli/002509_2014-06-24_13-19-22_094959634447_rgbf000077-resize_0/002509_2014-06-24_13-19-22_094959634447_rgbf000077-resize_0-target.png,125,1.3065,1,1921,127,meters,jsons/VE125_randls_45.json,1361327,1783858,29,Man
93,838264,DepthScenes,duration_manipulation_targetAtFixation,jsons/VE125_randls_45.json,http://54.235.29.9/FacialAge/BNav_EC2/DepthDuration/v2_depth_duration_MTurk/v2_DepthDuration_HTML.html#61,61,1024,768,1024,768,8-21-2022,10-38-19,94,depth_duration_stimuli/003338_2014-05-20_11-01-23_094959634447_rgbf000051-resize_6/003338_2014-05-20_11-01-23_094959634447_rgbf000051-resize_6-target.png,125,1.693,1,1740,119,meters,jsons/VE125_randls_45.json,1361327,1783858,29,Man
94,838264,DepthScenes,duration_manipulation_targetAtFixation,jsons/VE125_randls_45.json,http://54.235.29.9/FacialAge/BNav_EC2/DepthDuration/v2_depth_duration_MTurk/v2_DepthDuration_HTML.html#61,61,1024,768,1024,768,8-21-2022,10-38-19,95,depth_duration_stimuli/000739_2014-06-08_18-45-58_260595134347_rgbf000068-resize_1/000739_2014-06-08_18-45-58_260595134347_rgbf000068-resize_1-target.png,125,3.534,1,2488,135,meters,jsons/VE125_randls_45.json,1361327,1783858,29,Man
95,838264,DepthScenes,duration_manipulation_targetAtFixation,jsons/VE125_randls_45.json,http://54.235.29.9/FacialAge/BNav_EC2/DepthDuration/v2_depth_duration_MTurk/v2_DepthDuration_HTML.html#61,61,1024,768,1024,768,8-21-2022,10-38-19,96,depth_duration_stimuli/000734_2014-06-08_17-39-11_260595134347_rgbf000128-resize_2/000734_2014-06-08_17-39-11_260595134347_rgbf000128-resize_2-target.png,125,4.098,1,7948,207,meters,jsons/VE125_randls_45.json,1361327,1783858,29,Man
96,838264,DepthScenes,duration_manipulation_targetAtFixation,jsons/VE125_randls_45.json,http://54.235.29.9/FacialAge/BNav_EC2/DepthDuration/v2_depth_duration_MTurk/v2_DepthDuration_HTML.html#61,61,1024,768,1024,768,8-21-2022,10-38-19,97,depth_duration_stimuli/001570_2014-06-20_17-21-09_260595134347_rgbf000135-resize_4/001570_2014-06-20_17-21-09_260595134347_rgbf000135-resize_4-target.png,125,4.467,1,2098,150,meters,jsons/VE125_randls_45.json,1361327,1783858,29,Man
97,838264,DepthScenes,duration_manipulation_targetAtFixation,jsons/VE125_randls_45.json,http://54.235.29.9/FacialAge/BNav_EC2/DepthDuration/v2_depth_duration_MTurk/v2_DepthDuration_HTML.html#61,61,1024,768,1024,768,8-21-2022,10-38-19,98,depth_duration_stimuli/001392_2014-06-19_16-07-59_260595134347_rgbf000046-resize_1/001392_2014-06-19_16-07-59_260595134347_rgbf000046-resize_1-target.png,125,4.135,1,1861,126,meters,jsons/VE125_randls_45.json,1361327,1783858,29,Man
98,838264,DepthScenes,duration_manipulation_targetAtFixation,jsons/VE125_randls_45.json,http://54.235.29.9/FacialAge/BNav_EC2/DepthDuration/v2_depth_duration_MTurk/v2_DepthDuration_HTML.html#61,61,1024,768,1024,768,8-21-2022,10-38-19,99,depth_duration_stimuli/001540_2014-06-20_17-01-05_260595134347_rgbf000086-resize_2/001540_2014-06-20_17-01-05_260595134347_rgbf000086-resize-original.jpg,125,1.459,2,2157,300,meters,jsons/VE125_randls_45.json,1361327,1783858,29,Man
99,838264,DepthScenes,duration_manipulation_targetAtFixation,jsons/VE125_randls_45.json,http://54.235.29.9/FacialAge/BNav_EC2/DepthDuration/v2_depth_duration_MTurk/v2_DepthDuration_HTML.html#61,61,1024,768,1024,768,8-21-2022,10-38-19,100,depth_duration_stimuli/000493_2014-06-09_21-01-18_260595134347_rgbf000196-resize_3/000493_2014-06-09_21-01-18_260595134347_rgbf000196-resize_3-target.png,125,3.44,2,1648,126,meters,jsons/VE125_randls_45.json,1361327,1783858,29,Man
100,838264,DepthScenes,duration_manipulation_targetAtFixation,jsons/VE125_randls_45.json,http://54.235.29.9/FacialAge/BNav_EC2/DepthDuration/v2_depth_duration_MTurk/v2_DepthDuration_HTML.html#61,61,1024,768,1024,768,8-21-2022,10-38-19,101,depth_duration_stimuli/000191_2014-05-12_17-07-38_260595134347_rgbf000199-resize_0/000191_2014-05-12_17-07-38_260595134347_rgbf000199-resize_0-target.png,125,3.7995,2,1641,160,meters,jsons/VE125_randls_45.json,1361327,1783858,29,Man
101,838264,DepthScenes,duration_manipulation_targetAtFixation,jsons/VE125_randls_45.json,http://54.235.29.9/FacialAge/BNav_EC2/DepthDuration/v2_depth_duration_MTurk/v2_DepthDuration_HTML.html#61,61,1024,768,1024,768,8-21-2022,10-38-19,102,depth_duration_stimuli/001175_2014-06-17_15-45-55_260595134347_rgbf000129-resize_4/001175_2014-06-17_15-45-55_260595134347_rgbf000129-resize_4-target.png,125,4.255,2,3940,123,meters,jsons/VE125_randls_45.json,1361327,1783858,29,Man
102,838264,DepthScenes,duration_manipulation_targetAtFixation,jsons/VE125_randls_45.json,http://54.235.29.9/FacialAge/BNav_EC2/DepthDuration/v2_depth_duration_MTurk/v2_DepthDuration_HTML.html#61,61,1024,768,1024,768,8-21-2022,10-38-19,103,depth_duration_stimuli/003490_2014-05-21_15-50-11_094959634447_rgbf000101-resize_3/003490_2014-05-21_15-50-11_094959634447_rgbf000101-resize_3-target.png,125,3.6445,0,6018,132,meters,jsons/VE125_randls_45.json,1361327,1783858,29,Man
103,838264,DepthScenes,duration_manipulation_targetAtFixation,jsons/VE125_randls_45.json,http://54.235.29.9/FacialAge/BNav_EC2/DepthDuration/v2_depth_duration_MTurk/v2_DepthDuration_HTML.html#61,61,1024,768,1024,768,8-21-2022,10-38-19,104,depth_duration_stimuli/001199_2014-06-17_16-03-48_260595134347_rgbf000077-resize_0/001199_2014-06-17_16-03-48_260595134347_rgbf000077-resize_0-target.png,125,3.4375,0,1847,127,meters,jsons/VE125_randls_45.json,1361327,1783858,29,Man
104,838264,DepthScenes,duration_manipulation_targetAtFixation,jsons/VE125_randls_45.json,http://54.235.29.9/FacialAge/BNav_EC2/DepthDuration/v2_depth_duration_MTurk/v2_DepthDuration_HTML.html#61,61,1024,768,1024,768,8-21-2022,10-38-19,105,depth_duration_stimuli/000502_2014-06-08_23-02-32_260595134347_rgbf000063-resize_4/000502_2014-06-08_23-02-32_260595134347_rgbf000063-resize_4-target.png,125,2.431,2,1953,119,meters,jsons/VE125_randls_45.json,1361327,1783858,29,Man
105,838264,DepthScenes,duration_manipulation_targetAtFixation,jsons/VE125_randls_45.json,http://54.235.29.9/FacialAge/BNav_EC2/DepthDuration/v2_depth_duration_MTurk/v2_DepthDuration_HTML.html#61,61,1024,768,1024,768,8-21-2022,10-38-19,106,depth_duration_stimuli/001016_2014-06-09_16-16-10_260595134347_rgbf000112-resize_5/001016_2014-06-09_16-16-10_260595134347_rgbf000112-resize_5-target.png,125,1.6565,2,3341,150,meters,jsons/VE125_randls_45.json,1361327,1783858,29,Man
106,838264,DepthScenes,duration_manipulation_targetAtFixation,jsons/VE125_randls_45.json,http://54.235.29.9/FacialAge/BNav_EC2/DepthDuration/v2_depth_duration_MTurk/v2_DepthDuration_HTML.html#61,61,1024,768,1024,768,8-21-2022,10-38-19,107,depth_duration_stimuli/002340_2014-06-28_20-05-46_260595134347_rgbf000113-resize_0/002340_2014-06-28_20-05-46_260595134347_rgbf000113-resize_0-target.png,125,2.4735,52,4087,141,meters,jsons/VE125_randls_45.json,1361327,1783858,29,Man
107,838264,DepthScenes,duration_manipulation_targetAtFixation,jsons/VE125_randls_45.json,http://54.235.29.9/FacialAge/BNav_EC2/DepthDuration/v2_depth_duration_MTurk/v2_DepthDuration_HTML.html#61,61,1024,768,1024,768,8-21-2022,10-38-19,108,depth_duration_stimuli/002630_2014-06-24_14-47-50_094959634447_rgbf000055-resize_1/002630_2014-06-24_14-47-50_094959634447_rgbf000055-resize_1-target.png,125,3.0095,1,2181,279,meters,jsons/VE125_randls_45.json,1361327,1783858,29,Man
108,838264,DepthScenes,duration_manipulation_targetAtFixation,jsons/VE125_randls_45.json,http://54.235.29.9/FacialAge/BNav_EC2/DepthDuration/v2_depth_duration_MTurk/v2_DepthDuration_HTML.html#61,61,1024,768,1024,768,8-21-2022,10-38-19,109,depth_duration_stimuli/002758_2014-06-22_19-11-20_094959634447_rgbf000128-resize_1/002758_2014-06-22_19-11-20_094959634447_rgbf000128-resize_1-target.png,125,2.555,1,2569,124,meters,jsons/VE125_randls_45.json,1361327,1783858,29,Man
109,838264,DepthScenes,duration_manipulation_targetAtFixation,jsons/VE125_randls_45.json,http://54.235.29.9/FacialAge/BNav_EC2/DepthDuration/v2_depth_duration_MTurk/v2_DepthDuration_HTML.html#61,61,1024,768,1024,768,8-21-2022,10-38-19,110,depth_duration_stimuli/000917_2014-06-09_22-45-29_260595134347_rgbf000149-resize_3/000917_2014-06-09_22-45-29_260595134347_rgbf000149-resize_3-target.png,125,4.1865,1,8878,422,meters,jsons/VE125_randls_45.json,1361327,1783858,29,Man
110,838264,DepthScenes,duration_manipulation_targetAtFixation,jsons/VE125_randls_45.json,http://54.235.29.9/FacialAge/BNav_EC2/DepthDuration/v2_depth_duration_MTurk/v2_DepthDuration_HTML.html#61,61,1024,768,1024,768,8-21-2022,10-38-19,111,depth_duration_stimuli/002323_2014-06-28_20-01-54_260595134347_rgbf000051-resize_4/002323_2014-06-28_20-01-54_260595134347_rgbf000051-resize_4-target.png,125,3.7310000000000003,1,7092,130,meters,jsons/VE125_randls_45.json,1361327,1783858,29,Man
111,838264,DepthScenes,duration_manipulation_targetAtFixation,jsons/VE125_randls_45.json,http://54.235.29.9/FacialAge/BNav_EC2/DepthDuration/v2_depth_duration_MTurk/v2_DepthDuration_HTML.html#61,61,1024,768,1024,768,8-21-2022,10-38-19,112,depth_duration_stimuli/001055_2014-06-08_18-45-35_260595134347_rgbf000111-resize_4/001055_2014-06-08_18-45-35_260595134347_rgbf000111-resize_4-target.png,125,2.4290000000000003,1,9820,123,meters,jsons/VE125_randls_45.json,1361327,1783858,29,Man
112,838264,DepthScenes,duration_manipulation_targetAtFixation,jsons/VE125_randls_45.json,http://54.235.29.9/FacialAge/BNav_EC2/DepthDuration/v2_depth_duration_MTurk/v2_DepthDuration_HTML.html#61,61,1024,768,1024,768,8-21-2022,10-38-19,113,depth_duration_stimuli/000549_2014-06-08_22-10-24_260595134347_rgbf000247-resize_3/000549_2014-06-08_22-10-24_260595134347_rgbf000247-resize_3-target.png,125,1.841,2,3114,126,meters,jsons/VE125_randls_45.json,1361327,1783858,29,Man
113,838264,DepthScenes,duration_manipulation_targetAtFixation,jsons/VE125_randls_45.json,http://54.235.29.9/FacialAge/BNav_EC2/DepthDuration/v2_depth_duration_MTurk/v2_DepthDuration_HTML.html#61,61,1024,768,1024,768,8-21-2022,10-38-19,114,depth_duration_stimuli/000469_2014-06-09_19-42-10_260595134347_rgbf000081-resize_1/000469_2014-06-09_19-42-10_260595134347_rgbf000081-resize_1-target.png,125,1.652,1,14510,123,meters,jsons/VE125_randls_45.json,1361327,1783858,29,Man
114,838264,DepthScenes,duration_manipulation_targetAtFixation,jsons/VE125_randls_45.json,http://54.235.29.9/FacialAge/BNav_EC2/DepthDuration/v2_depth_duration_MTurk/v2_DepthDuration_HTML.html#61,61,1024,768,1024,768,8-21-2022,10-38-19,115,depth_duration_stimuli/000483_2014-06-09_20-41-45_260595134347_rgbf000116-resize_4/000483_2014-06-09_20-41-45_260595134347_rgbf000116-resize_4-target.png,125,1.337,1,2173,122,meters,jsons/VE125_randls_45.json,1361327,1783858,29,Man
115,838264,DepthScenes,duration_manipulation_targetAtFixation,jsons/VE125_randls_45.json,http://54.235.29.9/FacialAge/BNav_EC2/DepthDuration/v2_depth_duration_MTurk/v2_DepthDuration_HTML.html#61,61,1024,768,1024,768,8-21-2022,10-38-19,116,depth_duration_stimuli/001170_2014-06-17_15-43-44_260595134347_rgbf000096-resize_6/001170_2014-06-17_15-43-44_260595134347_rgbf000096-resize-original.jpg,125,1.1909999999999998,2,2583,263,meters,jsons/VE125_randls_45.json,1361327,1783858,29,Man
116,838264,DepthScenes,duration_manipulation_targetAtFixation,jsons/VE125_randls_45.json,http://54.235.29.9/FacialAge/BNav_EC2/DepthDuration/v2_depth_duration_MTurk/v2_DepthDuration_HTML.html#61,61,1024,768,1024,768,8-21-2022,10-38-19,117,depth_duration_stimuli/002964_2014-06-08_17-46-11_094959634447_rgbf000091-resize_4/002964_2014-06-08_17-46-11_094959634447_rgbf000091-resize_4-target.png,125,1.6909999999999998,1,2419,129,meters,jsons/VE125_randls_45.json,1361327,1783858,29,Man
117,838264,DepthScenes,duration_manipulation_targetAtFixation,jsons/VE125_randls_45.json,http://54.235.29.9/FacialAge/BNav_EC2/DepthDuration/v2_depth_duration_MTurk/v2_DepthDuration_HTML.html#61,61,1024,768,1024,768,8-21-2022,10-38-19,118,depth_duration_stimuli/002136_2014-06-25_21-18-03_260595134347_rgbf000109-resize_3/002136_2014-06-25_21-18-03_260595134347_rgbf000109-resize_3-target.png,125,1.9569999999999999,1,3360,470,meters,jsons/VE125_randls_45.json,1361327,1783858,29,Man
118,838264,DepthScenes,duration_manipulation_targetAtFixation,jsons/VE125_randls_45.json,http://54.235.29.9/FacialAge/BNav_EC2/DepthDuration/v2_depth_duration_MTurk/v2_DepthDuration_HTML.html#61,61,1024,768,1024,768,8-21-2022,10-38-19,119,depth_duration_stimuli/001056_2014-06-08_18-46-44_260595134347_rgbf000068-resize_0/001056_2014-06-08_18-46-44_260595134347_rgbf000068-resize_0-target.png,125,2.6625,1,2386,125,meters,jsons/VE125_randls_45.json,1361327,1783858,29,Man
119,838264,DepthScenes,duration_manipulation_targetAtFixation,jsons/VE125_randls_45.json,http://54.235.29.9/FacialAge/BNav_EC2/DepthDuration/v2_depth_duration_MTurk/v2_DepthDuration_HTML.html#61,61,1024,768,1024,768,8-21-2022,10-38-19,120,depth_duration_stimuli/002199_2014-06-28_18-33-56_260595134347_rgbf000074-resize_0/002199_2014-06-28_18-33-56_260595134347_rgbf000074-resize_0-target.png,125,1.996,1,2107,124,meters,jsons/VE125_randls_45.json,1361327,1783858,29,Man
120,838264,DepthScenes,duration_manipulation_targetAtFixation,jsons/VE125_randls_45.json,http://54.235.29.9/FacialAge/BNav_EC2/DepthDuration/v2_depth_duration_MTurk/v2_DepthDuration_HTML.html#61,61,1024,768,1024,768,8-21-2022,10-38-19,121,depth_duration_stimuli/001167_2014-06-17_15-38-07_260595134347_rgbf000108-resize_0/001167_2014-06-17_15-38-07_260595134347_rgbf000108-resize_0-target.png,125,1.8505,1,1905,125,meters,jsons/VE125_randls_45.json,1361327,1783858,29,Man
121,838264,DepthScenes,duration_manipulation_targetAtFixation,jsons/VE125_randls_45.json,http://54.235.29.9/FacialAge/BNav_EC2/DepthDuration/v2_depth_duration_MTurk/v2_DepthDuration_HTML.html#61,61,1024,768,1024,768,8-21-2022,10-38-19,122,depth_duration_stimuli/003587_2014-05-23_16-48-02_094959634447_rgbf002384-resize_2/003587_2014-05-23_16-48-02_094959634447_rgbf002384-resize_2-target.png,125,1.357,1,1563,124,meters,jsons/VE125_randls_45.json,1361327,1783858,29,Man
122,838264,DepthScenes,duration_manipulation_targetAtFixation,jsons/VE125_randls_45.json,http://54.235.29.9/FacialAge/BNav_EC2/DepthDuration/v2_depth_duration_MTurk/v2_DepthDuration_HTML.html#61,61,1024,768,1024,768,8-21-2022,10-38-19,123,depth_duration_stimuli/002279_2014-06-28_18-55-32_260595134347_rgbf000040-resize_5/002279_2014-06-28_18-55-32_260595134347_rgbf000040-resize_5-target.png,125,1.5043333333333,1,2081,133,meters,jsons/VE125_randls_45.json,1361327,1783858,29,Man
123,838264,DepthScenes,duration_manipulation_targetAtFixation,jsons/VE125_randls_45.json,http://54.235.29.9/FacialAge/BNav_EC2/DepthDuration/v2_depth_duration_MTurk/v2_DepthDuration_HTML.html#61,61,1024,768,1024,768,8-21-2022,10-38-19,124,depth_duration_stimuli/000635_2014-06-08_16-38-42_260595134347_rgbf000106-resize_1/000635_2014-06-08_16-38-42_260595134347_rgbf000106-resize_1-target.png,125,2.074,1,1754,111,meters,jsons/VE125_randls_45.json,1361327,1783858,29,Man
124,838264,DepthScenes,duration_manipulation_targetAtFixation,jsons/VE125_randls_45.json,http://54.235.29.9/FacialAge/BNav_EC2/DepthDuration/v2_depth_duration_MTurk/v2_DepthDuration_HTML.html#61,61,1024,768,1024,768,8-21-2022,10-38-19,125,depth_duration_stimuli/002153_2014-06-25_21-27-18_260595134347_rgbf000038-resize_5/002153_2014-06-25_21-27-18_260595134347_rgbf000038-resize_5-target.png,125,2.505,1,1585,124,meters,jsons/VE125_randls_45.json,1361327,1783858,29,Man
125,838264,DepthScenes,duration_manipulation_targetAtFixation,jsons/VE125_randls_45.json,http://54.235.29.9/FacialAge/BNav_EC2/DepthDuration/v2_depth_duration_MTurk/v2_DepthDuration_HTML.html#61,61,1024,768,1024,768,8-21-2022,10-38-19,126,depth_duration_stimuli/002660_2014-06-13_15-44-18_094959634447_rgbf001878-resize_2/002660_2014-06-13_15-44-18_094959634447_rgbf001878-resize_2-target.png,125,3.576,1,1860,118,meters,jsons/VE125_randls_45.json,1361327,1783858,29,Man
126,838264,DepthScenes,duration_manipulation_targetAtFixation,jsons/VE125_randls_45.json,http://54.235.29.9/FacialAge/BNav_EC2/DepthDuration/v2_depth_duration_MTurk/v2_DepthDuration_HTML.html#61,61,1024,768,1024,768,8-21-2022,10-38-19,127,depth_duration_stimuli/000447_2014-06-08_16-15-46_260595134347_rgbf000130-resize_1/000447_2014-06-08_16-15-46_260595134347_rgbf000130-resize_1-target.png,125,4.479,1,1658,125,meters,jsons/VE125_randls_45.json,1361327,1783858,29,Man
127,838264,DepthScenes,duration_manipulation_targetAtFixation,jsons/VE125_randls_45.json,http://54.235.29.9/FacialAge/BNav_EC2/DepthDuration/v2_depth_duration_MTurk/v2_DepthDuration_HTML.html#61,61,1024,768,1024,768,8-21-2022,10-38-19,128,depth_duration_stimuli/001447_2014-06-19_17-00-32_260595134347_rgbf000082-resize_5/001447_2014-06-19_17-00-32_260595134347_rgbf000082-resize_5-target.png,125,4.13775,1,1675,128,meters,jsons/VE125_randls_45.json,1361327,1783858,29,Man
128,838264,DepthScenes,duration_manipulation_targetAtFixation,jsons/VE125_randls_45.json,http://54.235.29.9/FacialAge/BNav_EC2/DepthDuration/v2_depth_duration_MTurk/v2_DepthDuration_HTML.html#61,61,1024,768,1024,768,8-21-2022,10-38-19,129,depth_duration_stimuli/001092_2014-06-15_17-34-58_260595134347_rgbf000171-resize_3/001092_2014-06-15_17-34-58_260595134347_rgbf000171-resize_3-target.png,125,2.6935,1,1622,133,meters,jsons/VE125_randls_45.json,1361327,1783858,29,Man
129,838264,DepthScenes,duration_manipulation_targetAtFixation,jsons/VE125_randls_45.json,http://54.235.29.9/FacialAge/BNav_EC2/DepthDuration/v2_depth_duration_MTurk/v2_DepthDuration_HTML.html#61,61,1024,768,1024,768,8-21-2022,10-38-19,130,depth_duration_stimuli/002545_2014-06-24_13-38-53_094959634447_rgbf000080-resize_4/002545_2014-06-24_13-38-53_094959634447_rgbf000080-resize_4-target.png,125,1.9205,1,1374,126,meters,jsons/VE125_randls_45.json,1361327,1783858,29,Man
130,838264,DepthScenes,duration_manipulation_targetAtFixation,jsons/VE125_randls_45.json,http://54.235.29.9/FacialAge/BNav_EC2/DepthDuration/v2_depth_duration_MTurk/v2_DepthDuration_HTML.html#61,61,1024,768,1024,768,8-21-2022,10-38-19,131,depth_duration_stimuli/000692_2014-06-08_13-09-42_260595134347_rgbf000199-resize_2/000692_2014-06-08_13-09-42_260595134347_rgbf000199-resize_2-target.png,125,3.661,1,1650,125,meters,jsons/VE125_randls_45.json,1361327,1783858,29,Man
131,838264,DepthScenes,duration_manipulation_targetAtFixation,jsons/VE125_randls_45.json,http://54.235.29.9/FacialAge/BNav_EC2/DepthDuration/v2_depth_duration_MTurk/v2_DepthDuration_HTML.html#61,61,1024,768,1024,768,8-21-2022,10-38-19,132,depth_duration_stimuli/001094_2014-06-15_17-36-00_260595134347_rgbf000205-resize_0/001094_2014-06-15_17-36-00_260595134347_rgbf000205-resize_0-target.png,125,4.2175,1,2115,125,meters,jsons/VE125_randls_45.json,1361327,1783858,29,Man
132,838264,DepthScenes,duration_manipulation_targetAtFixation,jsons/VE125_randls_45.json,http://54.235.29.9/FacialAge/BNav_EC2/DepthDuration/v2_depth_duration_MTurk/v2_DepthDuration_HTML.html#61,61,1024,768,1024,768,8-21-2022,10-38-19,133,depth_duration_stimuli/000878_2014-06-08_22-52-45_260595134347_rgbf000045-resize_2/000878_2014-06-08_22-52-45_260595134347_rgbf000045-resize_2-target.png,125,2.092,1,4488,125,meters,jsons/VE125_randls_45.json,1361327,1783858,29,Man
133,838264,DepthScenes,duration_manipulation_targetAtFixation,jsons/VE125_randls_45.json,http://54.235.29.9/FacialAge/BNav_EC2/DepthDuration/v2_depth_duration_MTurk/v2_DepthDuration_HTML.html#61,61,1024,768,1024,768,8-21-2022,10-38-19,134,depth_duration_stimuli/002953_2014-06-08_17-32-18_094959634447_rgbf000059-resize_5/002953_2014-06-08_17-32-18_094959634447_rgbf000059-resize_5-target.png,125,1.551,1,3802,126,meters,jsons/VE125_randls_45.json,1361327,1783858,29,Man
134,838264,DepthScenes,duration_manipulation_targetAtFixation,jsons/VE125_randls_45.json,http://54.235.29.9/FacialAge/BNav_EC2/DepthDuration/v2_depth_duration_MTurk/v2_DepthDuration_HTML.html#61,61,1024,768,1024,768,8-21-2022,10-38-19,135,depth_duration_stimuli/002072_2014-06-24_21-48-06_260595134347_rgbf000115-resize_0/002072_2014-06-24_21-48-06_260595134347_rgbf000115-resize-original.jpg,125,4.702,1,1992,240,meters,jsons/VE125_randls_45.json,1361327,1783858,29,Man
135,838264,DepthScenes,duration_manipulation_targetAtFixation,jsons/VE125_randls_45.json,http://54.235.29.9/FacialAge/BNav_EC2/DepthDuration/v2_depth_duration_MTurk/v2_DepthDuration_HTML.html#61,61,1024,768,1024,768,8-21-2022,10-38-19,136,depth_duration_stimuli/002905_2014-06-03_18-04-43_094959634447_rgbf000151-resize_2/002905_2014-06-03_18-04-43_094959634447_rgbf000151-resize_2-target.png,125,2.0295,1,1706,123,meters,jsons/VE125_randls_45.json,1361327,1783858,29,Man
136,838264,DepthScenes,duration_manipulation_targetAtFixation,jsons/VE125_randls_45.json,http://54.235.29.9/FacialAge/BNav_EC2/DepthDuration/v2_depth_duration_MTurk/v2_DepthDuration_HTML.html#61,61,1024,768,1024,768,8-21-2022,10-38-19,137,depth_duration_stimuli/003423_2014-05-21_10-23-26_094959634447_rgbf002665-resize_2/003423_2014-05-21_10-23-26_094959634447_rgbf002665-resize_2-target.png,125,3.2575,1,1427,80,meters,jsons/VE125_randls_45.json,1361327,1783858,29,Man
137,838264,DepthScenes,duration_manipulation_targetAtFixation,jsons/VE125_randls_45.json,http://54.235.29.9/FacialAge/BNav_EC2/DepthDuration/v2_depth_duration_MTurk/v2_DepthDuration_HTML.html#61,61,1024,768,1024,768,8-21-2022,10-38-19,138,depth_duration_stimuli/001029_2014-06-08_13-17-57_260595134347_rgbf000065-resize_1/001029_2014-06-08_13-17-57_260595134347_rgbf000065-resize_1-target.png,125,3.0835,1,4534,127,meters,jsons/VE125_randls_45.json,1361327,1783858,29,Man
138,838264,DepthScenes,duration_manipulation_targetAtFixation,jsons/VE125_randls_45.json,http://54.235.29.9/FacialAge/BNav_EC2/DepthDuration/v2_depth_duration_MTurk/v2_DepthDuration_HTML.html#61,61,1024,768,1024,768,8-21-2022,10-38-19,139,depth_duration_stimuli/000677_2014-06-08_23-10-32_260595134347_rgbf000158-resize_6/000677_2014-06-08_23-10-32_260595134347_rgbf000158-resize_6-target.png,125,3.556,1,2118,125,meters,jsons/VE125_randls_45.json,1361327,1783858,29,Man
139,838264,DepthScenes,duration_manipulation_targetAtFixation,jsons/VE125_randls_45.json,http://54.235.29.9/FacialAge/BNav_EC2/DepthDuration/v2_depth_duration_MTurk/v2_DepthDuration_HTML.html#61,61,1024,768,1024,768,8-21-2022,10-38-19,140,depth_duration_stimuli/002989_2014-06-15_12-25-03_094959634447_rgbf000150-resize_3/002989_2014-06-15_12-25-03_094959634447_rgbf000150-resize_3-target.png,125,4.1975,12,2234,125,meters,jsons/VE125_randls_45.json,1361327,1783858,29,Man
140,838264,DepthScenes,duration_manipulation_targetAtFixation,jsons/VE125_randls_45.json,http://54.235.29.9/FacialAge/BNav_EC2/DepthDuration/v2_depth_duration_MTurk/v2_DepthDuration_HTML.html#61,61,1024,768,1024,768,8-21-2022,10-38-19,141,depth_duration_stimuli/000866_2014-06-09_20-45-42_260595134347_rgbf000139-resize_1/000866_2014-06-09_20-45-42_260595134347_rgbf000139-resize_1-target.png,125,3.2155,1,1795,125,meters,jsons/VE125_randls_45.json,1361327,1783858,29,Man
141,838264,DepthScenes,duration_manipulation_targetAtFixation,jsons/VE125_randls_45.json,http://54.235.29.9/FacialAge/BNav_EC2/DepthDuration/v2_depth_duration_MTurk/v2_DepthDuration_HTML.html#61,61,1024,768,1024,768,8-21-2022,10-38-19,142,depth_duration_stimuli/001150_2014-06-17_15-27-34_260595134347_rgbf000108-resize_2/001150_2014-06-17_15-27-34_260595134347_rgbf000108-resize_2-target.png,125,4.0325,1,1419,120,meters,jsons/VE125_randls_45.json,1361327,1783858,29,Man
142,838264,DepthScenes,duration_manipulation_targetAtFixation,jsons/VE125_randls_45.json,http://54.235.29.9/FacialAge/BNav_EC2/DepthDuration/v2_depth_duration_MTurk/v2_DepthDuration_HTML.html#61,61,1024,768,1024,768,8-21-2022,10-38-19,143,depth_duration_stimuli/000665_2014-06-09_20-42-35_260595134347_rgbf000110-resize_1/000665_2014-06-09_20-42-35_260595134347_rgbf000110-resize_1-target.png,125,3.057,1,2725,130,meters,jsons/VE125_randls_45.json,1361327,1783858,29,Man
143,838264,DepthScenes,duration_manipulation_targetAtFixation,jsons/VE125_randls_45.json,http://54.235.29.9/FacialAge/BNav_EC2/DepthDuration/v2_depth_duration_MTurk/v2_DepthDuration_HTML.html#61,61,1024,768,1024,768,8-21-2022,10-38-19,144,depth_duration_stimuli/001066_2014-06-08_22-03-20_260595134347_rgbf000066-resize_4/001066_2014-06-08_22-03-20_260595134347_rgbf000066-resize_4-target.png,125,4.2330000000000005,1,1727,139,meters,jsons/VE125_randls_45.json,1361327,1783858,29,Man
144,838264,DepthScenes,duration_manipulation_targetAtFixation,jsons/VE125_randls_45.json,http://54.235.29.9/FacialAge/BNav_EC2/DepthDuration/v2_depth_duration_MTurk/v2_DepthDuration_HTML.html#61,61,1024,768,1024,768,8-21-2022,10-38-19,145,depth_duration_stimuli/000742_2014-06-08_18-48-09_260595134347_rgbf000164-resize_4/000742_2014-06-08_18-48-09_260595134347_rgbf000164-resize_4-target.png,125,4.632,1,2369,127,meters,jsons/VE125_randls_45.json,1361327,1783858,29,Man
145,838264,DepthScenes,duration_manipulation_targetAtFixation,jsons/VE125_randls_45.json,http://54.235.29.9/FacialAge/BNav_EC2/DepthDuration/v2_depth_duration_MTurk/v2_DepthDuration_HTML.html#61,61,1024,768,1024,768,8-21-2022,10-38-19,146,depth_duration_stimuli/001498_2014-06-19_17-45-14_260595134347_rgbf000129-resize_4/001498_2014-06-19_17-45-14_260595134347_rgbf000129-resize-original.jpg,125,1.4075,1,1812,142,meters,jsons/VE125_randls_45.json,1361327,1783858,29,Man
146,838264,DepthScenes,duration_manipulation_targetAtFixation,jsons/VE125_randls_45.json,http://54.235.29.9/FacialAge/BNav_EC2/DepthDuration/v2_depth_duration_MTurk/v2_DepthDuration_HTML.html#61,61,1024,768,1024,768,8-21-2022,10-38-19,147,depth_duration_stimuli/000506_2014-06-08_23-21-00_260595134347_rgbf000070-resize_7/000506_2014-06-08_23-21-00_260595134347_rgbf000070-resize_7-target.png,125,4.0585,1,3338,129,meters,jsons/VE125_randls_45.json,1361327,1783858,29,Man
147,838264,DepthScenes,duration_manipulation_targetAtFixation,jsons/VE125_randls_45.json,http://54.235.29.9/FacialAge/BNav_EC2/DepthDuration/v2_depth_duration_MTurk/v2_DepthDuration_HTML.html#61,61,1024,768,1024,768,8-21-2022,10-38-19,148,depth_duration_stimuli/003079_2014-06-15_15-18-20_094959634447_rgbf000152-resize_8/003079_2014-06-15_15-18-20_094959634447_rgbf000152-resize_8-target.png,125,2.8775,1,2149,124,meters,jsons/VE125_randls_45.json,1361327,1783858,29,Man
148,838264,DepthScenes,duration_manipulation_targetAtFixation,jsons/VE125_randls_45.json,http://54.235.29.9/FacialAge/BNav_EC2/DepthDuration/v2_depth_duration_MTurk/v2_DepthDuration_HTML.html#61,61,1024,768,1024,768,8-21-2022,10-38-19,149,depth_duration_stimuli/001164_2014-06-17_15-35-46_260595134347_rgbf000085-resize_3/001164_2014-06-17_15-35-46_260595134347_rgbf000085-resize_3-target.png,125,2.354,1,1912,156,meters,jsons/VE125_randls_45.json,1361327,1783858,29,Man
149,838264,DepthScenes,duration_manipulation_targetAtFixation,jsons/VE125_randls_45.json,http://54.235.29.9/FacialAge/BNav_EC2/DepthDuration/v2_depth_duration_MTurk/v2_DepthDuration_HTML.html#61,61,1024,768,1024,768,8-21-2022,10-38-19,150,depth_duration_stimuli/001136_2014-06-17_15-19-41_260595134347_rgbf000076-resize_3/001136_2014-06-17_15-19-41_260595134347_rgbf000076-resize_3-target.png,125,1.8655,1,2052,148,meters,jsons/VE125_randls_45.json,1361327,1783858,29,Man
150,838264,DepthScenes,duration_manipulation_targetAtFixation,jsons/VE125_randls_45.json,http://54.235.29.9/FacialAge/BNav_EC2/DepthDuration/v2_depth_duration_MTurk/v2_DepthDuration_HTML.html#61,61,1024,768,1024,768,8-21-2022,10-38-19,151,depth_duration_stimuli/000368_2014-06-09_15-53-01_260595134347_rgbf000155-resize_2/000368_2014-06-09_15-53-01_260595134347_rgbf000155-resize_2-target.png,125,2.4859999999999998,1,1951,158,meters,jsons/VE125_randls_45.json,1361327,1783858,29,Man
151,838264,DepthScenes,duration_manipulation_targetAtFixation,jsons/VE125_randls_45.json,http://54.235.29.9/FacialAge/BNav_EC2/DepthDuration/v2_depth_duration_MTurk/v2_DepthDuration_HTML.html#61,61,1024,768,1024,768,8-21-2022,10-38-19,152,depth_duration_stimuli/002678_2014-06-13_16-15-32_094959634447_rgbf000151-resize_6/002678_2014-06-13_16-15-32_094959634447_rgbf000151-resize_6-target.png,125,2.1830000000000003,1,1688,133,meters,jsons/VE125_randls_45.json,1361327,1783858,29,Man
152,838264,DepthScenes,duration_manipulation_targetAtFixation,jsons/VE125_randls_45.json,http://54.235.29.9/FacialAge/BNav_EC2/DepthDuration/v2_depth_duration_MTurk/v2_DepthDuration_HTML.html#61,61,1024,768,1024,768,8-21-2022,10-38-19,153,depth_duration_stimuli/003621_2014-05-23_18-06-08_094959634447_rgbf000101-resize_1/003621_2014-05-23_18-06-08_094959634447_rgbf000101-resize_1-target.png,125,3.9835,1,1353,127,meters,jsons/VE125_randls_45.json,1361327,1783858,29,Man
153,838264,DepthScenes,duration_manipulation_targetAtFixation,jsons/VE125_randls_45.json,http://54.235.29.9/FacialAge/BNav_EC2/DepthDuration/v2_depth_duration_MTurk/v2_DepthDuration_HTML.html#61,61,1024,768,1024,768,8-21-2022,10-38-19,154,depth_duration_stimuli/001584_2014-06-20_11-07-43_260595134347_rgbf000002-resize_1/001584_2014-06-20_11-07-43_260595134347_rgbf000002-resize_1-target.png,125,3.53,1,2832,136,meters,jsons/VE125_randls_45.json,1361327,1783858,29,Man
154,838264,DepthScenes,duration_manipulation_targetAtFixation,jsons/VE125_randls_45.json,http://54.235.29.9/FacialAge/BNav_EC2/DepthDuration/v2_depth_duration_MTurk/v2_DepthDuration_HTML.html#61,61,1024,768,1024,768,8-21-2022,10-38-19,155,depth_duration_stimuli/000009_2014-05-26_14-32-05_260595134347_rgbf000034-resize_3/000009_2014-05-26_14-32-05_260595134347_rgbf000034-resize_3-target.png,125,3.8715,1,1294,121,meters,jsons/VE125_randls_45.json,1361327,1783858,29,Man
155,838264,DepthScenes,duration_manipulation_targetAtFixation,jsons/VE125_randls_45.json,http://54.235.29.9/FacialAge/BNav_EC2/DepthDuration/v2_depth_duration_MTurk/v2_DepthDuration_HTML.html#61,61,1024,768,1024,768,8-21-2022,10-38-19,156,depth_duration_stimuli/001828_2014-06-26_21-40-03_260595134347_rgbf000024-resize_0/001828_2014-06-26_21-40-03_260595134347_rgbf000024-resize_0-target.png,125,4.8260000000000005,1,2762,140,meters,jsons/VE125_randls_45.json,1361327,1783858,29,Man
156,838264,DepthScenes,duration_manipulation_targetAtFixation,jsons/VE125_randls_45.json,http://54.235.29.9/FacialAge/BNav_EC2/DepthDuration/v2_depth_duration_MTurk/v2_DepthDuration_HTML.html#61,61,1024,768,1024,768,8-21-2022,10-38-19,157,depth_duration_stimuli/002445_2014-06-28_20-32-16_260595134347_rgbf000029-resize_4/002445_2014-06-28_20-32-16_260595134347_rgbf000029-resize_4-target.png,125,2.5315,1,1619,127,meters,jsons/VE125_randls_45.json,1361327,1783858,29,Man
157,838264,DepthScenes,duration_manipulation_targetAtFixation,jsons/VE125_randls_45.json,http://54.235.29.9/FacialAge/BNav_EC2/DepthDuration/v2_depth_duration_MTurk/v2_DepthDuration_HTML.html#61,61,1024,768,1024,768,8-21-2022,10-38-19,158,depth_duration_stimuli/000780_2014-06-08_22-28-29_260595134347_rgbf000126-resize_1/000780_2014-06-08_22-28-29_260595134347_rgbf000126-resize_1-target.png,125,3.3825,1,1757,199,meters,jsons/VE125_randls_45.json,1361327,1783858,29,Man
158,838264,DepthScenes,duration_manipulation_targetAtFixation,jsons/VE125_randls_45.json,http://54.235.29.9/FacialAge/BNav_EC2/DepthDuration/v2_depth_duration_MTurk/v2_DepthDuration_HTML.html#61,61,1024,768,1024,768,8-21-2022,10-38-19,159,depth_duration_stimuli/002748_2014-06-22_19-07-22_094959634447_rgbf000078-resize_1/002748_2014-06-22_19-07-22_094959634447_rgbf000078-resize_1-target.png,125,4.6705,1,3472,126,meters,jsons/VE125_randls_45.json,1361327,1783858,29,Man
159,838264,DepthScenes,duration_manipulation_targetAtFixation,jsons/VE125_randls_45.json,http://54.235.29.9/FacialAge/BNav_EC2/DepthDuration/v2_depth_duration_MTurk/v2_DepthDuration_HTML.html#61,61,1024,768,1024,768,8-21-2022,10-38-19,160,depth_duration_stimuli/002995_2014-06-15_12-31-26_094959634447_rgbf000150-resize_1/002995_2014-06-15_12-31-26_094959634447_rgbf000150-resize_1-target.png,125,3.8360000000000003,1,1662,137,meters,jsons/VE125_randls_45.json,1361327,1783858,29,Man
160,838264,DepthScenes,duration_manipulation_targetAtFixation,jsons/VE125_randls_45.json,http://54.235.29.9/FacialAge/BNav_EC2/DepthDuration/v2_depth_duration_MTurk/v2_DepthDuration_HTML.html#61,61,1024,768,1024,768,8-21-2022,10-38-19,161,depth_duration_stimuli/002272_2014-06-28_18-53-56_260595134347_rgbf000067-resize_2/002272_2014-06-28_18-53-56_260595134347_rgbf000067-resize_2-target.png,125,1.138,1,5029,126,meters,jsons/VE125_randls_45.json,1361327,1783858,29,Man
161,838264,DepthScenes,duration_manipulation_targetAtFixation,jsons/VE125_randls_45.json,http://54.235.29.9/FacialAge/BNav_EC2/DepthDuration/v2_depth_duration_MTurk/v2_DepthDuration_HTML.html#61,61,1024,768,1024,768,8-21-2022,10-38-19,162,depth_duration_stimuli/001571_2014-06-20_17-21-32_260595134347_rgbf000089-resize_1/001571_2014-06-20_17-21-32_260595134347_rgbf000089-resize_1-target.png,125,1.86,1,2035,139,meters,jsons/VE125_randls_45.json,1361327,1783858,29,Man
162,838264,DepthScenes,duration_manipulation_targetAtFixation,jsons/VE125_randls_45.json,http://54.235.29.9/FacialAge/BNav_EC2/DepthDuration/v2_depth_duration_MTurk/v2_DepthDuration_HTML.html#61,61,1024,768,1024,768,8-21-2022,10-38-19,163,depth_duration_stimuli/003070_2014-06-15_14-58-27_094959634447_rgbf000150-resize_3/003070_2014-06-15_14-58-27_094959634447_rgbf000150-resize_3-target.png,125,2.9415,1,4448,127,meters,jsons/VE125_randls_45.json,1361327,1783858,29,Man
163,838264,DepthScenes,duration_manipulation_targetAtFixation,jsons/VE125_randls_45.json,http://54.235.29.9/FacialAge/BNav_EC2/DepthDuration/v2_depth_duration_MTurk/v2_DepthDuration_HTML.html#61,61,1024,768,1024,768,8-21-2022,10-38-19,164,depth_duration_stimuli/000943_2014-06-09_19-31-07_260595134347_rgbf000128-resize_1/000943_2014-06-09_19-31-07_260595134347_rgbf000128-resize_1-target.png,125,1.9765,1,2093,123,meters,jsons/VE125_randls_45.json,1361327,1783858,29,Man
