,subjID,experimentName,versionName,sequenceName,url,selected_row,windowWidth,windowHeight,screenWidth,screenHeight,startDate,startTime,trial,stimulus,duration,actual_depth,depth_estimate,trial_RT,log_sceneDuration,unitSelection,seq_filepath,experimentTime,totalTime,age,gender
0,841555,DepthScenes,duration_manipulation_targetAtFixation,jsons/v1_VE1000_randls_9_rotated.json,http://54.235.29.9/FacialAge/BNav_EC2/DepthDuration/v2_depth_duration_MTurk/v2_DepthDuration_HTML.html#21,21,1821,1024,1366,768,8-22-2022,5-12-49,1,depth_duration_stimuli/003490_2014-05-21_15-50-11_094959634447_rgbf000101-resize_3/003490_2014-05-21_15-50-11_094959634447_rgbf000101-resize_3-target.png,1000,3.6445,5,5001,998,meters,jsons/v1_VE1000_randls_9_rotated.json,1051571,1495218,30,Woman
1,841555,DepthScenes,duration_manipulation_targetAtFixation,jsons/v1_VE1000_randls_9_rotated.json,http://54.235.29.9/FacialAge/BNav_EC2/DepthDuration/v2_depth_duration_MTurk/v2_DepthDuration_HTML.html#21,21,1821,1024,1366,768,8-22-2022,5-12-49,2,depth_duration_stimuli/001175_2014-06-17_15-45-55_260595134347_rgbf000129-resize_4/001175_2014-06-17_15-45-55_260595134347_rgbf000129-resize_4-target.png,1000,4.255,2,3032,1256,meters,jsons/v1_VE1000_randls_9_rotated.json,1051571,1495218,30,Woman
2,841555,DepthScenes,duration_manipulation_targetAtFixation,jsons/v1_VE1000_randls_9_rotated.json,http://54.235.29.9/FacialAge/BNav_EC2/DepthDuration/v2_depth_duration_MTurk/v2_DepthDuration_HTML.html#21,21,1821,1024,1366,768,8-22-2022,5-12-49,3,depth_duration_stimuli/002344_2014-06-28_20-06-29_260595134347_rgbf000030-resize_1/002344_2014-06-28_20-06-29_260595134347_rgbf000030-resize_1-target.png,1000,1.5795,2,4391,1003,meters,jsons/v1_VE1000_randls_9_rotated.json,1051571,1495218,30,Woman
3,841555,DepthScenes,duration_manipulation_targetAtFixation,jsons/v1_VE1000_randls_9_rotated.json,http://54.235.29.9/FacialAge/BNav_EC2/DepthDuration/v2_depth_duration_MTurk/v2_DepthDuration_HTML.html#21,21,1821,1024,1366,768,8-22-2022,5-12-49,4,depth_duration_stimuli/002725_2014-06-22_11-47-51_094959634447_rgbf000070-resize_1/002725_2014-06-22_11-47-51_094959634447_rgbf000070-resize_1-target.png,1000,2.195,6,3856,1105,meters,jsons/v1_VE1000_randls_9_rotated.json,1051571,1495218,30,Woman
4,841555,DepthScenes,duration_manipulation_targetAtFixation,jsons/v1_VE1000_randls_9_rotated.json,http://54.235.29.9/FacialAge/BNav_EC2/DepthDuration/v2_depth_duration_MTurk/v2_DepthDuration_HTML.html#21,21,1821,1024,1366,768,8-22-2022,5-12-49,5,depth_duration_stimuli/003129_2014-05-12_10-48-10_094959634447_rgbf000100-resize_0/003129_2014-05-12_10-48-10_094959634447_rgbf000100-resize_0-target.png,1000,4.9305,1,6004,1004,meters,jsons/v1_VE1000_randls_9_rotated.json,1051571,1495218,30,Woman
5,841555,DepthScenes,duration_manipulation_targetAtFixation,jsons/v1_VE1000_randls_9_rotated.json,http://54.235.29.9/FacialAge/BNav_EC2/DepthDuration/v2_depth_duration_MTurk/v2_DepthDuration_HTML.html#21,21,1821,1024,1366,768,8-22-2022,5-12-49,6,depth_duration_stimuli/000414_2014-06-04_19-49-13_260595134347_rgbf000044-resize_0/000414_2014-06-04_19-49-13_260595134347_rgbf000044-resize_0-target.png,1000,4.329,3,8435,1043,meters,jsons/v1_VE1000_randls_9_rotated.json,1051571,1495218,30,Woman
6,841555,DepthScenes,duration_manipulation_targetAtFixation,jsons/v1_VE1000_randls_9_rotated.json,http://54.235.29.9/FacialAge/BNav_EC2/DepthDuration/v2_depth_duration_MTurk/v2_DepthDuration_HTML.html#21,21,1821,1024,1366,768,8-22-2022,5-12-49,7,depth_duration_stimuli/001447_2014-06-19_17-00-32_260595134347_rgbf000082-resize_5/001447_2014-06-19_17-00-32_260595134347_rgbf000082-resize_5-target.png,1000,4.13775,2,3794,999,meters,jsons/v1_VE1000_randls_9_rotated.json,1051571,1495218,30,Woman
7,841555,DepthScenes,duration_manipulation_targetAtFixation,jsons/v1_VE1000_randls_9_rotated.json,http://54.235.29.9/FacialAge/BNav_EC2/DepthDuration/v2_depth_duration_MTurk/v2_DepthDuration_HTML.html#21,21,1821,1024,1366,768,8-22-2022,5-12-49,8,depth_duration_stimuli/000447_2014-06-08_16-15-46_260595134347_rgbf000130-resize_1/000447_2014-06-08_16-15-46_260595134347_rgbf000130-resize_1-target.png,1000,4.479,1,3392,1473,meters,jsons/v1_VE1000_randls_9_rotated.json,1051571,1495218,30,Woman
8,841555,DepthScenes,duration_manipulation_targetAtFixation,jsons/v1_VE1000_randls_9_rotated.json,http://54.235.29.9/FacialAge/BNav_EC2/DepthDuration/v2_depth_duration_MTurk/v2_DepthDuration_HTML.html#21,21,1821,1024,1366,768,8-22-2022,5-12-49,9,depth_duration_stimuli/002758_2014-06-22_19-11-20_094959634447_rgbf000128-resize_1/002758_2014-06-22_19-11-20_094959634447_rgbf000128-resize_1-target.png,1000,2.555,2,2678,812,meters,jsons/v1_VE1000_randls_9_rotated.json,1051571,1495218,30,Woman
9,841555,DepthScenes,duration_manipulation_targetAtFixation,jsons/v1_VE1000_randls_9_rotated.json,http://54.235.29.9/FacialAge/BNav_EC2/DepthDuration/v2_depth_duration_MTurk/v2_DepthDuration_HTML.html#21,21,1821,1024,1366,768,8-22-2022,5-12-49,10,depth_duration_stimuli/002630_2014-06-24_14-47-50_094959634447_rgbf000055-resize_1/002630_2014-06-24_14-47-50_094959634447_rgbf000055-resize_1-target.png,1000,3.0095,2,4518,892,meters,jsons/v1_VE1000_randls_9_rotated.json,1051571,1495218,30,Woman
10,841555,DepthScenes,duration_manipulation_targetAtFixation,jsons/v1_VE1000_randls_9_rotated.json,http://54.235.29.9/FacialAge/BNav_EC2/DepthDuration/v2_depth_duration_MTurk/v2_DepthDuration_HTML.html#21,21,1821,1024,1366,768,8-22-2022,5-12-49,11,depth_duration_stimuli/002414_2014-06-28_20-24-58_260595134347_rgbf000067-resize_4/002414_2014-06-28_20-24-58_260595134347_rgbf000067-resize_4-target.png,1000,4.363,2,150992,1010,meters,jsons/v1_VE1000_randls_9_rotated.json,1051571,1495218,30,Woman
11,841555,DepthScenes,duration_manipulation_targetAtFixation,jsons/v1_VE1000_randls_9_rotated.json,http://54.235.29.9/FacialAge/BNav_EC2/DepthDuration/v2_depth_duration_MTurk/v2_DepthDuration_HTML.html#21,21,1821,1024,1366,768,8-22-2022,5-12-49,12,depth_duration_stimuli/000773_2014-06-08_22-24-54_260595134347_rgbf000093-resize_1/000773_2014-06-08_22-24-54_260595134347_rgbf000093-resize_1-target.png,1000,4.973,2,3557,999,meters,jsons/v1_VE1000_randls_9_rotated.json,1051571,1495218,30,Woman
12,841555,DepthScenes,duration_manipulation_targetAtFixation,jsons/v1_VE1000_randls_9_rotated.json,http://54.235.29.9/FacialAge/BNav_EC2/DepthDuration/v2_depth_duration_MTurk/v2_DepthDuration_HTML.html#21,21,1821,1024,1366,768,8-22-2022,5-12-49,13,depth_duration_stimuli/001450_2014-06-19_17-02-03_260595134347_rgbf000203-resize_4/001450_2014-06-19_17-02-03_260595134347_rgbf000203-resize_4-target.png,1000,4.0106666666667,2,8079,1001,meters,jsons/v1_VE1000_randls_9_rotated.json,1051571,1495218,30,Woman
13,841555,DepthScenes,duration_manipulation_targetAtFixation,jsons/v1_VE1000_randls_9_rotated.json,http://54.235.29.9/FacialAge/BNav_EC2/DepthDuration/v2_depth_duration_MTurk/v2_DepthDuration_HTML.html#21,21,1821,1024,1366,768,8-22-2022,5-12-49,14,depth_duration_stimuli/001449_2014-06-19_17-01-27_260595134347_rgbf000116-resize_2/001449_2014-06-19_17-01-27_260595134347_rgbf000116-resize_2-target.png,1000,3.452,2,3775,1016,meters,jsons/v1_VE1000_randls_9_rotated.json,1051571,1495218,30,Woman
14,841555,DepthScenes,duration_manipulation_targetAtFixation,jsons/v1_VE1000_randls_9_rotated.json,http://54.235.29.9/FacialAge/BNav_EC2/DepthDuration/v2_depth_duration_MTurk/v2_DepthDuration_HTML.html#21,21,1821,1024,1366,768,8-22-2022,5-12-49,15,depth_duration_stimuli/003079_2014-06-15_15-18-20_094959634447_rgbf000152-resize_8/003079_2014-06-15_15-18-20_094959634447_rgbf000152-resize_8-target.png,1000,2.8775,1,7866,462,meters,jsons/v1_VE1000_randls_9_rotated.json,1051571,1495218,30,Woman
15,841555,DepthScenes,duration_manipulation_targetAtFixation,jsons/v1_VE1000_randls_9_rotated.json,http://54.235.29.9/FacialAge/BNav_EC2/DepthDuration/v2_depth_duration_MTurk/v2_DepthDuration_HTML.html#21,21,1821,1024,1366,768,8-22-2022,5-12-49,16,depth_duration_stimuli/000506_2014-06-08_23-21-00_260595134347_rgbf000070-resize_7/000506_2014-06-08_23-21-00_260595134347_rgbf000070-resize_7-target.png,1000,4.0585,2,4653,1002,meters,jsons/v1_VE1000_randls_9_rotated.json,1051571,1495218,30,Woman
16,841555,DepthScenes,duration_manipulation_targetAtFixation,jsons/v1_VE1000_randls_9_rotated.json,http://54.235.29.9/FacialAge/BNav_EC2/DepthDuration/v2_depth_duration_MTurk/v2_DepthDuration_HTML.html#21,21,1821,1024,1366,768,8-22-2022,5-12-49,17,depth_duration_stimuli/000866_2014-06-09_20-45-42_260595134347_rgbf000139-resize_1/000866_2014-06-09_20-45-42_260595134347_rgbf000139-resize_1-target.png,1000,3.2155,2,7595,976,meters,jsons/v1_VE1000_randls_9_rotated.json,1051571,1495218,30,Woman
17,841555,DepthScenes,duration_manipulation_targetAtFixation,jsons/v1_VE1000_randls_9_rotated.json,http://54.235.29.9/FacialAge/BNav_EC2/DepthDuration/v2_depth_duration_MTurk/v2_DepthDuration_HTML.html#21,21,1821,1024,1366,768,8-22-2022,5-12-49,18,depth_duration_stimuli/002989_2014-06-15_12-25-03_094959634447_rgbf000150-resize_3/002989_2014-06-15_12-25-03_094959634447_rgbf000150-resize_3-target.png,1000,4.1975,1,10071,1019,meters,jsons/v1_VE1000_randls_9_rotated.json,1051571,1495218,30,Woman
18,841555,DepthScenes,duration_manipulation_targetAtFixation,jsons/v1_VE1000_randls_9_rotated.json,http://54.235.29.9/FacialAge/BNav_EC2/DepthDuration/v2_depth_duration_MTurk/v2_DepthDuration_HTML.html#21,21,1821,1024,1366,768,8-22-2022,5-12-49,19,depth_duration_stimuli/001498_2014-06-19_17-45-14_260595134347_rgbf000129-resize_4/001498_2014-06-19_17-45-14_260595134347_rgbf000129-resize-original.jpg,1000,1.4075,2,2820,712,meters,jsons/v1_VE1000_randls_9_rotated.json,1051571,1495218,30,Woman
19,841555,DepthScenes,duration_manipulation_targetAtFixation,jsons/v1_VE1000_randls_9_rotated.json,http://54.235.29.9/FacialAge/BNav_EC2/DepthDuration/v2_depth_duration_MTurk/v2_DepthDuration_HTML.html#21,21,1821,1024,1366,768,8-22-2022,5-12-49,20,depth_duration_stimuli/001392_2014-06-19_16-07-59_260595134347_rgbf000046-resize_1/001392_2014-06-19_16-07-59_260595134347_rgbf000046-resize_1-target.png,1000,4.135,2,2504,463,meters,jsons/v1_VE1000_randls_9_rotated.json,1051571,1495218,30,Woman
20,841555,DepthScenes,duration_manipulation_targetAtFixation,jsons/v1_VE1000_randls_9_rotated.json,http://54.235.29.9/FacialAge/BNav_EC2/DepthDuration/v2_depth_duration_MTurk/v2_DepthDuration_HTML.html#21,21,1821,1024,1366,768,8-22-2022,5-12-49,21,depth_duration_stimuli/001570_2014-06-20_17-21-09_260595134347_rgbf000135-resize_4/001570_2014-06-20_17-21-09_260595134347_rgbf000135-resize_4-target.png,1000,4.467,4,4015,1576,meters,jsons/v1_VE1000_randls_9_rotated.json,1051571,1495218,30,Woman
21,841555,DepthScenes,duration_manipulation_targetAtFixation,jsons/v1_VE1000_randls_9_rotated.json,http://54.235.29.9/FacialAge/BNav_EC2/DepthDuration/v2_depth_duration_MTurk/v2_DepthDuration_HTML.html#21,21,1821,1024,1366,768,8-22-2022,5-12-49,22,depth_duration_stimuli/002639_2014-06-24_14-51-37_094959634447_rgbf000074-resize_4/002639_2014-06-24_14-51-37_094959634447_rgbf000074-resize_4-target.png,1000,4.0375,5,3042,985,meters,jsons/v1_VE1000_randls_9_rotated.json,1051571,1495218,30,Woman
22,841555,DepthScenes,duration_manipulation_targetAtFixation,jsons/v1_VE1000_randls_9_rotated.json,http://54.235.29.9/FacialAge/BNav_EC2/DepthDuration/v2_depth_duration_MTurk/v2_DepthDuration_HTML.html#21,21,1821,1024,1366,768,8-22-2022,5-12-49,23,depth_duration_stimuli/003292_2014-05-14_21-53-49_094959634447_rgbf000100-resize_2/003292_2014-05-14_21-53-49_094959634447_rgbf000100-resize_2-target.png,1000,3.4815,2,3379,1391,meters,jsons/v1_VE1000_randls_9_rotated.json,1051571,1495218,30,Woman
23,841555,DepthScenes,duration_manipulation_targetAtFixation,jsons/v1_VE1000_randls_9_rotated.json,http://54.235.29.9/FacialAge/BNav_EC2/DepthDuration/v2_depth_duration_MTurk/v2_DepthDuration_HTML.html#21,21,1821,1024,1366,768,8-22-2022,5-12-49,24,depth_duration_stimuli/002805_2014-06-22_19-54-03_094959634447_rgbf000079-resize_1/002805_2014-06-22_19-54-03_094959634447_rgbf000079-resize_1-target.png,1000,3.1439999999999997,2,3922,1133,meters,jsons/v1_VE1000_randls_9_rotated.json,1051571,1495218,30,Woman
24,841555,DepthScenes,duration_manipulation_targetAtFixation,jsons/v1_VE1000_randls_9_rotated.json,http://54.235.29.9/FacialAge/BNav_EC2/DepthDuration/v2_depth_duration_MTurk/v2_DepthDuration_HTML.html#21,21,1821,1024,1366,768,8-22-2022,5-12-49,25,depth_duration_stimuli/000906_2014-06-08_13-35-43_260595134347_rgbf000155-resize_1/000906_2014-06-08_13-35-43_260595134347_rgbf000155-resize_1-target.png,1000,2.8489999999999998,3,8764,998,meters,jsons/v1_VE1000_randls_9_rotated.json,1051571,1495218,30,Woman
25,841555,DepthScenes,duration_manipulation_targetAtFixation,jsons/v1_VE1000_randls_9_rotated.json,http://54.235.29.9/FacialAge/BNav_EC2/DepthDuration/v2_depth_duration_MTurk/v2_DepthDuration_HTML.html#21,21,1821,1024,1366,768,8-22-2022,5-12-49,26,depth_duration_stimuli/000635_2014-06-08_16-38-42_260595134347_rgbf000106-resize_1/000635_2014-06-08_16-38-42_260595134347_rgbf000106-resize_1-target.png,1000,2.074,2,4009,1001,meters,jsons/v1_VE1000_randls_9_rotated.json,1051571,1495218,30,Woman
26,841555,DepthScenes,duration_manipulation_targetAtFixation,jsons/v1_VE1000_randls_9_rotated.json,http://54.235.29.9/FacialAge/BNav_EC2/DepthDuration/v2_depth_duration_MTurk/v2_DepthDuration_HTML.html#21,21,1821,1024,1366,768,8-22-2022,5-12-49,27,depth_duration_stimuli/002279_2014-06-28_18-55-32_260595134347_rgbf000040-resize_5/002279_2014-06-28_18-55-32_260595134347_rgbf000040-resize_5-target.png,1000,1.5043333333333,1,2822,1000,meters,jsons/v1_VE1000_randls_9_rotated.json,1051571,1495218,30,Woman
27,841555,DepthScenes,duration_manipulation_targetAtFixation,jsons/v1_VE1000_randls_9_rotated.json,http://54.235.29.9/FacialAge/BNav_EC2/DepthDuration/v2_depth_duration_MTurk/v2_DepthDuration_HTML.html#21,21,1821,1024,1366,768,8-22-2022,5-12-49,28,depth_duration_stimuli/000556_2014-06-09_22-42-56_260595134347_rgbf000214-resize_1/000556_2014-06-09_22-42-56_260595134347_rgbf000214-resize_1-target.png,1000,4.8415,2,3854,999,meters,jsons/v1_VE1000_randls_9_rotated.json,1051571,1495218,30,Woman
28,841555,DepthScenes,duration_manipulation_targetAtFixation,jsons/v1_VE1000_randls_9_rotated.json,http://54.235.29.9/FacialAge/BNav_EC2/DepthDuration/v2_depth_duration_MTurk/v2_DepthDuration_HTML.html#21,21,1821,1024,1366,768,8-22-2022,5-12-49,29,depth_duration_stimuli/001158_2014-06-17_15-32-16_260595134347_rgbf000138-resize_2/001158_2014-06-17_15-32-16_260595134347_rgbf000138-resize_2-target.png,1000,4.5315,5,4999,999,meters,jsons/v1_VE1000_randls_9_rotated.json,1051571,1495218,30,Woman
29,841555,DepthScenes,duration_manipulation_targetAtFixation,jsons/v1_VE1000_randls_9_rotated.json,http://54.235.29.9/FacialAge/BNav_EC2/DepthDuration/v2_depth_duration_MTurk/v2_DepthDuration_HTML.html#21,21,1821,1024,1366,768,8-22-2022,5-12-49,30,depth_duration_stimuli/002072_2014-06-24_21-48-06_260595134347_rgbf000115-resize_0/002072_2014-06-24_21-48-06_260595134347_rgbf000115-resize-original.jpg,1000,4.702,2,3905,1126,meters,jsons/v1_VE1000_randls_9_rotated.json,1051571,1495218,30,Woman
30,841555,DepthScenes,duration_manipulation_targetAtFixation,jsons/v1_VE1000_randls_9_rotated.json,http://54.235.29.9/FacialAge/BNav_EC2/DepthDuration/v2_depth_duration_MTurk/v2_DepthDuration_HTML.html#21,21,1821,1024,1366,768,8-22-2022,5-12-49,31,depth_duration_stimuli/001650_2014-06-20_12-09-00_260595134347_rgbf000087-resize_3/001650_2014-06-20_12-09-00_260595134347_rgbf000087-resize_3-target.png,1000,1.9505,2,7948,993,meters,jsons/v1_VE1000_randls_9_rotated.json,1051571,1495218,30,Woman
31,841555,DepthScenes,duration_manipulation_targetAtFixation,jsons/v1_VE1000_randls_9_rotated.json,http://54.235.29.9/FacialAge/BNav_EC2/DepthDuration/v2_depth_duration_MTurk/v2_DepthDuration_HTML.html#21,21,1821,1024,1366,768,8-22-2022,5-12-49,32,depth_duration_stimuli/000682_2014-06-08_23-14-58_260595134347_rgbf000041-resize_5/000682_2014-06-08_23-14-58_260595134347_rgbf000041-resize_5-target.png,1000,2.7239999999999998,2,3501,1000,meters,jsons/v1_VE1000_randls_9_rotated.json,1051571,1495218,30,Woman
32,841555,DepthScenes,duration_manipulation_targetAtFixation,jsons/v1_VE1000_randls_9_rotated.json,http://54.235.29.9/FacialAge/BNav_EC2/DepthDuration/v2_depth_duration_MTurk/v2_DepthDuration_HTML.html#21,21,1821,1024,1366,768,8-22-2022,5-12-49,33,depth_duration_stimuli/002678_2014-06-13_16-15-32_094959634447_rgbf000151-resize_6/002678_2014-06-13_16-15-32_094959634447_rgbf000151-resize_6-target.png,1000,2.1830000000000003,2,3267,317,meters,jsons/v1_VE1000_randls_9_rotated.json,1051571,1495218,30,Woman
33,841555,DepthScenes,duration_manipulation_targetAtFixation,jsons/v1_VE1000_randls_9_rotated.json,http://54.235.29.9/FacialAge/BNav_EC2/DepthDuration/v2_depth_duration_MTurk/v2_DepthDuration_HTML.html#21,21,1821,1024,1366,768,8-22-2022,5-12-49,34,depth_duration_stimuli/000368_2014-06-09_15-53-01_260595134347_rgbf000155-resize_2/000368_2014-06-09_15-53-01_260595134347_rgbf000155-resize_2-target.png,1000,2.4859999999999998,2,7121,1635,meters,jsons/v1_VE1000_randls_9_rotated.json,1051571,1495218,30,Woman
34,841555,DepthScenes,duration_manipulation_targetAtFixation,jsons/v1_VE1000_randls_9_rotated.json,http://54.235.29.9/FacialAge/BNav_EC2/DepthDuration/v2_depth_duration_MTurk/v2_DepthDuration_HTML.html#21,21,1821,1024,1366,768,8-22-2022,5-12-49,35,depth_duration_stimuli/000742_2014-06-08_18-48-09_260595134347_rgbf000164-resize_4/000742_2014-06-08_18-48-09_260595134347_rgbf000164-resize_4-target.png,1000,4.632,4,2938,1199,meters,jsons/v1_VE1000_randls_9_rotated.json,1051571,1495218,30,Woman
35,841555,DepthScenes,duration_manipulation_targetAtFixation,jsons/v1_VE1000_randls_9_rotated.json,http://54.235.29.9/FacialAge/BNav_EC2/DepthDuration/v2_depth_duration_MTurk/v2_DepthDuration_HTML.html#21,21,1821,1024,1366,768,8-22-2022,5-12-49,36,depth_duration_stimuli/001066_2014-06-08_22-03-20_260595134347_rgbf000066-resize_4/001066_2014-06-08_22-03-20_260595134347_rgbf000066-resize_4-target.png,1000,4.2330000000000005,2,5287,1271,meters,jsons/v1_VE1000_randls_9_rotated.json,1051571,1495218,30,Woman
36,841555,DepthScenes,duration_manipulation_targetAtFixation,jsons/v1_VE1000_randls_9_rotated.json,http://54.235.29.9/FacialAge/BNav_EC2/DepthDuration/v2_depth_duration_MTurk/v2_DepthDuration_HTML.html#21,21,1821,1024,1366,768,8-22-2022,5-12-49,37,depth_duration_stimuli/000734_2014-06-08_17-39-11_260595134347_rgbf000128-resize_2/000734_2014-06-08_17-39-11_260595134347_rgbf000128-resize_2-target.png,1000,4.098,2,4139,999,meters,jsons/v1_VE1000_randls_9_rotated.json,1051571,1495218,30,Woman
37,841555,DepthScenes,duration_manipulation_targetAtFixation,jsons/v1_VE1000_randls_9_rotated.json,http://54.235.29.9/FacialAge/BNav_EC2/DepthDuration/v2_depth_duration_MTurk/v2_DepthDuration_HTML.html#21,21,1821,1024,1366,768,8-22-2022,5-12-49,38,depth_duration_stimuli/000739_2014-06-08_18-45-58_260595134347_rgbf000068-resize_1/000739_2014-06-08_18-45-58_260595134347_rgbf000068-resize_1-target.png,1000,3.534,3,9137,999,meters,jsons/v1_VE1000_randls_9_rotated.json,1051571,1495218,30,Woman
38,841555,DepthScenes,duration_manipulation_targetAtFixation,jsons/v1_VE1000_randls_9_rotated.json,http://54.235.29.9/FacialAge/BNav_EC2/DepthDuration/v2_depth_duration_MTurk/v2_DepthDuration_HTML.html#21,21,1821,1024,1366,768,8-22-2022,5-12-49,39,depth_duration_stimuli/002444_2014-06-28_20-32-08_260595134347_rgbf000027-resize_0/002444_2014-06-28_20-32-08_260595134347_rgbf000027-resize_0-target.png,1000,4.388999999999999,2,3370,1372,meters,jsons/v1_VE1000_randls_9_rotated.json,1051571,1495218,30,Woman
39,841555,DepthScenes,duration_manipulation_targetAtFixation,jsons/v1_VE1000_randls_9_rotated.json,http://54.235.29.9/FacialAge/BNav_EC2/DepthDuration/v2_depth_duration_MTurk/v2_DepthDuration_HTML.html#21,21,1821,1024,1366,768,8-22-2022,5-12-49,40,depth_duration_stimuli/000436_2014-06-09_22-25-11_260595134347_rgbf000137-resize_1/000436_2014-06-09_22-25-11_260595134347_rgbf000137-resize_1-target.png,1000,4.0705,2,4452,1359,meters,jsons/v1_VE1000_randls_9_rotated.json,1051571,1495218,30,Woman
40,841555,DepthScenes,duration_manipulation_targetAtFixation,jsons/v1_VE1000_randls_9_rotated.json,http://54.235.29.9/FacialAge/BNav_EC2/DepthDuration/v2_depth_duration_MTurk/v2_DepthDuration_HTML.html#21,21,1821,1024,1366,768,8-22-2022,5-12-49,41,depth_duration_stimuli/002199_2014-06-28_18-33-56_260595134347_rgbf000074-resize_0/002199_2014-06-28_18-33-56_260595134347_rgbf000074-resize_0-target.png,1000,1.996,2,3768,954,meters,jsons/v1_VE1000_randls_9_rotated.json,1051571,1495218,30,Woman
41,841555,DepthScenes,duration_manipulation_targetAtFixation,jsons/v1_VE1000_randls_9_rotated.json,http://54.235.29.9/FacialAge/BNav_EC2/DepthDuration/v2_depth_duration_MTurk/v2_DepthDuration_HTML.html#21,21,1821,1024,1366,768,8-22-2022,5-12-49,42,depth_duration_stimuli/001056_2014-06-08_18-46-44_260595134347_rgbf000068-resize_0/001056_2014-06-08_18-46-44_260595134347_rgbf000068-resize_0-target.png,1000,2.6625,3,4148,826,meters,jsons/v1_VE1000_randls_9_rotated.json,1051571,1495218,30,Woman
42,841555,DepthScenes,duration_manipulation_targetAtFixation,jsons/v1_VE1000_randls_9_rotated.json,http://54.235.29.9/FacialAge/BNav_EC2/DepthDuration/v2_depth_duration_MTurk/v2_DepthDuration_HTML.html#21,21,1821,1024,1366,768,8-22-2022,5-12-49,43,depth_duration_stimuli/002875_2014-06-01_15-19-00_094959634447_rgbf000151-resize_1/002875_2014-06-01_15-19-00_094959634447_rgbf000151-resize_1-target.png,1000,1.9675,5,4493,1001,meters,jsons/v1_VE1000_randls_9_rotated.json,1051571,1495218,30,Woman
43,841555,DepthScenes,duration_manipulation_targetAtFixation,jsons/v1_VE1000_randls_9_rotated.json,http://54.235.29.9/FacialAge/BNav_EC2/DepthDuration/v2_depth_duration_MTurk/v2_DepthDuration_HTML.html#21,21,1821,1024,1366,768,8-22-2022,5-12-49,44,depth_duration_stimuli/001011_2014-06-08_23-18-54_260595134347_rgbf000044-resize_4/001011_2014-06-08_23-18-54_260595134347_rgbf000044-resize_4-target.png,1000,2.4730000000000003,2,3530,999,meters,jsons/v1_VE1000_randls_9_rotated.json,1051571,1495218,30,Woman
44,841555,DepthScenes,duration_manipulation_targetAtFixation,jsons/v1_VE1000_randls_9_rotated.json,http://54.235.29.9/FacialAge/BNav_EC2/DepthDuration/v2_depth_duration_MTurk/v2_DepthDuration_HTML.html#21,21,1821,1024,1366,768,8-22-2022,5-12-49,45,depth_duration_stimuli/000709_2014-06-08_13-51-55_260595134347_rgbf000068-resize_3/000709_2014-06-08_13-51-55_260595134347_rgbf000068-resize_3-target.png,1000,1.8030000000000002,2,4105,995,meters,jsons/v1_VE1000_randls_9_rotated.json,1051571,1495218,30,Woman
45,841555,DepthScenes,duration_manipulation_targetAtFixation,jsons/v1_VE1000_randls_9_rotated.json,http://54.235.29.9/FacialAge/BNav_EC2/DepthDuration/v2_depth_duration_MTurk/v2_DepthDuration_HTML.html#21,21,1821,1024,1366,768,8-22-2022,5-12-49,46,depth_duration_stimuli/002057_2014-06-24_21-00-13_260595134347_rgbf000120-resize_1/002057_2014-06-24_21-00-13_260595134347_rgbf000120-resize_1-target.png,1000,2.967,1,3637,1010,meters,jsons/v1_VE1000_randls_9_rotated.json,1051571,1495218,30,Woman
46,841555,DepthScenes,duration_manipulation_targetAtFixation,jsons/v1_VE1000_randls_9_rotated.json,http://54.235.29.9/FacialAge/BNav_EC2/DepthDuration/v2_depth_duration_MTurk/v2_DepthDuration_HTML.html#21,21,1821,1024,1366,768,8-22-2022,5-12-49,47,depth_duration_stimuli/002425_2014-06-28_20-27-29_260595134347_rgbf000031-resize_8/002425_2014-06-28_20-27-29_260595134347_rgbf000031-resize_8-target.png,1000,3.8960000000000004,3,3897,1000,meters,jsons/v1_VE1000_randls_9_rotated.json,1051571,1495218,30,Woman
47,841555,DepthScenes,duration_manipulation_targetAtFixation,jsons/v1_VE1000_randls_9_rotated.json,http://54.235.29.9/FacialAge/BNav_EC2/DepthDuration/v2_depth_duration_MTurk/v2_DepthDuration_HTML.html#21,21,1821,1024,1366,768,8-22-2022,5-12-49,48,depth_duration_stimuli/000642_2014-06-08_16-59-25_260595134347_rgbf000098-resize_2/000642_2014-06-08_16-59-25_260595134347_rgbf000098-resize_2-target.png,1000,2.8815,2,3418,1121,meters,jsons/v1_VE1000_randls_9_rotated.json,1051571,1495218,30,Woman
48,841555,DepthScenes,duration_manipulation_targetAtFixation,jsons/v1_VE1000_randls_9_rotated.json,http://54.235.29.9/FacialAge/BNav_EC2/DepthDuration/v2_depth_duration_MTurk/v2_DepthDuration_HTML.html#21,21,1821,1024,1366,768,8-22-2022,5-12-49,49,depth_duration_stimuli/001170_2014-06-17_15-43-44_260595134347_rgbf000096-resize_6/001170_2014-06-17_15-43-44_260595134347_rgbf000096-resize-original.jpg,1000,1.1909999999999998,2,5008,1978,meters,jsons/v1_VE1000_randls_9_rotated.json,1051571,1495218,30,Woman
49,841555,DepthScenes,duration_manipulation_targetAtFixation,jsons/v1_VE1000_randls_9_rotated.json,http://54.235.29.9/FacialAge/BNav_EC2/DepthDuration/v2_depth_duration_MTurk/v2_DepthDuration_HTML.html#21,21,1821,1024,1366,768,8-22-2022,5-12-49,50,depth_duration_stimuli/001214_2014-06-17_16-13-55_260595134347_rgbf000111-resize_0/001214_2014-06-17_16-13-55_260595134347_rgbf000111-resize_0-target.png,1000,2.6505,2,4928,1003,meters,jsons/v1_VE1000_randls_9_rotated.json,1051571,1495218,30,Woman
50,841555,DepthScenes,duration_manipulation_targetAtFixation,jsons/v1_VE1000_randls_9_rotated.json,http://54.235.29.9/FacialAge/BNav_EC2/DepthDuration/v2_depth_duration_MTurk/v2_DepthDuration_HTML.html#21,21,1821,1024,1366,768,8-22-2022,5-12-49,51,depth_duration_stimuli/000810_2014-06-08_17-20-01_260595134347_rgbf000105-resize_0/000810_2014-06-08_17-20-01_260595134347_rgbf000105-resize_0-target.png,1000,1.4865,2,3040,987,meters,jsons/v1_VE1000_randls_9_rotated.json,1051571,1495218,30,Woman
51,841555,DepthScenes,duration_manipulation_targetAtFixation,jsons/v1_VE1000_randls_9_rotated.json,http://54.235.29.9/FacialAge/BNav_EC2/DepthDuration/v2_depth_duration_MTurk/v2_DepthDuration_HTML.html#21,21,1821,1024,1366,768,8-22-2022,5-12-49,52,depth_duration_stimuli/002660_2014-06-13_15-44-18_094959634447_rgbf001878-resize_2/002660_2014-06-13_15-44-18_094959634447_rgbf001878-resize_2-target.png,1000,3.576,2,4023,999,meters,jsons/v1_VE1000_randls_9_rotated.json,1051571,1495218,30,Woman
52,841555,DepthScenes,duration_manipulation_targetAtFixation,jsons/v1_VE1000_randls_9_rotated.json,http://54.235.29.9/FacialAge/BNav_EC2/DepthDuration/v2_depth_duration_MTurk/v2_DepthDuration_HTML.html#21,21,1821,1024,1366,768,8-22-2022,5-12-49,53,depth_duration_stimuli/002153_2014-06-25_21-27-18_260595134347_rgbf000038-resize_5/002153_2014-06-25_21-27-18_260595134347_rgbf000038-resize_5-target.png,1000,2.505,3,4268,1000,meters,jsons/v1_VE1000_randls_9_rotated.json,1051571,1495218,30,Woman
53,841555,DepthScenes,duration_manipulation_targetAtFixation,jsons/v1_VE1000_randls_9_rotated.json,http://54.235.29.9/FacialAge/BNav_EC2/DepthDuration/v2_depth_duration_MTurk/v2_DepthDuration_HTML.html#21,21,1821,1024,1366,768,8-22-2022,5-12-49,54,depth_duration_stimuli/000691_2014-06-08_13-08-50_260595134347_rgbf000132-resize_3/000691_2014-06-08_13-08-50_260595134347_rgbf000132-resize_3-target.png,1000,4.1530000000000005,2,3088,1437,meters,jsons/v1_VE1000_randls_9_rotated.json,1051571,1495218,30,Woman
54,841555,DepthScenes,duration_manipulation_targetAtFixation,jsons/v1_VE1000_randls_9_rotated.json,http://54.235.29.9/FacialAge/BNav_EC2/DepthDuration/v2_depth_duration_MTurk/v2_DepthDuration_HTML.html#21,21,1821,1024,1366,768,8-22-2022,5-12-49,55,depth_duration_stimuli/002213_2014-06-28_18-37-58_260595134347_rgbf000055-resize_1/002213_2014-06-28_18-37-58_260595134347_rgbf000055-resize_1-target.png,1000,3.62,2,7181,1000,meters,jsons/v1_VE1000_randls_9_rotated.json,1051571,1495218,30,Woman
55,841555,DepthScenes,duration_manipulation_targetAtFixation,jsons/v1_VE1000_randls_9_rotated.json,http://54.235.29.9/FacialAge/BNav_EC2/DepthDuration/v2_depth_duration_MTurk/v2_DepthDuration_HTML.html#21,21,1821,1024,1366,768,8-22-2022,5-12-49,56,depth_duration_stimuli/000457_2014-06-08_16-52-43_260595134347_rgbf000199-resize_1/000457_2014-06-08_16-52-43_260595134347_rgbf000199-resize_1-target.png,1000,3.6489999999999996,1,3961,1000,meters,jsons/v1_VE1000_randls_9_rotated.json,1051571,1495218,30,Woman
56,841555,DepthScenes,duration_manipulation_targetAtFixation,jsons/v1_VE1000_randls_9_rotated.json,http://54.235.29.9/FacialAge/BNav_EC2/DepthDuration/v2_depth_duration_MTurk/v2_DepthDuration_HTML.html#21,21,1821,1024,1366,768,8-22-2022,5-12-49,57,depth_duration_stimuli/000929_2014-06-09_16-33-19_260595134347_rgbf000139-resize_0/000929_2014-06-09_16-33-19_260595134347_rgbf000139-resize_0-target.png,1000,2.8680000000000003,1,5131,1003,meters,jsons/v1_VE1000_randls_9_rotated.json,1051571,1495218,30,Woman
57,841555,DepthScenes,duration_manipulation_targetAtFixation,jsons/v1_VE1000_randls_9_rotated.json,http://54.235.29.9/FacialAge/BNav_EC2/DepthDuration/v2_depth_duration_MTurk/v2_DepthDuration_HTML.html#21,21,1821,1024,1366,768,8-22-2022,5-12-49,58,depth_duration_stimuli/000103_2014-05-14_22-01-17_260595134347_rgbf000152-resize_5/000103_2014-05-14_22-01-17_260595134347_rgbf000152-resize_5-target.png,1000,1.993,1,5946,912,meters,jsons/v1_VE1000_randls_9_rotated.json,1051571,1495218,30,Woman
58,841555,DepthScenes,duration_manipulation_targetAtFixation,jsons/v1_VE1000_randls_9_rotated.json,http://54.235.29.9/FacialAge/BNav_EC2/DepthDuration/v2_depth_duration_MTurk/v2_DepthDuration_HTML.html#21,21,1821,1024,1366,768,8-22-2022,5-12-49,59,depth_duration_stimuli/001555_2014-06-20_17-12-10_260595134347_rgbf000065-resize_4/001555_2014-06-20_17-12-10_260595134347_rgbf000065-resize_4-target.png,1000,1.633,1,3109,1000,meters,jsons/v1_VE1000_randls_9_rotated.json,1051571,1495218,30,Woman
59,841555,DepthScenes,duration_manipulation_targetAtFixation,jsons/v1_VE1000_randls_9_rotated.json,http://54.235.29.9/FacialAge/BNav_EC2/DepthDuration/v2_depth_duration_MTurk/v2_DepthDuration_HTML.html#21,21,1821,1024,1366,768,8-22-2022,5-12-49,60,depth_duration_stimuli/001052_2014-06-08_18-24-54_260595134347_rgbf000130-resize_1/001052_2014-06-08_18-24-54_260595134347_rgbf000130-resize_1-target.png,1000,4.1045,1,3652,1002,meters,jsons/v1_VE1000_randls_9_rotated.json,1051571,1495218,30,Woman
60,841555,DepthScenes,duration_manipulation_targetAtFixation,jsons/v1_VE1000_randls_9_rotated.json,http://54.235.29.9/FacialAge/BNav_EC2/DepthDuration/v2_depth_duration_MTurk/v2_DepthDuration_HTML.html#21,21,1821,1024,1366,768,8-22-2022,5-12-49,61,depth_duration_stimuli/002988_2014-06-15_12-24-20_094959634447_rgbf000150-resize_1/002988_2014-06-15_12-24-20_094959634447_rgbf000150-resize_1-target.png,1000,4.7669999999999995,2,3030,1007,meters,jsons/v1_VE1000_randls_9_rotated.json,1051571,1495218,30,Woman
61,841555,DepthScenes,duration_manipulation_targetAtFixation,jsons/v1_VE1000_randls_9_rotated.json,http://54.235.29.9/FacialAge/BNav_EC2/DepthDuration/v2_depth_duration_MTurk/v2_DepthDuration_HTML.html#21,21,1821,1024,1366,768,8-22-2022,5-12-49,62,depth_duration_stimuli/003338_2014-05-20_11-01-23_094959634447_rgbf000051-resize_6/003338_2014-05-20_11-01-23_094959634447_rgbf000051-resize_6-target.png,1000,1.693,2,4323,999,meters,jsons/v1_VE1000_randls_9_rotated.json,1051571,1495218,30,Woman
62,841555,DepthScenes,duration_manipulation_targetAtFixation,jsons/v1_VE1000_randls_9_rotated.json,http://54.235.29.9/FacialAge/BNav_EC2/DepthDuration/v2_depth_duration_MTurk/v2_DepthDuration_HTML.html#21,21,1821,1024,1366,768,8-22-2022,5-12-49,63,depth_duration_stimuli/002509_2014-06-24_13-19-22_094959634447_rgbf000077-resize_0/002509_2014-06-24_13-19-22_094959634447_rgbf000077-resize_0-target.png,1000,1.3065,5,3976,1533,meters,jsons/v1_VE1000_randls_9_rotated.json,1051571,1495218,30,Woman
63,841555,DepthScenes,duration_manipulation_targetAtFixation,jsons/v1_VE1000_randls_9_rotated.json,http://54.235.29.9/FacialAge/BNav_EC2/DepthDuration/v2_depth_duration_MTurk/v2_DepthDuration_HTML.html#21,21,1821,1024,1366,768,8-22-2022,5-12-49,64,depth_duration_stimuli/002323_2014-06-28_20-01-54_260595134347_rgbf000051-resize_4/002323_2014-06-28_20-01-54_260595134347_rgbf000051-resize_4-target.png,1000,3.7310000000000003,2,3259,1000,meters,jsons/v1_VE1000_randls_9_rotated.json,1051571,1495218,30,Woman
64,841555,DepthScenes,duration_manipulation_targetAtFixation,jsons/v1_VE1000_randls_9_rotated.json,http://54.235.29.9/FacialAge/BNav_EC2/DepthDuration/v2_depth_duration_MTurk/v2_DepthDuration_HTML.html#21,21,1821,1024,1366,768,8-22-2022,5-12-49,65,depth_duration_stimuli/000917_2014-06-09_22-45-29_260595134347_rgbf000149-resize_3/000917_2014-06-09_22-45-29_260595134347_rgbf000149-resize_3-target.png,1000,4.1865,5,3584,1001,meters,jsons/v1_VE1000_randls_9_rotated.json,1051571,1495218,30,Woman
65,841555,DepthScenes,duration_manipulation_targetAtFixation,jsons/v1_VE1000_randls_9_rotated.json,http://54.235.29.9/FacialAge/BNav_EC2/DepthDuration/v2_depth_duration_MTurk/v2_DepthDuration_HTML.html#21,21,1821,1024,1366,768,8-22-2022,5-12-49,66,depth_duration_stimuli/001540_2014-06-20_17-01-05_260595134347_rgbf000086-resize_2/001540_2014-06-20_17-01-05_260595134347_rgbf000086-resize-original.jpg,1000,1.459,2,6129,1085,meters,jsons/v1_VE1000_randls_9_rotated.json,1051571,1495218,30,Woman
66,841555,DepthScenes,duration_manipulation_targetAtFixation,jsons/v1_VE1000_randls_9_rotated.json,http://54.235.29.9/FacialAge/BNav_EC2/DepthDuration/v2_depth_duration_MTurk/v2_DepthDuration_HTML.html#21,21,1821,1024,1366,768,8-22-2022,5-12-49,67,depth_duration_stimuli/001828_2014-06-26_21-40-03_260595134347_rgbf000024-resize_0/001828_2014-06-26_21-40-03_260595134347_rgbf000024-resize_0-target.png,1000,4.8260000000000005,2,5679,1000,meters,jsons/v1_VE1000_randls_9_rotated.json,1051571,1495218,30,Woman
67,841555,DepthScenes,duration_manipulation_targetAtFixation,jsons/v1_VE1000_randls_9_rotated.json,http://54.235.29.9/FacialAge/BNav_EC2/DepthDuration/v2_depth_duration_MTurk/v2_DepthDuration_HTML.html#21,21,1821,1024,1366,768,8-22-2022,5-12-49,68,depth_duration_stimuli/000009_2014-05-26_14-32-05_260595134347_rgbf000034-resize_3/000009_2014-05-26_14-32-05_260595134347_rgbf000034-resize_3-target.png,1000,3.8715,3,3230,986,meters,jsons/v1_VE1000_randls_9_rotated.json,1051571,1495218,30,Woman
68,841555,DepthScenes,duration_manipulation_targetAtFixation,jsons/v1_VE1000_randls_9_rotated.json,http://54.235.29.9/FacialAge/BNav_EC2/DepthDuration/v2_depth_duration_MTurk/v2_DepthDuration_HTML.html#21,21,1821,1024,1366,768,8-22-2022,5-12-49,69,depth_duration_stimuli/003010_2014-06-15_12-54-35_094959634447_rgbf000112-resize_0/003010_2014-06-15_12-54-35_094959634447_rgbf000112-resize_0-target.png,1000,3.1185,3,3101,403,meters,jsons/v1_VE1000_randls_9_rotated.json,1051571,1495218,30,Woman
69,841555,DepthScenes,duration_manipulation_targetAtFixation,jsons/v1_VE1000_randls_9_rotated.json,http://54.235.29.9/FacialAge/BNav_EC2/DepthDuration/v2_depth_duration_MTurk/v2_DepthDuration_HTML.html#21,21,1821,1024,1366,768,8-22-2022,5-12-49,70,depth_duration_stimuli/001810_2014-06-26_20-51-35_260595134347_rgbf000040-resize_3/001810_2014-06-26_20-51-35_260595134347_rgbf000040-resize_3-target.png,1000,2.2525,3,2980,1167,meters,jsons/v1_VE1000_randls_9_rotated.json,1051571,1495218,30,Woman
70,841555,DepthScenes,duration_manipulation_targetAtFixation,jsons/v1_VE1000_randls_9_rotated.json,http://54.235.29.9/FacialAge/BNav_EC2/DepthDuration/v2_depth_duration_MTurk/v2_DepthDuration_HTML.html#21,21,1821,1024,1366,768,8-22-2022,5-12-49,71,depth_duration_stimuli/001617_2014-06-20_11-35-32_260595134347_rgbf000066-resize_1/001617_2014-06-20_11-35-32_260595134347_rgbf000066-resize_1-target.png,1000,3.7910000000000004,3,4541,684,meters,jsons/v1_VE1000_randls_9_rotated.json,1051571,1495218,30,Woman
71,841555,DepthScenes,duration_manipulation_targetAtFixation,jsons/v1_VE1000_randls_9_rotated.json,http://54.235.29.9/FacialAge/BNav_EC2/DepthDuration/v2_depth_duration_MTurk/v2_DepthDuration_HTML.html#21,21,1821,1024,1366,768,8-22-2022,5-12-49,72,depth_duration_stimuli/001806_2014-06-26_20-50-20_260595134347_rgbf000091-resize_1/001806_2014-06-26_20-50-20_260595134347_rgbf000091-resize_1-target.png,1000,2.7305,1,2034,301,meters,jsons/v1_VE1000_randls_9_rotated.json,1051571,1495218,30,Woman
72,841555,DepthScenes,duration_manipulation_targetAtFixation,jsons/v1_VE1000_randls_9_rotated.json,http://54.235.29.9/FacialAge/BNav_EC2/DepthDuration/v2_depth_duration_MTurk/v2_DepthDuration_HTML.html#21,21,1821,1024,1366,768,8-22-2022,5-12-49,73,depth_duration_stimuli/000137_2014-05-20_17-04-49_260595134347_rgbf000120-resize_1/000137_2014-05-20_17-04-49_260595134347_rgbf000120-resize_1-target.png,1000,3.786,2,7852,999,meters,jsons/v1_VE1000_randls_9_rotated.json,1051571,1495218,30,Woman
73,841555,DepthScenes,duration_manipulation_targetAtFixation,jsons/v1_VE1000_randls_9_rotated.json,http://54.235.29.9/FacialAge/BNav_EC2/DepthDuration/v2_depth_duration_MTurk/v2_DepthDuration_HTML.html#21,21,1821,1024,1366,768,8-22-2022,5-12-49,74,depth_duration_stimuli/000736_2014-06-08_18-24-15_260595134347_rgbf000206-resize_3/000736_2014-06-08_18-24-15_260595134347_rgbf000206-resize_3-target.png,1000,3.515,2,4598,1001,meters,jsons/v1_VE1000_randls_9_rotated.json,1051571,1495218,30,Woman
74,841555,DepthScenes,duration_manipulation_targetAtFixation,jsons/v1_VE1000_randls_9_rotated.json,http://54.235.29.9/FacialAge/BNav_EC2/DepthDuration/v2_depth_duration_MTurk/v2_DepthDuration_HTML.html#21,21,1821,1024,1366,768,8-22-2022,5-12-49,75,depth_duration_stimuli/002467_2014-06-28_20-38-07_260595134347_rgbf000026-resize_2/002467_2014-06-28_20-38-07_260595134347_rgbf000026-resize_2-target.png,1000,4.742,2,4597,1003,meters,jsons/v1_VE1000_randls_9_rotated.json,1051571,1495218,30,Woman
75,841555,DepthScenes,duration_manipulation_targetAtFixation,jsons/v1_VE1000_randls_9_rotated.json,http://54.235.29.9/FacialAge/BNav_EC2/DepthDuration/v2_depth_duration_MTurk/v2_DepthDuration_HTML.html#21,21,1821,1024,1366,768,8-22-2022,5-12-49,76,depth_duration_stimuli/002570_2014-06-24_13-59-54_094959634447_rgbf000059-resize_0/002570_2014-06-24_13-59-54_094959634447_rgbf000059-resize_0-target.png,1000,4.037,2,3653,1005,meters,jsons/v1_VE1000_randls_9_rotated.json,1051571,1495218,30,Woman
76,841555,DepthScenes,duration_manipulation_targetAtFixation,jsons/v1_VE1000_randls_9_rotated.json,http://54.235.29.9/FacialAge/BNav_EC2/DepthDuration/v2_depth_duration_MTurk/v2_DepthDuration_HTML.html#21,21,1821,1024,1366,768,8-22-2022,5-12-49,77,depth_duration_stimuli/003048_2014-06-15_13-49-43_094959634447_rgbf000150-resize_1/003048_2014-06-15_13-49-43_094959634447_rgbf000150-resize_1-target.png,1000,4.0035,122,3638,1001,meters,jsons/v1_VE1000_randls_9_rotated.json,1051571,1495218,30,Woman
77,841555,DepthScenes,duration_manipulation_targetAtFixation,jsons/v1_VE1000_randls_9_rotated.json,http://54.235.29.9/FacialAge/BNav_EC2/DepthDuration/v2_depth_duration_MTurk/v2_DepthDuration_HTML.html#21,21,1821,1024,1366,768,8-22-2022,5-12-49,78,depth_duration_stimuli/002043_2014-06-24_20-29-38_260595134347_rgbf000039-resize_4/002043_2014-06-24_20-29-38_260595134347_rgbf000039-resize_4-target.png,1000,2.8435,4,4359,1006,meters,jsons/v1_VE1000_randls_9_rotated.json,1051571,1495218,30,Woman
78,841555,DepthScenes,duration_manipulation_targetAtFixation,jsons/v1_VE1000_randls_9_rotated.json,http://54.235.29.9/FacialAge/BNav_EC2/DepthDuration/v2_depth_duration_MTurk/v2_DepthDuration_HTML.html#21,21,1821,1024,1366,768,8-22-2022,5-12-49,79,depth_duration_stimuli/002340_2014-06-28_20-05-46_260595134347_rgbf000113-resize_0/002340_2014-06-28_20-05-46_260595134347_rgbf000113-resize_0-target.png,1000,2.4735,2,3850,990,meters,jsons/v1_VE1000_randls_9_rotated.json,1051571,1495218,30,Woman
79,841555,DepthScenes,duration_manipulation_targetAtFixation,jsons/v1_VE1000_randls_9_rotated.json,http://54.235.29.9/FacialAge/BNav_EC2/DepthDuration/v2_depth_duration_MTurk/v2_DepthDuration_HTML.html#21,21,1821,1024,1366,768,8-22-2022,5-12-49,80,depth_duration_stimuli/001016_2014-06-09_16-16-10_260595134347_rgbf000112-resize_5/001016_2014-06-09_16-16-10_260595134347_rgbf000112-resize_5-target.png,1000,1.6565,2,2836,999,meters,jsons/v1_VE1000_randls_9_rotated.json,1051571,1495218,30,Woman
80,841555,DepthScenes,duration_manipulation_targetAtFixation,jsons/v1_VE1000_randls_9_rotated.json,http://54.235.29.9/FacialAge/BNav_EC2/DepthDuration/v2_depth_duration_MTurk/v2_DepthDuration_HTML.html#21,21,1821,1024,1366,768,8-22-2022,5-12-49,81,depth_duration_stimuli/001100_2014-06-15_17-46-26_260595134347_rgbf000225-resize_2/001100_2014-06-15_17-46-26_260595134347_rgbf000225-resize_2-target.png,1000,2.24,2,3119,999,meters,jsons/v1_VE1000_randls_9_rotated.json,1051571,1495218,30,Woman
81,841555,DepthScenes,duration_manipulation_targetAtFixation,jsons/v1_VE1000_randls_9_rotated.json,http://54.235.29.9/FacialAge/BNav_EC2/DepthDuration/v2_depth_duration_MTurk/v2_DepthDuration_HTML.html#21,21,1821,1024,1366,768,8-22-2022,5-12-49,82,depth_duration_stimuli/002784_2014-06-22_19-26-30_094959634447_rgbf000083-resize_3/002784_2014-06-22_19-26-30_094959634447_rgbf000083-resize_3-target.png,1000,1.8046666666667,2,5007,1000,meters,jsons/v1_VE1000_randls_9_rotated.json,1051571,1495218,30,Woman
82,841555,DepthScenes,duration_manipulation_targetAtFixation,jsons/v1_VE1000_randls_9_rotated.json,http://54.235.29.9/FacialAge/BNav_EC2/DepthDuration/v2_depth_duration_MTurk/v2_DepthDuration_HTML.html#21,21,1821,1024,1366,768,8-22-2022,5-12-49,83,depth_duration_stimuli/000549_2014-06-08_22-10-24_260595134347_rgbf000247-resize_3/000549_2014-06-08_22-10-24_260595134347_rgbf000247-resize_3-target.png,1000,1.841,2,3046,1000,meters,jsons/v1_VE1000_randls_9_rotated.json,1051571,1495218,30,Woman
83,841555,DepthScenes,duration_manipulation_targetAtFixation,jsons/v1_VE1000_randls_9_rotated.json,http://54.235.29.9/FacialAge/BNav_EC2/DepthDuration/v2_depth_duration_MTurk/v2_DepthDuration_HTML.html#21,21,1821,1024,1366,768,8-22-2022,5-12-49,84,depth_duration_stimuli/001055_2014-06-08_18-45-35_260595134347_rgbf000111-resize_4/001055_2014-06-08_18-45-35_260595134347_rgbf000111-resize_4-target.png,1000,2.4290000000000003,2,3595,1001,meters,jsons/v1_VE1000_randls_9_rotated.json,1051571,1495218,30,Woman
84,841555,DepthScenes,duration_manipulation_targetAtFixation,jsons/v1_VE1000_randls_9_rotated.json,http://54.235.29.9/FacialAge/BNav_EC2/DepthDuration/v2_depth_duration_MTurk/v2_DepthDuration_HTML.html#21,21,1821,1024,1366,768,8-22-2022,5-12-49,85,depth_duration_stimuli/001571_2014-06-20_17-21-32_260595134347_rgbf000089-resize_1/001571_2014-06-20_17-21-32_260595134347_rgbf000089-resize_1-target.png,1000,1.86,2,6527,995,meters,jsons/v1_VE1000_randls_9_rotated.json,1051571,1495218,30,Woman
85,841555,DepthScenes,duration_manipulation_targetAtFixation,jsons/v1_VE1000_randls_9_rotated.json,http://54.235.29.9/FacialAge/BNav_EC2/DepthDuration/v2_depth_duration_MTurk/v2_DepthDuration_HTML.html#21,21,1821,1024,1366,768,8-22-2022,5-12-49,86,depth_duration_stimuli/002272_2014-06-28_18-53-56_260595134347_rgbf000067-resize_2/002272_2014-06-28_18-53-56_260595134347_rgbf000067-resize_2-target.png,1000,1.138,2,5022,1000,meters,jsons/v1_VE1000_randls_9_rotated.json,1051571,1495218,30,Woman
86,841555,DepthScenes,duration_manipulation_targetAtFixation,jsons/v1_VE1000_randls_9_rotated.json,http://54.235.29.9/FacialAge/BNav_EC2/DepthDuration/v2_depth_duration_MTurk/v2_DepthDuration_HTML.html#21,21,1821,1024,1366,768,8-22-2022,5-12-49,87,depth_duration_stimuli/000749_2014-06-08_21-55-06_260595134347_rgbf000070-resize_2/000749_2014-06-08_21-55-06_260595134347_rgbf000070-resize_2-target.png,1000,2.331,4,2841,989,meters,jsons/v1_VE1000_randls_9_rotated.json,1051571,1495218,30,Woman
87,841555,DepthScenes,duration_manipulation_targetAtFixation,jsons/v1_VE1000_randls_9_rotated.json,http://54.235.29.9/FacialAge/BNav_EC2/DepthDuration/v2_depth_duration_MTurk/v2_DepthDuration_HTML.html#21,21,1821,1024,1366,768,8-22-2022,5-12-49,88,depth_duration_stimuli/002788_2014-06-22_19-36-03_094959634447_rgbf000088-resize_2/002788_2014-06-22_19-36-03_094959634447_rgbf000088-resize_2-target.png,1000,1.6465,2,4222,999,meters,jsons/v1_VE1000_randls_9_rotated.json,1051571,1495218,30,Woman
88,841555,DepthScenes,duration_manipulation_targetAtFixation,jsons/v1_VE1000_randls_9_rotated.json,http://54.235.29.9/FacialAge/BNav_EC2/DepthDuration/v2_depth_duration_MTurk/v2_DepthDuration_HTML.html#21,21,1821,1024,1366,768,8-22-2022,5-12-49,89,depth_duration_stimuli/000677_2014-06-08_23-10-32_260595134347_rgbf000158-resize_6/000677_2014-06-08_23-10-32_260595134347_rgbf000158-resize_6-target.png,1000,3.556,2,2781,589,meters,jsons/v1_VE1000_randls_9_rotated.json,1051571,1495218,30,Woman
89,841555,DepthScenes,duration_manipulation_targetAtFixation,jsons/v1_VE1000_randls_9_rotated.json,http://54.235.29.9/FacialAge/BNav_EC2/DepthDuration/v2_depth_duration_MTurk/v2_DepthDuration_HTML.html#21,21,1821,1024,1366,768,8-22-2022,5-12-49,90,depth_duration_stimuli/001029_2014-06-08_13-17-57_260595134347_rgbf000065-resize_1/001029_2014-06-08_13-17-57_260595134347_rgbf000065-resize_1-target.png,1000,3.0835,2,3733,1041,meters,jsons/v1_VE1000_randls_9_rotated.json,1051571,1495218,30,Woman
90,841555,DepthScenes,duration_manipulation_targetAtFixation,jsons/v1_VE1000_randls_9_rotated.json,http://54.235.29.9/FacialAge/BNav_EC2/DepthDuration/v2_depth_duration_MTurk/v2_DepthDuration_HTML.html#21,21,1821,1024,1366,768,8-22-2022,5-12-49,91,depth_duration_stimuli/002568_2014-06-24_13-59-21_094959634447_rgbf000062-resize_4/002568_2014-06-24_13-59-21_094959634447_rgbf000062-resize_4-target.png,1000,3.015,2,4138,798,meters,jsons/v1_VE1000_randls_9_rotated.json,1051571,1495218,30,Woman
91,841555,DepthScenes,duration_manipulation_targetAtFixation,jsons/v1_VE1000_randls_9_rotated.json,http://54.235.29.9/FacialAge/BNav_EC2/DepthDuration/v2_depth_duration_MTurk/v2_DepthDuration_HTML.html#21,21,1821,1024,1366,768,8-22-2022,5-12-49,92,depth_duration_stimuli/003492_2014-05-21_15-50-55_094959634447_rgbf000828-resize_1/003492_2014-05-21_15-50-55_094959634447_rgbf000828-resize_1-target.png,1000,4.06875,2,3458,966,meters,jsons/v1_VE1000_randls_9_rotated.json,1051571,1495218,30,Woman
92,841555,DepthScenes,duration_manipulation_targetAtFixation,jsons/v1_VE1000_randls_9_rotated.json,http://54.235.29.9/FacialAge/BNav_EC2/DepthDuration/v2_depth_duration_MTurk/v2_DepthDuration_HTML.html#21,21,1821,1024,1366,768,8-22-2022,5-12-49,93,depth_duration_stimuli/002949_2014-06-26_15-57-42_094959634447_rgbf000079-resize_1/002949_2014-06-26_15-57-42_094959634447_rgbf000079-resize_1-target.png,1000,1.8915,2,4700,1012,meters,jsons/v1_VE1000_randls_9_rotated.json,1051571,1495218,30,Woman
93,841555,DepthScenes,duration_manipulation_targetAtFixation,jsons/v1_VE1000_randls_9_rotated.json,http://54.235.29.9/FacialAge/BNav_EC2/DepthDuration/v2_depth_duration_MTurk/v2_DepthDuration_HTML.html#21,21,1821,1024,1366,768,8-22-2022,5-12-49,94,depth_duration_stimuli/000522_2014-06-08_13-35-06_260595134347_rgbf000244-resize_1/000522_2014-06-08_13-35-06_260595134347_rgbf000244-resize_1-target.png,1000,2.3715,2,3748,1014,meters,jsons/v1_VE1000_randls_9_rotated.json,1051571,1495218,30,Woman
94,841555,DepthScenes,duration_manipulation_targetAtFixation,jsons/v1_VE1000_randls_9_rotated.json,http://54.235.29.9/FacialAge/BNav_EC2/DepthDuration/v2_depth_duration_MTurk/v2_DepthDuration_HTML.html#21,21,1821,1024,1366,768,8-22-2022,5-12-49,95,depth_duration_stimuli/003083_2014-06-15_15-21-03_094959634447_rgbf000063-resize_1/003083_2014-06-15_15-21-03_094959634447_rgbf000063-resize_1-target.png,1000,4.1405,2,4312,1057,meters,jsons/v1_VE1000_randls_9_rotated.json,1051571,1495218,30,Woman
95,841555,DepthScenes,duration_manipulation_targetAtFixation,jsons/v1_VE1000_randls_9_rotated.json,http://54.235.29.9/FacialAge/BNav_EC2/DepthDuration/v2_depth_duration_MTurk/v2_DepthDuration_HTML.html#21,21,1821,1024,1366,768,8-22-2022,5-12-49,96,depth_duration_stimuli/000486_2014-06-09_20-47-20_260595134347_rgbf000143-resize_2/000486_2014-06-09_20-47-20_260595134347_rgbf000143-resize_2-target.png,1000,4.8325,2,2476,627,meters,jsons/v1_VE1000_randls_9_rotated.json,1051571,1495218,30,Woman
96,841555,DepthScenes,duration_manipulation_targetAtFixation,jsons/v1_VE1000_randls_9_rotated.json,http://54.235.29.9/FacialAge/BNav_EC2/DepthDuration/v2_depth_duration_MTurk/v2_DepthDuration_HTML.html#21,21,1821,1024,1366,768,8-22-2022,5-12-49,97,depth_duration_stimuli/001094_2014-06-15_17-36-00_260595134347_rgbf000205-resize_0/001094_2014-06-15_17-36-00_260595134347_rgbf000205-resize_0-target.png,1000,4.2175,3,2675,1512,meters,jsons/v1_VE1000_randls_9_rotated.json,1051571,1495218,30,Woman
97,841555,DepthScenes,duration_manipulation_targetAtFixation,jsons/v1_VE1000_randls_9_rotated.json,http://54.235.29.9/FacialAge/BNav_EC2/DepthDuration/v2_depth_duration_MTurk/v2_DepthDuration_HTML.html#21,21,1821,1024,1366,768,8-22-2022,5-12-49,98,depth_duration_stimuli/000692_2014-06-08_13-09-42_260595134347_rgbf000199-resize_2/000692_2014-06-08_13-09-42_260595134347_rgbf000199-resize_2-target.png,1000,3.661,1,3242,943,meters,jsons/v1_VE1000_randls_9_rotated.json,1051571,1495218,30,Woman
98,841555,DepthScenes,duration_manipulation_targetAtFixation,jsons/v1_VE1000_randls_9_rotated.json,http://54.235.29.9/FacialAge/BNav_EC2/DepthDuration/v2_depth_duration_MTurk/v2_DepthDuration_HTML.html#21,21,1821,1024,1366,768,8-22-2022,5-12-49,99,depth_duration_stimuli/001222_2014-06-17_16-24-06_260595134347_rgbf000073-resize_0/001222_2014-06-17_16-24-06_260595134347_rgbf000073-resize-original.jpg,1000,1.4385,5,4987,1168,meters,jsons/v1_VE1000_randls_9_rotated.json,1051571,1495218,30,Woman
99,841555,DepthScenes,duration_manipulation_targetAtFixation,jsons/v1_VE1000_randls_9_rotated.json,http://54.235.29.9/FacialAge/BNav_EC2/DepthDuration/v2_depth_duration_MTurk/v2_DepthDuration_HTML.html#21,21,1821,1024,1366,768,8-22-2022,5-12-49,100,depth_duration_stimuli/002657_2014-06-13_15-29-54_094959634447_rgbf000150-resize_1/002657_2014-06-13_15-29-54_094959634447_rgbf000150-resize_1-target.png,1000,4.919,5,4327,990,meters,jsons/v1_VE1000_randls_9_rotated.json,1051571,1495218,30,Woman
100,841555,DepthScenes,duration_manipulation_targetAtFixation,jsons/v1_VE1000_randls_9_rotated.json,http://54.235.29.9/FacialAge/BNav_EC2/DepthDuration/v2_depth_duration_MTurk/v2_DepthDuration_HTML.html#21,21,1821,1024,1366,768,8-22-2022,5-12-49,101,depth_duration_stimuli/002375_2014-06-28_20-13-44_260595134347_rgbf000032-resize_1/002375_2014-06-28_20-13-44_260595134347_rgbf000032-resize_1-target.png,1000,4.0175,2,4808,1000,meters,jsons/v1_VE1000_randls_9_rotated.json,1051571,1495218,30,Woman
101,841555,DepthScenes,duration_manipulation_targetAtFixation,jsons/v1_VE1000_randls_9_rotated.json,http://54.235.29.9/FacialAge/BNav_EC2/DepthDuration/v2_depth_duration_MTurk/v2_DepthDuration_HTML.html#21,21,1821,1024,1366,768,8-22-2022,5-12-49,102,depth_duration_stimuli/001136_2014-06-17_15-19-41_260595134347_rgbf000076-resize_3/001136_2014-06-17_15-19-41_260595134347_rgbf000076-resize_3-target.png,1000,1.8655,2,3582,1001,meters,jsons/v1_VE1000_randls_9_rotated.json,1051571,1495218,30,Woman
102,841555,DepthScenes,duration_manipulation_targetAtFixation,jsons/v1_VE1000_randls_9_rotated.json,http://54.235.29.9/FacialAge/BNav_EC2/DepthDuration/v2_depth_duration_MTurk/v2_DepthDuration_HTML.html#21,21,1821,1024,1366,768,8-22-2022,5-12-49,103,depth_duration_stimuli/001164_2014-06-17_15-35-46_260595134347_rgbf000085-resize_3/001164_2014-06-17_15-35-46_260595134347_rgbf000085-resize_3-target.png,1000,2.354,1,5686,984,meters,jsons/v1_VE1000_randls_9_rotated.json,1051571,1495218,30,Woman
103,841555,DepthScenes,duration_manipulation_targetAtFixation,jsons/v1_VE1000_randls_9_rotated.json,http://54.235.29.9/FacialAge/BNav_EC2/DepthDuration/v2_depth_duration_MTurk/v2_DepthDuration_HTML.html#21,21,1821,1024,1366,768,8-22-2022,5-12-49,104,depth_duration_stimuli/000780_2014-06-08_22-28-29_260595134347_rgbf000126-resize_1/000780_2014-06-08_22-28-29_260595134347_rgbf000126-resize_1-target.png,1000,3.3825,1,4568,996,meters,jsons/v1_VE1000_randls_9_rotated.json,1051571,1495218,30,Woman
104,841555,DepthScenes,duration_manipulation_targetAtFixation,jsons/v1_VE1000_randls_9_rotated.json,http://54.235.29.9/FacialAge/BNav_EC2/DepthDuration/v2_depth_duration_MTurk/v2_DepthDuration_HTML.html#21,21,1821,1024,1366,768,8-22-2022,5-12-49,105,depth_duration_stimuli/002445_2014-06-28_20-32-16_260595134347_rgbf000029-resize_4/002445_2014-06-28_20-32-16_260595134347_rgbf000029-resize_4-target.png,1000,2.5315,2,3626,778,meters,jsons/v1_VE1000_randls_9_rotated.json,1051571,1495218,30,Woman
105,841555,DepthScenes,duration_manipulation_targetAtFixation,jsons/v1_VE1000_randls_9_rotated.json,http://54.235.29.9/FacialAge/BNav_EC2/DepthDuration/v2_depth_duration_MTurk/v2_DepthDuration_HTML.html#21,21,1821,1024,1366,768,8-22-2022,5-12-49,106,depth_duration_stimuli/000665_2014-06-09_20-42-35_260595134347_rgbf000110-resize_1/000665_2014-06-09_20-42-35_260595134347_rgbf000110-resize_1-target.png,1000,3.057,2,3918,996,meters,jsons/v1_VE1000_randls_9_rotated.json,1051571,1495218,30,Woman
106,841555,DepthScenes,duration_manipulation_targetAtFixation,jsons/v1_VE1000_randls_9_rotated.json,http://54.235.29.9/FacialAge/BNav_EC2/DepthDuration/v2_depth_duration_MTurk/v2_DepthDuration_HTML.html#21,21,1821,1024,1366,768,8-22-2022,5-12-49,107,depth_duration_stimuli/001150_2014-06-17_15-27-34_260595134347_rgbf000108-resize_2/001150_2014-06-17_15-27-34_260595134347_rgbf000108-resize_2-target.png,1000,4.0325,2,8683,998,meters,jsons/v1_VE1000_randls_9_rotated.json,1051571,1495218,30,Woman
107,841555,DepthScenes,duration_manipulation_targetAtFixation,jsons/v1_VE1000_randls_9_rotated.json,http://54.235.29.9/FacialAge/BNav_EC2/DepthDuration/v2_depth_duration_MTurk/v2_DepthDuration_HTML.html#21,21,1821,1024,1366,768,8-22-2022,5-12-49,108,depth_duration_stimuli/003228_2014-05-14_13-42-35_094959634447_rgbf000101-resize_1/003228_2014-05-14_13-42-35_094959634447_rgbf000101-resize_1-target.png,1000,1.9680000000000002,1,7268,922,meters,jsons/v1_VE1000_randls_9_rotated.json,1051571,1495218,30,Woman
108,841555,DepthScenes,duration_manipulation_targetAtFixation,jsons/v1_VE1000_randls_9_rotated.json,http://54.235.29.9/FacialAge/BNav_EC2/DepthDuration/v2_depth_duration_MTurk/v2_DepthDuration_HTML.html#21,21,1821,1024,1366,768,8-22-2022,5-12-49,109,depth_duration_stimuli/002600_2014-06-24_14-27-04_094959634447_rgbf000074-resize_2/002600_2014-06-24_14-27-04_094959634447_rgbf000074-resize_2-target.png,1000,2.7575,2,8470,998,meters,jsons/v1_VE1000_randls_9_rotated.json,1051571,1495218,30,Woman
109,841555,DepthScenes,duration_manipulation_targetAtFixation,jsons/v1_VE1000_randls_9_rotated.json,http://54.235.29.9/FacialAge/BNav_EC2/DepthDuration/v2_depth_duration_MTurk/v2_DepthDuration_HTML.html#21,21,1821,1024,1366,768,8-22-2022,5-12-49,110,depth_duration_stimuli/001032_2014-06-08_13-23-17_260595134347_rgbf000021-resize_3/001032_2014-06-08_13-23-17_260595134347_rgbf000021-resize_3-target.png,1000,3.2725,2,6803,994,meters,jsons/v1_VE1000_randls_9_rotated.json,1051571,1495218,30,Woman
110,841555,DepthScenes,duration_manipulation_targetAtFixation,jsons/v1_VE1000_randls_9_rotated.json,http://54.235.29.9/FacialAge/BNav_EC2/DepthDuration/v2_depth_duration_MTurk/v2_DepthDuration_HTML.html#21,21,1821,1024,1366,768,8-22-2022,5-12-49,111,depth_duration_stimuli/001059_2014-06-08_21-53-27_260595134347_rgbf000061-resize_4/001059_2014-06-08_21-53-27_260595134347_rgbf000061-resize_4-target.png,1000,2.4185,2,7314,994,meters,jsons/v1_VE1000_randls_9_rotated.json,1051571,1495218,30,Woman
111,841555,DepthScenes,duration_manipulation_targetAtFixation,jsons/v1_VE1000_randls_9_rotated.json,http://54.235.29.9/FacialAge/BNav_EC2/DepthDuration/v2_depth_duration_MTurk/v2_DepthDuration_HTML.html#21,21,1821,1024,1366,768,8-22-2022,5-12-49,112,depth_duration_stimuli/002995_2014-06-15_12-31-26_094959634447_rgbf000150-resize_1/002995_2014-06-15_12-31-26_094959634447_rgbf000150-resize_1-target.png,1000,3.8360000000000003,2,11084,998,meters,jsons/v1_VE1000_randls_9_rotated.json,1051571,1495218,30,Woman
112,841555,DepthScenes,duration_manipulation_targetAtFixation,jsons/v1_VE1000_randls_9_rotated.json,http://54.235.29.9/FacialAge/BNav_EC2/DepthDuration/v2_depth_duration_MTurk/v2_DepthDuration_HTML.html#21,21,1821,1024,1366,768,8-22-2022,5-12-49,113,depth_duration_stimuli/002748_2014-06-22_19-07-22_094959634447_rgbf000078-resize_1/002748_2014-06-22_19-07-22_094959634447_rgbf000078-resize_1-target.png,1000,4.6705,3,3336,780,meters,jsons/v1_VE1000_randls_9_rotated.json,1051571,1495218,30,Woman
113,841555,DepthScenes,duration_manipulation_targetAtFixation,jsons/v1_VE1000_randls_9_rotated.json,http://54.235.29.9/FacialAge/BNav_EC2/DepthDuration/v2_depth_duration_MTurk/v2_DepthDuration_HTML.html#21,21,1821,1024,1366,768,8-22-2022,5-12-49,114,depth_duration_stimuli/000191_2014-05-12_17-07-38_260595134347_rgbf000199-resize_0/000191_2014-05-12_17-07-38_260595134347_rgbf000199-resize_0-target.png,1000,3.7995,2,5310,536,meters,jsons/v1_VE1000_randls_9_rotated.json,1051571,1495218,30,Woman
114,841555,DepthScenes,duration_manipulation_targetAtFixation,jsons/v1_VE1000_randls_9_rotated.json,http://54.235.29.9/FacialAge/BNav_EC2/DepthDuration/v2_depth_duration_MTurk/v2_DepthDuration_HTML.html#21,21,1821,1024,1366,768,8-22-2022,5-12-49,115,depth_duration_stimuli/000493_2014-06-09_21-01-18_260595134347_rgbf000196-resize_3/000493_2014-06-09_21-01-18_260595134347_rgbf000196-resize_3-target.png,1000,3.44,12,3746,1000,meters,jsons/v1_VE1000_randls_9_rotated.json,1051571,1495218,30,Woman
115,841555,DepthScenes,duration_manipulation_targetAtFixation,jsons/v1_VE1000_randls_9_rotated.json,http://54.235.29.9/FacialAge/BNav_EC2/DepthDuration/v2_depth_duration_MTurk/v2_DepthDuration_HTML.html#21,21,1821,1024,1366,768,8-22-2022,5-12-49,116,depth_duration_stimuli/001235_2014-06-17_16-37-36_260595134347_rgbf000084-resize_4/001235_2014-06-17_16-37-36_260595134347_rgbf000084-resize_4-target.png,1000,3.6605,2,4585,997,meters,jsons/v1_VE1000_randls_9_rotated.json,1051571,1495218,30,Woman
116,841555,DepthScenes,duration_manipulation_targetAtFixation,jsons/v1_VE1000_randls_9_rotated.json,http://54.235.29.9/FacialAge/BNav_EC2/DepthDuration/v2_depth_duration_MTurk/v2_DepthDuration_HTML.html#21,21,1821,1024,1366,768,8-22-2022,5-12-49,117,depth_duration_stimuli/000788_2014-06-08_22-34-36_260595134347_rgbf000131-resize_1/000788_2014-06-08_22-34-36_260595134347_rgbf000131-resize_1-target.png,1000,3.359,2,5850,986,meters,jsons/v1_VE1000_randls_9_rotated.json,1051571,1495218,30,Woman
117,841555,DepthScenes,duration_manipulation_targetAtFixation,jsons/v1_VE1000_randls_9_rotated.json,http://54.235.29.9/FacialAge/BNav_EC2/DepthDuration/v2_depth_duration_MTurk/v2_DepthDuration_HTML.html#21,21,1821,1024,1366,768,8-22-2022,5-12-49,118,depth_duration_stimuli/000502_2014-06-08_23-02-32_260595134347_rgbf000063-resize_4/000502_2014-06-08_23-02-32_260595134347_rgbf000063-resize_4-target.png,1000,2.431,2,4876,996,meters,jsons/v1_VE1000_randls_9_rotated.json,1051571,1495218,30,Woman
118,841555,DepthScenes,duration_manipulation_targetAtFixation,jsons/v1_VE1000_randls_9_rotated.json,http://54.235.29.9/FacialAge/BNav_EC2/DepthDuration/v2_depth_duration_MTurk/v2_DepthDuration_HTML.html#21,21,1821,1024,1366,768,8-22-2022,5-12-49,119,depth_duration_stimuli/001199_2014-06-17_16-03-48_260595134347_rgbf000077-resize_0/001199_2014-06-17_16-03-48_260595134347_rgbf000077-resize_0-target.png,1000,3.4375,2,3297,1240,meters,jsons/v1_VE1000_randls_9_rotated.json,1051571,1495218,30,Woman
119,841555,DepthScenes,duration_manipulation_targetAtFixation,jsons/v1_VE1000_randls_9_rotated.json,http://54.235.29.9/FacialAge/BNav_EC2/DepthDuration/v2_depth_duration_MTurk/v2_DepthDuration_HTML.html#21,21,1821,1024,1366,768,8-22-2022,5-12-49,120,depth_duration_stimuli/000787_2014-06-08_22-33-53_260595134347_rgbf000175-resize_1/000787_2014-06-08_22-33-53_260595134347_rgbf000175-resize-original.jpg,1000,4.784,3,2874,1232,meters,jsons/v1_VE1000_randls_9_rotated.json,1051571,1495218,30,Woman
120,841555,DepthScenes,duration_manipulation_targetAtFixation,jsons/v1_VE1000_randls_9_rotated.json,http://54.235.29.9/FacialAge/BNav_EC2/DepthDuration/v2_depth_duration_MTurk/v2_DepthDuration_HTML.html#21,21,1821,1024,1366,768,8-22-2022,5-12-49,121,depth_duration_stimuli/001815_2014-06-26_20-52-55_260595134347_rgbf000020-resize_0/001815_2014-06-26_20-52-55_260595134347_rgbf000020-resize_0-target.png,1000,3.3865,3,3897,994,meters,jsons/v1_VE1000_randls_9_rotated.json,1051571,1495218,30,Woman
121,841555,DepthScenes,duration_manipulation_targetAtFixation,jsons/v1_VE1000_randls_9_rotated.json,http://54.235.29.9/FacialAge/BNav_EC2/DepthDuration/v2_depth_duration_MTurk/v2_DepthDuration_HTML.html#21,21,1821,1024,1366,768,8-22-2022,5-12-49,122,depth_duration_stimuli/001808_2014-06-26_20-50-58_260595134347_rgbf000029-resize_1/001808_2014-06-26_20-50-58_260595134347_rgbf000029-resize_1-target.png,1000,4.249,6,5856,1557,meters,jsons/v1_VE1000_randls_9_rotated.json,1051571,1495218,30,Woman
122,841555,DepthScenes,duration_manipulation_targetAtFixation,jsons/v1_VE1000_randls_9_rotated.json,http://54.235.29.9/FacialAge/BNav_EC2/DepthDuration/v2_depth_duration_MTurk/v2_DepthDuration_HTML.html#21,21,1821,1024,1366,768,8-22-2022,5-12-49,123,depth_duration_stimuli/001584_2014-06-20_11-07-43_260595134347_rgbf000002-resize_1/001584_2014-06-20_11-07-43_260595134347_rgbf000002-resize_1-target.png,1000,3.53,1,6009,999,meters,jsons/v1_VE1000_randls_9_rotated.json,1051571,1495218,30,Woman
123,841555,DepthScenes,duration_manipulation_targetAtFixation,jsons/v1_VE1000_randls_9_rotated.json,http://54.235.29.9/FacialAge/BNav_EC2/DepthDuration/v2_depth_duration_MTurk/v2_DepthDuration_HTML.html#21,21,1821,1024,1366,768,8-22-2022,5-12-49,124,depth_duration_stimuli/003621_2014-05-23_18-06-08_094959634447_rgbf000101-resize_1/003621_2014-05-23_18-06-08_094959634447_rgbf000101-resize_1-target.png,1000,3.9835,2,3600,999,meters,jsons/v1_VE1000_randls_9_rotated.json,1051571,1495218,30,Woman
124,841555,DepthScenes,duration_manipulation_targetAtFixation,jsons/v1_VE1000_randls_9_rotated.json,http://54.235.29.9/FacialAge/BNav_EC2/DepthDuration/v2_depth_duration_MTurk/v2_DepthDuration_HTML.html#21,21,1821,1024,1366,768,8-22-2022,5-12-49,125,depth_duration_stimuli/001132_2014-06-17_14-48-54_260595134347_rgbf000100-resize_2/001132_2014-06-17_14-48-54_260595134347_rgbf000100-resize_2-target.png,1000,3.753,3,3057,610,meters,jsons/v1_VE1000_randls_9_rotated.json,1051571,1495218,30,Woman
125,841555,DepthScenes,duration_manipulation_targetAtFixation,jsons/v1_VE1000_randls_9_rotated.json,http://54.235.29.9/FacialAge/BNav_EC2/DepthDuration/v2_depth_duration_MTurk/v2_DepthDuration_HTML.html#21,21,1821,1024,1366,768,8-22-2022,5-12-49,126,depth_duration_stimuli/001133_2014-06-17_14-49-16_260595134347_rgbf000100-resize_0/001133_2014-06-17_14-49-16_260595134347_rgbf000100-resize_0-target.png,1000,4.2115,2,2515,509,meters,jsons/v1_VE1000_randls_9_rotated.json,1051571,1495218,30,Woman
126,841555,DepthScenes,duration_manipulation_targetAtFixation,jsons/v1_VE1000_randls_9_rotated.json,http://54.235.29.9/FacialAge/BNav_EC2/DepthDuration/v2_depth_duration_MTurk/v2_DepthDuration_HTML.html#21,21,1821,1024,1366,768,8-22-2022,5-12-49,127,depth_duration_stimuli/002103_2014-06-25_20-00-40_260595134347_rgbf000049-resize_0/002103_2014-06-25_20-00-40_260595134347_rgbf000049-resize_0-target.png,1000,4.105,2,3413,1050,meters,jsons/v1_VE1000_randls_9_rotated.json,1051571,1495218,30,Woman
127,841555,DepthScenes,duration_manipulation_targetAtFixation,jsons/v1_VE1000_randls_9_rotated.json,http://54.235.29.9/FacialAge/BNav_EC2/DepthDuration/v2_depth_duration_MTurk/v2_DepthDuration_HTML.html#21,21,1821,1024,1366,768,8-22-2022,5-12-49,128,depth_duration_stimuli/002039_2014-06-24_20-22-38_260595134347_rgbf000084-resize_1/002039_2014-06-24_20-22-38_260595134347_rgbf000084-resize_1-target.png,1000,4.408,2,3817,1221,meters,jsons/v1_VE1000_randls_9_rotated.json,1051571,1495218,30,Woman
128,841555,DepthScenes,duration_manipulation_targetAtFixation,jsons/v1_VE1000_randls_9_rotated.json,http://54.235.29.9/FacialAge/BNav_EC2/DepthDuration/v2_depth_duration_MTurk/v2_DepthDuration_HTML.html#21,21,1821,1024,1366,768,8-22-2022,5-12-49,129,depth_duration_stimuli/003495_2014-05-21_16-01-51_094959634447_rgbf000100-resize_3/003495_2014-05-21_16-01-51_094959634447_rgbf000100-resize_3-target.png,1000,1.6255,2,3691,995,meters,jsons/v1_VE1000_randls_9_rotated.json,1051571,1495218,30,Woman
129,841555,DepthScenes,duration_manipulation_targetAtFixation,jsons/v1_VE1000_randls_9_rotated.json,http://54.235.29.9/FacialAge/BNav_EC2/DepthDuration/v2_depth_duration_MTurk/v2_DepthDuration_HTML.html#21,21,1821,1024,1366,768,8-22-2022,5-12-49,130,depth_duration_stimuli/001244_2014-06-17_16-47-45_260595134347_rgbf000030-resize_4/001244_2014-06-17_16-47-45_260595134347_rgbf000030-resize_4-target.png,1000,2.0425,2,3233,762,meters,jsons/v1_VE1000_randls_9_rotated.json,1051571,1495218,30,Woman
130,841555,DepthScenes,duration_manipulation_targetAtFixation,jsons/v1_VE1000_randls_9_rotated.json,http://54.235.29.9/FacialAge/BNav_EC2/DepthDuration/v2_depth_duration_MTurk/v2_DepthDuration_HTML.html#21,21,1821,1024,1366,768,8-22-2022,5-12-49,131,depth_duration_stimuli/000927_2014-06-09_16-32-30_260595134347_rgbf000123-resize_3/000927_2014-06-09_16-32-30_260595134347_rgbf000123-resize_3-target.png,1000,2.6785,2,5635,998,meters,jsons/v1_VE1000_randls_9_rotated.json,1051571,1495218,30,Woman
131,841555,DepthScenes,duration_manipulation_targetAtFixation,jsons/v1_VE1000_randls_9_rotated.json,http://54.235.29.9/FacialAge/BNav_EC2/DepthDuration/v2_depth_duration_MTurk/v2_DepthDuration_HTML.html#21,21,1821,1024,1366,768,8-22-2022,5-12-49,132,depth_duration_stimuli/001110_2014-06-15_17-25-28_260595134347_rgbf000150-resize_1/001110_2014-06-15_17-25-28_260595134347_rgbf000150-resize_1-target.png,1000,1.7115,2,7542,1160,meters,jsons/v1_VE1000_randls_9_rotated.json,1051571,1495218,30,Woman
132,841555,DepthScenes,duration_manipulation_targetAtFixation,jsons/v1_VE1000_randls_9_rotated.json,http://54.235.29.9/FacialAge/BNav_EC2/DepthDuration/v2_depth_duration_MTurk/v2_DepthDuration_HTML.html#21,21,1821,1024,1366,768,8-22-2022,5-12-49,133,depth_duration_stimuli/000943_2014-06-09_19-31-07_260595134347_rgbf000128-resize_1/000943_2014-06-09_19-31-07_260595134347_rgbf000128-resize_1-target.png,1000,1.9765,2,4336,999,meters,jsons/v1_VE1000_randls_9_rotated.json,1051571,1495218,30,Woman
133,841555,DepthScenes,duration_manipulation_targetAtFixation,jsons/v1_VE1000_randls_9_rotated.json,http://54.235.29.9/FacialAge/BNav_EC2/DepthDuration/v2_depth_duration_MTurk/v2_DepthDuration_HTML.html#21,21,1821,1024,1366,768,8-22-2022,5-12-49,134,depth_duration_stimuli/003070_2014-06-15_14-58-27_094959634447_rgbf000150-resize_3/003070_2014-06-15_14-58-27_094959634447_rgbf000150-resize_3-target.png,1000,2.9415,1,4079,1103,meters,jsons/v1_VE1000_randls_9_rotated.json,1051571,1495218,30,Woman
134,841555,DepthScenes,duration_manipulation_targetAtFixation,jsons/v1_VE1000_randls_9_rotated.json,http://54.235.29.9/FacialAge/BNav_EC2/DepthDuration/v2_depth_duration_MTurk/v2_DepthDuration_HTML.html#21,21,1821,1024,1366,768,8-22-2022,5-12-49,135,depth_duration_stimuli/000375_2014-06-08_11-17-29_260595134347_rgbf000133-resize_2/000375_2014-06-08_11-17-29_260595134347_rgbf000133-resize-original.jpg,1000,4.718,2,8551,997,meters,jsons/v1_VE1000_randls_9_rotated.json,1051571,1495218,30,Woman
135,841555,DepthScenes,duration_manipulation_targetAtFixation,jsons/v1_VE1000_randls_9_rotated.json,http://54.235.29.9/FacialAge/BNav_EC2/DepthDuration/v2_depth_duration_MTurk/v2_DepthDuration_HTML.html#21,21,1821,1024,1366,768,8-22-2022,5-12-49,136,depth_duration_stimuli/002545_2014-06-24_13-38-53_094959634447_rgbf000080-resize_4/002545_2014-06-24_13-38-53_094959634447_rgbf000080-resize_4-target.png,1000,1.9205,2,3235,996,meters,jsons/v1_VE1000_randls_9_rotated.json,1051571,1495218,30,Woman
136,841555,DepthScenes,duration_manipulation_targetAtFixation,jsons/v1_VE1000_randls_9_rotated.json,http://54.235.29.9/FacialAge/BNav_EC2/DepthDuration/v2_depth_duration_MTurk/v2_DepthDuration_HTML.html#21,21,1821,1024,1366,768,8-22-2022,5-12-49,137,depth_duration_stimuli/001092_2014-06-15_17-34-58_260595134347_rgbf000171-resize_3/001092_2014-06-15_17-34-58_260595134347_rgbf000171-resize_3-target.png,1000,2.6935,2,4895,992,meters,jsons/v1_VE1000_randls_9_rotated.json,1051571,1495218,30,Woman
137,841555,DepthScenes,duration_manipulation_targetAtFixation,jsons/v1_VE1000_randls_9_rotated.json,http://54.235.29.9/FacialAge/BNav_EC2/DepthDuration/v2_depth_duration_MTurk/v2_DepthDuration_HTML.html#21,21,1821,1024,1366,768,8-22-2022,5-12-49,138,depth_duration_stimuli/003081_2014-06-15_15-19-16_094959634447_rgbf000150-resize_1/003081_2014-06-15_15-19-16_094959634447_rgbf000150-resize_1-target.png,1000,3.9125,2,3073,996,meters,jsons/v1_VE1000_randls_9_rotated.json,1051571,1495218,30,Woman
138,841555,DepthScenes,duration_manipulation_targetAtFixation,jsons/v1_VE1000_randls_9_rotated.json,http://54.235.29.9/FacialAge/BNav_EC2/DepthDuration/v2_depth_duration_MTurk/v2_DepthDuration_HTML.html#21,21,1821,1024,1366,768,8-22-2022,5-12-49,139,depth_duration_stimuli/001417_2014-06-19_16-25-36_260595134347_rgbf000115-resize_5/001417_2014-06-19_16-25-36_260595134347_rgbf000115-resize_5-target.png,1000,4.6255,3,3020,1126,meters,jsons/v1_VE1000_randls_9_rotated.json,1051571,1495218,30,Woman
139,841555,DepthScenes,duration_manipulation_targetAtFixation,jsons/v1_VE1000_randls_9_rotated.json,http://54.235.29.9/FacialAge/BNav_EC2/DepthDuration/v2_depth_duration_MTurk/v2_DepthDuration_HTML.html#21,21,1821,1024,1366,768,8-22-2022,5-12-49,140,depth_duration_stimuli/002953_2014-06-08_17-32-18_094959634447_rgbf000059-resize_5/002953_2014-06-08_17-32-18_094959634447_rgbf000059-resize_5-target.png,1000,1.551,2,8215,1005,meters,jsons/v1_VE1000_randls_9_rotated.json,1051571,1495218,30,Woman
140,841555,DepthScenes,duration_manipulation_targetAtFixation,jsons/v1_VE1000_randls_9_rotated.json,http://54.235.29.9/FacialAge/BNav_EC2/DepthDuration/v2_depth_duration_MTurk/v2_DepthDuration_HTML.html#21,21,1821,1024,1366,768,8-22-2022,5-12-49,141,depth_duration_stimuli/000878_2014-06-08_22-52-45_260595134347_rgbf000045-resize_2/000878_2014-06-08_22-52-45_260595134347_rgbf000045-resize_2-target.png,1000,2.092,1,8320,1491,meters,jsons/v1_VE1000_randls_9_rotated.json,1051571,1495218,30,Woman
141,841555,DepthScenes,duration_manipulation_targetAtFixation,jsons/v1_VE1000_randls_9_rotated.json,http://54.235.29.9/FacialAge/BNav_EC2/DepthDuration/v2_depth_duration_MTurk/v2_DepthDuration_HTML.html#21,21,1821,1024,1366,768,8-22-2022,5-12-49,142,depth_duration_stimuli/003587_2014-05-23_16-48-02_094959634447_rgbf002384-resize_2/003587_2014-05-23_16-48-02_094959634447_rgbf002384-resize_2-target.png,1000,1.357,2,4476,814,meters,jsons/v1_VE1000_randls_9_rotated.json,1051571,1495218,30,Woman
142,841555,DepthScenes,duration_manipulation_targetAtFixation,jsons/v1_VE1000_randls_9_rotated.json,http://54.235.29.9/FacialAge/BNav_EC2/DepthDuration/v2_depth_duration_MTurk/v2_DepthDuration_HTML.html#21,21,1821,1024,1366,768,8-22-2022,5-12-49,143,depth_duration_stimuli/001167_2014-06-17_15-38-07_260595134347_rgbf000108-resize_0/001167_2014-06-17_15-38-07_260595134347_rgbf000108-resize_0-target.png,1000,1.8505,5,4506,1000,meters,jsons/v1_VE1000_randls_9_rotated.json,1051571,1495218,30,Woman
143,841555,DepthScenes,duration_manipulation_targetAtFixation,jsons/v1_VE1000_randls_9_rotated.json,http://54.235.29.9/FacialAge/BNav_EC2/DepthDuration/v2_depth_duration_MTurk/v2_DepthDuration_HTML.html#21,21,1821,1024,1366,768,8-22-2022,5-12-49,144,depth_duration_stimuli/002637_2014-06-24_14-51-13_094959634447_rgbf000066-resize_4/002637_2014-06-24_14-51-13_094959634447_rgbf000066-resize_4-target.png,1000,1.9955,2,7968,1004,meters,jsons/v1_VE1000_randls_9_rotated.json,1051571,1495218,30,Woman
144,841555,DepthScenes,duration_manipulation_targetAtFixation,jsons/v1_VE1000_randls_9_rotated.json,http://54.235.29.9/FacialAge/BNav_EC2/DepthDuration/v2_depth_duration_MTurk/v2_DepthDuration_HTML.html#21,21,1821,1024,1366,768,8-22-2022,5-12-49,145,depth_duration_stimuli/003534_2014-05-22_15-06-10_094959634447_rgbf000102-resize_4/003534_2014-05-22_15-06-10_094959634447_rgbf000102-resize_4-target.png,1000,1.426,1,3592,998,meters,jsons/v1_VE1000_randls_9_rotated.json,1051571,1495218,30,Woman
145,841555,DepthScenes,duration_manipulation_targetAtFixation,jsons/v1_VE1000_randls_9_rotated.json,http://54.235.29.9/FacialAge/BNav_EC2/DepthDuration/v2_depth_duration_MTurk/v2_DepthDuration_HTML.html#21,21,1821,1024,1366,768,8-22-2022,5-12-49,146,depth_duration_stimuli/002209_2014-06-28_18-36-10_260595134347_rgbf000051-resize_1/002209_2014-06-28_18-36-10_260595134347_rgbf000051-resize_1-target.png,1000,2.057,1,10530,1496,meters,jsons/v1_VE1000_randls_9_rotated.json,1051571,1495218,30,Woman
146,841555,DepthScenes,duration_manipulation_targetAtFixation,jsons/v1_VE1000_randls_9_rotated.json,http://54.235.29.9/FacialAge/BNav_EC2/DepthDuration/v2_depth_duration_MTurk/v2_DepthDuration_HTML.html#21,21,1821,1024,1366,768,8-22-2022,5-12-49,147,depth_duration_stimuli/002763_2014-06-22_19-13-10_094959634447_rgbf000075-resize_4/002763_2014-06-22_19-13-10_094959634447_rgbf000075-resize_4-target.png,1000,1.68375,5,3743,999,meters,jsons/v1_VE1000_randls_9_rotated.json,1051571,1495218,30,Woman
147,841555,DepthScenes,duration_manipulation_targetAtFixation,jsons/v1_VE1000_randls_9_rotated.json,http://54.235.29.9/FacialAge/BNav_EC2/DepthDuration/v2_depth_duration_MTurk/v2_DepthDuration_HTML.html#21,21,1821,1024,1366,768,8-22-2022,5-12-49,148,depth_duration_stimuli/002136_2014-06-25_21-18-03_260595134347_rgbf000109-resize_3/002136_2014-06-25_21-18-03_260595134347_rgbf000109-resize_3-target.png,1000,1.9569999999999999,2,3696,1003,meters,jsons/v1_VE1000_randls_9_rotated.json,1051571,1495218,30,Woman
148,841555,DepthScenes,duration_manipulation_targetAtFixation,jsons/v1_VE1000_randls_9_rotated.json,http://54.235.29.9/FacialAge/BNav_EC2/DepthDuration/v2_depth_duration_MTurk/v2_DepthDuration_HTML.html#21,21,1821,1024,1366,768,8-22-2022,5-12-49,149,depth_duration_stimuli/002964_2014-06-08_17-46-11_094959634447_rgbf000091-resize_4/002964_2014-06-08_17-46-11_094959634447_rgbf000091-resize_4-target.png,1000,1.6909999999999998,1,4283,1004,meters,jsons/v1_VE1000_randls_9_rotated.json,1051571,1495218,30,Woman
149,841555,DepthScenes,duration_manipulation_targetAtFixation,jsons/v1_VE1000_randls_9_rotated.json,http://54.235.29.9/FacialAge/BNav_EC2/DepthDuration/v2_depth_duration_MTurk/v2_DepthDuration_HTML.html#21,21,1821,1024,1366,768,8-22-2022,5-12-49,150,depth_duration_stimuli/000409_2014-06-04_19-23-33_260595134347_rgbf000067-resize_0/000409_2014-06-04_19-23-33_260595134347_rgbf000067-resize_0-target.png,1000,3.7335,5,6031,1228,meters,jsons/v1_VE1000_randls_9_rotated.json,1051571,1495218,30,Woman
150,841555,DepthScenes,duration_manipulation_targetAtFixation,jsons/v1_VE1000_randls_9_rotated.json,http://54.235.29.9/FacialAge/BNav_EC2/DepthDuration/v2_depth_duration_MTurk/v2_DepthDuration_HTML.html#21,21,1821,1024,1366,768,8-22-2022,5-12-49,151,depth_duration_stimuli/002663_2014-06-13_15-50-26_094959634447_rgbf000075-resize_1/002663_2014-06-13_15-50-26_094959634447_rgbf000075-resize_1-target.png,1000,4.7495,2,3095,990,meters,jsons/v1_VE1000_randls_9_rotated.json,1051571,1495218,30,Woman
151,841555,DepthScenes,duration_manipulation_targetAtFixation,jsons/v1_VE1000_randls_9_rotated.json,http://54.235.29.9/FacialAge/BNav_EC2/DepthDuration/v2_depth_duration_MTurk/v2_DepthDuration_HTML.html#21,21,1821,1024,1366,768,8-22-2022,5-12-49,152,depth_duration_stimuli/000569_2014-06-09_22-51-47_260595134347_rgbf000141-resize_3/000569_2014-06-09_22-51-47_260595134347_rgbf000141-resize-original.jpg,1000,4.512,2,9184,1001,meters,jsons/v1_VE1000_randls_9_rotated.json,1051571,1495218,30,Woman
152,841555,DepthScenes,duration_manipulation_targetAtFixation,jsons/v1_VE1000_randls_9_rotated.json,http://54.235.29.9/FacialAge/BNav_EC2/DepthDuration/v2_depth_duration_MTurk/v2_DepthDuration_HTML.html#21,21,1821,1024,1366,768,8-22-2022,5-12-49,153,depth_duration_stimuli/000483_2014-06-09_20-41-45_260595134347_rgbf000116-resize_4/000483_2014-06-09_20-41-45_260595134347_rgbf000116-resize_4-target.png,1000,1.337,2,4608,1175,meters,jsons/v1_VE1000_randls_9_rotated.json,1051571,1495218,30,Woman
153,841555,DepthScenes,duration_manipulation_targetAtFixation,jsons/v1_VE1000_randls_9_rotated.json,http://54.235.29.9/FacialAge/BNav_EC2/DepthDuration/v2_depth_duration_MTurk/v2_DepthDuration_HTML.html#21,21,1821,1024,1366,768,8-22-2022,5-12-49,154,depth_duration_stimuli/000469_2014-06-09_19-42-10_260595134347_rgbf000081-resize_1/000469_2014-06-09_19-42-10_260595134347_rgbf000081-resize_1-target.png,1000,1.652,5,3863,723,meters,jsons/v1_VE1000_randls_9_rotated.json,1051571,1495218,30,Woman
154,841555,DepthScenes,duration_manipulation_targetAtFixation,jsons/v1_VE1000_randls_9_rotated.json,http://54.235.29.9/FacialAge/BNav_EC2/DepthDuration/v2_depth_duration_MTurk/v2_DepthDuration_HTML.html#21,21,1821,1024,1366,768,8-22-2022,5-12-49,155,depth_duration_stimuli/002750_2014-06-22_19-08-03_094959634447_rgbf000094-resize_4/002750_2014-06-22_19-08-03_094959634447_rgbf000094-resize_4-target.png,1000,2.354,2,43511,999,meters,jsons/v1_VE1000_randls_9_rotated.json,1051571,1495218,30,Woman
155,841555,DepthScenes,duration_manipulation_targetAtFixation,jsons/v1_VE1000_randls_9_rotated.json,http://54.235.29.9/FacialAge/BNav_EC2/DepthDuration/v2_depth_duration_MTurk/v2_DepthDuration_HTML.html#21,21,1821,1024,1366,768,8-22-2022,5-12-49,156,depth_duration_stimuli/002549_2014-06-24_13-41-39_094959634447_rgbf000022-resize_3/002549_2014-06-24_13-41-39_094959634447_rgbf000022-resize_3-target.png,1000,1.476,2,2845,1307,meters,jsons/v1_VE1000_randls_9_rotated.json,1051571,1495218,30,Woman
156,841555,DepthScenes,duration_manipulation_targetAtFixation,jsons/v1_VE1000_randls_9_rotated.json,http://54.235.29.9/FacialAge/BNav_EC2/DepthDuration/v2_depth_duration_MTurk/v2_DepthDuration_HTML.html#21,21,1821,1024,1366,768,8-22-2022,5-12-49,157,depth_duration_stimuli/001516_2014-06-20_16-25-09_260595134347_rgbf000076-resize_2/001516_2014-06-20_16-25-09_260595134347_rgbf000076-resize_2-target.png,1000,1.7445,2,3296,999,meters,jsons/v1_VE1000_randls_9_rotated.json,1051571,1495218,30,Woman
157,841555,DepthScenes,duration_manipulation_targetAtFixation,jsons/v1_VE1000_randls_9_rotated.json,http://54.235.29.9/FacialAge/BNav_EC2/DepthDuration/v2_depth_duration_MTurk/v2_DepthDuration_HTML.html#21,21,1821,1024,1366,768,8-22-2022,5-12-49,158,depth_duration_stimuli/002118_2014-06-25_20-32-08_260595134347_rgbf000078-resize_1/002118_2014-06-25_20-32-08_260595134347_rgbf000078-resize_1-target.png,1000,2.6460000000000004,2,2845,980,meters,jsons/v1_VE1000_randls_9_rotated.json,1051571,1495218,30,Woman
158,841555,DepthScenes,duration_manipulation_targetAtFixation,jsons/v1_VE1000_randls_9_rotated.json,http://54.235.29.9/FacialAge/BNav_EC2/DepthDuration/v2_depth_duration_MTurk/v2_DepthDuration_HTML.html#21,21,1821,1024,1366,768,8-22-2022,5-12-49,159,depth_duration_stimuli/003423_2014-05-21_10-23-26_094959634447_rgbf002665-resize_2/003423_2014-05-21_10-23-26_094959634447_rgbf002665-resize_2-target.png,1000,3.2575,2,3499,999,meters,jsons/v1_VE1000_randls_9_rotated.json,1051571,1495218,30,Woman
159,841555,DepthScenes,duration_manipulation_targetAtFixation,jsons/v1_VE1000_randls_9_rotated.json,http://54.235.29.9/FacialAge/BNav_EC2/DepthDuration/v2_depth_duration_MTurk/v2_DepthDuration_HTML.html#21,21,1821,1024,1366,768,8-22-2022,5-12-49,160,depth_duration_stimuli/002905_2014-06-03_18-04-43_094959634447_rgbf000151-resize_2/002905_2014-06-03_18-04-43_094959634447_rgbf000151-resize_2-target.png,1000,2.0295,2,11005,995,meters,jsons/v1_VE1000_randls_9_rotated.json,1051571,1495218,30,Woman
160,841555,DepthScenes,duration_manipulation_targetAtFixation,jsons/v1_VE1000_randls_9_rotated.json,http://54.235.29.9/FacialAge/BNav_EC2/DepthDuration/v2_depth_duration_MTurk/v2_DepthDuration_HTML.html#21,21,1821,1024,1366,768,8-22-2022,5-12-49,161,depth_duration_stimuli/000854_2014-06-09_19-43-13_260595134347_rgbf000066-resize_0/000854_2014-06-09_19-43-13_260595134347_rgbf000066-resize_0-target.png,1000,3.068,2,4114,1003,meters,jsons/v1_VE1000_randls_9_rotated.json,1051571,1495218,30,Woman
161,841555,DepthScenes,duration_manipulation_targetAtFixation,jsons/v1_VE1000_randls_9_rotated.json,http://54.235.29.9/FacialAge/BNav_EC2/DepthDuration/v2_depth_duration_MTurk/v2_DepthDuration_HTML.html#21,21,1821,1024,1366,768,8-22-2022,5-12-49,162,depth_duration_stimuli/000758_2014-06-08_22-05-08_260595134347_rgbf000085-resize_0/000758_2014-06-08_22-05-08_260595134347_rgbf000085-resize_0-target.png,1000,3.3810000000000002,2,7528,1376,meters,jsons/v1_VE1000_randls_9_rotated.json,1051571,1495218,30,Woman
162,841555,DepthScenes,duration_manipulation_targetAtFixation,jsons/v1_VE1000_randls_9_rotated.json,http://54.235.29.9/FacialAge/BNav_EC2/DepthDuration/v2_depth_duration_MTurk/v2_DepthDuration_HTML.html#21,21,1821,1024,1366,768,8-22-2022,5-12-49,163,depth_duration_stimuli/000109_2014-05-14_23-41-52_260595134347_rgbf000035-resize_9/000109_2014-05-14_23-41-52_260595134347_rgbf000035-resize_9-target.png,1000,1.3545,2,9565,1138,meters,jsons/v1_VE1000_randls_9_rotated.json,1051571,1495218,30,Woman
163,841555,DepthScenes,duration_manipulation_targetAtFixation,jsons/v1_VE1000_randls_9_rotated.json,http://54.235.29.9/FacialAge/BNav_EC2/DepthDuration/v2_depth_duration_MTurk/v2_DepthDuration_HTML.html#21,21,1821,1024,1366,768,8-22-2022,5-12-49,164,depth_duration_stimuli/000470_2014-06-09_19-42-40_260595134347_rgbf000094-resize_1/000470_2014-06-09_19-42-40_260595134347_rgbf000094-resize_1-target.png,1000,1.831,2,8910,997,meters,jsons/v1_VE1000_randls_9_rotated.json,1051571,1495218,30,Woman
