,subjID,experimentName,versionName,sequenceName,url,selected_row,windowWidth,windowHeight,screenWidth,screenHeight,startDate,startTime,trial,stimulus,duration,actual_depth,depth_estimate,trial_RT,log_sceneDuration,unitSelection,seq_filepath,experimentTime,totalTime,age,gender
0,844864,DepthScenes,duration_manipulation_targetAtFixation,jsons/v1_VE1000_randls_68.json,http://54.235.29.9/FacialAge/BNav_EC2/DepthDuration/v2_depth_duration_MTurk/v2_DepthDuration_HTML.html#303,303,1280,881,1920,1080,8-29-2022,13-25-11,1,depth_duration_stimuli/000522_2014-06-08_13-35-06_260595134347_rgbf000244-resize_1/000522_2014-06-08_13-35-06_260595134347_rgbf000244-resize_1-target.png,1000,2.3715,50,5820,1000,meters,jsons/v1_VE1000_randls_68.json,907620,1274088,1968,Man
1,844864,DepthScenes,duration_manipulation_targetAtFixation,jsons/v1_VE1000_randls_68.json,http://54.235.29.9/FacialAge/BNav_EC2/DepthDuration/v2_depth_duration_MTurk/v2_DepthDuration_HTML.html#303,303,1280,881,1920,1080,8-29-2022,13-25-11,2,depth_duration_stimuli/002949_2014-06-26_15-57-42_094959634447_rgbf000079-resize_1/002949_2014-06-26_15-57-42_094959634447_rgbf000079-resize_1-target.png,1000,1.8915,65,5334,1000,meters,jsons/v1_VE1000_randls_68.json,907620,1274088,1968,Man
2,844864,DepthScenes,duration_manipulation_targetAtFixation,jsons/v1_VE1000_randls_68.json,http://54.235.29.9/FacialAge/BNav_EC2/DepthDuration/v2_depth_duration_MTurk/v2_DepthDuration_HTML.html#303,303,1280,881,1920,1080,8-29-2022,13-25-11,3,depth_duration_stimuli/001167_2014-06-17_15-38-07_260595134347_rgbf000108-resize_0/001167_2014-06-17_15-38-07_260595134347_rgbf000108-resize_0-target.png,1000,1.8505,50,4611,1001,meters,jsons/v1_VE1000_randls_68.json,907620,1274088,1968,Man
3,844864,DepthScenes,duration_manipulation_targetAtFixation,jsons/v1_VE1000_randls_68.json,http://54.235.29.9/FacialAge/BNav_EC2/DepthDuration/v2_depth_duration_MTurk/v2_DepthDuration_HTML.html#303,303,1280,881,1920,1080,8-29-2022,13-25-11,4,depth_duration_stimuli/003587_2014-05-23_16-48-02_094959634447_rgbf002384-resize_2/003587_2014-05-23_16-48-02_094959634447_rgbf002384-resize_2-target.png,1000,1.357,45,6106,1000,meters,jsons/v1_VE1000_randls_68.json,907620,1274088,1968,Man
4,844864,DepthScenes,duration_manipulation_targetAtFixation,jsons/v1_VE1000_randls_68.json,http://54.235.29.9/FacialAge/BNav_EC2/DepthDuration/v2_depth_duration_MTurk/v2_DepthDuration_HTML.html#303,303,1280,881,1920,1080,8-29-2022,13-25-11,5,depth_duration_stimuli/003070_2014-06-15_14-58-27_094959634447_rgbf000150-resize_3/003070_2014-06-15_14-58-27_094959634447_rgbf000150-resize_3-target.png,1000,2.9415,75,5001,1002,meters,jsons/v1_VE1000_randls_68.json,907620,1274088,1968,Man
5,844864,DepthScenes,duration_manipulation_targetAtFixation,jsons/v1_VE1000_randls_68.json,http://54.235.29.9/FacialAge/BNav_EC2/DepthDuration/v2_depth_duration_MTurk/v2_DepthDuration_HTML.html#303,303,1280,881,1920,1080,8-29-2022,13-25-11,6,depth_duration_stimuli/000943_2014-06-09_19-31-07_260595134347_rgbf000128-resize_1/000943_2014-06-09_19-31-07_260595134347_rgbf000128-resize_1-target.png,1000,1.9765,65,4789,1009,meters,jsons/v1_VE1000_randls_68.json,907620,1274088,1968,Man
6,844864,DepthScenes,duration_manipulation_targetAtFixation,jsons/v1_VE1000_randls_68.json,http://54.235.29.9/FacialAge/BNav_EC2/DepthDuration/v2_depth_duration_MTurk/v2_DepthDuration_HTML.html#303,303,1280,881,1920,1080,8-29-2022,13-25-11,7,depth_duration_stimuli/001810_2014-06-26_20-51-35_260595134347_rgbf000040-resize_3/001810_2014-06-26_20-51-35_260595134347_rgbf000040-resize_3-target.png,1000,2.2525,55,6216,989,meters,jsons/v1_VE1000_randls_68.json,907620,1274088,1968,Man
7,844864,DepthScenes,duration_manipulation_targetAtFixation,jsons/v1_VE1000_randls_68.json,http://54.235.29.9/FacialAge/BNav_EC2/DepthDuration/v2_depth_duration_MTurk/v2_DepthDuration_HTML.html#303,303,1280,881,1920,1080,8-29-2022,13-25-11,8,depth_duration_stimuli/003010_2014-06-15_12-54-35_094959634447_rgbf000112-resize_0/003010_2014-06-15_12-54-35_094959634447_rgbf000112-resize_0-target.png,1000,3.1185,85,5002,1000,meters,jsons/v1_VE1000_randls_68.json,907620,1274088,1968,Man
8,844864,DepthScenes,duration_manipulation_targetAtFixation,jsons/v1_VE1000_randls_68.json,http://54.235.29.9/FacialAge/BNav_EC2/DepthDuration/v2_depth_duration_MTurk/v2_DepthDuration_HTML.html#303,303,1280,881,1920,1080,8-29-2022,13-25-11,9,depth_duration_stimuli/000758_2014-06-08_22-05-08_260595134347_rgbf000085-resize_0/000758_2014-06-08_22-05-08_260595134347_rgbf000085-resize_0-target.png,1000,3.3810000000000002,90,5268,1000,meters,jsons/v1_VE1000_randls_68.json,907620,1274088,1968,Man
9,844864,DepthScenes,duration_manipulation_targetAtFixation,jsons/v1_VE1000_randls_68.json,http://54.235.29.9/FacialAge/BNav_EC2/DepthDuration/v2_depth_duration_MTurk/v2_DepthDuration_HTML.html#303,303,1280,881,1920,1080,8-29-2022,13-25-11,10,depth_duration_stimuli/000854_2014-06-09_19-43-13_260595134347_rgbf000066-resize_0/000854_2014-06-09_19-43-13_260595134347_rgbf000066-resize_0-target.png,1000,3.068,50,4921,998,meters,jsons/v1_VE1000_randls_68.json,907620,1274088,1968,Man
10,844864,DepthScenes,duration_manipulation_targetAtFixation,jsons/v1_VE1000_randls_68.json,http://54.235.29.9/FacialAge/BNav_EC2/DepthDuration/v2_depth_duration_MTurk/v2_DepthDuration_HTML.html#303,303,1280,881,1920,1080,8-29-2022,13-25-11,11,depth_duration_stimuli/001417_2014-06-19_16-25-36_260595134347_rgbf000115-resize_5/001417_2014-06-19_16-25-36_260595134347_rgbf000115-resize_5-target.png,1000,4.6255,70,4370,1001,meters,jsons/v1_VE1000_randls_68.json,907620,1274088,1968,Man
11,844864,DepthScenes,duration_manipulation_targetAtFixation,jsons/v1_VE1000_randls_68.json,http://54.235.29.9/FacialAge/BNav_EC2/DepthDuration/v2_depth_duration_MTurk/v2_DepthDuration_HTML.html#303,303,1280,881,1920,1080,8-29-2022,13-25-11,12,depth_duration_stimuli/003081_2014-06-15_15-19-16_094959634447_rgbf000150-resize_1/003081_2014-06-15_15-19-16_094959634447_rgbf000150-resize_1-target.png,1000,3.9125,80,4859,1007,meters,jsons/v1_VE1000_randls_68.json,907620,1274088,1968,Man
12,844864,DepthScenes,duration_manipulation_targetAtFixation,jsons/v1_VE1000_randls_68.json,http://54.235.29.9/FacialAge/BNav_EC2/DepthDuration/v2_depth_duration_MTurk/v2_DepthDuration_HTML.html#303,303,1280,881,1920,1080,8-29-2022,13-25-11,13,depth_duration_stimuli/000569_2014-06-09_22-51-47_260595134347_rgbf000141-resize_3/000569_2014-06-09_22-51-47_260595134347_rgbf000141-resize-original.jpg,1000,4.512,0,46362,999,meters,jsons/v1_VE1000_randls_68.json,907620,1274088,1968,Man
13,844864,DepthScenes,duration_manipulation_targetAtFixation,jsons/v1_VE1000_randls_68.json,http://54.235.29.9/FacialAge/BNav_EC2/DepthDuration/v2_depth_duration_MTurk/v2_DepthDuration_HTML.html#303,303,1280,881,1920,1080,8-29-2022,13-25-11,14,depth_duration_stimuli/001164_2014-06-17_15-35-46_260595134347_rgbf000085-resize_3/001164_2014-06-17_15-35-46_260595134347_rgbf000085-resize_3-target.png,1000,2.354,65,5544,997,meters,jsons/v1_VE1000_randls_68.json,907620,1274088,1968,Man
14,844864,DepthScenes,duration_manipulation_targetAtFixation,jsons/v1_VE1000_randls_68.json,http://54.235.29.9/FacialAge/BNav_EC2/DepthDuration/v2_depth_duration_MTurk/v2_DepthDuration_HTML.html#303,303,1280,881,1920,1080,8-29-2022,13-25-11,15,depth_duration_stimuli/001136_2014-06-17_15-19-41_260595134347_rgbf000076-resize_3/001136_2014-06-17_15-19-41_260595134347_rgbf000076-resize_3-target.png,1000,1.8655,55,4000,1003,meters,jsons/v1_VE1000_randls_68.json,907620,1274088,1968,Man
15,844864,DepthScenes,duration_manipulation_targetAtFixation,jsons/v1_VE1000_randls_68.json,http://54.235.29.9/FacialAge/BNav_EC2/DepthDuration/v2_depth_duration_MTurk/v2_DepthDuration_HTML.html#303,303,1280,881,1920,1080,8-29-2022,13-25-11,16,depth_duration_stimuli/002057_2014-06-24_21-00-13_260595134347_rgbf000120-resize_1/002057_2014-06-24_21-00-13_260595134347_rgbf000120-resize_1-target.png,1000,2.967,75,4691,1002,meters,jsons/v1_VE1000_randls_68.json,907620,1274088,1968,Man
16,844864,DepthScenes,duration_manipulation_targetAtFixation,jsons/v1_VE1000_randls_68.json,http://54.235.29.9/FacialAge/BNav_EC2/DepthDuration/v2_depth_duration_MTurk/v2_DepthDuration_HTML.html#303,303,1280,881,1920,1080,8-29-2022,13-25-11,17,depth_duration_stimuli/000709_2014-06-08_13-51-55_260595134347_rgbf000068-resize_3/000709_2014-06-08_13-51-55_260595134347_rgbf000068-resize_3-target.png,1000,1.8030000000000002,80,9380,1005,meters,jsons/v1_VE1000_randls_68.json,907620,1274088,1968,Man
17,844864,DepthScenes,duration_manipulation_targetAtFixation,jsons/v1_VE1000_randls_68.json,http://54.235.29.9/FacialAge/BNav_EC2/DepthDuration/v2_depth_duration_MTurk/v2_DepthDuration_HTML.html#303,303,1280,881,1920,1080,8-29-2022,13-25-11,18,depth_duration_stimuli/001199_2014-06-17_16-03-48_260595134347_rgbf000077-resize_0/001199_2014-06-17_16-03-48_260595134347_rgbf000077-resize_0-target.png,1000,3.4375,80,4255,998,meters,jsons/v1_VE1000_randls_68.json,907620,1274088,1968,Man
18,844864,DepthScenes,duration_manipulation_targetAtFixation,jsons/v1_VE1000_randls_68.json,http://54.235.29.9/FacialAge/BNav_EC2/DepthDuration/v2_depth_duration_MTurk/v2_DepthDuration_HTML.html#303,303,1280,881,1920,1080,8-29-2022,13-25-11,19,depth_duration_stimuli/000502_2014-06-08_23-02-32_260595134347_rgbf000063-resize_4/000502_2014-06-08_23-02-32_260595134347_rgbf000063-resize_4-target.png,1000,2.431,60,4177,1009,meters,jsons/v1_VE1000_randls_68.json,907620,1274088,1968,Man
19,844864,DepthScenes,duration_manipulation_targetAtFixation,jsons/v1_VE1000_randls_68.json,http://54.235.29.9/FacialAge/BNav_EC2/DepthDuration/v2_depth_duration_MTurk/v2_DepthDuration_HTML.html#303,303,1280,881,1920,1080,8-29-2022,13-25-11,20,depth_duration_stimuli/000493_2014-06-09_21-01-18_260595134347_rgbf000196-resize_3/000493_2014-06-09_21-01-18_260595134347_rgbf000196-resize_3-target.png,1000,3.44,65,3813,1000,meters,jsons/v1_VE1000_randls_68.json,907620,1274088,1968,Man
20,844864,DepthScenes,duration_manipulation_targetAtFixation,jsons/v1_VE1000_randls_68.json,http://54.235.29.9/FacialAge/BNav_EC2/DepthDuration/v2_depth_duration_MTurk/v2_DepthDuration_HTML.html#303,303,1280,881,1920,1080,8-29-2022,13-25-11,21,depth_duration_stimuli/000191_2014-05-12_17-07-38_260595134347_rgbf000199-resize_0/000191_2014-05-12_17-07-38_260595134347_rgbf000199-resize_0-target.png,1000,3.7995,85,4534,1000,meters,jsons/v1_VE1000_randls_68.json,907620,1274088,1968,Man
21,844864,DepthScenes,duration_manipulation_targetAtFixation,jsons/v1_VE1000_randls_68.json,http://54.235.29.9/FacialAge/BNav_EC2/DepthDuration/v2_depth_duration_MTurk/v2_DepthDuration_HTML.html#303,303,1280,881,1920,1080,8-29-2022,13-25-11,22,depth_duration_stimuli/001808_2014-06-26_20-50-58_260595134347_rgbf000029-resize_1/001808_2014-06-26_20-50-58_260595134347_rgbf000029-resize_1-target.png,1000,4.249,80,4672,1000,meters,jsons/v1_VE1000_randls_68.json,907620,1274088,1968,Man
22,844864,DepthScenes,duration_manipulation_targetAtFixation,jsons/v1_VE1000_randls_68.json,http://54.235.29.9/FacialAge/BNav_EC2/DepthDuration/v2_depth_duration_MTurk/v2_DepthDuration_HTML.html#303,303,1280,881,1920,1080,8-29-2022,13-25-11,23,depth_duration_stimuli/001815_2014-06-26_20-52-55_260595134347_rgbf000020-resize_0/001815_2014-06-26_20-52-55_260595134347_rgbf000020-resize_0-target.png,1000,3.3865,80,4522,1000,meters,jsons/v1_VE1000_randls_68.json,907620,1274088,1968,Man
23,844864,DepthScenes,duration_manipulation_targetAtFixation,jsons/v1_VE1000_randls_68.json,http://54.235.29.9/FacialAge/BNav_EC2/DepthDuration/v2_depth_duration_MTurk/v2_DepthDuration_HTML.html#303,303,1280,881,1920,1080,8-29-2022,13-25-11,24,depth_duration_stimuli/000906_2014-06-08_13-35-43_260595134347_rgbf000155-resize_1/000906_2014-06-08_13-35-43_260595134347_rgbf000155-resize_1-target.png,1000,2.8489999999999998,70,10186,1007,meters,jsons/v1_VE1000_randls_68.json,907620,1274088,1968,Man
24,844864,DepthScenes,duration_manipulation_targetAtFixation,jsons/v1_VE1000_randls_68.json,http://54.235.29.9/FacialAge/BNav_EC2/DepthDuration/v2_depth_duration_MTurk/v2_DepthDuration_HTML.html#303,303,1280,881,1920,1080,8-29-2022,13-25-11,25,depth_duration_stimuli/002805_2014-06-22_19-54-03_094959634447_rgbf000079-resize_1/002805_2014-06-22_19-54-03_094959634447_rgbf000079-resize_1-target.png,1000,3.1439999999999997,85,4127,987,meters,jsons/v1_VE1000_randls_68.json,907620,1274088,1968,Man
25,844864,DepthScenes,duration_manipulation_targetAtFixation,jsons/v1_VE1000_randls_68.json,http://54.235.29.9/FacialAge/BNav_EC2/DepthDuration/v2_depth_duration_MTurk/v2_DepthDuration_HTML.html#303,303,1280,881,1920,1080,8-29-2022,13-25-11,26,depth_duration_stimuli/002549_2014-06-24_13-41-39_094959634447_rgbf000022-resize_3/002549_2014-06-24_13-41-39_094959634447_rgbf000022-resize_3-target.png,1000,1.476,50,4736,1000,meters,jsons/v1_VE1000_randls_68.json,907620,1274088,1968,Man
26,844864,DepthScenes,duration_manipulation_targetAtFixation,jsons/v1_VE1000_randls_68.json,http://54.235.29.9/FacialAge/BNav_EC2/DepthDuration/v2_depth_duration_MTurk/v2_DepthDuration_HTML.html#303,303,1280,881,1920,1080,8-29-2022,13-25-11,27,depth_duration_stimuli/002750_2014-06-22_19-08-03_094959634447_rgbf000094-resize_4/002750_2014-06-22_19-08-03_094959634447_rgbf000094-resize_4-target.png,1000,2.354,65,4259,1000,meters,jsons/v1_VE1000_randls_68.json,907620,1274088,1968,Man
27,844864,DepthScenes,duration_manipulation_targetAtFixation,jsons/v1_VE1000_randls_68.json,http://54.235.29.9/FacialAge/BNav_EC2/DepthDuration/v2_depth_duration_MTurk/v2_DepthDuration_HTML.html#303,303,1280,881,1920,1080,8-29-2022,13-25-11,28,depth_duration_stimuli/001570_2014-06-20_17-21-09_260595134347_rgbf000135-resize_4/001570_2014-06-20_17-21-09_260595134347_rgbf000135-resize_4-target.png,1000,4.467,85,5243,1001,meters,jsons/v1_VE1000_randls_68.json,907620,1274088,1968,Man
28,844864,DepthScenes,duration_manipulation_targetAtFixation,jsons/v1_VE1000_randls_68.json,http://54.235.29.9/FacialAge/BNav_EC2/DepthDuration/v2_depth_duration_MTurk/v2_DepthDuration_HTML.html#303,303,1280,881,1920,1080,8-29-2022,13-25-11,29,depth_duration_stimuli/001392_2014-06-19_16-07-59_260595134347_rgbf000046-resize_1/001392_2014-06-19_16-07-59_260595134347_rgbf000046-resize_1-target.png,1000,4.135,80,4403,1000,meters,jsons/v1_VE1000_randls_68.json,907620,1274088,1968,Man
29,844864,DepthScenes,duration_manipulation_targetAtFixation,jsons/v1_VE1000_randls_68.json,http://54.235.29.9/FacialAge/BNav_EC2/DepthDuration/v2_depth_duration_MTurk/v2_DepthDuration_HTML.html#303,303,1280,881,1920,1080,8-29-2022,13-25-11,30,depth_duration_stimuli/000375_2014-06-08_11-17-29_260595134347_rgbf000133-resize_2/000375_2014-06-08_11-17-29_260595134347_rgbf000133-resize-original.jpg,1000,4.718,0,3821,1014,meters,jsons/v1_VE1000_randls_68.json,907620,1274088,1968,Man
30,844864,DepthScenes,duration_manipulation_targetAtFixation,jsons/v1_VE1000_randls_68.json,http://54.235.29.9/FacialAge/BNav_EC2/DepthDuration/v2_depth_duration_MTurk/v2_DepthDuration_HTML.html#303,303,1280,881,1920,1080,8-29-2022,13-25-11,31,depth_duration_stimuli/001449_2014-06-19_17-01-27_260595134347_rgbf000116-resize_2/001449_2014-06-19_17-01-27_260595134347_rgbf000116-resize_2-target.png,1000,3.452,65,4898,1012,meters,jsons/v1_VE1000_randls_68.json,907620,1274088,1968,Man
31,844864,DepthScenes,duration_manipulation_targetAtFixation,jsons/v1_VE1000_randls_68.json,http://54.235.29.9/FacialAge/BNav_EC2/DepthDuration/v2_depth_duration_MTurk/v2_DepthDuration_HTML.html#303,303,1280,881,1920,1080,8-29-2022,13-25-11,32,depth_duration_stimuli/001450_2014-06-19_17-02-03_260595134347_rgbf000203-resize_4/001450_2014-06-19_17-02-03_260595134347_rgbf000203-resize_4-target.png,1000,4.0106666666667,65,4178,1009,meters,jsons/v1_VE1000_randls_68.json,907620,1274088,1968,Man
32,844864,DepthScenes,duration_manipulation_targetAtFixation,jsons/v1_VE1000_randls_68.json,http://54.235.29.9/FacialAge/BNav_EC2/DepthDuration/v2_depth_duration_MTurk/v2_DepthDuration_HTML.html#303,303,1280,881,1920,1080,8-29-2022,13-25-11,33,depth_duration_stimuli/002905_2014-06-03_18-04-43_094959634447_rgbf000151-resize_2/002905_2014-06-03_18-04-43_094959634447_rgbf000151-resize_2-target.png,1000,2.0295,50,4777,996,meters,jsons/v1_VE1000_randls_68.json,907620,1274088,1968,Man
33,844864,DepthScenes,duration_manipulation_targetAtFixation,jsons/v1_VE1000_randls_68.json,http://54.235.29.9/FacialAge/BNav_EC2/DepthDuration/v2_depth_duration_MTurk/v2_DepthDuration_HTML.html#303,303,1280,881,1920,1080,8-29-2022,13-25-11,34,depth_duration_stimuli/003423_2014-05-21_10-23-26_094959634447_rgbf002665-resize_2/003423_2014-05-21_10-23-26_094959634447_rgbf002665-resize_2-target.png,1000,3.2575,75,3674,1000,meters,jsons/v1_VE1000_randls_68.json,907620,1274088,1968,Man
34,844864,DepthScenes,duration_manipulation_targetAtFixation,jsons/v1_VE1000_randls_68.json,http://54.235.29.9/FacialAge/BNav_EC2/DepthDuration/v2_depth_duration_MTurk/v2_DepthDuration_HTML.html#303,303,1280,881,1920,1080,8-29-2022,13-25-11,35,depth_duration_stimuli/002445_2014-06-28_20-32-16_260595134347_rgbf000029-resize_4/002445_2014-06-28_20-32-16_260595134347_rgbf000029-resize_4-target.png,1000,2.5315,50,4133,1009,meters,jsons/v1_VE1000_randls_68.json,907620,1274088,1968,Man
35,844864,DepthScenes,duration_manipulation_targetAtFixation,jsons/v1_VE1000_randls_68.json,http://54.235.29.9/FacialAge/BNav_EC2/DepthDuration/v2_depth_duration_MTurk/v2_DepthDuration_HTML.html#303,303,1280,881,1920,1080,8-29-2022,13-25-11,36,depth_duration_stimuli/000780_2014-06-08_22-28-29_260595134347_rgbf000126-resize_1/000780_2014-06-08_22-28-29_260595134347_rgbf000126-resize_1-target.png,1000,3.3825,65,4383,988,meters,jsons/v1_VE1000_randls_68.json,907620,1274088,1968,Man
36,844864,DepthScenes,duration_manipulation_targetAtFixation,jsons/v1_VE1000_randls_68.json,http://54.235.29.9/FacialAge/BNav_EC2/DepthDuration/v2_depth_duration_MTurk/v2_DepthDuration_HTML.html#303,303,1280,881,1920,1080,8-29-2022,13-25-11,37,depth_duration_stimuli/000009_2014-05-26_14-32-05_260595134347_rgbf000034-resize_3/000009_2014-05-26_14-32-05_260595134347_rgbf000034-resize_3-target.png,1000,3.8715,50,13575,1726,meters,jsons/v1_VE1000_randls_68.json,907620,1274088,1968,Man
37,844864,DepthScenes,duration_manipulation_targetAtFixation,jsons/v1_VE1000_randls_68.json,http://54.235.29.9/FacialAge/BNav_EC2/DepthDuration/v2_depth_duration_MTurk/v2_DepthDuration_HTML.html#303,303,1280,881,1920,1080,8-29-2022,13-25-11,38,depth_duration_stimuli/001828_2014-06-26_21-40-03_260595134347_rgbf000024-resize_0/001828_2014-06-26_21-40-03_260595134347_rgbf000024-resize_0-target.png,1000,4.8260000000000005,80,5139,1000,meters,jsons/v1_VE1000_randls_68.json,907620,1274088,1968,Man
38,844864,DepthScenes,duration_manipulation_targetAtFixation,jsons/v1_VE1000_randls_68.json,http://54.235.29.9/FacialAge/BNav_EC2/DepthDuration/v2_depth_duration_MTurk/v2_DepthDuration_HTML.html#303,303,1280,881,1920,1080,8-29-2022,13-25-11,39,depth_duration_stimuli/000642_2014-06-08_16-59-25_260595134347_rgbf000098-resize_2/000642_2014-06-08_16-59-25_260595134347_rgbf000098-resize_2-target.png,1000,2.8815,50,4227,1001,meters,jsons/v1_VE1000_randls_68.json,907620,1274088,1968,Man
39,844864,DepthScenes,duration_manipulation_targetAtFixation,jsons/v1_VE1000_randls_68.json,http://54.235.29.9/FacialAge/BNav_EC2/DepthDuration/v2_depth_duration_MTurk/v2_DepthDuration_HTML.html#303,303,1280,881,1920,1080,8-29-2022,13-25-11,40,depth_duration_stimuli/002425_2014-06-28_20-27-29_260595134347_rgbf000031-resize_8/002425_2014-06-28_20-27-29_260595134347_rgbf000031-resize_8-target.png,1000,3.8960000000000004,75,5162,999,meters,jsons/v1_VE1000_randls_68.json,907620,1274088,1968,Man
40,844864,DepthScenes,duration_manipulation_targetAtFixation,jsons/v1_VE1000_randls_68.json,http://54.235.29.9/FacialAge/BNav_EC2/DepthDuration/v2_depth_duration_MTurk/v2_DepthDuration_HTML.html#303,303,1280,881,1920,1080,8-29-2022,13-25-11,41,depth_duration_stimuli/000788_2014-06-08_22-34-36_260595134347_rgbf000131-resize_1/000788_2014-06-08_22-34-36_260595134347_rgbf000131-resize_1-target.png,1000,3.359,75,4370,1004,meters,jsons/v1_VE1000_randls_68.json,907620,1274088,1968,Man
41,844864,DepthScenes,duration_manipulation_targetAtFixation,jsons/v1_VE1000_randls_68.json,http://54.235.29.9/FacialAge/BNav_EC2/DepthDuration/v2_depth_duration_MTurk/v2_DepthDuration_HTML.html#303,303,1280,881,1920,1080,8-29-2022,13-25-11,42,depth_duration_stimuli/001235_2014-06-17_16-37-36_260595134347_rgbf000084-resize_4/001235_2014-06-17_16-37-36_260595134347_rgbf000084-resize_4-target.png,1000,3.6605,60,4891,1002,meters,jsons/v1_VE1000_randls_68.json,907620,1274088,1968,Man
42,844864,DepthScenes,duration_manipulation_targetAtFixation,jsons/v1_VE1000_randls_68.json,http://54.235.29.9/FacialAge/BNav_EC2/DepthDuration/v2_depth_duration_MTurk/v2_DepthDuration_HTML.html#303,303,1280,881,1920,1080,8-29-2022,13-25-11,43,depth_duration_stimuli/002763_2014-06-22_19-13-10_094959634447_rgbf000075-resize_4/002763_2014-06-22_19-13-10_094959634447_rgbf000075-resize_4-target.png,1000,1.68375,50,5150,986,meters,jsons/v1_VE1000_randls_68.json,907620,1274088,1968,Man
43,844864,DepthScenes,duration_manipulation_targetAtFixation,jsons/v1_VE1000_randls_68.json,http://54.235.29.9/FacialAge/BNav_EC2/DepthDuration/v2_depth_duration_MTurk/v2_DepthDuration_HTML.html#303,303,1280,881,1920,1080,8-29-2022,13-25-11,44,depth_duration_stimuli/002209_2014-06-28_18-36-10_260595134347_rgbf000051-resize_1/002209_2014-06-28_18-36-10_260595134347_rgbf000051-resize_1-target.png,1000,2.057,50,4898,1003,meters,jsons/v1_VE1000_randls_68.json,907620,1274088,1968,Man
44,844864,DepthScenes,duration_manipulation_targetAtFixation,jsons/v1_VE1000_randls_68.json,http://54.235.29.9/FacialAge/BNav_EC2/DepthDuration/v2_depth_duration_MTurk/v2_DepthDuration_HTML.html#303,303,1280,881,1920,1080,8-29-2022,13-25-11,45,depth_duration_stimuli/000787_2014-06-08_22-33-53_260595134347_rgbf000175-resize_1/000787_2014-06-08_22-33-53_260595134347_rgbf000175-resize-original.jpg,1000,4.784,0,3387,1011,meters,jsons/v1_VE1000_randls_68.json,907620,1274088,1968,Man
45,844864,DepthScenes,duration_manipulation_targetAtFixation,jsons/v1_VE1000_randls_68.json,http://54.235.29.9/FacialAge/BNav_EC2/DepthDuration/v2_depth_duration_MTurk/v2_DepthDuration_HTML.html#303,303,1280,881,1920,1080,8-29-2022,13-25-11,46,depth_duration_stimuli/001059_2014-06-08_21-53-27_260595134347_rgbf000061-resize_4/001059_2014-06-08_21-53-27_260595134347_rgbf000061-resize_4-target.png,1000,2.4185,40,4239,1000,meters,jsons/v1_VE1000_randls_68.json,907620,1274088,1968,Man
46,844864,DepthScenes,duration_manipulation_targetAtFixation,jsons/v1_VE1000_randls_68.json,http://54.235.29.9/FacialAge/BNav_EC2/DepthDuration/v2_depth_duration_MTurk/v2_DepthDuration_HTML.html#303,303,1280,881,1920,1080,8-29-2022,13-25-11,47,depth_duration_stimuli/001032_2014-06-08_13-23-17_260595134347_rgbf000021-resize_3/001032_2014-06-08_13-23-17_260595134347_rgbf000021-resize_3-target.png,1000,3.2725,55,4171,1008,meters,jsons/v1_VE1000_randls_68.json,907620,1274088,1968,Man
47,844864,DepthScenes,duration_manipulation_targetAtFixation,jsons/v1_VE1000_randls_68.json,http://54.235.29.9/FacialAge/BNav_EC2/DepthDuration/v2_depth_duration_MTurk/v2_DepthDuration_HTML.html#303,303,1280,881,1920,1080,8-29-2022,13-25-11,48,depth_duration_stimuli/002788_2014-06-22_19-36-03_094959634447_rgbf000088-resize_2/002788_2014-06-22_19-36-03_094959634447_rgbf000088-resize_2-target.png,1000,1.6465,65,3911,1002,meters,jsons/v1_VE1000_randls_68.json,907620,1274088,1968,Man
48,844864,DepthScenes,duration_manipulation_targetAtFixation,jsons/v1_VE1000_randls_68.json,http://54.235.29.9/FacialAge/BNav_EC2/DepthDuration/v2_depth_duration_MTurk/v2_DepthDuration_HTML.html#303,303,1280,881,1920,1080,8-29-2022,13-25-11,49,depth_duration_stimuli/000749_2014-06-08_21-55-06_260595134347_rgbf000070-resize_2/000749_2014-06-08_21-55-06_260595134347_rgbf000070-resize_2-target.png,1000,2.331,50,3430,993,meters,jsons/v1_VE1000_randls_68.json,907620,1274088,1968,Man
49,844864,DepthScenes,duration_manipulation_targetAtFixation,jsons/v1_VE1000_randls_68.json,http://54.235.29.9/FacialAge/BNav_EC2/DepthDuration/v2_depth_duration_MTurk/v2_DepthDuration_HTML.html#303,303,1280,881,1920,1080,8-29-2022,13-25-11,50,depth_duration_stimuli/000469_2014-06-09_19-42-10_260595134347_rgbf000081-resize_1/000469_2014-06-09_19-42-10_260595134347_rgbf000081-resize_1-target.png,1000,1.652,40,3976,1011,meters,jsons/v1_VE1000_randls_68.json,907620,1274088,1968,Man
50,844864,DepthScenes,duration_manipulation_targetAtFixation,jsons/v1_VE1000_randls_68.json,http://54.235.29.9/FacialAge/BNav_EC2/DepthDuration/v2_depth_duration_MTurk/v2_DepthDuration_HTML.html#303,303,1280,881,1920,1080,8-29-2022,13-25-11,51,depth_duration_stimuli/000483_2014-06-09_20-41-45_260595134347_rgbf000116-resize_4/000483_2014-06-09_20-41-45_260595134347_rgbf000116-resize_4-target.png,1000,1.337,40,5366,1001,meters,jsons/v1_VE1000_randls_68.json,907620,1274088,1968,Man
51,844864,DepthScenes,duration_manipulation_targetAtFixation,jsons/v1_VE1000_randls_68.json,http://54.235.29.9/FacialAge/BNav_EC2/DepthDuration/v2_depth_duration_MTurk/v2_DepthDuration_HTML.html#303,303,1280,881,1920,1080,8-29-2022,13-25-11,52,depth_duration_stimuli/001055_2014-06-08_18-45-35_260595134347_rgbf000111-resize_4/001055_2014-06-08_18-45-35_260595134347_rgbf000111-resize_4-target.png,1000,2.4290000000000003,80,3691,1004,meters,jsons/v1_VE1000_randls_68.json,907620,1274088,1968,Man
52,844864,DepthScenes,duration_manipulation_targetAtFixation,jsons/v1_VE1000_randls_68.json,http://54.235.29.9/FacialAge/BNav_EC2/DepthDuration/v2_depth_duration_MTurk/v2_DepthDuration_HTML.html#303,303,1280,881,1920,1080,8-29-2022,13-25-11,53,depth_duration_stimuli/000549_2014-06-08_22-10-24_260595134347_rgbf000247-resize_3/000549_2014-06-08_22-10-24_260595134347_rgbf000247-resize_3-target.png,1000,1.841,40,4995,1005,meters,jsons/v1_VE1000_randls_68.json,907620,1274088,1968,Man
53,844864,DepthScenes,duration_manipulation_targetAtFixation,jsons/v1_VE1000_randls_68.json,http://54.235.29.9/FacialAge/BNav_EC2/DepthDuration/v2_depth_duration_MTurk/v2_DepthDuration_HTML.html#303,303,1280,881,1920,1080,8-29-2022,13-25-11,54,depth_duration_stimuli/000810_2014-06-08_17-20-01_260595134347_rgbf000105-resize_0/000810_2014-06-08_17-20-01_260595134347_rgbf000105-resize_0-target.png,1000,1.4865,65,4363,1000,meters,jsons/v1_VE1000_randls_68.json,907620,1274088,1968,Man
54,844864,DepthScenes,duration_manipulation_targetAtFixation,jsons/v1_VE1000_randls_68.json,http://54.235.29.9/FacialAge/BNav_EC2/DepthDuration/v2_depth_duration_MTurk/v2_DepthDuration_HTML.html#303,303,1280,881,1920,1080,8-29-2022,13-25-11,55,depth_duration_stimuli/001214_2014-06-17_16-13-55_260595134347_rgbf000111-resize_0/001214_2014-06-17_16-13-55_260595134347_rgbf000111-resize_0-target.png,1000,2.6505,40,4457,999,meters,jsons/v1_VE1000_randls_68.json,907620,1274088,1968,Man
55,844864,DepthScenes,duration_manipulation_targetAtFixation,jsons/v1_VE1000_randls_68.json,http://54.235.29.9/FacialAge/BNav_EC2/DepthDuration/v2_depth_duration_MTurk/v2_DepthDuration_HTML.html#303,303,1280,881,1920,1080,8-29-2022,13-25-11,56,depth_duration_stimuli/001092_2014-06-15_17-34-58_260595134347_rgbf000171-resize_3/001092_2014-06-15_17-34-58_260595134347_rgbf000171-resize_3-target.png,1000,2.6935,50,3828,988,meters,jsons/v1_VE1000_randls_68.json,907620,1274088,1968,Man
56,844864,DepthScenes,duration_manipulation_targetAtFixation,jsons/v1_VE1000_randls_68.json,http://54.235.29.9/FacialAge/BNav_EC2/DepthDuration/v2_depth_duration_MTurk/v2_DepthDuration_HTML.html#303,303,1280,881,1920,1080,8-29-2022,13-25-11,57,depth_duration_stimuli/002545_2014-06-24_13-38-53_094959634447_rgbf000080-resize_4/002545_2014-06-24_13-38-53_094959634447_rgbf000080-resize_4-target.png,1000,1.9205,50,4624,1013,meters,jsons/v1_VE1000_randls_68.json,907620,1274088,1968,Man
57,844864,DepthScenes,duration_manipulation_targetAtFixation,jsons/v1_VE1000_randls_68.json,http://54.235.29.9/FacialAge/BNav_EC2/DepthDuration/v2_depth_duration_MTurk/v2_DepthDuration_HTML.html#303,303,1280,881,1920,1080,8-29-2022,13-25-11,58,depth_duration_stimuli/002989_2014-06-15_12-25-03_094959634447_rgbf000150-resize_3/002989_2014-06-15_12-25-03_094959634447_rgbf000150-resize_3-target.png,1000,4.1975,70,4615,997,meters,jsons/v1_VE1000_randls_68.json,907620,1274088,1968,Man
58,844864,DepthScenes,duration_manipulation_targetAtFixation,jsons/v1_VE1000_randls_68.json,http://54.235.29.9/FacialAge/BNav_EC2/DepthDuration/v2_depth_duration_MTurk/v2_DepthDuration_HTML.html#303,303,1280,881,1920,1080,8-29-2022,13-25-11,59,depth_duration_stimuli/000866_2014-06-09_20-45-42_260595134347_rgbf000139-resize_1/000866_2014-06-09_20-45-42_260595134347_rgbf000139-resize_1-target.png,1000,3.2155,40,3999,1010,meters,jsons/v1_VE1000_randls_68.json,907620,1274088,1968,Man
59,844864,DepthScenes,duration_manipulation_targetAtFixation,jsons/v1_VE1000_randls_68.json,http://54.235.29.9/FacialAge/BNav_EC2/DepthDuration/v2_depth_duration_MTurk/v2_DepthDuration_HTML.html#303,303,1280,881,1920,1080,8-29-2022,13-25-11,60,depth_duration_stimuli/001244_2014-06-17_16-47-45_260595134347_rgbf000030-resize_4/001244_2014-06-17_16-47-45_260595134347_rgbf000030-resize_4-target.png,1000,2.0425,50,4067,1008,meters,jsons/v1_VE1000_randls_68.json,907620,1274088,1968,Man
60,844864,DepthScenes,duration_manipulation_targetAtFixation,jsons/v1_VE1000_randls_68.json,http://54.235.29.9/FacialAge/BNav_EC2/DepthDuration/v2_depth_duration_MTurk/v2_DepthDuration_HTML.html#303,303,1280,881,1920,1080,8-29-2022,13-25-11,61,depth_duration_stimuli/003495_2014-05-21_16-01-51_094959634447_rgbf000100-resize_3/003495_2014-05-21_16-01-51_094959634447_rgbf000100-resize_3-target.png,1000,1.6255,40,4061,992,meters,jsons/v1_VE1000_randls_68.json,907620,1274088,1968,Man
61,844864,DepthScenes,duration_manipulation_targetAtFixation,jsons/v1_VE1000_randls_68.json,http://54.235.29.9/FacialAge/BNav_EC2/DepthDuration/v2_depth_duration_MTurk/v2_DepthDuration_HTML.html#303,303,1280,881,1920,1080,8-29-2022,13-25-11,62,depth_duration_stimuli/002043_2014-06-24_20-29-38_260595134347_rgbf000039-resize_4/002043_2014-06-24_20-29-38_260595134347_rgbf000039-resize_4-target.png,1000,2.8435,60,4859,1012,meters,jsons/v1_VE1000_randls_68.json,907620,1274088,1968,Man
62,844864,DepthScenes,duration_manipulation_targetAtFixation,jsons/v1_VE1000_randls_68.json,http://54.235.29.9/FacialAge/BNav_EC2/DepthDuration/v2_depth_duration_MTurk/v2_DepthDuration_HTML.html#303,303,1280,881,1920,1080,8-29-2022,13-25-11,63,depth_duration_stimuli/003048_2014-06-15_13-49-43_094959634447_rgbf000150-resize_1/003048_2014-06-15_13-49-43_094959634447_rgbf000150-resize_1-target.png,1000,4.0035,80,4635,1003,meters,jsons/v1_VE1000_randls_68.json,907620,1274088,1968,Man
63,844864,DepthScenes,duration_manipulation_targetAtFixation,jsons/v1_VE1000_randls_68.json,http://54.235.29.9/FacialAge/BNav_EC2/DepthDuration/v2_depth_duration_MTurk/v2_DepthDuration_HTML.html#303,303,1280,881,1920,1080,8-29-2022,13-25-11,64,depth_duration_stimuli/000773_2014-06-08_22-24-54_260595134347_rgbf000093-resize_1/000773_2014-06-08_22-24-54_260595134347_rgbf000093-resize_1-target.png,1000,4.973,85,4811,1011,meters,jsons/v1_VE1000_randls_68.json,907620,1274088,1968,Man
64,844864,DepthScenes,duration_manipulation_targetAtFixation,jsons/v1_VE1000_randls_68.json,http://54.235.29.9/FacialAge/BNav_EC2/DepthDuration/v2_depth_duration_MTurk/v2_DepthDuration_HTML.html#303,303,1280,881,1920,1080,8-29-2022,13-25-11,65,depth_duration_stimuli/002414_2014-06-28_20-24-58_260595134347_rgbf000067-resize_4/002414_2014-06-28_20-24-58_260595134347_rgbf000067-resize_4-target.png,1000,4.363,85,4992,1004,meters,jsons/v1_VE1000_randls_68.json,907620,1274088,1968,Man
65,844864,DepthScenes,duration_manipulation_targetAtFixation,jsons/v1_VE1000_randls_68.json,http://54.235.29.9/FacialAge/BNav_EC2/DepthDuration/v2_depth_duration_MTurk/v2_DepthDuration_HTML.html#303,303,1280,881,1920,1080,8-29-2022,13-25-11,66,depth_duration_stimuli/001222_2014-06-17_16-24-06_260595134347_rgbf000073-resize_0/001222_2014-06-17_16-24-06_260595134347_rgbf000073-resize-original.jpg,1000,1.4385,0,4082,1008,meters,jsons/v1_VE1000_randls_68.json,907620,1274088,1968,Man
66,844864,DepthScenes,duration_manipulation_targetAtFixation,jsons/v1_VE1000_randls_68.json,http://54.235.29.9/FacialAge/BNav_EC2/DepthDuration/v2_depth_duration_MTurk/v2_DepthDuration_HTML.html#303,303,1280,881,1920,1080,8-29-2022,13-25-11,67,depth_duration_stimuli/001150_2014-06-17_15-27-34_260595134347_rgbf000108-resize_2/001150_2014-06-17_15-27-34_260595134347_rgbf000108-resize_2-target.png,1000,4.0325,65,6498,999,meters,jsons/v1_VE1000_randls_68.json,907620,1274088,1968,Man
67,844864,DepthScenes,duration_manipulation_targetAtFixation,jsons/v1_VE1000_randls_68.json,http://54.235.29.9/FacialAge/BNav_EC2/DepthDuration/v2_depth_duration_MTurk/v2_DepthDuration_HTML.html#303,303,1280,881,1920,1080,8-29-2022,13-25-11,68,depth_duration_stimuli/000665_2014-06-09_20-42-35_260595134347_rgbf000110-resize_1/000665_2014-06-09_20-42-35_260595134347_rgbf000110-resize_1-target.png,1000,3.057,65,5096,1011,meters,jsons/v1_VE1000_randls_68.json,907620,1274088,1968,Man
68,844864,DepthScenes,duration_manipulation_targetAtFixation,jsons/v1_VE1000_randls_68.json,http://54.235.29.9/FacialAge/BNav_EC2/DepthDuration/v2_depth_duration_MTurk/v2_DepthDuration_HTML.html#303,303,1280,881,1920,1080,8-29-2022,13-25-11,69,depth_duration_stimuli/000692_2014-06-08_13-09-42_260595134347_rgbf000199-resize_2/000692_2014-06-08_13-09-42_260595134347_rgbf000199-resize_2-target.png,1000,3.661,70,3784,1004,meters,jsons/v1_VE1000_randls_68.json,907620,1274088,1968,Man
69,844864,DepthScenes,duration_manipulation_targetAtFixation,jsons/v1_VE1000_randls_68.json,http://54.235.29.9/FacialAge/BNav_EC2/DepthDuration/v2_depth_duration_MTurk/v2_DepthDuration_HTML.html#303,303,1280,881,1920,1080,8-29-2022,13-25-11,70,depth_duration_stimuli/001094_2014-06-15_17-36-00_260595134347_rgbf000205-resize_0/001094_2014-06-15_17-36-00_260595134347_rgbf000205-resize_0-target.png,1000,4.2175,80,6324,1005,meters,jsons/v1_VE1000_randls_68.json,907620,1274088,1968,Man
70,844864,DepthScenes,duration_manipulation_targetAtFixation,jsons/v1_VE1000_randls_68.json,http://54.235.29.9/FacialAge/BNav_EC2/DepthDuration/v2_depth_duration_MTurk/v2_DepthDuration_HTML.html#303,303,1280,881,1920,1080,8-29-2022,13-25-11,71,depth_duration_stimuli/000436_2014-06-09_22-25-11_260595134347_rgbf000137-resize_1/000436_2014-06-09_22-25-11_260595134347_rgbf000137-resize_1-target.png,1000,4.0705,85,5043,993,meters,jsons/v1_VE1000_randls_68.json,907620,1274088,1968,Man
71,844864,DepthScenes,duration_manipulation_targetAtFixation,jsons/v1_VE1000_randls_68.json,http://54.235.29.9/FacialAge/BNav_EC2/DepthDuration/v2_depth_duration_MTurk/v2_DepthDuration_HTML.html#303,303,1280,881,1920,1080,8-29-2022,13-25-11,72,depth_duration_stimuli/002444_2014-06-28_20-32-08_260595134347_rgbf000027-resize_0/002444_2014-06-28_20-32-08_260595134347_rgbf000027-resize_0-target.png,1000,4.388999999999999,75,4451,1008,meters,jsons/v1_VE1000_randls_68.json,907620,1274088,1968,Man
72,844864,DepthScenes,duration_manipulation_targetAtFixation,jsons/v1_VE1000_randls_68.json,http://54.235.29.9/FacialAge/BNav_EC2/DepthDuration/v2_depth_duration_MTurk/v2_DepthDuration_HTML.html#303,303,1280,881,1920,1080,8-29-2022,13-25-11,73,depth_duration_stimuli/002725_2014-06-22_11-47-51_094959634447_rgbf000070-resize_1/002725_2014-06-22_11-47-51_094959634447_rgbf000070-resize_1-target.png,1000,2.195,70,5058,999,meters,jsons/v1_VE1000_randls_68.json,907620,1274088,1968,Man
73,844864,DepthScenes,duration_manipulation_targetAtFixation,jsons/v1_VE1000_randls_68.json,http://54.235.29.9/FacialAge/BNav_EC2/DepthDuration/v2_depth_duration_MTurk/v2_DepthDuration_HTML.html#303,303,1280,881,1920,1080,8-29-2022,13-25-11,74,depth_duration_stimuli/002344_2014-06-28_20-06-29_260595134347_rgbf000030-resize_1/002344_2014-06-28_20-06-29_260595134347_rgbf000030-resize_1-target.png,1000,1.5795,40,4418,1002,meters,jsons/v1_VE1000_randls_68.json,907620,1274088,1968,Man
74,844864,DepthScenes,duration_manipulation_targetAtFixation,jsons/v1_VE1000_randls_68.json,http://54.235.29.9/FacialAge/BNav_EC2/DepthDuration/v2_depth_duration_MTurk/v2_DepthDuration_HTML.html#303,303,1280,881,1920,1080,8-29-2022,13-25-11,75,depth_duration_stimuli/000878_2014-06-08_22-52-45_260595134347_rgbf000045-resize_2/000878_2014-06-08_22-52-45_260595134347_rgbf000045-resize_2-target.png,1000,2.092,60,4074,1001,meters,jsons/v1_VE1000_randls_68.json,907620,1274088,1968,Man
75,844864,DepthScenes,duration_manipulation_targetAtFixation,jsons/v1_VE1000_randls_68.json,http://54.235.29.9/FacialAge/BNav_EC2/DepthDuration/v2_depth_duration_MTurk/v2_DepthDuration_HTML.html#303,303,1280,881,1920,1080,8-29-2022,13-25-11,76,depth_duration_stimuli/002953_2014-06-08_17-32-18_094959634447_rgbf000059-resize_5/002953_2014-06-08_17-32-18_094959634447_rgbf000059-resize_5-target.png,1000,1.551,40,3877,1002,meters,jsons/v1_VE1000_randls_68.json,907620,1274088,1968,Man
76,844864,DepthScenes,duration_manipulation_targetAtFixation,jsons/v1_VE1000_randls_68.json,http://54.235.29.9/FacialAge/BNav_EC2/DepthDuration/v2_depth_duration_MTurk/v2_DepthDuration_HTML.html#303,303,1280,881,1920,1080,8-29-2022,13-25-11,77,depth_duration_stimuli/002279_2014-06-28_18-55-32_260595134347_rgbf000040-resize_5/002279_2014-06-28_18-55-32_260595134347_rgbf000040-resize_5-target.png,1000,1.5043333333333,40,3402,1001,meters,jsons/v1_VE1000_randls_68.json,907620,1274088,1968,Man
77,844864,DepthScenes,duration_manipulation_targetAtFixation,jsons/v1_VE1000_randls_68.json,http://54.235.29.9/FacialAge/BNav_EC2/DepthDuration/v2_depth_duration_MTurk/v2_DepthDuration_HTML.html#303,303,1280,881,1920,1080,8-29-2022,13-25-11,78,depth_duration_stimuli/000635_2014-06-08_16-38-42_260595134347_rgbf000106-resize_1/000635_2014-06-08_16-38-42_260595134347_rgbf000106-resize_1-target.png,1000,2.074,50,3458,1015,meters,jsons/v1_VE1000_randls_68.json,907620,1274088,1968,Man
78,844864,DepthScenes,duration_manipulation_targetAtFixation,jsons/v1_VE1000_randls_68.json,http://54.235.29.9/FacialAge/BNav_EC2/DepthDuration/v2_depth_duration_MTurk/v2_DepthDuration_HTML.html#303,303,1280,881,1920,1080,8-29-2022,13-25-11,79,depth_duration_stimuli/002509_2014-06-24_13-19-22_094959634447_rgbf000077-resize_0/002509_2014-06-24_13-19-22_094959634447_rgbf000077-resize_0-target.png,1000,1.3065,50,3220,1005,meters,jsons/v1_VE1000_randls_68.json,907620,1274088,1968,Man
79,844864,DepthScenes,duration_manipulation_targetAtFixation,jsons/v1_VE1000_randls_68.json,http://54.235.29.9/FacialAge/BNav_EC2/DepthDuration/v2_depth_duration_MTurk/v2_DepthDuration_HTML.html#303,303,1280,881,1920,1080,8-29-2022,13-25-11,80,depth_duration_stimuli/003338_2014-05-20_11-01-23_094959634447_rgbf000051-resize_6/003338_2014-05-20_11-01-23_094959634447_rgbf000051-resize_6-target.png,1000,1.693,50,3602,1006,meters,jsons/v1_VE1000_randls_68.json,907620,1274088,1968,Man
80,844864,DepthScenes,duration_manipulation_targetAtFixation,jsons/v1_VE1000_randls_68.json,http://54.235.29.9/FacialAge/BNav_EC2/DepthDuration/v2_depth_duration_MTurk/v2_DepthDuration_HTML.html#303,303,1280,881,1920,1080,8-29-2022,13-25-11,81,depth_duration_stimuli/002153_2014-06-25_21-27-18_260595134347_rgbf000038-resize_5/002153_2014-06-25_21-27-18_260595134347_rgbf000038-resize_5-target.png,1000,2.505,40,3624,1010,meters,jsons/v1_VE1000_randls_68.json,907620,1274088,1968,Man
81,844864,DepthScenes,duration_manipulation_targetAtFixation,jsons/v1_VE1000_randls_68.json,http://54.235.29.9/FacialAge/BNav_EC2/DepthDuration/v2_depth_duration_MTurk/v2_DepthDuration_HTML.html#303,303,1280,881,1920,1080,8-29-2022,13-25-11,82,depth_duration_stimuli/002660_2014-06-13_15-44-18_094959634447_rgbf001878-resize_2/002660_2014-06-13_15-44-18_094959634447_rgbf001878-resize_2-target.png,1000,3.576,60,3844,1009,meters,jsons/v1_VE1000_randls_68.json,907620,1274088,1968,Man
82,844864,DepthScenes,duration_manipulation_targetAtFixation,jsons/v1_VE1000_randls_68.json,http://54.235.29.9/FacialAge/BNav_EC2/DepthDuration/v2_depth_duration_MTurk/v2_DepthDuration_HTML.html#303,303,1280,881,1920,1080,8-29-2022,13-25-11,83,depth_duration_stimuli/002039_2014-06-24_20-22-38_260595134347_rgbf000084-resize_1/002039_2014-06-24_20-22-38_260595134347_rgbf000084-resize_1-target.png,1000,4.408,80,3413,1012,meters,jsons/v1_VE1000_randls_68.json,907620,1274088,1968,Man
83,844864,DepthScenes,duration_manipulation_targetAtFixation,jsons/v1_VE1000_randls_68.json,http://54.235.29.9/FacialAge/BNav_EC2/DepthDuration/v2_depth_duration_MTurk/v2_DepthDuration_HTML.html#303,303,1280,881,1920,1080,8-29-2022,13-25-11,84,depth_duration_stimuli/002103_2014-06-25_20-00-40_260595134347_rgbf000049-resize_0/002103_2014-06-25_20-00-40_260595134347_rgbf000049-resize_0-target.png,1000,4.105,60,4876,1012,meters,jsons/v1_VE1000_randls_68.json,907620,1274088,1968,Man
84,844864,DepthScenes,duration_manipulation_targetAtFixation,jsons/v1_VE1000_randls_68.json,http://54.235.29.9/FacialAge/BNav_EC2/DepthDuration/v2_depth_duration_MTurk/v2_DepthDuration_HTML.html#303,303,1280,881,1920,1080,8-29-2022,13-25-11,85,depth_duration_stimuli/000470_2014-06-09_19-42-40_260595134347_rgbf000094-resize_1/000470_2014-06-09_19-42-40_260595134347_rgbf000094-resize_1-target.png,1000,1.831,40,3282,989,meters,jsons/v1_VE1000_randls_68.json,907620,1274088,1968,Man
85,844864,DepthScenes,duration_manipulation_targetAtFixation,jsons/v1_VE1000_randls_68.json,http://54.235.29.9/FacialAge/BNav_EC2/DepthDuration/v2_depth_duration_MTurk/v2_DepthDuration_HTML.html#303,303,1280,881,1920,1080,8-29-2022,13-25-11,86,depth_duration_stimuli/000109_2014-05-14_23-41-52_260595134347_rgbf000035-resize_9/000109_2014-05-14_23-41-52_260595134347_rgbf000035-resize_9-target.png,1000,1.3545,40,4165,1003,meters,jsons/v1_VE1000_randls_68.json,907620,1274088,1968,Man
86,844864,DepthScenes,duration_manipulation_targetAtFixation,jsons/v1_VE1000_randls_68.json,http://54.235.29.9/FacialAge/BNav_EC2/DepthDuration/v2_depth_duration_MTurk/v2_DepthDuration_HTML.html#303,303,1280,881,1920,1080,8-29-2022,13-25-11,87,depth_duration_stimuli/002213_2014-06-28_18-37-58_260595134347_rgbf000055-resize_1/002213_2014-06-28_18-37-58_260595134347_rgbf000055-resize_1-target.png,1000,3.62,80,4474,1012,meters,jsons/v1_VE1000_randls_68.json,907620,1274088,1968,Man
87,844864,DepthScenes,duration_manipulation_targetAtFixation,jsons/v1_VE1000_randls_68.json,http://54.235.29.9/FacialAge/BNav_EC2/DepthDuration/v2_depth_duration_MTurk/v2_DepthDuration_HTML.html#303,303,1280,881,1920,1080,8-29-2022,13-25-11,88,depth_duration_stimuli/000691_2014-06-08_13-08-50_260595134347_rgbf000132-resize_3/000691_2014-06-08_13-08-50_260595134347_rgbf000132-resize_3-target.png,1000,4.1530000000000005,65,8732,1013,meters,jsons/v1_VE1000_randls_68.json,907620,1274088,1968,Man
88,844864,DepthScenes,duration_manipulation_targetAtFixation,jsons/v1_VE1000_randls_68.json,http://54.235.29.9/FacialAge/BNav_EC2/DepthDuration/v2_depth_duration_MTurk/v2_DepthDuration_HTML.html#303,303,1280,881,1920,1080,8-29-2022,13-25-11,89,depth_duration_stimuli/000736_2014-06-08_18-24-15_260595134347_rgbf000206-resize_3/000736_2014-06-08_18-24-15_260595134347_rgbf000206-resize_3-target.png,1000,3.515,60,4834,1015,meters,jsons/v1_VE1000_randls_68.json,907620,1274088,1968,Man
89,844864,DepthScenes,duration_manipulation_targetAtFixation,jsons/v1_VE1000_randls_68.json,http://54.235.29.9/FacialAge/BNav_EC2/DepthDuration/v2_depth_duration_MTurk/v2_DepthDuration_HTML.html#303,303,1280,881,1920,1080,8-29-2022,13-25-11,90,depth_duration_stimuli/000137_2014-05-20_17-04-49_260595134347_rgbf000120-resize_1/000137_2014-05-20_17-04-49_260595134347_rgbf000120-resize_1-target.png,1000,3.786,70,3945,1004,meters,jsons/v1_VE1000_randls_68.json,907620,1274088,1968,Man
90,844864,DepthScenes,duration_manipulation_targetAtFixation,jsons/v1_VE1000_randls_68.json,http://54.235.29.9/FacialAge/BNav_EC2/DepthDuration/v2_depth_duration_MTurk/v2_DepthDuration_HTML.html#303,303,1280,881,1920,1080,8-29-2022,13-25-11,91,depth_duration_stimuli/002630_2014-06-24_14-47-50_094959634447_rgbf000055-resize_1/002630_2014-06-24_14-47-50_094959634447_rgbf000055-resize_1-target.png,1000,3.0095,75,4322,1016,meters,jsons/v1_VE1000_randls_68.json,907620,1274088,1968,Man
91,844864,DepthScenes,duration_manipulation_targetAtFixation,jsons/v1_VE1000_randls_68.json,http://54.235.29.9/FacialAge/BNav_EC2/DepthDuration/v2_depth_duration_MTurk/v2_DepthDuration_HTML.html#303,303,1280,881,1920,1080,8-29-2022,13-25-11,92,depth_duration_stimuli/002758_2014-06-22_19-11-20_094959634447_rgbf000128-resize_1/002758_2014-06-22_19-11-20_094959634447_rgbf000128-resize_1-target.png,1000,2.555,70,5968,1001,meters,jsons/v1_VE1000_randls_68.json,907620,1274088,1968,Man
92,844864,DepthScenes,duration_manipulation_targetAtFixation,jsons/v1_VE1000_randls_68.json,http://54.235.29.9/FacialAge/BNav_EC2/DepthDuration/v2_depth_duration_MTurk/v2_DepthDuration_HTML.html#303,303,1280,881,1920,1080,8-29-2022,13-25-11,93,depth_duration_stimuli/000506_2014-06-08_23-21-00_260595134347_rgbf000070-resize_7/000506_2014-06-08_23-21-00_260595134347_rgbf000070-resize_7-target.png,1000,4.0585,80,3938,1013,meters,jsons/v1_VE1000_randls_68.json,907620,1274088,1968,Man
93,844864,DepthScenes,duration_manipulation_targetAtFixation,jsons/v1_VE1000_randls_68.json,http://54.235.29.9/FacialAge/BNav_EC2/DepthDuration/v2_depth_duration_MTurk/v2_DepthDuration_HTML.html#303,303,1280,881,1920,1080,8-29-2022,13-25-11,94,depth_duration_stimuli/003079_2014-06-15_15-18-20_094959634447_rgbf000152-resize_8/003079_2014-06-15_15-18-20_094959634447_rgbf000152-resize_8-target.png,1000,2.8775,85,4185,1012,meters,jsons/v1_VE1000_randls_68.json,907620,1274088,1968,Man
94,844864,DepthScenes,duration_manipulation_targetAtFixation,jsons/v1_VE1000_randls_68.json,http://54.235.29.9/FacialAge/BNav_EC2/DepthDuration/v2_depth_duration_MTurk/v2_DepthDuration_HTML.html#303,303,1280,881,1920,1080,8-29-2022,13-25-11,95,depth_duration_stimuli/002118_2014-06-25_20-32-08_260595134347_rgbf000078-resize_1/002118_2014-06-25_20-32-08_260595134347_rgbf000078-resize_1-target.png,1000,2.6460000000000004,65,4172,1009,meters,jsons/v1_VE1000_randls_68.json,907620,1274088,1968,Man
95,844864,DepthScenes,duration_manipulation_targetAtFixation,jsons/v1_VE1000_randls_68.json,http://54.235.29.9/FacialAge/BNav_EC2/DepthDuration/v2_depth_duration_MTurk/v2_DepthDuration_HTML.html#303,303,1280,881,1920,1080,8-29-2022,13-25-11,96,depth_duration_stimuli/001516_2014-06-20_16-25-09_260595134347_rgbf000076-resize_2/001516_2014-06-20_16-25-09_260595134347_rgbf000076-resize_2-target.png,1000,1.7445,65,3985,1000,meters,jsons/v1_VE1000_randls_68.json,907620,1274088,1968,Man
96,844864,DepthScenes,duration_manipulation_targetAtFixation,jsons/v1_VE1000_randls_68.json,http://54.235.29.9/FacialAge/BNav_EC2/DepthDuration/v2_depth_duration_MTurk/v2_DepthDuration_HTML.html#303,303,1280,881,1920,1080,8-29-2022,13-25-11,97,depth_duration_stimuli/000682_2014-06-08_23-14-58_260595134347_rgbf000041-resize_5/000682_2014-06-08_23-14-58_260595134347_rgbf000041-resize_5-target.png,1000,2.7239999999999998,70,4459,1001,meters,jsons/v1_VE1000_randls_68.json,907620,1274088,1968,Man
97,844864,DepthScenes,duration_manipulation_targetAtFixation,jsons/v1_VE1000_randls_68.json,http://54.235.29.9/FacialAge/BNav_EC2/DepthDuration/v2_depth_duration_MTurk/v2_DepthDuration_HTML.html#303,303,1280,881,1920,1080,8-29-2022,13-25-11,98,depth_duration_stimuli/001650_2014-06-20_12-09-00_260595134347_rgbf000087-resize_3/001650_2014-06-20_12-09-00_260595134347_rgbf000087-resize_3-target.png,1000,1.9505,40,3708,1006,meters,jsons/v1_VE1000_randls_68.json,907620,1274088,1968,Man
98,844864,DepthScenes,duration_manipulation_targetAtFixation,jsons/v1_VE1000_randls_68.json,http://54.235.29.9/FacialAge/BNav_EC2/DepthDuration/v2_depth_duration_MTurk/v2_DepthDuration_HTML.html#303,303,1280,881,1920,1080,8-29-2022,13-25-11,99,depth_duration_stimuli/001540_2014-06-20_17-01-05_260595134347_rgbf000086-resize_2/001540_2014-06-20_17-01-05_260595134347_rgbf000086-resize-original.jpg,1000,1.459,0,3626,1013,meters,jsons/v1_VE1000_randls_68.json,907620,1274088,1968,Man
99,844864,DepthScenes,duration_manipulation_targetAtFixation,jsons/v1_VE1000_randls_68.json,http://54.235.29.9/FacialAge/BNav_EC2/DepthDuration/v2_depth_duration_MTurk/v2_DepthDuration_HTML.html#303,303,1280,881,1920,1080,8-29-2022,13-25-11,100,depth_duration_stimuli/002988_2014-06-15_12-24-20_094959634447_rgbf000150-resize_1/002988_2014-06-15_12-24-20_094959634447_rgbf000150-resize_1-target.png,1000,4.7669999999999995,90,4111,1006,meters,jsons/v1_VE1000_randls_68.json,907620,1274088,1968,Man
100,844864,DepthScenes,duration_manipulation_targetAtFixation,jsons/v1_VE1000_randls_68.json,http://54.235.29.9/FacialAge/BNav_EC2/DepthDuration/v2_depth_duration_MTurk/v2_DepthDuration_HTML.html#303,303,1280,881,1920,1080,8-29-2022,13-25-11,101,depth_duration_stimuli/001052_2014-06-08_18-24-54_260595134347_rgbf000130-resize_1/001052_2014-06-08_18-24-54_260595134347_rgbf000130-resize_1-target.png,1000,4.1045,90,4368,1005,meters,jsons/v1_VE1000_randls_68.json,907620,1274088,1968,Man
101,844864,DepthScenes,duration_manipulation_targetAtFixation,jsons/v1_VE1000_randls_68.json,http://54.235.29.9/FacialAge/BNav_EC2/DepthDuration/v2_depth_duration_MTurk/v2_DepthDuration_HTML.html#303,303,1280,881,1920,1080,8-29-2022,13-25-11,102,depth_duration_stimuli/001056_2014-06-08_18-46-44_260595134347_rgbf000068-resize_0/001056_2014-06-08_18-46-44_260595134347_rgbf000068-resize_0-target.png,1000,2.6625,75,4564,1013,meters,jsons/v1_VE1000_randls_68.json,907620,1274088,1968,Man
102,844864,DepthScenes,duration_manipulation_targetAtFixation,jsons/v1_VE1000_randls_68.json,http://54.235.29.9/FacialAge/BNav_EC2/DepthDuration/v2_depth_duration_MTurk/v2_DepthDuration_HTML.html#303,303,1280,881,1920,1080,8-29-2022,13-25-11,103,depth_duration_stimuli/002199_2014-06-28_18-33-56_260595134347_rgbf000074-resize_0/002199_2014-06-28_18-33-56_260595134347_rgbf000074-resize_0-target.png,1000,1.996,65,7841,1669,meters,jsons/v1_VE1000_randls_68.json,907620,1274088,1968,Man
103,844864,DepthScenes,duration_manipulation_targetAtFixation,jsons/v1_VE1000_randls_68.json,http://54.235.29.9/FacialAge/BNav_EC2/DepthDuration/v2_depth_duration_MTurk/v2_DepthDuration_HTML.html#303,303,1280,881,1920,1080,8-29-2022,13-25-11,104,depth_duration_stimuli/002663_2014-06-13_15-50-26_094959634447_rgbf000075-resize_1/002663_2014-06-13_15-50-26_094959634447_rgbf000075-resize_1-target.png,1000,4.7495,80,4850,988,meters,jsons/v1_VE1000_randls_68.json,907620,1274088,1968,Man
104,844864,DepthScenes,duration_manipulation_targetAtFixation,jsons/v1_VE1000_randls_68.json,http://54.235.29.9/FacialAge/BNav_EC2/DepthDuration/v2_depth_duration_MTurk/v2_DepthDuration_HTML.html#303,303,1280,881,1920,1080,8-29-2022,13-25-11,105,depth_duration_stimuli/000409_2014-06-04_19-23-33_260595134347_rgbf000067-resize_0/000409_2014-06-04_19-23-33_260595134347_rgbf000067-resize_0-target.png,1000,3.7335,65,3879,990,meters,jsons/v1_VE1000_randls_68.json,907620,1274088,1968,Man
105,844864,DepthScenes,duration_manipulation_targetAtFixation,jsons/v1_VE1000_randls_68.json,http://54.235.29.9/FacialAge/BNav_EC2/DepthDuration/v2_depth_duration_MTurk/v2_DepthDuration_HTML.html#303,303,1280,881,1920,1080,8-29-2022,13-25-11,106,depth_duration_stimuli/002784_2014-06-22_19-26-30_094959634447_rgbf000083-resize_3/002784_2014-06-22_19-26-30_094959634447_rgbf000083-resize_3-target.png,1000,1.8046666666667,40,4153,1000,meters,jsons/v1_VE1000_randls_68.json,907620,1274088,1968,Man
106,844864,DepthScenes,duration_manipulation_targetAtFixation,jsons/v1_VE1000_randls_68.json,http://54.235.29.9/FacialAge/BNav_EC2/DepthDuration/v2_depth_duration_MTurk/v2_DepthDuration_HTML.html#303,303,1280,881,1920,1080,8-29-2022,13-25-11,107,depth_duration_stimuli/001100_2014-06-15_17-46-26_260595134347_rgbf000225-resize_2/001100_2014-06-15_17-46-26_260595134347_rgbf000225-resize_2-target.png,1000,2.24,40,3386,1008,meters,jsons/v1_VE1000_randls_68.json,907620,1274088,1968,Man
107,844864,DepthScenes,duration_manipulation_targetAtFixation,jsons/v1_VE1000_randls_68.json,http://54.235.29.9/FacialAge/BNav_EC2/DepthDuration/v2_depth_duration_MTurk/v2_DepthDuration_HTML.html#303,303,1280,881,1920,1080,8-29-2022,13-25-11,108,depth_duration_stimuli/003534_2014-05-22_15-06-10_094959634447_rgbf000102-resize_4/003534_2014-05-22_15-06-10_094959634447_rgbf000102-resize_4-target.png,1000,1.426,40,3911,994,meters,jsons/v1_VE1000_randls_68.json,907620,1274088,1968,Man
108,844864,DepthScenes,duration_manipulation_targetAtFixation,jsons/v1_VE1000_randls_68.json,http://54.235.29.9/FacialAge/BNav_EC2/DepthDuration/v2_depth_duration_MTurk/v2_DepthDuration_HTML.html#303,303,1280,881,1920,1080,8-29-2022,13-25-11,109,depth_duration_stimuli/002637_2014-06-24_14-51-13_094959634447_rgbf000066-resize_4/002637_2014-06-24_14-51-13_094959634447_rgbf000066-resize_4-target.png,1000,1.9955,65,3537,1000,meters,jsons/v1_VE1000_randls_68.json,907620,1274088,1968,Man
109,844864,DepthScenes,duration_manipulation_targetAtFixation,jsons/v1_VE1000_randls_68.json,http://54.235.29.9/FacialAge/BNav_EC2/DepthDuration/v2_depth_duration_MTurk/v2_DepthDuration_HTML.html#303,303,1280,881,1920,1080,8-29-2022,13-25-11,110,depth_duration_stimuli/001029_2014-06-08_13-17-57_260595134347_rgbf000065-resize_1/001029_2014-06-08_13-17-57_260595134347_rgbf000065-resize_1-target.png,1000,3.0835,80,3453,1001,meters,jsons/v1_VE1000_randls_68.json,907620,1274088,1968,Man
110,844864,DepthScenes,duration_manipulation_targetAtFixation,jsons/v1_VE1000_randls_68.json,http://54.235.29.9/FacialAge/BNav_EC2/DepthDuration/v2_depth_duration_MTurk/v2_DepthDuration_HTML.html#303,303,1280,881,1920,1080,8-29-2022,13-25-11,111,depth_duration_stimuli/000677_2014-06-08_23-10-32_260595134347_rgbf000158-resize_6/000677_2014-06-08_23-10-32_260595134347_rgbf000158-resize_6-target.png,1000,3.556,55,6685,1614,meters,jsons/v1_VE1000_randls_68.json,907620,1274088,1968,Man
111,844864,DepthScenes,duration_manipulation_targetAtFixation,jsons/v1_VE1000_randls_68.json,http://54.235.29.9/FacialAge/BNav_EC2/DepthDuration/v2_depth_duration_MTurk/v2_DepthDuration_HTML.html#303,303,1280,881,1920,1080,8-29-2022,13-25-11,112,depth_duration_stimuli/000917_2014-06-09_22-45-29_260595134347_rgbf000149-resize_3/000917_2014-06-09_22-45-29_260595134347_rgbf000149-resize_3-target.png,1000,4.1865,65,7385,1001,meters,jsons/v1_VE1000_randls_68.json,907620,1274088,1968,Man
112,844864,DepthScenes,duration_manipulation_targetAtFixation,jsons/v1_VE1000_randls_68.json,http://54.235.29.9/FacialAge/BNav_EC2/DepthDuration/v2_depth_duration_MTurk/v2_DepthDuration_HTML.html#303,303,1280,881,1920,1080,8-29-2022,13-25-11,113,depth_duration_stimuli/002323_2014-06-28_20-01-54_260595134347_rgbf000051-resize_4/002323_2014-06-28_20-01-54_260595134347_rgbf000051-resize_4-target.png,1000,3.7310000000000003,75,5357,999,meters,jsons/v1_VE1000_randls_68.json,907620,1274088,1968,Man
113,844864,DepthScenes,duration_manipulation_targetAtFixation,jsons/v1_VE1000_randls_68.json,http://54.235.29.9/FacialAge/BNav_EC2/DepthDuration/v2_depth_duration_MTurk/v2_DepthDuration_HTML.html#303,303,1280,881,1920,1080,8-29-2022,13-25-11,114,depth_duration_stimuli/003621_2014-05-23_18-06-08_094959634447_rgbf000101-resize_1/003621_2014-05-23_18-06-08_094959634447_rgbf000101-resize_1-target.png,1000,3.9835,80,3972,1013,meters,jsons/v1_VE1000_randls_68.json,907620,1274088,1968,Man
114,844864,DepthScenes,duration_manipulation_targetAtFixation,jsons/v1_VE1000_randls_68.json,http://54.235.29.9/FacialAge/BNav_EC2/DepthDuration/v2_depth_duration_MTurk/v2_DepthDuration_HTML.html#303,303,1280,881,1920,1080,8-29-2022,13-25-11,115,depth_duration_stimuli/001584_2014-06-20_11-07-43_260595134347_rgbf000002-resize_1/001584_2014-06-20_11-07-43_260595134347_rgbf000002-resize_1-target.png,1000,3.53,75,8713,1007,meters,jsons/v1_VE1000_randls_68.json,907620,1274088,1968,Man
115,844864,DepthScenes,duration_manipulation_targetAtFixation,jsons/v1_VE1000_randls_68.json,http://54.235.29.9/FacialAge/BNav_EC2/DepthDuration/v2_depth_duration_MTurk/v2_DepthDuration_HTML.html#303,303,1280,881,1920,1080,8-29-2022,13-25-11,116,depth_duration_stimuli/001170_2014-06-17_15-43-44_260595134347_rgbf000096-resize_6/001170_2014-06-17_15-43-44_260595134347_rgbf000096-resize-original.jpg,1000,1.1909999999999998,0,3428,994,meters,jsons/v1_VE1000_randls_68.json,907620,1274088,1968,Man
116,844864,DepthScenes,duration_manipulation_targetAtFixation,jsons/v1_VE1000_randls_68.json,http://54.235.29.9/FacialAge/BNav_EC2/DepthDuration/v2_depth_duration_MTurk/v2_DepthDuration_HTML.html#303,303,1280,881,1920,1080,8-29-2022,13-25-11,117,depth_duration_stimuli/002600_2014-06-24_14-27-04_094959634447_rgbf000074-resize_2/002600_2014-06-24_14-27-04_094959634447_rgbf000074-resize_2-target.png,1000,2.7575,60,5325,995,meters,jsons/v1_VE1000_randls_68.json,907620,1274088,1968,Man
117,844864,DepthScenes,duration_manipulation_targetAtFixation,jsons/v1_VE1000_randls_68.json,http://54.235.29.9/FacialAge/BNav_EC2/DepthDuration/v2_depth_duration_MTurk/v2_DepthDuration_HTML.html#303,303,1280,881,1920,1080,8-29-2022,13-25-11,118,depth_duration_stimuli/003228_2014-05-14_13-42-35_094959634447_rgbf000101-resize_1/003228_2014-05-14_13-42-35_094959634447_rgbf000101-resize_1-target.png,1000,1.9680000000000002,40,5347,992,meters,jsons/v1_VE1000_randls_68.json,907620,1274088,1968,Man
118,844864,DepthScenes,duration_manipulation_targetAtFixation,jsons/v1_VE1000_randls_68.json,http://54.235.29.9/FacialAge/BNav_EC2/DepthDuration/v2_depth_duration_MTurk/v2_DepthDuration_HTML.html#303,303,1280,881,1920,1080,8-29-2022,13-25-11,119,depth_duration_stimuli/002570_2014-06-24_13-59-54_094959634447_rgbf000059-resize_0/002570_2014-06-24_13-59-54_094959634447_rgbf000059-resize_0-target.png,1000,4.037,60,5116,1000,meters,jsons/v1_VE1000_randls_68.json,907620,1274088,1968,Man
119,844864,DepthScenes,duration_manipulation_targetAtFixation,jsons/v1_VE1000_randls_68.json,http://54.235.29.9/FacialAge/BNav_EC2/DepthDuration/v2_depth_duration_MTurk/v2_DepthDuration_HTML.html#303,303,1280,881,1920,1080,8-29-2022,13-25-11,120,depth_duration_stimuli/002467_2014-06-28_20-38-07_260595134347_rgbf000026-resize_2/002467_2014-06-28_20-38-07_260595134347_rgbf000026-resize_2-target.png,1000,4.742,80,5610,1001,meters,jsons/v1_VE1000_randls_68.json,907620,1274088,1968,Man
120,844864,DepthScenes,duration_manipulation_targetAtFixation,jsons/v1_VE1000_randls_68.json,http://54.235.29.9/FacialAge/BNav_EC2/DepthDuration/v2_depth_duration_MTurk/v2_DepthDuration_HTML.html#303,303,1280,881,1920,1080,8-29-2022,13-25-11,121,depth_duration_stimuli/001175_2014-06-17_15-45-55_260595134347_rgbf000129-resize_4/001175_2014-06-17_15-45-55_260595134347_rgbf000129-resize_4-target.png,1000,4.255,80,3931,1001,meters,jsons/v1_VE1000_randls_68.json,907620,1274088,1968,Man
121,844864,DepthScenes,duration_manipulation_targetAtFixation,jsons/v1_VE1000_randls_68.json,http://54.235.29.9/FacialAge/BNav_EC2/DepthDuration/v2_depth_duration_MTurk/v2_DepthDuration_HTML.html#303,303,1280,881,1920,1080,8-29-2022,13-25-11,122,depth_duration_stimuli/003490_2014-05-21_15-50-11_094959634447_rgbf000101-resize_3/003490_2014-05-21_15-50-11_094959634447_rgbf000101-resize_3-target.png,1000,3.6445,75,5090,1007,meters,jsons/v1_VE1000_randls_68.json,907620,1274088,1968,Man
122,844864,DepthScenes,duration_manipulation_targetAtFixation,jsons/v1_VE1000_randls_68.json,http://54.235.29.9/FacialAge/BNav_EC2/DepthDuration/v2_depth_duration_MTurk/v2_DepthDuration_HTML.html#303,303,1280,881,1920,1080,8-29-2022,13-25-11,123,depth_duration_stimuli/003492_2014-05-21_15-50-55_094959634447_rgbf000828-resize_1/003492_2014-05-21_15-50-55_094959634447_rgbf000828-resize_1-target.png,1000,4.06875,80,4299,1009,meters,jsons/v1_VE1000_randls_68.json,907620,1274088,1968,Man
123,844864,DepthScenes,duration_manipulation_targetAtFixation,jsons/v1_VE1000_randls_68.json,http://54.235.29.9/FacialAge/BNav_EC2/DepthDuration/v2_depth_duration_MTurk/v2_DepthDuration_HTML.html#303,303,1280,881,1920,1080,8-29-2022,13-25-11,124,depth_duration_stimuli/002568_2014-06-24_13-59-21_094959634447_rgbf000062-resize_4/002568_2014-06-24_13-59-21_094959634447_rgbf000062-resize_4-target.png,1000,3.015,60,3903,995,meters,jsons/v1_VE1000_randls_68.json,907620,1274088,1968,Man
124,844864,DepthScenes,duration_manipulation_targetAtFixation,jsons/v1_VE1000_randls_68.json,http://54.235.29.9/FacialAge/BNav_EC2/DepthDuration/v2_depth_duration_MTurk/v2_DepthDuration_HTML.html#303,303,1280,881,1920,1080,8-29-2022,13-25-11,125,depth_duration_stimuli/001158_2014-06-17_15-32-16_260595134347_rgbf000138-resize_2/001158_2014-06-17_15-32-16_260595134347_rgbf000138-resize_2-target.png,1000,4.5315,75,7553,1001,meters,jsons/v1_VE1000_randls_68.json,907620,1274088,1968,Man
125,844864,DepthScenes,duration_manipulation_targetAtFixation,jsons/v1_VE1000_randls_68.json,http://54.235.29.9/FacialAge/BNav_EC2/DepthDuration/v2_depth_duration_MTurk/v2_DepthDuration_HTML.html#303,303,1280,881,1920,1080,8-29-2022,13-25-11,126,depth_duration_stimuli/000556_2014-06-09_22-42-56_260595134347_rgbf000214-resize_1/000556_2014-06-09_22-42-56_260595134347_rgbf000214-resize_1-target.png,1000,4.8415,75,4256,994,meters,jsons/v1_VE1000_randls_68.json,907620,1274088,1968,Man
126,844864,DepthScenes,duration_manipulation_targetAtFixation,jsons/v1_VE1000_randls_68.json,http://54.235.29.9/FacialAge/BNav_EC2/DepthDuration/v2_depth_duration_MTurk/v2_DepthDuration_HTML.html#303,303,1280,881,1920,1080,8-29-2022,13-25-11,127,depth_duration_stimuli/001133_2014-06-17_14-49-16_260595134347_rgbf000100-resize_0/001133_2014-06-17_14-49-16_260595134347_rgbf000100-resize_0-target.png,1000,4.2115,70,6325,994,meters,jsons/v1_VE1000_randls_68.json,907620,1274088,1968,Man
127,844864,DepthScenes,duration_manipulation_targetAtFixation,jsons/v1_VE1000_randls_68.json,http://54.235.29.9/FacialAge/BNav_EC2/DepthDuration/v2_depth_duration_MTurk/v2_DepthDuration_HTML.html#303,303,1280,881,1920,1080,8-29-2022,13-25-11,128,depth_duration_stimuli/001132_2014-06-17_14-48-54_260595134347_rgbf000100-resize_2/001132_2014-06-17_14-48-54_260595134347_rgbf000100-resize_2-target.png,1000,3.753,75,3908,1008,meters,jsons/v1_VE1000_randls_68.json,907620,1274088,1968,Man
128,844864,DepthScenes,duration_manipulation_targetAtFixation,jsons/v1_VE1000_randls_68.json,http://54.235.29.9/FacialAge/BNav_EC2/DepthDuration/v2_depth_duration_MTurk/v2_DepthDuration_HTML.html#303,303,1280,881,1920,1080,8-29-2022,13-25-11,129,depth_duration_stimuli/002375_2014-06-28_20-13-44_260595134347_rgbf000032-resize_1/002375_2014-06-28_20-13-44_260595134347_rgbf000032-resize_1-target.png,1000,4.0175,65,3578,1011,meters,jsons/v1_VE1000_randls_68.json,907620,1274088,1968,Man
129,844864,DepthScenes,duration_manipulation_targetAtFixation,jsons/v1_VE1000_randls_68.json,http://54.235.29.9/FacialAge/BNav_EC2/DepthDuration/v2_depth_duration_MTurk/v2_DepthDuration_HTML.html#303,303,1280,881,1920,1080,8-29-2022,13-25-11,130,depth_duration_stimuli/002657_2014-06-13_15-29-54_094959634447_rgbf000150-resize_1/002657_2014-06-13_15-29-54_094959634447_rgbf000150-resize_1-target.png,1000,4.919,80,3522,1001,meters,jsons/v1_VE1000_randls_68.json,907620,1274088,1968,Man
130,844864,DepthScenes,duration_manipulation_targetAtFixation,jsons/v1_VE1000_randls_68.json,http://54.235.29.9/FacialAge/BNav_EC2/DepthDuration/v2_depth_duration_MTurk/v2_DepthDuration_HTML.html#303,303,1280,881,1920,1080,8-29-2022,13-25-11,131,depth_duration_stimuli/000414_2014-06-04_19-49-13_260595134347_rgbf000044-resize_0/000414_2014-06-04_19-49-13_260595134347_rgbf000044-resize_0-target.png,1000,4.329,80,5245,1001,meters,jsons/v1_VE1000_randls_68.json,907620,1274088,1968,Man
131,844864,DepthScenes,duration_manipulation_targetAtFixation,jsons/v1_VE1000_randls_68.json,http://54.235.29.9/FacialAge/BNav_EC2/DepthDuration/v2_depth_duration_MTurk/v2_DepthDuration_HTML.html#303,303,1280,881,1920,1080,8-29-2022,13-25-11,132,depth_duration_stimuli/003129_2014-05-12_10-48-10_094959634447_rgbf000100-resize_0/003129_2014-05-12_10-48-10_094959634447_rgbf000100-resize_0-target.png,1000,4.9305,75,4760,1000,meters,jsons/v1_VE1000_randls_68.json,907620,1274088,1968,Man
132,844864,DepthScenes,duration_manipulation_targetAtFixation,jsons/v1_VE1000_randls_68.json,http://54.235.29.9/FacialAge/BNav_EC2/DepthDuration/v2_depth_duration_MTurk/v2_DepthDuration_HTML.html#303,303,1280,881,1920,1080,8-29-2022,13-25-11,133,depth_duration_stimuli/000739_2014-06-08_18-45-58_260595134347_rgbf000068-resize_1/000739_2014-06-08_18-45-58_260595134347_rgbf000068-resize_1-target.png,1000,3.534,65,4018,1000,meters,jsons/v1_VE1000_randls_68.json,907620,1274088,1968,Man
133,844864,DepthScenes,duration_manipulation_targetAtFixation,jsons/v1_VE1000_randls_68.json,http://54.235.29.9/FacialAge/BNav_EC2/DepthDuration/v2_depth_duration_MTurk/v2_DepthDuration_HTML.html#303,303,1280,881,1920,1080,8-29-2022,13-25-11,134,depth_duration_stimuli/000734_2014-06-08_17-39-11_260595134347_rgbf000128-resize_2/000734_2014-06-08_17-39-11_260595134347_rgbf000128-resize_2-target.png,1000,4.098,75,3755,1007,meters,jsons/v1_VE1000_randls_68.json,907620,1274088,1968,Man
134,844864,DepthScenes,duration_manipulation_targetAtFixation,jsons/v1_VE1000_randls_68.json,http://54.235.29.9/FacialAge/BNav_EC2/DepthDuration/v2_depth_duration_MTurk/v2_DepthDuration_HTML.html#303,303,1280,881,1920,1080,8-29-2022,13-25-11,135,depth_duration_stimuli/002072_2014-06-24_21-48-06_260595134347_rgbf000115-resize_0/002072_2014-06-24_21-48-06_260595134347_rgbf000115-resize-original.jpg,1000,4.702,0,3154,1007,meters,jsons/v1_VE1000_randls_68.json,907620,1274088,1968,Man
135,844864,DepthScenes,duration_manipulation_targetAtFixation,jsons/v1_VE1000_randls_68.json,http://54.235.29.9/FacialAge/BNav_EC2/DepthDuration/v2_depth_duration_MTurk/v2_DepthDuration_HTML.html#303,303,1280,881,1920,1080,8-29-2022,13-25-11,136,depth_duration_stimuli/000929_2014-06-09_16-33-19_260595134347_rgbf000139-resize_0/000929_2014-06-09_16-33-19_260595134347_rgbf000139-resize_0-target.png,1000,2.8680000000000003,55,4387,1000,meters,jsons/v1_VE1000_randls_68.json,907620,1274088,1968,Man
136,844864,DepthScenes,duration_manipulation_targetAtFixation,jsons/v1_VE1000_randls_68.json,http://54.235.29.9/FacialAge/BNav_EC2/DepthDuration/v2_depth_duration_MTurk/v2_DepthDuration_HTML.html#303,303,1280,881,1920,1080,8-29-2022,13-25-11,137,depth_duration_stimuli/000457_2014-06-08_16-52-43_260595134347_rgbf000199-resize_1/000457_2014-06-08_16-52-43_260595134347_rgbf000199-resize_1-target.png,1000,3.6489999999999996,75,3794,999,meters,jsons/v1_VE1000_randls_68.json,907620,1274088,1968,Man
137,844864,DepthScenes,duration_manipulation_targetAtFixation,jsons/v1_VE1000_randls_68.json,http://54.235.29.9/FacialAge/BNav_EC2/DepthDuration/v2_depth_duration_MTurk/v2_DepthDuration_HTML.html#303,303,1280,881,1920,1080,8-29-2022,13-25-11,138,depth_duration_stimuli/000486_2014-06-09_20-47-20_260595134347_rgbf000143-resize_2/000486_2014-06-09_20-47-20_260595134347_rgbf000143-resize_2-target.png,1000,4.8325,80,3453,1004,meters,jsons/v1_VE1000_randls_68.json,907620,1274088,1968,Man
138,844864,DepthScenes,duration_manipulation_targetAtFixation,jsons/v1_VE1000_randls_68.json,http://54.235.29.9/FacialAge/BNav_EC2/DepthDuration/v2_depth_duration_MTurk/v2_DepthDuration_HTML.html#303,303,1280,881,1920,1080,8-29-2022,13-25-11,139,depth_duration_stimuli/003083_2014-06-15_15-21-03_094959634447_rgbf000063-resize_1/003083_2014-06-15_15-21-03_094959634447_rgbf000063-resize_1-target.png,1000,4.1405,85,4258,1008,meters,jsons/v1_VE1000_randls_68.json,907620,1274088,1968,Man
139,844864,DepthScenes,duration_manipulation_targetAtFixation,jsons/v1_VE1000_randls_68.json,http://54.235.29.9/FacialAge/BNav_EC2/DepthDuration/v2_depth_duration_MTurk/v2_DepthDuration_HTML.html#303,303,1280,881,1920,1080,8-29-2022,13-25-11,140,depth_duration_stimuli/001555_2014-06-20_17-12-10_260595134347_rgbf000065-resize_4/001555_2014-06-20_17-12-10_260595134347_rgbf000065-resize_4-target.png,1000,1.633,40,3994,1000,meters,jsons/v1_VE1000_randls_68.json,907620,1274088,1968,Man
140,844864,DepthScenes,duration_manipulation_targetAtFixation,jsons/v1_VE1000_randls_68.json,http://54.235.29.9/FacialAge/BNav_EC2/DepthDuration/v2_depth_duration_MTurk/v2_DepthDuration_HTML.html#303,303,1280,881,1920,1080,8-29-2022,13-25-11,141,depth_duration_stimuli/000103_2014-05-14_22-01-17_260595134347_rgbf000152-resize_5/000103_2014-05-14_22-01-17_260595134347_rgbf000152-resize_5-target.png,1000,1.993,60,4946,1000,meters,jsons/v1_VE1000_randls_68.json,907620,1274088,1968,Man
141,844864,DepthScenes,duration_manipulation_targetAtFixation,jsons/v1_VE1000_randls_68.json,http://54.235.29.9/FacialAge/BNav_EC2/DepthDuration/v2_depth_duration_MTurk/v2_DepthDuration_HTML.html#303,303,1280,881,1920,1080,8-29-2022,13-25-11,142,depth_duration_stimuli/002964_2014-06-08_17-46-11_094959634447_rgbf000091-resize_4/002964_2014-06-08_17-46-11_094959634447_rgbf000091-resize_4-target.png,1000,1.6909999999999998,55,4259,1000,meters,jsons/v1_VE1000_randls_68.json,907620,1274088,1968,Man
142,844864,DepthScenes,duration_manipulation_targetAtFixation,jsons/v1_VE1000_randls_68.json,http://54.235.29.9/FacialAge/BNav_EC2/DepthDuration/v2_depth_duration_MTurk/v2_DepthDuration_HTML.html#303,303,1280,881,1920,1080,8-29-2022,13-25-11,143,depth_duration_stimuli/002136_2014-06-25_21-18-03_260595134347_rgbf000109-resize_3/002136_2014-06-25_21-18-03_260595134347_rgbf000109-resize_3-target.png,1000,1.9569999999999999,65,3530,1000,meters,jsons/v1_VE1000_randls_68.json,907620,1274088,1968,Man
143,844864,DepthScenes,duration_manipulation_targetAtFixation,jsons/v1_VE1000_randls_68.json,http://54.235.29.9/FacialAge/BNav_EC2/DepthDuration/v2_depth_duration_MTurk/v2_DepthDuration_HTML.html#303,303,1280,881,1920,1080,8-29-2022,13-25-11,144,depth_duration_stimuli/002748_2014-06-22_19-07-22_094959634447_rgbf000078-resize_1/002748_2014-06-22_19-07-22_094959634447_rgbf000078-resize_1-target.png,1000,4.6705,90,3307,1007,meters,jsons/v1_VE1000_randls_68.json,907620,1274088,1968,Man
144,844864,DepthScenes,duration_manipulation_targetAtFixation,jsons/v1_VE1000_randls_68.json,http://54.235.29.9/FacialAge/BNav_EC2/DepthDuration/v2_depth_duration_MTurk/v2_DepthDuration_HTML.html#303,303,1280,881,1920,1080,8-29-2022,13-25-11,145,depth_duration_stimuli/002995_2014-06-15_12-31-26_094959634447_rgbf000150-resize_1/002995_2014-06-15_12-31-26_094959634447_rgbf000150-resize_1-target.png,1000,3.8360000000000003,90,5400,1012,meters,jsons/v1_VE1000_randls_68.json,907620,1274088,1968,Man
145,844864,DepthScenes,duration_manipulation_targetAtFixation,jsons/v1_VE1000_randls_68.json,http://54.235.29.9/FacialAge/BNav_EC2/DepthDuration/v2_depth_duration_MTurk/v2_DepthDuration_HTML.html#303,303,1280,881,1920,1080,8-29-2022,13-25-11,146,depth_duration_stimuli/001498_2014-06-19_17-45-14_260595134347_rgbf000129-resize_4/001498_2014-06-19_17-45-14_260595134347_rgbf000129-resize-original.jpg,1000,1.4075,0,3285,1000,meters,jsons/v1_VE1000_randls_68.json,907620,1274088,1968,Man
146,844864,DepthScenes,duration_manipulation_targetAtFixation,jsons/v1_VE1000_randls_68.json,http://54.235.29.9/FacialAge/BNav_EC2/DepthDuration/v2_depth_duration_MTurk/v2_DepthDuration_HTML.html#303,303,1280,881,1920,1080,8-29-2022,13-25-11,147,depth_duration_stimuli/000447_2014-06-08_16-15-46_260595134347_rgbf000130-resize_1/000447_2014-06-08_16-15-46_260595134347_rgbf000130-resize_1-target.png,1000,4.479,80,4336,1009,meters,jsons/v1_VE1000_randls_68.json,907620,1274088,1968,Man
147,844864,DepthScenes,duration_manipulation_targetAtFixation,jsons/v1_VE1000_randls_68.json,http://54.235.29.9/FacialAge/BNav_EC2/DepthDuration/v2_depth_duration_MTurk/v2_DepthDuration_HTML.html#303,303,1280,881,1920,1080,8-29-2022,13-25-11,148,depth_duration_stimuli/001447_2014-06-19_17-00-32_260595134347_rgbf000082-resize_5/001447_2014-06-19_17-00-32_260595134347_rgbf000082-resize_5-target.png,1000,4.13775,70,4495,986,meters,jsons/v1_VE1000_randls_68.json,907620,1274088,1968,Man
148,844864,DepthScenes,duration_manipulation_targetAtFixation,jsons/v1_VE1000_randls_68.json,http://54.235.29.9/FacialAge/BNav_EC2/DepthDuration/v2_depth_duration_MTurk/v2_DepthDuration_HTML.html#303,303,1280,881,1920,1080,8-29-2022,13-25-11,149,depth_duration_stimuli/000368_2014-06-09_15-53-01_260595134347_rgbf000155-resize_2/000368_2014-06-09_15-53-01_260595134347_rgbf000155-resize_2-target.png,1000,2.4859999999999998,40,3258,999,meters,jsons/v1_VE1000_randls_68.json,907620,1274088,1968,Man
149,844864,DepthScenes,duration_manipulation_targetAtFixation,jsons/v1_VE1000_randls_68.json,http://54.235.29.9/FacialAge/BNav_EC2/DepthDuration/v2_depth_duration_MTurk/v2_DepthDuration_HTML.html#303,303,1280,881,1920,1080,8-29-2022,13-25-11,150,depth_duration_stimuli/002678_2014-06-13_16-15-32_094959634447_rgbf000151-resize_6/002678_2014-06-13_16-15-32_094959634447_rgbf000151-resize_6-target.png,1000,2.1830000000000003,60,3683,1000,meters,jsons/v1_VE1000_randls_68.json,907620,1274088,1968,Man
150,844864,DepthScenes,duration_manipulation_targetAtFixation,jsons/v1_VE1000_randls_68.json,http://54.235.29.9/FacialAge/BNav_EC2/DepthDuration/v2_depth_duration_MTurk/v2_DepthDuration_HTML.html#303,303,1280,881,1920,1080,8-29-2022,13-25-11,151,depth_duration_stimuli/003292_2014-05-14_21-53-49_094959634447_rgbf000100-resize_2/003292_2014-05-14_21-53-49_094959634447_rgbf000100-resize_2-target.png,1000,3.4815,55,3612,1000,meters,jsons/v1_VE1000_randls_68.json,907620,1274088,1968,Man
151,844864,DepthScenes,duration_manipulation_targetAtFixation,jsons/v1_VE1000_randls_68.json,http://54.235.29.9/FacialAge/BNav_EC2/DepthDuration/v2_depth_duration_MTurk/v2_DepthDuration_HTML.html#303,303,1280,881,1920,1080,8-29-2022,13-25-11,152,depth_duration_stimuli/002639_2014-06-24_14-51-37_094959634447_rgbf000074-resize_4/002639_2014-06-24_14-51-37_094959634447_rgbf000074-resize_4-target.png,1000,4.0375,65,3970,999,meters,jsons/v1_VE1000_randls_68.json,907620,1274088,1968,Man
152,844864,DepthScenes,duration_manipulation_targetAtFixation,jsons/v1_VE1000_randls_68.json,http://54.235.29.9/FacialAge/BNav_EC2/DepthDuration/v2_depth_duration_MTurk/v2_DepthDuration_HTML.html#303,303,1280,881,1920,1080,8-29-2022,13-25-11,153,depth_duration_stimuli/001011_2014-06-08_23-18-54_260595134347_rgbf000044-resize_4/001011_2014-06-08_23-18-54_260595134347_rgbf000044-resize_4-target.png,1000,2.4730000000000003,75,3281,1008,meters,jsons/v1_VE1000_randls_68.json,907620,1274088,1968,Man
153,844864,DepthScenes,duration_manipulation_targetAtFixation,jsons/v1_VE1000_randls_68.json,http://54.235.29.9/FacialAge/BNav_EC2/DepthDuration/v2_depth_duration_MTurk/v2_DepthDuration_HTML.html#303,303,1280,881,1920,1080,8-29-2022,13-25-11,154,depth_duration_stimuli/002875_2014-06-01_15-19-00_094959634447_rgbf000151-resize_1/002875_2014-06-01_15-19-00_094959634447_rgbf000151-resize_1-target.png,1000,1.9675,80,3283,1000,meters,jsons/v1_VE1000_randls_68.json,907620,1274088,1968,Man
154,844864,DepthScenes,duration_manipulation_targetAtFixation,jsons/v1_VE1000_randls_68.json,http://54.235.29.9/FacialAge/BNav_EC2/DepthDuration/v2_depth_duration_MTurk/v2_DepthDuration_HTML.html#303,303,1280,881,1920,1080,8-29-2022,13-25-11,155,depth_duration_stimuli/002272_2014-06-28_18-53-56_260595134347_rgbf000067-resize_2/002272_2014-06-28_18-53-56_260595134347_rgbf000067-resize_2-target.png,1000,1.138,40,3741,1011,meters,jsons/v1_VE1000_randls_68.json,907620,1274088,1968,Man
155,844864,DepthScenes,duration_manipulation_targetAtFixation,jsons/v1_VE1000_randls_68.json,http://54.235.29.9/FacialAge/BNav_EC2/DepthDuration/v2_depth_duration_MTurk/v2_DepthDuration_HTML.html#303,303,1280,881,1920,1080,8-29-2022,13-25-11,156,depth_duration_stimuli/001571_2014-06-20_17-21-32_260595134347_rgbf000089-resize_1/001571_2014-06-20_17-21-32_260595134347_rgbf000089-resize_1-target.png,1000,1.86,40,5847,995,meters,jsons/v1_VE1000_randls_68.json,907620,1274088,1968,Man
156,844864,DepthScenes,duration_manipulation_targetAtFixation,jsons/v1_VE1000_randls_68.json,http://54.235.29.9/FacialAge/BNav_EC2/DepthDuration/v2_depth_duration_MTurk/v2_DepthDuration_HTML.html#303,303,1280,881,1920,1080,8-29-2022,13-25-11,157,depth_duration_stimuli/001016_2014-06-09_16-16-10_260595134347_rgbf000112-resize_5/001016_2014-06-09_16-16-10_260595134347_rgbf000112-resize_5-target.png,1000,1.6565,50,4490,1009,meters,jsons/v1_VE1000_randls_68.json,907620,1274088,1968,Man
157,844864,DepthScenes,duration_manipulation_targetAtFixation,jsons/v1_VE1000_randls_68.json,http://54.235.29.9/FacialAge/BNav_EC2/DepthDuration/v2_depth_duration_MTurk/v2_DepthDuration_HTML.html#303,303,1280,881,1920,1080,8-29-2022,13-25-11,158,depth_duration_stimuli/002340_2014-06-28_20-05-46_260595134347_rgbf000113-resize_0/002340_2014-06-28_20-05-46_260595134347_rgbf000113-resize_0-target.png,1000,2.4735,70,4194,1014,meters,jsons/v1_VE1000_randls_68.json,907620,1274088,1968,Man
158,844864,DepthScenes,duration_manipulation_targetAtFixation,jsons/v1_VE1000_randls_68.json,http://54.235.29.9/FacialAge/BNav_EC2/DepthDuration/v2_depth_duration_MTurk/v2_DepthDuration_HTML.html#303,303,1280,881,1920,1080,8-29-2022,13-25-11,159,depth_duration_stimuli/001110_2014-06-15_17-25-28_260595134347_rgbf000150-resize_1/001110_2014-06-15_17-25-28_260595134347_rgbf000150-resize_1-target.png,1000,1.7115,65,32105,1418,meters,jsons/v1_VE1000_randls_68.json,907620,1274088,1968,Man
159,844864,DepthScenes,duration_manipulation_targetAtFixation,jsons/v1_VE1000_randls_68.json,http://54.235.29.9/FacialAge/BNav_EC2/DepthDuration/v2_depth_duration_MTurk/v2_DepthDuration_HTML.html#303,303,1280,881,1920,1080,8-29-2022,13-25-11,160,depth_duration_stimuli/000927_2014-06-09_16-32-30_260595134347_rgbf000123-resize_3/000927_2014-06-09_16-32-30_260595134347_rgbf000123-resize_3-target.png,1000,2.6785,65,3783,1000,meters,jsons/v1_VE1000_randls_68.json,907620,1274088,1968,Man
160,844864,DepthScenes,duration_manipulation_targetAtFixation,jsons/v1_VE1000_randls_68.json,http://54.235.29.9/FacialAge/BNav_EC2/DepthDuration/v2_depth_duration_MTurk/v2_DepthDuration_HTML.html#303,303,1280,881,1920,1080,8-29-2022,13-25-11,161,depth_duration_stimuli/001066_2014-06-08_22-03-20_260595134347_rgbf000066-resize_4/001066_2014-06-08_22-03-20_260595134347_rgbf000066-resize_4-target.png,1000,4.2330000000000005,80,3495,1009,meters,jsons/v1_VE1000_randls_68.json,907620,1274088,1968,Man
161,844864,DepthScenes,duration_manipulation_targetAtFixation,jsons/v1_VE1000_randls_68.json,http://54.235.29.9/FacialAge/BNav_EC2/DepthDuration/v2_depth_duration_MTurk/v2_DepthDuration_HTML.html#303,303,1280,881,1920,1080,8-29-2022,13-25-11,162,depth_duration_stimuli/000742_2014-06-08_18-48-09_260595134347_rgbf000164-resize_4/000742_2014-06-08_18-48-09_260595134347_rgbf000164-resize_4-target.png,1000,4.632,70,3967,998,meters,jsons/v1_VE1000_randls_68.json,907620,1274088,1968,Man
162,844864,DepthScenes,duration_manipulation_targetAtFixation,jsons/v1_VE1000_randls_68.json,http://54.235.29.9/FacialAge/BNav_EC2/DepthDuration/v2_depth_duration_MTurk/v2_DepthDuration_HTML.html#303,303,1280,881,1920,1080,8-29-2022,13-25-11,163,depth_duration_stimuli/001806_2014-06-26_20-50-20_260595134347_rgbf000091-resize_1/001806_2014-06-26_20-50-20_260595134347_rgbf000091-resize_1-target.png,1000,2.7305,40,3886,999,meters,jsons/v1_VE1000_randls_68.json,907620,1274088,1968,Man
163,844864,DepthScenes,duration_manipulation_targetAtFixation,jsons/v1_VE1000_randls_68.json,http://54.235.29.9/FacialAge/BNav_EC2/DepthDuration/v2_depth_duration_MTurk/v2_DepthDuration_HTML.html#303,303,1280,881,1920,1080,8-29-2022,13-25-11,164,depth_duration_stimuli/001617_2014-06-20_11-35-32_260595134347_rgbf000066-resize_1/001617_2014-06-20_11-35-32_260595134347_rgbf000066-resize_1-target.png,1000,3.7910000000000004,60,3861,988,meters,jsons/v1_VE1000_randls_68.json,907620,1274088,1968,Man
