,subjID,experimentName,versionName,sequenceName,url,selected_row,windowWidth,windowHeight,screenWidth,screenHeight,startDate,startTime,trial,stimulus,duration,actual_depth,depth_estimate,trial_RT,log_sceneDuration,unitSelection,seq_filepath,experimentTime,totalTime,age,gender
0,848056,DepthScenes,duration_manipulation_targetAtFixation,jsons/v1_VE250_randls_57.json,http://54.235.29.9/FacialAge/BNav_EC2/DepthDuration/v2_depth_duration_MTurk/v2_DepthDuration_HTML.html#132,132,1536,722,1536,864,8-20-2022,11-17-13,1,depth_duration_stimuli/002118_2014-06-25_20-32-08_260595134347_rgbf000078-resize_1/002118_2014-06-25_20-32-08_260595134347_rgbf000078-resize_1-target.png,250,2.6460000000000004,2,5576,248,feet,jsons/v1_VE250_randls_57.json,705374,922970,24,Man
1,848056,DepthScenes,duration_manipulation_targetAtFixation,jsons/v1_VE250_randls_57.json,http://54.235.29.9/FacialAge/BNav_EC2/DepthDuration/v2_depth_duration_MTurk/v2_DepthDuration_HTML.html#132,132,1536,722,1536,864,8-20-2022,11-17-13,2,depth_duration_stimuli/001516_2014-06-20_16-25-09_260595134347_rgbf000076-resize_2/001516_2014-06-20_16-25-09_260595134347_rgbf000076-resize_2-target.png,250,1.7445,3,2428,247,feet,jsons/v1_VE250_randls_57.json,705374,922970,24,Man
2,848056,DepthScenes,duration_manipulation_targetAtFixation,jsons/v1_VE250_randls_57.json,http://54.235.29.9/FacialAge/BNav_EC2/DepthDuration/v2_depth_duration_MTurk/v2_DepthDuration_HTML.html#132,132,1536,722,1536,864,8-20-2022,11-17-13,3,depth_duration_stimuli/001150_2014-06-17_15-27-34_260595134347_rgbf000108-resize_2/001150_2014-06-17_15-27-34_260595134347_rgbf000108-resize_2-target.png,250,4.0325,4,5481,248,feet,jsons/v1_VE250_randls_57.json,705374,922970,24,Man
3,848056,DepthScenes,duration_manipulation_targetAtFixation,jsons/v1_VE250_randls_57.json,http://54.235.29.9/FacialAge/BNav_EC2/DepthDuration/v2_depth_duration_MTurk/v2_DepthDuration_HTML.html#132,132,1536,722,1536,864,8-20-2022,11-17-13,4,depth_duration_stimuli/000665_2014-06-09_20-42-35_260595134347_rgbf000110-resize_1/000665_2014-06-09_20-42-35_260595134347_rgbf000110-resize_1-target.png,250,3.057,4,3250,259,feet,jsons/v1_VE250_randls_57.json,705374,922970,24,Man
4,848056,DepthScenes,duration_manipulation_targetAtFixation,jsons/v1_VE250_randls_57.json,http://54.235.29.9/FacialAge/BNav_EC2/DepthDuration/v2_depth_duration_MTurk/v2_DepthDuration_HTML.html#132,132,1536,722,1536,864,8-20-2022,11-17-13,5,depth_duration_stimuli/000447_2014-06-08_16-15-46_260595134347_rgbf000130-resize_1/000447_2014-06-08_16-15-46_260595134347_rgbf000130-resize_1-target.png,250,4.479,5,2169,248,feet,jsons/v1_VE250_randls_57.json,705374,922970,24,Man
5,848056,DepthScenes,duration_manipulation_targetAtFixation,jsons/v1_VE250_randls_57.json,http://54.235.29.9/FacialAge/BNav_EC2/DepthDuration/v2_depth_duration_MTurk/v2_DepthDuration_HTML.html#132,132,1536,722,1536,864,8-20-2022,11-17-13,6,depth_duration_stimuli/001447_2014-06-19_17-00-32_260595134347_rgbf000082-resize_5/001447_2014-06-19_17-00-32_260595134347_rgbf000082-resize_5-target.png,250,4.13775,4,2318,248,feet,jsons/v1_VE250_randls_57.json,705374,922970,24,Man
6,848056,DepthScenes,duration_manipulation_targetAtFixation,jsons/v1_VE250_randls_57.json,http://54.235.29.9/FacialAge/BNav_EC2/DepthDuration/v2_depth_duration_MTurk/v2_DepthDuration_HTML.html#132,132,1536,722,1536,864,8-20-2022,11-17-13,7,depth_duration_stimuli/002763_2014-06-22_19-13-10_094959634447_rgbf000075-resize_4/002763_2014-06-22_19-13-10_094959634447_rgbf000075-resize_4-target.png,250,1.68375,4,5208,249,feet,jsons/v1_VE250_randls_57.json,705374,922970,24,Man
7,848056,DepthScenes,duration_manipulation_targetAtFixation,jsons/v1_VE250_randls_57.json,http://54.235.29.9/FacialAge/BNav_EC2/DepthDuration/v2_depth_duration_MTurk/v2_DepthDuration_HTML.html#132,132,1536,722,1536,864,8-20-2022,11-17-13,8,depth_duration_stimuli/002209_2014-06-28_18-36-10_260595134347_rgbf000051-resize_1/002209_2014-06-28_18-36-10_260595134347_rgbf000051-resize_1-target.png,250,2.057,3,2167,249,feet,jsons/v1_VE250_randls_57.json,705374,922970,24,Man
8,848056,DepthScenes,duration_manipulation_targetAtFixation,jsons/v1_VE250_randls_57.json,http://54.235.29.9/FacialAge/BNav_EC2/DepthDuration/v2_depth_duration_MTurk/v2_DepthDuration_HTML.html#132,132,1536,722,1536,864,8-20-2022,11-17-13,9,depth_duration_stimuli/002988_2014-06-15_12-24-20_094959634447_rgbf000150-resize_1/002988_2014-06-15_12-24-20_094959634447_rgbf000150-resize_1-target.png,250,4.7669999999999995,6,2220,248,feet,jsons/v1_VE250_randls_57.json,705374,922970,24,Man
9,848056,DepthScenes,duration_manipulation_targetAtFixation,jsons/v1_VE250_randls_57.json,http://54.235.29.9/FacialAge/BNav_EC2/DepthDuration/v2_depth_duration_MTurk/v2_DepthDuration_HTML.html#132,132,1536,722,1536,864,8-20-2022,11-17-13,10,depth_duration_stimuli/001052_2014-06-08_18-24-54_260595134347_rgbf000130-resize_1/001052_2014-06-08_18-24-54_260595134347_rgbf000130-resize_1-target.png,250,4.1045,6,2026,249,feet,jsons/v1_VE250_randls_57.json,705374,922970,24,Man
10,848056,DepthScenes,duration_manipulation_targetAtFixation,jsons/v1_VE250_randls_57.json,http://54.235.29.9/FacialAge/BNav_EC2/DepthDuration/v2_depth_duration_MTurk/v2_DepthDuration_HTML.html#132,132,1536,722,1536,864,8-20-2022,11-17-13,11,depth_duration_stimuli/003292_2014-05-14_21-53-49_094959634447_rgbf000100-resize_2/003292_2014-05-14_21-53-49_094959634447_rgbf000100-resize_2-target.png,250,3.4815,4,2196,234,feet,jsons/v1_VE250_randls_57.json,705374,922970,24,Man
11,848056,DepthScenes,duration_manipulation_targetAtFixation,jsons/v1_VE250_randls_57.json,http://54.235.29.9/FacialAge/BNav_EC2/DepthDuration/v2_depth_duration_MTurk/v2_DepthDuration_HTML.html#132,132,1536,722,1536,864,8-20-2022,11-17-13,12,depth_duration_stimuli/002639_2014-06-24_14-51-37_094959634447_rgbf000074-resize_4/002639_2014-06-24_14-51-37_094959634447_rgbf000074-resize_4-target.png,250,4.0375,0,4616,244,feet,jsons/v1_VE250_randls_57.json,705374,922970,24,Man
12,848056,DepthScenes,duration_manipulation_targetAtFixation,jsons/v1_VE250_randls_57.json,http://54.235.29.9/FacialAge/BNav_EC2/DepthDuration/v2_depth_duration_MTurk/v2_DepthDuration_HTML.html#132,132,1536,722,1536,864,8-20-2022,11-17-13,13,depth_duration_stimuli/000569_2014-06-09_22-51-47_260595134347_rgbf000141-resize_3/000569_2014-06-09_22-51-47_260595134347_rgbf000141-resize-original.jpg,250,4.512,0,8761,248,feet,jsons/v1_VE250_randls_57.json,705374,922970,24,Man
13,848056,DepthScenes,duration_manipulation_targetAtFixation,jsons/v1_VE250_randls_57.json,http://54.235.29.9/FacialAge/BNav_EC2/DepthDuration/v2_depth_duration_MTurk/v2_DepthDuration_HTML.html#132,132,1536,722,1536,864,8-20-2022,11-17-13,14,depth_duration_stimuli/001570_2014-06-20_17-21-09_260595134347_rgbf000135-resize_4/001570_2014-06-20_17-21-09_260595134347_rgbf000135-resize_4-target.png,250,4.467,4,3146,251,feet,jsons/v1_VE250_randls_57.json,705374,922970,24,Man
14,848056,DepthScenes,duration_manipulation_targetAtFixation,jsons/v1_VE250_randls_57.json,http://54.235.29.9/FacialAge/BNav_EC2/DepthDuration/v2_depth_duration_MTurk/v2_DepthDuration_HTML.html#132,132,1536,722,1536,864,8-20-2022,11-17-13,15,depth_duration_stimuli/001392_2014-06-19_16-07-59_260595134347_rgbf000046-resize_1/001392_2014-06-19_16-07-59_260595134347_rgbf000046-resize_1-target.png,250,4.135,6,2905,241,feet,jsons/v1_VE250_randls_57.json,705374,922970,24,Man
15,848056,DepthScenes,duration_manipulation_targetAtFixation,jsons/v1_VE250_randls_57.json,http://54.235.29.9/FacialAge/BNav_EC2/DepthDuration/v2_depth_duration_MTurk/v2_DepthDuration_HTML.html#132,132,1536,722,1536,864,8-20-2022,11-17-13,16,depth_duration_stimuli/000506_2014-06-08_23-21-00_260595134347_rgbf000070-resize_7/000506_2014-06-08_23-21-00_260595134347_rgbf000070-resize_7-target.png,250,4.0585,5,2701,248,feet,jsons/v1_VE250_randls_57.json,705374,922970,24,Man
16,848056,DepthScenes,duration_manipulation_targetAtFixation,jsons/v1_VE250_randls_57.json,http://54.235.29.9/FacialAge/BNav_EC2/DepthDuration/v2_depth_duration_MTurk/v2_DepthDuration_HTML.html#132,132,1536,722,1536,864,8-20-2022,11-17-13,17,depth_duration_stimuli/003079_2014-06-15_15-18-20_094959634447_rgbf000152-resize_8/003079_2014-06-15_15-18-20_094959634447_rgbf000152-resize_8-target.png,250,2.8775,6,2484,242,feet,jsons/v1_VE250_randls_57.json,705374,922970,24,Man
17,848056,DepthScenes,duration_manipulation_targetAtFixation,jsons/v1_VE250_randls_57.json,http://54.235.29.9/FacialAge/BNav_EC2/DepthDuration/v2_depth_duration_MTurk/v2_DepthDuration_HTML.html#132,132,1536,722,1536,864,8-20-2022,11-17-13,18,depth_duration_stimuli/002784_2014-06-22_19-26-30_094959634447_rgbf000083-resize_3/002784_2014-06-22_19-26-30_094959634447_rgbf000083-resize_3-target.png,250,1.8046666666667,3,2938,248,feet,jsons/v1_VE250_randls_57.json,705374,922970,24,Man
18,848056,DepthScenes,duration_manipulation_targetAtFixation,jsons/v1_VE250_randls_57.json,http://54.235.29.9/FacialAge/BNav_EC2/DepthDuration/v2_depth_duration_MTurk/v2_DepthDuration_HTML.html#132,132,1536,722,1536,864,8-20-2022,11-17-13,19,depth_duration_stimuli/001100_2014-06-15_17-46-26_260595134347_rgbf000225-resize_2/001100_2014-06-15_17-46-26_260595134347_rgbf000225-resize_2-target.png,250,2.24,3,6769,235,feet,jsons/v1_VE250_randls_57.json,705374,922970,24,Man
19,848056,DepthScenes,duration_manipulation_targetAtFixation,jsons/v1_VE250_randls_57.json,http://54.235.29.9/FacialAge/BNav_EC2/DepthDuration/v2_depth_duration_MTurk/v2_DepthDuration_HTML.html#132,132,1536,722,1536,864,8-20-2022,11-17-13,20,depth_duration_stimuli/000906_2014-06-08_13-35-43_260595134347_rgbf000155-resize_1/000906_2014-06-08_13-35-43_260595134347_rgbf000155-resize_1-target.png,250,2.8489999999999998,6,2176,260,feet,jsons/v1_VE250_randls_57.json,705374,922970,24,Man
20,848056,DepthScenes,duration_manipulation_targetAtFixation,jsons/v1_VE250_randls_57.json,http://54.235.29.9/FacialAge/BNav_EC2/DepthDuration/v2_depth_duration_MTurk/v2_DepthDuration_HTML.html#132,132,1536,722,1536,864,8-20-2022,11-17-13,21,depth_duration_stimuli/002805_2014-06-22_19-54-03_094959634447_rgbf000079-resize_1/002805_2014-06-22_19-54-03_094959634447_rgbf000079-resize_1-target.png,250,3.1439999999999997,5,2025,247,feet,jsons/v1_VE250_randls_57.json,705374,922970,24,Man
21,848056,DepthScenes,duration_manipulation_targetAtFixation,jsons/v1_VE250_randls_57.json,http://54.235.29.9/FacialAge/BNav_EC2/DepthDuration/v2_depth_duration_MTurk/v2_DepthDuration_HTML.html#132,132,1536,722,1536,864,8-20-2022,11-17-13,22,depth_duration_stimuli/001806_2014-06-26_20-50-20_260595134347_rgbf000091-resize_1/001806_2014-06-26_20-50-20_260595134347_rgbf000091-resize_1-target.png,250,2.7305,3,2258,250,feet,jsons/v1_VE250_randls_57.json,705374,922970,24,Man
22,848056,DepthScenes,duration_manipulation_targetAtFixation,jsons/v1_VE250_randls_57.json,http://54.235.29.9/FacialAge/BNav_EC2/DepthDuration/v2_depth_duration_MTurk/v2_DepthDuration_HTML.html#132,132,1536,722,1536,864,8-20-2022,11-17-13,23,depth_duration_stimuli/001617_2014-06-20_11-35-32_260595134347_rgbf000066-resize_1/001617_2014-06-20_11-35-32_260595134347_rgbf000066-resize_1-target.png,250,3.7910000000000004,4,2289,248,feet,jsons/v1_VE250_randls_57.json,705374,922970,24,Man
23,848056,DepthScenes,duration_manipulation_targetAtFixation,jsons/v1_VE250_randls_57.json,http://54.235.29.9/FacialAge/BNav_EC2/DepthDuration/v2_depth_duration_MTurk/v2_DepthDuration_HTML.html#132,132,1536,722,1536,864,8-20-2022,11-17-13,24,depth_duration_stimuli/000009_2014-05-26_14-32-05_260595134347_rgbf000034-resize_3/000009_2014-05-26_14-32-05_260595134347_rgbf000034-resize_3-target.png,250,3.8715,5,2044,249,feet,jsons/v1_VE250_randls_57.json,705374,922970,24,Man
24,848056,DepthScenes,duration_manipulation_targetAtFixation,jsons/v1_VE250_randls_57.json,http://54.235.29.9/FacialAge/BNav_EC2/DepthDuration/v2_depth_duration_MTurk/v2_DepthDuration_HTML.html#132,132,1536,722,1536,864,8-20-2022,11-17-13,25,depth_duration_stimuli/001828_2014-06-26_21-40-03_260595134347_rgbf000024-resize_0/001828_2014-06-26_21-40-03_260595134347_rgbf000024-resize_0-target.png,250,4.8260000000000005,5,1950,248,feet,jsons/v1_VE250_randls_57.json,705374,922970,24,Man
25,848056,DepthScenes,duration_manipulation_targetAtFixation,jsons/v1_VE250_randls_57.json,http://54.235.29.9/FacialAge/BNav_EC2/DepthDuration/v2_depth_duration_MTurk/v2_DepthDuration_HTML.html#132,132,1536,722,1536,864,8-20-2022,11-17-13,26,depth_duration_stimuli/002272_2014-06-28_18-53-56_260595134347_rgbf000067-resize_2/002272_2014-06-28_18-53-56_260595134347_rgbf000067-resize_2-target.png,250,1.138,3,2015,250,feet,jsons/v1_VE250_randls_57.json,705374,922970,24,Man
26,848056,DepthScenes,duration_manipulation_targetAtFixation,jsons/v1_VE250_randls_57.json,http://54.235.29.9/FacialAge/BNav_EC2/DepthDuration/v2_depth_duration_MTurk/v2_DepthDuration_HTML.html#132,132,1536,722,1536,864,8-20-2022,11-17-13,27,depth_duration_stimuli/001571_2014-06-20_17-21-32_260595134347_rgbf000089-resize_1/001571_2014-06-20_17-21-32_260595134347_rgbf000089-resize_1-target.png,250,1.86,3,2017,241,feet,jsons/v1_VE250_randls_57.json,705374,922970,24,Man
27,848056,DepthScenes,duration_manipulation_targetAtFixation,jsons/v1_VE250_randls_57.json,http://54.235.29.9/FacialAge/BNav_EC2/DepthDuration/v2_depth_duration_MTurk/v2_DepthDuration_HTML.html#132,132,1536,722,1536,864,8-20-2022,11-17-13,28,depth_duration_stimuli/000773_2014-06-08_22-24-54_260595134347_rgbf000093-resize_1/000773_2014-06-08_22-24-54_260595134347_rgbf000093-resize_1-target.png,250,4.973,5,1896,274,feet,jsons/v1_VE250_randls_57.json,705374,922970,24,Man
28,848056,DepthScenes,duration_manipulation_targetAtFixation,jsons/v1_VE250_randls_57.json,http://54.235.29.9/FacialAge/BNav_EC2/DepthDuration/v2_depth_duration_MTurk/v2_DepthDuration_HTML.html#132,132,1536,722,1536,864,8-20-2022,11-17-13,29,depth_duration_stimuli/002414_2014-06-28_20-24-58_260595134347_rgbf000067-resize_4/002414_2014-06-28_20-24-58_260595134347_rgbf000067-resize_4-target.png,250,4.363,4,15639,246,feet,jsons/v1_VE250_randls_57.json,705374,922970,24,Man
29,848056,DepthScenes,duration_manipulation_targetAtFixation,jsons/v1_VE250_randls_57.json,http://54.235.29.9/FacialAge/BNav_EC2/DepthDuration/v2_depth_duration_MTurk/v2_DepthDuration_HTML.html#132,132,1536,722,1536,864,8-20-2022,11-17-13,30,depth_duration_stimuli/000375_2014-06-08_11-17-29_260595134347_rgbf000133-resize_2/000375_2014-06-08_11-17-29_260595134347_rgbf000133-resize-original.jpg,250,4.718,0,63695,247,feet,jsons/v1_VE250_randls_57.json,705374,922970,24,Man
30,848056,DepthScenes,duration_manipulation_targetAtFixation,jsons/v1_VE250_randls_57.json,http://54.235.29.9/FacialAge/BNav_EC2/DepthDuration/v2_depth_duration_MTurk/v2_DepthDuration_HTML.html#132,132,1536,722,1536,864,8-20-2022,11-17-13,31,depth_duration_stimuli/001158_2014-06-17_15-32-16_260595134347_rgbf000138-resize_2/001158_2014-06-17_15-32-16_260595134347_rgbf000138-resize_2-target.png,250,4.5315,6,2293,248,feet,jsons/v1_VE250_randls_57.json,705374,922970,24,Man
31,848056,DepthScenes,duration_manipulation_targetAtFixation,jsons/v1_VE250_randls_57.json,http://54.235.29.9/FacialAge/BNav_EC2/DepthDuration/v2_depth_duration_MTurk/v2_DepthDuration_HTML.html#132,132,1536,722,1536,864,8-20-2022,11-17-13,32,depth_duration_stimuli/000556_2014-06-09_22-42-56_260595134347_rgbf000214-resize_1/000556_2014-06-09_22-42-56_260595134347_rgbf000214-resize_1-target.png,250,4.8415,5,48673,249,feet,jsons/v1_VE250_randls_57.json,705374,922970,24,Man
32,848056,DepthScenes,duration_manipulation_targetAtFixation,jsons/v1_VE250_randls_57.json,http://54.235.29.9/FacialAge/BNav_EC2/DepthDuration/v2_depth_duration_MTurk/v2_DepthDuration_HTML.html#132,132,1536,722,1536,864,8-20-2022,11-17-13,33,depth_duration_stimuli/002375_2014-06-28_20-13-44_260595134347_rgbf000032-resize_1/002375_2014-06-28_20-13-44_260595134347_rgbf000032-resize_1-target.png,250,4.0175,3,3100,249,feet,jsons/v1_VE250_randls_57.json,705374,922970,24,Man
33,848056,DepthScenes,duration_manipulation_targetAtFixation,jsons/v1_VE250_randls_57.json,http://54.235.29.9/FacialAge/BNav_EC2/DepthDuration/v2_depth_duration_MTurk/v2_DepthDuration_HTML.html#132,132,1536,722,1536,864,8-20-2022,11-17-13,34,depth_duration_stimuli/002657_2014-06-13_15-29-54_094959634447_rgbf000150-resize_1/002657_2014-06-13_15-29-54_094959634447_rgbf000150-resize_1-target.png,250,4.919,5,2063,248,feet,jsons/v1_VE250_randls_57.json,705374,922970,24,Man
34,848056,DepthScenes,duration_manipulation_targetAtFixation,jsons/v1_VE250_randls_57.json,http://54.235.29.9/FacialAge/BNav_EC2/DepthDuration/v2_depth_duration_MTurk/v2_DepthDuration_HTML.html#132,132,1536,722,1536,864,8-20-2022,11-17-13,35,depth_duration_stimuli/000470_2014-06-09_19-42-40_260595134347_rgbf000094-resize_1/000470_2014-06-09_19-42-40_260595134347_rgbf000094-resize_1-target.png,250,1.831,4,2041,247,feet,jsons/v1_VE250_randls_57.json,705374,922970,24,Man
35,848056,DepthScenes,duration_manipulation_targetAtFixation,jsons/v1_VE250_randls_57.json,http://54.235.29.9/FacialAge/BNav_EC2/DepthDuration/v2_depth_duration_MTurk/v2_DepthDuration_HTML.html#132,132,1536,722,1536,864,8-20-2022,11-17-13,36,depth_duration_stimuli/000109_2014-05-14_23-41-52_260595134347_rgbf000035-resize_9/000109_2014-05-14_23-41-52_260595134347_rgbf000035-resize_9-target.png,250,1.3545,3,2069,247,feet,jsons/v1_VE250_randls_57.json,705374,922970,24,Man
36,848056,DepthScenes,duration_manipulation_targetAtFixation,jsons/v1_VE250_randls_57.json,http://54.235.29.9/FacialAge/BNav_EC2/DepthDuration/v2_depth_duration_MTurk/v2_DepthDuration_HTML.html#132,132,1536,722,1536,864,8-20-2022,11-17-13,37,depth_duration_stimuli/002663_2014-06-13_15-50-26_094959634447_rgbf000075-resize_1/002663_2014-06-13_15-50-26_094959634447_rgbf000075-resize_1-target.png,250,4.7495,6,4704,248,feet,jsons/v1_VE250_randls_57.json,705374,922970,24,Man
37,848056,DepthScenes,duration_manipulation_targetAtFixation,jsons/v1_VE250_randls_57.json,http://54.235.29.9/FacialAge/BNav_EC2/DepthDuration/v2_depth_duration_MTurk/v2_DepthDuration_HTML.html#132,132,1536,722,1536,864,8-20-2022,11-17-13,38,depth_duration_stimuli/000409_2014-06-04_19-23-33_260595134347_rgbf000067-resize_0/000409_2014-06-04_19-23-33_260595134347_rgbf000067-resize_0-target.png,250,3.7335,4,6586,237,feet,jsons/v1_VE250_randls_57.json,705374,922970,24,Man
38,848056,DepthScenes,duration_manipulation_targetAtFixation,jsons/v1_VE250_randls_57.json,http://54.235.29.9/FacialAge/BNav_EC2/DepthDuration/v2_depth_duration_MTurk/v2_DepthDuration_HTML.html#132,132,1536,722,1536,864,8-20-2022,11-17-13,39,depth_duration_stimuli/002630_2014-06-24_14-47-50_094959634447_rgbf000055-resize_1/002630_2014-06-24_14-47-50_094959634447_rgbf000055-resize_1-target.png,250,3.0095,6,3266,249,feet,jsons/v1_VE250_randls_57.json,705374,922970,24,Man
39,848056,DepthScenes,duration_manipulation_targetAtFixation,jsons/v1_VE250_randls_57.json,http://54.235.29.9/FacialAge/BNav_EC2/DepthDuration/v2_depth_duration_MTurk/v2_DepthDuration_HTML.html#132,132,1536,722,1536,864,8-20-2022,11-17-13,40,depth_duration_stimuli/002758_2014-06-22_19-11-20_094959634447_rgbf000128-resize_1/002758_2014-06-22_19-11-20_094959634447_rgbf000128-resize_1-target.png,250,2.555,5,2406,248,feet,jsons/v1_VE250_randls_57.json,705374,922970,24,Man
40,848056,DepthScenes,duration_manipulation_targetAtFixation,jsons/v1_VE250_randls_57.json,http://54.235.29.9/FacialAge/BNav_EC2/DepthDuration/v2_depth_duration_MTurk/v2_DepthDuration_HTML.html#132,132,1536,722,1536,864,8-20-2022,11-17-13,41,depth_duration_stimuli/000436_2014-06-09_22-25-11_260595134347_rgbf000137-resize_1/000436_2014-06-09_22-25-11_260595134347_rgbf000137-resize_1-target.png,250,4.0705,5,2164,249,feet,jsons/v1_VE250_randls_57.json,705374,922970,24,Man
41,848056,DepthScenes,duration_manipulation_targetAtFixation,jsons/v1_VE250_randls_57.json,http://54.235.29.9/FacialAge/BNav_EC2/DepthDuration/v2_depth_duration_MTurk/v2_DepthDuration_HTML.html#132,132,1536,722,1536,864,8-20-2022,11-17-13,42,depth_duration_stimuli/002444_2014-06-28_20-32-08_260595134347_rgbf000027-resize_0/002444_2014-06-28_20-32-08_260595134347_rgbf000027-resize_0-target.png,250,4.388999999999999,5,1957,247,feet,jsons/v1_VE250_randls_57.json,705374,922970,24,Man
42,848056,DepthScenes,duration_manipulation_targetAtFixation,jsons/v1_VE250_randls_57.json,http://54.235.29.9/FacialAge/BNav_EC2/DepthDuration/v2_depth_duration_MTurk/v2_DepthDuration_HTML.html#132,132,1536,722,1536,864,8-20-2022,11-17-13,43,depth_duration_stimuli/002039_2014-06-24_20-22-38_260595134347_rgbf000084-resize_1/002039_2014-06-24_20-22-38_260595134347_rgbf000084-resize_1-target.png,250,4.408,6,1881,250,feet,jsons/v1_VE250_randls_57.json,705374,922970,24,Man
43,848056,DepthScenes,duration_manipulation_targetAtFixation,jsons/v1_VE250_randls_57.json,http://54.235.29.9/FacialAge/BNav_EC2/DepthDuration/v2_depth_duration_MTurk/v2_DepthDuration_HTML.html#132,132,1536,722,1536,864,8-20-2022,11-17-13,44,depth_duration_stimuli/002103_2014-06-25_20-00-40_260595134347_rgbf000049-resize_0/002103_2014-06-25_20-00-40_260595134347_rgbf000049-resize_0-target.png,250,4.105,5,1980,253,feet,jsons/v1_VE250_randls_57.json,705374,922970,24,Man
44,848056,DepthScenes,duration_manipulation_targetAtFixation,jsons/v1_VE250_randls_57.json,http://54.235.29.9/FacialAge/BNav_EC2/DepthDuration/v2_depth_duration_MTurk/v2_DepthDuration_HTML.html#132,132,1536,722,1536,864,8-20-2022,11-17-13,45,depth_duration_stimuli/000787_2014-06-08_22-33-53_260595134347_rgbf000175-resize_1/000787_2014-06-08_22-33-53_260595134347_rgbf000175-resize-original.jpg,250,4.784,0,4403,245,feet,jsons/v1_VE250_randls_57.json,705374,922970,24,Man
45,848056,DepthScenes,duration_manipulation_targetAtFixation,jsons/v1_VE250_randls_57.json,http://54.235.29.9/FacialAge/BNav_EC2/DepthDuration/v2_depth_duration_MTurk/v2_DepthDuration_HTML.html#132,132,1536,722,1536,864,8-20-2022,11-17-13,46,depth_duration_stimuli/000739_2014-06-08_18-45-58_260595134347_rgbf000068-resize_1/000739_2014-06-08_18-45-58_260595134347_rgbf000068-resize_1-target.png,250,3.534,5,2393,263,feet,jsons/v1_VE250_randls_57.json,705374,922970,24,Man
46,848056,DepthScenes,duration_manipulation_targetAtFixation,jsons/v1_VE250_randls_57.json,http://54.235.29.9/FacialAge/BNav_EC2/DepthDuration/v2_depth_duration_MTurk/v2_DepthDuration_HTML.html#132,132,1536,722,1536,864,8-20-2022,11-17-13,47,depth_duration_stimuli/000734_2014-06-08_17-39-11_260595134347_rgbf000128-resize_2/000734_2014-06-08_17-39-11_260595134347_rgbf000128-resize_2-target.png,250,4.098,5,1932,231,feet,jsons/v1_VE250_randls_57.json,705374,922970,24,Man
47,848056,DepthScenes,duration_manipulation_targetAtFixation,jsons/v1_VE250_randls_57.json,http://54.235.29.9/FacialAge/BNav_EC2/DepthDuration/v2_depth_duration_MTurk/v2_DepthDuration_HTML.html#132,132,1536,722,1536,864,8-20-2022,11-17-13,48,depth_duration_stimuli/000878_2014-06-08_22-52-45_260595134347_rgbf000045-resize_2/000878_2014-06-08_22-52-45_260595134347_rgbf000045-resize_2-target.png,250,2.092,6,1972,245,feet,jsons/v1_VE250_randls_57.json,705374,922970,24,Man
48,848056,DepthScenes,duration_manipulation_targetAtFixation,jsons/v1_VE250_randls_57.json,http://54.235.29.9/FacialAge/BNav_EC2/DepthDuration/v2_depth_duration_MTurk/v2_DepthDuration_HTML.html#132,132,1536,722,1536,864,8-20-2022,11-17-13,49,depth_duration_stimuli/002953_2014-06-08_17-32-18_094959634447_rgbf000059-resize_5/002953_2014-06-08_17-32-18_094959634447_rgbf000059-resize_5-target.png,250,1.551,3,2105,248,feet,jsons/v1_VE250_randls_57.json,705374,922970,24,Man
49,848056,DepthScenes,duration_manipulation_targetAtFixation,jsons/v1_VE250_randls_57.json,http://54.235.29.9/FacialAge/BNav_EC2/DepthDuration/v2_depth_duration_MTurk/v2_DepthDuration_HTML.html#132,132,1536,722,1536,864,8-20-2022,11-17-13,50,depth_duration_stimuli/001055_2014-06-08_18-45-35_260595134347_rgbf000111-resize_4/001055_2014-06-08_18-45-35_260595134347_rgbf000111-resize_4-target.png,250,2.4290000000000003,6,1975,246,feet,jsons/v1_VE250_randls_57.json,705374,922970,24,Man
50,848056,DepthScenes,duration_manipulation_targetAtFixation,jsons/v1_VE250_randls_57.json,http://54.235.29.9/FacialAge/BNav_EC2/DepthDuration/v2_depth_duration_MTurk/v2_DepthDuration_HTML.html#132,132,1536,722,1536,864,8-20-2022,11-17-13,51,depth_duration_stimuli/000549_2014-06-08_22-10-24_260595134347_rgbf000247-resize_3/000549_2014-06-08_22-10-24_260595134347_rgbf000247-resize_3-target.png,250,1.841,3,1989,155,feet,jsons/v1_VE250_randls_57.json,705374,922970,24,Man
51,848056,DepthScenes,duration_manipulation_targetAtFixation,jsons/v1_VE250_randls_57.json,http://54.235.29.9/FacialAge/BNav_EC2/DepthDuration/v2_depth_duration_MTurk/v2_DepthDuration_HTML.html#132,132,1536,722,1536,864,8-20-2022,11-17-13,52,depth_duration_stimuli/002279_2014-06-28_18-55-32_260595134347_rgbf000040-resize_5/002279_2014-06-28_18-55-32_260595134347_rgbf000040-resize_5-target.png,250,1.5043333333333,2,2311,251,feet,jsons/v1_VE250_randls_57.json,705374,922970,24,Man
52,848056,DepthScenes,duration_manipulation_targetAtFixation,jsons/v1_VE250_randls_57.json,http://54.235.29.9/FacialAge/BNav_EC2/DepthDuration/v2_depth_duration_MTurk/v2_DepthDuration_HTML.html#132,132,1536,722,1536,864,8-20-2022,11-17-13,53,depth_duration_stimuli/000635_2014-06-08_16-38-42_260595134347_rgbf000106-resize_1/000635_2014-06-08_16-38-42_260595134347_rgbf000106-resize_1-target.png,250,2.074,5,2257,254,feet,jsons/v1_VE250_randls_57.json,705374,922970,24,Man
53,848056,DepthScenes,duration_manipulation_targetAtFixation,jsons/v1_VE250_randls_57.json,http://54.235.29.9/FacialAge/BNav_EC2/DepthDuration/v2_depth_duration_MTurk/v2_DepthDuration_HTML.html#132,132,1536,722,1536,864,8-20-2022,11-17-13,54,depth_duration_stimuli/000368_2014-06-09_15-53-01_260595134347_rgbf000155-resize_2/000368_2014-06-09_15-53-01_260595134347_rgbf000155-resize_2-target.png,250,2.4859999999999998,2,2145,251,feet,jsons/v1_VE250_randls_57.json,705374,922970,24,Man
54,848056,DepthScenes,duration_manipulation_targetAtFixation,jsons/v1_VE250_randls_57.json,http://54.235.29.9/FacialAge/BNav_EC2/DepthDuration/v2_depth_duration_MTurk/v2_DepthDuration_HTML.html#132,132,1536,722,1536,864,8-20-2022,11-17-13,55,depth_duration_stimuli/002678_2014-06-13_16-15-32_094959634447_rgbf000151-resize_6/002678_2014-06-13_16-15-32_094959634447_rgbf000151-resize_6-target.png,250,2.1830000000000003,3,2158,235,feet,jsons/v1_VE250_randls_57.json,705374,922970,24,Man
55,848056,DepthScenes,duration_manipulation_targetAtFixation,jsons/v1_VE250_randls_57.json,http://54.235.29.9/FacialAge/BNav_EC2/DepthDuration/v2_depth_duration_MTurk/v2_DepthDuration_HTML.html#132,132,1536,722,1536,864,8-20-2022,11-17-13,56,depth_duration_stimuli/001555_2014-06-20_17-12-10_260595134347_rgbf000065-resize_4/001555_2014-06-20_17-12-10_260595134347_rgbf000065-resize_4-target.png,250,1.633,2,1977,249,feet,jsons/v1_VE250_randls_57.json,705374,922970,24,Man
56,848056,DepthScenes,duration_manipulation_targetAtFixation,jsons/v1_VE250_randls_57.json,http://54.235.29.9/FacialAge/BNav_EC2/DepthDuration/v2_depth_duration_MTurk/v2_DepthDuration_HTML.html#132,132,1536,722,1536,864,8-20-2022,11-17-13,57,depth_duration_stimuli/000103_2014-05-14_22-01-17_260595134347_rgbf000152-resize_5/000103_2014-05-14_22-01-17_260595134347_rgbf000152-resize_5-target.png,250,1.993,4,2060,244,feet,jsons/v1_VE250_randls_57.json,705374,922970,24,Man
57,848056,DepthScenes,duration_manipulation_targetAtFixation,jsons/v1_VE250_randls_57.json,http://54.235.29.9/FacialAge/BNav_EC2/DepthDuration/v2_depth_duration_MTurk/v2_DepthDuration_HTML.html#132,132,1536,722,1536,864,8-20-2022,11-17-13,58,depth_duration_stimuli/002748_2014-06-22_19-07-22_094959634447_rgbf000078-resize_1/002748_2014-06-22_19-07-22_094959634447_rgbf000078-resize_1-target.png,250,4.6705,6,1997,237,feet,jsons/v1_VE250_randls_57.json,705374,922970,24,Man
58,848056,DepthScenes,duration_manipulation_targetAtFixation,jsons/v1_VE250_randls_57.json,http://54.235.29.9/FacialAge/BNav_EC2/DepthDuration/v2_depth_duration_MTurk/v2_DepthDuration_HTML.html#132,132,1536,722,1536,864,8-20-2022,11-17-13,59,depth_duration_stimuli/002995_2014-06-15_12-31-26_094959634447_rgbf000150-resize_1/002995_2014-06-15_12-31-26_094959634447_rgbf000150-resize_1-target.png,250,3.8360000000000003,5,1883,265,feet,jsons/v1_VE250_randls_57.json,705374,922970,24,Man
59,848056,DepthScenes,duration_manipulation_targetAtFixation,jsons/v1_VE250_randls_57.json,http://54.235.29.9/FacialAge/BNav_EC2/DepthDuration/v2_depth_duration_MTurk/v2_DepthDuration_HTML.html#132,132,1536,722,1536,864,8-20-2022,11-17-13,60,depth_duration_stimuli/000414_2014-06-04_19-49-13_260595134347_rgbf000044-resize_0/000414_2014-06-04_19-49-13_260595134347_rgbf000044-resize_0-target.png,250,4.329,5,1904,250,feet,jsons/v1_VE250_randls_57.json,705374,922970,24,Man
60,848056,DepthScenes,duration_manipulation_targetAtFixation,jsons/v1_VE250_randls_57.json,http://54.235.29.9/FacialAge/BNav_EC2/DepthDuration/v2_depth_duration_MTurk/v2_DepthDuration_HTML.html#132,132,1536,722,1536,864,8-20-2022,11-17-13,61,depth_duration_stimuli/003129_2014-05-12_10-48-10_094959634447_rgbf000100-resize_0/003129_2014-05-12_10-48-10_094959634447_rgbf000100-resize_0-target.png,250,4.9305,5,2029,247,feet,jsons/v1_VE250_randls_57.json,705374,922970,24,Man
61,848056,DepthScenes,duration_manipulation_targetAtFixation,jsons/v1_VE250_randls_57.json,http://54.235.29.9/FacialAge/BNav_EC2/DepthDuration/v2_depth_duration_MTurk/v2_DepthDuration_HTML.html#132,132,1536,722,1536,864,8-20-2022,11-17-13,62,depth_duration_stimuli/003492_2014-05-21_15-50-55_094959634447_rgbf000828-resize_1/003492_2014-05-21_15-50-55_094959634447_rgbf000828-resize_1-target.png,250,4.06875,6,1924,249,feet,jsons/v1_VE250_randls_57.json,705374,922970,24,Man
62,848056,DepthScenes,duration_manipulation_targetAtFixation,jsons/v1_VE250_randls_57.json,http://54.235.29.9/FacialAge/BNav_EC2/DepthDuration/v2_depth_duration_MTurk/v2_DepthDuration_HTML.html#132,132,1536,722,1536,864,8-20-2022,11-17-13,63,depth_duration_stimuli/002568_2014-06-24_13-59-21_094959634447_rgbf000062-resize_4/002568_2014-06-24_13-59-21_094959634447_rgbf000062-resize_4-target.png,250,3.015,6,1743,248,feet,jsons/v1_VE250_randls_57.json,705374,922970,24,Man
63,848056,DepthScenes,duration_manipulation_targetAtFixation,jsons/v1_VE250_randls_57.json,http://54.235.29.9/FacialAge/BNav_EC2/DepthDuration/v2_depth_duration_MTurk/v2_DepthDuration_HTML.html#132,132,1536,722,1536,864,8-20-2022,11-17-13,64,depth_duration_stimuli/000486_2014-06-09_20-47-20_260595134347_rgbf000143-resize_2/000486_2014-06-09_20-47-20_260595134347_rgbf000143-resize_2-target.png,250,4.8325,6,1984,249,feet,jsons/v1_VE250_randls_57.json,705374,922970,24,Man
64,848056,DepthScenes,duration_manipulation_targetAtFixation,jsons/v1_VE250_randls_57.json,http://54.235.29.9/FacialAge/BNav_EC2/DepthDuration/v2_depth_duration_MTurk/v2_DepthDuration_HTML.html#132,132,1536,722,1536,864,8-20-2022,11-17-13,65,depth_duration_stimuli/003083_2014-06-15_15-21-03_094959634447_rgbf000063-resize_1/003083_2014-06-15_15-21-03_094959634447_rgbf000063-resize_1-target.png,250,4.1405,5,1816,250,feet,jsons/v1_VE250_randls_57.json,705374,922970,24,Man
65,848056,DepthScenes,duration_manipulation_targetAtFixation,jsons/v1_VE250_randls_57.json,http://54.235.29.9/FacialAge/BNav_EC2/DepthDuration/v2_depth_duration_MTurk/v2_DepthDuration_HTML.html#132,132,1536,722,1536,864,8-20-2022,11-17-13,66,depth_duration_stimuli/001222_2014-06-17_16-24-06_260595134347_rgbf000073-resize_0/001222_2014-06-17_16-24-06_260595134347_rgbf000073-resize-original.jpg,250,1.4385,4,4207,249,feet,jsons/v1_VE250_randls_57.json,705374,922970,24,Man
66,848056,DepthScenes,duration_manipulation_targetAtFixation,jsons/v1_VE250_randls_57.json,http://54.235.29.9/FacialAge/BNav_EC2/DepthDuration/v2_depth_duration_MTurk/v2_DepthDuration_HTML.html#132,132,1536,722,1536,864,8-20-2022,11-17-13,67,depth_duration_stimuli/001199_2014-06-17_16-03-48_260595134347_rgbf000077-resize_0/001199_2014-06-17_16-03-48_260595134347_rgbf000077-resize_0-target.png,250,3.4375,5,2667,247,feet,jsons/v1_VE250_randls_57.json,705374,922970,24,Man
67,848056,DepthScenes,duration_manipulation_targetAtFixation,jsons/v1_VE250_randls_57.json,http://54.235.29.9/FacialAge/BNav_EC2/DepthDuration/v2_depth_duration_MTurk/v2_DepthDuration_HTML.html#132,132,1536,722,1536,864,8-20-2022,11-17-13,68,depth_duration_stimuli/000502_2014-06-08_23-02-32_260595134347_rgbf000063-resize_4/000502_2014-06-08_23-02-32_260595134347_rgbf000063-resize_4-target.png,250,2.431,3,2220,250,feet,jsons/v1_VE250_randls_57.json,705374,922970,24,Man
68,848056,DepthScenes,duration_manipulation_targetAtFixation,jsons/v1_VE250_randls_57.json,http://54.235.29.9/FacialAge/BNav_EC2/DepthDuration/v2_depth_duration_MTurk/v2_DepthDuration_HTML.html#132,132,1536,722,1536,864,8-20-2022,11-17-13,69,depth_duration_stimuli/000810_2014-06-08_17-20-01_260595134347_rgbf000105-resize_0/000810_2014-06-08_17-20-01_260595134347_rgbf000105-resize_0-target.png,250,1.4865,4,1977,247,feet,jsons/v1_VE250_randls_57.json,705374,922970,24,Man
69,848056,DepthScenes,duration_manipulation_targetAtFixation,jsons/v1_VE250_randls_57.json,http://54.235.29.9/FacialAge/BNav_EC2/DepthDuration/v2_depth_duration_MTurk/v2_DepthDuration_HTML.html#132,132,1536,722,1536,864,8-20-2022,11-17-13,70,depth_duration_stimuli/001214_2014-06-17_16-13-55_260595134347_rgbf000111-resize_0/001214_2014-06-17_16-13-55_260595134347_rgbf000111-resize_0-target.png,250,2.6505,4,1826,248,feet,jsons/v1_VE250_randls_57.json,705374,922970,24,Man
70,848056,DepthScenes,duration_manipulation_targetAtFixation,jsons/v1_VE250_randls_57.json,http://54.235.29.9/FacialAge/BNav_EC2/DepthDuration/v2_depth_duration_MTurk/v2_DepthDuration_HTML.html#132,132,1536,722,1536,864,8-20-2022,11-17-13,71,depth_duration_stimuli/002509_2014-06-24_13-19-22_094959634447_rgbf000077-resize_0/002509_2014-06-24_13-19-22_094959634447_rgbf000077-resize_0-target.png,250,1.3065,3,2066,249,feet,jsons/v1_VE250_randls_57.json,705374,922970,24,Man
71,848056,DepthScenes,duration_manipulation_targetAtFixation,jsons/v1_VE250_randls_57.json,http://54.235.29.9/FacialAge/BNav_EC2/DepthDuration/v2_depth_duration_MTurk/v2_DepthDuration_HTML.html#132,132,1536,722,1536,864,8-20-2022,11-17-13,72,depth_duration_stimuli/003338_2014-05-20_11-01-23_094959634447_rgbf000051-resize_6/003338_2014-05-20_11-01-23_094959634447_rgbf000051-resize_6-target.png,250,1.693,3,1798,248,feet,jsons/v1_VE250_randls_57.json,705374,922970,24,Man
72,848056,DepthScenes,duration_manipulation_targetAtFixation,jsons/v1_VE250_randls_57.json,http://54.235.29.9/FacialAge/BNav_EC2/DepthDuration/v2_depth_duration_MTurk/v2_DepthDuration_HTML.html#132,132,1536,722,1536,864,8-20-2022,11-17-13,73,depth_duration_stimuli/000682_2014-06-08_23-14-58_260595134347_rgbf000041-resize_5/000682_2014-06-08_23-14-58_260595134347_rgbf000041-resize_5-target.png,250,2.7239999999999998,4,1851,248,feet,jsons/v1_VE250_randls_57.json,705374,922970,24,Man
73,848056,DepthScenes,duration_manipulation_targetAtFixation,jsons/v1_VE250_randls_57.json,http://54.235.29.9/FacialAge/BNav_EC2/DepthDuration/v2_depth_duration_MTurk/v2_DepthDuration_HTML.html#132,132,1536,722,1536,864,8-20-2022,11-17-13,74,depth_duration_stimuli/001650_2014-06-20_12-09-00_260595134347_rgbf000087-resize_3/001650_2014-06-20_12-09-00_260595134347_rgbf000087-resize_3-target.png,250,1.9505,2,2025,248,feet,jsons/v1_VE250_randls_57.json,705374,922970,24,Man
74,848056,DepthScenes,duration_manipulation_targetAtFixation,jsons/v1_VE250_randls_57.json,http://54.235.29.9/FacialAge/BNav_EC2/DepthDuration/v2_depth_duration_MTurk/v2_DepthDuration_HTML.html#132,132,1536,722,1536,864,8-20-2022,11-17-13,75,depth_duration_stimuli/001059_2014-06-08_21-53-27_260595134347_rgbf000061-resize_4/001059_2014-06-08_21-53-27_260595134347_rgbf000061-resize_4-target.png,250,2.4185,3,1862,250,feet,jsons/v1_VE250_randls_57.json,705374,922970,24,Man
75,848056,DepthScenes,duration_manipulation_targetAtFixation,jsons/v1_VE250_randls_57.json,http://54.235.29.9/FacialAge/BNav_EC2/DepthDuration/v2_depth_duration_MTurk/v2_DepthDuration_HTML.html#132,132,1536,722,1536,864,8-20-2022,11-17-13,76,depth_duration_stimuli/001032_2014-06-08_13-23-17_260595134347_rgbf000021-resize_3/001032_2014-06-08_13-23-17_260595134347_rgbf000021-resize_3-target.png,250,3.2725,4,1856,249,feet,jsons/v1_VE250_randls_57.json,705374,922970,24,Man
76,848056,DepthScenes,duration_manipulation_targetAtFixation,jsons/v1_VE250_randls_57.json,http://54.235.29.9/FacialAge/BNav_EC2/DepthDuration/v2_depth_duration_MTurk/v2_DepthDuration_HTML.html#132,132,1536,722,1536,864,8-20-2022,11-17-13,77,depth_duration_stimuli/000522_2014-06-08_13-35-06_260595134347_rgbf000244-resize_1/000522_2014-06-08_13-35-06_260595134347_rgbf000244-resize_1-target.png,250,2.3715,3,5304,250,feet,jsons/v1_VE250_randls_57.json,705374,922970,24,Man
77,848056,DepthScenes,duration_manipulation_targetAtFixation,jsons/v1_VE250_randls_57.json,http://54.235.29.9/FacialAge/BNav_EC2/DepthDuration/v2_depth_duration_MTurk/v2_DepthDuration_HTML.html#132,132,1536,722,1536,864,8-20-2022,11-17-13,78,depth_duration_stimuli/002949_2014-06-26_15-57-42_094959634447_rgbf000079-resize_1/002949_2014-06-26_15-57-42_094959634447_rgbf000079-resize_1-target.png,250,1.8915,4,1793,248,feet,jsons/v1_VE250_randls_57.json,705374,922970,24,Man
78,848056,DepthScenes,duration_manipulation_targetAtFixation,jsons/v1_VE250_randls_57.json,http://54.235.29.9/FacialAge/BNav_EC2/DepthDuration/v2_depth_duration_MTurk/v2_DepthDuration_HTML.html#132,132,1536,722,1536,864,8-20-2022,11-17-13,79,depth_duration_stimuli/001110_2014-06-15_17-25-28_260595134347_rgbf000150-resize_1/001110_2014-06-15_17-25-28_260595134347_rgbf000150-resize_1-target.png,250,1.7115,5,1863,243,feet,jsons/v1_VE250_randls_57.json,705374,922970,24,Man
79,848056,DepthScenes,duration_manipulation_targetAtFixation,jsons/v1_VE250_randls_57.json,http://54.235.29.9/FacialAge/BNav_EC2/DepthDuration/v2_depth_duration_MTurk/v2_DepthDuration_HTML.html#132,132,1536,722,1536,864,8-20-2022,11-17-13,80,depth_duration_stimuli/000927_2014-06-09_16-32-30_260595134347_rgbf000123-resize_3/000927_2014-06-09_16-32-30_260595134347_rgbf000123-resize_3-target.png,250,2.6785,5,1835,248,feet,jsons/v1_VE250_randls_57.json,705374,922970,24,Man
80,848056,DepthScenes,duration_manipulation_targetAtFixation,jsons/v1_VE250_randls_57.json,http://54.235.29.9/FacialAge/BNav_EC2/DepthDuration/v2_depth_duration_MTurk/v2_DepthDuration_HTML.html#132,132,1536,722,1536,864,8-20-2022,11-17-13,81,depth_duration_stimuli/001810_2014-06-26_20-51-35_260595134347_rgbf000040-resize_3/001810_2014-06-26_20-51-35_260595134347_rgbf000040-resize_3-target.png,250,2.2525,4,2502,248,feet,jsons/v1_VE250_randls_57.json,705374,922970,24,Man
81,848056,DepthScenes,duration_manipulation_targetAtFixation,jsons/v1_VE250_randls_57.json,http://54.235.29.9/FacialAge/BNav_EC2/DepthDuration/v2_depth_duration_MTurk/v2_DepthDuration_HTML.html#132,132,1536,722,1536,864,8-20-2022,11-17-13,82,depth_duration_stimuli/003010_2014-06-15_12-54-35_094959634447_rgbf000112-resize_0/003010_2014-06-15_12-54-35_094959634447_rgbf000112-resize_0-target.png,250,3.1185,6,1893,242,feet,jsons/v1_VE250_randls_57.json,705374,922970,24,Man
82,848056,DepthScenes,duration_manipulation_targetAtFixation,jsons/v1_VE250_randls_57.json,http://54.235.29.9/FacialAge/BNav_EC2/DepthDuration/v2_depth_duration_MTurk/v2_DepthDuration_HTML.html#132,132,1536,722,1536,864,8-20-2022,11-17-13,83,depth_duration_stimuli/000929_2014-06-09_16-33-19_260595134347_rgbf000139-resize_0/000929_2014-06-09_16-33-19_260595134347_rgbf000139-resize_0-target.png,250,2.8680000000000003,4,1930,270,feet,jsons/v1_VE250_randls_57.json,705374,922970,24,Man
83,848056,DepthScenes,duration_manipulation_targetAtFixation,jsons/v1_VE250_randls_57.json,http://54.235.29.9/FacialAge/BNav_EC2/DepthDuration/v2_depth_duration_MTurk/v2_DepthDuration_HTML.html#132,132,1536,722,1536,864,8-20-2022,11-17-13,84,depth_duration_stimuli/000457_2014-06-08_16-52-43_260595134347_rgbf000199-resize_1/000457_2014-06-08_16-52-43_260595134347_rgbf000199-resize_1-target.png,250,3.6489999999999996,5,3544,251,feet,jsons/v1_VE250_randls_57.json,705374,922970,24,Man
84,848056,DepthScenes,duration_manipulation_targetAtFixation,jsons/v1_VE250_randls_57.json,http://54.235.29.9/FacialAge/BNav_EC2/DepthDuration/v2_depth_duration_MTurk/v2_DepthDuration_HTML.html#132,132,1536,722,1536,864,8-20-2022,11-17-13,85,depth_duration_stimuli/002057_2014-06-24_21-00-13_260595134347_rgbf000120-resize_1/002057_2014-06-24_21-00-13_260595134347_rgbf000120-resize_1-target.png,250,2.967,6,3178,242,feet,jsons/v1_VE250_randls_57.json,705374,922970,24,Man
85,848056,DepthScenes,duration_manipulation_targetAtFixation,jsons/v1_VE250_randls_57.json,http://54.235.29.9/FacialAge/BNav_EC2/DepthDuration/v2_depth_duration_MTurk/v2_DepthDuration_HTML.html#132,132,1536,722,1536,864,8-20-2022,11-17-13,86,depth_duration_stimuli/000709_2014-06-08_13-51-55_260595134347_rgbf000068-resize_3/000709_2014-06-08_13-51-55_260595134347_rgbf000068-resize_3-target.png,250,1.8030000000000002,6,2493,256,feet,jsons/v1_VE250_randls_57.json,705374,922970,24,Man
86,848056,DepthScenes,duration_manipulation_targetAtFixation,jsons/v1_VE250_randls_57.json,http://54.235.29.9/FacialAge/BNav_EC2/DepthDuration/v2_depth_duration_MTurk/v2_DepthDuration_HTML.html#132,132,1536,722,1536,864,8-20-2022,11-17-13,87,depth_duration_stimuli/001175_2014-06-17_15-45-55_260595134347_rgbf000129-resize_4/001175_2014-06-17_15-45-55_260595134347_rgbf000129-resize_4-target.png,250,4.255,5,3778,250,feet,jsons/v1_VE250_randls_57.json,705374,922970,24,Man
87,848056,DepthScenes,duration_manipulation_targetAtFixation,jsons/v1_VE250_randls_57.json,http://54.235.29.9/FacialAge/BNav_EC2/DepthDuration/v2_depth_duration_MTurk/v2_DepthDuration_HTML.html#132,132,1536,722,1536,864,8-20-2022,11-17-13,88,depth_duration_stimuli/003490_2014-05-21_15-50-11_094959634447_rgbf000101-resize_3/003490_2014-05-21_15-50-11_094959634447_rgbf000101-resize_3-target.png,250,3.6445,5,1873,256,feet,jsons/v1_VE250_randls_57.json,705374,922970,24,Man
88,848056,DepthScenes,duration_manipulation_targetAtFixation,jsons/v1_VE250_randls_57.json,http://54.235.29.9/FacialAge/BNav_EC2/DepthDuration/v2_depth_duration_MTurk/v2_DepthDuration_HTML.html#132,132,1536,722,1536,864,8-20-2022,11-17-13,89,depth_duration_stimuli/001808_2014-06-26_20-50-58_260595134347_rgbf000029-resize_1/001808_2014-06-26_20-50-58_260595134347_rgbf000029-resize_1-target.png,250,4.249,6,2168,253,feet,jsons/v1_VE250_randls_57.json,705374,922970,24,Man
89,848056,DepthScenes,duration_manipulation_targetAtFixation,jsons/v1_VE250_randls_57.json,http://54.235.29.9/FacialAge/BNav_EC2/DepthDuration/v2_depth_duration_MTurk/v2_DepthDuration_HTML.html#132,132,1536,722,1536,864,8-20-2022,11-17-13,90,depth_duration_stimuli/001815_2014-06-26_20-52-55_260595134347_rgbf000020-resize_0/001815_2014-06-26_20-52-55_260595134347_rgbf000020-resize_0-target.png,250,3.3865,5,2125,260,feet,jsons/v1_VE250_randls_57.json,705374,922970,24,Man
90,848056,DepthScenes,duration_manipulation_targetAtFixation,jsons/v1_VE250_randls_57.json,http://54.235.29.9/FacialAge/BNav_EC2/DepthDuration/v2_depth_duration_MTurk/v2_DepthDuration_HTML.html#132,132,1536,722,1536,864,8-20-2022,11-17-13,91,depth_duration_stimuli/002905_2014-06-03_18-04-43_094959634447_rgbf000151-resize_2/002905_2014-06-03_18-04-43_094959634447_rgbf000151-resize_2-target.png,250,2.0295,4,2388,249,feet,jsons/v1_VE250_randls_57.json,705374,922970,24,Man
91,848056,DepthScenes,duration_manipulation_targetAtFixation,jsons/v1_VE250_randls_57.json,http://54.235.29.9/FacialAge/BNav_EC2/DepthDuration/v2_depth_duration_MTurk/v2_DepthDuration_HTML.html#132,132,1536,722,1536,864,8-20-2022,11-17-13,92,depth_duration_stimuli/003423_2014-05-21_10-23-26_094959634447_rgbf002665-resize_2/003423_2014-05-21_10-23-26_094959634447_rgbf002665-resize_2-target.png,250,3.2575,4,1965,248,feet,jsons/v1_VE250_randls_57.json,705374,922970,24,Man
92,848056,DepthScenes,duration_manipulation_targetAtFixation,jsons/v1_VE250_randls_57.json,http://54.235.29.9/FacialAge/BNav_EC2/DepthDuration/v2_depth_duration_MTurk/v2_DepthDuration_HTML.html#132,132,1536,722,1536,864,8-20-2022,11-17-13,93,depth_duration_stimuli/000493_2014-06-09_21-01-18_260595134347_rgbf000196-resize_3/000493_2014-06-09_21-01-18_260595134347_rgbf000196-resize_3-target.png,250,3.44,4,1991,248,feet,jsons/v1_VE250_randls_57.json,705374,922970,24,Man
93,848056,DepthScenes,duration_manipulation_targetAtFixation,jsons/v1_VE250_randls_57.json,http://54.235.29.9/FacialAge/BNav_EC2/DepthDuration/v2_depth_duration_MTurk/v2_DepthDuration_HTML.html#132,132,1536,722,1536,864,8-20-2022,11-17-13,94,depth_duration_stimuli/000191_2014-05-12_17-07-38_260595134347_rgbf000199-resize_0/000191_2014-05-12_17-07-38_260595134347_rgbf000199-resize_0-target.png,250,3.7995,5,1909,248,feet,jsons/v1_VE250_randls_57.json,705374,922970,24,Man
94,848056,DepthScenes,duration_manipulation_targetAtFixation,jsons/v1_VE250_randls_57.json,http://54.235.29.9/FacialAge/BNav_EC2/DepthDuration/v2_depth_duration_MTurk/v2_DepthDuration_HTML.html#132,132,1536,722,1536,864,8-20-2022,11-17-13,95,depth_duration_stimuli/001016_2014-06-09_16-16-10_260595134347_rgbf000112-resize_5/001016_2014-06-09_16-16-10_260595134347_rgbf000112-resize_5-target.png,250,1.6565,5,2179,248,feet,jsons/v1_VE250_randls_57.json,705374,922970,24,Man
95,848056,DepthScenes,duration_manipulation_targetAtFixation,jsons/v1_VE250_randls_57.json,http://54.235.29.9/FacialAge/BNav_EC2/DepthDuration/v2_depth_duration_MTurk/v2_DepthDuration_HTML.html#132,132,1536,722,1536,864,8-20-2022,11-17-13,96,depth_duration_stimuli/002340_2014-06-28_20-05-46_260595134347_rgbf000113-resize_0/002340_2014-06-28_20-05-46_260595134347_rgbf000113-resize_0-target.png,250,2.4735,6,1880,249,feet,jsons/v1_VE250_randls_57.json,705374,922970,24,Man
96,848056,DepthScenes,duration_manipulation_targetAtFixation,jsons/v1_VE250_randls_57.json,http://54.235.29.9/FacialAge/BNav_EC2/DepthDuration/v2_depth_duration_MTurk/v2_DepthDuration_HTML.html#132,132,1536,722,1536,864,8-20-2022,11-17-13,97,depth_duration_stimuli/001029_2014-06-08_13-17-57_260595134347_rgbf000065-resize_1/001029_2014-06-08_13-17-57_260595134347_rgbf000065-resize_1-target.png,250,3.0835,5,2448,246,feet,jsons/v1_VE250_randls_57.json,705374,922970,24,Man
97,848056,DepthScenes,duration_manipulation_targetAtFixation,jsons/v1_VE250_randls_57.json,http://54.235.29.9/FacialAge/BNav_EC2/DepthDuration/v2_depth_duration_MTurk/v2_DepthDuration_HTML.html#132,132,1536,722,1536,864,8-20-2022,11-17-13,98,depth_duration_stimuli/000677_2014-06-08_23-10-32_260595134347_rgbf000158-resize_6/000677_2014-06-08_23-10-32_260595134347_rgbf000158-resize_6-target.png,250,3.556,5,1940,248,feet,jsons/v1_VE250_randls_57.json,705374,922970,24,Man
98,848056,DepthScenes,duration_manipulation_targetAtFixation,jsons/v1_VE250_randls_57.json,http://54.235.29.9/FacialAge/BNav_EC2/DepthDuration/v2_depth_duration_MTurk/v2_DepthDuration_HTML.html#132,132,1536,722,1536,864,8-20-2022,11-17-13,99,depth_duration_stimuli/001540_2014-06-20_17-01-05_260595134347_rgbf000086-resize_2/001540_2014-06-20_17-01-05_260595134347_rgbf000086-resize-original.jpg,250,1.459,0,3848,237,feet,jsons/v1_VE250_randls_57.json,705374,922970,24,Man
99,848056,DepthScenes,duration_manipulation_targetAtFixation,jsons/v1_VE250_randls_57.json,http://54.235.29.9/FacialAge/BNav_EC2/DepthDuration/v2_depth_duration_MTurk/v2_DepthDuration_HTML.html#132,132,1536,722,1536,864,8-20-2022,11-17-13,100,depth_duration_stimuli/003534_2014-05-22_15-06-10_094959634447_rgbf000102-resize_4/003534_2014-05-22_15-06-10_094959634447_rgbf000102-resize_4-target.png,250,1.426,2,2161,246,feet,jsons/v1_VE250_randls_57.json,705374,922970,24,Man
100,848056,DepthScenes,duration_manipulation_targetAtFixation,jsons/v1_VE250_randls_57.json,http://54.235.29.9/FacialAge/BNav_EC2/DepthDuration/v2_depth_duration_MTurk/v2_DepthDuration_HTML.html#132,132,1536,722,1536,864,8-20-2022,11-17-13,101,depth_duration_stimuli/002637_2014-06-24_14-51-13_094959634447_rgbf000066-resize_4/002637_2014-06-24_14-51-13_094959634447_rgbf000066-resize_4-target.png,250,1.9955,4,1992,249,feet,jsons/v1_VE250_randls_57.json,705374,922970,24,Man
101,848056,DepthScenes,duration_manipulation_targetAtFixation,jsons/v1_VE250_randls_57.json,http://54.235.29.9/FacialAge/BNav_EC2/DepthDuration/v2_depth_duration_MTurk/v2_DepthDuration_HTML.html#132,132,1536,722,1536,864,8-20-2022,11-17-13,102,depth_duration_stimuli/002153_2014-06-25_21-27-18_260595134347_rgbf000038-resize_5/002153_2014-06-25_21-27-18_260595134347_rgbf000038-resize_5-target.png,250,2.505,3,1891,249,feet,jsons/v1_VE250_randls_57.json,705374,922970,24,Man
102,848056,DepthScenes,duration_manipulation_targetAtFixation,jsons/v1_VE250_randls_57.json,http://54.235.29.9/FacialAge/BNav_EC2/DepthDuration/v2_depth_duration_MTurk/v2_DepthDuration_HTML.html#132,132,1536,722,1536,864,8-20-2022,11-17-13,103,depth_duration_stimuli/002660_2014-06-13_15-44-18_094959634447_rgbf001878-resize_2/002660_2014-06-13_15-44-18_094959634447_rgbf001878-resize_2-target.png,250,3.576,4,1965,249,feet,jsons/v1_VE250_randls_57.json,705374,922970,24,Man
103,848056,DepthScenes,duration_manipulation_targetAtFixation,jsons/v1_VE250_randls_57.json,http://54.235.29.9/FacialAge/BNav_EC2/DepthDuration/v2_depth_duration_MTurk/v2_DepthDuration_HTML.html#132,132,1536,722,1536,864,8-20-2022,11-17-13,104,depth_duration_stimuli/002600_2014-06-24_14-27-04_094959634447_rgbf000074-resize_2/002600_2014-06-24_14-27-04_094959634447_rgbf000074-resize_2-target.png,250,2.7575,5,1937,246,feet,jsons/v1_VE250_randls_57.json,705374,922970,24,Man
104,848056,DepthScenes,duration_manipulation_targetAtFixation,jsons/v1_VE250_randls_57.json,http://54.235.29.9/FacialAge/BNav_EC2/DepthDuration/v2_depth_duration_MTurk/v2_DepthDuration_HTML.html#132,132,1536,722,1536,864,8-20-2022,11-17-13,105,depth_duration_stimuli/003228_2014-05-14_13-42-35_094959634447_rgbf000101-resize_1/003228_2014-05-14_13-42-35_094959634447_rgbf000101-resize_1-target.png,250,1.9680000000000002,3,2010,251,feet,jsons/v1_VE250_randls_57.json,705374,922970,24,Man
105,848056,DepthScenes,duration_manipulation_targetAtFixation,jsons/v1_VE250_randls_57.json,http://54.235.29.9/FacialAge/BNav_EC2/DepthDuration/v2_depth_duration_MTurk/v2_DepthDuration_HTML.html#132,132,1536,722,1536,864,8-20-2022,11-17-13,106,depth_duration_stimuli/001011_2014-06-08_23-18-54_260595134347_rgbf000044-resize_4/001011_2014-06-08_23-18-54_260595134347_rgbf000044-resize_4-target.png,250,2.4730000000000003,4,2113,248,feet,jsons/v1_VE250_randls_57.json,705374,922970,24,Man
106,848056,DepthScenes,duration_manipulation_targetAtFixation,jsons/v1_VE250_randls_57.json,http://54.235.29.9/FacialAge/BNav_EC2/DepthDuration/v2_depth_duration_MTurk/v2_DepthDuration_HTML.html#132,132,1536,722,1536,864,8-20-2022,11-17-13,107,depth_duration_stimuli/002875_2014-06-01_15-19-00_094959634447_rgbf000151-resize_1/002875_2014-06-01_15-19-00_094959634447_rgbf000151-resize_1-target.png,250,1.9675,5,1982,248,feet,jsons/v1_VE250_randls_57.json,705374,922970,24,Man
107,848056,DepthScenes,duration_manipulation_targetAtFixation,jsons/v1_VE250_randls_57.json,http://54.235.29.9/FacialAge/BNav_EC2/DepthDuration/v2_depth_duration_MTurk/v2_DepthDuration_HTML.html#132,132,1536,722,1536,864,8-20-2022,11-17-13,108,depth_duration_stimuli/001417_2014-06-19_16-25-36_260595134347_rgbf000115-resize_5/001417_2014-06-19_16-25-36_260595134347_rgbf000115-resize_5-target.png,250,4.6255,5,1999,248,feet,jsons/v1_VE250_randls_57.json,705374,922970,24,Man
108,848056,DepthScenes,duration_manipulation_targetAtFixation,jsons/v1_VE250_randls_57.json,http://54.235.29.9/FacialAge/BNav_EC2/DepthDuration/v2_depth_duration_MTurk/v2_DepthDuration_HTML.html#132,132,1536,722,1536,864,8-20-2022,11-17-13,109,depth_duration_stimuli/003081_2014-06-15_15-19-16_094959634447_rgbf000150-resize_1/003081_2014-06-15_15-19-16_094959634447_rgbf000150-resize_1-target.png,250,3.9125,4,2049,248,feet,jsons/v1_VE250_randls_57.json,705374,922970,24,Man
109,848056,DepthScenes,duration_manipulation_targetAtFixation,jsons/v1_VE250_randls_57.json,http://54.235.29.9/FacialAge/BNav_EC2/DepthDuration/v2_depth_duration_MTurk/v2_DepthDuration_HTML.html#132,132,1536,722,1536,864,8-20-2022,11-17-13,110,depth_duration_stimuli/003070_2014-06-15_14-58-27_094959634447_rgbf000150-resize_3/003070_2014-06-15_14-58-27_094959634447_rgbf000150-resize_3-target.png,250,2.9415,4,1922,244,feet,jsons/v1_VE250_randls_57.json,705374,922970,24,Man
110,848056,DepthScenes,duration_manipulation_targetAtFixation,jsons/v1_VE250_randls_57.json,http://54.235.29.9/FacialAge/BNav_EC2/DepthDuration/v2_depth_duration_MTurk/v2_DepthDuration_HTML.html#132,132,1536,722,1536,864,8-20-2022,11-17-13,111,depth_duration_stimuli/000943_2014-06-09_19-31-07_260595134347_rgbf000128-resize_1/000943_2014-06-09_19-31-07_260595134347_rgbf000128-resize_1-target.png,250,1.9765,3,1892,248,feet,jsons/v1_VE250_randls_57.json,705374,922970,24,Man
111,848056,DepthScenes,duration_manipulation_targetAtFixation,jsons/v1_VE250_randls_57.json,http://54.235.29.9/FacialAge/BNav_EC2/DepthDuration/v2_depth_duration_MTurk/v2_DepthDuration_HTML.html#132,132,1536,722,1536,864,8-20-2022,11-17-13,112,depth_duration_stimuli/000788_2014-06-08_22-34-36_260595134347_rgbf000131-resize_1/000788_2014-06-08_22-34-36_260595134347_rgbf000131-resize_1-target.png,250,3.359,3,2177,248,feet,jsons/v1_VE250_randls_57.json,705374,922970,24,Man
112,848056,DepthScenes,duration_manipulation_targetAtFixation,jsons/v1_VE250_randls_57.json,http://54.235.29.9/FacialAge/BNav_EC2/DepthDuration/v2_depth_duration_MTurk/v2_DepthDuration_HTML.html#132,132,1536,722,1536,864,8-20-2022,11-17-13,113,depth_duration_stimuli/001235_2014-06-17_16-37-36_260595134347_rgbf000084-resize_4/001235_2014-06-17_16-37-36_260595134347_rgbf000084-resize_4-target.png,250,3.6605,4,1866,249,feet,jsons/v1_VE250_randls_57.json,705374,922970,24,Man
113,848056,DepthScenes,duration_manipulation_targetAtFixation,jsons/v1_VE250_randls_57.json,http://54.235.29.9/FacialAge/BNav_EC2/DepthDuration/v2_depth_duration_MTurk/v2_DepthDuration_HTML.html#132,132,1536,722,1536,864,8-20-2022,11-17-13,114,depth_duration_stimuli/002445_2014-06-28_20-32-16_260595134347_rgbf000029-resize_4/002445_2014-06-28_20-32-16_260595134347_rgbf000029-resize_4-target.png,250,2.5315,2,1951,248,feet,jsons/v1_VE250_randls_57.json,705374,922970,24,Man
114,848056,DepthScenes,duration_manipulation_targetAtFixation,jsons/v1_VE250_randls_57.json,http://54.235.29.9/FacialAge/BNav_EC2/DepthDuration/v2_depth_duration_MTurk/v2_DepthDuration_HTML.html#132,132,1536,722,1536,864,8-20-2022,11-17-13,115,depth_duration_stimuli/000780_2014-06-08_22-28-29_260595134347_rgbf000126-resize_1/000780_2014-06-08_22-28-29_260595134347_rgbf000126-resize_1-target.png,250,3.3825,4,1882,249,feet,jsons/v1_VE250_randls_57.json,705374,922970,24,Man
115,848056,DepthScenes,duration_manipulation_targetAtFixation,jsons/v1_VE250_randls_57.json,http://54.235.29.9/FacialAge/BNav_EC2/DepthDuration/v2_depth_duration_MTurk/v2_DepthDuration_HTML.html#132,132,1536,722,1536,864,8-20-2022,11-17-13,116,depth_duration_stimuli/001170_2014-06-17_15-43-44_260595134347_rgbf000096-resize_6/001170_2014-06-17_15-43-44_260595134347_rgbf000096-resize-original.jpg,250,1.1909999999999998,0,3710,243,feet,jsons/v1_VE250_randls_57.json,705374,922970,24,Man
116,848056,DepthScenes,duration_manipulation_targetAtFixation,jsons/v1_VE250_randls_57.json,http://54.235.29.9/FacialAge/BNav_EC2/DepthDuration/v2_depth_duration_MTurk/v2_DepthDuration_HTML.html#132,132,1536,722,1536,864,8-20-2022,11-17-13,117,depth_duration_stimuli/002570_2014-06-24_13-59-54_094959634447_rgbf000059-resize_0/002570_2014-06-24_13-59-54_094959634447_rgbf000059-resize_0-target.png,250,4.037,5,2279,248,feet,jsons/v1_VE250_randls_57.json,705374,922970,24,Man
117,848056,DepthScenes,duration_manipulation_targetAtFixation,jsons/v1_VE250_randls_57.json,http://54.235.29.9/FacialAge/BNav_EC2/DepthDuration/v2_depth_duration_MTurk/v2_DepthDuration_HTML.html#132,132,1536,722,1536,864,8-20-2022,11-17-13,118,depth_duration_stimuli/002467_2014-06-28_20-38-07_260595134347_rgbf000026-resize_2/002467_2014-06-28_20-38-07_260595134347_rgbf000026-resize_2-target.png,250,4.742,5,1846,248,feet,jsons/v1_VE250_randls_57.json,705374,922970,24,Man
118,848056,DepthScenes,duration_manipulation_targetAtFixation,jsons/v1_VE250_randls_57.json,http://54.235.29.9/FacialAge/BNav_EC2/DepthDuration/v2_depth_duration_MTurk/v2_DepthDuration_HTML.html#132,132,1536,722,1536,864,8-20-2022,11-17-13,119,depth_duration_stimuli/002549_2014-06-24_13-41-39_094959634447_rgbf000022-resize_3/002549_2014-06-24_13-41-39_094959634447_rgbf000022-resize_3-target.png,250,1.476,3,1994,249,feet,jsons/v1_VE250_randls_57.json,705374,922970,24,Man
119,848056,DepthScenes,duration_manipulation_targetAtFixation,jsons/v1_VE250_randls_57.json,http://54.235.29.9/FacialAge/BNav_EC2/DepthDuration/v2_depth_duration_MTurk/v2_DepthDuration_HTML.html#132,132,1536,722,1536,864,8-20-2022,11-17-13,120,depth_duration_stimuli/002750_2014-06-22_19-08-03_094959634447_rgbf000094-resize_4/002750_2014-06-22_19-08-03_094959634447_rgbf000094-resize_4-target.png,250,2.354,4,1984,249,feet,jsons/v1_VE250_randls_57.json,705374,922970,24,Man
120,848056,DepthScenes,duration_manipulation_targetAtFixation,jsons/v1_VE250_randls_57.json,http://54.235.29.9/FacialAge/BNav_EC2/DepthDuration/v2_depth_duration_MTurk/v2_DepthDuration_HTML.html#132,132,1536,722,1536,864,8-20-2022,11-17-13,121,depth_duration_stimuli/000469_2014-06-09_19-42-10_260595134347_rgbf000081-resize_1/000469_2014-06-09_19-42-10_260595134347_rgbf000081-resize_1-target.png,250,1.652,3,2071,248,feet,jsons/v1_VE250_randls_57.json,705374,922970,24,Man
121,848056,DepthScenes,duration_manipulation_targetAtFixation,jsons/v1_VE250_randls_57.json,http://54.235.29.9/FacialAge/BNav_EC2/DepthDuration/v2_depth_duration_MTurk/v2_DepthDuration_HTML.html#132,132,1536,722,1536,864,8-20-2022,11-17-13,122,depth_duration_stimuli/000483_2014-06-09_20-41-45_260595134347_rgbf000116-resize_4/000483_2014-06-09_20-41-45_260595134347_rgbf000116-resize_4-target.png,250,1.337,3,1890,264,feet,jsons/v1_VE250_randls_57.json,705374,922970,24,Man
122,848056,DepthScenes,duration_manipulation_targetAtFixation,jsons/v1_VE250_randls_57.json,http://54.235.29.9/FacialAge/BNav_EC2/DepthDuration/v2_depth_duration_MTurk/v2_DepthDuration_HTML.html#132,132,1536,722,1536,864,8-20-2022,11-17-13,123,depth_duration_stimuli/001244_2014-06-17_16-47-45_260595134347_rgbf000030-resize_4/001244_2014-06-17_16-47-45_260595134347_rgbf000030-resize_4-target.png,250,2.0425,4,2579,247,feet,jsons/v1_VE250_randls_57.json,705374,922970,24,Man
123,848056,DepthScenes,duration_manipulation_targetAtFixation,jsons/v1_VE250_randls_57.json,http://54.235.29.9/FacialAge/BNav_EC2/DepthDuration/v2_depth_duration_MTurk/v2_DepthDuration_HTML.html#132,132,1536,722,1536,864,8-20-2022,11-17-13,124,depth_duration_stimuli/003495_2014-05-21_16-01-51_094959634447_rgbf000100-resize_3/003495_2014-05-21_16-01-51_094959634447_rgbf000100-resize_3-target.png,250,1.6255,2,2020,249,feet,jsons/v1_VE250_randls_57.json,705374,922970,24,Man
124,848056,DepthScenes,duration_manipulation_targetAtFixation,jsons/v1_VE250_randls_57.json,http://54.235.29.9/FacialAge/BNav_EC2/DepthDuration/v2_depth_duration_MTurk/v2_DepthDuration_HTML.html#132,132,1536,722,1536,864,8-20-2022,11-17-13,125,depth_duration_stimuli/001056_2014-06-08_18-46-44_260595134347_rgbf000068-resize_0/001056_2014-06-08_18-46-44_260595134347_rgbf000068-resize_0-target.png,250,2.6625,4,1985,248,feet,jsons/v1_VE250_randls_57.json,705374,922970,24,Man
125,848056,DepthScenes,duration_manipulation_targetAtFixation,jsons/v1_VE250_randls_57.json,http://54.235.29.9/FacialAge/BNav_EC2/DepthDuration/v2_depth_duration_MTurk/v2_DepthDuration_HTML.html#132,132,1536,722,1536,864,8-20-2022,11-17-13,126,depth_duration_stimuli/002199_2014-06-28_18-33-56_260595134347_rgbf000074-resize_0/002199_2014-06-28_18-33-56_260595134347_rgbf000074-resize_0-target.png,250,1.996,3,2287,250,feet,jsons/v1_VE250_randls_57.json,705374,922970,24,Man
126,848056,DepthScenes,duration_manipulation_targetAtFixation,jsons/v1_VE250_randls_57.json,http://54.235.29.9/FacialAge/BNav_EC2/DepthDuration/v2_depth_duration_MTurk/v2_DepthDuration_HTML.html#132,132,1536,722,1536,864,8-20-2022,11-17-13,127,depth_duration_stimuli/001092_2014-06-15_17-34-58_260595134347_rgbf000171-resize_3/001092_2014-06-15_17-34-58_260595134347_rgbf000171-resize_3-target.png,250,2.6935,4,2109,250,feet,jsons/v1_VE250_randls_57.json,705374,922970,24,Man
127,848056,DepthScenes,duration_manipulation_targetAtFixation,jsons/v1_VE250_randls_57.json,http://54.235.29.9/FacialAge/BNav_EC2/DepthDuration/v2_depth_duration_MTurk/v2_DepthDuration_HTML.html#132,132,1536,722,1536,864,8-20-2022,11-17-13,128,depth_duration_stimuli/002545_2014-06-24_13-38-53_094959634447_rgbf000080-resize_4/002545_2014-06-24_13-38-53_094959634447_rgbf000080-resize_4-target.png,250,1.9205,5,1981,235,feet,jsons/v1_VE250_randls_57.json,705374,922970,24,Man
128,848056,DepthScenes,duration_manipulation_targetAtFixation,jsons/v1_VE250_randls_57.json,http://54.235.29.9/FacialAge/BNav_EC2/DepthDuration/v2_depth_duration_MTurk/v2_DepthDuration_HTML.html#132,132,1536,722,1536,864,8-20-2022,11-17-13,129,depth_duration_stimuli/002788_2014-06-22_19-36-03_094959634447_rgbf000088-resize_2/002788_2014-06-22_19-36-03_094959634447_rgbf000088-resize_2-target.png,250,1.6465,6,1966,254,feet,jsons/v1_VE250_randls_57.json,705374,922970,24,Man
129,848056,DepthScenes,duration_manipulation_targetAtFixation,jsons/v1_VE250_randls_57.json,http://54.235.29.9/FacialAge/BNav_EC2/DepthDuration/v2_depth_duration_MTurk/v2_DepthDuration_HTML.html#132,132,1536,722,1536,864,8-20-2022,11-17-13,130,depth_duration_stimuli/000749_2014-06-08_21-55-06_260595134347_rgbf000070-resize_2/000749_2014-06-08_21-55-06_260595134347_rgbf000070-resize_2-target.png,250,2.331,5,1982,251,feet,jsons/v1_VE250_randls_57.json,705374,922970,24,Man
130,848056,DepthScenes,duration_manipulation_targetAtFixation,jsons/v1_VE250_randls_57.json,http://54.235.29.9/FacialAge/BNav_EC2/DepthDuration/v2_depth_duration_MTurk/v2_DepthDuration_HTML.html#132,132,1536,722,1536,864,8-20-2022,11-17-13,131,depth_duration_stimuli/002725_2014-06-22_11-47-51_094959634447_rgbf000070-resize_1/002725_2014-06-22_11-47-51_094959634447_rgbf000070-resize_1-target.png,250,2.195,5,2117,251,feet,jsons/v1_VE250_randls_57.json,705374,922970,24,Man
131,848056,DepthScenes,duration_manipulation_targetAtFixation,jsons/v1_VE250_randls_57.json,http://54.235.29.9/FacialAge/BNav_EC2/DepthDuration/v2_depth_duration_MTurk/v2_DepthDuration_HTML.html#132,132,1536,722,1536,864,8-20-2022,11-17-13,132,depth_duration_stimuli/002344_2014-06-28_20-06-29_260595134347_rgbf000030-resize_1/002344_2014-06-28_20-06-29_260595134347_rgbf000030-resize_1-target.png,250,1.5795,2,2159,238,feet,jsons/v1_VE250_randls_57.json,705374,922970,24,Man
132,848056,DepthScenes,duration_manipulation_targetAtFixation,jsons/v1_VE250_randls_57.json,http://54.235.29.9/FacialAge/BNav_EC2/DepthDuration/v2_depth_duration_MTurk/v2_DepthDuration_HTML.html#132,132,1536,722,1536,864,8-20-2022,11-17-13,133,depth_duration_stimuli/001167_2014-06-17_15-38-07_260595134347_rgbf000108-resize_0/001167_2014-06-17_15-38-07_260595134347_rgbf000108-resize_0-target.png,250,1.8505,3,2005,248,feet,jsons/v1_VE250_randls_57.json,705374,922970,24,Man
133,848056,DepthScenes,duration_manipulation_targetAtFixation,jsons/v1_VE250_randls_57.json,http://54.235.29.9/FacialAge/BNav_EC2/DepthDuration/v2_depth_duration_MTurk/v2_DepthDuration_HTML.html#132,132,1536,722,1536,864,8-20-2022,11-17-13,134,depth_duration_stimuli/003587_2014-05-23_16-48-02_094959634447_rgbf002384-resize_2/003587_2014-05-23_16-48-02_094959634447_rgbf002384-resize_2-target.png,250,1.357,2,6239,244,feet,jsons/v1_VE250_randls_57.json,705374,922970,24,Man
134,848056,DepthScenes,duration_manipulation_targetAtFixation,jsons/v1_VE250_randls_57.json,http://54.235.29.9/FacialAge/BNav_EC2/DepthDuration/v2_depth_duration_MTurk/v2_DepthDuration_HTML.html#132,132,1536,722,1536,864,8-20-2022,11-17-13,135,depth_duration_stimuli/002072_2014-06-24_21-48-06_260595134347_rgbf000115-resize_0/002072_2014-06-24_21-48-06_260595134347_rgbf000115-resize-original.jpg,250,4.702,0,3564,248,feet,jsons/v1_VE250_randls_57.json,705374,922970,24,Man
135,848056,DepthScenes,duration_manipulation_targetAtFixation,jsons/v1_VE250_randls_57.json,http://54.235.29.9/FacialAge/BNav_EC2/DepthDuration/v2_depth_duration_MTurk/v2_DepthDuration_HTML.html#132,132,1536,722,1536,864,8-20-2022,11-17-13,136,depth_duration_stimuli/001164_2014-06-17_15-35-46_260595134347_rgbf000085-resize_3/001164_2014-06-17_15-35-46_260595134347_rgbf000085-resize_3-target.png,250,2.354,4,2830,234,feet,jsons/v1_VE250_randls_57.json,705374,922970,24,Man
136,848056,DepthScenes,duration_manipulation_targetAtFixation,jsons/v1_VE250_randls_57.json,http://54.235.29.9/FacialAge/BNav_EC2/DepthDuration/v2_depth_duration_MTurk/v2_DepthDuration_HTML.html#132,132,1536,722,1536,864,8-20-2022,11-17-13,137,depth_duration_stimuli/001136_2014-06-17_15-19-41_260595134347_rgbf000076-resize_3/001136_2014-06-17_15-19-41_260595134347_rgbf000076-resize_3-target.png,250,1.8655,5,2696,250,feet,jsons/v1_VE250_randls_57.json,705374,922970,24,Man
137,848056,DepthScenes,duration_manipulation_targetAtFixation,jsons/v1_VE250_randls_57.json,http://54.235.29.9/FacialAge/BNav_EC2/DepthDuration/v2_depth_duration_MTurk/v2_DepthDuration_HTML.html#132,132,1536,722,1536,864,8-20-2022,11-17-13,138,depth_duration_stimuli/001066_2014-06-08_22-03-20_260595134347_rgbf000066-resize_4/001066_2014-06-08_22-03-20_260595134347_rgbf000066-resize_4-target.png,250,4.2330000000000005,4,2173,240,feet,jsons/v1_VE250_randls_57.json,705374,922970,24,Man
138,848056,DepthScenes,duration_manipulation_targetAtFixation,jsons/v1_VE250_randls_57.json,http://54.235.29.9/FacialAge/BNav_EC2/DepthDuration/v2_depth_duration_MTurk/v2_DepthDuration_HTML.html#132,132,1536,722,1536,864,8-20-2022,11-17-13,139,depth_duration_stimuli/000742_2014-06-08_18-48-09_260595134347_rgbf000164-resize_4/000742_2014-06-08_18-48-09_260595134347_rgbf000164-resize_4-target.png,250,4.632,6,2027,261,feet,jsons/v1_VE250_randls_57.json,705374,922970,24,Man
139,848056,DepthScenes,duration_manipulation_targetAtFixation,jsons/v1_VE250_randls_57.json,http://54.235.29.9/FacialAge/BNav_EC2/DepthDuration/v2_depth_duration_MTurk/v2_DepthDuration_HTML.html#132,132,1536,722,1536,864,8-20-2022,11-17-13,140,depth_duration_stimuli/003621_2014-05-23_18-06-08_094959634447_rgbf000101-resize_1/003621_2014-05-23_18-06-08_094959634447_rgbf000101-resize_1-target.png,250,3.9835,5,2357,245,feet,jsons/v1_VE250_randls_57.json,705374,922970,24,Man
140,848056,DepthScenes,duration_manipulation_targetAtFixation,jsons/v1_VE250_randls_57.json,http://54.235.29.9/FacialAge/BNav_EC2/DepthDuration/v2_depth_duration_MTurk/v2_DepthDuration_HTML.html#132,132,1536,722,1536,864,8-20-2022,11-17-13,141,depth_duration_stimuli/001584_2014-06-20_11-07-43_260595134347_rgbf000002-resize_1/001584_2014-06-20_11-07-43_260595134347_rgbf000002-resize_1-target.png,250,3.53,4,2813,248,feet,jsons/v1_VE250_randls_57.json,705374,922970,24,Man
141,848056,DepthScenes,duration_manipulation_targetAtFixation,jsons/v1_VE250_randls_57.json,http://54.235.29.9/FacialAge/BNav_EC2/DepthDuration/v2_depth_duration_MTurk/v2_DepthDuration_HTML.html#132,132,1536,722,1536,864,8-20-2022,11-17-13,142,depth_duration_stimuli/001449_2014-06-19_17-01-27_260595134347_rgbf000116-resize_2/001449_2014-06-19_17-01-27_260595134347_rgbf000116-resize_2-target.png,250,3.452,5,2114,249,feet,jsons/v1_VE250_randls_57.json,705374,922970,24,Man
142,848056,DepthScenes,duration_manipulation_targetAtFixation,jsons/v1_VE250_randls_57.json,http://54.235.29.9/FacialAge/BNav_EC2/DepthDuration/v2_depth_duration_MTurk/v2_DepthDuration_HTML.html#132,132,1536,722,1536,864,8-20-2022,11-17-13,143,depth_duration_stimuli/001450_2014-06-19_17-02-03_260595134347_rgbf000203-resize_4/001450_2014-06-19_17-02-03_260595134347_rgbf000203-resize_4-target.png,250,4.0106666666667,5,2138,250,feet,jsons/v1_VE250_randls_57.json,705374,922970,24,Man
143,848056,DepthScenes,duration_manipulation_targetAtFixation,jsons/v1_VE250_randls_57.json,http://54.235.29.9/FacialAge/BNav_EC2/DepthDuration/v2_depth_duration_MTurk/v2_DepthDuration_HTML.html#132,132,1536,722,1536,864,8-20-2022,11-17-13,144,depth_duration_stimuli/001133_2014-06-17_14-49-16_260595134347_rgbf000100-resize_0/001133_2014-06-17_14-49-16_260595134347_rgbf000100-resize_0-target.png,250,4.2115,5,1907,243,feet,jsons/v1_VE250_randls_57.json,705374,922970,24,Man
144,848056,DepthScenes,duration_manipulation_targetAtFixation,jsons/v1_VE250_randls_57.json,http://54.235.29.9/FacialAge/BNav_EC2/DepthDuration/v2_depth_duration_MTurk/v2_DepthDuration_HTML.html#132,132,1536,722,1536,864,8-20-2022,11-17-13,145,depth_duration_stimuli/001132_2014-06-17_14-48-54_260595134347_rgbf000100-resize_2/001132_2014-06-17_14-48-54_260595134347_rgbf000100-resize_2-target.png,250,3.753,6,2095,252,feet,jsons/v1_VE250_randls_57.json,705374,922970,24,Man
145,848056,DepthScenes,duration_manipulation_targetAtFixation,jsons/v1_VE250_randls_57.json,http://54.235.29.9/FacialAge/BNav_EC2/DepthDuration/v2_depth_duration_MTurk/v2_DepthDuration_HTML.html#132,132,1536,722,1536,864,8-20-2022,11-17-13,146,depth_duration_stimuli/001498_2014-06-19_17-45-14_260595134347_rgbf000129-resize_4/001498_2014-06-19_17-45-14_260595134347_rgbf000129-resize-original.jpg,250,1.4075,0,8080,271,feet,jsons/v1_VE250_randls_57.json,705374,922970,24,Man
146,848056,DepthScenes,duration_manipulation_targetAtFixation,jsons/v1_VE250_randls_57.json,http://54.235.29.9/FacialAge/BNav_EC2/DepthDuration/v2_depth_duration_MTurk/v2_DepthDuration_HTML.html#132,132,1536,722,1536,864,8-20-2022,11-17-13,147,depth_duration_stimuli/000692_2014-06-08_13-09-42_260595134347_rgbf000199-resize_2/000692_2014-06-08_13-09-42_260595134347_rgbf000199-resize_2-target.png,250,3.661,6,6171,248,feet,jsons/v1_VE250_randls_57.json,705374,922970,24,Man
147,848056,DepthScenes,duration_manipulation_targetAtFixation,jsons/v1_VE250_randls_57.json,http://54.235.29.9/FacialAge/BNav_EC2/DepthDuration/v2_depth_duration_MTurk/v2_DepthDuration_HTML.html#132,132,1536,722,1536,864,8-20-2022,11-17-13,148,depth_duration_stimuli/001094_2014-06-15_17-36-00_260595134347_rgbf000205-resize_0/001094_2014-06-15_17-36-00_260595134347_rgbf000205-resize_0-target.png,250,4.2175,5,2042,239,feet,jsons/v1_VE250_randls_57.json,705374,922970,24,Man
148,848056,DepthScenes,duration_manipulation_targetAtFixation,jsons/v1_VE250_randls_57.json,http://54.235.29.9/FacialAge/BNav_EC2/DepthDuration/v2_depth_duration_MTurk/v2_DepthDuration_HTML.html#132,132,1536,722,1536,864,8-20-2022,11-17-13,149,depth_duration_stimuli/000642_2014-06-08_16-59-25_260595134347_rgbf000098-resize_2/000642_2014-06-08_16-59-25_260595134347_rgbf000098-resize_2-target.png,250,2.8815,4,2031,248,feet,jsons/v1_VE250_randls_57.json,705374,922970,24,Man
149,848056,DepthScenes,duration_manipulation_targetAtFixation,jsons/v1_VE250_randls_57.json,http://54.235.29.9/FacialAge/BNav_EC2/DepthDuration/v2_depth_duration_MTurk/v2_DepthDuration_HTML.html#132,132,1536,722,1536,864,8-20-2022,11-17-13,150,depth_duration_stimuli/002425_2014-06-28_20-27-29_260595134347_rgbf000031-resize_8/002425_2014-06-28_20-27-29_260595134347_rgbf000031-resize_8-target.png,250,3.8960000000000004,6,1888,247,feet,jsons/v1_VE250_randls_57.json,705374,922970,24,Man
150,848056,DepthScenes,duration_manipulation_targetAtFixation,jsons/v1_VE250_randls_57.json,http://54.235.29.9/FacialAge/BNav_EC2/DepthDuration/v2_depth_duration_MTurk/v2_DepthDuration_HTML.html#132,132,1536,722,1536,864,8-20-2022,11-17-13,151,depth_duration_stimuli/002989_2014-06-15_12-25-03_094959634447_rgbf000150-resize_3/002989_2014-06-15_12-25-03_094959634447_rgbf000150-resize_3-target.png,250,4.1975,5,3108,247,feet,jsons/v1_VE250_randls_57.json,705374,922970,24,Man
151,848056,DepthScenes,duration_manipulation_targetAtFixation,jsons/v1_VE250_randls_57.json,http://54.235.29.9/FacialAge/BNav_EC2/DepthDuration/v2_depth_duration_MTurk/v2_DepthDuration_HTML.html#132,132,1536,722,1536,864,8-20-2022,11-17-13,152,depth_duration_stimuli/000866_2014-06-09_20-45-42_260595134347_rgbf000139-resize_1/000866_2014-06-09_20-45-42_260595134347_rgbf000139-resize_1-target.png,250,3.2155,5,2039,250,feet,jsons/v1_VE250_randls_57.json,705374,922970,24,Man
152,848056,DepthScenes,duration_manipulation_targetAtFixation,jsons/v1_VE250_randls_57.json,http://54.235.29.9/FacialAge/BNav_EC2/DepthDuration/v2_depth_duration_MTurk/v2_DepthDuration_HTML.html#132,132,1536,722,1536,864,8-20-2022,11-17-13,153,depth_duration_stimuli/000758_2014-06-08_22-05-08_260595134347_rgbf000085-resize_0/000758_2014-06-08_22-05-08_260595134347_rgbf000085-resize_0-target.png,250,3.3810000000000002,5,2199,258,feet,jsons/v1_VE250_randls_57.json,705374,922970,24,Man
153,848056,DepthScenes,duration_manipulation_targetAtFixation,jsons/v1_VE250_randls_57.json,http://54.235.29.9/FacialAge/BNav_EC2/DepthDuration/v2_depth_duration_MTurk/v2_DepthDuration_HTML.html#132,132,1536,722,1536,864,8-20-2022,11-17-13,154,depth_duration_stimuli/000854_2014-06-09_19-43-13_260595134347_rgbf000066-resize_0/000854_2014-06-09_19-43-13_260595134347_rgbf000066-resize_0-target.png,250,3.068,4,1910,238,feet,jsons/v1_VE250_randls_57.json,705374,922970,24,Man
154,848056,DepthScenes,duration_manipulation_targetAtFixation,jsons/v1_VE250_randls_57.json,http://54.235.29.9/FacialAge/BNav_EC2/DepthDuration/v2_depth_duration_MTurk/v2_DepthDuration_HTML.html#132,132,1536,722,1536,864,8-20-2022,11-17-13,155,depth_duration_stimuli/000736_2014-06-08_18-24-15_260595134347_rgbf000206-resize_3/000736_2014-06-08_18-24-15_260595134347_rgbf000206-resize_3-target.png,250,3.515,3,84553,255,feet,jsons/v1_VE250_randls_57.json,705374,922970,24,Man
155,848056,DepthScenes,duration_manipulation_targetAtFixation,jsons/v1_VE250_randls_57.json,http://54.235.29.9/FacialAge/BNav_EC2/DepthDuration/v2_depth_duration_MTurk/v2_DepthDuration_HTML.html#132,132,1536,722,1536,864,8-20-2022,11-17-13,156,depth_duration_stimuli/000137_2014-05-20_17-04-49_260595134347_rgbf000120-resize_1/000137_2014-05-20_17-04-49_260595134347_rgbf000120-resize_1-target.png,250,3.786,5,5599,243,feet,jsons/v1_VE250_randls_57.json,705374,922970,24,Man
156,848056,DepthScenes,duration_manipulation_targetAtFixation,jsons/v1_VE250_randls_57.json,http://54.235.29.9/FacialAge/BNav_EC2/DepthDuration/v2_depth_duration_MTurk/v2_DepthDuration_HTML.html#132,132,1536,722,1536,864,8-20-2022,11-17-13,157,depth_duration_stimuli/002213_2014-06-28_18-37-58_260595134347_rgbf000055-resize_1/002213_2014-06-28_18-37-58_260595134347_rgbf000055-resize_1-target.png,250,3.62,6,2323,249,feet,jsons/v1_VE250_randls_57.json,705374,922970,24,Man
157,848056,DepthScenes,duration_manipulation_targetAtFixation,jsons/v1_VE250_randls_57.json,http://54.235.29.9/FacialAge/BNav_EC2/DepthDuration/v2_depth_duration_MTurk/v2_DepthDuration_HTML.html#132,132,1536,722,1536,864,8-20-2022,11-17-13,158,depth_duration_stimuli/000691_2014-06-08_13-08-50_260595134347_rgbf000132-resize_3/000691_2014-06-08_13-08-50_260595134347_rgbf000132-resize_3-target.png,250,4.1530000000000005,5,4620,248,feet,jsons/v1_VE250_randls_57.json,705374,922970,24,Man
158,848056,DepthScenes,duration_manipulation_targetAtFixation,jsons/v1_VE250_randls_57.json,http://54.235.29.9/FacialAge/BNav_EC2/DepthDuration/v2_depth_duration_MTurk/v2_DepthDuration_HTML.html#132,132,1536,722,1536,864,8-20-2022,11-17-13,159,depth_duration_stimuli/002964_2014-06-08_17-46-11_094959634447_rgbf000091-resize_4/002964_2014-06-08_17-46-11_094959634447_rgbf000091-resize_4-target.png,250,1.6909999999999998,2,2899,248,feet,jsons/v1_VE250_randls_57.json,705374,922970,24,Man
159,848056,DepthScenes,duration_manipulation_targetAtFixation,jsons/v1_VE250_randls_57.json,http://54.235.29.9/FacialAge/BNav_EC2/DepthDuration/v2_depth_duration_MTurk/v2_DepthDuration_HTML.html#132,132,1536,722,1536,864,8-20-2022,11-17-13,160,depth_duration_stimuli/002136_2014-06-25_21-18-03_260595134347_rgbf000109-resize_3/002136_2014-06-25_21-18-03_260595134347_rgbf000109-resize_3-target.png,250,1.9569999999999999,3,2036,250,feet,jsons/v1_VE250_randls_57.json,705374,922970,24,Man
160,848056,DepthScenes,duration_manipulation_targetAtFixation,jsons/v1_VE250_randls_57.json,http://54.235.29.9/FacialAge/BNav_EC2/DepthDuration/v2_depth_duration_MTurk/v2_DepthDuration_HTML.html#132,132,1536,722,1536,864,8-20-2022,11-17-13,161,depth_duration_stimuli/000917_2014-06-09_22-45-29_260595134347_rgbf000149-resize_3/000917_2014-06-09_22-45-29_260595134347_rgbf000149-resize_3-target.png,250,4.1865,5,2098,248,feet,jsons/v1_VE250_randls_57.json,705374,922970,24,Man
161,848056,DepthScenes,duration_manipulation_targetAtFixation,jsons/v1_VE250_randls_57.json,http://54.235.29.9/FacialAge/BNav_EC2/DepthDuration/v2_depth_duration_MTurk/v2_DepthDuration_HTML.html#132,132,1536,722,1536,864,8-20-2022,11-17-13,162,depth_duration_stimuli/002323_2014-06-28_20-01-54_260595134347_rgbf000051-resize_4/002323_2014-06-28_20-01-54_260595134347_rgbf000051-resize_4-target.png,250,3.7310000000000003,5,2110,248,feet,jsons/v1_VE250_randls_57.json,705374,922970,24,Man
162,848056,DepthScenes,duration_manipulation_targetAtFixation,jsons/v1_VE250_randls_57.json,http://54.235.29.9/FacialAge/BNav_EC2/DepthDuration/v2_depth_duration_MTurk/v2_DepthDuration_HTML.html#132,132,1536,722,1536,864,8-20-2022,11-17-13,163,depth_duration_stimuli/002043_2014-06-24_20-29-38_260595134347_rgbf000039-resize_4/002043_2014-06-24_20-29-38_260595134347_rgbf000039-resize_4-target.png,250,2.8435,6,2095,249,feet,jsons/v1_VE250_randls_57.json,705374,922970,24,Man
163,848056,DepthScenes,duration_manipulation_targetAtFixation,jsons/v1_VE250_randls_57.json,http://54.235.29.9/FacialAge/BNav_EC2/DepthDuration/v2_depth_duration_MTurk/v2_DepthDuration_HTML.html#132,132,1536,722,1536,864,8-20-2022,11-17-13,164,depth_duration_stimuli/003048_2014-06-15_13-49-43_094959634447_rgbf000150-resize_1/003048_2014-06-15_13-49-43_094959634447_rgbf000150-resize_1-target.png,250,4.0035,6,2274,248,feet,jsons/v1_VE250_randls_57.json,705374,922970,24,Man
