,subjID,experimentName,versionName,sequenceName,url,selected_row,windowWidth,windowHeight,screenWidth,screenHeight,startDate,startTime,trial,stimulus,duration,actual_depth,depth_estimate,trial_RT,log_sceneDuration,unitSelection,seq_filepath,experimentTime,totalTime,age,gender
0,850602,DepthScenes,duration_manipulation_targetAtFixation,jsons/VE125_randls_36.json,http://54.235.29.9/FacialAge/BNav_EC2/DepthDuration/v2_depth_duration_MTurk/v2_DepthDuration_HTML.html#144,144,1422,730,1280,800,8-21-2022,10-6-27,1,depth_duration_stimuli/002788_2014-06-22_19-36-03_094959634447_rgbf000088-resize_2/002788_2014-06-22_19-36-03_094959634447_rgbf000088-resize_2-target.png,125,1.6465,7,3099,142,feet,jsons/VE125_randls_36.json,575206,1221547,50,Woman
1,850602,DepthScenes,duration_manipulation_targetAtFixation,jsons/VE125_randls_36.json,http://54.235.29.9/FacialAge/BNav_EC2/DepthDuration/v2_depth_duration_MTurk/v2_DepthDuration_HTML.html#144,144,1422,730,1280,800,8-21-2022,10-6-27,2,depth_duration_stimuli/000749_2014-06-08_21-55-06_260595134347_rgbf000070-resize_2/000749_2014-06-08_21-55-06_260595134347_rgbf000070-resize_2-target.png,125,2.331,8,2955,123,feet,jsons/VE125_randls_36.json,575206,1221547,50,Woman
2,850602,DepthScenes,duration_manipulation_targetAtFixation,jsons/VE125_randls_36.json,http://54.235.29.9/FacialAge/BNav_EC2/DepthDuration/v2_depth_duration_MTurk/v2_DepthDuration_HTML.html#144,144,1422,730,1280,800,8-21-2022,10-6-27,3,depth_duration_stimuli/000736_2014-06-08_18-24-15_260595134347_rgbf000206-resize_3/000736_2014-06-08_18-24-15_260595134347_rgbf000206-resize_3-target.png,125,3.515,8,3943,124,feet,jsons/VE125_randls_36.json,575206,1221547,50,Woman
3,850602,DepthScenes,duration_manipulation_targetAtFixation,jsons/VE125_randls_36.json,http://54.235.29.9/FacialAge/BNav_EC2/DepthDuration/v2_depth_duration_MTurk/v2_DepthDuration_HTML.html#144,144,1422,730,1280,800,8-21-2022,10-6-27,4,depth_duration_stimuli/000137_2014-05-20_17-04-49_260595134347_rgbf000120-resize_1/000137_2014-05-20_17-04-49_260595134347_rgbf000120-resize_1-target.png,125,3.786,10,3300,124,feet,jsons/VE125_randls_36.json,575206,1221547,50,Woman
4,850602,DepthScenes,duration_manipulation_targetAtFixation,jsons/VE125_randls_36.json,http://54.235.29.9/FacialAge/BNav_EC2/DepthDuration/v2_depth_duration_MTurk/v2_DepthDuration_HTML.html#144,144,1422,730,1280,800,8-21-2022,10-6-27,5,depth_duration_stimuli/001570_2014-06-20_17-21-09_260595134347_rgbf000135-resize_4/001570_2014-06-20_17-21-09_260595134347_rgbf000135-resize_4-target.png,125,4.467,12,4337,132,feet,jsons/VE125_randls_36.json,575206,1221547,50,Woman
5,850602,DepthScenes,duration_manipulation_targetAtFixation,jsons/VE125_randls_36.json,http://54.235.29.9/FacialAge/BNav_EC2/DepthDuration/v2_depth_duration_MTurk/v2_DepthDuration_HTML.html#144,144,1422,730,1280,800,8-21-2022,10-6-27,6,depth_duration_stimuli/001392_2014-06-19_16-07-59_260595134347_rgbf000046-resize_1/001392_2014-06-19_16-07-59_260595134347_rgbf000046-resize_1-target.png,125,4.135,10,2864,125,feet,jsons/VE125_randls_36.json,575206,1221547,50,Woman
6,850602,DepthScenes,duration_manipulation_targetAtFixation,jsons/VE125_randls_36.json,http://54.235.29.9/FacialAge/BNav_EC2/DepthDuration/v2_depth_duration_MTurk/v2_DepthDuration_HTML.html#144,144,1422,730,1280,800,8-21-2022,10-6-27,7,depth_duration_stimuli/002964_2014-06-08_17-46-11_094959634447_rgbf000091-resize_4/002964_2014-06-08_17-46-11_094959634447_rgbf000091-resize_4-target.png,125,1.6909999999999998,5,2586,125,feet,jsons/VE125_randls_36.json,575206,1221547,50,Woman
7,850602,DepthScenes,duration_manipulation_targetAtFixation,jsons/VE125_randls_36.json,http://54.235.29.9/FacialAge/BNav_EC2/DepthDuration/v2_depth_duration_MTurk/v2_DepthDuration_HTML.html#144,144,1422,730,1280,800,8-21-2022,10-6-27,8,depth_duration_stimuli/002136_2014-06-25_21-18-03_260595134347_rgbf000109-resize_3/002136_2014-06-25_21-18-03_260595134347_rgbf000109-resize_3-target.png,125,1.9569999999999999,4,3097,125,feet,jsons/VE125_randls_36.json,575206,1221547,50,Woman
8,850602,DepthScenes,duration_manipulation_targetAtFixation,jsons/VE125_randls_36.json,http://54.235.29.9/FacialAge/BNav_EC2/DepthDuration/v2_depth_duration_MTurk/v2_DepthDuration_HTML.html#144,144,1422,730,1280,800,8-21-2022,10-6-27,9,depth_duration_stimuli/002153_2014-06-25_21-27-18_260595134347_rgbf000038-resize_5/002153_2014-06-25_21-27-18_260595134347_rgbf000038-resize_5-target.png,125,2.505,8,2559,124,feet,jsons/VE125_randls_36.json,575206,1221547,50,Woman
9,850602,DepthScenes,duration_manipulation_targetAtFixation,jsons/VE125_randls_36.json,http://54.235.29.9/FacialAge/BNav_EC2/DepthDuration/v2_depth_duration_MTurk/v2_DepthDuration_HTML.html#144,144,1422,730,1280,800,8-21-2022,10-6-27,10,depth_duration_stimuli/002660_2014-06-13_15-44-18_094959634447_rgbf001878-resize_2/002660_2014-06-13_15-44-18_094959634447_rgbf001878-resize_2-target.png,125,3.576,10,2679,124,feet,jsons/VE125_randls_36.json,575206,1221547,50,Woman
10,850602,DepthScenes,duration_manipulation_targetAtFixation,jsons/VE125_randls_36.json,http://54.235.29.9/FacialAge/BNav_EC2/DepthDuration/v2_depth_duration_MTurk/v2_DepthDuration_HTML.html#144,144,1422,730,1280,800,8-21-2022,10-6-27,11,depth_duration_stimuli/000522_2014-06-08_13-35-06_260595134347_rgbf000244-resize_1/000522_2014-06-08_13-35-06_260595134347_rgbf000244-resize_1-target.png,125,2.3715,3,2510,124,feet,jsons/VE125_randls_36.json,575206,1221547,50,Woman
11,850602,DepthScenes,duration_manipulation_targetAtFixation,jsons/VE125_randls_36.json,http://54.235.29.9/FacialAge/BNav_EC2/DepthDuration/v2_depth_duration_MTurk/v2_DepthDuration_HTML.html#144,144,1422,730,1280,800,8-21-2022,10-6-27,12,depth_duration_stimuli/002949_2014-06-26_15-57-42_094959634447_rgbf000079-resize_1/002949_2014-06-26_15-57-42_094959634447_rgbf000079-resize_1-target.png,125,1.8915,5,2901,125,feet,jsons/VE125_randls_36.json,575206,1221547,50,Woman
12,850602,DepthScenes,duration_manipulation_targetAtFixation,jsons/VE125_randls_36.json,http://54.235.29.9/FacialAge/BNav_EC2/DepthDuration/v2_depth_duration_MTurk/v2_DepthDuration_HTML.html#144,144,1422,730,1280,800,8-21-2022,10-6-27,13,depth_duration_stimuli/000569_2014-06-09_22-51-47_260595134347_rgbf000141-resize_3/000569_2014-06-09_22-51-47_260595134347_rgbf000141-resize-original.jpg,125,4.512,0,2152,125,feet,jsons/VE125_randls_36.json,575206,1221547,50,Woman
13,850602,DepthScenes,duration_manipulation_targetAtFixation,jsons/VE125_randls_36.json,http://54.235.29.9/FacialAge/BNav_EC2/DepthDuration/v2_depth_duration_MTurk/v2_DepthDuration_HTML.html#144,144,1422,730,1280,800,8-21-2022,10-6-27,14,depth_duration_stimuli/000773_2014-06-08_22-24-54_260595134347_rgbf000093-resize_1/000773_2014-06-08_22-24-54_260595134347_rgbf000093-resize_1-target.png,125,4.973,10,2438,125,feet,jsons/VE125_randls_36.json,575206,1221547,50,Woman
14,850602,DepthScenes,duration_manipulation_targetAtFixation,jsons/VE125_randls_36.json,http://54.235.29.9/FacialAge/BNav_EC2/DepthDuration/v2_depth_duration_MTurk/v2_DepthDuration_HTML.html#144,144,1422,730,1280,800,8-21-2022,10-6-27,15,depth_duration_stimuli/002414_2014-06-28_20-24-58_260595134347_rgbf000067-resize_4/002414_2014-06-28_20-24-58_260595134347_rgbf000067-resize_4-target.png,125,4.363,8,3378,126,feet,jsons/VE125_randls_36.json,575206,1221547,50,Woman
15,850602,DepthScenes,duration_manipulation_targetAtFixation,jsons/VE125_randls_36.json,http://54.235.29.9/FacialAge/BNav_EC2/DepthDuration/v2_depth_duration_MTurk/v2_DepthDuration_HTML.html#144,144,1422,730,1280,800,8-21-2022,10-6-27,16,depth_duration_stimuli/000929_2014-06-09_16-33-19_260595134347_rgbf000139-resize_0/000929_2014-06-09_16-33-19_260595134347_rgbf000139-resize_0-target.png,125,2.8680000000000003,8,2713,126,feet,jsons/VE125_randls_36.json,575206,1221547,50,Woman
16,850602,DepthScenes,duration_manipulation_targetAtFixation,jsons/VE125_randls_36.json,http://54.235.29.9/FacialAge/BNav_EC2/DepthDuration/v2_depth_duration_MTurk/v2_DepthDuration_HTML.html#144,144,1422,730,1280,800,8-21-2022,10-6-27,17,depth_duration_stimuli/000457_2014-06-08_16-52-43_260595134347_rgbf000199-resize_1/000457_2014-06-08_16-52-43_260595134347_rgbf000199-resize_1-target.png,125,3.6489999999999996,12,3662,120,feet,jsons/VE125_randls_36.json,575206,1221547,50,Woman
17,850602,DepthScenes,duration_manipulation_targetAtFixation,jsons/VE125_randls_36.json,http://54.235.29.9/FacialAge/BNav_EC2/DepthDuration/v2_depth_duration_MTurk/v2_DepthDuration_HTML.html#144,144,1422,730,1280,800,8-21-2022,10-6-27,18,depth_duration_stimuli/000788_2014-06-08_22-34-36_260595134347_rgbf000131-resize_1/000788_2014-06-08_22-34-36_260595134347_rgbf000131-resize_1-target.png,125,3.359,10,2727,122,feet,jsons/VE125_randls_36.json,575206,1221547,50,Woman
18,850602,DepthScenes,duration_manipulation_targetAtFixation,jsons/VE125_randls_36.json,http://54.235.29.9/FacialAge/BNav_EC2/DepthDuration/v2_depth_duration_MTurk/v2_DepthDuration_HTML.html#144,144,1422,730,1280,800,8-21-2022,10-6-27,19,depth_duration_stimuli/001235_2014-06-17_16-37-36_260595134347_rgbf000084-resize_4/001235_2014-06-17_16-37-36_260595134347_rgbf000084-resize_4-target.png,125,3.6605,8,2426,138,feet,jsons/VE125_randls_36.json,575206,1221547,50,Woman
19,850602,DepthScenes,duration_manipulation_targetAtFixation,jsons/VE125_randls_36.json,http://54.235.29.9/FacialAge/BNav_EC2/DepthDuration/v2_depth_duration_MTurk/v2_DepthDuration_HTML.html#144,144,1422,730,1280,800,8-21-2022,10-6-27,20,depth_duration_stimuli/000917_2014-06-09_22-45-29_260595134347_rgbf000149-resize_3/000917_2014-06-09_22-45-29_260595134347_rgbf000149-resize_3-target.png,125,4.1865,10,2461,125,feet,jsons/VE125_randls_36.json,575206,1221547,50,Woman
20,850602,DepthScenes,duration_manipulation_targetAtFixation,jsons/VE125_randls_36.json,http://54.235.29.9/FacialAge/BNav_EC2/DepthDuration/v2_depth_duration_MTurk/v2_DepthDuration_HTML.html#144,144,1422,730,1280,800,8-21-2022,10-6-27,21,depth_duration_stimuli/002323_2014-06-28_20-01-54_260595134347_rgbf000051-resize_4/002323_2014-06-28_20-01-54_260595134347_rgbf000051-resize_4-target.png,125,3.7310000000000003,12,2465,123,feet,jsons/VE125_randls_36.json,575206,1221547,50,Woman
21,850602,DepthScenes,duration_manipulation_targetAtFixation,jsons/VE125_randls_36.json,http://54.235.29.9/FacialAge/BNav_EC2/DepthDuration/v2_depth_duration_MTurk/v2_DepthDuration_HTML.html#144,144,1422,730,1280,800,8-21-2022,10-6-27,22,depth_duration_stimuli/002600_2014-06-24_14-27-04_094959634447_rgbf000074-resize_2/002600_2014-06-24_14-27-04_094959634447_rgbf000074-resize_2-target.png,125,2.7575,7,2447,124,feet,jsons/VE125_randls_36.json,575206,1221547,50,Woman
22,850602,DepthScenes,duration_manipulation_targetAtFixation,jsons/VE125_randls_36.json,http://54.235.29.9/FacialAge/BNav_EC2/DepthDuration/v2_depth_duration_MTurk/v2_DepthDuration_HTML.html#144,144,1422,730,1280,800,8-21-2022,10-6-27,23,depth_duration_stimuli/003228_2014-05-14_13-42-35_094959634447_rgbf000101-resize_1/003228_2014-05-14_13-42-35_094959634447_rgbf000101-resize_1-target.png,125,1.9680000000000002,4,2360,126,feet,jsons/VE125_randls_36.json,575206,1221547,50,Woman
23,850602,DepthScenes,duration_manipulation_targetAtFixation,jsons/VE125_randls_36.json,http://54.235.29.9/FacialAge/BNav_EC2/DepthDuration/v2_depth_duration_MTurk/v2_DepthDuration_HTML.html#144,144,1422,730,1280,800,8-21-2022,10-6-27,24,depth_duration_stimuli/001150_2014-06-17_15-27-34_260595134347_rgbf000108-resize_2/001150_2014-06-17_15-27-34_260595134347_rgbf000108-resize_2-target.png,125,4.0325,9,2960,115,feet,jsons/VE125_randls_36.json,575206,1221547,50,Woman
24,850602,DepthScenes,duration_manipulation_targetAtFixation,jsons/VE125_randls_36.json,http://54.235.29.9/FacialAge/BNav_EC2/DepthDuration/v2_depth_duration_MTurk/v2_DepthDuration_HTML.html#144,144,1422,730,1280,800,8-21-2022,10-6-27,25,depth_duration_stimuli/000665_2014-06-09_20-42-35_260595134347_rgbf000110-resize_1/000665_2014-06-09_20-42-35_260595134347_rgbf000110-resize_1-target.png,125,3.057,8,2594,125,feet,jsons/VE125_randls_36.json,575206,1221547,50,Woman
25,850602,DepthScenes,duration_manipulation_targetAtFixation,jsons/VE125_randls_36.json,http://54.235.29.9/FacialAge/BNav_EC2/DepthDuration/v2_depth_duration_MTurk/v2_DepthDuration_HTML.html#144,144,1422,730,1280,800,8-21-2022,10-6-27,26,depth_duration_stimuli/002043_2014-06-24_20-29-38_260595134347_rgbf000039-resize_4/002043_2014-06-24_20-29-38_260595134347_rgbf000039-resize_4-target.png,125,2.8435,7,2631,125,feet,jsons/VE125_randls_36.json,575206,1221547,50,Woman
26,850602,DepthScenes,duration_manipulation_targetAtFixation,jsons/VE125_randls_36.json,http://54.235.29.9/FacialAge/BNav_EC2/DepthDuration/v2_depth_duration_MTurk/v2_DepthDuration_HTML.html#144,144,1422,730,1280,800,8-21-2022,10-6-27,27,depth_duration_stimuli/003048_2014-06-15_13-49-43_094959634447_rgbf000150-resize_1/003048_2014-06-15_13-49-43_094959634447_rgbf000150-resize_1-target.png,125,4.0035,10,2253,126,feet,jsons/VE125_randls_36.json,575206,1221547,50,Woman
27,850602,DepthScenes,duration_manipulation_targetAtFixation,jsons/VE125_randls_36.json,http://54.235.29.9/FacialAge/BNav_EC2/DepthDuration/v2_depth_duration_MTurk/v2_DepthDuration_HTML.html#144,144,1422,730,1280,800,8-21-2022,10-6-27,28,depth_duration_stimuli/003492_2014-05-21_15-50-55_094959634447_rgbf000828-resize_1/003492_2014-05-21_15-50-55_094959634447_rgbf000828-resize_1-target.png,125,4.06875,10,3738,138,feet,jsons/VE125_randls_36.json,575206,1221547,50,Woman
28,850602,DepthScenes,duration_manipulation_targetAtFixation,jsons/VE125_randls_36.json,http://54.235.29.9/FacialAge/BNav_EC2/DepthDuration/v2_depth_duration_MTurk/v2_DepthDuration_HTML.html#144,144,1422,730,1280,800,8-21-2022,10-6-27,29,depth_duration_stimuli/002568_2014-06-24_13-59-21_094959634447_rgbf000062-resize_4/002568_2014-06-24_13-59-21_094959634447_rgbf000062-resize_4-target.png,125,3.015,8,2669,124,feet,jsons/VE125_randls_36.json,575206,1221547,50,Woman
29,850602,DepthScenes,duration_manipulation_targetAtFixation,jsons/VE125_randls_36.json,http://54.235.29.9/FacialAge/BNav_EC2/DepthDuration/v2_depth_duration_MTurk/v2_DepthDuration_HTML.html#144,144,1422,730,1280,800,8-21-2022,10-6-27,30,depth_duration_stimuli/000375_2014-06-08_11-17-29_260595134347_rgbf000133-resize_2/000375_2014-06-08_11-17-29_260595134347_rgbf000133-resize-original.jpg,125,4.718,0,2030,126,feet,jsons/VE125_randls_36.json,575206,1221547,50,Woman
30,850602,DepthScenes,duration_manipulation_targetAtFixation,jsons/VE125_randls_36.json,http://54.235.29.9/FacialAge/BNav_EC2/DepthDuration/v2_depth_duration_MTurk/v2_DepthDuration_HTML.html#144,144,1422,730,1280,800,8-21-2022,10-6-27,31,depth_duration_stimuli/001055_2014-06-08_18-45-35_260595134347_rgbf000111-resize_4/001055_2014-06-08_18-45-35_260595134347_rgbf000111-resize_4-target.png,125,2.4290000000000003,15,3033,124,feet,jsons/VE125_randls_36.json,575206,1221547,50,Woman
31,850602,DepthScenes,duration_manipulation_targetAtFixation,jsons/VE125_randls_36.json,http://54.235.29.9/FacialAge/BNav_EC2/DepthDuration/v2_depth_duration_MTurk/v2_DepthDuration_HTML.html#144,144,1422,730,1280,800,8-21-2022,10-6-27,32,depth_duration_stimuli/000549_2014-06-08_22-10-24_260595134347_rgbf000247-resize_3/000549_2014-06-08_22-10-24_260595134347_rgbf000247-resize_3-target.png,125,1.841,2,3095,124,feet,jsons/VE125_randls_36.json,575206,1221547,50,Woman
32,850602,DepthScenes,duration_manipulation_targetAtFixation,jsons/VE125_randls_36.json,http://54.235.29.9/FacialAge/BNav_EC2/DepthDuration/v2_depth_duration_MTurk/v2_DepthDuration_HTML.html#144,144,1422,730,1280,800,8-21-2022,10-6-27,33,depth_duration_stimuli/001158_2014-06-17_15-32-16_260595134347_rgbf000138-resize_2/001158_2014-06-17_15-32-16_260595134347_rgbf000138-resize_2-target.png,125,4.5315,12,3260,127,feet,jsons/VE125_randls_36.json,575206,1221547,50,Woman
33,850602,DepthScenes,duration_manipulation_targetAtFixation,jsons/VE125_randls_36.json,http://54.235.29.9/FacialAge/BNav_EC2/DepthDuration/v2_depth_duration_MTurk/v2_DepthDuration_HTML.html#144,144,1422,730,1280,800,8-21-2022,10-6-27,34,depth_duration_stimuli/000556_2014-06-09_22-42-56_260595134347_rgbf000214-resize_1/000556_2014-06-09_22-42-56_260595134347_rgbf000214-resize_1-target.png,125,4.8415,12,3727,124,feet,jsons/VE125_randls_36.json,575206,1221547,50,Woman
34,850602,DepthScenes,duration_manipulation_targetAtFixation,jsons/VE125_randls_36.json,http://54.235.29.9/FacialAge/BNav_EC2/DepthDuration/v2_depth_duration_MTurk/v2_DepthDuration_HTML.html#144,144,1422,730,1280,800,8-21-2022,10-6-27,35,depth_duration_stimuli/000447_2014-06-08_16-15-46_260595134347_rgbf000130-resize_1/000447_2014-06-08_16-15-46_260595134347_rgbf000130-resize_1-target.png,125,4.479,10,2756,124,feet,jsons/VE125_randls_36.json,575206,1221547,50,Woman
35,850602,DepthScenes,duration_manipulation_targetAtFixation,jsons/VE125_randls_36.json,http://54.235.29.9/FacialAge/BNav_EC2/DepthDuration/v2_depth_duration_MTurk/v2_DepthDuration_HTML.html#144,144,1422,730,1280,800,8-21-2022,10-6-27,36,depth_duration_stimuli/001447_2014-06-19_17-00-32_260595134347_rgbf000082-resize_5/001447_2014-06-19_17-00-32_260595134347_rgbf000082-resize_5-target.png,125,4.13775,6,7092,125,feet,jsons/VE125_randls_36.json,575206,1221547,50,Woman
36,850602,DepthScenes,duration_manipulation_targetAtFixation,jsons/VE125_randls_36.json,http://54.235.29.9/FacialAge/BNav_EC2/DepthDuration/v2_depth_duration_MTurk/v2_DepthDuration_HTML.html#144,144,1422,730,1280,800,8-21-2022,10-6-27,37,depth_duration_stimuli/001806_2014-06-26_20-50-20_260595134347_rgbf000091-resize_1/001806_2014-06-26_20-50-20_260595134347_rgbf000091-resize_1-target.png,125,2.7305,5,4049,123,feet,jsons/VE125_randls_36.json,575206,1221547,50,Woman
37,850602,DepthScenes,duration_manipulation_targetAtFixation,jsons/VE125_randls_36.json,http://54.235.29.9/FacialAge/BNav_EC2/DepthDuration/v2_depth_duration_MTurk/v2_DepthDuration_HTML.html#144,144,1422,730,1280,800,8-21-2022,10-6-27,38,depth_duration_stimuli/001617_2014-06-20_11-35-32_260595134347_rgbf000066-resize_1/001617_2014-06-20_11-35-32_260595134347_rgbf000066-resize_1-target.png,125,3.7910000000000004,10,2794,125,feet,jsons/VE125_randls_36.json,575206,1221547,50,Woman
38,850602,DepthScenes,duration_manipulation_targetAtFixation,jsons/VE125_randls_36.json,http://54.235.29.9/FacialAge/BNav_EC2/DepthDuration/v2_depth_duration_MTurk/v2_DepthDuration_HTML.html#144,144,1422,730,1280,800,8-21-2022,10-6-27,39,depth_duration_stimuli/002988_2014-06-15_12-24-20_094959634447_rgbf000150-resize_1/002988_2014-06-15_12-24-20_094959634447_rgbf000150-resize_1-target.png,125,4.7669999999999995,12,2907,124,feet,jsons/VE125_randls_36.json,575206,1221547,50,Woman
39,850602,DepthScenes,duration_manipulation_targetAtFixation,jsons/VE125_randls_36.json,http://54.235.29.9/FacialAge/BNav_EC2/DepthDuration/v2_depth_duration_MTurk/v2_DepthDuration_HTML.html#144,144,1422,730,1280,800,8-21-2022,10-6-27,40,depth_duration_stimuli/001052_2014-06-08_18-24-54_260595134347_rgbf000130-resize_1/001052_2014-06-08_18-24-54_260595134347_rgbf000130-resize_1-target.png,125,4.1045,10,2557,124,feet,jsons/VE125_randls_36.json,575206,1221547,50,Woman
40,850602,DepthScenes,duration_manipulation_targetAtFixation,jsons/VE125_randls_36.json,http://54.235.29.9/FacialAge/BNav_EC2/DepthDuration/v2_depth_duration_MTurk/v2_DepthDuration_HTML.html#144,144,1422,730,1280,800,8-21-2022,10-6-27,41,depth_duration_stimuli/001056_2014-06-08_18-46-44_260595134347_rgbf000068-resize_0/001056_2014-06-08_18-46-44_260595134347_rgbf000068-resize_0-target.png,125,2.6625,7,2819,128,feet,jsons/VE125_randls_36.json,575206,1221547,50,Woman
41,850602,DepthScenes,duration_manipulation_targetAtFixation,jsons/VE125_randls_36.json,http://54.235.29.9/FacialAge/BNav_EC2/DepthDuration/v2_depth_duration_MTurk/v2_DepthDuration_HTML.html#144,144,1422,730,1280,800,8-21-2022,10-6-27,42,depth_duration_stimuli/002199_2014-06-28_18-33-56_260595134347_rgbf000074-resize_0/002199_2014-06-28_18-33-56_260595134347_rgbf000074-resize_0-target.png,125,1.996,3,2465,121,feet,jsons/VE125_randls_36.json,575206,1221547,50,Woman
42,850602,DepthScenes,duration_manipulation_targetAtFixation,jsons/VE125_randls_36.json,http://54.235.29.9/FacialAge/BNav_EC2/DepthDuration/v2_depth_duration_MTurk/v2_DepthDuration_HTML.html#144,144,1422,730,1280,800,8-21-2022,10-6-27,43,depth_duration_stimuli/002509_2014-06-24_13-19-22_094959634447_rgbf000077-resize_0/002509_2014-06-24_13-19-22_094959634447_rgbf000077-resize_0-target.png,125,1.3065,2,3317,125,feet,jsons/VE125_randls_36.json,575206,1221547,50,Woman
43,850602,DepthScenes,duration_manipulation_targetAtFixation,jsons/VE125_randls_36.json,http://54.235.29.9/FacialAge/BNav_EC2/DepthDuration/v2_depth_duration_MTurk/v2_DepthDuration_HTML.html#144,144,1422,730,1280,800,8-21-2022,10-6-27,44,depth_duration_stimuli/003338_2014-05-20_11-01-23_094959634447_rgbf000051-resize_6/003338_2014-05-20_11-01-23_094959634447_rgbf000051-resize_6-target.png,125,1.693,4,2470,112,feet,jsons/VE125_randls_36.json,575206,1221547,50,Woman
44,850602,DepthScenes,duration_manipulation_targetAtFixation,jsons/VE125_randls_36.json,http://54.235.29.9/FacialAge/BNav_EC2/DepthDuration/v2_depth_duration_MTurk/v2_DepthDuration_HTML.html#144,144,1422,730,1280,800,8-21-2022,10-6-27,45,depth_duration_stimuli/000787_2014-06-08_22-33-53_260595134347_rgbf000175-resize_1/000787_2014-06-08_22-33-53_260595134347_rgbf000175-resize-original.jpg,125,4.784,0,2022,123,feet,jsons/VE125_randls_36.json,575206,1221547,50,Woman
45,850602,DepthScenes,duration_manipulation_targetAtFixation,jsons/VE125_randls_36.json,http://54.235.29.9/FacialAge/BNav_EC2/DepthDuration/v2_depth_duration_MTurk/v2_DepthDuration_HTML.html#144,144,1422,730,1280,800,8-21-2022,10-6-27,46,depth_duration_stimuli/001066_2014-06-08_22-03-20_260595134347_rgbf000066-resize_4/001066_2014-06-08_22-03-20_260595134347_rgbf000066-resize_4-target.png,125,4.2330000000000005,10,2584,123,feet,jsons/VE125_randls_36.json,575206,1221547,50,Woman
46,850602,DepthScenes,duration_manipulation_targetAtFixation,jsons/VE125_randls_36.json,http://54.235.29.9/FacialAge/BNav_EC2/DepthDuration/v2_depth_duration_MTurk/v2_DepthDuration_HTML.html#144,144,1422,730,1280,800,8-21-2022,10-6-27,47,depth_duration_stimuli/000742_2014-06-08_18-48-09_260595134347_rgbf000164-resize_4/000742_2014-06-08_18-48-09_260595134347_rgbf000164-resize_4-target.png,125,4.632,11,2993,123,feet,jsons/VE125_randls_36.json,575206,1221547,50,Woman
47,850602,DepthScenes,duration_manipulation_targetAtFixation,jsons/VE125_randls_36.json,http://54.235.29.9/FacialAge/BNav_EC2/DepthDuration/v2_depth_duration_MTurk/v2_DepthDuration_HTML.html#144,144,1422,730,1280,800,8-21-2022,10-6-27,48,depth_duration_stimuli/000739_2014-06-08_18-45-58_260595134347_rgbf000068-resize_1/000739_2014-06-08_18-45-58_260595134347_rgbf000068-resize_1-target.png,125,3.534,8,2497,126,feet,jsons/VE125_randls_36.json,575206,1221547,50,Woman
48,850602,DepthScenes,duration_manipulation_targetAtFixation,jsons/VE125_randls_36.json,http://54.235.29.9/FacialAge/BNav_EC2/DepthDuration/v2_depth_duration_MTurk/v2_DepthDuration_HTML.html#144,144,1422,730,1280,800,8-21-2022,10-6-27,49,depth_duration_stimuli/000734_2014-06-08_17-39-11_260595134347_rgbf000128-resize_2/000734_2014-06-08_17-39-11_260595134347_rgbf000128-resize_2-target.png,125,4.098,10,2438,124,feet,jsons/VE125_randls_36.json,575206,1221547,50,Woman
49,850602,DepthScenes,duration_manipulation_targetAtFixation,jsons/VE125_randls_36.json,http://54.235.29.9/FacialAge/BNav_EC2/DepthDuration/v2_depth_duration_MTurk/v2_DepthDuration_HTML.html#144,144,1422,730,1280,800,8-21-2022,10-6-27,50,depth_duration_stimuli/001449_2014-06-19_17-01-27_260595134347_rgbf000116-resize_2/001449_2014-06-19_17-01-27_260595134347_rgbf000116-resize_2-target.png,125,3.452,6,6070,121,feet,jsons/VE125_randls_36.json,575206,1221547,50,Woman
50,850602,DepthScenes,duration_manipulation_targetAtFixation,jsons/VE125_randls_36.json,http://54.235.29.9/FacialAge/BNav_EC2/DepthDuration/v2_depth_duration_MTurk/v2_DepthDuration_HTML.html#144,144,1422,730,1280,800,8-21-2022,10-6-27,51,depth_duration_stimuli/001450_2014-06-19_17-02-03_260595134347_rgbf000203-resize_4/001450_2014-06-19_17-02-03_260595134347_rgbf000203-resize_4-target.png,125,4.0106666666667,9,2571,129,feet,jsons/VE125_randls_36.json,575206,1221547,50,Woman
51,850602,DepthScenes,duration_manipulation_targetAtFixation,jsons/VE125_randls_36.json,http://54.235.29.9/FacialAge/BNav_EC2/DepthDuration/v2_depth_duration_MTurk/v2_DepthDuration_HTML.html#144,144,1422,730,1280,800,8-21-2022,10-6-27,52,depth_duration_stimuli/001164_2014-06-17_15-35-46_260595134347_rgbf000085-resize_3/001164_2014-06-17_15-35-46_260595134347_rgbf000085-resize_3-target.png,125,2.354,8,2397,125,feet,jsons/VE125_randls_36.json,575206,1221547,50,Woman
52,850602,DepthScenes,duration_manipulation_targetAtFixation,jsons/VE125_randls_36.json,http://54.235.29.9/FacialAge/BNav_EC2/DepthDuration/v2_depth_duration_MTurk/v2_DepthDuration_HTML.html#144,144,1422,730,1280,800,8-21-2022,10-6-27,53,depth_duration_stimuli/001136_2014-06-17_15-19-41_260595134347_rgbf000076-resize_3/001136_2014-06-17_15-19-41_260595134347_rgbf000076-resize_3-target.png,125,1.8655,5,2520,124,feet,jsons/VE125_randls_36.json,575206,1221547,50,Woman
53,850602,DepthScenes,duration_manipulation_targetAtFixation,jsons/VE125_randls_36.json,http://54.235.29.9/FacialAge/BNav_EC2/DepthDuration/v2_depth_duration_MTurk/v2_DepthDuration_HTML.html#144,144,1422,730,1280,800,8-21-2022,10-6-27,54,depth_duration_stimuli/001110_2014-06-15_17-25-28_260595134347_rgbf000150-resize_1/001110_2014-06-15_17-25-28_260595134347_rgbf000150-resize_1-target.png,125,1.7115,5,2719,123,feet,jsons/VE125_randls_36.json,575206,1221547,50,Woman
54,850602,DepthScenes,duration_manipulation_targetAtFixation,jsons/VE125_randls_36.json,http://54.235.29.9/FacialAge/BNav_EC2/DepthDuration/v2_depth_duration_MTurk/v2_DepthDuration_HTML.html#144,144,1422,730,1280,800,8-21-2022,10-6-27,55,depth_duration_stimuli/000927_2014-06-09_16-32-30_260595134347_rgbf000123-resize_3/000927_2014-06-09_16-32-30_260595134347_rgbf000123-resize_3-target.png,125,2.6785,7,2792,124,feet,jsons/VE125_randls_36.json,575206,1221547,50,Woman
55,850602,DepthScenes,duration_manipulation_targetAtFixation,jsons/VE125_randls_36.json,http://54.235.29.9/FacialAge/BNav_EC2/DepthDuration/v2_depth_duration_MTurk/v2_DepthDuration_HTML.html#144,144,1422,730,1280,800,8-21-2022,10-6-27,56,depth_duration_stimuli/001133_2014-06-17_14-49-16_260595134347_rgbf000100-resize_0/001133_2014-06-17_14-49-16_260595134347_rgbf000100-resize_0-target.png,125,4.2115,9,2506,123,feet,jsons/VE125_randls_36.json,575206,1221547,50,Woman
56,850602,DepthScenes,duration_manipulation_targetAtFixation,jsons/VE125_randls_36.json,http://54.235.29.9/FacialAge/BNav_EC2/DepthDuration/v2_depth_duration_MTurk/v2_DepthDuration_HTML.html#144,144,1422,730,1280,800,8-21-2022,10-6-27,57,depth_duration_stimuli/001132_2014-06-17_14-48-54_260595134347_rgbf000100-resize_2/001132_2014-06-17_14-48-54_260595134347_rgbf000100-resize_2-target.png,125,3.753,10,7137,124,feet,jsons/VE125_randls_36.json,575206,1221547,50,Woman
57,850602,DepthScenes,duration_manipulation_targetAtFixation,jsons/VE125_randls_36.json,http://54.235.29.9/FacialAge/BNav_EC2/DepthDuration/v2_depth_duration_MTurk/v2_DepthDuration_HTML.html#144,144,1422,730,1280,800,8-21-2022,10-6-27,58,depth_duration_stimuli/000506_2014-06-08_23-21-00_260595134347_rgbf000070-resize_7/000506_2014-06-08_23-21-00_260595134347_rgbf000070-resize_7-target.png,125,4.0585,10,3106,125,feet,jsons/VE125_randls_36.json,575206,1221547,50,Woman
58,850602,DepthScenes,duration_manipulation_targetAtFixation,jsons/VE125_randls_36.json,http://54.235.29.9/FacialAge/BNav_EC2/DepthDuration/v2_depth_duration_MTurk/v2_DepthDuration_HTML.html#144,144,1422,730,1280,800,8-21-2022,10-6-27,59,depth_duration_stimuli/003079_2014-06-15_15-18-20_094959634447_rgbf000152-resize_8/003079_2014-06-15_15-18-20_094959634447_rgbf000152-resize_8-target.png,125,2.8775,10,2508,122,feet,jsons/VE125_randls_36.json,575206,1221547,50,Woman
59,850602,DepthScenes,duration_manipulation_targetAtFixation,jsons/VE125_randls_36.json,http://54.235.29.9/FacialAge/BNav_EC2/DepthDuration/v2_depth_duration_MTurk/v2_DepthDuration_HTML.html#144,144,1422,730,1280,800,8-21-2022,10-6-27,60,depth_duration_stimuli/001011_2014-06-08_23-18-54_260595134347_rgbf000044-resize_4/001011_2014-06-08_23-18-54_260595134347_rgbf000044-resize_4-target.png,125,2.4730000000000003,8,2865,139,feet,jsons/VE125_randls_36.json,575206,1221547,50,Woman
60,850602,DepthScenes,duration_manipulation_targetAtFixation,jsons/VE125_randls_36.json,http://54.235.29.9/FacialAge/BNav_EC2/DepthDuration/v2_depth_duration_MTurk/v2_DepthDuration_HTML.html#144,144,1422,730,1280,800,8-21-2022,10-6-27,61,depth_duration_stimuli/002875_2014-06-01_15-19-00_094959634447_rgbf000151-resize_1/002875_2014-06-01_15-19-00_094959634447_rgbf000151-resize_1-target.png,125,1.9675,6,2950,112,feet,jsons/VE125_randls_36.json,575206,1221547,50,Woman
61,850602,DepthScenes,duration_manipulation_targetAtFixation,jsons/VE125_randls_36.json,http://54.235.29.9/FacialAge/BNav_EC2/DepthDuration/v2_depth_duration_MTurk/v2_DepthDuration_HTML.html#144,144,1422,730,1280,800,8-21-2022,10-6-27,62,depth_duration_stimuli/001059_2014-06-08_21-53-27_260595134347_rgbf000061-resize_4/001059_2014-06-08_21-53-27_260595134347_rgbf000061-resize_4-target.png,125,2.4185,8,2622,126,feet,jsons/VE125_randls_36.json,575206,1221547,50,Woman
62,850602,DepthScenes,duration_manipulation_targetAtFixation,jsons/VE125_randls_36.json,http://54.235.29.9/FacialAge/BNav_EC2/DepthDuration/v2_depth_duration_MTurk/v2_DepthDuration_HTML.html#144,144,1422,730,1280,800,8-21-2022,10-6-27,63,depth_duration_stimuli/001032_2014-06-08_13-23-17_260595134347_rgbf000021-resize_3/001032_2014-06-08_13-23-17_260595134347_rgbf000021-resize_3-target.png,125,3.2725,5,2356,124,feet,jsons/VE125_randls_36.json,575206,1221547,50,Woman
63,850602,DepthScenes,duration_manipulation_targetAtFixation,jsons/VE125_randls_36.json,http://54.235.29.9/FacialAge/BNav_EC2/DepthDuration/v2_depth_duration_MTurk/v2_DepthDuration_HTML.html#144,144,1422,730,1280,800,8-21-2022,10-6-27,64,depth_duration_stimuli/001417_2014-06-19_16-25-36_260595134347_rgbf000115-resize_5/001417_2014-06-19_16-25-36_260595134347_rgbf000115-resize_5-target.png,125,4.6255,10,2636,124,feet,jsons/VE125_randls_36.json,575206,1221547,50,Woman
64,850602,DepthScenes,duration_manipulation_targetAtFixation,jsons/VE125_randls_36.json,http://54.235.29.9/FacialAge/BNav_EC2/DepthDuration/v2_depth_duration_MTurk/v2_DepthDuration_HTML.html#144,144,1422,730,1280,800,8-21-2022,10-6-27,65,depth_duration_stimuli/003081_2014-06-15_15-19-16_094959634447_rgbf000150-resize_1/003081_2014-06-15_15-19-16_094959634447_rgbf000150-resize_1-target.png,125,3.9125,11,6778,124,feet,jsons/VE125_randls_36.json,575206,1221547,50,Woman
65,850602,DepthScenes,duration_manipulation_targetAtFixation,jsons/VE125_randls_36.json,http://54.235.29.9/FacialAge/BNav_EC2/DepthDuration/v2_depth_duration_MTurk/v2_DepthDuration_HTML.html#144,144,1422,730,1280,800,8-21-2022,10-6-27,66,depth_duration_stimuli/001222_2014-06-17_16-24-06_260595134347_rgbf000073-resize_0/001222_2014-06-17_16-24-06_260595134347_rgbf000073-resize-original.jpg,125,1.4385,0,2033,123,feet,jsons/VE125_randls_36.json,575206,1221547,50,Woman
66,850602,DepthScenes,duration_manipulation_targetAtFixation,jsons/VE125_randls_36.json,http://54.235.29.9/FacialAge/BNav_EC2/DepthDuration/v2_depth_duration_MTurk/v2_DepthDuration_HTML.html#144,144,1422,730,1280,800,8-21-2022,10-6-27,67,depth_duration_stimuli/002118_2014-06-25_20-32-08_260595134347_rgbf000078-resize_1/002118_2014-06-25_20-32-08_260595134347_rgbf000078-resize_1-target.png,125,2.6460000000000004,7,3111,123,feet,jsons/VE125_randls_36.json,575206,1221547,50,Woman
67,850602,DepthScenes,duration_manipulation_targetAtFixation,jsons/VE125_randls_36.json,http://54.235.29.9/FacialAge/BNav_EC2/DepthDuration/v2_depth_duration_MTurk/v2_DepthDuration_HTML.html#144,144,1422,730,1280,800,8-21-2022,10-6-27,68,depth_duration_stimuli/001516_2014-06-20_16-25-09_260595134347_rgbf000076-resize_2/001516_2014-06-20_16-25-09_260595134347_rgbf000076-resize_2-target.png,125,1.7445,5,3379,139,feet,jsons/VE125_randls_36.json,575206,1221547,50,Woman
68,850602,DepthScenes,duration_manipulation_targetAtFixation,jsons/VE125_randls_36.json,http://54.235.29.9/FacialAge/BNav_EC2/DepthDuration/v2_depth_duration_MTurk/v2_DepthDuration_HTML.html#144,144,1422,730,1280,800,8-21-2022,10-6-27,69,depth_duration_stimuli/002725_2014-06-22_11-47-51_094959634447_rgbf000070-resize_1/002725_2014-06-22_11-47-51_094959634447_rgbf000070-resize_1-target.png,125,2.195,7,4497,126,feet,jsons/VE125_randls_36.json,575206,1221547,50,Woman
69,850602,DepthScenes,duration_manipulation_targetAtFixation,jsons/VE125_randls_36.json,http://54.235.29.9/FacialAge/BNav_EC2/DepthDuration/v2_depth_duration_MTurk/v2_DepthDuration_HTML.html#144,144,1422,730,1280,800,8-21-2022,10-6-27,70,depth_duration_stimuli/002344_2014-06-28_20-06-29_260595134347_rgbf000030-resize_1/002344_2014-06-28_20-06-29_260595134347_rgbf000030-resize_1-target.png,125,1.5795,2,2986,126,feet,jsons/VE125_randls_36.json,575206,1221547,50,Woman
70,850602,DepthScenes,duration_manipulation_targetAtFixation,jsons/VE125_randls_36.json,http://54.235.29.9/FacialAge/BNav_EC2/DepthDuration/v2_depth_duration_MTurk/v2_DepthDuration_HTML.html#144,144,1422,730,1280,800,8-21-2022,10-6-27,71,depth_duration_stimuli/002279_2014-06-28_18-55-32_260595134347_rgbf000040-resize_5/002279_2014-06-28_18-55-32_260595134347_rgbf000040-resize_5-target.png,125,1.5043333333333,4,2316,138,feet,jsons/VE125_randls_36.json,575206,1221547,50,Woman
71,850602,DepthScenes,duration_manipulation_targetAtFixation,jsons/VE125_randls_36.json,http://54.235.29.9/FacialAge/BNav_EC2/DepthDuration/v2_depth_duration_MTurk/v2_DepthDuration_HTML.html#144,144,1422,730,1280,800,8-21-2022,10-6-27,72,depth_duration_stimuli/000635_2014-06-08_16-38-42_260595134347_rgbf000106-resize_1/000635_2014-06-08_16-38-42_260595134347_rgbf000106-resize_1-target.png,125,2.074,8,2327,126,feet,jsons/VE125_randls_36.json,575206,1221547,50,Woman
72,850602,DepthScenes,duration_manipulation_targetAtFixation,jsons/VE125_randls_36.json,http://54.235.29.9/FacialAge/BNav_EC2/DepthDuration/v2_depth_duration_MTurk/v2_DepthDuration_HTML.html#144,144,1422,730,1280,800,8-21-2022,10-6-27,73,depth_duration_stimuli/000758_2014-06-08_22-05-08_260595134347_rgbf000085-resize_0/000758_2014-06-08_22-05-08_260595134347_rgbf000085-resize_0-target.png,125,3.3810000000000002,9,7490,123,feet,jsons/VE125_randls_36.json,575206,1221547,50,Woman
73,850602,DepthScenes,duration_manipulation_targetAtFixation,jsons/VE125_randls_36.json,http://54.235.29.9/FacialAge/BNav_EC2/DepthDuration/v2_depth_duration_MTurk/v2_DepthDuration_HTML.html#144,144,1422,730,1280,800,8-21-2022,10-6-27,74,depth_duration_stimuli/000854_2014-06-09_19-43-13_260595134347_rgbf000066-resize_0/000854_2014-06-09_19-43-13_260595134347_rgbf000066-resize_0-target.png,125,3.068,5,2504,125,feet,jsons/VE125_randls_36.json,575206,1221547,50,Woman
74,850602,DepthScenes,duration_manipulation_targetAtFixation,jsons/VE125_randls_36.json,http://54.235.29.9/FacialAge/BNav_EC2/DepthDuration/v2_depth_duration_MTurk/v2_DepthDuration_HTML.html#144,144,1422,730,1280,800,8-21-2022,10-6-27,75,depth_duration_stimuli/001810_2014-06-26_20-51-35_260595134347_rgbf000040-resize_3/001810_2014-06-26_20-51-35_260595134347_rgbf000040-resize_3-target.png,125,2.2525,5,3048,124,feet,jsons/VE125_randls_36.json,575206,1221547,50,Woman
75,850602,DepthScenes,duration_manipulation_targetAtFixation,jsons/VE125_randls_36.json,http://54.235.29.9/FacialAge/BNav_EC2/DepthDuration/v2_depth_duration_MTurk/v2_DepthDuration_HTML.html#144,144,1422,730,1280,800,8-21-2022,10-6-27,76,depth_duration_stimuli/003010_2014-06-15_12-54-35_094959634447_rgbf000112-resize_0/003010_2014-06-15_12-54-35_094959634447_rgbf000112-resize_0-target.png,125,3.1185,7,6034,124,feet,jsons/VE125_randls_36.json,575206,1221547,50,Woman
76,850602,DepthScenes,duration_manipulation_targetAtFixation,jsons/VE125_randls_36.json,http://54.235.29.9/FacialAge/BNav_EC2/DepthDuration/v2_depth_duration_MTurk/v2_DepthDuration_HTML.html#144,144,1422,730,1280,800,8-21-2022,10-6-27,77,depth_duration_stimuli/000906_2014-06-08_13-35-43_260595134347_rgbf000155-resize_1/000906_2014-06-08_13-35-43_260595134347_rgbf000155-resize_1-target.png,125,2.8489999999999998,8,2582,125,feet,jsons/VE125_randls_36.json,575206,1221547,50,Woman
77,850602,DepthScenes,duration_manipulation_targetAtFixation,jsons/VE125_randls_36.json,http://54.235.29.9/FacialAge/BNav_EC2/DepthDuration/v2_depth_duration_MTurk/v2_DepthDuration_HTML.html#144,144,1422,730,1280,800,8-21-2022,10-6-27,78,depth_duration_stimuli/002805_2014-06-22_19-54-03_094959634447_rgbf000079-resize_1/002805_2014-06-22_19-54-03_094959634447_rgbf000079-resize_1-target.png,125,3.1439999999999997,10,3696,122,feet,jsons/VE125_randls_36.json,575206,1221547,50,Woman
78,850602,DepthScenes,duration_manipulation_targetAtFixation,jsons/VE125_randls_36.json,http://54.235.29.9/FacialAge/BNav_EC2/DepthDuration/v2_depth_duration_MTurk/v2_DepthDuration_HTML.html#144,144,1422,730,1280,800,8-21-2022,10-6-27,79,depth_duration_stimuli/001092_2014-06-15_17-34-58_260595134347_rgbf000171-resize_3/001092_2014-06-15_17-34-58_260595134347_rgbf000171-resize_3-target.png,125,2.6935,5,3531,125,feet,jsons/VE125_randls_36.json,575206,1221547,50,Woman
79,850602,DepthScenes,duration_manipulation_targetAtFixation,jsons/VE125_randls_36.json,http://54.235.29.9/FacialAge/BNav_EC2/DepthDuration/v2_depth_duration_MTurk/v2_DepthDuration_HTML.html#144,144,1422,730,1280,800,8-21-2022,10-6-27,80,depth_duration_stimuli/002545_2014-06-24_13-38-53_094959634447_rgbf000080-resize_4/002545_2014-06-24_13-38-53_094959634447_rgbf000080-resize_4-target.png,125,1.9205,8,2455,122,feet,jsons/VE125_randls_36.json,575206,1221547,50,Woman
80,850602,DepthScenes,duration_manipulation_targetAtFixation,jsons/VE125_randls_36.json,http://54.235.29.9/FacialAge/BNav_EC2/DepthDuration/v2_depth_duration_MTurk/v2_DepthDuration_HTML.html#144,144,1422,730,1280,800,8-21-2022,10-6-27,81,depth_duration_stimuli/002763_2014-06-22_19-13-10_094959634447_rgbf000075-resize_4/002763_2014-06-22_19-13-10_094959634447_rgbf000075-resize_4-target.png,125,1.68375,5,2489,115,feet,jsons/VE125_randls_36.json,575206,1221547,50,Woman
81,850602,DepthScenes,duration_manipulation_targetAtFixation,jsons/VE125_randls_36.json,http://54.235.29.9/FacialAge/BNav_EC2/DepthDuration/v2_depth_duration_MTurk/v2_DepthDuration_HTML.html#144,144,1422,730,1280,800,8-21-2022,10-6-27,82,depth_duration_stimuli/002209_2014-06-28_18-36-10_260595134347_rgbf000051-resize_1/002209_2014-06-28_18-36-10_260595134347_rgbf000051-resize_1-target.png,125,2.057,4,2339,122,feet,jsons/VE125_randls_36.json,575206,1221547,50,Woman
82,850602,DepthScenes,duration_manipulation_targetAtFixation,jsons/VE125_randls_36.json,http://54.235.29.9/FacialAge/BNav_EC2/DepthDuration/v2_depth_duration_MTurk/v2_DepthDuration_HTML.html#144,144,1422,730,1280,800,8-21-2022,10-6-27,83,depth_duration_stimuli/002989_2014-06-15_12-25-03_094959634447_rgbf000150-resize_3/002989_2014-06-15_12-25-03_094959634447_rgbf000150-resize_3-target.png,125,4.1975,11,2444,124,feet,jsons/VE125_randls_36.json,575206,1221547,50,Woman
83,850602,DepthScenes,duration_manipulation_targetAtFixation,jsons/VE125_randls_36.json,http://54.235.29.9/FacialAge/BNav_EC2/DepthDuration/v2_depth_duration_MTurk/v2_DepthDuration_HTML.html#144,144,1422,730,1280,800,8-21-2022,10-6-27,84,depth_duration_stimuli/000866_2014-06-09_20-45-42_260595134347_rgbf000139-resize_1/000866_2014-06-09_20-45-42_260595134347_rgbf000139-resize_1-target.png,125,3.2155,7,2609,126,feet,jsons/VE125_randls_36.json,575206,1221547,50,Woman
84,850602,DepthScenes,duration_manipulation_targetAtFixation,jsons/VE125_randls_36.json,http://54.235.29.9/FacialAge/BNav_EC2/DepthDuration/v2_depth_duration_MTurk/v2_DepthDuration_HTML.html#144,144,1422,730,1280,800,8-21-2022,10-6-27,85,depth_duration_stimuli/002784_2014-06-22_19-26-30_094959634447_rgbf000083-resize_3/002784_2014-06-22_19-26-30_094959634447_rgbf000083-resize_3-target.png,125,1.8046666666667,5,2557,124,feet,jsons/VE125_randls_36.json,575206,1221547,50,Woman
85,850602,DepthScenes,duration_manipulation_targetAtFixation,jsons/VE125_randls_36.json,http://54.235.29.9/FacialAge/BNav_EC2/DepthDuration/v2_depth_duration_MTurk/v2_DepthDuration_HTML.html#144,144,1422,730,1280,800,8-21-2022,10-6-27,86,depth_duration_stimuli/001100_2014-06-15_17-46-26_260595134347_rgbf000225-resize_2/001100_2014-06-15_17-46-26_260595134347_rgbf000225-resize_2-target.png,125,2.24,3,3983,124,feet,jsons/VE125_randls_36.json,575206,1221547,50,Woman
86,850602,DepthScenes,duration_manipulation_targetAtFixation,jsons/VE125_randls_36.json,http://54.235.29.9/FacialAge/BNav_EC2/DepthDuration/v2_depth_duration_MTurk/v2_DepthDuration_HTML.html#144,144,1422,730,1280,800,8-21-2022,10-6-27,87,depth_duration_stimuli/000414_2014-06-04_19-49-13_260595134347_rgbf000044-resize_0/000414_2014-06-04_19-49-13_260595134347_rgbf000044-resize_0-target.png,125,4.329,12,3865,126,feet,jsons/VE125_randls_36.json,575206,1221547,50,Woman
87,850602,DepthScenes,duration_manipulation_targetAtFixation,jsons/VE125_randls_36.json,http://54.235.29.9/FacialAge/BNav_EC2/DepthDuration/v2_depth_duration_MTurk/v2_DepthDuration_HTML.html#144,144,1422,730,1280,800,8-21-2022,10-6-27,88,depth_duration_stimuli/003129_2014-05-12_10-48-10_094959634447_rgbf000100-resize_0/003129_2014-05-12_10-48-10_094959634447_rgbf000100-resize_0-target.png,125,4.9305,9,2857,124,feet,jsons/VE125_randls_36.json,575206,1221547,50,Woman
88,850602,DepthScenes,duration_manipulation_targetAtFixation,jsons/VE125_randls_36.json,http://54.235.29.9/FacialAge/BNav_EC2/DepthDuration/v2_depth_duration_MTurk/v2_DepthDuration_HTML.html#144,144,1422,730,1280,800,8-21-2022,10-6-27,89,depth_duration_stimuli/000469_2014-06-09_19-42-10_260595134347_rgbf000081-resize_1/000469_2014-06-09_19-42-10_260595134347_rgbf000081-resize_1-target.png,125,1.652,4,2312,125,feet,jsons/VE125_randls_36.json,575206,1221547,50,Woman
89,850602,DepthScenes,duration_manipulation_targetAtFixation,jsons/VE125_randls_36.json,http://54.235.29.9/FacialAge/BNav_EC2/DepthDuration/v2_depth_duration_MTurk/v2_DepthDuration_HTML.html#144,144,1422,730,1280,800,8-21-2022,10-6-27,90,depth_duration_stimuli/000483_2014-06-09_20-41-45_260595134347_rgbf000116-resize_4/000483_2014-06-09_20-41-45_260595134347_rgbf000116-resize_4-target.png,125,1.337,4,2680,122,feet,jsons/VE125_randls_36.json,575206,1221547,50,Woman
90,850602,DepthScenes,duration_manipulation_targetAtFixation,jsons/VE125_randls_36.json,http://54.235.29.9/FacialAge/BNav_EC2/DepthDuration/v2_depth_duration_MTurk/v2_DepthDuration_HTML.html#144,144,1422,730,1280,800,8-21-2022,10-6-27,91,depth_duration_stimuli/000878_2014-06-08_22-52-45_260595134347_rgbf000045-resize_2/000878_2014-06-08_22-52-45_260595134347_rgbf000045-resize_2-target.png,125,2.092,8,2774,124,feet,jsons/VE125_randls_36.json,575206,1221547,50,Woman
91,850602,DepthScenes,duration_manipulation_targetAtFixation,jsons/VE125_randls_36.json,http://54.235.29.9/FacialAge/BNav_EC2/DepthDuration/v2_depth_duration_MTurk/v2_DepthDuration_HTML.html#144,144,1422,730,1280,800,8-21-2022,10-6-27,92,depth_duration_stimuli/002953_2014-06-08_17-32-18_094959634447_rgbf000059-resize_5/002953_2014-06-08_17-32-18_094959634447_rgbf000059-resize_5-target.png,125,1.551,3,2472,124,feet,jsons/VE125_randls_36.json,575206,1221547,50,Woman
92,850602,DepthScenes,duration_manipulation_targetAtFixation,jsons/VE125_randls_36.json,http://54.235.29.9/FacialAge/BNav_EC2/DepthDuration/v2_depth_duration_MTurk/v2_DepthDuration_HTML.html#144,144,1422,730,1280,800,8-21-2022,10-6-27,93,depth_duration_stimuli/000009_2014-05-26_14-32-05_260595134347_rgbf000034-resize_3/000009_2014-05-26_14-32-05_260595134347_rgbf000034-resize_3-target.png,125,3.8715,10,5653,124,feet,jsons/VE125_randls_36.json,575206,1221547,50,Woman
93,850602,DepthScenes,duration_manipulation_targetAtFixation,jsons/VE125_randls_36.json,http://54.235.29.9/FacialAge/BNav_EC2/DepthDuration/v2_depth_duration_MTurk/v2_DepthDuration_HTML.html#144,144,1422,730,1280,800,8-21-2022,10-6-27,94,depth_duration_stimuli/001828_2014-06-26_21-40-03_260595134347_rgbf000024-resize_0/001828_2014-06-26_21-40-03_260595134347_rgbf000024-resize_0-target.png,125,4.8260000000000005,9,2479,123,feet,jsons/VE125_randls_36.json,575206,1221547,50,Woman
94,850602,DepthScenes,duration_manipulation_targetAtFixation,jsons/VE125_randls_36.json,http://54.235.29.9/FacialAge/BNav_EC2/DepthDuration/v2_depth_duration_MTurk/v2_DepthDuration_HTML.html#144,144,1422,730,1280,800,8-21-2022,10-6-27,95,depth_duration_stimuli/002213_2014-06-28_18-37-58_260595134347_rgbf000055-resize_1/002213_2014-06-28_18-37-58_260595134347_rgbf000055-resize_1-target.png,125,3.62,10,2764,124,feet,jsons/VE125_randls_36.json,575206,1221547,50,Woman
95,850602,DepthScenes,duration_manipulation_targetAtFixation,jsons/VE125_randls_36.json,http://54.235.29.9/FacialAge/BNav_EC2/DepthDuration/v2_depth_duration_MTurk/v2_DepthDuration_HTML.html#144,144,1422,730,1280,800,8-21-2022,10-6-27,96,depth_duration_stimuli/000691_2014-06-08_13-08-50_260595134347_rgbf000132-resize_3/000691_2014-06-08_13-08-50_260595134347_rgbf000132-resize_3-target.png,125,4.1530000000000005,8,2359,124,feet,jsons/VE125_randls_36.json,575206,1221547,50,Woman
96,850602,DepthScenes,duration_manipulation_targetAtFixation,jsons/VE125_randls_36.json,http://54.235.29.9/FacialAge/BNav_EC2/DepthDuration/v2_depth_duration_MTurk/v2_DepthDuration_HTML.html#144,144,1422,730,1280,800,8-21-2022,10-6-27,97,depth_duration_stimuli/003070_2014-06-15_14-58-27_094959634447_rgbf000150-resize_3/003070_2014-06-15_14-58-27_094959634447_rgbf000150-resize_3-target.png,125,2.9415,7,2714,124,feet,jsons/VE125_randls_36.json,575206,1221547,50,Woman
97,850602,DepthScenes,duration_manipulation_targetAtFixation,jsons/VE125_randls_36.json,http://54.235.29.9/FacialAge/BNav_EC2/DepthDuration/v2_depth_duration_MTurk/v2_DepthDuration_HTML.html#144,144,1422,730,1280,800,8-21-2022,10-6-27,98,depth_duration_stimuli/000943_2014-06-09_19-31-07_260595134347_rgbf000128-resize_1/000943_2014-06-09_19-31-07_260595134347_rgbf000128-resize_1-target.png,125,1.9765,4,3281,126,feet,jsons/VE125_randls_36.json,575206,1221547,50,Woman
98,850602,DepthScenes,duration_manipulation_targetAtFixation,jsons/VE125_randls_36.json,http://54.235.29.9/FacialAge/BNav_EC2/DepthDuration/v2_depth_duration_MTurk/v2_DepthDuration_HTML.html#144,144,1422,730,1280,800,8-21-2022,10-6-27,99,depth_duration_stimuli/001540_2014-06-20_17-01-05_260595134347_rgbf000086-resize_2/001540_2014-06-20_17-01-05_260595134347_rgbf000086-resize-original.jpg,125,1.459,0,2082,151,feet,jsons/VE125_randls_36.json,575206,1221547,50,Woman
99,850602,DepthScenes,duration_manipulation_targetAtFixation,jsons/VE125_randls_36.json,http://54.235.29.9/FacialAge/BNav_EC2/DepthDuration/v2_depth_duration_MTurk/v2_DepthDuration_HTML.html#144,144,1422,730,1280,800,8-21-2022,10-6-27,100,depth_duration_stimuli/002905_2014-06-03_18-04-43_094959634447_rgbf000151-resize_2/002905_2014-06-03_18-04-43_094959634447_rgbf000151-resize_2-target.png,125,2.0295,5,3745,124,feet,jsons/VE125_randls_36.json,575206,1221547,50,Woman
100,850602,DepthScenes,duration_manipulation_targetAtFixation,jsons/VE125_randls_36.json,http://54.235.29.9/FacialAge/BNav_EC2/DepthDuration/v2_depth_duration_MTurk/v2_DepthDuration_HTML.html#144,144,1422,730,1280,800,8-21-2022,10-6-27,101,depth_duration_stimuli/003423_2014-05-21_10-23-26_094959634447_rgbf002665-resize_2/003423_2014-05-21_10-23-26_094959634447_rgbf002665-resize_2-target.png,125,3.2575,9,2621,123,feet,jsons/VE125_randls_36.json,575206,1221547,50,Woman
101,850602,DepthScenes,duration_manipulation_targetAtFixation,jsons/VE125_randls_36.json,http://54.235.29.9/FacialAge/BNav_EC2/DepthDuration/v2_depth_duration_MTurk/v2_DepthDuration_HTML.html#144,144,1422,730,1280,800,8-21-2022,10-6-27,102,depth_duration_stimuli/001808_2014-06-26_20-50-58_260595134347_rgbf000029-resize_1/001808_2014-06-26_20-50-58_260595134347_rgbf000029-resize_1-target.png,125,4.249,10,3838,125,feet,jsons/VE125_randls_36.json,575206,1221547,50,Woman
102,850602,DepthScenes,duration_manipulation_targetAtFixation,jsons/VE125_randls_36.json,http://54.235.29.9/FacialAge/BNav_EC2/DepthDuration/v2_depth_duration_MTurk/v2_DepthDuration_HTML.html#144,144,1422,730,1280,800,8-21-2022,10-6-27,103,depth_duration_stimuli/001815_2014-06-26_20-52-55_260595134347_rgbf000020-resize_0/001815_2014-06-26_20-52-55_260595134347_rgbf000020-resize_0-target.png,125,3.3865,9,2869,126,feet,jsons/VE125_randls_36.json,575206,1221547,50,Woman
103,850602,DepthScenes,duration_manipulation_targetAtFixation,jsons/VE125_randls_36.json,http://54.235.29.9/FacialAge/BNav_EC2/DepthDuration/v2_depth_duration_MTurk/v2_DepthDuration_HTML.html#144,144,1422,730,1280,800,8-21-2022,10-6-27,104,depth_duration_stimuli/000642_2014-06-08_16-59-25_260595134347_rgbf000098-resize_2/000642_2014-06-08_16-59-25_260595134347_rgbf000098-resize_2-target.png,125,2.8815,7,2535,126,feet,jsons/VE125_randls_36.json,575206,1221547,50,Woman
104,850602,DepthScenes,duration_manipulation_targetAtFixation,jsons/VE125_randls_36.json,http://54.235.29.9/FacialAge/BNav_EC2/DepthDuration/v2_depth_duration_MTurk/v2_DepthDuration_HTML.html#144,144,1422,730,1280,800,8-21-2022,10-6-27,105,depth_duration_stimuli/002425_2014-06-28_20-27-29_260595134347_rgbf000031-resize_8/002425_2014-06-28_20-27-29_260595134347_rgbf000031-resize_8-target.png,125,3.8960000000000004,9,3420,122,feet,jsons/VE125_randls_36.json,575206,1221547,50,Woman
105,850602,DepthScenes,duration_manipulation_targetAtFixation,jsons/VE125_randls_36.json,http://54.235.29.9/FacialAge/BNav_EC2/DepthDuration/v2_depth_duration_MTurk/v2_DepthDuration_HTML.html#144,144,1422,730,1280,800,8-21-2022,10-6-27,106,depth_duration_stimuli/002570_2014-06-24_13-59-54_094959634447_rgbf000059-resize_0/002570_2014-06-24_13-59-54_094959634447_rgbf000059-resize_0-target.png,125,4.037,6,2596,126,feet,jsons/VE125_randls_36.json,575206,1221547,50,Woman
106,850602,DepthScenes,duration_manipulation_targetAtFixation,jsons/VE125_randls_36.json,http://54.235.29.9/FacialAge/BNav_EC2/DepthDuration/v2_depth_duration_MTurk/v2_DepthDuration_HTML.html#144,144,1422,730,1280,800,8-21-2022,10-6-27,107,depth_duration_stimuli/002467_2014-06-28_20-38-07_260595134347_rgbf000026-resize_2/002467_2014-06-28_20-38-07_260595134347_rgbf000026-resize_2-target.png,125,4.742,12,2884,124,feet,jsons/VE125_randls_36.json,575206,1221547,50,Woman
107,850602,DepthScenes,duration_manipulation_targetAtFixation,jsons/VE125_randls_36.json,http://54.235.29.9/FacialAge/BNav_EC2/DepthDuration/v2_depth_duration_MTurk/v2_DepthDuration_HTML.html#144,144,1422,730,1280,800,8-21-2022,10-6-27,108,depth_duration_stimuli/001167_2014-06-17_15-38-07_260595134347_rgbf000108-resize_0/001167_2014-06-17_15-38-07_260595134347_rgbf000108-resize_0-target.png,125,1.8505,4,2319,126,feet,jsons/VE125_randls_36.json,575206,1221547,50,Woman
108,850602,DepthScenes,duration_manipulation_targetAtFixation,jsons/VE125_randls_36.json,http://54.235.29.9/FacialAge/BNav_EC2/DepthDuration/v2_depth_duration_MTurk/v2_DepthDuration_HTML.html#144,144,1422,730,1280,800,8-21-2022,10-6-27,109,depth_duration_stimuli/003587_2014-05-23_16-48-02_094959634447_rgbf002384-resize_2/003587_2014-05-23_16-48-02_094959634447_rgbf002384-resize_2-target.png,125,1.357,2,2480,125,feet,jsons/VE125_randls_36.json,575206,1221547,50,Woman
109,850602,DepthScenes,duration_manipulation_targetAtFixation,jsons/VE125_randls_36.json,http://54.235.29.9/FacialAge/BNav_EC2/DepthDuration/v2_depth_duration_MTurk/v2_DepthDuration_HTML.html#144,144,1422,730,1280,800,8-21-2022,10-6-27,110,depth_duration_stimuli/002445_2014-06-28_20-32-16_260595134347_rgbf000029-resize_4/002445_2014-06-28_20-32-16_260595134347_rgbf000029-resize_4-target.png,125,2.5315,5,3230,126,feet,jsons/VE125_randls_36.json,575206,1221547,50,Woman
110,850602,DepthScenes,duration_manipulation_targetAtFixation,jsons/VE125_randls_36.json,http://54.235.29.9/FacialAge/BNav_EC2/DepthDuration/v2_depth_duration_MTurk/v2_DepthDuration_HTML.html#144,144,1422,730,1280,800,8-21-2022,10-6-27,111,depth_duration_stimuli/000780_2014-06-08_22-28-29_260595134347_rgbf000126-resize_1/000780_2014-06-08_22-28-29_260595134347_rgbf000126-resize_1-target.png,125,3.3825,9,2680,124,feet,jsons/VE125_randls_36.json,575206,1221547,50,Woman
111,850602,DepthScenes,duration_manipulation_targetAtFixation,jsons/VE125_randls_36.json,http://54.235.29.9/FacialAge/BNav_EC2/DepthDuration/v2_depth_duration_MTurk/v2_DepthDuration_HTML.html#144,144,1422,730,1280,800,8-21-2022,10-6-27,112,depth_duration_stimuli/000436_2014-06-09_22-25-11_260595134347_rgbf000137-resize_1/000436_2014-06-09_22-25-11_260595134347_rgbf000137-resize_1-target.png,125,4.0705,12,2814,123,feet,jsons/VE125_randls_36.json,575206,1221547,50,Woman
112,850602,DepthScenes,duration_manipulation_targetAtFixation,jsons/VE125_randls_36.json,http://54.235.29.9/FacialAge/BNav_EC2/DepthDuration/v2_depth_duration_MTurk/v2_DepthDuration_HTML.html#144,144,1422,730,1280,800,8-21-2022,10-6-27,113,depth_duration_stimuli/002444_2014-06-28_20-32-08_260595134347_rgbf000027-resize_0/002444_2014-06-28_20-32-08_260595134347_rgbf000027-resize_0-target.png,125,4.388999999999999,10,2683,123,feet,jsons/VE125_randls_36.json,575206,1221547,50,Woman
113,850602,DepthScenes,duration_manipulation_targetAtFixation,jsons/VE125_randls_36.json,http://54.235.29.9/FacialAge/BNav_EC2/DepthDuration/v2_depth_duration_MTurk/v2_DepthDuration_HTML.html#144,144,1422,730,1280,800,8-21-2022,10-6-27,114,depth_duration_stimuli/002057_2014-06-24_21-00-13_260595134347_rgbf000120-resize_1/002057_2014-06-24_21-00-13_260595134347_rgbf000120-resize_1-target.png,125,2.967,9,2758,124,feet,jsons/VE125_randls_36.json,575206,1221547,50,Woman
114,850602,DepthScenes,duration_manipulation_targetAtFixation,jsons/VE125_randls_36.json,http://54.235.29.9/FacialAge/BNav_EC2/DepthDuration/v2_depth_duration_MTurk/v2_DepthDuration_HTML.html#144,144,1422,730,1280,800,8-21-2022,10-6-27,115,depth_duration_stimuli/000709_2014-06-08_13-51-55_260595134347_rgbf000068-resize_3/000709_2014-06-08_13-51-55_260595134347_rgbf000068-resize_3-target.png,125,1.8030000000000002,5,3095,125,feet,jsons/VE125_randls_36.json,575206,1221547,50,Woman
115,850602,DepthScenes,duration_manipulation_targetAtFixation,jsons/VE125_randls_36.json,http://54.235.29.9/FacialAge/BNav_EC2/DepthDuration/v2_depth_duration_MTurk/v2_DepthDuration_HTML.html#144,144,1422,730,1280,800,8-21-2022,10-6-27,116,depth_duration_stimuli/001170_2014-06-17_15-43-44_260595134347_rgbf000096-resize_6/001170_2014-06-17_15-43-44_260595134347_rgbf000096-resize-original.jpg,125,1.1909999999999998,0,2312,122,feet,jsons/VE125_randls_36.json,575206,1221547,50,Woman
116,850602,DepthScenes,duration_manipulation_targetAtFixation,jsons/VE125_randls_36.json,http://54.235.29.9/FacialAge/BNav_EC2/DepthDuration/v2_depth_duration_MTurk/v2_DepthDuration_HTML.html#144,144,1422,730,1280,800,8-21-2022,10-6-27,117,depth_duration_stimuli/000486_2014-06-09_20-47-20_260595134347_rgbf000143-resize_2/000486_2014-06-09_20-47-20_260595134347_rgbf000143-resize_2-target.png,125,4.8325,7,2479,123,feet,jsons/VE125_randls_36.json,575206,1221547,50,Woman
117,850602,DepthScenes,duration_manipulation_targetAtFixation,jsons/VE125_randls_36.json,http://54.235.29.9/FacialAge/BNav_EC2/DepthDuration/v2_depth_duration_MTurk/v2_DepthDuration_HTML.html#144,144,1422,730,1280,800,8-21-2022,10-6-27,118,depth_duration_stimuli/003083_2014-06-15_15-21-03_094959634447_rgbf000063-resize_1/003083_2014-06-15_15-21-03_094959634447_rgbf000063-resize_1-target.png,125,4.1405,10,2502,123,feet,jsons/VE125_randls_36.json,575206,1221547,50,Woman
118,850602,DepthScenes,duration_manipulation_targetAtFixation,jsons/VE125_randls_36.json,http://54.235.29.9/FacialAge/BNav_EC2/DepthDuration/v2_depth_duration_MTurk/v2_DepthDuration_HTML.html#144,144,1422,730,1280,800,8-21-2022,10-6-27,119,depth_duration_stimuli/000368_2014-06-09_15-53-01_260595134347_rgbf000155-resize_2/000368_2014-06-09_15-53-01_260595134347_rgbf000155-resize_2-target.png,125,2.4859999999999998,4,2152,124,feet,jsons/VE125_randls_36.json,575206,1221547,50,Woman
119,850602,DepthScenes,duration_manipulation_targetAtFixation,jsons/VE125_randls_36.json,http://54.235.29.9/FacialAge/BNav_EC2/DepthDuration/v2_depth_duration_MTurk/v2_DepthDuration_HTML.html#144,144,1422,730,1280,800,8-21-2022,10-6-27,120,depth_duration_stimuli/002678_2014-06-13_16-15-32_094959634447_rgbf000151-resize_6/002678_2014-06-13_16-15-32_094959634447_rgbf000151-resize_6-target.png,125,2.1830000000000003,8,2382,124,feet,jsons/VE125_randls_36.json,575206,1221547,50,Woman
120,850602,DepthScenes,duration_manipulation_targetAtFixation,jsons/VE125_randls_36.json,http://54.235.29.9/FacialAge/BNav_EC2/DepthDuration/v2_depth_duration_MTurk/v2_DepthDuration_HTML.html#144,144,1422,730,1280,800,8-21-2022,10-6-27,121,depth_duration_stimuli/003621_2014-05-23_18-06-08_094959634447_rgbf000101-resize_1/003621_2014-05-23_18-06-08_094959634447_rgbf000101-resize_1-target.png,125,3.9835,9,2597,125,feet,jsons/VE125_randls_36.json,575206,1221547,50,Woman
121,850602,DepthScenes,duration_manipulation_targetAtFixation,jsons/VE125_randls_36.json,http://54.235.29.9/FacialAge/BNav_EC2/DepthDuration/v2_depth_duration_MTurk/v2_DepthDuration_HTML.html#144,144,1422,730,1280,800,8-21-2022,10-6-27,122,depth_duration_stimuli/001584_2014-06-20_11-07-43_260595134347_rgbf000002-resize_1/001584_2014-06-20_11-07-43_260595134347_rgbf000002-resize_1-target.png,125,3.53,6,3026,137,feet,jsons/VE125_randls_36.json,575206,1221547,50,Woman
122,850602,DepthScenes,duration_manipulation_targetAtFixation,jsons/VE125_randls_36.json,http://54.235.29.9/FacialAge/BNav_EC2/DepthDuration/v2_depth_duration_MTurk/v2_DepthDuration_HTML.html#144,144,1422,730,1280,800,8-21-2022,10-6-27,123,depth_duration_stimuli/003534_2014-05-22_15-06-10_094959634447_rgbf000102-resize_4/003534_2014-05-22_15-06-10_094959634447_rgbf000102-resize_4-target.png,125,1.426,2,2437,125,feet,jsons/VE125_randls_36.json,575206,1221547,50,Woman
123,850602,DepthScenes,duration_manipulation_targetAtFixation,jsons/VE125_randls_36.json,http://54.235.29.9/FacialAge/BNav_EC2/DepthDuration/v2_depth_duration_MTurk/v2_DepthDuration_HTML.html#144,144,1422,730,1280,800,8-21-2022,10-6-27,124,depth_duration_stimuli/002637_2014-06-24_14-51-13_094959634447_rgbf000066-resize_4/002637_2014-06-24_14-51-13_094959634447_rgbf000066-resize_4-target.png,125,1.9955,6,2908,121,feet,jsons/VE125_randls_36.json,575206,1221547,50,Woman
124,850602,DepthScenes,duration_manipulation_targetAtFixation,jsons/VE125_randls_36.json,http://54.235.29.9/FacialAge/BNav_EC2/DepthDuration/v2_depth_duration_MTurk/v2_DepthDuration_HTML.html#144,144,1422,730,1280,800,8-21-2022,10-6-27,125,depth_duration_stimuli/001029_2014-06-08_13-17-57_260595134347_rgbf000065-resize_1/001029_2014-06-08_13-17-57_260595134347_rgbf000065-resize_1-target.png,125,3.0835,7,2397,125,feet,jsons/VE125_randls_36.json,575206,1221547,50,Woman
125,850602,DepthScenes,duration_manipulation_targetAtFixation,jsons/VE125_randls_36.json,http://54.235.29.9/FacialAge/BNav_EC2/DepthDuration/v2_depth_duration_MTurk/v2_DepthDuration_HTML.html#144,144,1422,730,1280,800,8-21-2022,10-6-27,126,depth_duration_stimuli/000677_2014-06-08_23-10-32_260595134347_rgbf000158-resize_6/000677_2014-06-08_23-10-32_260595134347_rgbf000158-resize_6-target.png,125,3.556,7,2787,123,feet,jsons/VE125_randls_36.json,575206,1221547,50,Woman
126,850602,DepthScenes,duration_manipulation_targetAtFixation,jsons/VE125_randls_36.json,http://54.235.29.9/FacialAge/BNav_EC2/DepthDuration/v2_depth_duration_MTurk/v2_DepthDuration_HTML.html#144,144,1422,730,1280,800,8-21-2022,10-6-27,127,depth_duration_stimuli/000810_2014-06-08_17-20-01_260595134347_rgbf000105-resize_0/000810_2014-06-08_17-20-01_260595134347_rgbf000105-resize_0-target.png,125,1.4865,4,3066,125,feet,jsons/VE125_randls_36.json,575206,1221547,50,Woman
127,850602,DepthScenes,duration_manipulation_targetAtFixation,jsons/VE125_randls_36.json,http://54.235.29.9/FacialAge/BNav_EC2/DepthDuration/v2_depth_duration_MTurk/v2_DepthDuration_HTML.html#144,144,1422,730,1280,800,8-21-2022,10-6-27,128,depth_duration_stimuli/001214_2014-06-17_16-13-55_260595134347_rgbf000111-resize_0/001214_2014-06-17_16-13-55_260595134347_rgbf000111-resize_0-target.png,125,2.6505,5,3187,124,feet,jsons/VE125_randls_36.json,575206,1221547,50,Woman
128,850602,DepthScenes,duration_manipulation_targetAtFixation,jsons/VE125_randls_36.json,http://54.235.29.9/FacialAge/BNav_EC2/DepthDuration/v2_depth_duration_MTurk/v2_DepthDuration_HTML.html#144,144,1422,730,1280,800,8-21-2022,10-6-27,129,depth_duration_stimuli/001555_2014-06-20_17-12-10_260595134347_rgbf000065-resize_4/001555_2014-06-20_17-12-10_260595134347_rgbf000065-resize_4-target.png,125,1.633,2,3331,138,feet,jsons/VE125_randls_36.json,575206,1221547,50,Woman
129,850602,DepthScenes,duration_manipulation_targetAtFixation,jsons/VE125_randls_36.json,http://54.235.29.9/FacialAge/BNav_EC2/DepthDuration/v2_depth_duration_MTurk/v2_DepthDuration_HTML.html#144,144,1422,730,1280,800,8-21-2022,10-6-27,130,depth_duration_stimuli/000103_2014-05-14_22-01-17_260595134347_rgbf000152-resize_5/000103_2014-05-14_22-01-17_260595134347_rgbf000152-resize_5-target.png,125,1.993,7,3193,125,feet,jsons/VE125_randls_36.json,575206,1221547,50,Woman
130,850602,DepthScenes,duration_manipulation_targetAtFixation,jsons/VE125_randls_36.json,http://54.235.29.9/FacialAge/BNav_EC2/DepthDuration/v2_depth_duration_MTurk/v2_DepthDuration_HTML.html#144,144,1422,730,1280,800,8-21-2022,10-6-27,131,depth_duration_stimuli/000682_2014-06-08_23-14-58_260595134347_rgbf000041-resize_5/000682_2014-06-08_23-14-58_260595134347_rgbf000041-resize_5-target.png,125,2.7239999999999998,5,3649,122,feet,jsons/VE125_randls_36.json,575206,1221547,50,Woman
131,850602,DepthScenes,duration_manipulation_targetAtFixation,jsons/VE125_randls_36.json,http://54.235.29.9/FacialAge/BNav_EC2/DepthDuration/v2_depth_duration_MTurk/v2_DepthDuration_HTML.html#144,144,1422,730,1280,800,8-21-2022,10-6-27,132,depth_duration_stimuli/001650_2014-06-20_12-09-00_260595134347_rgbf000087-resize_3/001650_2014-06-20_12-09-00_260595134347_rgbf000087-resize_3-target.png,125,1.9505,3,2266,140,feet,jsons/VE125_randls_36.json,575206,1221547,50,Woman
132,850602,DepthScenes,duration_manipulation_targetAtFixation,jsons/VE125_randls_36.json,http://54.235.29.9/FacialAge/BNav_EC2/DepthDuration/v2_depth_duration_MTurk/v2_DepthDuration_HTML.html#144,144,1422,730,1280,800,8-21-2022,10-6-27,133,depth_duration_stimuli/000470_2014-06-09_19-42-40_260595134347_rgbf000094-resize_1/000470_2014-06-09_19-42-40_260595134347_rgbf000094-resize_1-target.png,125,1.831,3,3480,124,feet,jsons/VE125_randls_36.json,575206,1221547,50,Woman
133,850602,DepthScenes,duration_manipulation_targetAtFixation,jsons/VE125_randls_36.json,http://54.235.29.9/FacialAge/BNav_EC2/DepthDuration/v2_depth_duration_MTurk/v2_DepthDuration_HTML.html#144,144,1422,730,1280,800,8-21-2022,10-6-27,134,depth_duration_stimuli/000109_2014-05-14_23-41-52_260595134347_rgbf000035-resize_9/000109_2014-05-14_23-41-52_260595134347_rgbf000035-resize_9-target.png,125,1.3545,0,2349,123,feet,jsons/VE125_randls_36.json,575206,1221547,50,Woman
134,850602,DepthScenes,duration_manipulation_targetAtFixation,jsons/VE125_randls_36.json,http://54.235.29.9/FacialAge/BNav_EC2/DepthDuration/v2_depth_duration_MTurk/v2_DepthDuration_HTML.html#144,144,1422,730,1280,800,8-21-2022,10-6-27,135,depth_duration_stimuli/002072_2014-06-24_21-48-06_260595134347_rgbf000115-resize_0/002072_2014-06-24_21-48-06_260595134347_rgbf000115-resize-original.jpg,125,4.702,0,2413,124,feet,jsons/VE125_randls_36.json,575206,1221547,50,Woman
135,850602,DepthScenes,duration_manipulation_targetAtFixation,jsons/VE125_randls_36.json,http://54.235.29.9/FacialAge/BNav_EC2/DepthDuration/v2_depth_duration_MTurk/v2_DepthDuration_HTML.html#144,144,1422,730,1280,800,8-21-2022,10-6-27,136,depth_duration_stimuli/002663_2014-06-13_15-50-26_094959634447_rgbf000075-resize_1/002663_2014-06-13_15-50-26_094959634447_rgbf000075-resize_1-target.png,125,4.7495,10,2390,123,feet,jsons/VE125_randls_36.json,575206,1221547,50,Woman
136,850602,DepthScenes,duration_manipulation_targetAtFixation,jsons/VE125_randls_36.json,http://54.235.29.9/FacialAge/BNav_EC2/DepthDuration/v2_depth_duration_MTurk/v2_DepthDuration_HTML.html#144,144,1422,730,1280,800,8-21-2022,10-6-27,137,depth_duration_stimuli/000409_2014-06-04_19-23-33_260595134347_rgbf000067-resize_0/000409_2014-06-04_19-23-33_260595134347_rgbf000067-resize_0-target.png,125,3.7335,7,2812,124,feet,jsons/VE125_randls_36.json,575206,1221547,50,Woman
137,850602,DepthScenes,duration_manipulation_targetAtFixation,jsons/VE125_randls_36.json,http://54.235.29.9/FacialAge/BNav_EC2/DepthDuration/v2_depth_duration_MTurk/v2_DepthDuration_HTML.html#144,144,1422,730,1280,800,8-21-2022,10-6-27,138,depth_duration_stimuli/003292_2014-05-14_21-53-49_094959634447_rgbf000100-resize_2/003292_2014-05-14_21-53-49_094959634447_rgbf000100-resize_2-target.png,125,3.4815,6,2519,125,feet,jsons/VE125_randls_36.json,575206,1221547,50,Woman
138,850602,DepthScenes,duration_manipulation_targetAtFixation,jsons/VE125_randls_36.json,http://54.235.29.9/FacialAge/BNav_EC2/DepthDuration/v2_depth_duration_MTurk/v2_DepthDuration_HTML.html#144,144,1422,730,1280,800,8-21-2022,10-6-27,139,depth_duration_stimuli/002639_2014-06-24_14-51-37_094959634447_rgbf000074-resize_4/002639_2014-06-24_14-51-37_094959634447_rgbf000074-resize_4-target.png,125,4.0375,9,7827,137,feet,jsons/VE125_randls_36.json,575206,1221547,50,Woman
139,850602,DepthScenes,duration_manipulation_targetAtFixation,jsons/VE125_randls_36.json,http://54.235.29.9/FacialAge/BNav_EC2/DepthDuration/v2_depth_duration_MTurk/v2_DepthDuration_HTML.html#144,144,1422,730,1280,800,8-21-2022,10-6-27,140,depth_duration_stimuli/000692_2014-06-08_13-09-42_260595134347_rgbf000199-resize_2/000692_2014-06-08_13-09-42_260595134347_rgbf000199-resize_2-target.png,125,3.661,9,5108,124,feet,jsons/VE125_randls_36.json,575206,1221547,50,Woman
140,850602,DepthScenes,duration_manipulation_targetAtFixation,jsons/VE125_randls_36.json,http://54.235.29.9/FacialAge/BNav_EC2/DepthDuration/v2_depth_duration_MTurk/v2_DepthDuration_HTML.html#144,144,1422,730,1280,800,8-21-2022,10-6-27,141,depth_duration_stimuli/001094_2014-06-15_17-36-00_260595134347_rgbf000205-resize_0/001094_2014-06-15_17-36-00_260595134347_rgbf000205-resize_0-target.png,125,4.2175,10,3499,124,feet,jsons/VE125_randls_36.json,575206,1221547,50,Woman
141,850602,DepthScenes,duration_manipulation_targetAtFixation,jsons/VE125_randls_36.json,http://54.235.29.9/FacialAge/BNav_EC2/DepthDuration/v2_depth_duration_MTurk/v2_DepthDuration_HTML.html#144,144,1422,730,1280,800,8-21-2022,10-6-27,142,depth_duration_stimuli/002748_2014-06-22_19-07-22_094959634447_rgbf000078-resize_1/002748_2014-06-22_19-07-22_094959634447_rgbf000078-resize_1-target.png,125,4.6705,12,3555,129,feet,jsons/VE125_randls_36.json,575206,1221547,50,Woman
142,850602,DepthScenes,duration_manipulation_targetAtFixation,jsons/VE125_randls_36.json,http://54.235.29.9/FacialAge/BNav_EC2/DepthDuration/v2_depth_duration_MTurk/v2_DepthDuration_HTML.html#144,144,1422,730,1280,800,8-21-2022,10-6-27,143,depth_duration_stimuli/002995_2014-06-15_12-31-26_094959634447_rgbf000150-resize_1/002995_2014-06-15_12-31-26_094959634447_rgbf000150-resize_1-target.png,125,3.8360000000000003,7,2764,123,feet,jsons/VE125_randls_36.json,575206,1221547,50,Woman
143,850602,DepthScenes,duration_manipulation_targetAtFixation,jsons/VE125_randls_36.json,http://54.235.29.9/FacialAge/BNav_EC2/DepthDuration/v2_depth_duration_MTurk/v2_DepthDuration_HTML.html#144,144,1422,730,1280,800,8-21-2022,10-6-27,144,depth_duration_stimuli/000493_2014-06-09_21-01-18_260595134347_rgbf000196-resize_3/000493_2014-06-09_21-01-18_260595134347_rgbf000196-resize_3-target.png,125,3.44,9,3968,125,feet,jsons/VE125_randls_36.json,575206,1221547,50,Woman
144,850602,DepthScenes,duration_manipulation_targetAtFixation,jsons/VE125_randls_36.json,http://54.235.29.9/FacialAge/BNav_EC2/DepthDuration/v2_depth_duration_MTurk/v2_DepthDuration_HTML.html#144,144,1422,730,1280,800,8-21-2022,10-6-27,145,depth_duration_stimuli/000191_2014-05-12_17-07-38_260595134347_rgbf000199-resize_0/000191_2014-05-12_17-07-38_260595134347_rgbf000199-resize_0-target.png,125,3.7995,11,2661,125,feet,jsons/VE125_randls_36.json,575206,1221547,50,Woman
145,850602,DepthScenes,duration_manipulation_targetAtFixation,jsons/VE125_randls_36.json,http://54.235.29.9/FacialAge/BNav_EC2/DepthDuration/v2_depth_duration_MTurk/v2_DepthDuration_HTML.html#144,144,1422,730,1280,800,8-21-2022,10-6-27,146,depth_duration_stimuli/001498_2014-06-19_17-45-14_260595134347_rgbf000129-resize_4/001498_2014-06-19_17-45-14_260595134347_rgbf000129-resize-original.jpg,125,1.4075,0,1807,122,feet,jsons/VE125_randls_36.json,575206,1221547,50,Woman
146,850602,DepthScenes,duration_manipulation_targetAtFixation,jsons/VE125_randls_36.json,http://54.235.29.9/FacialAge/BNav_EC2/DepthDuration/v2_depth_duration_MTurk/v2_DepthDuration_HTML.html#144,144,1422,730,1280,800,8-21-2022,10-6-27,147,depth_duration_stimuli/001199_2014-06-17_16-03-48_260595134347_rgbf000077-resize_0/001199_2014-06-17_16-03-48_260595134347_rgbf000077-resize_0-target.png,125,3.4375,6,2946,125,feet,jsons/VE125_randls_36.json,575206,1221547,50,Woman
147,850602,DepthScenes,duration_manipulation_targetAtFixation,jsons/VE125_randls_36.json,http://54.235.29.9/FacialAge/BNav_EC2/DepthDuration/v2_depth_duration_MTurk/v2_DepthDuration_HTML.html#144,144,1422,730,1280,800,8-21-2022,10-6-27,148,depth_duration_stimuli/000502_2014-06-08_23-02-32_260595134347_rgbf000063-resize_4/000502_2014-06-08_23-02-32_260595134347_rgbf000063-resize_4-target.png,125,2.431,4,2795,123,feet,jsons/VE125_randls_36.json,575206,1221547,50,Woman
148,850602,DepthScenes,duration_manipulation_targetAtFixation,jsons/VE125_randls_36.json,http://54.235.29.9/FacialAge/BNav_EC2/DepthDuration/v2_depth_duration_MTurk/v2_DepthDuration_HTML.html#144,144,1422,730,1280,800,8-21-2022,10-6-27,149,depth_duration_stimuli/001016_2014-06-09_16-16-10_260595134347_rgbf000112-resize_5/001016_2014-06-09_16-16-10_260595134347_rgbf000112-resize_5-target.png,125,1.6565,6,2814,119,feet,jsons/VE125_randls_36.json,575206,1221547,50,Woman
149,850602,DepthScenes,duration_manipulation_targetAtFixation,jsons/VE125_randls_36.json,http://54.235.29.9/FacialAge/BNav_EC2/DepthDuration/v2_depth_duration_MTurk/v2_DepthDuration_HTML.html#144,144,1422,730,1280,800,8-21-2022,10-6-27,150,depth_duration_stimuli/002340_2014-06-28_20-05-46_260595134347_rgbf000113-resize_0/002340_2014-06-28_20-05-46_260595134347_rgbf000113-resize_0-target.png,125,2.4735,10,2339,138,feet,jsons/VE125_randls_36.json,575206,1221547,50,Woman
150,850602,DepthScenes,duration_manipulation_targetAtFixation,jsons/VE125_randls_36.json,http://54.235.29.9/FacialAge/BNav_EC2/DepthDuration/v2_depth_duration_MTurk/v2_DepthDuration_HTML.html#144,144,1422,730,1280,800,8-21-2022,10-6-27,151,depth_duration_stimuli/002630_2014-06-24_14-47-50_094959634447_rgbf000055-resize_1/002630_2014-06-24_14-47-50_094959634447_rgbf000055-resize_1-target.png,125,3.0095,10,2351,123,feet,jsons/VE125_randls_36.json,575206,1221547,50,Woman
151,850602,DepthScenes,duration_manipulation_targetAtFixation,jsons/VE125_randls_36.json,http://54.235.29.9/FacialAge/BNav_EC2/DepthDuration/v2_depth_duration_MTurk/v2_DepthDuration_HTML.html#144,144,1422,730,1280,800,8-21-2022,10-6-27,152,depth_duration_stimuli/002758_2014-06-22_19-11-20_094959634447_rgbf000128-resize_1/002758_2014-06-22_19-11-20_094959634447_rgbf000128-resize_1-target.png,125,2.555,0,2171,129,feet,jsons/VE125_randls_36.json,575206,1221547,50,Woman
152,850602,DepthScenes,duration_manipulation_targetAtFixation,jsons/VE125_randls_36.json,http://54.235.29.9/FacialAge/BNav_EC2/DepthDuration/v2_depth_duration_MTurk/v2_DepthDuration_HTML.html#144,144,1422,730,1280,800,8-21-2022,10-6-27,153,depth_duration_stimuli/002375_2014-06-28_20-13-44_260595134347_rgbf000032-resize_1/002375_2014-06-28_20-13-44_260595134347_rgbf000032-resize_1-target.png,125,4.0175,6,2689,122,feet,jsons/VE125_randls_36.json,575206,1221547,50,Woman
153,850602,DepthScenes,duration_manipulation_targetAtFixation,jsons/VE125_randls_36.json,http://54.235.29.9/FacialAge/BNav_EC2/DepthDuration/v2_depth_duration_MTurk/v2_DepthDuration_HTML.html#144,144,1422,730,1280,800,8-21-2022,10-6-27,154,depth_duration_stimuli/002657_2014-06-13_15-29-54_094959634447_rgbf000150-resize_1/002657_2014-06-13_15-29-54_094959634447_rgbf000150-resize_1-target.png,125,4.919,6,2429,124,feet,jsons/VE125_randls_36.json,575206,1221547,50,Woman
154,850602,DepthScenes,duration_manipulation_targetAtFixation,jsons/VE125_randls_36.json,http://54.235.29.9/FacialAge/BNav_EC2/DepthDuration/v2_depth_duration_MTurk/v2_DepthDuration_HTML.html#144,144,1422,730,1280,800,8-21-2022,10-6-27,155,depth_duration_stimuli/002039_2014-06-24_20-22-38_260595134347_rgbf000084-resize_1/002039_2014-06-24_20-22-38_260595134347_rgbf000084-resize_1-target.png,125,4.408,8,2221,124,feet,jsons/VE125_randls_36.json,575206,1221547,50,Woman
155,850602,DepthScenes,duration_manipulation_targetAtFixation,jsons/VE125_randls_36.json,http://54.235.29.9/FacialAge/BNav_EC2/DepthDuration/v2_depth_duration_MTurk/v2_DepthDuration_HTML.html#144,144,1422,730,1280,800,8-21-2022,10-6-27,156,depth_duration_stimuli/002103_2014-06-25_20-00-40_260595134347_rgbf000049-resize_0/002103_2014-06-25_20-00-40_260595134347_rgbf000049-resize_0-target.png,125,4.105,9,2774,123,feet,jsons/VE125_randls_36.json,575206,1221547,50,Woman
156,850602,DepthScenes,duration_manipulation_targetAtFixation,jsons/VE125_randls_36.json,http://54.235.29.9/FacialAge/BNav_EC2/DepthDuration/v2_depth_duration_MTurk/v2_DepthDuration_HTML.html#144,144,1422,730,1280,800,8-21-2022,10-6-27,157,depth_duration_stimuli/002272_2014-06-28_18-53-56_260595134347_rgbf000067-resize_2/002272_2014-06-28_18-53-56_260595134347_rgbf000067-resize_2-target.png,125,1.138,2,2585,122,feet,jsons/VE125_randls_36.json,575206,1221547,50,Woman
157,850602,DepthScenes,duration_manipulation_targetAtFixation,jsons/VE125_randls_36.json,http://54.235.29.9/FacialAge/BNav_EC2/DepthDuration/v2_depth_duration_MTurk/v2_DepthDuration_HTML.html#144,144,1422,730,1280,800,8-21-2022,10-6-27,158,depth_duration_stimuli/001571_2014-06-20_17-21-32_260595134347_rgbf000089-resize_1/001571_2014-06-20_17-21-32_260595134347_rgbf000089-resize_1-target.png,125,1.86,4,2325,125,feet,jsons/VE125_randls_36.json,575206,1221547,50,Woman
158,850602,DepthScenes,duration_manipulation_targetAtFixation,jsons/VE125_randls_36.json,http://54.235.29.9/FacialAge/BNav_EC2/DepthDuration/v2_depth_duration_MTurk/v2_DepthDuration_HTML.html#144,144,1422,730,1280,800,8-21-2022,10-6-27,159,depth_duration_stimuli/001244_2014-06-17_16-47-45_260595134347_rgbf000030-resize_4/001244_2014-06-17_16-47-45_260595134347_rgbf000030-resize_4-target.png,125,2.0425,5,2371,125,feet,jsons/VE125_randls_36.json,575206,1221547,50,Woman
159,850602,DepthScenes,duration_manipulation_targetAtFixation,jsons/VE125_randls_36.json,http://54.235.29.9/FacialAge/BNav_EC2/DepthDuration/v2_depth_duration_MTurk/v2_DepthDuration_HTML.html#144,144,1422,730,1280,800,8-21-2022,10-6-27,160,depth_duration_stimuli/003495_2014-05-21_16-01-51_094959634447_rgbf000100-resize_3/003495_2014-05-21_16-01-51_094959634447_rgbf000100-resize_3-target.png,125,1.6255,3,2675,139,feet,jsons/VE125_randls_36.json,575206,1221547,50,Woman
160,850602,DepthScenes,duration_manipulation_targetAtFixation,jsons/VE125_randls_36.json,http://54.235.29.9/FacialAge/BNav_EC2/DepthDuration/v2_depth_duration_MTurk/v2_DepthDuration_HTML.html#144,144,1422,730,1280,800,8-21-2022,10-6-27,161,depth_duration_stimuli/001175_2014-06-17_15-45-55_260595134347_rgbf000129-resize_4/001175_2014-06-17_15-45-55_260595134347_rgbf000129-resize_4-target.png,125,4.255,15,3490,138,feet,jsons/VE125_randls_36.json,575206,1221547,50,Woman
161,850602,DepthScenes,duration_manipulation_targetAtFixation,jsons/VE125_randls_36.json,http://54.235.29.9/FacialAge/BNav_EC2/DepthDuration/v2_depth_duration_MTurk/v2_DepthDuration_HTML.html#144,144,1422,730,1280,800,8-21-2022,10-6-27,162,depth_duration_stimuli/003490_2014-05-21_15-50-11_094959634447_rgbf000101-resize_3/003490_2014-05-21_15-50-11_094959634447_rgbf000101-resize_3-target.png,125,3.6445,9,2587,126,feet,jsons/VE125_randls_36.json,575206,1221547,50,Woman
162,850602,DepthScenes,duration_manipulation_targetAtFixation,jsons/VE125_randls_36.json,http://54.235.29.9/FacialAge/BNav_EC2/DepthDuration/v2_depth_duration_MTurk/v2_DepthDuration_HTML.html#144,144,1422,730,1280,800,8-21-2022,10-6-27,163,depth_duration_stimuli/002549_2014-06-24_13-41-39_094959634447_rgbf000022-resize_3/002549_2014-06-24_13-41-39_094959634447_rgbf000022-resize_3-target.png,125,1.476,2,2505,125,feet,jsons/VE125_randls_36.json,575206,1221547,50,Woman
163,850602,DepthScenes,duration_manipulation_targetAtFixation,jsons/VE125_randls_36.json,http://54.235.29.9/FacialAge/BNav_EC2/DepthDuration/v2_depth_duration_MTurk/v2_DepthDuration_HTML.html#144,144,1422,730,1280,800,8-21-2022,10-6-27,164,depth_duration_stimuli/002750_2014-06-22_19-08-03_094959634447_rgbf000094-resize_4/002750_2014-06-22_19-08-03_094959634447_rgbf000094-resize_4-target.png,125,2.354,7,2469,123,feet,jsons/VE125_randls_36.json,575206,1221547,50,Woman
