,subjID,experimentName,versionName,sequenceName,url,selected_row,windowWidth,windowHeight,screenWidth,screenHeight,startDate,startTime,trial,stimulus,duration,actual_depth,depth_estimate,trial_RT,log_sceneDuration,unitSelection,seq_filepath,experimentTime,totalTime,age,gender
0,851454,DepthScenes,duration_manipulation_targetAtFixation,jsons/VE125_randls_47_rotated.json,http://54.235.29.9/FacialAge/BNav_EC2/DepthDuration/v2_depth_duration_MTurk/v2_DepthDuration_HTML.html#79,79,1821,833,1366,768,8-21-2022,9-36-31,1,depth_duration_stimuli/001828_2014-06-26_21-40-03_260595134347_rgbf000024-resize_0/001828_2014-06-26_21-40-03_260595134347_rgbf000024-resize_0-target.png,125,4.8260000000000005,3,7958,130,feet,jsons/VE125_randls_47_rotated.json,1437289,2265260,52,Man
1,851454,DepthScenes,duration_manipulation_targetAtFixation,jsons/VE125_randls_47_rotated.json,http://54.235.29.9/FacialAge/BNav_EC2/DepthDuration/v2_depth_duration_MTurk/v2_DepthDuration_HTML.html#79,79,1821,833,1366,768,8-21-2022,9-36-31,2,depth_duration_stimuli/000009_2014-05-26_14-32-05_260595134347_rgbf000034-resize_3/000009_2014-05-26_14-32-05_260595134347_rgbf000034-resize_3-target.png,125,3.8715,2,4848,114,feet,jsons/VE125_randls_47_rotated.json,1437289,2265260,52,Man
2,851454,DepthScenes,duration_manipulation_targetAtFixation,jsons/VE125_randls_47_rotated.json,http://54.235.29.9/FacialAge/BNav_EC2/DepthDuration/v2_depth_duration_MTurk/v2_DepthDuration_HTML.html#79,79,1821,833,1366,768,8-21-2022,9-36-31,3,depth_duration_stimuli/000665_2014-06-09_20-42-35_260595134347_rgbf000110-resize_1/000665_2014-06-09_20-42-35_260595134347_rgbf000110-resize_1-target.png,125,3.057,2,6087,107,feet,jsons/VE125_randls_47_rotated.json,1437289,2265260,52,Man
3,851454,DepthScenes,duration_manipulation_targetAtFixation,jsons/VE125_randls_47_rotated.json,http://54.235.29.9/FacialAge/BNav_EC2/DepthDuration/v2_depth_duration_MTurk/v2_DepthDuration_HTML.html#79,79,1821,833,1366,768,8-21-2022,9-36-31,4,depth_duration_stimuli/001150_2014-06-17_15-27-34_260595134347_rgbf000108-resize_2/001150_2014-06-17_15-27-34_260595134347_rgbf000108-resize_2-target.png,125,4.0325,3,4813,123,feet,jsons/VE125_randls_47_rotated.json,1437289,2265260,52,Man
4,851454,DepthScenes,duration_manipulation_targetAtFixation,jsons/VE125_randls_47_rotated.json,http://54.235.29.9/FacialAge/BNav_EC2/DepthDuration/v2_depth_duration_MTurk/v2_DepthDuration_HTML.html#79,79,1821,833,1366,768,8-21-2022,9-36-31,5,depth_duration_stimuli/002467_2014-06-28_20-38-07_260595134347_rgbf000026-resize_2/002467_2014-06-28_20-38-07_260595134347_rgbf000026-resize_2-target.png,125,4.742,2,6095,124,feet,jsons/VE125_randls_47_rotated.json,1437289,2265260,52,Man
5,851454,DepthScenes,duration_manipulation_targetAtFixation,jsons/VE125_randls_47_rotated.json,http://54.235.29.9/FacialAge/BNav_EC2/DepthDuration/v2_depth_duration_MTurk/v2_DepthDuration_HTML.html#79,79,1821,833,1366,768,8-21-2022,9-36-31,6,depth_duration_stimuli/002570_2014-06-24_13-59-54_094959634447_rgbf000059-resize_0/002570_2014-06-24_13-59-54_094959634447_rgbf000059-resize_0-target.png,125,4.037,2,4412,126,feet,jsons/VE125_randls_47_rotated.json,1437289,2265260,52,Man
6,851454,DepthScenes,duration_manipulation_targetAtFixation,jsons/VE125_randls_47_rotated.json,http://54.235.29.9/FacialAge/BNav_EC2/DepthDuration/v2_depth_duration_MTurk/v2_DepthDuration_HTML.html#79,79,1821,833,1366,768,8-21-2022,9-36-31,7,depth_duration_stimuli/002199_2014-06-28_18-33-56_260595134347_rgbf000074-resize_0/002199_2014-06-28_18-33-56_260595134347_rgbf000074-resize_0-target.png,125,1.996,2,8056,125,feet,jsons/VE125_randls_47_rotated.json,1437289,2265260,52,Man
7,851454,DepthScenes,duration_manipulation_targetAtFixation,jsons/VE125_randls_47_rotated.json,http://54.235.29.9/FacialAge/BNav_EC2/DepthDuration/v2_depth_duration_MTurk/v2_DepthDuration_HTML.html#79,79,1821,833,1366,768,8-21-2022,9-36-31,8,depth_duration_stimuli/001056_2014-06-08_18-46-44_260595134347_rgbf000068-resize_0/001056_2014-06-08_18-46-44_260595134347_rgbf000068-resize_0-target.png,125,2.6625,3,4481,130,feet,jsons/VE125_randls_47_rotated.json,1437289,2265260,52,Man
8,851454,DepthScenes,duration_manipulation_targetAtFixation,jsons/VE125_randls_47_rotated.json,http://54.235.29.9/FacialAge/BNav_EC2/DepthDuration/v2_depth_duration_MTurk/v2_DepthDuration_HTML.html#79,79,1821,833,1366,768,8-21-2022,9-36-31,9,depth_duration_stimuli/000109_2014-05-14_23-41-52_260595134347_rgbf000035-resize_9/000109_2014-05-14_23-41-52_260595134347_rgbf000035-resize_9-target.png,125,1.3545,3,6017,124,feet,jsons/VE125_randls_47_rotated.json,1437289,2265260,52,Man
9,851454,DepthScenes,duration_manipulation_targetAtFixation,jsons/VE125_randls_47_rotated.json,http://54.235.29.9/FacialAge/BNav_EC2/DepthDuration/v2_depth_duration_MTurk/v2_DepthDuration_HTML.html#79,79,1821,833,1366,768,8-21-2022,9-36-31,10,depth_duration_stimuli/000470_2014-06-09_19-42-40_260595134347_rgbf000094-resize_1/000470_2014-06-09_19-42-40_260595134347_rgbf000094-resize_1-target.png,125,1.831,2,4357,124,feet,jsons/VE125_randls_47_rotated.json,1437289,2265260,52,Man
10,851454,DepthScenes,duration_manipulation_targetAtFixation,jsons/VE125_randls_47_rotated.json,http://54.235.29.9/FacialAge/BNav_EC2/DepthDuration/v2_depth_duration_MTurk/v2_DepthDuration_HTML.html#79,79,1821,833,1366,768,8-21-2022,9-36-31,11,depth_duration_stimuli/000549_2014-06-08_22-10-24_260595134347_rgbf000247-resize_3/000549_2014-06-08_22-10-24_260595134347_rgbf000247-resize_3-target.png,125,1.841,3,6112,124,feet,jsons/VE125_randls_47_rotated.json,1437289,2265260,52,Man
11,851454,DepthScenes,duration_manipulation_targetAtFixation,jsons/VE125_randls_47_rotated.json,http://54.235.29.9/FacialAge/BNav_EC2/DepthDuration/v2_depth_duration_MTurk/v2_DepthDuration_HTML.html#79,79,1821,833,1366,768,8-21-2022,9-36-31,12,depth_duration_stimuli/001055_2014-06-08_18-45-35_260595134347_rgbf000111-resize_4/001055_2014-06-08_18-45-35_260595134347_rgbf000111-resize_4-target.png,125,2.4290000000000003,3,6004,110,feet,jsons/VE125_randls_47_rotated.json,1437289,2265260,52,Man
12,851454,DepthScenes,duration_manipulation_targetAtFixation,jsons/VE125_randls_47_rotated.json,http://54.235.29.9/FacialAge/BNav_EC2/DepthDuration/v2_depth_duration_MTurk/v2_DepthDuration_HTML.html#79,79,1821,833,1366,768,8-21-2022,9-36-31,13,depth_duration_stimuli/003490_2014-05-21_15-50-11_094959634447_rgbf000101-resize_3/003490_2014-05-21_15-50-11_094959634447_rgbf000101-resize_3-target.png,125,3.6445,3,6260,123,feet,jsons/VE125_randls_47_rotated.json,1437289,2265260,52,Man
13,851454,DepthScenes,duration_manipulation_targetAtFixation,jsons/VE125_randls_47_rotated.json,http://54.235.29.9/FacialAge/BNav_EC2/DepthDuration/v2_depth_duration_MTurk/v2_DepthDuration_HTML.html#79,79,1821,833,1366,768,8-21-2022,9-36-31,14,depth_duration_stimuli/001175_2014-06-17_15-45-55_260595134347_rgbf000129-resize_4/001175_2014-06-17_15-45-55_260595134347_rgbf000129-resize_4-target.png,125,4.255,2,5154,124,feet,jsons/VE125_randls_47_rotated.json,1437289,2265260,52,Man
14,851454,DepthScenes,duration_manipulation_targetAtFixation,jsons/VE125_randls_47_rotated.json,http://54.235.29.9/FacialAge/BNav_EC2/DepthDuration/v2_depth_duration_MTurk/v2_DepthDuration_HTML.html#79,79,1821,833,1366,768,8-21-2022,9-36-31,15,depth_duration_stimuli/003010_2014-06-15_12-54-35_094959634447_rgbf000112-resize_0/003010_2014-06-15_12-54-35_094959634447_rgbf000112-resize_0-target.png,125,3.1185,4,4987,124,feet,jsons/VE125_randls_47_rotated.json,1437289,2265260,52,Man
15,851454,DepthScenes,duration_manipulation_targetAtFixation,jsons/VE125_randls_47_rotated.json,http://54.235.29.9/FacialAge/BNav_EC2/DepthDuration/v2_depth_duration_MTurk/v2_DepthDuration_HTML.html#79,79,1821,833,1366,768,8-21-2022,9-36-31,16,depth_duration_stimuli/001810_2014-06-26_20-51-35_260595134347_rgbf000040-resize_3/001810_2014-06-26_20-51-35_260595134347_rgbf000040-resize_3-target.png,125,2.2525,2,3950,124,feet,jsons/VE125_randls_47_rotated.json,1437289,2265260,52,Man
16,851454,DepthScenes,duration_manipulation_targetAtFixation,jsons/VE125_randls_47_rotated.json,http://54.235.29.9/FacialAge/BNav_EC2/DepthDuration/v2_depth_duration_MTurk/v2_DepthDuration_HTML.html#79,79,1821,833,1366,768,8-21-2022,9-36-31,17,depth_duration_stimuli/002209_2014-06-28_18-36-10_260595134347_rgbf000051-resize_1/002209_2014-06-28_18-36-10_260595134347_rgbf000051-resize_1-target.png,125,2.057,2,6425,116,feet,jsons/VE125_randls_47_rotated.json,1437289,2265260,52,Man
17,851454,DepthScenes,duration_manipulation_targetAtFixation,jsons/VE125_randls_47_rotated.json,http://54.235.29.9/FacialAge/BNav_EC2/DepthDuration/v2_depth_duration_MTurk/v2_DepthDuration_HTML.html#79,79,1821,833,1366,768,8-21-2022,9-36-31,18,depth_duration_stimuli/002763_2014-06-22_19-13-10_094959634447_rgbf000075-resize_4/002763_2014-06-22_19-13-10_094959634447_rgbf000075-resize_4-target.png,125,1.68375,3,4236,138,feet,jsons/VE125_randls_47_rotated.json,1437289,2265260,52,Man
18,851454,DepthScenes,duration_manipulation_targetAtFixation,jsons/VE125_randls_47_rotated.json,http://54.235.29.9/FacialAge/BNav_EC2/DepthDuration/v2_depth_duration_MTurk/v2_DepthDuration_HTML.html#79,79,1821,833,1366,768,8-21-2022,9-36-31,19,depth_duration_stimuli/001498_2014-06-19_17-45-14_260595134347_rgbf000129-resize_4/001498_2014-06-19_17-45-14_260595134347_rgbf000129-resize-original.jpg,125,1.4075,0,5141,125,feet,jsons/VE125_randls_47_rotated.json,1437289,2265260,52,Man
19,851454,DepthScenes,duration_manipulation_targetAtFixation,jsons/VE125_randls_47_rotated.json,http://54.235.29.9/FacialAge/BNav_EC2/DepthDuration/v2_depth_duration_MTurk/v2_DepthDuration_HTML.html#79,79,1821,833,1366,768,8-21-2022,9-36-31,20,depth_duration_stimuli/002657_2014-06-13_15-29-54_094959634447_rgbf000150-resize_1/002657_2014-06-13_15-29-54_094959634447_rgbf000150-resize_1-target.png,125,4.919,3,6281,117,feet,jsons/VE125_randls_47_rotated.json,1437289,2265260,52,Man
20,851454,DepthScenes,duration_manipulation_targetAtFixation,jsons/VE125_randls_47_rotated.json,http://54.235.29.9/FacialAge/BNav_EC2/DepthDuration/v2_depth_duration_MTurk/v2_DepthDuration_HTML.html#79,79,1821,833,1366,768,8-21-2022,9-36-31,21,depth_duration_stimuli/002375_2014-06-28_20-13-44_260595134347_rgbf000032-resize_1/002375_2014-06-28_20-13-44_260595134347_rgbf000032-resize_1-target.png,125,4.0175,4,4250,137,feet,jsons/VE125_randls_47_rotated.json,1437289,2265260,52,Man
21,851454,DepthScenes,duration_manipulation_targetAtFixation,jsons/VE125_randls_47_rotated.json,http://54.235.29.9/FacialAge/BNav_EC2/DepthDuration/v2_depth_duration_MTurk/v2_DepthDuration_HTML.html#79,79,1821,833,1366,768,8-21-2022,9-36-31,22,depth_duration_stimuli/001100_2014-06-15_17-46-26_260595134347_rgbf000225-resize_2/001100_2014-06-15_17-46-26_260595134347_rgbf000225-resize_2-target.png,125,2.24,0,16811,111,feet,jsons/VE125_randls_47_rotated.json,1437289,2265260,52,Man
22,851454,DepthScenes,duration_manipulation_targetAtFixation,jsons/VE125_randls_47_rotated.json,http://54.235.29.9/FacialAge/BNav_EC2/DepthDuration/v2_depth_duration_MTurk/v2_DepthDuration_HTML.html#79,79,1821,833,1366,768,8-21-2022,9-36-31,23,depth_duration_stimuli/002784_2014-06-22_19-26-30_094959634447_rgbf000083-resize_3/002784_2014-06-22_19-26-30_094959634447_rgbf000083-resize_3-target.png,125,1.8046666666667,2,70174,126,feet,jsons/VE125_randls_47_rotated.json,1437289,2265260,52,Man
23,851454,DepthScenes,duration_manipulation_targetAtFixation,jsons/VE125_randls_47_rotated.json,http://54.235.29.9/FacialAge/BNav_EC2/DepthDuration/v2_depth_duration_MTurk/v2_DepthDuration_HTML.html#79,79,1821,833,1366,768,8-21-2022,9-36-31,24,depth_duration_stimuli/001214_2014-06-17_16-13-55_260595134347_rgbf000111-resize_0/001214_2014-06-17_16-13-55_260595134347_rgbf000111-resize_0-target.png,125,2.6505,3,92938,123,feet,jsons/VE125_randls_47_rotated.json,1437289,2265260,52,Man
24,851454,DepthScenes,duration_manipulation_targetAtFixation,jsons/VE125_randls_47_rotated.json,http://54.235.29.9/FacialAge/BNav_EC2/DepthDuration/v2_depth_duration_MTurk/v2_DepthDuration_HTML.html#79,79,1821,833,1366,768,8-21-2022,9-36-31,25,depth_duration_stimuli/000810_2014-06-08_17-20-01_260595134347_rgbf000105-resize_0/000810_2014-06-08_17-20-01_260595134347_rgbf000105-resize_0-target.png,125,1.4865,0,4814,123,feet,jsons/VE125_randls_47_rotated.json,1437289,2265260,52,Man
25,851454,DepthScenes,duration_manipulation_targetAtFixation,jsons/VE125_randls_47_rotated.json,http://54.235.29.9/FacialAge/BNav_EC2/DepthDuration/v2_depth_duration_MTurk/v2_DepthDuration_HTML.html#79,79,1821,833,1366,768,8-21-2022,9-36-31,26,depth_duration_stimuli/003495_2014-05-21_16-01-51_094959634447_rgbf000100-resize_3/003495_2014-05-21_16-01-51_094959634447_rgbf000100-resize_3-target.png,125,1.6255,2,4212,124,feet,jsons/VE125_randls_47_rotated.json,1437289,2265260,52,Man
26,851454,DepthScenes,duration_manipulation_targetAtFixation,jsons/VE125_randls_47_rotated.json,http://54.235.29.9/FacialAge/BNav_EC2/DepthDuration/v2_depth_duration_MTurk/v2_DepthDuration_HTML.html#79,79,1821,833,1366,768,8-21-2022,9-36-31,27,depth_duration_stimuli/001244_2014-06-17_16-47-45_260595134347_rgbf000030-resize_4/001244_2014-06-17_16-47-45_260595134347_rgbf000030-resize_4-target.png,125,2.0425,1,6535,133,feet,jsons/VE125_randls_47_rotated.json,1437289,2265260,52,Man
27,851454,DepthScenes,duration_manipulation_targetAtFixation,jsons/VE125_randls_47_rotated.json,http://54.235.29.9/FacialAge/BNav_EC2/DepthDuration/v2_depth_duration_MTurk/v2_DepthDuration_HTML.html#79,79,1821,833,1366,768,8-21-2022,9-36-31,28,depth_duration_stimuli/000483_2014-06-09_20-41-45_260595134347_rgbf000116-resize_4/000483_2014-06-09_20-41-45_260595134347_rgbf000116-resize_4-target.png,125,1.337,2,79748,123,feet,jsons/VE125_randls_47_rotated.json,1437289,2265260,52,Man
28,851454,DepthScenes,duration_manipulation_targetAtFixation,jsons/VE125_randls_47_rotated.json,http://54.235.29.9/FacialAge/BNav_EC2/DepthDuration/v2_depth_duration_MTurk/v2_DepthDuration_HTML.html#79,79,1821,833,1366,768,8-21-2022,9-36-31,29,depth_duration_stimuli/000469_2014-06-09_19-42-10_260595134347_rgbf000081-resize_1/000469_2014-06-09_19-42-10_260595134347_rgbf000081-resize_1-target.png,125,1.652,2,4525,119,feet,jsons/VE125_randls_47_rotated.json,1437289,2265260,52,Man
29,851454,DepthScenes,duration_manipulation_targetAtFixation,jsons/VE125_randls_47_rotated.json,http://54.235.29.9/FacialAge/BNav_EC2/DepthDuration/v2_depth_duration_MTurk/v2_DepthDuration_HTML.html#79,79,1821,833,1366,768,8-21-2022,9-36-31,30,depth_duration_stimuli/002072_2014-06-24_21-48-06_260595134347_rgbf000115-resize_0/002072_2014-06-24_21-48-06_260595134347_rgbf000115-resize-original.jpg,125,4.702,0,10149,124,feet,jsons/VE125_randls_47_rotated.json,1437289,2265260,52,Man
30,851454,DepthScenes,duration_manipulation_targetAtFixation,jsons/VE125_randls_47_rotated.json,http://54.235.29.9/FacialAge/BNav_EC2/DepthDuration/v2_depth_duration_MTurk/v2_DepthDuration_HTML.html#79,79,1821,833,1366,768,8-21-2022,9-36-31,31,depth_duration_stimuli/003048_2014-06-15_13-49-43_094959634447_rgbf000150-resize_1/003048_2014-06-15_13-49-43_094959634447_rgbf000150-resize_1-target.png,125,4.0035,3,6091,125,feet,jsons/VE125_randls_47_rotated.json,1437289,2265260,52,Man
31,851454,DepthScenes,duration_manipulation_targetAtFixation,jsons/VE125_randls_47_rotated.json,http://54.235.29.9/FacialAge/BNav_EC2/DepthDuration/v2_depth_duration_MTurk/v2_DepthDuration_HTML.html#79,79,1821,833,1366,768,8-21-2022,9-36-31,32,depth_duration_stimuli/002043_2014-06-24_20-29-38_260595134347_rgbf000039-resize_4/002043_2014-06-24_20-29-38_260595134347_rgbf000039-resize_4-target.png,125,2.8435,0,6173,124,feet,jsons/VE125_randls_47_rotated.json,1437289,2265260,52,Man
32,851454,DepthScenes,duration_manipulation_targetAtFixation,jsons/VE125_randls_47_rotated.json,http://54.235.29.9/FacialAge/BNav_EC2/DepthDuration/v2_depth_duration_MTurk/v2_DepthDuration_HTML.html#79,79,1821,833,1366,768,8-21-2022,9-36-31,33,depth_duration_stimuli/000866_2014-06-09_20-45-42_260595134347_rgbf000139-resize_1/000866_2014-06-09_20-45-42_260595134347_rgbf000139-resize_1-target.png,125,3.2155,3,6677,124,feet,jsons/VE125_randls_47_rotated.json,1437289,2265260,52,Man
33,851454,DepthScenes,duration_manipulation_targetAtFixation,jsons/VE125_randls_47_rotated.json,http://54.235.29.9/FacialAge/BNav_EC2/DepthDuration/v2_depth_duration_MTurk/v2_DepthDuration_HTML.html#79,79,1821,833,1366,768,8-21-2022,9-36-31,34,depth_duration_stimuli/002989_2014-06-15_12-25-03_094959634447_rgbf000150-resize_3/002989_2014-06-15_12-25-03_094959634447_rgbf000150-resize_3-target.png,125,4.1975,4,4020,124,feet,jsons/VE125_randls_47_rotated.json,1437289,2265260,52,Man
34,851454,DepthScenes,duration_manipulation_targetAtFixation,jsons/VE125_randls_47_rotated.json,http://54.235.29.9/FacialAge/BNav_EC2/DepthDuration/v2_depth_duration_MTurk/v2_DepthDuration_HTML.html#79,79,1821,833,1366,768,8-21-2022,9-36-31,35,depth_duration_stimuli/002805_2014-06-22_19-54-03_094959634447_rgbf000079-resize_1/002805_2014-06-22_19-54-03_094959634447_rgbf000079-resize_1-target.png,125,3.1439999999999997,7,7262,124,feet,jsons/VE125_randls_47_rotated.json,1437289,2265260,52,Man
35,851454,DepthScenes,duration_manipulation_targetAtFixation,jsons/VE125_randls_47_rotated.json,http://54.235.29.9/FacialAge/BNav_EC2/DepthDuration/v2_depth_duration_MTurk/v2_DepthDuration_HTML.html#79,79,1821,833,1366,768,8-21-2022,9-36-31,36,depth_duration_stimuli/000906_2014-06-08_13-35-43_260595134347_rgbf000155-resize_1/000906_2014-06-08_13-35-43_260595134347_rgbf000155-resize_1-target.png,125,2.8489999999999998,0,5778,124,feet,jsons/VE125_randls_47_rotated.json,1437289,2265260,52,Man
36,851454,DepthScenes,duration_manipulation_targetAtFixation,jsons/VE125_randls_47_rotated.json,http://54.235.29.9/FacialAge/BNav_EC2/DepthDuration/v2_depth_duration_MTurk/v2_DepthDuration_HTML.html#79,79,1821,833,1366,768,8-21-2022,9-36-31,37,depth_duration_stimuli/002568_2014-06-24_13-59-21_094959634447_rgbf000062-resize_4/002568_2014-06-24_13-59-21_094959634447_rgbf000062-resize_4-target.png,125,3.015,2,5714,124,feet,jsons/VE125_randls_47_rotated.json,1437289,2265260,52,Man
37,851454,DepthScenes,duration_manipulation_targetAtFixation,jsons/VE125_randls_47_rotated.json,http://54.235.29.9/FacialAge/BNav_EC2/DepthDuration/v2_depth_duration_MTurk/v2_DepthDuration_HTML.html#79,79,1821,833,1366,768,8-21-2022,9-36-31,38,depth_duration_stimuli/003492_2014-05-21_15-50-55_094959634447_rgbf000828-resize_1/003492_2014-05-21_15-50-55_094959634447_rgbf000828-resize_1-target.png,125,4.06875,2,4216,123,feet,jsons/VE125_randls_47_rotated.json,1437289,2265260,52,Man
38,851454,DepthScenes,duration_manipulation_targetAtFixation,jsons/VE125_randls_47_rotated.json,http://54.235.29.9/FacialAge/BNav_EC2/DepthDuration/v2_depth_duration_MTurk/v2_DepthDuration_HTML.html#79,79,1821,833,1366,768,8-21-2022,9-36-31,39,depth_duration_stimuli/003081_2014-06-15_15-19-16_094959634447_rgbf000150-resize_1/003081_2014-06-15_15-19-16_094959634447_rgbf000150-resize_1-target.png,125,3.9125,7,9786,125,feet,jsons/VE125_randls_47_rotated.json,1437289,2265260,52,Man
39,851454,DepthScenes,duration_manipulation_targetAtFixation,jsons/VE125_randls_47_rotated.json,http://54.235.29.9/FacialAge/BNav_EC2/DepthDuration/v2_depth_duration_MTurk/v2_DepthDuration_HTML.html#79,79,1821,833,1366,768,8-21-2022,9-36-31,40,depth_duration_stimuli/001417_2014-06-19_16-25-36_260595134347_rgbf000115-resize_5/001417_2014-06-19_16-25-36_260595134347_rgbf000115-resize_5-target.png,125,4.6255,4,4311,139,feet,jsons/VE125_randls_47_rotated.json,1437289,2265260,52,Man
40,851454,DepthScenes,duration_manipulation_targetAtFixation,jsons/VE125_randls_47_rotated.json,http://54.235.29.9/FacialAge/BNav_EC2/DepthDuration/v2_depth_duration_MTurk/v2_DepthDuration_HTML.html#79,79,1821,833,1366,768,8-21-2022,9-36-31,41,depth_duration_stimuli/001447_2014-06-19_17-00-32_260595134347_rgbf000082-resize_5/001447_2014-06-19_17-00-32_260595134347_rgbf000082-resize_5-target.png,125,4.13775,4,5984,124,feet,jsons/VE125_randls_47_rotated.json,1437289,2265260,52,Man
41,851454,DepthScenes,duration_manipulation_targetAtFixation,jsons/VE125_randls_47_rotated.json,http://54.235.29.9/FacialAge/BNav_EC2/DepthDuration/v2_depth_duration_MTurk/v2_DepthDuration_HTML.html#79,79,1821,833,1366,768,8-21-2022,9-36-31,42,depth_duration_stimuli/000447_2014-06-08_16-15-46_260595134347_rgbf000130-resize_1/000447_2014-06-08_16-15-46_260595134347_rgbf000130-resize_1-target.png,125,4.479,4,5193,124,feet,jsons/VE125_randls_47_rotated.json,1437289,2265260,52,Man
42,851454,DepthScenes,duration_manipulation_targetAtFixation,jsons/VE125_randls_47_rotated.json,http://54.235.29.9/FacialAge/BNav_EC2/DepthDuration/v2_depth_duration_MTurk/v2_DepthDuration_HTML.html#79,79,1821,833,1366,768,8-21-2022,9-36-31,43,depth_duration_stimuli/000191_2014-05-12_17-07-38_260595134347_rgbf000199-resize_0/000191_2014-05-12_17-07-38_260595134347_rgbf000199-resize_0-target.png,125,3.7995,4,5383,115,feet,jsons/VE125_randls_47_rotated.json,1437289,2265260,52,Man
43,851454,DepthScenes,duration_manipulation_targetAtFixation,jsons/VE125_randls_47_rotated.json,http://54.235.29.9/FacialAge/BNav_EC2/DepthDuration/v2_depth_duration_MTurk/v2_DepthDuration_HTML.html#79,79,1821,833,1366,768,8-21-2022,9-36-31,44,depth_duration_stimuli/000493_2014-06-09_21-01-18_260595134347_rgbf000196-resize_3/000493_2014-06-09_21-01-18_260595134347_rgbf000196-resize_3-target.png,125,3.44,4,7397,123,feet,jsons/VE125_randls_47_rotated.json,1437289,2265260,52,Man
44,851454,DepthScenes,duration_manipulation_targetAtFixation,jsons/VE125_randls_47_rotated.json,http://54.235.29.9/FacialAge/BNav_EC2/DepthDuration/v2_depth_duration_MTurk/v2_DepthDuration_HTML.html#79,79,1821,833,1366,768,8-21-2022,9-36-31,45,depth_duration_stimuli/002875_2014-06-01_15-19-00_094959634447_rgbf000151-resize_1/002875_2014-06-01_15-19-00_094959634447_rgbf000151-resize_1-target.png,125,1.9675,2,6729,122,feet,jsons/VE125_randls_47_rotated.json,1437289,2265260,52,Man
45,851454,DepthScenes,duration_manipulation_targetAtFixation,jsons/VE125_randls_47_rotated.json,http://54.235.29.9/FacialAge/BNav_EC2/DepthDuration/v2_depth_duration_MTurk/v2_DepthDuration_HTML.html#79,79,1821,833,1366,768,8-21-2022,9-36-31,46,depth_duration_stimuli/001011_2014-06-08_23-18-54_260595134347_rgbf000044-resize_4/001011_2014-06-08_23-18-54_260595134347_rgbf000044-resize_4-target.png,125,2.4730000000000003,3,6821,124,feet,jsons/VE125_randls_47_rotated.json,1437289,2265260,52,Man
46,851454,DepthScenes,duration_manipulation_targetAtFixation,jsons/VE125_randls_47_rotated.json,http://54.235.29.9/FacialAge/BNav_EC2/DepthDuration/v2_depth_duration_MTurk/v2_DepthDuration_HTML.html#79,79,1821,833,1366,768,8-21-2022,9-36-31,47,depth_duration_stimuli/000457_2014-06-08_16-52-43_260595134347_rgbf000199-resize_1/000457_2014-06-08_16-52-43_260595134347_rgbf000199-resize_1-target.png,125,3.6489999999999996,5,26814,123,feet,jsons/VE125_randls_47_rotated.json,1437289,2265260,52,Man
47,851454,DepthScenes,duration_manipulation_targetAtFixation,jsons/VE125_randls_47_rotated.json,http://54.235.29.9/FacialAge/BNav_EC2/DepthDuration/v2_depth_duration_MTurk/v2_DepthDuration_HTML.html#79,79,1821,833,1366,768,8-21-2022,9-36-31,48,depth_duration_stimuli/000929_2014-06-09_16-33-19_260595134347_rgbf000139-resize_0/000929_2014-06-09_16-33-19_260595134347_rgbf000139-resize_0-target.png,125,2.8680000000000003,2,5216,123,feet,jsons/VE125_randls_47_rotated.json,1437289,2265260,52,Man
48,851454,DepthScenes,duration_manipulation_targetAtFixation,jsons/VE125_randls_47_rotated.json,http://54.235.29.9/FacialAge/BNav_EC2/DepthDuration/v2_depth_duration_MTurk/v2_DepthDuration_HTML.html#79,79,1821,833,1366,768,8-21-2022,9-36-31,49,depth_duration_stimuli/001170_2014-06-17_15-43-44_260595134347_rgbf000096-resize_6/001170_2014-06-17_15-43-44_260595134347_rgbf000096-resize-original.jpg,125,1.1909999999999998,0,7266,124,feet,jsons/VE125_randls_47_rotated.json,1437289,2265260,52,Man
49,851454,DepthScenes,duration_manipulation_targetAtFixation,jsons/VE125_randls_47_rotated.json,http://54.235.29.9/FacialAge/BNav_EC2/DepthDuration/v2_depth_duration_MTurk/v2_DepthDuration_HTML.html#79,79,1821,833,1366,768,8-21-2022,9-36-31,50,depth_duration_stimuli/002344_2014-06-28_20-06-29_260595134347_rgbf000030-resize_1/002344_2014-06-28_20-06-29_260595134347_rgbf000030-resize_1-target.png,125,1.5795,2,4801,108,feet,jsons/VE125_randls_47_rotated.json,1437289,2265260,52,Man
50,851454,DepthScenes,duration_manipulation_targetAtFixation,jsons/VE125_randls_47_rotated.json,http://54.235.29.9/FacialAge/BNav_EC2/DepthDuration/v2_depth_duration_MTurk/v2_DepthDuration_HTML.html#79,79,1821,833,1366,768,8-21-2022,9-36-31,51,depth_duration_stimuli/002725_2014-06-22_11-47-51_094959634447_rgbf000070-resize_1/002725_2014-06-22_11-47-51_094959634447_rgbf000070-resize_1-target.png,125,2.195,3,6086,124,feet,jsons/VE125_randls_47_rotated.json,1437289,2265260,52,Man
51,851454,DepthScenes,duration_manipulation_targetAtFixation,jsons/VE125_randls_47_rotated.json,http://54.235.29.9/FacialAge/BNav_EC2/DepthDuration/v2_depth_duration_MTurk/v2_DepthDuration_HTML.html#79,79,1821,833,1366,768,8-21-2022,9-36-31,52,depth_duration_stimuli/003228_2014-05-14_13-42-35_094959634447_rgbf000101-resize_1/003228_2014-05-14_13-42-35_094959634447_rgbf000101-resize_1-target.png,125,1.9680000000000002,3,3986,120,feet,jsons/VE125_randls_47_rotated.json,1437289,2265260,52,Man
52,851454,DepthScenes,duration_manipulation_targetAtFixation,jsons/VE125_randls_47_rotated.json,http://54.235.29.9/FacialAge/BNav_EC2/DepthDuration/v2_depth_duration_MTurk/v2_DepthDuration_HTML.html#79,79,1821,833,1366,768,8-21-2022,9-36-31,53,depth_duration_stimuli/002600_2014-06-24_14-27-04_094959634447_rgbf000074-resize_2/002600_2014-06-24_14-27-04_094959634447_rgbf000074-resize_2-target.png,125,2.7575,2,5466,123,feet,jsons/VE125_randls_47_rotated.json,1437289,2265260,52,Man
53,851454,DepthScenes,duration_manipulation_targetAtFixation,jsons/VE125_randls_47_rotated.json,http://54.235.29.9/FacialAge/BNav_EC2/DepthDuration/v2_depth_duration_MTurk/v2_DepthDuration_HTML.html#79,79,1821,833,1366,768,8-21-2022,9-36-31,54,depth_duration_stimuli/003129_2014-05-12_10-48-10_094959634447_rgbf000100-resize_0/003129_2014-05-12_10-48-10_094959634447_rgbf000100-resize_0-target.png,125,4.9305,5,5968,123,feet,jsons/VE125_randls_47_rotated.json,1437289,2265260,52,Man
54,851454,DepthScenes,duration_manipulation_targetAtFixation,jsons/VE125_randls_47_rotated.json,http://54.235.29.9/FacialAge/BNav_EC2/DepthDuration/v2_depth_duration_MTurk/v2_DepthDuration_HTML.html#79,79,1821,833,1366,768,8-21-2022,9-36-31,55,depth_duration_stimuli/000414_2014-06-04_19-49-13_260595134347_rgbf000044-resize_0/000414_2014-06-04_19-49-13_260595134347_rgbf000044-resize_0-target.png,125,4.329,0,4242,125,feet,jsons/VE125_randls_47_rotated.json,1437289,2265260,52,Man
55,851454,DepthScenes,duration_manipulation_targetAtFixation,jsons/VE125_randls_47_rotated.json,http://54.235.29.9/FacialAge/BNav_EC2/DepthDuration/v2_depth_duration_MTurk/v2_DepthDuration_HTML.html#79,79,1821,833,1366,768,8-21-2022,9-36-31,56,depth_duration_stimuli/001450_2014-06-19_17-02-03_260595134347_rgbf000203-resize_4/001450_2014-06-19_17-02-03_260595134347_rgbf000203-resize_4-target.png,125,4.0106666666667,2,5300,125,feet,jsons/VE125_randls_47_rotated.json,1437289,2265260,52,Man
56,851454,DepthScenes,duration_manipulation_targetAtFixation,jsons/VE125_randls_47_rotated.json,http://54.235.29.9/FacialAge/BNav_EC2/DepthDuration/v2_depth_duration_MTurk/v2_DepthDuration_HTML.html#79,79,1821,833,1366,768,8-21-2022,9-36-31,57,depth_duration_stimuli/001449_2014-06-19_17-01-27_260595134347_rgbf000116-resize_2/001449_2014-06-19_17-01-27_260595134347_rgbf000116-resize_2-target.png,125,3.452,3,6253,123,feet,jsons/VE125_randls_47_rotated.json,1437289,2265260,52,Man
57,851454,DepthScenes,duration_manipulation_targetAtFixation,jsons/VE125_randls_47_rotated.json,http://54.235.29.9/FacialAge/BNav_EC2/DepthDuration/v2_depth_duration_MTurk/v2_DepthDuration_HTML.html#79,79,1821,833,1366,768,8-21-2022,9-36-31,58,depth_duration_stimuli/000677_2014-06-08_23-10-32_260595134347_rgbf000158-resize_6/000677_2014-06-08_23-10-32_260595134347_rgbf000158-resize_6-target.png,125,3.556,3,6859,124,feet,jsons/VE125_randls_47_rotated.json,1437289,2265260,52,Man
58,851454,DepthScenes,duration_manipulation_targetAtFixation,jsons/VE125_randls_47_rotated.json,http://54.235.29.9/FacialAge/BNav_EC2/DepthDuration/v2_depth_duration_MTurk/v2_DepthDuration_HTML.html#79,79,1821,833,1366,768,8-21-2022,9-36-31,59,depth_duration_stimuli/001029_2014-06-08_13-17-57_260595134347_rgbf000065-resize_1/001029_2014-06-08_13-17-57_260595134347_rgbf000065-resize_1-target.png,125,3.0835,4,5878,124,feet,jsons/VE125_randls_47_rotated.json,1437289,2265260,52,Man
59,851454,DepthScenes,duration_manipulation_targetAtFixation,jsons/VE125_randls_47_rotated.json,http://54.235.29.9/FacialAge/BNav_EC2/DepthDuration/v2_depth_duration_MTurk/v2_DepthDuration_HTML.html#79,79,1821,833,1366,768,8-21-2022,9-36-31,60,depth_duration_stimuli/000691_2014-06-08_13-08-50_260595134347_rgbf000132-resize_3/000691_2014-06-08_13-08-50_260595134347_rgbf000132-resize_3-target.png,125,4.1530000000000005,4,5704,124,feet,jsons/VE125_randls_47_rotated.json,1437289,2265260,52,Man
60,851454,DepthScenes,duration_manipulation_targetAtFixation,jsons/VE125_randls_47_rotated.json,http://54.235.29.9/FacialAge/BNav_EC2/DepthDuration/v2_depth_duration_MTurk/v2_DepthDuration_HTML.html#79,79,1821,833,1366,768,8-21-2022,9-36-31,61,depth_duration_stimuli/002213_2014-06-28_18-37-58_260595134347_rgbf000055-resize_1/002213_2014-06-28_18-37-58_260595134347_rgbf000055-resize_1-target.png,125,3.62,3,4283,124,feet,jsons/VE125_randls_47_rotated.json,1437289,2265260,52,Man
61,851454,DepthScenes,duration_manipulation_targetAtFixation,jsons/VE125_randls_47_rotated.json,http://54.235.29.9/FacialAge/BNav_EC2/DepthDuration/v2_depth_duration_MTurk/v2_DepthDuration_HTML.html#79,79,1821,833,1366,768,8-21-2022,9-36-31,62,depth_duration_stimuli/003083_2014-06-15_15-21-03_094959634447_rgbf000063-resize_1/003083_2014-06-15_15-21-03_094959634447_rgbf000063-resize_1-target.png,125,4.1405,6,4844,123,feet,jsons/VE125_randls_47_rotated.json,1437289,2265260,52,Man
62,851454,DepthScenes,duration_manipulation_targetAtFixation,jsons/VE125_randls_47_rotated.json,http://54.235.29.9/FacialAge/BNav_EC2/DepthDuration/v2_depth_duration_MTurk/v2_DepthDuration_HTML.html#79,79,1821,833,1366,768,8-21-2022,9-36-31,63,depth_duration_stimuli/000486_2014-06-09_20-47-20_260595134347_rgbf000143-resize_2/000486_2014-06-09_20-47-20_260595134347_rgbf000143-resize_2-target.png,125,4.8325,1,4263,124,feet,jsons/VE125_randls_47_rotated.json,1437289,2265260,52,Man
63,851454,DepthScenes,duration_manipulation_targetAtFixation,jsons/VE125_randls_47_rotated.json,http://54.235.29.9/FacialAge/BNav_EC2/DepthDuration/v2_depth_duration_MTurk/v2_DepthDuration_HTML.html#79,79,1821,833,1366,768,8-21-2022,9-36-31,64,depth_duration_stimuli/001617_2014-06-20_11-35-32_260595134347_rgbf000066-resize_1/001617_2014-06-20_11-35-32_260595134347_rgbf000066-resize_1-target.png,125,3.7910000000000004,1,7722,126,feet,jsons/VE125_randls_47_rotated.json,1437289,2265260,52,Man
64,851454,DepthScenes,duration_manipulation_targetAtFixation,jsons/VE125_randls_47_rotated.json,http://54.235.29.9/FacialAge/BNav_EC2/DepthDuration/v2_depth_duration_MTurk/v2_DepthDuration_HTML.html#79,79,1821,833,1366,768,8-21-2022,9-36-31,65,depth_duration_stimuli/001806_2014-06-26_20-50-20_260595134347_rgbf000091-resize_1/001806_2014-06-26_20-50-20_260595134347_rgbf000091-resize_1-target.png,125,2.7305,3,4823,123,feet,jsons/VE125_randls_47_rotated.json,1437289,2265260,52,Man
65,851454,DepthScenes,duration_manipulation_targetAtFixation,jsons/VE125_randls_47_rotated.json,http://54.235.29.9/FacialAge/BNav_EC2/DepthDuration/v2_depth_duration_MTurk/v2_DepthDuration_HTML.html#79,79,1821,833,1366,768,8-21-2022,9-36-31,66,depth_duration_stimuli/001540_2014-06-20_17-01-05_260595134347_rgbf000086-resize_2/001540_2014-06-20_17-01-05_260595134347_rgbf000086-resize-original.jpg,125,1.459,0,24005,124,feet,jsons/VE125_randls_47_rotated.json,1437289,2265260,52,Man
66,851454,DepthScenes,duration_manipulation_targetAtFixation,jsons/VE125_randls_47_rotated.json,http://54.235.29.9/FacialAge/BNav_EC2/DepthDuration/v2_depth_duration_MTurk/v2_DepthDuration_HTML.html#79,79,1821,833,1366,768,8-21-2022,9-36-31,67,depth_duration_stimuli/001094_2014-06-15_17-36-00_260595134347_rgbf000205-resize_0/001094_2014-06-15_17-36-00_260595134347_rgbf000205-resize_0-target.png,125,4.2175,3,14298,123,feet,jsons/VE125_randls_47_rotated.json,1437289,2265260,52,Man
67,851454,DepthScenes,duration_manipulation_targetAtFixation,jsons/VE125_randls_47_rotated.json,http://54.235.29.9/FacialAge/BNav_EC2/DepthDuration/v2_depth_duration_MTurk/v2_DepthDuration_HTML.html#79,79,1821,833,1366,768,8-21-2022,9-36-31,68,depth_duration_stimuli/000692_2014-06-08_13-09-42_260595134347_rgbf000199-resize_2/000692_2014-06-08_13-09-42_260595134347_rgbf000199-resize_2-target.png,125,3.661,3,5962,110,feet,jsons/VE125_randls_47_rotated.json,1437289,2265260,52,Man
68,851454,DepthScenes,duration_manipulation_targetAtFixation,jsons/VE125_randls_47_rotated.json,http://54.235.29.9/FacialAge/BNav_EC2/DepthDuration/v2_depth_duration_MTurk/v2_DepthDuration_HTML.html#79,79,1821,833,1366,768,8-21-2022,9-36-31,69,depth_duration_stimuli/000502_2014-06-08_23-02-32_260595134347_rgbf000063-resize_4/000502_2014-06-08_23-02-32_260595134347_rgbf000063-resize_4-target.png,125,2.431,1,26959,119,feet,jsons/VE125_randls_47_rotated.json,1437289,2265260,52,Man
69,851454,DepthScenes,duration_manipulation_targetAtFixation,jsons/VE125_randls_47_rotated.json,http://54.235.29.9/FacialAge/BNav_EC2/DepthDuration/v2_depth_duration_MTurk/v2_DepthDuration_HTML.html#79,79,1821,833,1366,768,8-21-2022,9-36-31,70,depth_duration_stimuli/001199_2014-06-17_16-03-48_260595134347_rgbf000077-resize_0/001199_2014-06-17_16-03-48_260595134347_rgbf000077-resize_0-target.png,125,3.4375,2,6130,123,feet,jsons/VE125_randls_47_rotated.json,1437289,2265260,52,Man
70,851454,DepthScenes,duration_manipulation_targetAtFixation,jsons/VE125_randls_47_rotated.json,http://54.235.29.9/FacialAge/BNav_EC2/DepthDuration/v2_depth_duration_MTurk/v2_DepthDuration_HTML.html#79,79,1821,833,1366,768,8-21-2022,9-36-31,71,depth_duration_stimuli/002340_2014-06-28_20-05-46_260595134347_rgbf000113-resize_0/002340_2014-06-28_20-05-46_260595134347_rgbf000113-resize_0-target.png,125,2.4735,3,4682,122,feet,jsons/VE125_randls_47_rotated.json,1437289,2265260,52,Man
71,851454,DepthScenes,duration_manipulation_targetAtFixation,jsons/VE125_randls_47_rotated.json,http://54.235.29.9/FacialAge/BNav_EC2/DepthDuration/v2_depth_duration_MTurk/v2_DepthDuration_HTML.html#79,79,1821,833,1366,768,8-21-2022,9-36-31,72,depth_duration_stimuli/001016_2014-06-09_16-16-10_260595134347_rgbf000112-resize_5/001016_2014-06-09_16-16-10_260595134347_rgbf000112-resize_5-target.png,125,1.6565,3,37431,123,feet,jsons/VE125_randls_47_rotated.json,1437289,2265260,52,Man
72,851454,DepthScenes,duration_manipulation_targetAtFixation,jsons/VE125_randls_47_rotated.json,http://54.235.29.9/FacialAge/BNav_EC2/DepthDuration/v2_depth_duration_MTurk/v2_DepthDuration_HTML.html#79,79,1821,833,1366,768,8-21-2022,9-36-31,73,depth_duration_stimuli/002949_2014-06-26_15-57-42_094959634447_rgbf000079-resize_1/002949_2014-06-26_15-57-42_094959634447_rgbf000079-resize_1-target.png,125,1.8915,2,6194,124,feet,jsons/VE125_randls_47_rotated.json,1437289,2265260,52,Man
73,851454,DepthScenes,duration_manipulation_targetAtFixation,jsons/VE125_randls_47_rotated.json,http://54.235.29.9/FacialAge/BNav_EC2/DepthDuration/v2_depth_duration_MTurk/v2_DepthDuration_HTML.html#79,79,1821,833,1366,768,8-21-2022,9-36-31,74,depth_duration_stimuli/000522_2014-06-08_13-35-06_260595134347_rgbf000244-resize_1/000522_2014-06-08_13-35-06_260595134347_rgbf000244-resize_1-target.png,125,2.3715,2,6700,123,feet,jsons/VE125_randls_47_rotated.json,1437289,2265260,52,Man
74,851454,DepthScenes,duration_manipulation_targetAtFixation,jsons/VE125_randls_47_rotated.json,http://54.235.29.9/FacialAge/BNav_EC2/DepthDuration/v2_depth_duration_MTurk/v2_DepthDuration_HTML.html#79,79,1821,833,1366,768,8-21-2022,9-36-31,75,depth_duration_stimuli/001052_2014-06-08_18-24-54_260595134347_rgbf000130-resize_1/001052_2014-06-08_18-24-54_260595134347_rgbf000130-resize_1-target.png,125,4.1045,3,4200,125,feet,jsons/VE125_randls_47_rotated.json,1437289,2265260,52,Man
75,851454,DepthScenes,duration_manipulation_targetAtFixation,jsons/VE125_randls_47_rotated.json,http://54.235.29.9/FacialAge/BNav_EC2/DepthDuration/v2_depth_duration_MTurk/v2_DepthDuration_HTML.html#79,79,1821,833,1366,768,8-21-2022,9-36-31,76,depth_duration_stimuli/002988_2014-06-15_12-24-20_094959634447_rgbf000150-resize_1/002988_2014-06-15_12-24-20_094959634447_rgbf000150-resize_1-target.png,125,4.7669999999999995,3,68587,124,feet,jsons/VE125_randls_47_rotated.json,1437289,2265260,52,Man
76,851454,DepthScenes,duration_manipulation_targetAtFixation,jsons/VE125_randls_47_rotated.json,http://54.235.29.9/FacialAge/BNav_EC2/DepthDuration/v2_depth_duration_MTurk/v2_DepthDuration_HTML.html#79,79,1821,833,1366,768,8-21-2022,9-36-31,77,depth_duration_stimuli/002425_2014-06-28_20-27-29_260595134347_rgbf000031-resize_8/002425_2014-06-28_20-27-29_260595134347_rgbf000031-resize_8-target.png,125,3.8960000000000004,0,14570,123,feet,jsons/VE125_randls_47_rotated.json,1437289,2265260,52,Man
77,851454,DepthScenes,duration_manipulation_targetAtFixation,jsons/VE125_randls_47_rotated.json,http://54.235.29.9/FacialAge/BNav_EC2/DepthDuration/v2_depth_duration_MTurk/v2_DepthDuration_HTML.html#79,79,1821,833,1366,768,8-21-2022,9-36-31,78,depth_duration_stimuli/000642_2014-06-08_16-59-25_260595134347_rgbf000098-resize_2/000642_2014-06-08_16-59-25_260595134347_rgbf000098-resize_2-target.png,125,2.8815,3,8371,122,feet,jsons/VE125_randls_47_rotated.json,1437289,2265260,52,Man
78,851454,DepthScenes,duration_manipulation_targetAtFixation,jsons/VE125_randls_47_rotated.json,http://54.235.29.9/FacialAge/BNav_EC2/DepthDuration/v2_depth_duration_MTurk/v2_DepthDuration_HTML.html#79,79,1821,833,1366,768,8-21-2022,9-36-31,79,depth_duration_stimuli/002545_2014-06-24_13-38-53_094959634447_rgbf000080-resize_4/002545_2014-06-24_13-38-53_094959634447_rgbf000080-resize_4-target.png,125,1.9205,2,18679,122,feet,jsons/VE125_randls_47_rotated.json,1437289,2265260,52,Man
79,851454,DepthScenes,duration_manipulation_targetAtFixation,jsons/VE125_randls_47_rotated.json,http://54.235.29.9/FacialAge/BNav_EC2/DepthDuration/v2_depth_duration_MTurk/v2_DepthDuration_HTML.html#79,79,1821,833,1366,768,8-21-2022,9-36-31,80,depth_duration_stimuli/001092_2014-06-15_17-34-58_260595134347_rgbf000171-resize_3/001092_2014-06-15_17-34-58_260595134347_rgbf000171-resize_3-target.png,125,2.6935,3,5818,118,feet,jsons/VE125_randls_47_rotated.json,1437289,2265260,52,Man
80,851454,DepthScenes,duration_manipulation_targetAtFixation,jsons/VE125_randls_47_rotated.json,http://54.235.29.9/FacialAge/BNav_EC2/DepthDuration/v2_depth_duration_MTurk/v2_DepthDuration_HTML.html#79,79,1821,833,1366,768,8-21-2022,9-36-31,81,depth_duration_stimuli/001815_2014-06-26_20-52-55_260595134347_rgbf000020-resize_0/001815_2014-06-26_20-52-55_260595134347_rgbf000020-resize_0-target.png,125,3.3865,3,55901,125,feet,jsons/VE125_randls_47_rotated.json,1437289,2265260,52,Man
81,851454,DepthScenes,duration_manipulation_targetAtFixation,jsons/VE125_randls_47_rotated.json,http://54.235.29.9/FacialAge/BNav_EC2/DepthDuration/v2_depth_duration_MTurk/v2_DepthDuration_HTML.html#79,79,1821,833,1366,768,8-21-2022,9-36-31,82,depth_duration_stimuli/001808_2014-06-26_20-50-58_260595134347_rgbf000029-resize_1/001808_2014-06-26_20-50-58_260595134347_rgbf000029-resize_1-target.png,125,4.249,4,9652,127,feet,jsons/VE125_randls_47_rotated.json,1437289,2265260,52,Man
82,851454,DepthScenes,duration_manipulation_targetAtFixation,jsons/VE125_randls_47_rotated.json,http://54.235.29.9/FacialAge/BNav_EC2/DepthDuration/v2_depth_duration_MTurk/v2_DepthDuration_HTML.html#79,79,1821,833,1366,768,8-21-2022,9-36-31,83,depth_duration_stimuli/001032_2014-06-08_13-23-17_260595134347_rgbf000021-resize_3/001032_2014-06-08_13-23-17_260595134347_rgbf000021-resize_3-target.png,125,3.2725,4,6844,120,feet,jsons/VE125_randls_47_rotated.json,1437289,2265260,52,Man
83,851454,DepthScenes,duration_manipulation_targetAtFixation,jsons/VE125_randls_47_rotated.json,http://54.235.29.9/FacialAge/BNav_EC2/DepthDuration/v2_depth_duration_MTurk/v2_DepthDuration_HTML.html#79,79,1821,833,1366,768,8-21-2022,9-36-31,84,depth_duration_stimuli/001059_2014-06-08_21-53-27_260595134347_rgbf000061-resize_4/001059_2014-06-08_21-53-27_260595134347_rgbf000061-resize_4-target.png,125,2.4185,3,5440,124,feet,jsons/VE125_randls_47_rotated.json,1437289,2265260,52,Man
84,851454,DepthScenes,duration_manipulation_targetAtFixation,jsons/VE125_randls_47_rotated.json,http://54.235.29.9/FacialAge/BNav_EC2/DepthDuration/v2_depth_duration_MTurk/v2_DepthDuration_HTML.html#79,79,1821,833,1366,768,8-21-2022,9-36-31,85,depth_duration_stimuli/002660_2014-06-13_15-44-18_094959634447_rgbf001878-resize_2/002660_2014-06-13_15-44-18_094959634447_rgbf001878-resize_2-target.png,125,3.576,4,5939,124,feet,jsons/VE125_randls_47_rotated.json,1437289,2265260,52,Man
85,851454,DepthScenes,duration_manipulation_targetAtFixation,jsons/VE125_randls_47_rotated.json,http://54.235.29.9/FacialAge/BNav_EC2/DepthDuration/v2_depth_duration_MTurk/v2_DepthDuration_HTML.html#79,79,1821,833,1366,768,8-21-2022,9-36-31,86,depth_duration_stimuli/002153_2014-06-25_21-27-18_260595134347_rgbf000038-resize_5/002153_2014-06-25_21-27-18_260595134347_rgbf000038-resize_5-target.png,125,2.505,4,4513,110,feet,jsons/VE125_randls_47_rotated.json,1437289,2265260,52,Man
86,851454,DepthScenes,duration_manipulation_targetAtFixation,jsons/VE125_randls_47_rotated.json,http://54.235.29.9/FacialAge/BNav_EC2/DepthDuration/v2_depth_duration_MTurk/v2_DepthDuration_HTML.html#79,79,1821,833,1366,768,8-21-2022,9-36-31,87,depth_duration_stimuli/003079_2014-06-15_15-18-20_094959634447_rgbf000152-resize_8/003079_2014-06-15_15-18-20_094959634447_rgbf000152-resize_8-target.png,125,2.8775,4,5448,124,feet,jsons/VE125_randls_47_rotated.json,1437289,2265260,52,Man
87,851454,DepthScenes,duration_manipulation_targetAtFixation,jsons/VE125_randls_47_rotated.json,http://54.235.29.9/FacialAge/BNav_EC2/DepthDuration/v2_depth_duration_MTurk/v2_DepthDuration_HTML.html#79,79,1821,833,1366,768,8-21-2022,9-36-31,88,depth_duration_stimuli/000506_2014-06-08_23-21-00_260595134347_rgbf000070-resize_7/000506_2014-06-08_23-21-00_260595134347_rgbf000070-resize_7-target.png,125,4.0585,5,5194,120,feet,jsons/VE125_randls_47_rotated.json,1437289,2265260,52,Man
88,851454,DepthScenes,duration_manipulation_targetAtFixation,jsons/VE125_randls_47_rotated.json,http://54.235.29.9/FacialAge/BNav_EC2/DepthDuration/v2_depth_duration_MTurk/v2_DepthDuration_HTML.html#79,79,1821,833,1366,768,8-21-2022,9-36-31,89,depth_duration_stimuli/003423_2014-05-21_10-23-26_094959634447_rgbf002665-resize_2/003423_2014-05-21_10-23-26_094959634447_rgbf002665-resize_2-target.png,125,3.2575,5,4933,124,feet,jsons/VE125_randls_47_rotated.json,1437289,2265260,52,Man
89,851454,DepthScenes,duration_manipulation_targetAtFixation,jsons/VE125_randls_47_rotated.json,http://54.235.29.9/FacialAge/BNav_EC2/DepthDuration/v2_depth_duration_MTurk/v2_DepthDuration_HTML.html#79,79,1821,833,1366,768,8-21-2022,9-36-31,90,depth_duration_stimuli/002905_2014-06-03_18-04-43_094959634447_rgbf000151-resize_2/002905_2014-06-03_18-04-43_094959634447_rgbf000151-resize_2-target.png,125,2.0295,2,4444,125,feet,jsons/VE125_randls_47_rotated.json,1437289,2265260,52,Man
90,851454,DepthScenes,duration_manipulation_targetAtFixation,jsons/VE125_randls_47_rotated.json,http://54.235.29.9/FacialAge/BNav_EC2/DepthDuration/v2_depth_duration_MTurk/v2_DepthDuration_HTML.html#79,79,1821,833,1366,768,8-21-2022,9-36-31,91,depth_duration_stimuli/002639_2014-06-24_14-51-37_094959634447_rgbf000074-resize_4/002639_2014-06-24_14-51-37_094959634447_rgbf000074-resize_4-target.png,125,4.0375,4,5000,123,feet,jsons/VE125_randls_47_rotated.json,1437289,2265260,52,Man
91,851454,DepthScenes,duration_manipulation_targetAtFixation,jsons/VE125_randls_47_rotated.json,http://54.235.29.9/FacialAge/BNav_EC2/DepthDuration/v2_depth_duration_MTurk/v2_DepthDuration_HTML.html#79,79,1821,833,1366,768,8-21-2022,9-36-31,92,depth_duration_stimuli/003292_2014-05-14_21-53-49_094959634447_rgbf000100-resize_2/003292_2014-05-14_21-53-49_094959634447_rgbf000100-resize_2-target.png,125,3.4815,4,7037,124,feet,jsons/VE125_randls_47_rotated.json,1437289,2265260,52,Man
92,851454,DepthScenes,duration_manipulation_targetAtFixation,jsons/VE125_randls_47_rotated.json,http://54.235.29.9/FacialAge/BNav_EC2/DepthDuration/v2_depth_duration_MTurk/v2_DepthDuration_HTML.html#79,79,1821,833,1366,768,8-21-2022,9-36-31,93,depth_duration_stimuli/001136_2014-06-17_15-19-41_260595134347_rgbf000076-resize_3/001136_2014-06-17_15-19-41_260595134347_rgbf000076-resize_3-target.png,125,1.8655,4,5626,124,feet,jsons/VE125_randls_47_rotated.json,1437289,2265260,52,Man
93,851454,DepthScenes,duration_manipulation_targetAtFixation,jsons/VE125_randls_47_rotated.json,http://54.235.29.9/FacialAge/BNav_EC2/DepthDuration/v2_depth_duration_MTurk/v2_DepthDuration_HTML.html#79,79,1821,833,1366,768,8-21-2022,9-36-31,94,depth_duration_stimuli/001164_2014-06-17_15-35-46_260595134347_rgbf000085-resize_3/001164_2014-06-17_15-35-46_260595134347_rgbf000085-resize_3-target.png,125,2.354,4,5128,124,feet,jsons/VE125_randls_47_rotated.json,1437289,2265260,52,Man
94,851454,DepthScenes,duration_manipulation_targetAtFixation,jsons/VE125_randls_47_rotated.json,http://54.235.29.9/FacialAge/BNav_EC2/DepthDuration/v2_depth_duration_MTurk/v2_DepthDuration_HTML.html#79,79,1821,833,1366,768,8-21-2022,9-36-31,95,depth_duration_stimuli/000103_2014-05-14_22-01-17_260595134347_rgbf000152-resize_5/000103_2014-05-14_22-01-17_260595134347_rgbf000152-resize_5-target.png,125,1.993,3,5368,121,feet,jsons/VE125_randls_47_rotated.json,1437289,2265260,52,Man
95,851454,DepthScenes,duration_manipulation_targetAtFixation,jsons/VE125_randls_47_rotated.json,http://54.235.29.9/FacialAge/BNav_EC2/DepthDuration/v2_depth_duration_MTurk/v2_DepthDuration_HTML.html#79,79,1821,833,1366,768,8-21-2022,9-36-31,96,depth_duration_stimuli/001555_2014-06-20_17-12-10_260595134347_rgbf000065-resize_4/001555_2014-06-20_17-12-10_260595134347_rgbf000065-resize_4-target.png,125,1.633,1,5974,124,feet,jsons/VE125_randls_47_rotated.json,1437289,2265260,52,Man
96,851454,DepthScenes,duration_manipulation_targetAtFixation,jsons/VE125_randls_47_rotated.json,http://54.235.29.9/FacialAge/BNav_EC2/DepthDuration/v2_depth_duration_MTurk/v2_DepthDuration_HTML.html#79,79,1821,833,1366,768,8-21-2022,9-36-31,97,depth_duration_stimuli/000709_2014-06-08_13-51-55_260595134347_rgbf000068-resize_3/000709_2014-06-08_13-51-55_260595134347_rgbf000068-resize_3-target.png,125,1.8030000000000002,2,4081,124,feet,jsons/VE125_randls_47_rotated.json,1437289,2265260,52,Man
97,851454,DepthScenes,duration_manipulation_targetAtFixation,jsons/VE125_randls_47_rotated.json,http://54.235.29.9/FacialAge/BNav_EC2/DepthDuration/v2_depth_duration_MTurk/v2_DepthDuration_HTML.html#79,79,1821,833,1366,768,8-21-2022,9-36-31,98,depth_duration_stimuli/002057_2014-06-24_21-00-13_260595134347_rgbf000120-resize_1/002057_2014-06-24_21-00-13_260595134347_rgbf000120-resize_1-target.png,125,2.967,1,5682,113,feet,jsons/VE125_randls_47_rotated.json,1437289,2265260,52,Man
98,851454,DepthScenes,duration_manipulation_targetAtFixation,jsons/VE125_randls_47_rotated.json,http://54.235.29.9/FacialAge/BNav_EC2/DepthDuration/v2_depth_duration_MTurk/v2_DepthDuration_HTML.html#79,79,1821,833,1366,768,8-21-2022,9-36-31,99,depth_duration_stimuli/001222_2014-06-17_16-24-06_260595134347_rgbf000073-resize_0/001222_2014-06-17_16-24-06_260595134347_rgbf000073-resize-original.jpg,125,1.4385,0,5839,120,feet,jsons/VE125_randls_47_rotated.json,1437289,2265260,52,Man
99,851454,DepthScenes,duration_manipulation_targetAtFixation,jsons/VE125_randls_47_rotated.json,http://54.235.29.9/FacialAge/BNav_EC2/DepthDuration/v2_depth_duration_MTurk/v2_DepthDuration_HTML.html#79,79,1821,833,1366,768,8-21-2022,9-36-31,100,depth_duration_stimuli/002637_2014-06-24_14-51-13_094959634447_rgbf000066-resize_4/002637_2014-06-24_14-51-13_094959634447_rgbf000066-resize_4-target.png,125,1.9955,2,5909,125,feet,jsons/VE125_randls_47_rotated.json,1437289,2265260,52,Man
100,851454,DepthScenes,duration_manipulation_targetAtFixation,jsons/VE125_randls_47_rotated.json,http://54.235.29.9/FacialAge/BNav_EC2/DepthDuration/v2_depth_duration_MTurk/v2_DepthDuration_HTML.html#79,79,1821,833,1366,768,8-21-2022,9-36-31,101,depth_duration_stimuli/003534_2014-05-22_15-06-10_094959634447_rgbf000102-resize_4/003534_2014-05-22_15-06-10_094959634447_rgbf000102-resize_4-target.png,125,1.426,2,3715,125,feet,jsons/VE125_randls_47_rotated.json,1437289,2265260,52,Man
101,851454,DepthScenes,duration_manipulation_targetAtFixation,jsons/VE125_randls_47_rotated.json,http://54.235.29.9/FacialAge/BNav_EC2/DepthDuration/v2_depth_duration_MTurk/v2_DepthDuration_HTML.html#79,79,1821,833,1366,768,8-21-2022,9-36-31,102,depth_duration_stimuli/000409_2014-06-04_19-23-33_260595134347_rgbf000067-resize_0/000409_2014-06-04_19-23-33_260595134347_rgbf000067-resize_0-target.png,125,3.7335,2,6534,125,feet,jsons/VE125_randls_47_rotated.json,1437289,2265260,52,Man
102,851454,DepthScenes,duration_manipulation_targetAtFixation,jsons/VE125_randls_47_rotated.json,http://54.235.29.9/FacialAge/BNav_EC2/DepthDuration/v2_depth_duration_MTurk/v2_DepthDuration_HTML.html#79,79,1821,833,1366,768,8-21-2022,9-36-31,103,depth_duration_stimuli/002663_2014-06-13_15-50-26_094959634447_rgbf000075-resize_1/002663_2014-06-13_15-50-26_094959634447_rgbf000075-resize_1-target.png,125,4.7495,3,3752,124,feet,jsons/VE125_randls_47_rotated.json,1437289,2265260,52,Man
103,851454,DepthScenes,duration_manipulation_targetAtFixation,jsons/VE125_randls_47_rotated.json,http://54.235.29.9/FacialAge/BNav_EC2/DepthDuration/v2_depth_duration_MTurk/v2_DepthDuration_HTML.html#79,79,1821,833,1366,768,8-21-2022,9-36-31,104,depth_duration_stimuli/002678_2014-06-13_16-15-32_094959634447_rgbf000151-resize_6/002678_2014-06-13_16-15-32_094959634447_rgbf000151-resize_6-target.png,125,2.1830000000000003,2,5031,125,feet,jsons/VE125_randls_47_rotated.json,1437289,2265260,52,Man
104,851454,DepthScenes,duration_manipulation_targetAtFixation,jsons/VE125_randls_47_rotated.json,http://54.235.29.9/FacialAge/BNav_EC2/DepthDuration/v2_depth_duration_MTurk/v2_DepthDuration_HTML.html#79,79,1821,833,1366,768,8-21-2022,9-36-31,105,depth_duration_stimuli/000368_2014-06-09_15-53-01_260595134347_rgbf000155-resize_2/000368_2014-06-09_15-53-01_260595134347_rgbf000155-resize_2-target.png,125,2.4859999999999998,2,4297,123,feet,jsons/VE125_randls_47_rotated.json,1437289,2265260,52,Man
105,851454,DepthScenes,duration_manipulation_targetAtFixation,jsons/VE125_randls_47_rotated.json,http://54.235.29.9/FacialAge/BNav_EC2/DepthDuration/v2_depth_duration_MTurk/v2_DepthDuration_HTML.html#79,79,1821,833,1366,768,8-21-2022,9-36-31,106,depth_duration_stimuli/002414_2014-06-28_20-24-58_260595134347_rgbf000067-resize_4/002414_2014-06-28_20-24-58_260595134347_rgbf000067-resize_4-target.png,125,4.363,3,5518,125,feet,jsons/VE125_randls_47_rotated.json,1437289,2265260,52,Man
106,851454,DepthScenes,duration_manipulation_targetAtFixation,jsons/VE125_randls_47_rotated.json,http://54.235.29.9/FacialAge/BNav_EC2/DepthDuration/v2_depth_duration_MTurk/v2_DepthDuration_HTML.html#79,79,1821,833,1366,768,8-21-2022,9-36-31,107,depth_duration_stimuli/000773_2014-06-08_22-24-54_260595134347_rgbf000093-resize_1/000773_2014-06-08_22-24-54_260595134347_rgbf000093-resize_1-target.png,125,4.973,3,3768,118,feet,jsons/VE125_randls_47_rotated.json,1437289,2265260,52,Man
107,851454,DepthScenes,duration_manipulation_targetAtFixation,jsons/VE125_randls_47_rotated.json,http://54.235.29.9/FacialAge/BNav_EC2/DepthDuration/v2_depth_duration_MTurk/v2_DepthDuration_HTML.html#79,79,1821,833,1366,768,8-21-2022,9-36-31,108,depth_duration_stimuli/000780_2014-06-08_22-28-29_260595134347_rgbf000126-resize_1/000780_2014-06-08_22-28-29_260595134347_rgbf000126-resize_1-target.png,125,3.3825,4,3733,109,feet,jsons/VE125_randls_47_rotated.json,1437289,2265260,52,Man
108,851454,DepthScenes,duration_manipulation_targetAtFixation,jsons/VE125_randls_47_rotated.json,http://54.235.29.9/FacialAge/BNav_EC2/DepthDuration/v2_depth_duration_MTurk/v2_DepthDuration_HTML.html#79,79,1821,833,1366,768,8-21-2022,9-36-31,109,depth_duration_stimuli/002445_2014-06-28_20-32-16_260595134347_rgbf000029-resize_4/002445_2014-06-28_20-32-16_260595134347_rgbf000029-resize_4-target.png,125,2.5315,3,5638,123,feet,jsons/VE125_randls_47_rotated.json,1437289,2265260,52,Man
109,851454,DepthScenes,duration_manipulation_targetAtFixation,jsons/VE125_randls_47_rotated.json,http://54.235.29.9/FacialAge/BNav_EC2/DepthDuration/v2_depth_duration_MTurk/v2_DepthDuration_HTML.html#79,79,1821,833,1366,768,8-21-2022,9-36-31,110,depth_duration_stimuli/000742_2014-06-08_18-48-09_260595134347_rgbf000164-resize_4/000742_2014-06-08_18-48-09_260595134347_rgbf000164-resize_4-target.png,125,4.632,4,5579,123,feet,jsons/VE125_randls_47_rotated.json,1437289,2265260,52,Man
110,851454,DepthScenes,duration_manipulation_targetAtFixation,jsons/VE125_randls_47_rotated.json,http://54.235.29.9/FacialAge/BNav_EC2/DepthDuration/v2_depth_duration_MTurk/v2_DepthDuration_HTML.html#79,79,1821,833,1366,768,8-21-2022,9-36-31,111,depth_duration_stimuli/001066_2014-06-08_22-03-20_260595134347_rgbf000066-resize_4/001066_2014-06-08_22-03-20_260595134347_rgbf000066-resize_4-target.png,125,4.2330000000000005,4,4034,139,feet,jsons/VE125_randls_47_rotated.json,1437289,2265260,52,Man
111,851454,DepthScenes,duration_manipulation_targetAtFixation,jsons/VE125_randls_47_rotated.json,http://54.235.29.9/FacialAge/BNav_EC2/DepthDuration/v2_depth_duration_MTurk/v2_DepthDuration_HTML.html#79,79,1821,833,1366,768,8-21-2022,9-36-31,112,depth_duration_stimuli/001392_2014-06-19_16-07-59_260595134347_rgbf000046-resize_1/001392_2014-06-19_16-07-59_260595134347_rgbf000046-resize_1-target.png,125,4.135,4,5335,124,feet,jsons/VE125_randls_47_rotated.json,1437289,2265260,52,Man
112,851454,DepthScenes,duration_manipulation_targetAtFixation,jsons/VE125_randls_47_rotated.json,http://54.235.29.9/FacialAge/BNav_EC2/DepthDuration/v2_depth_duration_MTurk/v2_DepthDuration_HTML.html#79,79,1821,833,1366,768,8-21-2022,9-36-31,113,depth_duration_stimuli/001570_2014-06-20_17-21-09_260595134347_rgbf000135-resize_4/001570_2014-06-20_17-21-09_260595134347_rgbf000135-resize_4-target.png,125,4.467,4,4238,123,feet,jsons/VE125_randls_47_rotated.json,1437289,2265260,52,Man
113,851454,DepthScenes,duration_manipulation_targetAtFixation,jsons/VE125_randls_47_rotated.json,http://54.235.29.9/FacialAge/BNav_EC2/DepthDuration/v2_depth_duration_MTurk/v2_DepthDuration_HTML.html#79,79,1821,833,1366,768,8-21-2022,9-36-31,114,depth_duration_stimuli/000854_2014-06-09_19-43-13_260595134347_rgbf000066-resize_0/000854_2014-06-09_19-43-13_260595134347_rgbf000066-resize_0-target.png,125,3.068,2,6196,124,feet,jsons/VE125_randls_47_rotated.json,1437289,2265260,52,Man
114,851454,DepthScenes,duration_manipulation_targetAtFixation,jsons/VE125_randls_47_rotated.json,http://54.235.29.9/FacialAge/BNav_EC2/DepthDuration/v2_depth_duration_MTurk/v2_DepthDuration_HTML.html#79,79,1821,833,1366,768,8-21-2022,9-36-31,115,depth_duration_stimuli/000758_2014-06-08_22-05-08_260595134347_rgbf000085-resize_0/000758_2014-06-08_22-05-08_260595134347_rgbf000085-resize_0-target.png,125,3.3810000000000002,2,4375,124,feet,jsons/VE125_randls_47_rotated.json,1437289,2265260,52,Man
115,851454,DepthScenes,duration_manipulation_targetAtFixation,jsons/VE125_randls_47_rotated.json,http://54.235.29.9/FacialAge/BNav_EC2/DepthDuration/v2_depth_duration_MTurk/v2_DepthDuration_HTML.html#79,79,1821,833,1366,768,8-21-2022,9-36-31,116,depth_duration_stimuli/000635_2014-06-08_16-38-42_260595134347_rgbf000106-resize_1/000635_2014-06-08_16-38-42_260595134347_rgbf000106-resize_1-target.png,125,2.074,2,8990,124,feet,jsons/VE125_randls_47_rotated.json,1437289,2265260,52,Man
116,851454,DepthScenes,duration_manipulation_targetAtFixation,jsons/VE125_randls_47_rotated.json,http://54.235.29.9/FacialAge/BNav_EC2/DepthDuration/v2_depth_duration_MTurk/v2_DepthDuration_HTML.html#79,79,1821,833,1366,768,8-21-2022,9-36-31,117,depth_duration_stimuli/002279_2014-06-28_18-55-32_260595134347_rgbf000040-resize_5/002279_2014-06-28_18-55-32_260595134347_rgbf000040-resize_5-target.png,125,1.5043333333333,2,6601,124,feet,jsons/VE125_randls_47_rotated.json,1437289,2265260,52,Man
117,851454,DepthScenes,duration_manipulation_targetAtFixation,jsons/VE125_randls_47_rotated.json,http://54.235.29.9/FacialAge/BNav_EC2/DepthDuration/v2_depth_duration_MTurk/v2_DepthDuration_HTML.html#79,79,1821,833,1366,768,8-21-2022,9-36-31,118,depth_duration_stimuli/002136_2014-06-25_21-18-03_260595134347_rgbf000109-resize_3/002136_2014-06-25_21-18-03_260595134347_rgbf000109-resize_3-target.png,125,1.9569999999999999,3,6383,126,feet,jsons/VE125_randls_47_rotated.json,1437289,2265260,52,Man
118,851454,DepthScenes,duration_manipulation_targetAtFixation,jsons/VE125_randls_47_rotated.json,http://54.235.29.9/FacialAge/BNav_EC2/DepthDuration/v2_depth_duration_MTurk/v2_DepthDuration_HTML.html#79,79,1821,833,1366,768,8-21-2022,9-36-31,119,depth_duration_stimuli/002964_2014-06-08_17-46-11_094959634447_rgbf000091-resize_4/002964_2014-06-08_17-46-11_094959634447_rgbf000091-resize_4-target.png,125,1.6909999999999998,3,3801,122,feet,jsons/VE125_randls_47_rotated.json,1437289,2265260,52,Man
119,851454,DepthScenes,duration_manipulation_targetAtFixation,jsons/VE125_randls_47_rotated.json,http://54.235.29.9/FacialAge/BNav_EC2/DepthDuration/v2_depth_duration_MTurk/v2_DepthDuration_HTML.html#79,79,1821,833,1366,768,8-21-2022,9-36-31,120,depth_duration_stimuli/000787_2014-06-08_22-33-53_260595134347_rgbf000175-resize_1/000787_2014-06-08_22-33-53_260595134347_rgbf000175-resize-original.jpg,125,4.784,0,4663,128,feet,jsons/VE125_randls_47_rotated.json,1437289,2265260,52,Man
120,851454,DepthScenes,duration_manipulation_targetAtFixation,jsons/VE125_randls_47_rotated.json,http://54.235.29.9/FacialAge/BNav_EC2/DepthDuration/v2_depth_duration_MTurk/v2_DepthDuration_HTML.html#79,79,1821,833,1366,768,8-21-2022,9-36-31,121,depth_duration_stimuli/000734_2014-06-08_17-39-11_260595134347_rgbf000128-resize_2/000734_2014-06-08_17-39-11_260595134347_rgbf000128-resize_2-target.png,125,4.098,3,5728,124,feet,jsons/VE125_randls_47_rotated.json,1437289,2265260,52,Man
121,851454,DepthScenes,duration_manipulation_targetAtFixation,jsons/VE125_randls_47_rotated.json,http://54.235.29.9/FacialAge/BNav_EC2/DepthDuration/v2_depth_duration_MTurk/v2_DepthDuration_HTML.html#79,79,1821,833,1366,768,8-21-2022,9-36-31,122,depth_duration_stimuli/000739_2014-06-08_18-45-58_260595134347_rgbf000068-resize_1/000739_2014-06-08_18-45-58_260595134347_rgbf000068-resize_1-target.png,125,3.534,3,4767,124,feet,jsons/VE125_randls_47_rotated.json,1437289,2265260,52,Man
122,851454,DepthScenes,duration_manipulation_targetAtFixation,jsons/VE125_randls_47_rotated.json,http://54.235.29.9/FacialAge/BNav_EC2/DepthDuration/v2_depth_duration_MTurk/v2_DepthDuration_HTML.html#79,79,1821,833,1366,768,8-21-2022,9-36-31,123,depth_duration_stimuli/000927_2014-06-09_16-32-30_260595134347_rgbf000123-resize_3/000927_2014-06-09_16-32-30_260595134347_rgbf000123-resize_3-target.png,125,2.6785,4,5145,121,feet,jsons/VE125_randls_47_rotated.json,1437289,2265260,52,Man
123,851454,DepthScenes,duration_manipulation_targetAtFixation,jsons/VE125_randls_47_rotated.json,http://54.235.29.9/FacialAge/BNav_EC2/DepthDuration/v2_depth_duration_MTurk/v2_DepthDuration_HTML.html#79,79,1821,833,1366,768,8-21-2022,9-36-31,124,depth_duration_stimuli/001110_2014-06-15_17-25-28_260595134347_rgbf000150-resize_1/001110_2014-06-15_17-25-28_260595134347_rgbf000150-resize_1-target.png,125,1.7115,3,3769,114,feet,jsons/VE125_randls_47_rotated.json,1437289,2265260,52,Man
124,851454,DepthScenes,duration_manipulation_targetAtFixation,jsons/VE125_randls_47_rotated.json,http://54.235.29.9/FacialAge/BNav_EC2/DepthDuration/v2_depth_duration_MTurk/v2_DepthDuration_HTML.html#79,79,1821,833,1366,768,8-21-2022,9-36-31,125,depth_duration_stimuli/001235_2014-06-17_16-37-36_260595134347_rgbf000084-resize_4/001235_2014-06-17_16-37-36_260595134347_rgbf000084-resize_4-target.png,125,3.6605,2,6056,123,feet,jsons/VE125_randls_47_rotated.json,1437289,2265260,52,Man
125,851454,DepthScenes,duration_manipulation_targetAtFixation,jsons/VE125_randls_47_rotated.json,http://54.235.29.9/FacialAge/BNav_EC2/DepthDuration/v2_depth_duration_MTurk/v2_DepthDuration_HTML.html#79,79,1821,833,1366,768,8-21-2022,9-36-31,126,depth_duration_stimuli/000788_2014-06-08_22-34-36_260595134347_rgbf000131-resize_1/000788_2014-06-08_22-34-36_260595134347_rgbf000131-resize_1-target.png,125,3.359,3,4356,124,feet,jsons/VE125_randls_47_rotated.json,1437289,2265260,52,Man
126,851454,DepthScenes,duration_manipulation_targetAtFixation,jsons/VE125_randls_47_rotated.json,http://54.235.29.9/FacialAge/BNav_EC2/DepthDuration/v2_depth_duration_MTurk/v2_DepthDuration_HTML.html#79,79,1821,833,1366,768,8-21-2022,9-36-31,127,depth_duration_stimuli/000749_2014-06-08_21-55-06_260595134347_rgbf000070-resize_2/000749_2014-06-08_21-55-06_260595134347_rgbf000070-resize_2-target.png,125,2.331,3,5262,123,feet,jsons/VE125_randls_47_rotated.json,1437289,2265260,52,Man
127,851454,DepthScenes,duration_manipulation_targetAtFixation,jsons/VE125_randls_47_rotated.json,http://54.235.29.9/FacialAge/BNav_EC2/DepthDuration/v2_depth_duration_MTurk/v2_DepthDuration_HTML.html#79,79,1821,833,1366,768,8-21-2022,9-36-31,128,depth_duration_stimuli/002788_2014-06-22_19-36-03_094959634447_rgbf000088-resize_2/002788_2014-06-22_19-36-03_094959634447_rgbf000088-resize_2-target.png,125,1.6465,3,4202,122,feet,jsons/VE125_randls_47_rotated.json,1437289,2265260,52,Man
128,851454,DepthScenes,duration_manipulation_targetAtFixation,jsons/VE125_randls_47_rotated.json,http://54.235.29.9/FacialAge/BNav_EC2/DepthDuration/v2_depth_duration_MTurk/v2_DepthDuration_HTML.html#79,79,1821,833,1366,768,8-21-2022,9-36-31,129,depth_duration_stimuli/002323_2014-06-28_20-01-54_260595134347_rgbf000051-resize_4/002323_2014-06-28_20-01-54_260595134347_rgbf000051-resize_4-target.png,125,3.7310000000000003,3,5191,124,feet,jsons/VE125_randls_47_rotated.json,1437289,2265260,52,Man
129,851454,DepthScenes,duration_manipulation_targetAtFixation,jsons/VE125_randls_47_rotated.json,http://54.235.29.9/FacialAge/BNav_EC2/DepthDuration/v2_depth_duration_MTurk/v2_DepthDuration_HTML.html#79,79,1821,833,1366,768,8-21-2022,9-36-31,130,depth_duration_stimuli/000917_2014-06-09_22-45-29_260595134347_rgbf000149-resize_3/000917_2014-06-09_22-45-29_260595134347_rgbf000149-resize_3-target.png,125,4.1865,3,4341,123,feet,jsons/VE125_randls_47_rotated.json,1437289,2265260,52,Man
130,851454,DepthScenes,duration_manipulation_targetAtFixation,jsons/VE125_randls_47_rotated.json,http://54.235.29.9/FacialAge/BNav_EC2/DepthDuration/v2_depth_duration_MTurk/v2_DepthDuration_HTML.html#79,79,1821,833,1366,768,8-21-2022,9-36-31,131,depth_duration_stimuli/003587_2014-05-23_16-48-02_094959634447_rgbf002384-resize_2/003587_2014-05-23_16-48-02_094959634447_rgbf002384-resize_2-target.png,125,1.357,2,5320,125,feet,jsons/VE125_randls_47_rotated.json,1437289,2265260,52,Man
131,851454,DepthScenes,duration_manipulation_targetAtFixation,jsons/VE125_randls_47_rotated.json,http://54.235.29.9/FacialAge/BNav_EC2/DepthDuration/v2_depth_duration_MTurk/v2_DepthDuration_HTML.html#79,79,1821,833,1366,768,8-21-2022,9-36-31,132,depth_duration_stimuli/001167_2014-06-17_15-38-07_260595134347_rgbf000108-resize_0/001167_2014-06-17_15-38-07_260595134347_rgbf000108-resize_0-target.png,125,1.8505,1,3877,123,feet,jsons/VE125_randls_47_rotated.json,1437289,2265260,52,Man
132,851454,DepthScenes,duration_manipulation_targetAtFixation,jsons/VE125_randls_47_rotated.json,http://54.235.29.9/FacialAge/BNav_EC2/DepthDuration/v2_depth_duration_MTurk/v2_DepthDuration_HTML.html#79,79,1821,833,1366,768,8-21-2022,9-36-31,133,depth_duration_stimuli/001132_2014-06-17_14-48-54_260595134347_rgbf000100-resize_2/001132_2014-06-17_14-48-54_260595134347_rgbf000100-resize_2-target.png,125,3.753,3,4599,125,feet,jsons/VE125_randls_47_rotated.json,1437289,2265260,52,Man
133,851454,DepthScenes,duration_manipulation_targetAtFixation,jsons/VE125_randls_47_rotated.json,http://54.235.29.9/FacialAge/BNav_EC2/DepthDuration/v2_depth_duration_MTurk/v2_DepthDuration_HTML.html#79,79,1821,833,1366,768,8-21-2022,9-36-31,134,depth_duration_stimuli/001133_2014-06-17_14-49-16_260595134347_rgbf000100-resize_0/001133_2014-06-17_14-49-16_260595134347_rgbf000100-resize_0-target.png,125,4.2115,3,3961,124,feet,jsons/VE125_randls_47_rotated.json,1437289,2265260,52,Man
134,851454,DepthScenes,duration_manipulation_targetAtFixation,jsons/VE125_randls_47_rotated.json,http://54.235.29.9/FacialAge/BNav_EC2/DepthDuration/v2_depth_duration_MTurk/v2_DepthDuration_HTML.html#79,79,1821,833,1366,768,8-21-2022,9-36-31,135,depth_duration_stimuli/000375_2014-06-08_11-17-29_260595134347_rgbf000133-resize_2/000375_2014-06-08_11-17-29_260595134347_rgbf000133-resize-original.jpg,125,4.718,0,4534,122,feet,jsons/VE125_randls_47_rotated.json,1437289,2265260,52,Man
135,851454,DepthScenes,duration_manipulation_targetAtFixation,jsons/VE125_randls_47_rotated.json,http://54.235.29.9/FacialAge/BNav_EC2/DepthDuration/v2_depth_duration_MTurk/v2_DepthDuration_HTML.html#79,79,1821,833,1366,768,8-21-2022,9-36-31,136,depth_duration_stimuli/002953_2014-06-08_17-32-18_094959634447_rgbf000059-resize_5/002953_2014-06-08_17-32-18_094959634447_rgbf000059-resize_5-target.png,125,1.551,2,4817,124,feet,jsons/VE125_randls_47_rotated.json,1437289,2265260,52,Man
136,851454,DepthScenes,duration_manipulation_targetAtFixation,jsons/VE125_randls_47_rotated.json,http://54.235.29.9/FacialAge/BNav_EC2/DepthDuration/v2_depth_duration_MTurk/v2_DepthDuration_HTML.html#79,79,1821,833,1366,768,8-21-2022,9-36-31,137,depth_duration_stimuli/000878_2014-06-08_22-52-45_260595134347_rgbf000045-resize_2/000878_2014-06-08_22-52-45_260595134347_rgbf000045-resize_2-target.png,125,2.092,2,4186,124,feet,jsons/VE125_randls_47_rotated.json,1437289,2265260,52,Man
137,851454,DepthScenes,duration_manipulation_targetAtFixation,jsons/VE125_randls_47_rotated.json,http://54.235.29.9/FacialAge/BNav_EC2/DepthDuration/v2_depth_duration_MTurk/v2_DepthDuration_HTML.html#79,79,1821,833,1366,768,8-21-2022,9-36-31,138,depth_duration_stimuli/001584_2014-06-20_11-07-43_260595134347_rgbf000002-resize_1/001584_2014-06-20_11-07-43_260595134347_rgbf000002-resize_1-target.png,125,3.53,2,5107,122,feet,jsons/VE125_randls_47_rotated.json,1437289,2265260,52,Man
138,851454,DepthScenes,duration_manipulation_targetAtFixation,jsons/VE125_randls_47_rotated.json,http://54.235.29.9/FacialAge/BNav_EC2/DepthDuration/v2_depth_duration_MTurk/v2_DepthDuration_HTML.html#79,79,1821,833,1366,768,8-21-2022,9-36-31,139,depth_duration_stimuli/003621_2014-05-23_18-06-08_094959634447_rgbf000101-resize_1/003621_2014-05-23_18-06-08_094959634447_rgbf000101-resize_1-target.png,125,3.9835,3,4548,122,feet,jsons/VE125_randls_47_rotated.json,1437289,2265260,52,Man
139,851454,DepthScenes,duration_manipulation_targetAtFixation,jsons/VE125_randls_47_rotated.json,http://54.235.29.9/FacialAge/BNav_EC2/DepthDuration/v2_depth_duration_MTurk/v2_DepthDuration_HTML.html#79,79,1821,833,1366,768,8-21-2022,9-36-31,140,depth_duration_stimuli/002995_2014-06-15_12-31-26_094959634447_rgbf000150-resize_1/002995_2014-06-15_12-31-26_094959634447_rgbf000150-resize_1-target.png,125,3.8360000000000003,5,5158,110,feet,jsons/VE125_randls_47_rotated.json,1437289,2265260,52,Man
140,851454,DepthScenes,duration_manipulation_targetAtFixation,jsons/VE125_randls_47_rotated.json,http://54.235.29.9/FacialAge/BNav_EC2/DepthDuration/v2_depth_duration_MTurk/v2_DepthDuration_HTML.html#79,79,1821,833,1366,768,8-21-2022,9-36-31,141,depth_duration_stimuli/002748_2014-06-22_19-07-22_094959634447_rgbf000078-resize_1/002748_2014-06-22_19-07-22_094959634447_rgbf000078-resize_1-target.png,125,4.6705,5,4467,125,feet,jsons/VE125_randls_47_rotated.json,1437289,2265260,52,Man
141,851454,DepthScenes,duration_manipulation_targetAtFixation,jsons/VE125_randls_47_rotated.json,http://54.235.29.9/FacialAge/BNav_EC2/DepthDuration/v2_depth_duration_MTurk/v2_DepthDuration_HTML.html#79,79,1821,833,1366,768,8-21-2022,9-36-31,142,depth_duration_stimuli/000556_2014-06-09_22-42-56_260595134347_rgbf000214-resize_1/000556_2014-06-09_22-42-56_260595134347_rgbf000214-resize_1-target.png,125,4.8415,2,5138,125,feet,jsons/VE125_randls_47_rotated.json,1437289,2265260,52,Man
142,851454,DepthScenes,duration_manipulation_targetAtFixation,jsons/VE125_randls_47_rotated.json,http://54.235.29.9/FacialAge/BNav_EC2/DepthDuration/v2_depth_duration_MTurk/v2_DepthDuration_HTML.html#79,79,1821,833,1366,768,8-21-2022,9-36-31,143,depth_duration_stimuli/001158_2014-06-17_15-32-16_260595134347_rgbf000138-resize_2/001158_2014-06-17_15-32-16_260595134347_rgbf000138-resize_2-target.png,125,4.5315,2,4409,126,feet,jsons/VE125_randls_47_rotated.json,1437289,2265260,52,Man
143,851454,DepthScenes,duration_manipulation_targetAtFixation,jsons/VE125_randls_47_rotated.json,http://54.235.29.9/FacialAge/BNav_EC2/DepthDuration/v2_depth_duration_MTurk/v2_DepthDuration_HTML.html#79,79,1821,833,1366,768,8-21-2022,9-36-31,144,depth_duration_stimuli/001650_2014-06-20_12-09-00_260595134347_rgbf000087-resize_3/001650_2014-06-20_12-09-00_260595134347_rgbf000087-resize_3-target.png,125,1.9505,3,4790,126,feet,jsons/VE125_randls_47_rotated.json,1437289,2265260,52,Man
144,851454,DepthScenes,duration_manipulation_targetAtFixation,jsons/VE125_randls_47_rotated.json,http://54.235.29.9/FacialAge/BNav_EC2/DepthDuration/v2_depth_duration_MTurk/v2_DepthDuration_HTML.html#79,79,1821,833,1366,768,8-21-2022,9-36-31,145,depth_duration_stimuli/000682_2014-06-08_23-14-58_260595134347_rgbf000041-resize_5/000682_2014-06-08_23-14-58_260595134347_rgbf000041-resize_5-target.png,125,2.7239999999999998,4,4650,124,feet,jsons/VE125_randls_47_rotated.json,1437289,2265260,52,Man
145,851454,DepthScenes,duration_manipulation_targetAtFixation,jsons/VE125_randls_47_rotated.json,http://54.235.29.9/FacialAge/BNav_EC2/DepthDuration/v2_depth_duration_MTurk/v2_DepthDuration_HTML.html#79,79,1821,833,1366,768,8-21-2022,9-36-31,146,depth_duration_stimuli/002750_2014-06-22_19-08-03_094959634447_rgbf000094-resize_4/002750_2014-06-22_19-08-03_094959634447_rgbf000094-resize_4-target.png,125,2.354,4,4828,116,feet,jsons/VE125_randls_47_rotated.json,1437289,2265260,52,Man
146,851454,DepthScenes,duration_manipulation_targetAtFixation,jsons/VE125_randls_47_rotated.json,http://54.235.29.9/FacialAge/BNav_EC2/DepthDuration/v2_depth_duration_MTurk/v2_DepthDuration_HTML.html#79,79,1821,833,1366,768,8-21-2022,9-36-31,147,depth_duration_stimuli/002549_2014-06-24_13-41-39_094959634447_rgbf000022-resize_3/002549_2014-06-24_13-41-39_094959634447_rgbf000022-resize_3-target.png,125,1.476,2,4588,124,feet,jsons/VE125_randls_47_rotated.json,1437289,2265260,52,Man
147,851454,DepthScenes,duration_manipulation_targetAtFixation,jsons/VE125_randls_47_rotated.json,http://54.235.29.9/FacialAge/BNav_EC2/DepthDuration/v2_depth_duration_MTurk/v2_DepthDuration_HTML.html#79,79,1821,833,1366,768,8-21-2022,9-36-31,148,depth_duration_stimuli/001516_2014-06-20_16-25-09_260595134347_rgbf000076-resize_2/001516_2014-06-20_16-25-09_260595134347_rgbf000076-resize_2-target.png,125,1.7445,4,5874,123,feet,jsons/VE125_randls_47_rotated.json,1437289,2265260,52,Man
148,851454,DepthScenes,duration_manipulation_targetAtFixation,jsons/VE125_randls_47_rotated.json,http://54.235.29.9/FacialAge/BNav_EC2/DepthDuration/v2_depth_duration_MTurk/v2_DepthDuration_HTML.html#79,79,1821,833,1366,768,8-21-2022,9-36-31,149,depth_duration_stimuli/002118_2014-06-25_20-32-08_260595134347_rgbf000078-resize_1/002118_2014-06-25_20-32-08_260595134347_rgbf000078-resize_1-target.png,125,2.6460000000000004,2,3985,122,feet,jsons/VE125_randls_47_rotated.json,1437289,2265260,52,Man
149,851454,DepthScenes,duration_manipulation_targetAtFixation,jsons/VE125_randls_47_rotated.json,http://54.235.29.9/FacialAge/BNav_EC2/DepthDuration/v2_depth_duration_MTurk/v2_DepthDuration_HTML.html#79,79,1821,833,1366,768,8-21-2022,9-36-31,150,depth_duration_stimuli/001571_2014-06-20_17-21-32_260595134347_rgbf000089-resize_1/001571_2014-06-20_17-21-32_260595134347_rgbf000089-resize_1-target.png,125,1.86,2,5278,108,feet,jsons/VE125_randls_47_rotated.json,1437289,2265260,52,Man
150,851454,DepthScenes,duration_manipulation_targetAtFixation,jsons/VE125_randls_47_rotated.json,http://54.235.29.9/FacialAge/BNav_EC2/DepthDuration/v2_depth_duration_MTurk/v2_DepthDuration_HTML.html#79,79,1821,833,1366,768,8-21-2022,9-36-31,151,depth_duration_stimuli/002272_2014-06-28_18-53-56_260595134347_rgbf000067-resize_2/002272_2014-06-28_18-53-56_260595134347_rgbf000067-resize_2-target.png,125,1.138,2,3498,124,feet,jsons/VE125_randls_47_rotated.json,1437289,2265260,52,Man
151,851454,DepthScenes,duration_manipulation_targetAtFixation,jsons/VE125_randls_47_rotated.json,http://54.235.29.9/FacialAge/BNav_EC2/DepthDuration/v2_depth_duration_MTurk/v2_DepthDuration_HTML.html#79,79,1821,833,1366,768,8-21-2022,9-36-31,152,depth_duration_stimuli/000569_2014-06-09_22-51-47_260595134347_rgbf000141-resize_3/000569_2014-06-09_22-51-47_260595134347_rgbf000141-resize-original.jpg,125,4.512,0,4618,120,feet,jsons/VE125_randls_47_rotated.json,1437289,2265260,52,Man
152,851454,DepthScenes,duration_manipulation_targetAtFixation,jsons/VE125_randls_47_rotated.json,http://54.235.29.9/FacialAge/BNav_EC2/DepthDuration/v2_depth_duration_MTurk/v2_DepthDuration_HTML.html#79,79,1821,833,1366,768,8-21-2022,9-36-31,153,depth_duration_stimuli/003338_2014-05-20_11-01-23_094959634447_rgbf000051-resize_6/003338_2014-05-20_11-01-23_094959634447_rgbf000051-resize_6-target.png,125,1.693,2,5332,122,feet,jsons/VE125_randls_47_rotated.json,1437289,2265260,52,Man
153,851454,DepthScenes,duration_manipulation_targetAtFixation,jsons/VE125_randls_47_rotated.json,http://54.235.29.9/FacialAge/BNav_EC2/DepthDuration/v2_depth_duration_MTurk/v2_DepthDuration_HTML.html#79,79,1821,833,1366,768,8-21-2022,9-36-31,154,depth_duration_stimuli/002509_2014-06-24_13-19-22_094959634447_rgbf000077-resize_0/002509_2014-06-24_13-19-22_094959634447_rgbf000077-resize_0-target.png,125,1.3065,3,6733,123,feet,jsons/VE125_randls_47_rotated.json,1437289,2265260,52,Man
154,851454,DepthScenes,duration_manipulation_targetAtFixation,jsons/VE125_randls_47_rotated.json,http://54.235.29.9/FacialAge/BNav_EC2/DepthDuration/v2_depth_duration_MTurk/v2_DepthDuration_HTML.html#79,79,1821,833,1366,768,8-21-2022,9-36-31,155,depth_duration_stimuli/002103_2014-06-25_20-00-40_260595134347_rgbf000049-resize_0/002103_2014-06-25_20-00-40_260595134347_rgbf000049-resize_0-target.png,125,4.105,2,5147,125,feet,jsons/VE125_randls_47_rotated.json,1437289,2265260,52,Man
155,851454,DepthScenes,duration_manipulation_targetAtFixation,jsons/VE125_randls_47_rotated.json,http://54.235.29.9/FacialAge/BNav_EC2/DepthDuration/v2_depth_duration_MTurk/v2_DepthDuration_HTML.html#79,79,1821,833,1366,768,8-21-2022,9-36-31,156,depth_duration_stimuli/002039_2014-06-24_20-22-38_260595134347_rgbf000084-resize_1/002039_2014-06-24_20-22-38_260595134347_rgbf000084-resize_1-target.png,125,4.408,3,4103,123,feet,jsons/VE125_randls_47_rotated.json,1437289,2265260,52,Man
156,851454,DepthScenes,duration_manipulation_targetAtFixation,jsons/VE125_randls_47_rotated.json,http://54.235.29.9/FacialAge/BNav_EC2/DepthDuration/v2_depth_duration_MTurk/v2_DepthDuration_HTML.html#79,79,1821,833,1366,768,8-21-2022,9-36-31,157,depth_duration_stimuli/000137_2014-05-20_17-04-49_260595134347_rgbf000120-resize_1/000137_2014-05-20_17-04-49_260595134347_rgbf000120-resize_1-target.png,125,3.786,3,4578,90,feet,jsons/VE125_randls_47_rotated.json,1437289,2265260,52,Man
157,851454,DepthScenes,duration_manipulation_targetAtFixation,jsons/VE125_randls_47_rotated.json,http://54.235.29.9/FacialAge/BNav_EC2/DepthDuration/v2_depth_duration_MTurk/v2_DepthDuration_HTML.html#79,79,1821,833,1366,768,8-21-2022,9-36-31,158,depth_duration_stimuli/000736_2014-06-08_18-24-15_260595134347_rgbf000206-resize_3/000736_2014-06-08_18-24-15_260595134347_rgbf000206-resize_3-target.png,125,3.515,2,3725,123,feet,jsons/VE125_randls_47_rotated.json,1437289,2265260,52,Man
158,851454,DepthScenes,duration_manipulation_targetAtFixation,jsons/VE125_randls_47_rotated.json,http://54.235.29.9/FacialAge/BNav_EC2/DepthDuration/v2_depth_duration_MTurk/v2_DepthDuration_HTML.html#79,79,1821,833,1366,768,8-21-2022,9-36-31,159,depth_duration_stimuli/002444_2014-06-28_20-32-08_260595134347_rgbf000027-resize_0/002444_2014-06-28_20-32-08_260595134347_rgbf000027-resize_0-target.png,125,4.388999999999999,3,4642,116,feet,jsons/VE125_randls_47_rotated.json,1437289,2265260,52,Man
159,851454,DepthScenes,duration_manipulation_targetAtFixation,jsons/VE125_randls_47_rotated.json,http://54.235.29.9/FacialAge/BNav_EC2/DepthDuration/v2_depth_duration_MTurk/v2_DepthDuration_HTML.html#79,79,1821,833,1366,768,8-21-2022,9-36-31,160,depth_duration_stimuli/000436_2014-06-09_22-25-11_260595134347_rgbf000137-resize_1/000436_2014-06-09_22-25-11_260595134347_rgbf000137-resize_1-target.png,125,4.0705,3,3817,112,feet,jsons/VE125_randls_47_rotated.json,1437289,2265260,52,Man
160,851454,DepthScenes,duration_manipulation_targetAtFixation,jsons/VE125_randls_47_rotated.json,http://54.235.29.9/FacialAge/BNav_EC2/DepthDuration/v2_depth_duration_MTurk/v2_DepthDuration_HTML.html#79,79,1821,833,1366,768,8-21-2022,9-36-31,161,depth_duration_stimuli/002758_2014-06-22_19-11-20_094959634447_rgbf000128-resize_1/002758_2014-06-22_19-11-20_094959634447_rgbf000128-resize_1-target.png,125,2.555,0,3848,124,feet,jsons/VE125_randls_47_rotated.json,1437289,2265260,52,Man
161,851454,DepthScenes,duration_manipulation_targetAtFixation,jsons/VE125_randls_47_rotated.json,http://54.235.29.9/FacialAge/BNav_EC2/DepthDuration/v2_depth_duration_MTurk/v2_DepthDuration_HTML.html#79,79,1821,833,1366,768,8-21-2022,9-36-31,162,depth_duration_stimuli/002630_2014-06-24_14-47-50_094959634447_rgbf000055-resize_1/002630_2014-06-24_14-47-50_094959634447_rgbf000055-resize_1-target.png,125,3.0095,6,4455,113,feet,jsons/VE125_randls_47_rotated.json,1437289,2265260,52,Man
162,851454,DepthScenes,duration_manipulation_targetAtFixation,jsons/VE125_randls_47_rotated.json,http://54.235.29.9/FacialAge/BNav_EC2/DepthDuration/v2_depth_duration_MTurk/v2_DepthDuration_HTML.html#79,79,1821,833,1366,768,8-21-2022,9-36-31,163,depth_duration_stimuli/000943_2014-06-09_19-31-07_260595134347_rgbf000128-resize_1/000943_2014-06-09_19-31-07_260595134347_rgbf000128-resize_1-target.png,125,1.9765,1,4486,124,feet,jsons/VE125_randls_47_rotated.json,1437289,2265260,52,Man
163,851454,DepthScenes,duration_manipulation_targetAtFixation,jsons/VE125_randls_47_rotated.json,http://54.235.29.9/FacialAge/BNav_EC2/DepthDuration/v2_depth_duration_MTurk/v2_DepthDuration_HTML.html#79,79,1821,833,1366,768,8-21-2022,9-36-31,164,depth_duration_stimuli/003070_2014-06-15_14-58-27_094959634447_rgbf000150-resize_3/003070_2014-06-15_14-58-27_094959634447_rgbf000150-resize_3-target.png,125,2.9415,3,4180,124,feet,jsons/VE125_randls_47_rotated.json,1437289,2265260,52,Man
