,subjID,experimentName,versionName,sequenceName,url,selected_row,windowWidth,windowHeight,screenWidth,screenHeight,startDate,startTime,trial,stimulus,duration,actual_depth,depth_estimate,trial_RT,log_sceneDuration,unitSelection,seq_filepath,experimentTime,totalTime,age,gender
0,852146,DepthScenes,duration_manipulation_targetAtFixation,jsons/VE125_randls_44_rotated.json,http://54.235.29.9/FacialAge/BNav_EC2/DepthDuration/v2_depth_duration_MTurk/v2_DepthDuration_HTML.html#129,129,1602,936,1920,1200,8-21-2022,9-49-55,1,depth_duration_stimuli/001392_2014-06-19_16-07-59_260595134347_rgbf000046-resize_1/001392_2014-06-19_16-07-59_260595134347_rgbf000046-resize_1-target.png,125,4.135,15,3670,125,feet,jsons/VE125_randls_44_rotated.json,814771,964887,51,Man
1,852146,DepthScenes,duration_manipulation_targetAtFixation,jsons/VE125_randls_44_rotated.json,http://54.235.29.9/FacialAge/BNav_EC2/DepthDuration/v2_depth_duration_MTurk/v2_DepthDuration_HTML.html#129,129,1602,936,1920,1200,8-21-2022,9-49-55,2,depth_duration_stimuli/001570_2014-06-20_17-21-09_260595134347_rgbf000135-resize_4/001570_2014-06-20_17-21-09_260595134347_rgbf000135-resize_4-target.png,125,4.467,12,6498,124,feet,jsons/VE125_randls_44_rotated.json,814771,964887,51,Man
2,852146,DepthScenes,duration_manipulation_targetAtFixation,jsons/VE125_randls_44_rotated.json,http://54.235.29.9/FacialAge/BNav_EC2/DepthDuration/v2_depth_duration_MTurk/v2_DepthDuration_HTML.html#129,129,1602,936,1920,1200,8-21-2022,9-49-55,3,depth_duration_stimuli/002660_2014-06-13_15-44-18_094959634447_rgbf001878-resize_2/002660_2014-06-13_15-44-18_094959634447_rgbf001878-resize_2-target.png,125,3.576,13,3387,124,feet,jsons/VE125_randls_44_rotated.json,814771,964887,51,Man
3,852146,DepthScenes,duration_manipulation_targetAtFixation,jsons/VE125_randls_44_rotated.json,http://54.235.29.9/FacialAge/BNav_EC2/DepthDuration/v2_depth_duration_MTurk/v2_DepthDuration_HTML.html#129,129,1602,936,1920,1200,8-21-2022,9-49-55,4,depth_duration_stimuli/002153_2014-06-25_21-27-18_260595134347_rgbf000038-resize_5/002153_2014-06-25_21-27-18_260595134347_rgbf000038-resize_5-target.png,125,2.505,9,5476,126,feet,jsons/VE125_randls_44_rotated.json,814771,964887,51,Man
4,852146,DepthScenes,duration_manipulation_targetAtFixation,jsons/VE125_randls_44_rotated.json,http://54.235.29.9/FacialAge/BNav_EC2/DepthDuration/v2_depth_duration_MTurk/v2_DepthDuration_HTML.html#129,129,1602,936,1920,1200,8-21-2022,9-49-55,5,depth_duration_stimuli/002678_2014-06-13_16-15-32_094959634447_rgbf000151-resize_6/002678_2014-06-13_16-15-32_094959634447_rgbf000151-resize_6-target.png,125,2.1830000000000003,12,2787,125,feet,jsons/VE125_randls_44_rotated.json,814771,964887,51,Man
5,852146,DepthScenes,duration_manipulation_targetAtFixation,jsons/VE125_randls_44_rotated.json,http://54.235.29.9/FacialAge/BNav_EC2/DepthDuration/v2_depth_duration_MTurk/v2_DepthDuration_HTML.html#129,129,1602,936,1920,1200,8-21-2022,9-49-55,6,depth_duration_stimuli/000368_2014-06-09_15-53-01_260595134347_rgbf000155-resize_2/000368_2014-06-09_15-53-01_260595134347_rgbf000155-resize_2-target.png,125,2.4859999999999998,10,3036,125,feet,jsons/VE125_randls_44_rotated.json,814771,964887,51,Man
6,852146,DepthScenes,duration_manipulation_targetAtFixation,jsons/VE125_randls_44_rotated.json,http://54.235.29.9/FacialAge/BNav_EC2/DepthDuration/v2_depth_duration_MTurk/v2_DepthDuration_HTML.html#129,129,1602,936,1920,1200,8-21-2022,9-49-55,7,depth_duration_stimuli/003079_2014-06-15_15-18-20_094959634447_rgbf000152-resize_8/003079_2014-06-15_15-18-20_094959634447_rgbf000152-resize_8-target.png,125,2.8775,8,2508,126,feet,jsons/VE125_randls_44_rotated.json,814771,964887,51,Man
7,852146,DepthScenes,duration_manipulation_targetAtFixation,jsons/VE125_randls_44_rotated.json,http://54.235.29.9/FacialAge/BNav_EC2/DepthDuration/v2_depth_duration_MTurk/v2_DepthDuration_HTML.html#129,129,1602,936,1920,1200,8-21-2022,9-49-55,8,depth_duration_stimuli/000506_2014-06-08_23-21-00_260595134347_rgbf000070-resize_7/000506_2014-06-08_23-21-00_260595134347_rgbf000070-resize_7-target.png,125,4.0585,10,2531,124,feet,jsons/VE125_randls_44_rotated.json,814771,964887,51,Man
8,852146,DepthScenes,duration_manipulation_targetAtFixation,jsons/VE125_randls_44_rotated.json,http://54.235.29.9/FacialAge/BNav_EC2/DepthDuration/v2_depth_duration_MTurk/v2_DepthDuration_HTML.html#129,129,1602,936,1920,1200,8-21-2022,9-49-55,9,depth_duration_stimuli/003083_2014-06-15_15-21-03_094959634447_rgbf000063-resize_1/003083_2014-06-15_15-21-03_094959634447_rgbf000063-resize_1-target.png,125,4.1405,12,2635,125,feet,jsons/VE125_randls_44_rotated.json,814771,964887,51,Man
9,852146,DepthScenes,duration_manipulation_targetAtFixation,jsons/VE125_randls_44_rotated.json,http://54.235.29.9/FacialAge/BNav_EC2/DepthDuration/v2_depth_duration_MTurk/v2_DepthDuration_HTML.html#129,129,1602,936,1920,1200,8-21-2022,9-49-55,10,depth_duration_stimuli/000486_2014-06-09_20-47-20_260595134347_rgbf000143-resize_2/000486_2014-06-09_20-47-20_260595134347_rgbf000143-resize_2-target.png,125,4.8325,10,3540,124,feet,jsons/VE125_randls_44_rotated.json,814771,964887,51,Man
10,852146,DepthScenes,duration_manipulation_targetAtFixation,jsons/VE125_randls_44_rotated.json,http://54.235.29.9/FacialAge/BNav_EC2/DepthDuration/v2_depth_duration_MTurk/v2_DepthDuration_HTML.html#129,129,1602,936,1920,1200,8-21-2022,9-49-55,11,depth_duration_stimuli/003228_2014-05-14_13-42-35_094959634447_rgbf000101-resize_1/003228_2014-05-14_13-42-35_094959634447_rgbf000101-resize_1-target.png,125,1.9680000000000002,7,7016,124,feet,jsons/VE125_randls_44_rotated.json,814771,964887,51,Man
11,852146,DepthScenes,duration_manipulation_targetAtFixation,jsons/VE125_randls_44_rotated.json,http://54.235.29.9/FacialAge/BNav_EC2/DepthDuration/v2_depth_duration_MTurk/v2_DepthDuration_HTML.html#129,129,1602,936,1920,1200,8-21-2022,9-49-55,12,depth_duration_stimuli/002600_2014-06-24_14-27-04_094959634447_rgbf000074-resize_2/002600_2014-06-24_14-27-04_094959634447_rgbf000074-resize_2-target.png,125,2.7575,8,3557,125,feet,jsons/VE125_randls_44_rotated.json,814771,964887,51,Man
12,852146,DepthScenes,duration_manipulation_targetAtFixation,jsons/VE125_randls_44_rotated.json,http://54.235.29.9/FacialAge/BNav_EC2/DepthDuration/v2_depth_duration_MTurk/v2_DepthDuration_HTML.html#129,129,1602,936,1920,1200,8-21-2022,9-49-55,13,depth_duration_stimuli/000103_2014-05-14_22-01-17_260595134347_rgbf000152-resize_5/000103_2014-05-14_22-01-17_260595134347_rgbf000152-resize_5-target.png,125,1.993,10,2420,126,feet,jsons/VE125_randls_44_rotated.json,814771,964887,51,Man
13,852146,DepthScenes,duration_manipulation_targetAtFixation,jsons/VE125_randls_44_rotated.json,http://54.235.29.9/FacialAge/BNav_EC2/DepthDuration/v2_depth_duration_MTurk/v2_DepthDuration_HTML.html#129,129,1602,936,1920,1200,8-21-2022,9-49-55,14,depth_duration_stimuli/001555_2014-06-20_17-12-10_260595134347_rgbf000065-resize_4/001555_2014-06-20_17-12-10_260595134347_rgbf000065-resize_4-target.png,125,1.633,5,2428,124,feet,jsons/VE125_randls_44_rotated.json,814771,964887,51,Man
14,852146,DepthScenes,duration_manipulation_targetAtFixation,jsons/VE125_randls_44_rotated.json,http://54.235.29.9/FacialAge/BNav_EC2/DepthDuration/v2_depth_duration_MTurk/v2_DepthDuration_HTML.html#129,129,1602,936,1920,1200,8-21-2022,9-49-55,15,depth_duration_stimuli/002639_2014-06-24_14-51-37_094959634447_rgbf000074-resize_4/002639_2014-06-24_14-51-37_094959634447_rgbf000074-resize_4-target.png,125,4.0375,10,3086,124,feet,jsons/VE125_randls_44_rotated.json,814771,964887,51,Man
15,852146,DepthScenes,duration_manipulation_targetAtFixation,jsons/VE125_randls_44_rotated.json,http://54.235.29.9/FacialAge/BNav_EC2/DepthDuration/v2_depth_duration_MTurk/v2_DepthDuration_HTML.html#129,129,1602,936,1920,1200,8-21-2022,9-49-55,16,depth_duration_stimuli/003292_2014-05-14_21-53-49_094959634447_rgbf000100-resize_2/003292_2014-05-14_21-53-49_094959634447_rgbf000100-resize_2-target.png,125,3.4815,10,204698,125,feet,jsons/VE125_randls_44_rotated.json,814771,964887,51,Man
16,852146,DepthScenes,duration_manipulation_targetAtFixation,jsons/VE125_randls_44_rotated.json,http://54.235.29.9/FacialAge/BNav_EC2/DepthDuration/v2_depth_duration_MTurk/v2_DepthDuration_HTML.html#129,129,1602,936,1920,1200,8-21-2022,9-49-55,17,depth_duration_stimuli/002995_2014-06-15_12-31-26_094959634447_rgbf000150-resize_1/002995_2014-06-15_12-31-26_094959634447_rgbf000150-resize_1-target.png,125,3.8360000000000003,12,3388,125,feet,jsons/VE125_randls_44_rotated.json,814771,964887,51,Man
17,852146,DepthScenes,duration_manipulation_targetAtFixation,jsons/VE125_randls_44_rotated.json,http://54.235.29.9/FacialAge/BNav_EC2/DepthDuration/v2_depth_duration_MTurk/v2_DepthDuration_HTML.html#129,129,1602,936,1920,1200,8-21-2022,9-49-55,18,depth_duration_stimuli/002748_2014-06-22_19-07-22_094959634447_rgbf000078-resize_1/002748_2014-06-22_19-07-22_094959634447_rgbf000078-resize_1-target.png,125,4.6705,15,57619,125,feet,jsons/VE125_randls_44_rotated.json,814771,964887,51,Man
18,852146,DepthScenes,duration_manipulation_targetAtFixation,jsons/VE125_randls_44_rotated.json,http://54.235.29.9/FacialAge/BNav_EC2/DepthDuration/v2_depth_duration_MTurk/v2_DepthDuration_HTML.html#129,129,1602,936,1920,1200,8-21-2022,9-49-55,19,depth_duration_stimuli/001498_2014-06-19_17-45-14_260595134347_rgbf000129-resize_4/001498_2014-06-19_17-45-14_260595134347_rgbf000129-resize-original.jpg,125,1.4075,0,2811,124,feet,jsons/VE125_randls_44_rotated.json,814771,964887,51,Man
19,852146,DepthScenes,duration_manipulation_targetAtFixation,jsons/VE125_randls_44_rotated.json,http://54.235.29.9/FacialAge/BNav_EC2/DepthDuration/v2_depth_duration_MTurk/v2_DepthDuration_HTML.html#129,129,1602,936,1920,1200,8-21-2022,9-49-55,20,depth_duration_stimuli/002568_2014-06-24_13-59-21_094959634447_rgbf000062-resize_4/002568_2014-06-24_13-59-21_094959634447_rgbf000062-resize_4-target.png,125,3.015,12,2803,124,feet,jsons/VE125_randls_44_rotated.json,814771,964887,51,Man
20,852146,DepthScenes,duration_manipulation_targetAtFixation,jsons/VE125_randls_44_rotated.json,http://54.235.29.9/FacialAge/BNav_EC2/DepthDuration/v2_depth_duration_MTurk/v2_DepthDuration_HTML.html#129,129,1602,936,1920,1200,8-21-2022,9-49-55,21,depth_duration_stimuli/003492_2014-05-21_15-50-55_094959634447_rgbf000828-resize_1/003492_2014-05-21_15-50-55_094959634447_rgbf000828-resize_1-target.png,125,4.06875,13,5163,124,feet,jsons/VE125_randls_44_rotated.json,814771,964887,51,Man
21,852146,DepthScenes,duration_manipulation_targetAtFixation,jsons/VE125_randls_44_rotated.json,http://54.235.29.9/FacialAge/BNav_EC2/DepthDuration/v2_depth_duration_MTurk/v2_DepthDuration_HTML.html#129,129,1602,936,1920,1200,8-21-2022,9-49-55,22,depth_duration_stimuli/000854_2014-06-09_19-43-13_260595134347_rgbf000066-resize_0/000854_2014-06-09_19-43-13_260595134347_rgbf000066-resize_0-target.png,125,3.068,12,3028,126,feet,jsons/VE125_randls_44_rotated.json,814771,964887,51,Man
22,852146,DepthScenes,duration_manipulation_targetAtFixation,jsons/VE125_randls_44_rotated.json,http://54.235.29.9/FacialAge/BNav_EC2/DepthDuration/v2_depth_duration_MTurk/v2_DepthDuration_HTML.html#129,129,1602,936,1920,1200,8-21-2022,9-49-55,23,depth_duration_stimuli/000758_2014-06-08_22-05-08_260595134347_rgbf000085-resize_0/000758_2014-06-08_22-05-08_260595134347_rgbf000085-resize_0-target.png,125,3.3810000000000002,14,3220,125,feet,jsons/VE125_randls_44_rotated.json,814771,964887,51,Man
23,852146,DepthScenes,duration_manipulation_targetAtFixation,jsons/VE125_randls_44_rotated.json,http://54.235.29.9/FacialAge/BNav_EC2/DepthDuration/v2_depth_duration_MTurk/v2_DepthDuration_HTML.html#129,129,1602,936,1920,1200,8-21-2022,9-49-55,24,depth_duration_stimuli/001235_2014-06-17_16-37-36_260595134347_rgbf000084-resize_4/001235_2014-06-17_16-37-36_260595134347_rgbf000084-resize_4-target.png,125,3.6605,16,2515,125,feet,jsons/VE125_randls_44_rotated.json,814771,964887,51,Man
24,852146,DepthScenes,duration_manipulation_targetAtFixation,jsons/VE125_randls_44_rotated.json,http://54.235.29.9/FacialAge/BNav_EC2/DepthDuration/v2_depth_duration_MTurk/v2_DepthDuration_HTML.html#129,129,1602,936,1920,1200,8-21-2022,9-49-55,25,depth_duration_stimuli/000788_2014-06-08_22-34-36_260595134347_rgbf000131-resize_1/000788_2014-06-08_22-34-36_260595134347_rgbf000131-resize_1-target.png,125,3.359,13,3731,125,feet,jsons/VE125_randls_44_rotated.json,814771,964887,51,Man
25,852146,DepthScenes,duration_manipulation_targetAtFixation,jsons/VE125_randls_44_rotated.json,http://54.235.29.9/FacialAge/BNav_EC2/DepthDuration/v2_depth_duration_MTurk/v2_DepthDuration_HTML.html#129,129,1602,936,1920,1200,8-21-2022,9-49-55,26,depth_duration_stimuli/000709_2014-06-08_13-51-55_260595134347_rgbf000068-resize_3/000709_2014-06-08_13-51-55_260595134347_rgbf000068-resize_3-target.png,125,1.8030000000000002,10,2748,125,feet,jsons/VE125_randls_44_rotated.json,814771,964887,51,Man
26,852146,DepthScenes,duration_manipulation_targetAtFixation,jsons/VE125_randls_44_rotated.json,http://54.235.29.9/FacialAge/BNav_EC2/DepthDuration/v2_depth_duration_MTurk/v2_DepthDuration_HTML.html#129,129,1602,936,1920,1200,8-21-2022,9-49-55,27,depth_duration_stimuli/002057_2014-06-24_21-00-13_260595134347_rgbf000120-resize_1/002057_2014-06-24_21-00-13_260595134347_rgbf000120-resize_1-target.png,125,2.967,15,2596,124,feet,jsons/VE125_randls_44_rotated.json,814771,964887,51,Man
27,852146,DepthScenes,duration_manipulation_targetAtFixation,jsons/VE125_randls_44_rotated.json,http://54.235.29.9/FacialAge/BNav_EC2/DepthDuration/v2_depth_duration_MTurk/v2_DepthDuration_HTML.html#129,129,1602,936,1920,1200,8-21-2022,9-49-55,28,depth_duration_stimuli/000191_2014-05-12_17-07-38_260595134347_rgbf000199-resize_0/000191_2014-05-12_17-07-38_260595134347_rgbf000199-resize_0-target.png,125,3.7995,12,2691,125,feet,jsons/VE125_randls_44_rotated.json,814771,964887,51,Man
28,852146,DepthScenes,duration_manipulation_targetAtFixation,jsons/VE125_randls_44_rotated.json,http://54.235.29.9/FacialAge/BNav_EC2/DepthDuration/v2_depth_duration_MTurk/v2_DepthDuration_HTML.html#129,129,1602,936,1920,1200,8-21-2022,9-49-55,29,depth_duration_stimuli/000493_2014-06-09_21-01-18_260595134347_rgbf000196-resize_3/000493_2014-06-09_21-01-18_260595134347_rgbf000196-resize_3-target.png,125,3.44,15,2380,125,feet,jsons/VE125_randls_44_rotated.json,814771,964887,51,Man
29,852146,DepthScenes,duration_manipulation_targetAtFixation,jsons/VE125_randls_44_rotated.json,http://54.235.29.9/FacialAge/BNav_EC2/DepthDuration/v2_depth_duration_MTurk/v2_DepthDuration_HTML.html#129,129,1602,936,1920,1200,8-21-2022,9-49-55,30,depth_duration_stimuli/002072_2014-06-24_21-48-06_260595134347_rgbf000115-resize_0/002072_2014-06-24_21-48-06_260595134347_rgbf000115-resize-original.jpg,125,4.702,0,2236,125,feet,jsons/VE125_randls_44_rotated.json,814771,964887,51,Man
30,852146,DepthScenes,duration_manipulation_targetAtFixation,jsons/VE125_randls_44_rotated.json,http://54.235.29.9/FacialAge/BNav_EC2/DepthDuration/v2_depth_duration_MTurk/v2_DepthDuration_HTML.html#129,129,1602,936,1920,1200,8-21-2022,9-49-55,31,depth_duration_stimuli/001450_2014-06-19_17-02-03_260595134347_rgbf000203-resize_4/001450_2014-06-19_17-02-03_260595134347_rgbf000203-resize_4-target.png,125,4.0106666666667,14,3932,125,feet,jsons/VE125_randls_44_rotated.json,814771,964887,51,Man
31,852146,DepthScenes,duration_manipulation_targetAtFixation,jsons/VE125_randls_44_rotated.json,http://54.235.29.9/FacialAge/BNav_EC2/DepthDuration/v2_depth_duration_MTurk/v2_DepthDuration_HTML.html#129,129,1602,936,1920,1200,8-21-2022,9-49-55,32,depth_duration_stimuli/001449_2014-06-19_17-01-27_260595134347_rgbf000116-resize_2/001449_2014-06-19_17-01-27_260595134347_rgbf000116-resize_2-target.png,125,3.452,10,2434,124,feet,jsons/VE125_randls_44_rotated.json,814771,964887,51,Man
32,852146,DepthScenes,duration_manipulation_targetAtFixation,jsons/VE125_randls_44_rotated.json,http://54.235.29.9/FacialAge/BNav_EC2/DepthDuration/v2_depth_duration_MTurk/v2_DepthDuration_HTML.html#129,129,1602,936,1920,1200,8-21-2022,9-49-55,33,depth_duration_stimuli/000549_2014-06-08_22-10-24_260595134347_rgbf000247-resize_3/000549_2014-06-08_22-10-24_260595134347_rgbf000247-resize_3-target.png,125,1.841,7,2332,124,feet,jsons/VE125_randls_44_rotated.json,814771,964887,51,Man
33,852146,DepthScenes,duration_manipulation_targetAtFixation,jsons/VE125_randls_44_rotated.json,http://54.235.29.9/FacialAge/BNav_EC2/DepthDuration/v2_depth_duration_MTurk/v2_DepthDuration_HTML.html#129,129,1602,936,1920,1200,8-21-2022,9-49-55,34,depth_duration_stimuli/001055_2014-06-08_18-45-35_260595134347_rgbf000111-resize_4/001055_2014-06-08_18-45-35_260595134347_rgbf000111-resize_4-target.png,125,2.4290000000000003,16,3220,125,feet,jsons/VE125_randls_44_rotated.json,814771,964887,51,Man
34,852146,DepthScenes,duration_manipulation_targetAtFixation,jsons/VE125_randls_44_rotated.json,http://54.235.29.9/FacialAge/BNav_EC2/DepthDuration/v2_depth_duration_MTurk/v2_DepthDuration_HTML.html#129,129,1602,936,1920,1200,8-21-2022,9-49-55,35,depth_duration_stimuli/002875_2014-06-01_15-19-00_094959634447_rgbf000151-resize_1/002875_2014-06-01_15-19-00_094959634447_rgbf000151-resize_1-target.png,125,1.9675,12,2795,124,feet,jsons/VE125_randls_44_rotated.json,814771,964887,51,Man
35,852146,DepthScenes,duration_manipulation_targetAtFixation,jsons/VE125_randls_44_rotated.json,http://54.235.29.9/FacialAge/BNav_EC2/DepthDuration/v2_depth_duration_MTurk/v2_DepthDuration_HTML.html#129,129,1602,936,1920,1200,8-21-2022,9-49-55,36,depth_duration_stimuli/001011_2014-06-08_23-18-54_260595134347_rgbf000044-resize_4/001011_2014-06-08_23-18-54_260595134347_rgbf000044-resize_4-target.png,125,2.4730000000000003,10,3324,125,feet,jsons/VE125_randls_44_rotated.json,814771,964887,51,Man
36,852146,DepthScenes,duration_manipulation_targetAtFixation,jsons/VE125_randls_44_rotated.json,http://54.235.29.9/FacialAge/BNav_EC2/DepthDuration/v2_depth_duration_MTurk/v2_DepthDuration_HTML.html#129,129,1602,936,1920,1200,8-21-2022,9-49-55,37,depth_duration_stimuli/002136_2014-06-25_21-18-03_260595134347_rgbf000109-resize_3/002136_2014-06-25_21-18-03_260595134347_rgbf000109-resize_3-target.png,125,1.9569999999999999,8,2820,125,feet,jsons/VE125_randls_44_rotated.json,814771,964887,51,Man
37,852146,DepthScenes,duration_manipulation_targetAtFixation,jsons/VE125_randls_44_rotated.json,http://54.235.29.9/FacialAge/BNav_EC2/DepthDuration/v2_depth_duration_MTurk/v2_DepthDuration_HTML.html#129,129,1602,936,1920,1200,8-21-2022,9-49-55,38,depth_duration_stimuli/002964_2014-06-08_17-46-11_094959634447_rgbf000091-resize_4/002964_2014-06-08_17-46-11_094959634447_rgbf000091-resize_4-target.png,125,1.6909999999999998,7,5084,125,feet,jsons/VE125_randls_44_rotated.json,814771,964887,51,Man
38,852146,DepthScenes,duration_manipulation_targetAtFixation,jsons/VE125_randls_44_rotated.json,http://54.235.29.9/FacialAge/BNav_EC2/DepthDuration/v2_depth_duration_MTurk/v2_DepthDuration_HTML.html#129,129,1602,936,1920,1200,8-21-2022,9-49-55,39,depth_duration_stimuli/001032_2014-06-08_13-23-17_260595134347_rgbf000021-resize_3/001032_2014-06-08_13-23-17_260595134347_rgbf000021-resize_3-target.png,125,3.2725,8,2972,126,feet,jsons/VE125_randls_44_rotated.json,814771,964887,51,Man
39,852146,DepthScenes,duration_manipulation_targetAtFixation,jsons/VE125_randls_44_rotated.json,http://54.235.29.9/FacialAge/BNav_EC2/DepthDuration/v2_depth_duration_MTurk/v2_DepthDuration_HTML.html#129,129,1602,936,1920,1200,8-21-2022,9-49-55,40,depth_duration_stimuli/001059_2014-06-08_21-53-27_260595134347_rgbf000061-resize_4/001059_2014-06-08_21-53-27_260595134347_rgbf000061-resize_4-target.png,125,2.4185,9,2612,124,feet,jsons/VE125_randls_44_rotated.json,814771,964887,51,Man
40,852146,DepthScenes,duration_manipulation_targetAtFixation,jsons/VE125_randls_44_rotated.json,http://54.235.29.9/FacialAge/BNav_EC2/DepthDuration/v2_depth_duration_MTurk/v2_DepthDuration_HTML.html#129,129,1602,936,1920,1200,8-21-2022,9-49-55,41,depth_duration_stimuli/000677_2014-06-08_23-10-32_260595134347_rgbf000158-resize_6/000677_2014-06-08_23-10-32_260595134347_rgbf000158-resize_6-target.png,125,3.556,10,2380,124,feet,jsons/VE125_randls_44_rotated.json,814771,964887,51,Man
41,852146,DepthScenes,duration_manipulation_targetAtFixation,jsons/VE125_randls_44_rotated.json,http://54.235.29.9/FacialAge/BNav_EC2/DepthDuration/v2_depth_duration_MTurk/v2_DepthDuration_HTML.html#129,129,1602,936,1920,1200,8-21-2022,9-49-55,42,depth_duration_stimuli/001029_2014-06-08_13-17-57_260595134347_rgbf000065-resize_1/001029_2014-06-08_13-17-57_260595134347_rgbf000065-resize_1-target.png,125,3.0835,10,2596,126,feet,jsons/VE125_randls_44_rotated.json,814771,964887,51,Man
42,852146,DepthScenes,duration_manipulation_targetAtFixation,jsons/VE125_randls_44_rotated.json,http://54.235.29.9/FacialAge/BNav_EC2/DepthDuration/v2_depth_duration_MTurk/v2_DepthDuration_HTML.html#129,129,1602,936,1920,1200,8-21-2022,9-49-55,43,depth_duration_stimuli/002444_2014-06-28_20-32-08_260595134347_rgbf000027-resize_0/002444_2014-06-28_20-32-08_260595134347_rgbf000027-resize_0-target.png,125,4.388999999999999,9,3261,125,feet,jsons/VE125_randls_44_rotated.json,814771,964887,51,Man
43,852146,DepthScenes,duration_manipulation_targetAtFixation,jsons/VE125_randls_44_rotated.json,http://54.235.29.9/FacialAge/BNav_EC2/DepthDuration/v2_depth_duration_MTurk/v2_DepthDuration_HTML.html#129,129,1602,936,1920,1200,8-21-2022,9-49-55,44,depth_duration_stimuli/000436_2014-06-09_22-25-11_260595134347_rgbf000137-resize_1/000436_2014-06-09_22-25-11_260595134347_rgbf000137-resize_1-target.png,125,4.0705,12,2819,124,feet,jsons/VE125_randls_44_rotated.json,814771,964887,51,Man
44,852146,DepthScenes,duration_manipulation_targetAtFixation,jsons/VE125_randls_44_rotated.json,http://54.235.29.9/FacialAge/BNav_EC2/DepthDuration/v2_depth_duration_MTurk/v2_DepthDuration_HTML.html#129,129,1602,936,1920,1200,8-21-2022,9-49-55,45,depth_duration_stimuli/002209_2014-06-28_18-36-10_260595134347_rgbf000051-resize_1/002209_2014-06-28_18-36-10_260595134347_rgbf000051-resize_1-target.png,125,2.057,7,13139,124,feet,jsons/VE125_randls_44_rotated.json,814771,964887,51,Man
45,852146,DepthScenes,duration_manipulation_targetAtFixation,jsons/VE125_randls_44_rotated.json,http://54.235.29.9/FacialAge/BNav_EC2/DepthDuration/v2_depth_duration_MTurk/v2_DepthDuration_HTML.html#129,129,1602,936,1920,1200,8-21-2022,9-49-55,46,depth_duration_stimuli/002763_2014-06-22_19-13-10_094959634447_rgbf000075-resize_4/002763_2014-06-22_19-13-10_094959634447_rgbf000075-resize_4-target.png,125,1.68375,10,3596,125,feet,jsons/VE125_randls_44_rotated.json,814771,964887,51,Man
46,852146,DepthScenes,duration_manipulation_targetAtFixation,jsons/VE125_randls_44_rotated.json,http://54.235.29.9/FacialAge/BNav_EC2/DepthDuration/v2_depth_duration_MTurk/v2_DepthDuration_HTML.html#129,129,1602,936,1920,1200,8-21-2022,9-49-55,47,depth_duration_stimuli/003129_2014-05-12_10-48-10_094959634447_rgbf000100-resize_0/003129_2014-05-12_10-48-10_094959634447_rgbf000100-resize_0-target.png,125,4.9305,9,3196,125,feet,jsons/VE125_randls_44_rotated.json,814771,964887,51,Man
47,852146,DepthScenes,duration_manipulation_targetAtFixation,jsons/VE125_randls_44_rotated.json,http://54.235.29.9/FacialAge/BNav_EC2/DepthDuration/v2_depth_duration_MTurk/v2_DepthDuration_HTML.html#129,129,1602,936,1920,1200,8-21-2022,9-49-55,48,depth_duration_stimuli/000414_2014-06-04_19-49-13_260595134347_rgbf000044-resize_0/000414_2014-06-04_19-49-13_260595134347_rgbf000044-resize_0-target.png,125,4.329,13,2643,124,feet,jsons/VE125_randls_44_rotated.json,814771,964887,51,Man
48,852146,DepthScenes,duration_manipulation_targetAtFixation,jsons/VE125_randls_44_rotated.json,http://54.235.29.9/FacialAge/BNav_EC2/DepthDuration/v2_depth_duration_MTurk/v2_DepthDuration_HTML.html#129,129,1602,936,1920,1200,8-21-2022,9-49-55,49,depth_duration_stimuli/001170_2014-06-17_15-43-44_260595134347_rgbf000096-resize_6/001170_2014-06-17_15-43-44_260595134347_rgbf000096-resize-original.jpg,125,1.1909999999999998,0,2340,126,feet,jsons/VE125_randls_44_rotated.json,814771,964887,51,Man
49,852146,DepthScenes,duration_manipulation_targetAtFixation,jsons/VE125_randls_44_rotated.json,http://54.235.29.9/FacialAge/BNav_EC2/DepthDuration/v2_depth_duration_MTurk/v2_DepthDuration_HTML.html#129,129,1602,936,1920,1200,8-21-2022,9-49-55,50,depth_duration_stimuli/002805_2014-06-22_19-54-03_094959634447_rgbf000079-resize_1/002805_2014-06-22_19-54-03_094959634447_rgbf000079-resize_1-target.png,125,3.1439999999999997,12,2388,125,feet,jsons/VE125_randls_44_rotated.json,814771,964887,51,Man
50,852146,DepthScenes,duration_manipulation_targetAtFixation,jsons/VE125_randls_44_rotated.json,http://54.235.29.9/FacialAge/BNav_EC2/DepthDuration/v2_depth_duration_MTurk/v2_DepthDuration_HTML.html#129,129,1602,936,1920,1200,8-21-2022,9-49-55,51,depth_duration_stimuli/000906_2014-06-08_13-35-43_260595134347_rgbf000155-resize_1/000906_2014-06-08_13-35-43_260595134347_rgbf000155-resize_1-target.png,125,2.8489999999999998,10,4772,124,feet,jsons/VE125_randls_44_rotated.json,814771,964887,51,Man
51,852146,DepthScenes,duration_manipulation_targetAtFixation,jsons/VE125_randls_44_rotated.json,http://54.235.29.9/FacialAge/BNav_EC2/DepthDuration/v2_depth_duration_MTurk/v2_DepthDuration_HTML.html#129,129,1602,936,1920,1200,8-21-2022,9-49-55,52,depth_duration_stimuli/003495_2014-05-21_16-01-51_094959634447_rgbf000100-resize_3/003495_2014-05-21_16-01-51_094959634447_rgbf000100-resize_3-target.png,125,1.6255,8,2396,125,feet,jsons/VE125_randls_44_rotated.json,814771,964887,51,Man
52,852146,DepthScenes,duration_manipulation_targetAtFixation,jsons/VE125_randls_44_rotated.json,http://54.235.29.9/FacialAge/BNav_EC2/DepthDuration/v2_depth_duration_MTurk/v2_DepthDuration_HTML.html#129,129,1602,936,1920,1200,8-21-2022,9-49-55,53,depth_duration_stimuli/001244_2014-06-17_16-47-45_260595134347_rgbf000030-resize_4/001244_2014-06-17_16-47-45_260595134347_rgbf000030-resize_4-target.png,125,2.0425,8,2397,125,feet,jsons/VE125_randls_44_rotated.json,814771,964887,51,Man
53,852146,DepthScenes,duration_manipulation_targetAtFixation,jsons/VE125_randls_44_rotated.json,http://54.235.29.9/FacialAge/BNav_EC2/DepthDuration/v2_depth_duration_MTurk/v2_DepthDuration_HTML.html#129,129,1602,936,1920,1200,8-21-2022,9-49-55,54,depth_duration_stimuli/000749_2014-06-08_21-55-06_260595134347_rgbf000070-resize_2/000749_2014-06-08_21-55-06_260595134347_rgbf000070-resize_2-target.png,125,2.331,9,2599,124,feet,jsons/VE125_randls_44_rotated.json,814771,964887,51,Man
54,852146,DepthScenes,duration_manipulation_targetAtFixation,jsons/VE125_randls_44_rotated.json,http://54.235.29.9/FacialAge/BNav_EC2/DepthDuration/v2_depth_duration_MTurk/v2_DepthDuration_HTML.html#129,129,1602,936,1920,1200,8-21-2022,9-49-55,55,depth_duration_stimuli/002788_2014-06-22_19-36-03_094959634447_rgbf000088-resize_2/002788_2014-06-22_19-36-03_094959634447_rgbf000088-resize_2-target.png,125,1.6465,10,2272,124,feet,jsons/VE125_randls_44_rotated.json,814771,964887,51,Man
55,852146,DepthScenes,duration_manipulation_targetAtFixation,jsons/VE125_randls_44_rotated.json,http://54.235.29.9/FacialAge/BNav_EC2/DepthDuration/v2_depth_duration_MTurk/v2_DepthDuration_HTML.html#129,129,1602,936,1920,1200,8-21-2022,9-49-55,56,depth_duration_stimuli/001571_2014-06-20_17-21-32_260595134347_rgbf000089-resize_1/001571_2014-06-20_17-21-32_260595134347_rgbf000089-resize_1-target.png,125,1.86,7,2148,124,feet,jsons/VE125_randls_44_rotated.json,814771,964887,51,Man
56,852146,DepthScenes,duration_manipulation_targetAtFixation,jsons/VE125_randls_44_rotated.json,http://54.235.29.9/FacialAge/BNav_EC2/DepthDuration/v2_depth_duration_MTurk/v2_DepthDuration_HTML.html#129,129,1602,936,1920,1200,8-21-2022,9-49-55,57,depth_duration_stimuli/002272_2014-06-28_18-53-56_260595134347_rgbf000067-resize_2/002272_2014-06-28_18-53-56_260595134347_rgbf000067-resize_2-target.png,125,1.138,6,2308,124,feet,jsons/VE125_randls_44_rotated.json,814771,964887,51,Man
57,852146,DepthScenes,duration_manipulation_targetAtFixation,jsons/VE125_randls_44_rotated.json,http://54.235.29.9/FacialAge/BNav_EC2/DepthDuration/v2_depth_duration_MTurk/v2_DepthDuration_HTML.html#129,129,1602,936,1920,1200,8-21-2022,9-49-55,58,depth_duration_stimuli/003010_2014-06-15_12-54-35_094959634447_rgbf000112-resize_0/003010_2014-06-15_12-54-35_094959634447_rgbf000112-resize_0-target.png,125,3.1185,14,2611,125,feet,jsons/VE125_randls_44_rotated.json,814771,964887,51,Man
58,852146,DepthScenes,duration_manipulation_targetAtFixation,jsons/VE125_randls_44_rotated.json,http://54.235.29.9/FacialAge/BNav_EC2/DepthDuration/v2_depth_duration_MTurk/v2_DepthDuration_HTML.html#129,129,1602,936,1920,1200,8-21-2022,9-49-55,59,depth_duration_stimuli/001810_2014-06-26_20-51-35_260595134347_rgbf000040-resize_3/001810_2014-06-26_20-51-35_260595134347_rgbf000040-resize_3-target.png,125,2.2525,8,4260,124,feet,jsons/VE125_randls_44_rotated.json,814771,964887,51,Man
59,852146,DepthScenes,duration_manipulation_targetAtFixation,jsons/VE125_randls_44_rotated.json,http://54.235.29.9/FacialAge/BNav_EC2/DepthDuration/v2_depth_duration_MTurk/v2_DepthDuration_HTML.html#129,129,1602,936,1920,1200,8-21-2022,9-49-55,60,depth_duration_stimuli/000742_2014-06-08_18-48-09_260595134347_rgbf000164-resize_4/000742_2014-06-08_18-48-09_260595134347_rgbf000164-resize_4-target.png,125,4.632,7,2866,124,feet,jsons/VE125_randls_44_rotated.json,814771,964887,51,Man
60,852146,DepthScenes,duration_manipulation_targetAtFixation,jsons/VE125_randls_44_rotated.json,http://54.235.29.9/FacialAge/BNav_EC2/DepthDuration/v2_depth_duration_MTurk/v2_DepthDuration_HTML.html#129,129,1602,936,1920,1200,8-21-2022,9-49-55,61,depth_duration_stimuli/001066_2014-06-08_22-03-20_260595134347_rgbf000066-resize_4/001066_2014-06-08_22-03-20_260595134347_rgbf000066-resize_4-target.png,125,4.2330000000000005,12,5070,124,feet,jsons/VE125_randls_44_rotated.json,814771,964887,51,Man
61,852146,DepthScenes,duration_manipulation_targetAtFixation,jsons/VE125_randls_44_rotated.json,http://54.235.29.9/FacialAge/BNav_EC2/DepthDuration/v2_depth_duration_MTurk/v2_DepthDuration_HTML.html#129,129,1602,936,1920,1200,8-21-2022,9-49-55,62,depth_duration_stimuli/003423_2014-05-21_10-23-26_094959634447_rgbf002665-resize_2/003423_2014-05-21_10-23-26_094959634447_rgbf002665-resize_2-target.png,125,3.2575,14,3220,125,feet,jsons/VE125_randls_44_rotated.json,814771,964887,51,Man
62,852146,DepthScenes,duration_manipulation_targetAtFixation,jsons/VE125_randls_44_rotated.json,http://54.235.29.9/FacialAge/BNav_EC2/DepthDuration/v2_depth_duration_MTurk/v2_DepthDuration_HTML.html#129,129,1602,936,1920,1200,8-21-2022,9-49-55,63,depth_duration_stimuli/002905_2014-06-03_18-04-43_094959634447_rgbf000151-resize_2/002905_2014-06-03_18-04-43_094959634447_rgbf000151-resize_2-target.png,125,2.0295,8,2556,125,feet,jsons/VE125_randls_44_rotated.json,814771,964887,51,Man
63,852146,DepthScenes,duration_manipulation_targetAtFixation,jsons/VE125_randls_44_rotated.json,http://54.235.29.9/FacialAge/BNav_EC2/DepthDuration/v2_depth_duration_MTurk/v2_DepthDuration_HTML.html#129,129,1602,936,1920,1200,8-21-2022,9-49-55,64,depth_duration_stimuli/002199_2014-06-28_18-33-56_260595134347_rgbf000074-resize_0/002199_2014-06-28_18-33-56_260595134347_rgbf000074-resize_0-target.png,125,1.996,6,2667,124,feet,jsons/VE125_randls_44_rotated.json,814771,964887,51,Man
64,852146,DepthScenes,duration_manipulation_targetAtFixation,jsons/VE125_randls_44_rotated.json,http://54.235.29.9/FacialAge/BNav_EC2/DepthDuration/v2_depth_duration_MTurk/v2_DepthDuration_HTML.html#129,129,1602,936,1920,1200,8-21-2022,9-49-55,65,depth_duration_stimuli/001056_2014-06-08_18-46-44_260595134347_rgbf000068-resize_0/001056_2014-06-08_18-46-44_260595134347_rgbf000068-resize_0-target.png,125,2.6625,10,2564,126,feet,jsons/VE125_randls_44_rotated.json,814771,964887,51,Man
65,852146,DepthScenes,duration_manipulation_targetAtFixation,jsons/VE125_randls_44_rotated.json,http://54.235.29.9/FacialAge/BNav_EC2/DepthDuration/v2_depth_duration_MTurk/v2_DepthDuration_HTML.html#129,129,1602,936,1920,1200,8-21-2022,9-49-55,66,depth_duration_stimuli/001540_2014-06-20_17-01-05_260595134347_rgbf000086-resize_2/001540_2014-06-20_17-01-05_260595134347_rgbf000086-resize-original.jpg,125,1.459,0,2436,125,feet,jsons/VE125_randls_44_rotated.json,814771,964887,51,Man
66,852146,DepthScenes,duration_manipulation_targetAtFixation,jsons/VE125_randls_44_rotated.json,http://54.235.29.9/FacialAge/BNav_EC2/DepthDuration/v2_depth_duration_MTurk/v2_DepthDuration_HTML.html#129,129,1602,936,1920,1200,8-21-2022,9-49-55,67,depth_duration_stimuli/002545_2014-06-24_13-38-53_094959634447_rgbf000080-resize_4/002545_2014-06-24_13-38-53_094959634447_rgbf000080-resize_4-target.png,125,1.9205,7,4060,124,feet,jsons/VE125_randls_44_rotated.json,814771,964887,51,Man
67,852146,DepthScenes,duration_manipulation_targetAtFixation,jsons/VE125_randls_44_rotated.json,http://54.235.29.9/FacialAge/BNav_EC2/DepthDuration/v2_depth_duration_MTurk/v2_DepthDuration_HTML.html#129,129,1602,936,1920,1200,8-21-2022,9-49-55,68,depth_duration_stimuli/001092_2014-06-15_17-34-58_260595134347_rgbf000171-resize_3/001092_2014-06-15_17-34-58_260595134347_rgbf000171-resize_3-target.png,125,2.6935,7,2388,125,feet,jsons/VE125_randls_44_rotated.json,814771,964887,51,Man
68,852146,DepthScenes,duration_manipulation_targetAtFixation,jsons/VE125_randls_44_rotated.json,http://54.235.29.9/FacialAge/BNav_EC2/DepthDuration/v2_depth_duration_MTurk/v2_DepthDuration_HTML.html#129,129,1602,936,1920,1200,8-21-2022,9-49-55,69,depth_duration_stimuli/000483_2014-06-09_20-41-45_260595134347_rgbf000116-resize_4/000483_2014-06-09_20-41-45_260595134347_rgbf000116-resize_4-target.png,125,1.337,5,2556,125,feet,jsons/VE125_randls_44_rotated.json,814771,964887,51,Man
69,852146,DepthScenes,duration_manipulation_targetAtFixation,jsons/VE125_randls_44_rotated.json,http://54.235.29.9/FacialAge/BNav_EC2/DepthDuration/v2_depth_duration_MTurk/v2_DepthDuration_HTML.html#129,129,1602,936,1920,1200,8-21-2022,9-49-55,70,depth_duration_stimuli/000469_2014-06-09_19-42-10_260595134347_rgbf000081-resize_1/000469_2014-06-09_19-42-10_260595134347_rgbf000081-resize_1-target.png,125,1.652,6,2268,126,feet,jsons/VE125_randls_44_rotated.json,814771,964887,51,Man
70,852146,DepthScenes,duration_manipulation_targetAtFixation,jsons/VE125_randls_44_rotated.json,http://54.235.29.9/FacialAge/BNav_EC2/DepthDuration/v2_depth_duration_MTurk/v2_DepthDuration_HTML.html#129,129,1602,936,1920,1200,8-21-2022,9-49-55,71,depth_duration_stimuli/001815_2014-06-26_20-52-55_260595134347_rgbf000020-resize_0/001815_2014-06-26_20-52-55_260595134347_rgbf000020-resize_0-target.png,125,3.3865,10,4068,125,feet,jsons/VE125_randls_44_rotated.json,814771,964887,51,Man
71,852146,DepthScenes,duration_manipulation_targetAtFixation,jsons/VE125_randls_44_rotated.json,http://54.235.29.9/FacialAge/BNav_EC2/DepthDuration/v2_depth_duration_MTurk/v2_DepthDuration_HTML.html#129,129,1602,936,1920,1200,8-21-2022,9-49-55,72,depth_duration_stimuli/001808_2014-06-26_20-50-58_260595134347_rgbf000029-resize_1/001808_2014-06-26_20-50-58_260595134347_rgbf000029-resize_1-target.png,125,4.249,11,3595,124,feet,jsons/VE125_randls_44_rotated.json,814771,964887,51,Man
72,852146,DepthScenes,duration_manipulation_targetAtFixation,jsons/VE125_randls_44_rotated.json,http://54.235.29.9/FacialAge/BNav_EC2/DepthDuration/v2_depth_duration_MTurk/v2_DepthDuration_HTML.html#129,129,1602,936,1920,1200,8-21-2022,9-49-55,73,depth_duration_stimuli/003587_2014-05-23_16-48-02_094959634447_rgbf002384-resize_2/003587_2014-05-23_16-48-02_094959634447_rgbf002384-resize_2-target.png,125,1.357,6,2740,125,feet,jsons/VE125_randls_44_rotated.json,814771,964887,51,Man
73,852146,DepthScenes,duration_manipulation_targetAtFixation,jsons/VE125_randls_44_rotated.json,http://54.235.29.9/FacialAge/BNav_EC2/DepthDuration/v2_depth_duration_MTurk/v2_DepthDuration_HTML.html#129,129,1602,936,1920,1200,8-21-2022,9-49-55,74,depth_duration_stimuli/001167_2014-06-17_15-38-07_260595134347_rgbf000108-resize_0/001167_2014-06-17_15-38-07_260595134347_rgbf000108-resize_0-target.png,125,1.8505,8,2236,125,feet,jsons/VE125_randls_44_rotated.json,814771,964887,51,Man
74,852146,DepthScenes,duration_manipulation_targetAtFixation,jsons/VE125_randls_44_rotated.json,http://54.235.29.9/FacialAge/BNav_EC2/DepthDuration/v2_depth_duration_MTurk/v2_DepthDuration_HTML.html#129,129,1602,936,1920,1200,8-21-2022,9-49-55,75,depth_duration_stimuli/003048_2014-06-15_13-49-43_094959634447_rgbf000150-resize_1/003048_2014-06-15_13-49-43_094959634447_rgbf000150-resize_1-target.png,125,4.0035,12,2363,125,feet,jsons/VE125_randls_44_rotated.json,814771,964887,51,Man
75,852146,DepthScenes,duration_manipulation_targetAtFixation,jsons/VE125_randls_44_rotated.json,http://54.235.29.9/FacialAge/BNav_EC2/DepthDuration/v2_depth_duration_MTurk/v2_DepthDuration_HTML.html#129,129,1602,936,1920,1200,8-21-2022,9-49-55,76,depth_duration_stimuli/002043_2014-06-24_20-29-38_260595134347_rgbf000039-resize_4/002043_2014-06-24_20-29-38_260595134347_rgbf000039-resize_4-target.png,125,2.8435,10,2700,125,feet,jsons/VE125_randls_44_rotated.json,814771,964887,51,Man
76,852146,DepthScenes,duration_manipulation_targetAtFixation,jsons/VE125_randls_44_rotated.json,http://54.235.29.9/FacialAge/BNav_EC2/DepthDuration/v2_depth_duration_MTurk/v2_DepthDuration_HTML.html#129,129,1602,936,1920,1200,8-21-2022,9-49-55,77,depth_duration_stimuli/000665_2014-06-09_20-42-35_260595134347_rgbf000110-resize_1/000665_2014-06-09_20-42-35_260595134347_rgbf000110-resize_1-target.png,125,3.057,8,2299,124,feet,jsons/VE125_randls_44_rotated.json,814771,964887,51,Man
77,852146,DepthScenes,duration_manipulation_targetAtFixation,jsons/VE125_randls_44_rotated.json,http://54.235.29.9/FacialAge/BNav_EC2/DepthDuration/v2_depth_duration_MTurk/v2_DepthDuration_HTML.html#129,129,1602,936,1920,1200,8-21-2022,9-49-55,78,depth_duration_stimuli/001150_2014-06-17_15-27-34_260595134347_rgbf000108-resize_2/001150_2014-06-17_15-27-34_260595134347_rgbf000108-resize_2-target.png,125,4.0325,10,2923,125,feet,jsons/VE125_randls_44_rotated.json,814771,964887,51,Man
78,852146,DepthScenes,duration_manipulation_targetAtFixation,jsons/VE125_randls_44_rotated.json,http://54.235.29.9/FacialAge/BNav_EC2/DepthDuration/v2_depth_duration_MTurk/v2_DepthDuration_HTML.html#129,129,1602,936,1920,1200,8-21-2022,9-49-55,79,depth_duration_stimuli/003338_2014-05-20_11-01-23_094959634447_rgbf000051-resize_6/003338_2014-05-20_11-01-23_094959634447_rgbf000051-resize_6-target.png,125,1.693,9,5588,124,feet,jsons/VE125_randls_44_rotated.json,814771,964887,51,Man
79,852146,DepthScenes,duration_manipulation_targetAtFixation,jsons/VE125_randls_44_rotated.json,http://54.235.29.9/FacialAge/BNav_EC2/DepthDuration/v2_depth_duration_MTurk/v2_DepthDuration_HTML.html#129,129,1602,936,1920,1200,8-21-2022,9-49-55,80,depth_duration_stimuli/002509_2014-06-24_13-19-22_094959634447_rgbf000077-resize_0/002509_2014-06-24_13-19-22_094959634447_rgbf000077-resize_0-target.png,125,1.3065,6,3779,125,feet,jsons/VE125_randls_44_rotated.json,814771,964887,51,Man
80,852146,DepthScenes,duration_manipulation_targetAtFixation,jsons/VE125_randls_44_rotated.json,http://54.235.29.9/FacialAge/BNav_EC2/DepthDuration/v2_depth_duration_MTurk/v2_DepthDuration_HTML.html#129,129,1602,936,1920,1200,8-21-2022,9-49-55,81,depth_duration_stimuli/001052_2014-06-08_18-24-54_260595134347_rgbf000130-resize_1/001052_2014-06-08_18-24-54_260595134347_rgbf000130-resize_1-target.png,125,4.1045,10,3459,125,feet,jsons/VE125_randls_44_rotated.json,814771,964887,51,Man
81,852146,DepthScenes,duration_manipulation_targetAtFixation,jsons/VE125_randls_44_rotated.json,http://54.235.29.9/FacialAge/BNav_EC2/DepthDuration/v2_depth_duration_MTurk/v2_DepthDuration_HTML.html#129,129,1602,936,1920,1200,8-21-2022,9-49-55,82,depth_duration_stimuli/002988_2014-06-15_12-24-20_094959634447_rgbf000150-resize_1/002988_2014-06-15_12-24-20_094959634447_rgbf000150-resize_1-target.png,125,4.7669999999999995,12,3324,125,feet,jsons/VE125_randls_44_rotated.json,814771,964887,51,Man
82,852146,DepthScenes,duration_manipulation_targetAtFixation,jsons/VE125_randls_44_rotated.json,http://54.235.29.9/FacialAge/BNav_EC2/DepthDuration/v2_depth_duration_MTurk/v2_DepthDuration_HTML.html#129,129,1602,936,1920,1200,8-21-2022,9-49-55,83,depth_duration_stimuli/001100_2014-06-15_17-46-26_260595134347_rgbf000225-resize_2/001100_2014-06-15_17-46-26_260595134347_rgbf000225-resize_2-target.png,125,2.24,7,3244,124,feet,jsons/VE125_randls_44_rotated.json,814771,964887,51,Man
83,852146,DepthScenes,duration_manipulation_targetAtFixation,jsons/VE125_randls_44_rotated.json,http://54.235.29.9/FacialAge/BNav_EC2/DepthDuration/v2_depth_duration_MTurk/v2_DepthDuration_HTML.html#129,129,1602,936,1920,1200,8-21-2022,9-49-55,84,depth_duration_stimuli/002784_2014-06-22_19-26-30_094959634447_rgbf000083-resize_3/002784_2014-06-22_19-26-30_094959634447_rgbf000083-resize_3-target.png,125,1.8046666666667,8,2883,124,feet,jsons/VE125_randls_44_rotated.json,814771,964887,51,Man
84,852146,DepthScenes,duration_manipulation_targetAtFixation,jsons/VE125_randls_44_rotated.json,http://54.235.29.9/FacialAge/BNav_EC2/DepthDuration/v2_depth_duration_MTurk/v2_DepthDuration_HTML.html#129,129,1602,936,1920,1200,8-21-2022,9-49-55,85,depth_duration_stimuli/000137_2014-05-20_17-04-49_260595134347_rgbf000120-resize_1/000137_2014-05-20_17-04-49_260595134347_rgbf000120-resize_1-target.png,125,3.786,8,3724,125,feet,jsons/VE125_randls_44_rotated.json,814771,964887,51,Man
85,852146,DepthScenes,duration_manipulation_targetAtFixation,jsons/VE125_randls_44_rotated.json,http://54.235.29.9/FacialAge/BNav_EC2/DepthDuration/v2_depth_duration_MTurk/v2_DepthDuration_HTML.html#129,129,1602,936,1920,1200,8-21-2022,9-49-55,86,depth_duration_stimuli/000736_2014-06-08_18-24-15_260595134347_rgbf000206-resize_3/000736_2014-06-08_18-24-15_260595134347_rgbf000206-resize_3-target.png,125,3.515,7,2532,125,feet,jsons/VE125_randls_44_rotated.json,814771,964887,51,Man
86,852146,DepthScenes,duration_manipulation_targetAtFixation,jsons/VE125_randls_44_rotated.json,http://54.235.29.9/FacialAge/BNav_EC2/DepthDuration/v2_depth_duration_MTurk/v2_DepthDuration_HTML.html#129,129,1602,936,1920,1200,8-21-2022,9-49-55,87,depth_duration_stimuli/002637_2014-06-24_14-51-13_094959634447_rgbf000066-resize_4/002637_2014-06-24_14-51-13_094959634447_rgbf000066-resize_4-target.png,125,1.9955,9,2251,125,feet,jsons/VE125_randls_44_rotated.json,814771,964887,51,Man
87,852146,DepthScenes,duration_manipulation_targetAtFixation,jsons/VE125_randls_44_rotated.json,http://54.235.29.9/FacialAge/BNav_EC2/DepthDuration/v2_depth_duration_MTurk/v2_DepthDuration_HTML.html#129,129,1602,936,1920,1200,8-21-2022,9-49-55,88,depth_duration_stimuli/003534_2014-05-22_15-06-10_094959634447_rgbf000102-resize_4/003534_2014-05-22_15-06-10_094959634447_rgbf000102-resize_4-target.png,125,1.426,8,2517,125,feet,jsons/VE125_randls_44_rotated.json,814771,964887,51,Man
88,852146,DepthScenes,duration_manipulation_targetAtFixation,jsons/VE125_randls_44_rotated.json,http://54.235.29.9/FacialAge/BNav_EC2/DepthDuration/v2_depth_duration_MTurk/v2_DepthDuration_HTML.html#129,129,1602,936,1920,1200,8-21-2022,9-49-55,89,depth_duration_stimuli/000556_2014-06-09_22-42-56_260595134347_rgbf000214-resize_1/000556_2014-06-09_22-42-56_260595134347_rgbf000214-resize_1-target.png,125,4.8415,7,2884,125,feet,jsons/VE125_randls_44_rotated.json,814771,964887,51,Man
89,852146,DepthScenes,duration_manipulation_targetAtFixation,jsons/VE125_randls_44_rotated.json,http://54.235.29.9/FacialAge/BNav_EC2/DepthDuration/v2_depth_duration_MTurk/v2_DepthDuration_HTML.html#129,129,1602,936,1920,1200,8-21-2022,9-49-55,90,depth_duration_stimuli/001158_2014-06-17_15-32-16_260595134347_rgbf000138-resize_2/001158_2014-06-17_15-32-16_260595134347_rgbf000138-resize_2-target.png,125,4.5315,15,2588,125,feet,jsons/VE125_randls_44_rotated.json,814771,964887,51,Man
90,852146,DepthScenes,duration_manipulation_targetAtFixation,jsons/VE125_randls_44_rotated.json,http://54.235.29.9/FacialAge/BNav_EC2/DepthDuration/v2_depth_duration_MTurk/v2_DepthDuration_HTML.html#129,129,1602,936,1920,1200,8-21-2022,9-49-55,91,depth_duration_stimuli/002323_2014-06-28_20-01-54_260595134347_rgbf000051-resize_4/002323_2014-06-28_20-01-54_260595134347_rgbf000051-resize_4-target.png,125,3.7310000000000003,14,2324,124,feet,jsons/VE125_randls_44_rotated.json,814771,964887,51,Man
91,852146,DepthScenes,duration_manipulation_targetAtFixation,jsons/VE125_randls_44_rotated.json,http://54.235.29.9/FacialAge/BNav_EC2/DepthDuration/v2_depth_duration_MTurk/v2_DepthDuration_HTML.html#129,129,1602,936,1920,1200,8-21-2022,9-49-55,92,depth_duration_stimuli/000917_2014-06-09_22-45-29_260595134347_rgbf000149-resize_3/000917_2014-06-09_22-45-29_260595134347_rgbf000149-resize_3-target.png,125,4.1865,10,2237,124,feet,jsons/VE125_randls_44_rotated.json,814771,964887,51,Man
92,852146,DepthScenes,duration_manipulation_targetAtFixation,jsons/VE125_randls_44_rotated.json,http://54.235.29.9/FacialAge/BNav_EC2/DepthDuration/v2_depth_duration_MTurk/v2_DepthDuration_HTML.html#129,129,1602,936,1920,1200,8-21-2022,9-49-55,93,depth_duration_stimuli/002750_2014-06-22_19-08-03_094959634447_rgbf000094-resize_4/002750_2014-06-22_19-08-03_094959634447_rgbf000094-resize_4-target.png,125,2.354,12,3325,125,feet,jsons/VE125_randls_44_rotated.json,814771,964887,51,Man
93,852146,DepthScenes,duration_manipulation_targetAtFixation,jsons/VE125_randls_44_rotated.json,http://54.235.29.9/FacialAge/BNav_EC2/DepthDuration/v2_depth_duration_MTurk/v2_DepthDuration_HTML.html#129,129,1602,936,1920,1200,8-21-2022,9-49-55,94,depth_duration_stimuli/002549_2014-06-24_13-41-39_094959634447_rgbf000022-resize_3/002549_2014-06-24_13-41-39_094959634447_rgbf000022-resize_3-target.png,125,1.476,8,2067,125,feet,jsons/VE125_randls_44_rotated.json,814771,964887,51,Man
94,852146,DepthScenes,duration_manipulation_targetAtFixation,jsons/VE125_randls_44_rotated.json,http://54.235.29.9/FacialAge/BNav_EC2/DepthDuration/v2_depth_duration_MTurk/v2_DepthDuration_HTML.html#129,129,1602,936,1920,1200,8-21-2022,9-49-55,95,depth_duration_stimuli/001650_2014-06-20_12-09-00_260595134347_rgbf000087-resize_3/001650_2014-06-20_12-09-00_260595134347_rgbf000087-resize_3-target.png,125,1.9505,9,2163,125,feet,jsons/VE125_randls_44_rotated.json,814771,964887,51,Man
95,852146,DepthScenes,duration_manipulation_targetAtFixation,jsons/VE125_randls_44_rotated.json,http://54.235.29.9/FacialAge/BNav_EC2/DepthDuration/v2_depth_duration_MTurk/v2_DepthDuration_HTML.html#129,129,1602,936,1920,1200,8-21-2022,9-49-55,96,depth_duration_stimuli/000682_2014-06-08_23-14-58_260595134347_rgbf000041-resize_5/000682_2014-06-08_23-14-58_260595134347_rgbf000041-resize_5-target.png,125,2.7239999999999998,7,2299,125,feet,jsons/VE125_randls_44_rotated.json,814771,964887,51,Man
96,852146,DepthScenes,duration_manipulation_targetAtFixation,jsons/VE125_randls_44_rotated.json,http://54.235.29.9/FacialAge/BNav_EC2/DepthDuration/v2_depth_duration_MTurk/v2_DepthDuration_HTML.html#129,129,1602,936,1920,1200,8-21-2022,9-49-55,97,depth_duration_stimuli/001447_2014-06-19_17-00-32_260595134347_rgbf000082-resize_5/001447_2014-06-19_17-00-32_260595134347_rgbf000082-resize_5-target.png,125,4.13775,8,2475,125,feet,jsons/VE125_randls_44_rotated.json,814771,964887,51,Man
97,852146,DepthScenes,duration_manipulation_targetAtFixation,jsons/VE125_randls_44_rotated.json,http://54.235.29.9/FacialAge/BNav_EC2/DepthDuration/v2_depth_duration_MTurk/v2_DepthDuration_HTML.html#129,129,1602,936,1920,1200,8-21-2022,9-49-55,98,depth_duration_stimuli/000447_2014-06-08_16-15-46_260595134347_rgbf000130-resize_1/000447_2014-06-08_16-15-46_260595134347_rgbf000130-resize_1-target.png,125,4.479,10,2548,125,feet,jsons/VE125_randls_44_rotated.json,814771,964887,51,Man
98,852146,DepthScenes,duration_manipulation_targetAtFixation,jsons/VE125_randls_44_rotated.json,http://54.235.29.9/FacialAge/BNav_EC2/DepthDuration/v2_depth_duration_MTurk/v2_DepthDuration_HTML.html#129,129,1602,936,1920,1200,8-21-2022,9-49-55,99,depth_duration_stimuli/001222_2014-06-17_16-24-06_260595134347_rgbf000073-resize_0/001222_2014-06-17_16-24-06_260595134347_rgbf000073-resize-original.jpg,125,1.4385,0,2594,124,feet,jsons/VE125_randls_44_rotated.json,814771,964887,51,Man
99,852146,DepthScenes,duration_manipulation_targetAtFixation,jsons/VE125_randls_44_rotated.json,http://54.235.29.9/FacialAge/BNav_EC2/DepthDuration/v2_depth_duration_MTurk/v2_DepthDuration_HTML.html#129,129,1602,936,1920,1200,8-21-2022,9-49-55,100,depth_duration_stimuli/000866_2014-06-09_20-45-42_260595134347_rgbf000139-resize_1/000866_2014-06-09_20-45-42_260595134347_rgbf000139-resize_1-target.png,125,3.2155,15,2660,125,feet,jsons/VE125_randls_44_rotated.json,814771,964887,51,Man
100,852146,DepthScenes,duration_manipulation_targetAtFixation,jsons/VE125_randls_44_rotated.json,http://54.235.29.9/FacialAge/BNav_EC2/DepthDuration/v2_depth_duration_MTurk/v2_DepthDuration_HTML.html#129,129,1602,936,1920,1200,8-21-2022,9-49-55,101,depth_duration_stimuli/002989_2014-06-15_12-25-03_094959634447_rgbf000150-resize_3/002989_2014-06-15_12-25-03_094959634447_rgbf000150-resize_3-target.png,125,4.1975,14,4739,125,feet,jsons/VE125_randls_44_rotated.json,814771,964887,51,Man
101,852146,DepthScenes,duration_manipulation_targetAtFixation,jsons/VE125_randls_44_rotated.json,http://54.235.29.9/FacialAge/BNav_EC2/DepthDuration/v2_depth_duration_MTurk/v2_DepthDuration_HTML.html#129,129,1602,936,1920,1200,8-21-2022,9-49-55,102,depth_duration_stimuli/002949_2014-06-26_15-57-42_094959634447_rgbf000079-resize_1/002949_2014-06-26_15-57-42_094959634447_rgbf000079-resize_1-target.png,125,1.8915,8,2347,125,feet,jsons/VE125_randls_44_rotated.json,814771,964887,51,Man
102,852146,DepthScenes,duration_manipulation_targetAtFixation,jsons/VE125_randls_44_rotated.json,http://54.235.29.9/FacialAge/BNav_EC2/DepthDuration/v2_depth_duration_MTurk/v2_DepthDuration_HTML.html#129,129,1602,936,1920,1200,8-21-2022,9-49-55,103,depth_duration_stimuli/000522_2014-06-08_13-35-06_260595134347_rgbf000244-resize_1/000522_2014-06-08_13-35-06_260595134347_rgbf000244-resize_1-target.png,125,2.3715,4,4835,125,feet,jsons/VE125_randls_44_rotated.json,814771,964887,51,Man
103,852146,DepthScenes,duration_manipulation_targetAtFixation,jsons/VE125_randls_44_rotated.json,http://54.235.29.9/FacialAge/BNav_EC2/DepthDuration/v2_depth_duration_MTurk/v2_DepthDuration_HTML.html#129,129,1602,936,1920,1200,8-21-2022,9-49-55,104,depth_duration_stimuli/002344_2014-06-28_20-06-29_260595134347_rgbf000030-resize_1/002344_2014-06-28_20-06-29_260595134347_rgbf000030-resize_1-target.png,125,1.5795,5,2348,124,feet,jsons/VE125_randls_44_rotated.json,814771,964887,51,Man
104,852146,DepthScenes,duration_manipulation_targetAtFixation,jsons/VE125_randls_44_rotated.json,http://54.235.29.9/FacialAge/BNav_EC2/DepthDuration/v2_depth_duration_MTurk/v2_DepthDuration_HTML.html#129,129,1602,936,1920,1200,8-21-2022,9-49-55,105,depth_duration_stimuli/002725_2014-06-22_11-47-51_094959634447_rgbf000070-resize_1/002725_2014-06-22_11-47-51_094959634447_rgbf000070-resize_1-target.png,125,2.195,9,2907,125,feet,jsons/VE125_randls_44_rotated.json,814771,964887,51,Man
105,852146,DepthScenes,duration_manipulation_targetAtFixation,jsons/VE125_randls_44_rotated.json,http://54.235.29.9/FacialAge/BNav_EC2/DepthDuration/v2_depth_duration_MTurk/v2_DepthDuration_HTML.html#129,129,1602,936,1920,1200,8-21-2022,9-49-55,106,depth_duration_stimuli/000943_2014-06-09_19-31-07_260595134347_rgbf000128-resize_1/000943_2014-06-09_19-31-07_260595134347_rgbf000128-resize_1-target.png,125,1.9765,10,2275,124,feet,jsons/VE125_randls_44_rotated.json,814771,964887,51,Man
106,852146,DepthScenes,duration_manipulation_targetAtFixation,jsons/VE125_randls_44_rotated.json,http://54.235.29.9/FacialAge/BNav_EC2/DepthDuration/v2_depth_duration_MTurk/v2_DepthDuration_HTML.html#129,129,1602,936,1920,1200,8-21-2022,9-49-55,107,depth_duration_stimuli/003070_2014-06-15_14-58-27_094959634447_rgbf000150-resize_3/003070_2014-06-15_14-58-27_094959634447_rgbf000150-resize_3-target.png,125,2.9415,13,5196,124,feet,jsons/VE125_randls_44_rotated.json,814771,964887,51,Man
107,852146,DepthScenes,duration_manipulation_targetAtFixation,jsons/VE125_randls_44_rotated.json,http://54.235.29.9/FacialAge/BNav_EC2/DepthDuration/v2_depth_duration_MTurk/v2_DepthDuration_HTML.html#129,129,1602,936,1920,1200,8-21-2022,9-49-55,108,depth_duration_stimuli/002758_2014-06-22_19-11-20_094959634447_rgbf000128-resize_1/002758_2014-06-22_19-11-20_094959634447_rgbf000128-resize_1-target.png,125,2.555,10,2932,125,feet,jsons/VE125_randls_44_rotated.json,814771,964887,51,Man
108,852146,DepthScenes,duration_manipulation_targetAtFixation,jsons/VE125_randls_44_rotated.json,http://54.235.29.9/FacialAge/BNav_EC2/DepthDuration/v2_depth_duration_MTurk/v2_DepthDuration_HTML.html#129,129,1602,936,1920,1200,8-21-2022,9-49-55,109,depth_duration_stimuli/002630_2014-06-24_14-47-50_094959634447_rgbf000055-resize_1/002630_2014-06-24_14-47-50_094959634447_rgbf000055-resize_1-target.png,125,3.0095,12,2939,125,feet,jsons/VE125_randls_44_rotated.json,814771,964887,51,Man
109,852146,DepthScenes,duration_manipulation_targetAtFixation,jsons/VE125_randls_44_rotated.json,http://54.235.29.9/FacialAge/BNav_EC2/DepthDuration/v2_depth_duration_MTurk/v2_DepthDuration_HTML.html#129,129,1602,936,1920,1200,8-21-2022,9-49-55,110,depth_duration_stimuli/002340_2014-06-28_20-05-46_260595134347_rgbf000113-resize_0/002340_2014-06-28_20-05-46_260595134347_rgbf000113-resize_0-target.png,125,2.4735,14,3124,124,feet,jsons/VE125_randls_44_rotated.json,814771,964887,51,Man
110,852146,DepthScenes,duration_manipulation_targetAtFixation,jsons/VE125_randls_44_rotated.json,http://54.235.29.9/FacialAge/BNav_EC2/DepthDuration/v2_depth_duration_MTurk/v2_DepthDuration_HTML.html#129,129,1602,936,1920,1200,8-21-2022,9-49-55,111,depth_duration_stimuli/001016_2014-06-09_16-16-10_260595134347_rgbf000112-resize_5/001016_2014-06-09_16-16-10_260595134347_rgbf000112-resize_5-target.png,125,1.6565,12,2891,125,feet,jsons/VE125_randls_44_rotated.json,814771,964887,51,Man
111,852146,DepthScenes,duration_manipulation_targetAtFixation,jsons/VE125_randls_44_rotated.json,http://54.235.29.9/FacialAge/BNav_EC2/DepthDuration/v2_depth_duration_MTurk/v2_DepthDuration_HTML.html#129,129,1602,936,1920,1200,8-21-2022,9-49-55,112,depth_duration_stimuli/001584_2014-06-20_11-07-43_260595134347_rgbf000002-resize_1/001584_2014-06-20_11-07-43_260595134347_rgbf000002-resize_1-target.png,125,3.53,8,8179,125,feet,jsons/VE125_randls_44_rotated.json,814771,964887,51,Man
112,852146,DepthScenes,duration_manipulation_targetAtFixation,jsons/VE125_randls_44_rotated.json,http://54.235.29.9/FacialAge/BNav_EC2/DepthDuration/v2_depth_duration_MTurk/v2_DepthDuration_HTML.html#129,129,1602,936,1920,1200,8-21-2022,9-49-55,113,depth_duration_stimuli/003621_2014-05-23_18-06-08_094959634447_rgbf000101-resize_1/003621_2014-05-23_18-06-08_094959634447_rgbf000101-resize_1-target.png,125,3.9835,12,2451,124,feet,jsons/VE125_randls_44_rotated.json,814771,964887,51,Man
113,852146,DepthScenes,duration_manipulation_targetAtFixation,jsons/VE125_randls_44_rotated.json,http://54.235.29.9/FacialAge/BNav_EC2/DepthDuration/v2_depth_duration_MTurk/v2_DepthDuration_HTML.html#129,129,1602,936,1920,1200,8-21-2022,9-49-55,114,depth_duration_stimuli/001617_2014-06-20_11-35-32_260595134347_rgbf000066-resize_1/001617_2014-06-20_11-35-32_260595134347_rgbf000066-resize_1-target.png,125,3.7910000000000004,12,2540,125,feet,jsons/VE125_randls_44_rotated.json,814771,964887,51,Man
114,852146,DepthScenes,duration_manipulation_targetAtFixation,jsons/VE125_randls_44_rotated.json,http://54.235.29.9/FacialAge/BNav_EC2/DepthDuration/v2_depth_duration_MTurk/v2_DepthDuration_HTML.html#129,129,1602,936,1920,1200,8-21-2022,9-49-55,115,depth_duration_stimuli/001806_2014-06-26_20-50-20_260595134347_rgbf000091-resize_1/001806_2014-06-26_20-50-20_260595134347_rgbf000091-resize_1-target.png,125,2.7305,6,3027,125,feet,jsons/VE125_randls_44_rotated.json,814771,964887,51,Man
115,852146,DepthScenes,duration_manipulation_targetAtFixation,jsons/VE125_randls_44_rotated.json,http://54.235.29.9/FacialAge/BNav_EC2/DepthDuration/v2_depth_duration_MTurk/v2_DepthDuration_HTML.html#129,129,1602,936,1920,1200,8-21-2022,9-49-55,116,depth_duration_stimuli/000502_2014-06-08_23-02-32_260595134347_rgbf000063-resize_4/000502_2014-06-08_23-02-32_260595134347_rgbf000063-resize_4-target.png,125,2.431,8,2500,125,feet,jsons/VE125_randls_44_rotated.json,814771,964887,51,Man
116,852146,DepthScenes,duration_manipulation_targetAtFixation,jsons/VE125_randls_44_rotated.json,http://54.235.29.9/FacialAge/BNav_EC2/DepthDuration/v2_depth_duration_MTurk/v2_DepthDuration_HTML.html#129,129,1602,936,1920,1200,8-21-2022,9-49-55,117,depth_duration_stimuli/001199_2014-06-17_16-03-48_260595134347_rgbf000077-resize_0/001199_2014-06-17_16-03-48_260595134347_rgbf000077-resize_0-target.png,125,3.4375,10,2551,124,feet,jsons/VE125_randls_44_rotated.json,814771,964887,51,Man
117,852146,DepthScenes,duration_manipulation_targetAtFixation,jsons/VE125_randls_44_rotated.json,http://54.235.29.9/FacialAge/BNav_EC2/DepthDuration/v2_depth_duration_MTurk/v2_DepthDuration_HTML.html#129,129,1602,936,1920,1200,8-21-2022,9-49-55,118,depth_duration_stimuli/002953_2014-06-08_17-32-18_094959634447_rgbf000059-resize_5/002953_2014-06-08_17-32-18_094959634447_rgbf000059-resize_5-target.png,125,1.551,5,3883,125,feet,jsons/VE125_randls_44_rotated.json,814771,964887,51,Man
118,852146,DepthScenes,duration_manipulation_targetAtFixation,jsons/VE125_randls_44_rotated.json,http://54.235.29.9/FacialAge/BNav_EC2/DepthDuration/v2_depth_duration_MTurk/v2_DepthDuration_HTML.html#129,129,1602,936,1920,1200,8-21-2022,9-49-55,119,depth_duration_stimuli/000878_2014-06-08_22-52-45_260595134347_rgbf000045-resize_2/000878_2014-06-08_22-52-45_260595134347_rgbf000045-resize_2-target.png,125,2.092,9,1828,125,feet,jsons/VE125_randls_44_rotated.json,814771,964887,51,Man
119,852146,DepthScenes,duration_manipulation_targetAtFixation,jsons/VE125_randls_44_rotated.json,http://54.235.29.9/FacialAge/BNav_EC2/DepthDuration/v2_depth_duration_MTurk/v2_DepthDuration_HTML.html#129,129,1602,936,1920,1200,8-21-2022,9-49-55,120,depth_duration_stimuli/000787_2014-06-08_22-33-53_260595134347_rgbf000175-resize_1/000787_2014-06-08_22-33-53_260595134347_rgbf000175-resize-original.jpg,125,4.784,0,1268,125,feet,jsons/VE125_randls_44_rotated.json,814771,964887,51,Man
120,852146,DepthScenes,duration_manipulation_targetAtFixation,jsons/VE125_randls_44_rotated.json,http://54.235.29.9/FacialAge/BNav_EC2/DepthDuration/v2_depth_duration_MTurk/v2_DepthDuration_HTML.html#129,129,1602,936,1920,1200,8-21-2022,9-49-55,121,depth_duration_stimuli/001136_2014-06-17_15-19-41_260595134347_rgbf000076-resize_3/001136_2014-06-17_15-19-41_260595134347_rgbf000076-resize_3-target.png,125,1.8655,12,2044,125,feet,jsons/VE125_randls_44_rotated.json,814771,964887,51,Man
121,852146,DepthScenes,duration_manipulation_targetAtFixation,jsons/VE125_randls_44_rotated.json,http://54.235.29.9/FacialAge/BNav_EC2/DepthDuration/v2_depth_duration_MTurk/v2_DepthDuration_HTML.html#129,129,1602,936,1920,1200,8-21-2022,9-49-55,122,depth_duration_stimuli/001164_2014-06-17_15-35-46_260595134347_rgbf000085-resize_3/001164_2014-06-17_15-35-46_260595134347_rgbf000085-resize_3-target.png,125,2.354,11,1740,125,feet,jsons/VE125_randls_44_rotated.json,814771,964887,51,Man
122,852146,DepthScenes,duration_manipulation_targetAtFixation,jsons/VE125_randls_44_rotated.json,http://54.235.29.9/FacialAge/BNav_EC2/DepthDuration/v2_depth_duration_MTurk/v2_DepthDuration_HTML.html#129,129,1602,936,1920,1200,8-21-2022,9-49-55,123,depth_duration_stimuli/000409_2014-06-04_19-23-33_260595134347_rgbf000067-resize_0/000409_2014-06-04_19-23-33_260595134347_rgbf000067-resize_0-target.png,125,3.7335,15,1973,124,feet,jsons/VE125_randls_44_rotated.json,814771,964887,51,Man
123,852146,DepthScenes,duration_manipulation_targetAtFixation,jsons/VE125_randls_44_rotated.json,http://54.235.29.9/FacialAge/BNav_EC2/DepthDuration/v2_depth_duration_MTurk/v2_DepthDuration_HTML.html#129,129,1602,936,1920,1200,8-21-2022,9-49-55,124,depth_duration_stimuli/002663_2014-06-13_15-50-26_094959634447_rgbf000075-resize_1/002663_2014-06-13_15-50-26_094959634447_rgbf000075-resize_1-target.png,125,4.7495,12,1947,124,feet,jsons/VE125_randls_44_rotated.json,814771,964887,51,Man
124,852146,DepthScenes,duration_manipulation_targetAtFixation,jsons/VE125_randls_44_rotated.json,http://54.235.29.9/FacialAge/BNav_EC2/DepthDuration/v2_depth_duration_MTurk/v2_DepthDuration_HTML.html#129,129,1602,936,1920,1200,8-21-2022,9-49-55,125,depth_duration_stimuli/003490_2014-05-21_15-50-11_094959634447_rgbf000101-resize_3/003490_2014-05-21_15-50-11_094959634447_rgbf000101-resize_3-target.png,125,3.6445,14,1845,125,feet,jsons/VE125_randls_44_rotated.json,814771,964887,51,Man
125,852146,DepthScenes,duration_manipulation_targetAtFixation,jsons/VE125_randls_44_rotated.json,http://54.235.29.9/FacialAge/BNav_EC2/DepthDuration/v2_depth_duration_MTurk/v2_DepthDuration_HTML.html#129,129,1602,936,1920,1200,8-21-2022,9-49-55,126,depth_duration_stimuli/001175_2014-06-17_15-45-55_260595134347_rgbf000129-resize_4/001175_2014-06-17_15-45-55_260595134347_rgbf000129-resize_4-target.png,125,4.255,20,2155,125,feet,jsons/VE125_randls_44_rotated.json,814771,964887,51,Man
126,852146,DepthScenes,duration_manipulation_targetAtFixation,jsons/VE125_randls_44_rotated.json,http://54.235.29.9/FacialAge/BNav_EC2/DepthDuration/v2_depth_duration_MTurk/v2_DepthDuration_HTML.html#129,129,1602,936,1920,1200,8-21-2022,9-49-55,127,depth_duration_stimuli/000734_2014-06-08_17-39-11_260595134347_rgbf000128-resize_2/000734_2014-06-08_17-39-11_260595134347_rgbf000128-resize_2-target.png,125,4.098,15,1699,124,feet,jsons/VE125_randls_44_rotated.json,814771,964887,51,Man
127,852146,DepthScenes,duration_manipulation_targetAtFixation,jsons/VE125_randls_44_rotated.json,http://54.235.29.9/FacialAge/BNav_EC2/DepthDuration/v2_depth_duration_MTurk/v2_DepthDuration_HTML.html#129,129,1602,936,1920,1200,8-21-2022,9-49-55,128,depth_duration_stimuli/000739_2014-06-08_18-45-58_260595134347_rgbf000068-resize_1/000739_2014-06-08_18-45-58_260595134347_rgbf000068-resize_1-target.png,125,3.534,16,2075,125,feet,jsons/VE125_randls_44_rotated.json,814771,964887,51,Man
128,852146,DepthScenes,duration_manipulation_targetAtFixation,jsons/VE125_randls_44_rotated.json,http://54.235.29.9/FacialAge/BNav_EC2/DepthDuration/v2_depth_duration_MTurk/v2_DepthDuration_HTML.html#129,129,1602,936,1920,1200,8-21-2022,9-49-55,129,depth_duration_stimuli/002103_2014-06-25_20-00-40_260595134347_rgbf000049-resize_0/002103_2014-06-25_20-00-40_260595134347_rgbf000049-resize_0-target.png,125,4.105,10,2699,125,feet,jsons/VE125_randls_44_rotated.json,814771,964887,51,Man
129,852146,DepthScenes,duration_manipulation_targetAtFixation,jsons/VE125_randls_44_rotated.json,http://54.235.29.9/FacialAge/BNav_EC2/DepthDuration/v2_depth_duration_MTurk/v2_DepthDuration_HTML.html#129,129,1602,936,1920,1200,8-21-2022,9-49-55,130,depth_duration_stimuli/002039_2014-06-24_20-22-38_260595134347_rgbf000084-resize_1/002039_2014-06-24_20-22-38_260595134347_rgbf000084-resize_1-target.png,125,4.408,16,2067,124,feet,jsons/VE125_randls_44_rotated.json,814771,964887,51,Man
130,852146,DepthScenes,duration_manipulation_targetAtFixation,jsons/VE125_randls_44_rotated.json,http://54.235.29.9/FacialAge/BNav_EC2/DepthDuration/v2_depth_duration_MTurk/v2_DepthDuration_HTML.html#129,129,1602,936,1920,1200,8-21-2022,9-49-55,131,depth_duration_stimuli/000457_2014-06-08_16-52-43_260595134347_rgbf000199-resize_1/000457_2014-06-08_16-52-43_260595134347_rgbf000199-resize_1-target.png,125,3.6489999999999996,10,1883,125,feet,jsons/VE125_randls_44_rotated.json,814771,964887,51,Man
131,852146,DepthScenes,duration_manipulation_targetAtFixation,jsons/VE125_randls_44_rotated.json,http://54.235.29.9/FacialAge/BNav_EC2/DepthDuration/v2_depth_duration_MTurk/v2_DepthDuration_HTML.html#129,129,1602,936,1920,1200,8-21-2022,9-49-55,132,depth_duration_stimuli/000929_2014-06-09_16-33-19_260595134347_rgbf000139-resize_0/000929_2014-06-09_16-33-19_260595134347_rgbf000139-resize_0-target.png,125,2.8680000000000003,9,2043,125,feet,jsons/VE125_randls_44_rotated.json,814771,964887,51,Man
132,852146,DepthScenes,duration_manipulation_targetAtFixation,jsons/VE125_randls_44_rotated.json,http://54.235.29.9/FacialAge/BNav_EC2/DepthDuration/v2_depth_duration_MTurk/v2_DepthDuration_HTML.html#129,129,1602,936,1920,1200,8-21-2022,9-49-55,133,depth_duration_stimuli/000635_2014-06-08_16-38-42_260595134347_rgbf000106-resize_1/000635_2014-06-08_16-38-42_260595134347_rgbf000106-resize_1-target.png,125,2.074,8,1795,125,feet,jsons/VE125_randls_44_rotated.json,814771,964887,51,Man
133,852146,DepthScenes,duration_manipulation_targetAtFixation,jsons/VE125_randls_44_rotated.json,http://54.235.29.9/FacialAge/BNav_EC2/DepthDuration/v2_depth_duration_MTurk/v2_DepthDuration_HTML.html#129,129,1602,936,1920,1200,8-21-2022,9-49-55,134,depth_duration_stimuli/002279_2014-06-28_18-55-32_260595134347_rgbf000040-resize_5/002279_2014-06-28_18-55-32_260595134347_rgbf000040-resize_5-target.png,125,1.5043333333333,8,2748,125,feet,jsons/VE125_randls_44_rotated.json,814771,964887,51,Man
134,852146,DepthScenes,duration_manipulation_targetAtFixation,jsons/VE125_randls_44_rotated.json,http://54.235.29.9/FacialAge/BNav_EC2/DepthDuration/v2_depth_duration_MTurk/v2_DepthDuration_HTML.html#129,129,1602,936,1920,1200,8-21-2022,9-49-55,135,depth_duration_stimuli/000375_2014-06-08_11-17-29_260595134347_rgbf000133-resize_2/000375_2014-06-08_11-17-29_260595134347_rgbf000133-resize-original.jpg,125,4.718,0,1156,126,feet,jsons/VE125_randls_44_rotated.json,814771,964887,51,Man
135,852146,DepthScenes,duration_manipulation_targetAtFixation,jsons/VE125_randls_44_rotated.json,http://54.235.29.9/FacialAge/BNav_EC2/DepthDuration/v2_depth_duration_MTurk/v2_DepthDuration_HTML.html#129,129,1602,936,1920,1200,8-21-2022,9-49-55,136,depth_duration_stimuli/003081_2014-06-15_15-19-16_094959634447_rgbf000150-resize_1/003081_2014-06-15_15-19-16_094959634447_rgbf000150-resize_1-target.png,125,3.9125,12,2123,125,feet,jsons/VE125_randls_44_rotated.json,814771,964887,51,Man
136,852146,DepthScenes,duration_manipulation_targetAtFixation,jsons/VE125_randls_44_rotated.json,http://54.235.29.9/FacialAge/BNav_EC2/DepthDuration/v2_depth_duration_MTurk/v2_DepthDuration_HTML.html#129,129,1602,936,1920,1200,8-21-2022,9-49-55,137,depth_duration_stimuli/001417_2014-06-19_16-25-36_260595134347_rgbf000115-resize_5/001417_2014-06-19_16-25-36_260595134347_rgbf000115-resize_5-target.png,125,4.6255,10,1572,124,feet,jsons/VE125_randls_44_rotated.json,814771,964887,51,Man
137,852146,DepthScenes,duration_manipulation_targetAtFixation,jsons/VE125_randls_44_rotated.json,http://54.235.29.9/FacialAge/BNav_EC2/DepthDuration/v2_depth_duration_MTurk/v2_DepthDuration_HTML.html#129,129,1602,936,1920,1200,8-21-2022,9-49-55,138,depth_duration_stimuli/001132_2014-06-17_14-48-54_260595134347_rgbf000100-resize_2/001132_2014-06-17_14-48-54_260595134347_rgbf000100-resize_2-target.png,125,3.753,12,1995,124,feet,jsons/VE125_randls_44_rotated.json,814771,964887,51,Man
138,852146,DepthScenes,duration_manipulation_targetAtFixation,jsons/VE125_randls_44_rotated.json,http://54.235.29.9/FacialAge/BNav_EC2/DepthDuration/v2_depth_duration_MTurk/v2_DepthDuration_HTML.html#129,129,1602,936,1920,1200,8-21-2022,9-49-55,139,depth_duration_stimuli/001133_2014-06-17_14-49-16_260595134347_rgbf000100-resize_0/001133_2014-06-17_14-49-16_260595134347_rgbf000100-resize_0-target.png,125,4.2115,14,2108,125,feet,jsons/VE125_randls_44_rotated.json,814771,964887,51,Man
139,852146,DepthScenes,duration_manipulation_targetAtFixation,jsons/VE125_randls_44_rotated.json,http://54.235.29.9/FacialAge/BNav_EC2/DepthDuration/v2_depth_duration_MTurk/v2_DepthDuration_HTML.html#129,129,1602,936,1920,1200,8-21-2022,9-49-55,140,depth_duration_stimuli/002425_2014-06-28_20-27-29_260595134347_rgbf000031-resize_8/002425_2014-06-28_20-27-29_260595134347_rgbf000031-resize_8-target.png,125,3.8960000000000004,10,2595,124,feet,jsons/VE125_randls_44_rotated.json,814771,964887,51,Man
140,852146,DepthScenes,duration_manipulation_targetAtFixation,jsons/VE125_randls_44_rotated.json,http://54.235.29.9/FacialAge/BNav_EC2/DepthDuration/v2_depth_duration_MTurk/v2_DepthDuration_HTML.html#129,129,1602,936,1920,1200,8-21-2022,9-49-55,141,depth_duration_stimuli/000642_2014-06-08_16-59-25_260595134347_rgbf000098-resize_2/000642_2014-06-08_16-59-25_260595134347_rgbf000098-resize_2-target.png,125,2.8815,12,2364,124,feet,jsons/VE125_randls_44_rotated.json,814771,964887,51,Man
141,852146,DepthScenes,duration_manipulation_targetAtFixation,jsons/VE125_randls_44_rotated.json,http://54.235.29.9/FacialAge/BNav_EC2/DepthDuration/v2_depth_duration_MTurk/v2_DepthDuration_HTML.html#129,129,1602,936,1920,1200,8-21-2022,9-49-55,142,depth_duration_stimuli/000691_2014-06-08_13-08-50_260595134347_rgbf000132-resize_3/000691_2014-06-08_13-08-50_260595134347_rgbf000132-resize_3-target.png,125,4.1530000000000005,15,2083,125,feet,jsons/VE125_randls_44_rotated.json,814771,964887,51,Man
142,852146,DepthScenes,duration_manipulation_targetAtFixation,jsons/VE125_randls_44_rotated.json,http://54.235.29.9/FacialAge/BNav_EC2/DepthDuration/v2_depth_duration_MTurk/v2_DepthDuration_HTML.html#129,129,1602,936,1920,1200,8-21-2022,9-49-55,143,depth_duration_stimuli/002213_2014-06-28_18-37-58_260595134347_rgbf000055-resize_1/002213_2014-06-28_18-37-58_260595134347_rgbf000055-resize_1-target.png,125,3.62,14,2075,125,feet,jsons/VE125_randls_44_rotated.json,814771,964887,51,Man
143,852146,DepthScenes,duration_manipulation_targetAtFixation,jsons/VE125_randls_44_rotated.json,http://54.235.29.9/FacialAge/BNav_EC2/DepthDuration/v2_depth_duration_MTurk/v2_DepthDuration_HTML.html#129,129,1602,936,1920,1200,8-21-2022,9-49-55,144,depth_duration_stimuli/002657_2014-06-13_15-29-54_094959634447_rgbf000150-resize_1/002657_2014-06-13_15-29-54_094959634447_rgbf000150-resize_1-target.png,125,4.919,14,3163,124,feet,jsons/VE125_randls_44_rotated.json,814771,964887,51,Man
144,852146,DepthScenes,duration_manipulation_targetAtFixation,jsons/VE125_randls_44_rotated.json,http://54.235.29.9/FacialAge/BNav_EC2/DepthDuration/v2_depth_duration_MTurk/v2_DepthDuration_HTML.html#129,129,1602,936,1920,1200,8-21-2022,9-49-55,145,depth_duration_stimuli/002375_2014-06-28_20-13-44_260595134347_rgbf000032-resize_1/002375_2014-06-28_20-13-44_260595134347_rgbf000032-resize_1-target.png,125,4.0175,14,2419,125,feet,jsons/VE125_randls_44_rotated.json,814771,964887,51,Man
145,852146,DepthScenes,duration_manipulation_targetAtFixation,jsons/VE125_randls_44_rotated.json,http://54.235.29.9/FacialAge/BNav_EC2/DepthDuration/v2_depth_duration_MTurk/v2_DepthDuration_HTML.html#129,129,1602,936,1920,1200,8-21-2022,9-49-55,146,depth_duration_stimuli/000109_2014-05-14_23-41-52_260595134347_rgbf000035-resize_9/000109_2014-05-14_23-41-52_260595134347_rgbf000035-resize_9-target.png,125,1.3545,13,1788,124,feet,jsons/VE125_randls_44_rotated.json,814771,964887,51,Man
146,852146,DepthScenes,duration_manipulation_targetAtFixation,jsons/VE125_randls_44_rotated.json,http://54.235.29.9/FacialAge/BNav_EC2/DepthDuration/v2_depth_duration_MTurk/v2_DepthDuration_HTML.html#129,129,1602,936,1920,1200,8-21-2022,9-49-55,147,depth_duration_stimuli/000470_2014-06-09_19-42-40_260595134347_rgbf000094-resize_1/000470_2014-06-09_19-42-40_260595134347_rgbf000094-resize_1-target.png,125,1.831,12,2035,124,feet,jsons/VE125_randls_44_rotated.json,814771,964887,51,Man
147,852146,DepthScenes,duration_manipulation_targetAtFixation,jsons/VE125_randls_44_rotated.json,http://54.235.29.9/FacialAge/BNav_EC2/DepthDuration/v2_depth_duration_MTurk/v2_DepthDuration_HTML.html#129,129,1602,936,1920,1200,8-21-2022,9-49-55,148,depth_duration_stimuli/000780_2014-06-08_22-28-29_260595134347_rgbf000126-resize_1/000780_2014-06-08_22-28-29_260595134347_rgbf000126-resize_1-target.png,125,3.3825,10,2075,125,feet,jsons/VE125_randls_44_rotated.json,814771,964887,51,Man
148,852146,DepthScenes,duration_manipulation_targetAtFixation,jsons/VE125_randls_44_rotated.json,http://54.235.29.9/FacialAge/BNav_EC2/DepthDuration/v2_depth_duration_MTurk/v2_DepthDuration_HTML.html#129,129,1602,936,1920,1200,8-21-2022,9-49-55,149,depth_duration_stimuli/002445_2014-06-28_20-32-16_260595134347_rgbf000029-resize_4/002445_2014-06-28_20-32-16_260595134347_rgbf000029-resize_4-target.png,125,2.5315,8,1924,125,feet,jsons/VE125_randls_44_rotated.json,814771,964887,51,Man
149,852146,DepthScenes,duration_manipulation_targetAtFixation,jsons/VE125_randls_44_rotated.json,http://54.235.29.9/FacialAge/BNav_EC2/DepthDuration/v2_depth_duration_MTurk/v2_DepthDuration_HTML.html#129,129,1602,936,1920,1200,8-21-2022,9-49-55,150,depth_duration_stimuli/001094_2014-06-15_17-36-00_260595134347_rgbf000205-resize_0/001094_2014-06-15_17-36-00_260595134347_rgbf000205-resize_0-target.png,125,4.2175,14,1844,126,feet,jsons/VE125_randls_44_rotated.json,814771,964887,51,Man
150,852146,DepthScenes,duration_manipulation_targetAtFixation,jsons/VE125_randls_44_rotated.json,http://54.235.29.9/FacialAge/BNav_EC2/DepthDuration/v2_depth_duration_MTurk/v2_DepthDuration_HTML.html#129,129,1602,936,1920,1200,8-21-2022,9-49-55,151,depth_duration_stimuli/000692_2014-06-08_13-09-42_260595134347_rgbf000199-resize_2/000692_2014-06-08_13-09-42_260595134347_rgbf000199-resize_2-target.png,125,3.661,18,2276,124,feet,jsons/VE125_randls_44_rotated.json,814771,964887,51,Man
151,852146,DepthScenes,duration_manipulation_targetAtFixation,jsons/VE125_randls_44_rotated.json,http://54.235.29.9/FacialAge/BNav_EC2/DepthDuration/v2_depth_duration_MTurk/v2_DepthDuration_HTML.html#129,129,1602,936,1920,1200,8-21-2022,9-49-55,152,depth_duration_stimuli/000569_2014-06-09_22-51-47_260595134347_rgbf000141-resize_3/000569_2014-06-09_22-51-47_260595134347_rgbf000141-resize-original.jpg,125,4.512,0,1163,125,feet,jsons/VE125_randls_44_rotated.json,814771,964887,51,Man
152,852146,DepthScenes,duration_manipulation_targetAtFixation,jsons/VE125_randls_44_rotated.json,http://54.235.29.9/FacialAge/BNav_EC2/DepthDuration/v2_depth_duration_MTurk/v2_DepthDuration_HTML.html#129,129,1602,936,1920,1200,8-21-2022,9-49-55,153,depth_duration_stimuli/001214_2014-06-17_16-13-55_260595134347_rgbf000111-resize_0/001214_2014-06-17_16-13-55_260595134347_rgbf000111-resize_0-target.png,125,2.6505,10,2547,124,feet,jsons/VE125_randls_44_rotated.json,814771,964887,51,Man
153,852146,DepthScenes,duration_manipulation_targetAtFixation,jsons/VE125_randls_44_rotated.json,http://54.235.29.9/FacialAge/BNav_EC2/DepthDuration/v2_depth_duration_MTurk/v2_DepthDuration_HTML.html#129,129,1602,936,1920,1200,8-21-2022,9-49-55,154,depth_duration_stimuli/000810_2014-06-08_17-20-01_260595134347_rgbf000105-resize_0/000810_2014-06-08_17-20-01_260595134347_rgbf000105-resize_0-target.png,125,1.4865,7,2540,125,feet,jsons/VE125_randls_44_rotated.json,814771,964887,51,Man
154,852146,DepthScenes,duration_manipulation_targetAtFixation,jsons/VE125_randls_44_rotated.json,http://54.235.29.9/FacialAge/BNav_EC2/DepthDuration/v2_depth_duration_MTurk/v2_DepthDuration_HTML.html#129,129,1602,936,1920,1200,8-21-2022,9-49-55,155,depth_duration_stimuli/001516_2014-06-20_16-25-09_260595134347_rgbf000076-resize_2/001516_2014-06-20_16-25-09_260595134347_rgbf000076-resize_2-target.png,125,1.7445,6,1763,124,feet,jsons/VE125_randls_44_rotated.json,814771,964887,51,Man
155,852146,DepthScenes,duration_manipulation_targetAtFixation,jsons/VE125_randls_44_rotated.json,http://54.235.29.9/FacialAge/BNav_EC2/DepthDuration/v2_depth_duration_MTurk/v2_DepthDuration_HTML.html#129,129,1602,936,1920,1200,8-21-2022,9-49-55,156,depth_duration_stimuli/002118_2014-06-25_20-32-08_260595134347_rgbf000078-resize_1/002118_2014-06-25_20-32-08_260595134347_rgbf000078-resize_1-target.png,125,2.6460000000000004,8,3780,124,feet,jsons/VE125_randls_44_rotated.json,814771,964887,51,Man
156,852146,DepthScenes,duration_manipulation_targetAtFixation,jsons/VE125_randls_44_rotated.json,http://54.235.29.9/FacialAge/BNav_EC2/DepthDuration/v2_depth_duration_MTurk/v2_DepthDuration_HTML.html#129,129,1602,936,1920,1200,8-21-2022,9-49-55,157,depth_duration_stimuli/002467_2014-06-28_20-38-07_260595134347_rgbf000026-resize_2/002467_2014-06-28_20-38-07_260595134347_rgbf000026-resize_2-target.png,125,4.742,11,4948,125,feet,jsons/VE125_randls_44_rotated.json,814771,964887,51,Man
157,852146,DepthScenes,duration_manipulation_targetAtFixation,jsons/VE125_randls_44_rotated.json,http://54.235.29.9/FacialAge/BNav_EC2/DepthDuration/v2_depth_duration_MTurk/v2_DepthDuration_HTML.html#129,129,1602,936,1920,1200,8-21-2022,9-49-55,158,depth_duration_stimuli/002570_2014-06-24_13-59-54_094959634447_rgbf000059-resize_0/002570_2014-06-24_13-59-54_094959634447_rgbf000059-resize_0-target.png,125,4.037,14,3324,124,feet,jsons/VE125_randls_44_rotated.json,814771,964887,51,Man
158,852146,DepthScenes,duration_manipulation_targetAtFixation,jsons/VE125_randls_44_rotated.json,http://54.235.29.9/FacialAge/BNav_EC2/DepthDuration/v2_depth_duration_MTurk/v2_DepthDuration_HTML.html#129,129,1602,936,1920,1200,8-21-2022,9-49-55,159,depth_duration_stimuli/001828_2014-06-26_21-40-03_260595134347_rgbf000024-resize_0/001828_2014-06-26_21-40-03_260595134347_rgbf000024-resize_0-target.png,125,4.8260000000000005,15,1723,125,feet,jsons/VE125_randls_44_rotated.json,814771,964887,51,Man
159,852146,DepthScenes,duration_manipulation_targetAtFixation,jsons/VE125_randls_44_rotated.json,http://54.235.29.9/FacialAge/BNav_EC2/DepthDuration/v2_depth_duration_MTurk/v2_DepthDuration_HTML.html#129,129,1602,936,1920,1200,8-21-2022,9-49-55,160,depth_duration_stimuli/000009_2014-05-26_14-32-05_260595134347_rgbf000034-resize_3/000009_2014-05-26_14-32-05_260595134347_rgbf000034-resize_3-target.png,125,3.8715,18,1947,124,feet,jsons/VE125_randls_44_rotated.json,814771,964887,51,Man
160,852146,DepthScenes,duration_manipulation_targetAtFixation,jsons/VE125_randls_44_rotated.json,http://54.235.29.9/FacialAge/BNav_EC2/DepthDuration/v2_depth_duration_MTurk/v2_DepthDuration_HTML.html#129,129,1602,936,1920,1200,8-21-2022,9-49-55,161,depth_duration_stimuli/002414_2014-06-28_20-24-58_260595134347_rgbf000067-resize_4/002414_2014-06-28_20-24-58_260595134347_rgbf000067-resize_4-target.png,125,4.363,10,1955,124,feet,jsons/VE125_randls_44_rotated.json,814771,964887,51,Man
161,852146,DepthScenes,duration_manipulation_targetAtFixation,jsons/VE125_randls_44_rotated.json,http://54.235.29.9/FacialAge/BNav_EC2/DepthDuration/v2_depth_duration_MTurk/v2_DepthDuration_HTML.html#129,129,1602,936,1920,1200,8-21-2022,9-49-55,162,depth_duration_stimuli/000773_2014-06-08_22-24-54_260595134347_rgbf000093-resize_1/000773_2014-06-08_22-24-54_260595134347_rgbf000093-resize_1-target.png,125,4.973,14,1996,125,feet,jsons/VE125_randls_44_rotated.json,814771,964887,51,Man
162,852146,DepthScenes,duration_manipulation_targetAtFixation,jsons/VE125_randls_44_rotated.json,http://54.235.29.9/FacialAge/BNav_EC2/DepthDuration/v2_depth_duration_MTurk/v2_DepthDuration_HTML.html#129,129,1602,936,1920,1200,8-21-2022,9-49-55,163,depth_duration_stimuli/000927_2014-06-09_16-32-30_260595134347_rgbf000123-resize_3/000927_2014-06-09_16-32-30_260595134347_rgbf000123-resize_3-target.png,125,2.6785,12,1939,124,feet,jsons/VE125_randls_44_rotated.json,814771,964887,51,Man
163,852146,DepthScenes,duration_manipulation_targetAtFixation,jsons/VE125_randls_44_rotated.json,http://54.235.29.9/FacialAge/BNav_EC2/DepthDuration/v2_depth_duration_MTurk/v2_DepthDuration_HTML.html#129,129,1602,936,1920,1200,8-21-2022,9-49-55,164,depth_duration_stimuli/001110_2014-06-15_17-25-28_260595134347_rgbf000150-resize_1/001110_2014-06-15_17-25-28_260595134347_rgbf000150-resize_1-target.png,125,1.7115,10,3124,124,feet,jsons/VE125_randls_44_rotated.json,814771,964887,51,Man
