,subjID,experimentName,versionName,sequenceName,url,selected_row,windowWidth,windowHeight,screenWidth,screenHeight,startDate,startTime,trial,stimulus,duration,actual_depth,depth_estimate,trial_RT,log_sceneDuration,unitSelection,seq_filepath,experimentTime,totalTime,age,gender
0,852495,DepthScenes,duration_manipulation_targetAtFixation,jsons/VE125_randls_68.json,http://54.235.29.9/FacialAge/BNav_EC2/DepthDuration/v2_depth_duration_MTurk/v2_DepthDuration_HTML.html#155,155,1366,625,1366,768,9-20-2022,14-19-20,1,depth_duration_stimuli/000522_2014-06-08_13-35-06_260595134347_rgbf000244-resize_1/000522_2014-06-08_13-35-06_260595134347_rgbf000244-resize_1-target.png,125,2.3715,3,3014,125,meters,jsons/VE125_randls_68.json,1198930,1322085,29,Man
1,852495,DepthScenes,duration_manipulation_targetAtFixation,jsons/VE125_randls_68.json,http://54.235.29.9/FacialAge/BNav_EC2/DepthDuration/v2_depth_duration_MTurk/v2_DepthDuration_HTML.html#155,155,1366,625,1366,768,9-20-2022,14-19-20,2,depth_duration_stimuli/002949_2014-06-26_15-57-42_094959634447_rgbf000079-resize_1/002949_2014-06-26_15-57-42_094959634447_rgbf000079-resize_1-target.png,125,1.8915,3,2263,123,meters,jsons/VE125_randls_68.json,1198930,1322085,29,Man
2,852495,DepthScenes,duration_manipulation_targetAtFixation,jsons/VE125_randls_68.json,http://54.235.29.9/FacialAge/BNav_EC2/DepthDuration/v2_depth_duration_MTurk/v2_DepthDuration_HTML.html#155,155,1366,625,1366,768,9-20-2022,14-19-20,3,depth_duration_stimuli/001167_2014-06-17_15-38-07_260595134347_rgbf000108-resize_0/001167_2014-06-17_15-38-07_260595134347_rgbf000108-resize_0-target.png,125,1.8505,2,2737,117,meters,jsons/VE125_randls_68.json,1198930,1322085,29,Man
3,852495,DepthScenes,duration_manipulation_targetAtFixation,jsons/VE125_randls_68.json,http://54.235.29.9/FacialAge/BNav_EC2/DepthDuration/v2_depth_duration_MTurk/v2_DepthDuration_HTML.html#155,155,1366,625,1366,768,9-20-2022,14-19-20,4,depth_duration_stimuli/003587_2014-05-23_16-48-02_094959634447_rgbf002384-resize_2/003587_2014-05-23_16-48-02_094959634447_rgbf002384-resize_2-target.png,125,1.357,3,2428,121,meters,jsons/VE125_randls_68.json,1198930,1322085,29,Man
4,852495,DepthScenes,duration_manipulation_targetAtFixation,jsons/VE125_randls_68.json,http://54.235.29.9/FacialAge/BNav_EC2/DepthDuration/v2_depth_duration_MTurk/v2_DepthDuration_HTML.html#155,155,1366,625,1366,768,9-20-2022,14-19-20,5,depth_duration_stimuli/003070_2014-06-15_14-58-27_094959634447_rgbf000150-resize_3/003070_2014-06-15_14-58-27_094959634447_rgbf000150-resize_3-target.png,125,2.9415,3,9674,152,meters,jsons/VE125_randls_68.json,1198930,1322085,29,Man
5,852495,DepthScenes,duration_manipulation_targetAtFixation,jsons/VE125_randls_68.json,http://54.235.29.9/FacialAge/BNav_EC2/DepthDuration/v2_depth_duration_MTurk/v2_DepthDuration_HTML.html#155,155,1366,625,1366,768,9-20-2022,14-19-20,6,depth_duration_stimuli/000943_2014-06-09_19-31-07_260595134347_rgbf000128-resize_1/000943_2014-06-09_19-31-07_260595134347_rgbf000128-resize_1-target.png,125,1.9765,3,5714,127,meters,jsons/VE125_randls_68.json,1198930,1322085,29,Man
6,852495,DepthScenes,duration_manipulation_targetAtFixation,jsons/VE125_randls_68.json,http://54.235.29.9/FacialAge/BNav_EC2/DepthDuration/v2_depth_duration_MTurk/v2_DepthDuration_HTML.html#155,155,1366,625,1366,768,9-20-2022,14-19-20,7,depth_duration_stimuli/001810_2014-06-26_20-51-35_260595134347_rgbf000040-resize_3/001810_2014-06-26_20-51-35_260595134347_rgbf000040-resize_3-target.png,125,2.2525,4,2545,133,meters,jsons/VE125_randls_68.json,1198930,1322085,29,Man
7,852495,DepthScenes,duration_manipulation_targetAtFixation,jsons/VE125_randls_68.json,http://54.235.29.9/FacialAge/BNav_EC2/DepthDuration/v2_depth_duration_MTurk/v2_DepthDuration_HTML.html#155,155,1366,625,1366,768,9-20-2022,14-19-20,8,depth_duration_stimuli/003010_2014-06-15_12-54-35_094959634447_rgbf000112-resize_0/003010_2014-06-15_12-54-35_094959634447_rgbf000112-resize_0-target.png,125,3.1185,4,2590,387,meters,jsons/VE125_randls_68.json,1198930,1322085,29,Man
8,852495,DepthScenes,duration_manipulation_targetAtFixation,jsons/VE125_randls_68.json,http://54.235.29.9/FacialAge/BNav_EC2/DepthDuration/v2_depth_duration_MTurk/v2_DepthDuration_HTML.html#155,155,1366,625,1366,768,9-20-2022,14-19-20,9,depth_duration_stimuli/000758_2014-06-08_22-05-08_260595134347_rgbf000085-resize_0/000758_2014-06-08_22-05-08_260595134347_rgbf000085-resize_0-target.png,125,3.3810000000000002,4,6876,124,meters,jsons/VE125_randls_68.json,1198930,1322085,29,Man
9,852495,DepthScenes,duration_manipulation_targetAtFixation,jsons/VE125_randls_68.json,http://54.235.29.9/FacialAge/BNav_EC2/DepthDuration/v2_depth_duration_MTurk/v2_DepthDuration_HTML.html#155,155,1366,625,1366,768,9-20-2022,14-19-20,10,depth_duration_stimuli/000854_2014-06-09_19-43-13_260595134347_rgbf000066-resize_0/000854_2014-06-09_19-43-13_260595134347_rgbf000066-resize_0-target.png,125,3.068,2,21537,121,meters,jsons/VE125_randls_68.json,1198930,1322085,29,Man
10,852495,DepthScenes,duration_manipulation_targetAtFixation,jsons/VE125_randls_68.json,http://54.235.29.9/FacialAge/BNav_EC2/DepthDuration/v2_depth_duration_MTurk/v2_DepthDuration_HTML.html#155,155,1366,625,1366,768,9-20-2022,14-19-20,11,depth_duration_stimuli/001417_2014-06-19_16-25-36_260595134347_rgbf000115-resize_5/001417_2014-06-19_16-25-36_260595134347_rgbf000115-resize_5-target.png,125,4.6255,5,4425,116,meters,jsons/VE125_randls_68.json,1198930,1322085,29,Man
11,852495,DepthScenes,duration_manipulation_targetAtFixation,jsons/VE125_randls_68.json,http://54.235.29.9/FacialAge/BNav_EC2/DepthDuration/v2_depth_duration_MTurk/v2_DepthDuration_HTML.html#155,155,1366,625,1366,768,9-20-2022,14-19-20,12,depth_duration_stimuli/003081_2014-06-15_15-19-16_094959634447_rgbf000150-resize_1/003081_2014-06-15_15-19-16_094959634447_rgbf000150-resize_1-target.png,125,3.9125,3,3920,117,meters,jsons/VE125_randls_68.json,1198930,1322085,29,Man
12,852495,DepthScenes,duration_manipulation_targetAtFixation,jsons/VE125_randls_68.json,http://54.235.29.9/FacialAge/BNav_EC2/DepthDuration/v2_depth_duration_MTurk/v2_DepthDuration_HTML.html#155,155,1366,625,1366,768,9-20-2022,14-19-20,13,depth_duration_stimuli/000569_2014-06-09_22-51-47_260595134347_rgbf000141-resize_3/000569_2014-06-09_22-51-47_260595134347_rgbf000141-resize-original.jpg,125,4.512,3,2937,108,meters,jsons/VE125_randls_68.json,1198930,1322085,29,Man
13,852495,DepthScenes,duration_manipulation_targetAtFixation,jsons/VE125_randls_68.json,http://54.235.29.9/FacialAge/BNav_EC2/DepthDuration/v2_depth_duration_MTurk/v2_DepthDuration_HTML.html#155,155,1366,625,1366,768,9-20-2022,14-19-20,14,depth_duration_stimuli/001164_2014-06-17_15-35-46_260595134347_rgbf000085-resize_3/001164_2014-06-17_15-35-46_260595134347_rgbf000085-resize_3-target.png,125,2.354,3,3269,124,meters,jsons/VE125_randls_68.json,1198930,1322085,29,Man
14,852495,DepthScenes,duration_manipulation_targetAtFixation,jsons/VE125_randls_68.json,http://54.235.29.9/FacialAge/BNav_EC2/DepthDuration/v2_depth_duration_MTurk/v2_DepthDuration_HTML.html#155,155,1366,625,1366,768,9-20-2022,14-19-20,15,depth_duration_stimuli/001136_2014-06-17_15-19-41_260595134347_rgbf000076-resize_3/001136_2014-06-17_15-19-41_260595134347_rgbf000076-resize_3-target.png,125,1.8655,4,2825,117,meters,jsons/VE125_randls_68.json,1198930,1322085,29,Man
15,852495,DepthScenes,duration_manipulation_targetAtFixation,jsons/VE125_randls_68.json,http://54.235.29.9/FacialAge/BNav_EC2/DepthDuration/v2_depth_duration_MTurk/v2_DepthDuration_HTML.html#155,155,1366,625,1366,768,9-20-2022,14-19-20,16,depth_duration_stimuli/002057_2014-06-24_21-00-13_260595134347_rgbf000120-resize_1/002057_2014-06-24_21-00-13_260595134347_rgbf000120-resize_1-target.png,125,2.967,3,2676,125,meters,jsons/VE125_randls_68.json,1198930,1322085,29,Man
16,852495,DepthScenes,duration_manipulation_targetAtFixation,jsons/VE125_randls_68.json,http://54.235.29.9/FacialAge/BNav_EC2/DepthDuration/v2_depth_duration_MTurk/v2_DepthDuration_HTML.html#155,155,1366,625,1366,768,9-20-2022,14-19-20,17,depth_duration_stimuli/000709_2014-06-08_13-51-55_260595134347_rgbf000068-resize_3/000709_2014-06-08_13-51-55_260595134347_rgbf000068-resize_3-target.png,125,1.8030000000000002,4,2447,110,meters,jsons/VE125_randls_68.json,1198930,1322085,29,Man
17,852495,DepthScenes,duration_manipulation_targetAtFixation,jsons/VE125_randls_68.json,http://54.235.29.9/FacialAge/BNav_EC2/DepthDuration/v2_depth_duration_MTurk/v2_DepthDuration_HTML.html#155,155,1366,625,1366,768,9-20-2022,14-19-20,18,depth_duration_stimuli/001199_2014-06-17_16-03-48_260595134347_rgbf000077-resize_0/001199_2014-06-17_16-03-48_260595134347_rgbf000077-resize_0-target.png,125,3.4375,3,26163,130,meters,jsons/VE125_randls_68.json,1198930,1322085,29,Man
18,852495,DepthScenes,duration_manipulation_targetAtFixation,jsons/VE125_randls_68.json,http://54.235.29.9/FacialAge/BNav_EC2/DepthDuration/v2_depth_duration_MTurk/v2_DepthDuration_HTML.html#155,155,1366,625,1366,768,9-20-2022,14-19-20,19,depth_duration_stimuli/000502_2014-06-08_23-02-32_260595134347_rgbf000063-resize_4/000502_2014-06-08_23-02-32_260595134347_rgbf000063-resize_4-target.png,125,2.431,3,25273,123,meters,jsons/VE125_randls_68.json,1198930,1322085,29,Man
19,852495,DepthScenes,duration_manipulation_targetAtFixation,jsons/VE125_randls_68.json,http://54.235.29.9/FacialAge/BNav_EC2/DepthDuration/v2_depth_duration_MTurk/v2_DepthDuration_HTML.html#155,155,1366,625,1366,768,9-20-2022,14-19-20,20,depth_duration_stimuli/000493_2014-06-09_21-01-18_260595134347_rgbf000196-resize_3/000493_2014-06-09_21-01-18_260595134347_rgbf000196-resize_3-target.png,125,3.44,4,10820,138,meters,jsons/VE125_randls_68.json,1198930,1322085,29,Man
20,852495,DepthScenes,duration_manipulation_targetAtFixation,jsons/VE125_randls_68.json,http://54.235.29.9/FacialAge/BNav_EC2/DepthDuration/v2_depth_duration_MTurk/v2_DepthDuration_HTML.html#155,155,1366,625,1366,768,9-20-2022,14-19-20,21,depth_duration_stimuli/000191_2014-05-12_17-07-38_260595134347_rgbf000199-resize_0/000191_2014-05-12_17-07-38_260595134347_rgbf000199-resize_0-target.png,125,3.7995,3,18142,140,meters,jsons/VE125_randls_68.json,1198930,1322085,29,Man
21,852495,DepthScenes,duration_manipulation_targetAtFixation,jsons/VE125_randls_68.json,http://54.235.29.9/FacialAge/BNav_EC2/DepthDuration/v2_depth_duration_MTurk/v2_DepthDuration_HTML.html#155,155,1366,625,1366,768,9-20-2022,14-19-20,22,depth_duration_stimuli/001808_2014-06-26_20-50-58_260595134347_rgbf000029-resize_1/001808_2014-06-26_20-50-58_260595134347_rgbf000029-resize_1-target.png,125,4.249,5,11657,124,meters,jsons/VE125_randls_68.json,1198930,1322085,29,Man
22,852495,DepthScenes,duration_manipulation_targetAtFixation,jsons/VE125_randls_68.json,http://54.235.29.9/FacialAge/BNav_EC2/DepthDuration/v2_depth_duration_MTurk/v2_DepthDuration_HTML.html#155,155,1366,625,1366,768,9-20-2022,14-19-20,23,depth_duration_stimuli/001815_2014-06-26_20-52-55_260595134347_rgbf000020-resize_0/001815_2014-06-26_20-52-55_260595134347_rgbf000020-resize_0-target.png,125,3.3865,5,8773,125,meters,jsons/VE125_randls_68.json,1198930,1322085,29,Man
23,852495,DepthScenes,duration_manipulation_targetAtFixation,jsons/VE125_randls_68.json,http://54.235.29.9/FacialAge/BNav_EC2/DepthDuration/v2_depth_duration_MTurk/v2_DepthDuration_HTML.html#155,155,1366,625,1366,768,9-20-2022,14-19-20,24,depth_duration_stimuli/000906_2014-06-08_13-35-43_260595134347_rgbf000155-resize_1/000906_2014-06-08_13-35-43_260595134347_rgbf000155-resize_1-target.png,125,2.8489999999999998,3,13711,205,meters,jsons/VE125_randls_68.json,1198930,1322085,29,Man
24,852495,DepthScenes,duration_manipulation_targetAtFixation,jsons/VE125_randls_68.json,http://54.235.29.9/FacialAge/BNav_EC2/DepthDuration/v2_depth_duration_MTurk/v2_DepthDuration_HTML.html#155,155,1366,625,1366,768,9-20-2022,14-19-20,25,depth_duration_stimuli/002805_2014-06-22_19-54-03_094959634447_rgbf000079-resize_1/002805_2014-06-22_19-54-03_094959634447_rgbf000079-resize_1-target.png,125,3.1439999999999997,2,27901,122,meters,jsons/VE125_randls_68.json,1198930,1322085,29,Man
25,852495,DepthScenes,duration_manipulation_targetAtFixation,jsons/VE125_randls_68.json,http://54.235.29.9/FacialAge/BNav_EC2/DepthDuration/v2_depth_duration_MTurk/v2_DepthDuration_HTML.html#155,155,1366,625,1366,768,9-20-2022,14-19-20,26,depth_duration_stimuli/002549_2014-06-24_13-41-39_094959634447_rgbf000022-resize_3/002549_2014-06-24_13-41-39_094959634447_rgbf000022-resize_3-target.png,125,1.476,3,8739,113,meters,jsons/VE125_randls_68.json,1198930,1322085,29,Man
26,852495,DepthScenes,duration_manipulation_targetAtFixation,jsons/VE125_randls_68.json,http://54.235.29.9/FacialAge/BNav_EC2/DepthDuration/v2_depth_duration_MTurk/v2_DepthDuration_HTML.html#155,155,1366,625,1366,768,9-20-2022,14-19-20,27,depth_duration_stimuli/002750_2014-06-22_19-08-03_094959634447_rgbf000094-resize_4/002750_2014-06-22_19-08-03_094959634447_rgbf000094-resize_4-target.png,125,2.354,3,14877,114,meters,jsons/VE125_randls_68.json,1198930,1322085,29,Man
27,852495,DepthScenes,duration_manipulation_targetAtFixation,jsons/VE125_randls_68.json,http://54.235.29.9/FacialAge/BNav_EC2/DepthDuration/v2_depth_duration_MTurk/v2_DepthDuration_HTML.html#155,155,1366,625,1366,768,9-20-2022,14-19-20,28,depth_duration_stimuli/001570_2014-06-20_17-21-09_260595134347_rgbf000135-resize_4/001570_2014-06-20_17-21-09_260595134347_rgbf000135-resize_4-target.png,125,4.467,2,33830,124,meters,jsons/VE125_randls_68.json,1198930,1322085,29,Man
28,852495,DepthScenes,duration_manipulation_targetAtFixation,jsons/VE125_randls_68.json,http://54.235.29.9/FacialAge/BNav_EC2/DepthDuration/v2_depth_duration_MTurk/v2_DepthDuration_HTML.html#155,155,1366,625,1366,768,9-20-2022,14-19-20,29,depth_duration_stimuli/001392_2014-06-19_16-07-59_260595134347_rgbf000046-resize_1/001392_2014-06-19_16-07-59_260595134347_rgbf000046-resize_1-target.png,125,4.135,4,15802,120,meters,jsons/VE125_randls_68.json,1198930,1322085,29,Man
29,852495,DepthScenes,duration_manipulation_targetAtFixation,jsons/VE125_randls_68.json,http://54.235.29.9/FacialAge/BNav_EC2/DepthDuration/v2_depth_duration_MTurk/v2_DepthDuration_HTML.html#155,155,1366,625,1366,768,9-20-2022,14-19-20,30,depth_duration_stimuli/000375_2014-06-08_11-17-29_260595134347_rgbf000133-resize_2/000375_2014-06-08_11-17-29_260595134347_rgbf000133-resize-original.jpg,125,4.718,4,10987,139,meters,jsons/VE125_randls_68.json,1198930,1322085,29,Man
30,852495,DepthScenes,duration_manipulation_targetAtFixation,jsons/VE125_randls_68.json,http://54.235.29.9/FacialAge/BNav_EC2/DepthDuration/v2_depth_duration_MTurk/v2_DepthDuration_HTML.html#155,155,1366,625,1366,768,9-20-2022,14-19-20,31,depth_duration_stimuli/001449_2014-06-19_17-01-27_260595134347_rgbf000116-resize_2/001449_2014-06-19_17-01-27_260595134347_rgbf000116-resize_2-target.png,125,3.452,4,7816,128,meters,jsons/VE125_randls_68.json,1198930,1322085,29,Man
31,852495,DepthScenes,duration_manipulation_targetAtFixation,jsons/VE125_randls_68.json,http://54.235.29.9/FacialAge/BNav_EC2/DepthDuration/v2_depth_duration_MTurk/v2_DepthDuration_HTML.html#155,155,1366,625,1366,768,9-20-2022,14-19-20,32,depth_duration_stimuli/001450_2014-06-19_17-02-03_260595134347_rgbf000203-resize_4/001450_2014-06-19_17-02-03_260595134347_rgbf000203-resize_4-target.png,125,4.0106666666667,4,2701,124,meters,jsons/VE125_randls_68.json,1198930,1322085,29,Man
32,852495,DepthScenes,duration_manipulation_targetAtFixation,jsons/VE125_randls_68.json,http://54.235.29.9/FacialAge/BNav_EC2/DepthDuration/v2_depth_duration_MTurk/v2_DepthDuration_HTML.html#155,155,1366,625,1366,768,9-20-2022,14-19-20,33,depth_duration_stimuli/002905_2014-06-03_18-04-43_094959634447_rgbf000151-resize_2/002905_2014-06-03_18-04-43_094959634447_rgbf000151-resize_2-target.png,125,2.0295,4,11778,126,meters,jsons/VE125_randls_68.json,1198930,1322085,29,Man
33,852495,DepthScenes,duration_manipulation_targetAtFixation,jsons/VE125_randls_68.json,http://54.235.29.9/FacialAge/BNav_EC2/DepthDuration/v2_depth_duration_MTurk/v2_DepthDuration_HTML.html#155,155,1366,625,1366,768,9-20-2022,14-19-20,34,depth_duration_stimuli/003423_2014-05-21_10-23-26_094959634447_rgbf002665-resize_2/003423_2014-05-21_10-23-26_094959634447_rgbf002665-resize_2-target.png,125,3.2575,5,16782,126,meters,jsons/VE125_randls_68.json,1198930,1322085,29,Man
34,852495,DepthScenes,duration_manipulation_targetAtFixation,jsons/VE125_randls_68.json,http://54.235.29.9/FacialAge/BNav_EC2/DepthDuration/v2_depth_duration_MTurk/v2_DepthDuration_HTML.html#155,155,1366,625,1366,768,9-20-2022,14-19-20,35,depth_duration_stimuli/002445_2014-06-28_20-32-16_260595134347_rgbf000029-resize_4/002445_2014-06-28_20-32-16_260595134347_rgbf000029-resize_4-target.png,125,2.5315,3,23707,109,meters,jsons/VE125_randls_68.json,1198930,1322085,29,Man
35,852495,DepthScenes,duration_manipulation_targetAtFixation,jsons/VE125_randls_68.json,http://54.235.29.9/FacialAge/BNav_EC2/DepthDuration/v2_depth_duration_MTurk/v2_DepthDuration_HTML.html#155,155,1366,625,1366,768,9-20-2022,14-19-20,36,depth_duration_stimuli/000780_2014-06-08_22-28-29_260595134347_rgbf000126-resize_1/000780_2014-06-08_22-28-29_260595134347_rgbf000126-resize_1-target.png,125,3.3825,4,15895,121,meters,jsons/VE125_randls_68.json,1198930,1322085,29,Man
36,852495,DepthScenes,duration_manipulation_targetAtFixation,jsons/VE125_randls_68.json,http://54.235.29.9/FacialAge/BNav_EC2/DepthDuration/v2_depth_duration_MTurk/v2_DepthDuration_HTML.html#155,155,1366,625,1366,768,9-20-2022,14-19-20,37,depth_duration_stimuli/000009_2014-05-26_14-32-05_260595134347_rgbf000034-resize_3/000009_2014-05-26_14-32-05_260595134347_rgbf000034-resize_3-target.png,125,3.8715,4,2775,135,meters,jsons/VE125_randls_68.json,1198930,1322085,29,Man
37,852495,DepthScenes,duration_manipulation_targetAtFixation,jsons/VE125_randls_68.json,http://54.235.29.9/FacialAge/BNav_EC2/DepthDuration/v2_depth_duration_MTurk/v2_DepthDuration_HTML.html#155,155,1366,625,1366,768,9-20-2022,14-19-20,38,depth_duration_stimuli/001828_2014-06-26_21-40-03_260595134347_rgbf000024-resize_0/001828_2014-06-26_21-40-03_260595134347_rgbf000024-resize_0-target.png,125,4.8260000000000005,4,4856,124,meters,jsons/VE125_randls_68.json,1198930,1322085,29,Man
38,852495,DepthScenes,duration_manipulation_targetAtFixation,jsons/VE125_randls_68.json,http://54.235.29.9/FacialAge/BNav_EC2/DepthDuration/v2_depth_duration_MTurk/v2_DepthDuration_HTML.html#155,155,1366,625,1366,768,9-20-2022,14-19-20,39,depth_duration_stimuli/000642_2014-06-08_16-59-25_260595134347_rgbf000098-resize_2/000642_2014-06-08_16-59-25_260595134347_rgbf000098-resize_2-target.png,125,2.8815,4,3554,214,meters,jsons/VE125_randls_68.json,1198930,1322085,29,Man
39,852495,DepthScenes,duration_manipulation_targetAtFixation,jsons/VE125_randls_68.json,http://54.235.29.9/FacialAge/BNav_EC2/DepthDuration/v2_depth_duration_MTurk/v2_DepthDuration_HTML.html#155,155,1366,625,1366,768,9-20-2022,14-19-20,40,depth_duration_stimuli/002425_2014-06-28_20-27-29_260595134347_rgbf000031-resize_8/002425_2014-06-28_20-27-29_260595134347_rgbf000031-resize_8-target.png,125,3.8960000000000004,4,2424,131,meters,jsons/VE125_randls_68.json,1198930,1322085,29,Man
40,852495,DepthScenes,duration_manipulation_targetAtFixation,jsons/VE125_randls_68.json,http://54.235.29.9/FacialAge/BNav_EC2/DepthDuration/v2_depth_duration_MTurk/v2_DepthDuration_HTML.html#155,155,1366,625,1366,768,9-20-2022,14-19-20,41,depth_duration_stimuli/000788_2014-06-08_22-34-36_260595134347_rgbf000131-resize_1/000788_2014-06-08_22-34-36_260595134347_rgbf000131-resize_1-target.png,125,3.359,4,15802,123,meters,jsons/VE125_randls_68.json,1198930,1322085,29,Man
41,852495,DepthScenes,duration_manipulation_targetAtFixation,jsons/VE125_randls_68.json,http://54.235.29.9/FacialAge/BNav_EC2/DepthDuration/v2_depth_duration_MTurk/v2_DepthDuration_HTML.html#155,155,1366,625,1366,768,9-20-2022,14-19-20,42,depth_duration_stimuli/001235_2014-06-17_16-37-36_260595134347_rgbf000084-resize_4/001235_2014-06-17_16-37-36_260595134347_rgbf000084-resize_4-target.png,125,3.6605,4,7328,156,meters,jsons/VE125_randls_68.json,1198930,1322085,29,Man
42,852495,DepthScenes,duration_manipulation_targetAtFixation,jsons/VE125_randls_68.json,http://54.235.29.9/FacialAge/BNav_EC2/DepthDuration/v2_depth_duration_MTurk/v2_DepthDuration_HTML.html#155,155,1366,625,1366,768,9-20-2022,14-19-20,43,depth_duration_stimuli/002763_2014-06-22_19-13-10_094959634447_rgbf000075-resize_4/002763_2014-06-22_19-13-10_094959634447_rgbf000075-resize_4-target.png,125,1.68375,5,3443,122,meters,jsons/VE125_randls_68.json,1198930,1322085,29,Man
43,852495,DepthScenes,duration_manipulation_targetAtFixation,jsons/VE125_randls_68.json,http://54.235.29.9/FacialAge/BNav_EC2/DepthDuration/v2_depth_duration_MTurk/v2_DepthDuration_HTML.html#155,155,1366,625,1366,768,9-20-2022,14-19-20,44,depth_duration_stimuli/002209_2014-06-28_18-36-10_260595134347_rgbf000051-resize_1/002209_2014-06-28_18-36-10_260595134347_rgbf000051-resize_1-target.png,125,2.057,4,6301,116,meters,jsons/VE125_randls_68.json,1198930,1322085,29,Man
44,852495,DepthScenes,duration_manipulation_targetAtFixation,jsons/VE125_randls_68.json,http://54.235.29.9/FacialAge/BNav_EC2/DepthDuration/v2_depth_duration_MTurk/v2_DepthDuration_HTML.html#155,155,1366,625,1366,768,9-20-2022,14-19-20,45,depth_duration_stimuli/000787_2014-06-08_22-33-53_260595134347_rgbf000175-resize_1/000787_2014-06-08_22-33-53_260595134347_rgbf000175-resize-original.jpg,125,4.784,4,6499,129,meters,jsons/VE125_randls_68.json,1198930,1322085,29,Man
45,852495,DepthScenes,duration_manipulation_targetAtFixation,jsons/VE125_randls_68.json,http://54.235.29.9/FacialAge/BNav_EC2/DepthDuration/v2_depth_duration_MTurk/v2_DepthDuration_HTML.html#155,155,1366,625,1366,768,9-20-2022,14-19-20,46,depth_duration_stimuli/001059_2014-06-08_21-53-27_260595134347_rgbf000061-resize_4/001059_2014-06-08_21-53-27_260595134347_rgbf000061-resize_4-target.png,125,2.4185,3,2596,121,meters,jsons/VE125_randls_68.json,1198930,1322085,29,Man
46,852495,DepthScenes,duration_manipulation_targetAtFixation,jsons/VE125_randls_68.json,http://54.235.29.9/FacialAge/BNav_EC2/DepthDuration/v2_depth_duration_MTurk/v2_DepthDuration_HTML.html#155,155,1366,625,1366,768,9-20-2022,14-19-20,47,depth_duration_stimuli/001032_2014-06-08_13-23-17_260595134347_rgbf000021-resize_3/001032_2014-06-08_13-23-17_260595134347_rgbf000021-resize_3-target.png,125,3.2725,4,3515,121,meters,jsons/VE125_randls_68.json,1198930,1322085,29,Man
47,852495,DepthScenes,duration_manipulation_targetAtFixation,jsons/VE125_randls_68.json,http://54.235.29.9/FacialAge/BNav_EC2/DepthDuration/v2_depth_duration_MTurk/v2_DepthDuration_HTML.html#155,155,1366,625,1366,768,9-20-2022,14-19-20,48,depth_duration_stimuli/002788_2014-06-22_19-36-03_094959634447_rgbf000088-resize_2/002788_2014-06-22_19-36-03_094959634447_rgbf000088-resize_2-target.png,125,1.6465,3,2615,79,meters,jsons/VE125_randls_68.json,1198930,1322085,29,Man
48,852495,DepthScenes,duration_manipulation_targetAtFixation,jsons/VE125_randls_68.json,http://54.235.29.9/FacialAge/BNav_EC2/DepthDuration/v2_depth_duration_MTurk/v2_DepthDuration_HTML.html#155,155,1366,625,1366,768,9-20-2022,14-19-20,49,depth_duration_stimuli/000749_2014-06-08_21-55-06_260595134347_rgbf000070-resize_2/000749_2014-06-08_21-55-06_260595134347_rgbf000070-resize_2-target.png,125,2.331,3,2475,124,meters,jsons/VE125_randls_68.json,1198930,1322085,29,Man
49,852495,DepthScenes,duration_manipulation_targetAtFixation,jsons/VE125_randls_68.json,http://54.235.29.9/FacialAge/BNav_EC2/DepthDuration/v2_depth_duration_MTurk/v2_DepthDuration_HTML.html#155,155,1366,625,1366,768,9-20-2022,14-19-20,50,depth_duration_stimuli/000469_2014-06-09_19-42-10_260595134347_rgbf000081-resize_1/000469_2014-06-09_19-42-10_260595134347_rgbf000081-resize_1-target.png,125,1.652,4,3770,128,meters,jsons/VE125_randls_68.json,1198930,1322085,29,Man
50,852495,DepthScenes,duration_manipulation_targetAtFixation,jsons/VE125_randls_68.json,http://54.235.29.9/FacialAge/BNav_EC2/DepthDuration/v2_depth_duration_MTurk/v2_DepthDuration_HTML.html#155,155,1366,625,1366,768,9-20-2022,14-19-20,51,depth_duration_stimuli/000483_2014-06-09_20-41-45_260595134347_rgbf000116-resize_4/000483_2014-06-09_20-41-45_260595134347_rgbf000116-resize_4-target.png,125,1.337,3,4259,128,meters,jsons/VE125_randls_68.json,1198930,1322085,29,Man
51,852495,DepthScenes,duration_manipulation_targetAtFixation,jsons/VE125_randls_68.json,http://54.235.29.9/FacialAge/BNav_EC2/DepthDuration/v2_depth_duration_MTurk/v2_DepthDuration_HTML.html#155,155,1366,625,1366,768,9-20-2022,14-19-20,52,depth_duration_stimuli/001055_2014-06-08_18-45-35_260595134347_rgbf000111-resize_4/001055_2014-06-08_18-45-35_260595134347_rgbf000111-resize_4-target.png,125,2.4290000000000003,4,4769,130,meters,jsons/VE125_randls_68.json,1198930,1322085,29,Man
52,852495,DepthScenes,duration_manipulation_targetAtFixation,jsons/VE125_randls_68.json,http://54.235.29.9/FacialAge/BNav_EC2/DepthDuration/v2_depth_duration_MTurk/v2_DepthDuration_HTML.html#155,155,1366,625,1366,768,9-20-2022,14-19-20,53,depth_duration_stimuli/000549_2014-06-08_22-10-24_260595134347_rgbf000247-resize_3/000549_2014-06-08_22-10-24_260595134347_rgbf000247-resize_3-target.png,125,1.841,4,8465,132,meters,jsons/VE125_randls_68.json,1198930,1322085,29,Man
53,852495,DepthScenes,duration_manipulation_targetAtFixation,jsons/VE125_randls_68.json,http://54.235.29.9/FacialAge/BNav_EC2/DepthDuration/v2_depth_duration_MTurk/v2_DepthDuration_HTML.html#155,155,1366,625,1366,768,9-20-2022,14-19-20,54,depth_duration_stimuli/000810_2014-06-08_17-20-01_260595134347_rgbf000105-resize_0/000810_2014-06-08_17-20-01_260595134347_rgbf000105-resize_0-target.png,125,1.4865,5,3895,125,meters,jsons/VE125_randls_68.json,1198930,1322085,29,Man
54,852495,DepthScenes,duration_manipulation_targetAtFixation,jsons/VE125_randls_68.json,http://54.235.29.9/FacialAge/BNav_EC2/DepthDuration/v2_depth_duration_MTurk/v2_DepthDuration_HTML.html#155,155,1366,625,1366,768,9-20-2022,14-19-20,55,depth_duration_stimuli/001214_2014-06-17_16-13-55_260595134347_rgbf000111-resize_0/001214_2014-06-17_16-13-55_260595134347_rgbf000111-resize_0-target.png,125,2.6505,3,3277,122,meters,jsons/VE125_randls_68.json,1198930,1322085,29,Man
55,852495,DepthScenes,duration_manipulation_targetAtFixation,jsons/VE125_randls_68.json,http://54.235.29.9/FacialAge/BNav_EC2/DepthDuration/v2_depth_duration_MTurk/v2_DepthDuration_HTML.html#155,155,1366,625,1366,768,9-20-2022,14-19-20,56,depth_duration_stimuli/001092_2014-06-15_17-34-58_260595134347_rgbf000171-resize_3/001092_2014-06-15_17-34-58_260595134347_rgbf000171-resize_3-target.png,125,2.6935,3,3094,125,meters,jsons/VE125_randls_68.json,1198930,1322085,29,Man
56,852495,DepthScenes,duration_manipulation_targetAtFixation,jsons/VE125_randls_68.json,http://54.235.29.9/FacialAge/BNav_EC2/DepthDuration/v2_depth_duration_MTurk/v2_DepthDuration_HTML.html#155,155,1366,625,1366,768,9-20-2022,14-19-20,57,depth_duration_stimuli/002545_2014-06-24_13-38-53_094959634447_rgbf000080-resize_4/002545_2014-06-24_13-38-53_094959634447_rgbf000080-resize_4-target.png,125,1.9205,4,5928,131,meters,jsons/VE125_randls_68.json,1198930,1322085,29,Man
57,852495,DepthScenes,duration_manipulation_targetAtFixation,jsons/VE125_randls_68.json,http://54.235.29.9/FacialAge/BNav_EC2/DepthDuration/v2_depth_duration_MTurk/v2_DepthDuration_HTML.html#155,155,1366,625,1366,768,9-20-2022,14-19-20,58,depth_duration_stimuli/002989_2014-06-15_12-25-03_094959634447_rgbf000150-resize_3/002989_2014-06-15_12-25-03_094959634447_rgbf000150-resize_3-target.png,125,4.1975,3,16447,112,meters,jsons/VE125_randls_68.json,1198930,1322085,29,Man
58,852495,DepthScenes,duration_manipulation_targetAtFixation,jsons/VE125_randls_68.json,http://54.235.29.9/FacialAge/BNav_EC2/DepthDuration/v2_depth_duration_MTurk/v2_DepthDuration_HTML.html#155,155,1366,625,1366,768,9-20-2022,14-19-20,59,depth_duration_stimuli/000866_2014-06-09_20-45-42_260595134347_rgbf000139-resize_1/000866_2014-06-09_20-45-42_260595134347_rgbf000139-resize_1-target.png,125,3.2155,3,8912,118,meters,jsons/VE125_randls_68.json,1198930,1322085,29,Man
59,852495,DepthScenes,duration_manipulation_targetAtFixation,jsons/VE125_randls_68.json,http://54.235.29.9/FacialAge/BNav_EC2/DepthDuration/v2_depth_duration_MTurk/v2_DepthDuration_HTML.html#155,155,1366,625,1366,768,9-20-2022,14-19-20,60,depth_duration_stimuli/001244_2014-06-17_16-47-45_260595134347_rgbf000030-resize_4/001244_2014-06-17_16-47-45_260595134347_rgbf000030-resize_4-target.png,125,2.0425,5,2737,123,meters,jsons/VE125_randls_68.json,1198930,1322085,29,Man
60,852495,DepthScenes,duration_manipulation_targetAtFixation,jsons/VE125_randls_68.json,http://54.235.29.9/FacialAge/BNav_EC2/DepthDuration/v2_depth_duration_MTurk/v2_DepthDuration_HTML.html#155,155,1366,625,1366,768,9-20-2022,14-19-20,61,depth_duration_stimuli/003495_2014-05-21_16-01-51_094959634447_rgbf000100-resize_3/003495_2014-05-21_16-01-51_094959634447_rgbf000100-resize_3-target.png,125,1.6255,4,6896,110,meters,jsons/VE125_randls_68.json,1198930,1322085,29,Man
61,852495,DepthScenes,duration_manipulation_targetAtFixation,jsons/VE125_randls_68.json,http://54.235.29.9/FacialAge/BNav_EC2/DepthDuration/v2_depth_duration_MTurk/v2_DepthDuration_HTML.html#155,155,1366,625,1366,768,9-20-2022,14-19-20,62,depth_duration_stimuli/002043_2014-06-24_20-29-38_260595134347_rgbf000039-resize_4/002043_2014-06-24_20-29-38_260595134347_rgbf000039-resize_4-target.png,125,2.8435,6,4023,123,meters,jsons/VE125_randls_68.json,1198930,1322085,29,Man
62,852495,DepthScenes,duration_manipulation_targetAtFixation,jsons/VE125_randls_68.json,http://54.235.29.9/FacialAge/BNav_EC2/DepthDuration/v2_depth_duration_MTurk/v2_DepthDuration_HTML.html#155,155,1366,625,1366,768,9-20-2022,14-19-20,63,depth_duration_stimuli/003048_2014-06-15_13-49-43_094959634447_rgbf000150-resize_1/003048_2014-06-15_13-49-43_094959634447_rgbf000150-resize_1-target.png,125,4.0035,4,3547,106,meters,jsons/VE125_randls_68.json,1198930,1322085,29,Man
63,852495,DepthScenes,duration_manipulation_targetAtFixation,jsons/VE125_randls_68.json,http://54.235.29.9/FacialAge/BNav_EC2/DepthDuration/v2_depth_duration_MTurk/v2_DepthDuration_HTML.html#155,155,1366,625,1366,768,9-20-2022,14-19-20,64,depth_duration_stimuli/000773_2014-06-08_22-24-54_260595134347_rgbf000093-resize_1/000773_2014-06-08_22-24-54_260595134347_rgbf000093-resize_1-target.png,125,4.973,3,2584,115,meters,jsons/VE125_randls_68.json,1198930,1322085,29,Man
64,852495,DepthScenes,duration_manipulation_targetAtFixation,jsons/VE125_randls_68.json,http://54.235.29.9/FacialAge/BNav_EC2/DepthDuration/v2_depth_duration_MTurk/v2_DepthDuration_HTML.html#155,155,1366,625,1366,768,9-20-2022,14-19-20,65,depth_duration_stimuli/002414_2014-06-28_20-24-58_260595134347_rgbf000067-resize_4/002414_2014-06-28_20-24-58_260595134347_rgbf000067-resize_4-target.png,125,4.363,5,17032,135,meters,jsons/VE125_randls_68.json,1198930,1322085,29,Man
65,852495,DepthScenes,duration_manipulation_targetAtFixation,jsons/VE125_randls_68.json,http://54.235.29.9/FacialAge/BNav_EC2/DepthDuration/v2_depth_duration_MTurk/v2_DepthDuration_HTML.html#155,155,1366,625,1366,768,9-20-2022,14-19-20,66,depth_duration_stimuli/001222_2014-06-17_16-24-06_260595134347_rgbf000073-resize_0/001222_2014-06-17_16-24-06_260595134347_rgbf000073-resize-original.jpg,125,1.4385,5,11008,135,meters,jsons/VE125_randls_68.json,1198930,1322085,29,Man
66,852495,DepthScenes,duration_manipulation_targetAtFixation,jsons/VE125_randls_68.json,http://54.235.29.9/FacialAge/BNav_EC2/DepthDuration/v2_depth_duration_MTurk/v2_DepthDuration_HTML.html#155,155,1366,625,1366,768,9-20-2022,14-19-20,67,depth_duration_stimuli/001150_2014-06-17_15-27-34_260595134347_rgbf000108-resize_2/001150_2014-06-17_15-27-34_260595134347_rgbf000108-resize_2-target.png,125,4.0325,5,8043,67,meters,jsons/VE125_randls_68.json,1198930,1322085,29,Man
67,852495,DepthScenes,duration_manipulation_targetAtFixation,jsons/VE125_randls_68.json,http://54.235.29.9/FacialAge/BNav_EC2/DepthDuration/v2_depth_duration_MTurk/v2_DepthDuration_HTML.html#155,155,1366,625,1366,768,9-20-2022,14-19-20,68,depth_duration_stimuli/000665_2014-06-09_20-42-35_260595134347_rgbf000110-resize_1/000665_2014-06-09_20-42-35_260595134347_rgbf000110-resize_1-target.png,125,3.057,4,8263,112,meters,jsons/VE125_randls_68.json,1198930,1322085,29,Man
68,852495,DepthScenes,duration_manipulation_targetAtFixation,jsons/VE125_randls_68.json,http://54.235.29.9/FacialAge/BNav_EC2/DepthDuration/v2_depth_duration_MTurk/v2_DepthDuration_HTML.html#155,155,1366,625,1366,768,9-20-2022,14-19-20,69,depth_duration_stimuli/000692_2014-06-08_13-09-42_260595134347_rgbf000199-resize_2/000692_2014-06-08_13-09-42_260595134347_rgbf000199-resize_2-target.png,125,3.661,4,3390,120,meters,jsons/VE125_randls_68.json,1198930,1322085,29,Man
69,852495,DepthScenes,duration_manipulation_targetAtFixation,jsons/VE125_randls_68.json,http://54.235.29.9/FacialAge/BNav_EC2/DepthDuration/v2_depth_duration_MTurk/v2_DepthDuration_HTML.html#155,155,1366,625,1366,768,9-20-2022,14-19-20,70,depth_duration_stimuli/001094_2014-06-15_17-36-00_260595134347_rgbf000205-resize_0/001094_2014-06-15_17-36-00_260595134347_rgbf000205-resize_0-target.png,125,4.2175,3,4126,130,meters,jsons/VE125_randls_68.json,1198930,1322085,29,Man
70,852495,DepthScenes,duration_manipulation_targetAtFixation,jsons/VE125_randls_68.json,http://54.235.29.9/FacialAge/BNav_EC2/DepthDuration/v2_depth_duration_MTurk/v2_DepthDuration_HTML.html#155,155,1366,625,1366,768,9-20-2022,14-19-20,71,depth_duration_stimuli/000436_2014-06-09_22-25-11_260595134347_rgbf000137-resize_1/000436_2014-06-09_22-25-11_260595134347_rgbf000137-resize_1-target.png,125,4.0705,2,5067,125,meters,jsons/VE125_randls_68.json,1198930,1322085,29,Man
71,852495,DepthScenes,duration_manipulation_targetAtFixation,jsons/VE125_randls_68.json,http://54.235.29.9/FacialAge/BNav_EC2/DepthDuration/v2_depth_duration_MTurk/v2_DepthDuration_HTML.html#155,155,1366,625,1366,768,9-20-2022,14-19-20,72,depth_duration_stimuli/002444_2014-06-28_20-32-08_260595134347_rgbf000027-resize_0/002444_2014-06-28_20-32-08_260595134347_rgbf000027-resize_0-target.png,125,4.388999999999999,3,28075,140,meters,jsons/VE125_randls_68.json,1198930,1322085,29,Man
72,852495,DepthScenes,duration_manipulation_targetAtFixation,jsons/VE125_randls_68.json,http://54.235.29.9/FacialAge/BNav_EC2/DepthDuration/v2_depth_duration_MTurk/v2_DepthDuration_HTML.html#155,155,1366,625,1366,768,9-20-2022,14-19-20,73,depth_duration_stimuli/002725_2014-06-22_11-47-51_094959634447_rgbf000070-resize_1/002725_2014-06-22_11-47-51_094959634447_rgbf000070-resize_1-target.png,125,2.195,3,13994,223,meters,jsons/VE125_randls_68.json,1198930,1322085,29,Man
73,852495,DepthScenes,duration_manipulation_targetAtFixation,jsons/VE125_randls_68.json,http://54.235.29.9/FacialAge/BNav_EC2/DepthDuration/v2_depth_duration_MTurk/v2_DepthDuration_HTML.html#155,155,1366,625,1366,768,9-20-2022,14-19-20,74,depth_duration_stimuli/002344_2014-06-28_20-06-29_260595134347_rgbf000030-resize_1/002344_2014-06-28_20-06-29_260595134347_rgbf000030-resize_1-target.png,125,1.5795,4,13887,125,meters,jsons/VE125_randls_68.json,1198930,1322085,29,Man
74,852495,DepthScenes,duration_manipulation_targetAtFixation,jsons/VE125_randls_68.json,http://54.235.29.9/FacialAge/BNav_EC2/DepthDuration/v2_depth_duration_MTurk/v2_DepthDuration_HTML.html#155,155,1366,625,1366,768,9-20-2022,14-19-20,75,depth_duration_stimuli/000878_2014-06-08_22-52-45_260595134347_rgbf000045-resize_2/000878_2014-06-08_22-52-45_260595134347_rgbf000045-resize_2-target.png,125,2.092,4,4389,125,meters,jsons/VE125_randls_68.json,1198930,1322085,29,Man
75,852495,DepthScenes,duration_manipulation_targetAtFixation,jsons/VE125_randls_68.json,http://54.235.29.9/FacialAge/BNav_EC2/DepthDuration/v2_depth_duration_MTurk/v2_DepthDuration_HTML.html#155,155,1366,625,1366,768,9-20-2022,14-19-20,76,depth_duration_stimuli/002953_2014-06-08_17-32-18_094959634447_rgbf000059-resize_5/002953_2014-06-08_17-32-18_094959634447_rgbf000059-resize_5-target.png,125,1.551,3,4023,125,meters,jsons/VE125_randls_68.json,1198930,1322085,29,Man
76,852495,DepthScenes,duration_manipulation_targetAtFixation,jsons/VE125_randls_68.json,http://54.235.29.9/FacialAge/BNav_EC2/DepthDuration/v2_depth_duration_MTurk/v2_DepthDuration_HTML.html#155,155,1366,625,1366,768,9-20-2022,14-19-20,77,depth_duration_stimuli/002279_2014-06-28_18-55-32_260595134347_rgbf000040-resize_5/002279_2014-06-28_18-55-32_260595134347_rgbf000040-resize_5-target.png,125,1.5043333333333,4,3995,119,meters,jsons/VE125_randls_68.json,1198930,1322085,29,Man
77,852495,DepthScenes,duration_manipulation_targetAtFixation,jsons/VE125_randls_68.json,http://54.235.29.9/FacialAge/BNav_EC2/DepthDuration/v2_depth_duration_MTurk/v2_DepthDuration_HTML.html#155,155,1366,625,1366,768,9-20-2022,14-19-20,78,depth_duration_stimuli/000635_2014-06-08_16-38-42_260595134347_rgbf000106-resize_1/000635_2014-06-08_16-38-42_260595134347_rgbf000106-resize_1-target.png,125,2.074,3,5292,131,meters,jsons/VE125_randls_68.json,1198930,1322085,29,Man
78,852495,DepthScenes,duration_manipulation_targetAtFixation,jsons/VE125_randls_68.json,http://54.235.29.9/FacialAge/BNav_EC2/DepthDuration/v2_depth_duration_MTurk/v2_DepthDuration_HTML.html#155,155,1366,625,1366,768,9-20-2022,14-19-20,79,depth_duration_stimuli/002509_2014-06-24_13-19-22_094959634447_rgbf000077-resize_0/002509_2014-06-24_13-19-22_094959634447_rgbf000077-resize_0-target.png,125,1.3065,3,3495,125,meters,jsons/VE125_randls_68.json,1198930,1322085,29,Man
79,852495,DepthScenes,duration_manipulation_targetAtFixation,jsons/VE125_randls_68.json,http://54.235.29.9/FacialAge/BNav_EC2/DepthDuration/v2_depth_duration_MTurk/v2_DepthDuration_HTML.html#155,155,1366,625,1366,768,9-20-2022,14-19-20,80,depth_duration_stimuli/003338_2014-05-20_11-01-23_094959634447_rgbf000051-resize_6/003338_2014-05-20_11-01-23_094959634447_rgbf000051-resize_6-target.png,125,1.693,4,7446,125,meters,jsons/VE125_randls_68.json,1198930,1322085,29,Man
80,852495,DepthScenes,duration_manipulation_targetAtFixation,jsons/VE125_randls_68.json,http://54.235.29.9/FacialAge/BNav_EC2/DepthDuration/v2_depth_duration_MTurk/v2_DepthDuration_HTML.html#155,155,1366,625,1366,768,9-20-2022,14-19-20,81,depth_duration_stimuli/002153_2014-06-25_21-27-18_260595134347_rgbf000038-resize_5/002153_2014-06-25_21-27-18_260595134347_rgbf000038-resize_5-target.png,125,2.505,3,3669,121,meters,jsons/VE125_randls_68.json,1198930,1322085,29,Man
81,852495,DepthScenes,duration_manipulation_targetAtFixation,jsons/VE125_randls_68.json,http://54.235.29.9/FacialAge/BNav_EC2/DepthDuration/v2_depth_duration_MTurk/v2_DepthDuration_HTML.html#155,155,1366,625,1366,768,9-20-2022,14-19-20,82,depth_duration_stimuli/002660_2014-06-13_15-44-18_094959634447_rgbf001878-resize_2/002660_2014-06-13_15-44-18_094959634447_rgbf001878-resize_2-target.png,125,3.576,3,7374,126,meters,jsons/VE125_randls_68.json,1198930,1322085,29,Man
82,852495,DepthScenes,duration_manipulation_targetAtFixation,jsons/VE125_randls_68.json,http://54.235.29.9/FacialAge/BNav_EC2/DepthDuration/v2_depth_duration_MTurk/v2_DepthDuration_HTML.html#155,155,1366,625,1366,768,9-20-2022,14-19-20,83,depth_duration_stimuli/002039_2014-06-24_20-22-38_260595134347_rgbf000084-resize_1/002039_2014-06-24_20-22-38_260595134347_rgbf000084-resize_1-target.png,125,4.408,7,3164,126,meters,jsons/VE125_randls_68.json,1198930,1322085,29,Man
83,852495,DepthScenes,duration_manipulation_targetAtFixation,jsons/VE125_randls_68.json,http://54.235.29.9/FacialAge/BNav_EC2/DepthDuration/v2_depth_duration_MTurk/v2_DepthDuration_HTML.html#155,155,1366,625,1366,768,9-20-2022,14-19-20,84,depth_duration_stimuli/002103_2014-06-25_20-00-40_260595134347_rgbf000049-resize_0/002103_2014-06-25_20-00-40_260595134347_rgbf000049-resize_0-target.png,125,4.105,3,3703,123,meters,jsons/VE125_randls_68.json,1198930,1322085,29,Man
84,852495,DepthScenes,duration_manipulation_targetAtFixation,jsons/VE125_randls_68.json,http://54.235.29.9/FacialAge/BNav_EC2/DepthDuration/v2_depth_duration_MTurk/v2_DepthDuration_HTML.html#155,155,1366,625,1366,768,9-20-2022,14-19-20,85,depth_duration_stimuli/000470_2014-06-09_19-42-40_260595134347_rgbf000094-resize_1/000470_2014-06-09_19-42-40_260595134347_rgbf000094-resize_1-target.png,125,1.831,3,9742,126,meters,jsons/VE125_randls_68.json,1198930,1322085,29,Man
85,852495,DepthScenes,duration_manipulation_targetAtFixation,jsons/VE125_randls_68.json,http://54.235.29.9/FacialAge/BNav_EC2/DepthDuration/v2_depth_duration_MTurk/v2_DepthDuration_HTML.html#155,155,1366,625,1366,768,9-20-2022,14-19-20,86,depth_duration_stimuli/000109_2014-05-14_23-41-52_260595134347_rgbf000035-resize_9/000109_2014-05-14_23-41-52_260595134347_rgbf000035-resize_9-target.png,125,1.3545,4,16850,126,meters,jsons/VE125_randls_68.json,1198930,1322085,29,Man
86,852495,DepthScenes,duration_manipulation_targetAtFixation,jsons/VE125_randls_68.json,http://54.235.29.9/FacialAge/BNav_EC2/DepthDuration/v2_depth_duration_MTurk/v2_DepthDuration_HTML.html#155,155,1366,625,1366,768,9-20-2022,14-19-20,87,depth_duration_stimuli/002213_2014-06-28_18-37-58_260595134347_rgbf000055-resize_1/002213_2014-06-28_18-37-58_260595134347_rgbf000055-resize_1-target.png,125,3.62,4,8396,123,meters,jsons/VE125_randls_68.json,1198930,1322085,29,Man
87,852495,DepthScenes,duration_manipulation_targetAtFixation,jsons/VE125_randls_68.json,http://54.235.29.9/FacialAge/BNav_EC2/DepthDuration/v2_depth_duration_MTurk/v2_DepthDuration_HTML.html#155,155,1366,625,1366,768,9-20-2022,14-19-20,88,depth_duration_stimuli/000691_2014-06-08_13-08-50_260595134347_rgbf000132-resize_3/000691_2014-06-08_13-08-50_260595134347_rgbf000132-resize_3-target.png,125,4.1530000000000005,4,3357,122,meters,jsons/VE125_randls_68.json,1198930,1322085,29,Man
88,852495,DepthScenes,duration_manipulation_targetAtFixation,jsons/VE125_randls_68.json,http://54.235.29.9/FacialAge/BNav_EC2/DepthDuration/v2_depth_duration_MTurk/v2_DepthDuration_HTML.html#155,155,1366,625,1366,768,9-20-2022,14-19-20,89,depth_duration_stimuli/000736_2014-06-08_18-24-15_260595134347_rgbf000206-resize_3/000736_2014-06-08_18-24-15_260595134347_rgbf000206-resize_3-target.png,125,3.515,4,17808,125,meters,jsons/VE125_randls_68.json,1198930,1322085,29,Man
89,852495,DepthScenes,duration_manipulation_targetAtFixation,jsons/VE125_randls_68.json,http://54.235.29.9/FacialAge/BNav_EC2/DepthDuration/v2_depth_duration_MTurk/v2_DepthDuration_HTML.html#155,155,1366,625,1366,768,9-20-2022,14-19-20,90,depth_duration_stimuli/000137_2014-05-20_17-04-49_260595134347_rgbf000120-resize_1/000137_2014-05-20_17-04-49_260595134347_rgbf000120-resize_1-target.png,125,3.786,5,2746,138,meters,jsons/VE125_randls_68.json,1198930,1322085,29,Man
90,852495,DepthScenes,duration_manipulation_targetAtFixation,jsons/VE125_randls_68.json,http://54.235.29.9/FacialAge/BNav_EC2/DepthDuration/v2_depth_duration_MTurk/v2_DepthDuration_HTML.html#155,155,1366,625,1366,768,9-20-2022,14-19-20,91,depth_duration_stimuli/002630_2014-06-24_14-47-50_094959634447_rgbf000055-resize_1/002630_2014-06-24_14-47-50_094959634447_rgbf000055-resize_1-target.png,125,3.0095,4,4413,122,meters,jsons/VE125_randls_68.json,1198930,1322085,29,Man
91,852495,DepthScenes,duration_manipulation_targetAtFixation,jsons/VE125_randls_68.json,http://54.235.29.9/FacialAge/BNav_EC2/DepthDuration/v2_depth_duration_MTurk/v2_DepthDuration_HTML.html#155,155,1366,625,1366,768,9-20-2022,14-19-20,92,depth_duration_stimuli/002758_2014-06-22_19-11-20_094959634447_rgbf000128-resize_1/002758_2014-06-22_19-11-20_094959634447_rgbf000128-resize_1-target.png,125,2.555,3,2722,120,meters,jsons/VE125_randls_68.json,1198930,1322085,29,Man
92,852495,DepthScenes,duration_manipulation_targetAtFixation,jsons/VE125_randls_68.json,http://54.235.29.9/FacialAge/BNav_EC2/DepthDuration/v2_depth_duration_MTurk/v2_DepthDuration_HTML.html#155,155,1366,625,1366,768,9-20-2022,14-19-20,93,depth_duration_stimuli/000506_2014-06-08_23-21-00_260595134347_rgbf000070-resize_7/000506_2014-06-08_23-21-00_260595134347_rgbf000070-resize_7-target.png,125,4.0585,4,2449,114,meters,jsons/VE125_randls_68.json,1198930,1322085,29,Man
93,852495,DepthScenes,duration_manipulation_targetAtFixation,jsons/VE125_randls_68.json,http://54.235.29.9/FacialAge/BNav_EC2/DepthDuration/v2_depth_duration_MTurk/v2_DepthDuration_HTML.html#155,155,1366,625,1366,768,9-20-2022,14-19-20,94,depth_duration_stimuli/003079_2014-06-15_15-18-20_094959634447_rgbf000152-resize_8/003079_2014-06-15_15-18-20_094959634447_rgbf000152-resize_8-target.png,125,2.8775,2,4575,114,meters,jsons/VE125_randls_68.json,1198930,1322085,29,Man
94,852495,DepthScenes,duration_manipulation_targetAtFixation,jsons/VE125_randls_68.json,http://54.235.29.9/FacialAge/BNav_EC2/DepthDuration/v2_depth_duration_MTurk/v2_DepthDuration_HTML.html#155,155,1366,625,1366,768,9-20-2022,14-19-20,95,depth_duration_stimuli/002118_2014-06-25_20-32-08_260595134347_rgbf000078-resize_1/002118_2014-06-25_20-32-08_260595134347_rgbf000078-resize_1-target.png,125,2.6460000000000004,4,6119,118,meters,jsons/VE125_randls_68.json,1198930,1322085,29,Man
95,852495,DepthScenes,duration_manipulation_targetAtFixation,jsons/VE125_randls_68.json,http://54.235.29.9/FacialAge/BNav_EC2/DepthDuration/v2_depth_duration_MTurk/v2_DepthDuration_HTML.html#155,155,1366,625,1366,768,9-20-2022,14-19-20,96,depth_duration_stimuli/001516_2014-06-20_16-25-09_260595134347_rgbf000076-resize_2/001516_2014-06-20_16-25-09_260595134347_rgbf000076-resize_2-target.png,125,1.7445,5,16663,128,meters,jsons/VE125_randls_68.json,1198930,1322085,29,Man
96,852495,DepthScenes,duration_manipulation_targetAtFixation,jsons/VE125_randls_68.json,http://54.235.29.9/FacialAge/BNav_EC2/DepthDuration/v2_depth_duration_MTurk/v2_DepthDuration_HTML.html#155,155,1366,625,1366,768,9-20-2022,14-19-20,97,depth_duration_stimuli/000682_2014-06-08_23-14-58_260595134347_rgbf000041-resize_5/000682_2014-06-08_23-14-58_260595134347_rgbf000041-resize_5-target.png,125,2.7239999999999998,3,2577,114,meters,jsons/VE125_randls_68.json,1198930,1322085,29,Man
97,852495,DepthScenes,duration_manipulation_targetAtFixation,jsons/VE125_randls_68.json,http://54.235.29.9/FacialAge/BNav_EC2/DepthDuration/v2_depth_duration_MTurk/v2_DepthDuration_HTML.html#155,155,1366,625,1366,768,9-20-2022,14-19-20,98,depth_duration_stimuli/001650_2014-06-20_12-09-00_260595134347_rgbf000087-resize_3/001650_2014-06-20_12-09-00_260595134347_rgbf000087-resize_3-target.png,125,1.9505,2,2844,122,meters,jsons/VE125_randls_68.json,1198930,1322085,29,Man
98,852495,DepthScenes,duration_manipulation_targetAtFixation,jsons/VE125_randls_68.json,http://54.235.29.9/FacialAge/BNav_EC2/DepthDuration/v2_depth_duration_MTurk/v2_DepthDuration_HTML.html#155,155,1366,625,1366,768,9-20-2022,14-19-20,99,depth_duration_stimuli/001540_2014-06-20_17-01-05_260595134347_rgbf000086-resize_2/001540_2014-06-20_17-01-05_260595134347_rgbf000086-resize-original.jpg,125,1.459,3,6964,127,meters,jsons/VE125_randls_68.json,1198930,1322085,29,Man
99,852495,DepthScenes,duration_manipulation_targetAtFixation,jsons/VE125_randls_68.json,http://54.235.29.9/FacialAge/BNav_EC2/DepthDuration/v2_depth_duration_MTurk/v2_DepthDuration_HTML.html#155,155,1366,625,1366,768,9-20-2022,14-19-20,100,depth_duration_stimuli/002988_2014-06-15_12-24-20_094959634447_rgbf000150-resize_1/002988_2014-06-15_12-24-20_094959634447_rgbf000150-resize_1-target.png,125,4.7669999999999995,3,3000,132,meters,jsons/VE125_randls_68.json,1198930,1322085,29,Man
100,852495,DepthScenes,duration_manipulation_targetAtFixation,jsons/VE125_randls_68.json,http://54.235.29.9/FacialAge/BNav_EC2/DepthDuration/v2_depth_duration_MTurk/v2_DepthDuration_HTML.html#155,155,1366,625,1366,768,9-20-2022,14-19-20,101,depth_duration_stimuli/001052_2014-06-08_18-24-54_260595134347_rgbf000130-resize_1/001052_2014-06-08_18-24-54_260595134347_rgbf000130-resize_1-target.png,125,4.1045,4,5296,114,meters,jsons/VE125_randls_68.json,1198930,1322085,29,Man
101,852495,DepthScenes,duration_manipulation_targetAtFixation,jsons/VE125_randls_68.json,http://54.235.29.9/FacialAge/BNav_EC2/DepthDuration/v2_depth_duration_MTurk/v2_DepthDuration_HTML.html#155,155,1366,625,1366,768,9-20-2022,14-19-20,102,depth_duration_stimuli/001056_2014-06-08_18-46-44_260595134347_rgbf000068-resize_0/001056_2014-06-08_18-46-44_260595134347_rgbf000068-resize_0-target.png,125,2.6625,4,4677,116,meters,jsons/VE125_randls_68.json,1198930,1322085,29,Man
102,852495,DepthScenes,duration_manipulation_targetAtFixation,jsons/VE125_randls_68.json,http://54.235.29.9/FacialAge/BNav_EC2/DepthDuration/v2_depth_duration_MTurk/v2_DepthDuration_HTML.html#155,155,1366,625,1366,768,9-20-2022,14-19-20,103,depth_duration_stimuli/002199_2014-06-28_18-33-56_260595134347_rgbf000074-resize_0/002199_2014-06-28_18-33-56_260595134347_rgbf000074-resize_0-target.png,125,1.996,4,5619,124,meters,jsons/VE125_randls_68.json,1198930,1322085,29,Man
103,852495,DepthScenes,duration_manipulation_targetAtFixation,jsons/VE125_randls_68.json,http://54.235.29.9/FacialAge/BNav_EC2/DepthDuration/v2_depth_duration_MTurk/v2_DepthDuration_HTML.html#155,155,1366,625,1366,768,9-20-2022,14-19-20,104,depth_duration_stimuli/002663_2014-06-13_15-50-26_094959634447_rgbf000075-resize_1/002663_2014-06-13_15-50-26_094959634447_rgbf000075-resize_1-target.png,125,4.7495,5,2685,121,meters,jsons/VE125_randls_68.json,1198930,1322085,29,Man
104,852495,DepthScenes,duration_manipulation_targetAtFixation,jsons/VE125_randls_68.json,http://54.235.29.9/FacialAge/BNav_EC2/DepthDuration/v2_depth_duration_MTurk/v2_DepthDuration_HTML.html#155,155,1366,625,1366,768,9-20-2022,14-19-20,105,depth_duration_stimuli/000409_2014-06-04_19-23-33_260595134347_rgbf000067-resize_0/000409_2014-06-04_19-23-33_260595134347_rgbf000067-resize_0-target.png,125,3.7335,4,7419,171,meters,jsons/VE125_randls_68.json,1198930,1322085,29,Man
105,852495,DepthScenes,duration_manipulation_targetAtFixation,jsons/VE125_randls_68.json,http://54.235.29.9/FacialAge/BNav_EC2/DepthDuration/v2_depth_duration_MTurk/v2_DepthDuration_HTML.html#155,155,1366,625,1366,768,9-20-2022,14-19-20,106,depth_duration_stimuli/002784_2014-06-22_19-26-30_094959634447_rgbf000083-resize_3/002784_2014-06-22_19-26-30_094959634447_rgbf000083-resize_3-target.png,125,1.8046666666667,5,3558,125,meters,jsons/VE125_randls_68.json,1198930,1322085,29,Man
106,852495,DepthScenes,duration_manipulation_targetAtFixation,jsons/VE125_randls_68.json,http://54.235.29.9/FacialAge/BNav_EC2/DepthDuration/v2_depth_duration_MTurk/v2_DepthDuration_HTML.html#155,155,1366,625,1366,768,9-20-2022,14-19-20,107,depth_duration_stimuli/001100_2014-06-15_17-46-26_260595134347_rgbf000225-resize_2/001100_2014-06-15_17-46-26_260595134347_rgbf000225-resize_2-target.png,125,2.24,4,6829,173,meters,jsons/VE125_randls_68.json,1198930,1322085,29,Man
107,852495,DepthScenes,duration_manipulation_targetAtFixation,jsons/VE125_randls_68.json,http://54.235.29.9/FacialAge/BNav_EC2/DepthDuration/v2_depth_duration_MTurk/v2_DepthDuration_HTML.html#155,155,1366,625,1366,768,9-20-2022,14-19-20,108,depth_duration_stimuli/003534_2014-05-22_15-06-10_094959634447_rgbf000102-resize_4/003534_2014-05-22_15-06-10_094959634447_rgbf000102-resize_4-target.png,125,1.426,3,2572,124,meters,jsons/VE125_randls_68.json,1198930,1322085,29,Man
108,852495,DepthScenes,duration_manipulation_targetAtFixation,jsons/VE125_randls_68.json,http://54.235.29.9/FacialAge/BNav_EC2/DepthDuration/v2_depth_duration_MTurk/v2_DepthDuration_HTML.html#155,155,1366,625,1366,768,9-20-2022,14-19-20,109,depth_duration_stimuli/002637_2014-06-24_14-51-13_094959634447_rgbf000066-resize_4/002637_2014-06-24_14-51-13_094959634447_rgbf000066-resize_4-target.png,125,1.9955,4,4871,123,meters,jsons/VE125_randls_68.json,1198930,1322085,29,Man
109,852495,DepthScenes,duration_manipulation_targetAtFixation,jsons/VE125_randls_68.json,http://54.235.29.9/FacialAge/BNav_EC2/DepthDuration/v2_depth_duration_MTurk/v2_DepthDuration_HTML.html#155,155,1366,625,1366,768,9-20-2022,14-19-20,110,depth_duration_stimuli/001029_2014-06-08_13-17-57_260595134347_rgbf000065-resize_1/001029_2014-06-08_13-17-57_260595134347_rgbf000065-resize_1-target.png,125,3.0835,3,3373,119,meters,jsons/VE125_randls_68.json,1198930,1322085,29,Man
110,852495,DepthScenes,duration_manipulation_targetAtFixation,jsons/VE125_randls_68.json,http://54.235.29.9/FacialAge/BNav_EC2/DepthDuration/v2_depth_duration_MTurk/v2_DepthDuration_HTML.html#155,155,1366,625,1366,768,9-20-2022,14-19-20,111,depth_duration_stimuli/000677_2014-06-08_23-10-32_260595134347_rgbf000158-resize_6/000677_2014-06-08_23-10-32_260595134347_rgbf000158-resize_6-target.png,125,3.556,6,2748,123,meters,jsons/VE125_randls_68.json,1198930,1322085,29,Man
111,852495,DepthScenes,duration_manipulation_targetAtFixation,jsons/VE125_randls_68.json,http://54.235.29.9/FacialAge/BNav_EC2/DepthDuration/v2_depth_duration_MTurk/v2_DepthDuration_HTML.html#155,155,1366,625,1366,768,9-20-2022,14-19-20,112,depth_duration_stimuli/000917_2014-06-09_22-45-29_260595134347_rgbf000149-resize_3/000917_2014-06-09_22-45-29_260595134347_rgbf000149-resize_3-target.png,125,4.1865,4,3439,87,meters,jsons/VE125_randls_68.json,1198930,1322085,29,Man
112,852495,DepthScenes,duration_manipulation_targetAtFixation,jsons/VE125_randls_68.json,http://54.235.29.9/FacialAge/BNav_EC2/DepthDuration/v2_depth_duration_MTurk/v2_DepthDuration_HTML.html#155,155,1366,625,1366,768,9-20-2022,14-19-20,113,depth_duration_stimuli/002323_2014-06-28_20-01-54_260595134347_rgbf000051-resize_4/002323_2014-06-28_20-01-54_260595134347_rgbf000051-resize_4-target.png,125,3.7310000000000003,3,4781,121,meters,jsons/VE125_randls_68.json,1198930,1322085,29,Man
113,852495,DepthScenes,duration_manipulation_targetAtFixation,jsons/VE125_randls_68.json,http://54.235.29.9/FacialAge/BNav_EC2/DepthDuration/v2_depth_duration_MTurk/v2_DepthDuration_HTML.html#155,155,1366,625,1366,768,9-20-2022,14-19-20,114,depth_duration_stimuli/003621_2014-05-23_18-06-08_094959634447_rgbf000101-resize_1/003621_2014-05-23_18-06-08_094959634447_rgbf000101-resize_1-target.png,125,3.9835,4,8363,129,meters,jsons/VE125_randls_68.json,1198930,1322085,29,Man
114,852495,DepthScenes,duration_manipulation_targetAtFixation,jsons/VE125_randls_68.json,http://54.235.29.9/FacialAge/BNav_EC2/DepthDuration/v2_depth_duration_MTurk/v2_DepthDuration_HTML.html#155,155,1366,625,1366,768,9-20-2022,14-19-20,115,depth_duration_stimuli/001584_2014-06-20_11-07-43_260595134347_rgbf000002-resize_1/001584_2014-06-20_11-07-43_260595134347_rgbf000002-resize_1-target.png,125,3.53,2,3310,114,meters,jsons/VE125_randls_68.json,1198930,1322085,29,Man
115,852495,DepthScenes,duration_manipulation_targetAtFixation,jsons/VE125_randls_68.json,http://54.235.29.9/FacialAge/BNav_EC2/DepthDuration/v2_depth_duration_MTurk/v2_DepthDuration_HTML.html#155,155,1366,625,1366,768,9-20-2022,14-19-20,116,depth_duration_stimuli/001170_2014-06-17_15-43-44_260595134347_rgbf000096-resize_6/001170_2014-06-17_15-43-44_260595134347_rgbf000096-resize-original.jpg,125,1.1909999999999998,4,3060,122,meters,jsons/VE125_randls_68.json,1198930,1322085,29,Man
116,852495,DepthScenes,duration_manipulation_targetAtFixation,jsons/VE125_randls_68.json,http://54.235.29.9/FacialAge/BNav_EC2/DepthDuration/v2_depth_duration_MTurk/v2_DepthDuration_HTML.html#155,155,1366,625,1366,768,9-20-2022,14-19-20,117,depth_duration_stimuli/002600_2014-06-24_14-27-04_094959634447_rgbf000074-resize_2/002600_2014-06-24_14-27-04_094959634447_rgbf000074-resize_2-target.png,125,2.7575,6,2478,120,meters,jsons/VE125_randls_68.json,1198930,1322085,29,Man
117,852495,DepthScenes,duration_manipulation_targetAtFixation,jsons/VE125_randls_68.json,http://54.235.29.9/FacialAge/BNav_EC2/DepthDuration/v2_depth_duration_MTurk/v2_DepthDuration_HTML.html#155,155,1366,625,1366,768,9-20-2022,14-19-20,118,depth_duration_stimuli/003228_2014-05-14_13-42-35_094959634447_rgbf000101-resize_1/003228_2014-05-14_13-42-35_094959634447_rgbf000101-resize_1-target.png,125,1.9680000000000002,4,2540,126,meters,jsons/VE125_randls_68.json,1198930,1322085,29,Man
118,852495,DepthScenes,duration_manipulation_targetAtFixation,jsons/VE125_randls_68.json,http://54.235.29.9/FacialAge/BNav_EC2/DepthDuration/v2_depth_duration_MTurk/v2_DepthDuration_HTML.html#155,155,1366,625,1366,768,9-20-2022,14-19-20,119,depth_duration_stimuli/002570_2014-06-24_13-59-54_094959634447_rgbf000059-resize_0/002570_2014-06-24_13-59-54_094959634447_rgbf000059-resize_0-target.png,125,4.037,4,2323,120,meters,jsons/VE125_randls_68.json,1198930,1322085,29,Man
119,852495,DepthScenes,duration_manipulation_targetAtFixation,jsons/VE125_randls_68.json,http://54.235.29.9/FacialAge/BNav_EC2/DepthDuration/v2_depth_duration_MTurk/v2_DepthDuration_HTML.html#155,155,1366,625,1366,768,9-20-2022,14-19-20,120,depth_duration_stimuli/002467_2014-06-28_20-38-07_260595134347_rgbf000026-resize_2/002467_2014-06-28_20-38-07_260595134347_rgbf000026-resize_2-target.png,125,4.742,2,3680,129,meters,jsons/VE125_randls_68.json,1198930,1322085,29,Man
120,852495,DepthScenes,duration_manipulation_targetAtFixation,jsons/VE125_randls_68.json,http://54.235.29.9/FacialAge/BNav_EC2/DepthDuration/v2_depth_duration_MTurk/v2_DepthDuration_HTML.html#155,155,1366,625,1366,768,9-20-2022,14-19-20,121,depth_duration_stimuli/001175_2014-06-17_15-45-55_260595134347_rgbf000129-resize_4/001175_2014-06-17_15-45-55_260595134347_rgbf000129-resize_4-target.png,125,4.255,5,3050,142,meters,jsons/VE125_randls_68.json,1198930,1322085,29,Man
121,852495,DepthScenes,duration_manipulation_targetAtFixation,jsons/VE125_randls_68.json,http://54.235.29.9/FacialAge/BNav_EC2/DepthDuration/v2_depth_duration_MTurk/v2_DepthDuration_HTML.html#155,155,1366,625,1366,768,9-20-2022,14-19-20,122,depth_duration_stimuli/003490_2014-05-21_15-50-11_094959634447_rgbf000101-resize_3/003490_2014-05-21_15-50-11_094959634447_rgbf000101-resize_3-target.png,125,3.6445,3,5429,125,meters,jsons/VE125_randls_68.json,1198930,1322085,29,Man
122,852495,DepthScenes,duration_manipulation_targetAtFixation,jsons/VE125_randls_68.json,http://54.235.29.9/FacialAge/BNav_EC2/DepthDuration/v2_depth_duration_MTurk/v2_DepthDuration_HTML.html#155,155,1366,625,1366,768,9-20-2022,14-19-20,123,depth_duration_stimuli/003492_2014-05-21_15-50-55_094959634447_rgbf000828-resize_1/003492_2014-05-21_15-50-55_094959634447_rgbf000828-resize_1-target.png,125,4.06875,4,4381,126,meters,jsons/VE125_randls_68.json,1198930,1322085,29,Man
123,852495,DepthScenes,duration_manipulation_targetAtFixation,jsons/VE125_randls_68.json,http://54.235.29.9/FacialAge/BNav_EC2/DepthDuration/v2_depth_duration_MTurk/v2_DepthDuration_HTML.html#155,155,1366,625,1366,768,9-20-2022,14-19-20,124,depth_duration_stimuli/002568_2014-06-24_13-59-21_094959634447_rgbf000062-resize_4/002568_2014-06-24_13-59-21_094959634447_rgbf000062-resize_4-target.png,125,3.015,3,5059,118,meters,jsons/VE125_randls_68.json,1198930,1322085,29,Man
124,852495,DepthScenes,duration_manipulation_targetAtFixation,jsons/VE125_randls_68.json,http://54.235.29.9/FacialAge/BNav_EC2/DepthDuration/v2_depth_duration_MTurk/v2_DepthDuration_HTML.html#155,155,1366,625,1366,768,9-20-2022,14-19-20,125,depth_duration_stimuli/001158_2014-06-17_15-32-16_260595134347_rgbf000138-resize_2/001158_2014-06-17_15-32-16_260595134347_rgbf000138-resize_2-target.png,125,4.5315,4,5867,120,meters,jsons/VE125_randls_68.json,1198930,1322085,29,Man
125,852495,DepthScenes,duration_manipulation_targetAtFixation,jsons/VE125_randls_68.json,http://54.235.29.9/FacialAge/BNav_EC2/DepthDuration/v2_depth_duration_MTurk/v2_DepthDuration_HTML.html#155,155,1366,625,1366,768,9-20-2022,14-19-20,126,depth_duration_stimuli/000556_2014-06-09_22-42-56_260595134347_rgbf000214-resize_1/000556_2014-06-09_22-42-56_260595134347_rgbf000214-resize_1-target.png,125,4.8415,5,9488,127,meters,jsons/VE125_randls_68.json,1198930,1322085,29,Man
126,852495,DepthScenes,duration_manipulation_targetAtFixation,jsons/VE125_randls_68.json,http://54.235.29.9/FacialAge/BNav_EC2/DepthDuration/v2_depth_duration_MTurk/v2_DepthDuration_HTML.html#155,155,1366,625,1366,768,9-20-2022,14-19-20,127,depth_duration_stimuli/001133_2014-06-17_14-49-16_260595134347_rgbf000100-resize_0/001133_2014-06-17_14-49-16_260595134347_rgbf000100-resize_0-target.png,125,4.2115,4,25130,142,meters,jsons/VE125_randls_68.json,1198930,1322085,29,Man
127,852495,DepthScenes,duration_manipulation_targetAtFixation,jsons/VE125_randls_68.json,http://54.235.29.9/FacialAge/BNav_EC2/DepthDuration/v2_depth_duration_MTurk/v2_DepthDuration_HTML.html#155,155,1366,625,1366,768,9-20-2022,14-19-20,128,depth_duration_stimuli/001132_2014-06-17_14-48-54_260595134347_rgbf000100-resize_2/001132_2014-06-17_14-48-54_260595134347_rgbf000100-resize_2-target.png,125,3.753,3,9366,12,meters,jsons/VE125_randls_68.json,1198930,1322085,29,Man
128,852495,DepthScenes,duration_manipulation_targetAtFixation,jsons/VE125_randls_68.json,http://54.235.29.9/FacialAge/BNav_EC2/DepthDuration/v2_depth_duration_MTurk/v2_DepthDuration_HTML.html#155,155,1366,625,1366,768,9-20-2022,14-19-20,129,depth_duration_stimuli/002375_2014-06-28_20-13-44_260595134347_rgbf000032-resize_1/002375_2014-06-28_20-13-44_260595134347_rgbf000032-resize_1-target.png,125,4.0175,4,7457,78,meters,jsons/VE125_randls_68.json,1198930,1322085,29,Man
129,852495,DepthScenes,duration_manipulation_targetAtFixation,jsons/VE125_randls_68.json,http://54.235.29.9/FacialAge/BNav_EC2/DepthDuration/v2_depth_duration_MTurk/v2_DepthDuration_HTML.html#155,155,1366,625,1366,768,9-20-2022,14-19-20,130,depth_duration_stimuli/002657_2014-06-13_15-29-54_094959634447_rgbf000150-resize_1/002657_2014-06-13_15-29-54_094959634447_rgbf000150-resize_1-target.png,125,4.919,3,2702,50,meters,jsons/VE125_randls_68.json,1198930,1322085,29,Man
130,852495,DepthScenes,duration_manipulation_targetAtFixation,jsons/VE125_randls_68.json,http://54.235.29.9/FacialAge/BNav_EC2/DepthDuration/v2_depth_duration_MTurk/v2_DepthDuration_HTML.html#155,155,1366,625,1366,768,9-20-2022,14-19-20,131,depth_duration_stimuli/000414_2014-06-04_19-49-13_260595134347_rgbf000044-resize_0/000414_2014-06-04_19-49-13_260595134347_rgbf000044-resize_0-target.png,125,4.329,5,2375,122,meters,jsons/VE125_randls_68.json,1198930,1322085,29,Man
131,852495,DepthScenes,duration_manipulation_targetAtFixation,jsons/VE125_randls_68.json,http://54.235.29.9/FacialAge/BNav_EC2/DepthDuration/v2_depth_duration_MTurk/v2_DepthDuration_HTML.html#155,155,1366,625,1366,768,9-20-2022,14-19-20,132,depth_duration_stimuli/003129_2014-05-12_10-48-10_094959634447_rgbf000100-resize_0/003129_2014-05-12_10-48-10_094959634447_rgbf000100-resize_0-target.png,125,4.9305,4,3150,123,meters,jsons/VE125_randls_68.json,1198930,1322085,29,Man
132,852495,DepthScenes,duration_manipulation_targetAtFixation,jsons/VE125_randls_68.json,http://54.235.29.9/FacialAge/BNav_EC2/DepthDuration/v2_depth_duration_MTurk/v2_DepthDuration_HTML.html#155,155,1366,625,1366,768,9-20-2022,14-19-20,133,depth_duration_stimuli/000739_2014-06-08_18-45-58_260595134347_rgbf000068-resize_1/000739_2014-06-08_18-45-58_260595134347_rgbf000068-resize_1-target.png,125,3.534,4,10324,122,meters,jsons/VE125_randls_68.json,1198930,1322085,29,Man
133,852495,DepthScenes,duration_manipulation_targetAtFixation,jsons/VE125_randls_68.json,http://54.235.29.9/FacialAge/BNav_EC2/DepthDuration/v2_depth_duration_MTurk/v2_DepthDuration_HTML.html#155,155,1366,625,1366,768,9-20-2022,14-19-20,134,depth_duration_stimuli/000734_2014-06-08_17-39-11_260595134347_rgbf000128-resize_2/000734_2014-06-08_17-39-11_260595134347_rgbf000128-resize_2-target.png,125,4.098,3,2893,119,meters,jsons/VE125_randls_68.json,1198930,1322085,29,Man
134,852495,DepthScenes,duration_manipulation_targetAtFixation,jsons/VE125_randls_68.json,http://54.235.29.9/FacialAge/BNav_EC2/DepthDuration/v2_depth_duration_MTurk/v2_DepthDuration_HTML.html#155,155,1366,625,1366,768,9-20-2022,14-19-20,135,depth_duration_stimuli/002072_2014-06-24_21-48-06_260595134347_rgbf000115-resize_0/002072_2014-06-24_21-48-06_260595134347_rgbf000115-resize-original.jpg,125,4.702,2,10437,116,meters,jsons/VE125_randls_68.json,1198930,1322085,29,Man
135,852495,DepthScenes,duration_manipulation_targetAtFixation,jsons/VE125_randls_68.json,http://54.235.29.9/FacialAge/BNav_EC2/DepthDuration/v2_depth_duration_MTurk/v2_DepthDuration_HTML.html#155,155,1366,625,1366,768,9-20-2022,14-19-20,136,depth_duration_stimuli/000929_2014-06-09_16-33-19_260595134347_rgbf000139-resize_0/000929_2014-06-09_16-33-19_260595134347_rgbf000139-resize_0-target.png,125,2.8680000000000003,2,13489,130,meters,jsons/VE125_randls_68.json,1198930,1322085,29,Man
136,852495,DepthScenes,duration_manipulation_targetAtFixation,jsons/VE125_randls_68.json,http://54.235.29.9/FacialAge/BNav_EC2/DepthDuration/v2_depth_duration_MTurk/v2_DepthDuration_HTML.html#155,155,1366,625,1366,768,9-20-2022,14-19-20,137,depth_duration_stimuli/000457_2014-06-08_16-52-43_260595134347_rgbf000199-resize_1/000457_2014-06-08_16-52-43_260595134347_rgbf000199-resize_1-target.png,125,3.6489999999999996,3,3784,130,meters,jsons/VE125_randls_68.json,1198930,1322085,29,Man
137,852495,DepthScenes,duration_manipulation_targetAtFixation,jsons/VE125_randls_68.json,http://54.235.29.9/FacialAge/BNav_EC2/DepthDuration/v2_depth_duration_MTurk/v2_DepthDuration_HTML.html#155,155,1366,625,1366,768,9-20-2022,14-19-20,138,depth_duration_stimuli/000486_2014-06-09_20-47-20_260595134347_rgbf000143-resize_2/000486_2014-06-09_20-47-20_260595134347_rgbf000143-resize_2-target.png,125,4.8325,4,2560,118,meters,jsons/VE125_randls_68.json,1198930,1322085,29,Man
138,852495,DepthScenes,duration_manipulation_targetAtFixation,jsons/VE125_randls_68.json,http://54.235.29.9/FacialAge/BNav_EC2/DepthDuration/v2_depth_duration_MTurk/v2_DepthDuration_HTML.html#155,155,1366,625,1366,768,9-20-2022,14-19-20,139,depth_duration_stimuli/003083_2014-06-15_15-21-03_094959634447_rgbf000063-resize_1/003083_2014-06-15_15-21-03_094959634447_rgbf000063-resize_1-target.png,125,4.1405,3,8036,136,meters,jsons/VE125_randls_68.json,1198930,1322085,29,Man
139,852495,DepthScenes,duration_manipulation_targetAtFixation,jsons/VE125_randls_68.json,http://54.235.29.9/FacialAge/BNav_EC2/DepthDuration/v2_depth_duration_MTurk/v2_DepthDuration_HTML.html#155,155,1366,625,1366,768,9-20-2022,14-19-20,140,depth_duration_stimuli/001555_2014-06-20_17-12-10_260595134347_rgbf000065-resize_4/001555_2014-06-20_17-12-10_260595134347_rgbf000065-resize_4-target.png,125,1.633,4,2351,117,meters,jsons/VE125_randls_68.json,1198930,1322085,29,Man
140,852495,DepthScenes,duration_manipulation_targetAtFixation,jsons/VE125_randls_68.json,http://54.235.29.9/FacialAge/BNav_EC2/DepthDuration/v2_depth_duration_MTurk/v2_DepthDuration_HTML.html#155,155,1366,625,1366,768,9-20-2022,14-19-20,141,depth_duration_stimuli/000103_2014-05-14_22-01-17_260595134347_rgbf000152-resize_5/000103_2014-05-14_22-01-17_260595134347_rgbf000152-resize_5-target.png,125,1.993,3,5434,127,meters,jsons/VE125_randls_68.json,1198930,1322085,29,Man
141,852495,DepthScenes,duration_manipulation_targetAtFixation,jsons/VE125_randls_68.json,http://54.235.29.9/FacialAge/BNav_EC2/DepthDuration/v2_depth_duration_MTurk/v2_DepthDuration_HTML.html#155,155,1366,625,1366,768,9-20-2022,14-19-20,142,depth_duration_stimuli/002964_2014-06-08_17-46-11_094959634447_rgbf000091-resize_4/002964_2014-06-08_17-46-11_094959634447_rgbf000091-resize_4-target.png,125,1.6909999999999998,3,11954,124,meters,jsons/VE125_randls_68.json,1198930,1322085,29,Man
142,852495,DepthScenes,duration_manipulation_targetAtFixation,jsons/VE125_randls_68.json,http://54.235.29.9/FacialAge/BNav_EC2/DepthDuration/v2_depth_duration_MTurk/v2_DepthDuration_HTML.html#155,155,1366,625,1366,768,9-20-2022,14-19-20,143,depth_duration_stimuli/002136_2014-06-25_21-18-03_260595134347_rgbf000109-resize_3/002136_2014-06-25_21-18-03_260595134347_rgbf000109-resize_3-target.png,125,1.9569999999999999,4,2317,125,meters,jsons/VE125_randls_68.json,1198930,1322085,29,Man
143,852495,DepthScenes,duration_manipulation_targetAtFixation,jsons/VE125_randls_68.json,http://54.235.29.9/FacialAge/BNav_EC2/DepthDuration/v2_depth_duration_MTurk/v2_DepthDuration_HTML.html#155,155,1366,625,1366,768,9-20-2022,14-19-20,144,depth_duration_stimuli/002748_2014-06-22_19-07-22_094959634447_rgbf000078-resize_1/002748_2014-06-22_19-07-22_094959634447_rgbf000078-resize_1-target.png,125,4.6705,3,6841,173,meters,jsons/VE125_randls_68.json,1198930,1322085,29,Man
144,852495,DepthScenes,duration_manipulation_targetAtFixation,jsons/VE125_randls_68.json,http://54.235.29.9/FacialAge/BNav_EC2/DepthDuration/v2_depth_duration_MTurk/v2_DepthDuration_HTML.html#155,155,1366,625,1366,768,9-20-2022,14-19-20,145,depth_duration_stimuli/002995_2014-06-15_12-31-26_094959634447_rgbf000150-resize_1/002995_2014-06-15_12-31-26_094959634447_rgbf000150-resize_1-target.png,125,3.8360000000000003,5,2859,127,meters,jsons/VE125_randls_68.json,1198930,1322085,29,Man
145,852495,DepthScenes,duration_manipulation_targetAtFixation,jsons/VE125_randls_68.json,http://54.235.29.9/FacialAge/BNav_EC2/DepthDuration/v2_depth_duration_MTurk/v2_DepthDuration_HTML.html#155,155,1366,625,1366,768,9-20-2022,14-19-20,146,depth_duration_stimuli/001498_2014-06-19_17-45-14_260595134347_rgbf000129-resize_4/001498_2014-06-19_17-45-14_260595134347_rgbf000129-resize-original.jpg,125,1.4075,4,2504,132,meters,jsons/VE125_randls_68.json,1198930,1322085,29,Man
146,852495,DepthScenes,duration_manipulation_targetAtFixation,jsons/VE125_randls_68.json,http://54.235.29.9/FacialAge/BNav_EC2/DepthDuration/v2_depth_duration_MTurk/v2_DepthDuration_HTML.html#155,155,1366,625,1366,768,9-20-2022,14-19-20,147,depth_duration_stimuli/000447_2014-06-08_16-15-46_260595134347_rgbf000130-resize_1/000447_2014-06-08_16-15-46_260595134347_rgbf000130-resize_1-target.png,125,4.479,4,2272,124,meters,jsons/VE125_randls_68.json,1198930,1322085,29,Man
147,852495,DepthScenes,duration_manipulation_targetAtFixation,jsons/VE125_randls_68.json,http://54.235.29.9/FacialAge/BNav_EC2/DepthDuration/v2_depth_duration_MTurk/v2_DepthDuration_HTML.html#155,155,1366,625,1366,768,9-20-2022,14-19-20,148,depth_duration_stimuli/001447_2014-06-19_17-00-32_260595134347_rgbf000082-resize_5/001447_2014-06-19_17-00-32_260595134347_rgbf000082-resize_5-target.png,125,4.13775,4,2077,200,meters,jsons/VE125_randls_68.json,1198930,1322085,29,Man
148,852495,DepthScenes,duration_manipulation_targetAtFixation,jsons/VE125_randls_68.json,http://54.235.29.9/FacialAge/BNav_EC2/DepthDuration/v2_depth_duration_MTurk/v2_DepthDuration_HTML.html#155,155,1366,625,1366,768,9-20-2022,14-19-20,149,depth_duration_stimuli/000368_2014-06-09_15-53-01_260595134347_rgbf000155-resize_2/000368_2014-06-09_15-53-01_260595134347_rgbf000155-resize_2-target.png,125,2.4859999999999998,4,2030,124,meters,jsons/VE125_randls_68.json,1198930,1322085,29,Man
149,852495,DepthScenes,duration_manipulation_targetAtFixation,jsons/VE125_randls_68.json,http://54.235.29.9/FacialAge/BNav_EC2/DepthDuration/v2_depth_duration_MTurk/v2_DepthDuration_HTML.html#155,155,1366,625,1366,768,9-20-2022,14-19-20,150,depth_duration_stimuli/002678_2014-06-13_16-15-32_094959634447_rgbf000151-resize_6/002678_2014-06-13_16-15-32_094959634447_rgbf000151-resize_6-target.png,125,2.1830000000000003,3,2805,136,meters,jsons/VE125_randls_68.json,1198930,1322085,29,Man
150,852495,DepthScenes,duration_manipulation_targetAtFixation,jsons/VE125_randls_68.json,http://54.235.29.9/FacialAge/BNav_EC2/DepthDuration/v2_depth_duration_MTurk/v2_DepthDuration_HTML.html#155,155,1366,625,1366,768,9-20-2022,14-19-20,151,depth_duration_stimuli/003292_2014-05-14_21-53-49_094959634447_rgbf000100-resize_2/003292_2014-05-14_21-53-49_094959634447_rgbf000100-resize_2-target.png,125,3.4815,3,5563,137,meters,jsons/VE125_randls_68.json,1198930,1322085,29,Man
151,852495,DepthScenes,duration_manipulation_targetAtFixation,jsons/VE125_randls_68.json,http://54.235.29.9/FacialAge/BNav_EC2/DepthDuration/v2_depth_duration_MTurk/v2_DepthDuration_HTML.html#155,155,1366,625,1366,768,9-20-2022,14-19-20,152,depth_duration_stimuli/002639_2014-06-24_14-51-37_094959634447_rgbf000074-resize_4/002639_2014-06-24_14-51-37_094959634447_rgbf000074-resize_4-target.png,125,4.0375,3,5720,127,meters,jsons/VE125_randls_68.json,1198930,1322085,29,Man
152,852495,DepthScenes,duration_manipulation_targetAtFixation,jsons/VE125_randls_68.json,http://54.235.29.9/FacialAge/BNav_EC2/DepthDuration/v2_depth_duration_MTurk/v2_DepthDuration_HTML.html#155,155,1366,625,1366,768,9-20-2022,14-19-20,153,depth_duration_stimuli/001011_2014-06-08_23-18-54_260595134347_rgbf000044-resize_4/001011_2014-06-08_23-18-54_260595134347_rgbf000044-resize_4-target.png,125,2.4730000000000003,3,4026,206,meters,jsons/VE125_randls_68.json,1198930,1322085,29,Man
153,852495,DepthScenes,duration_manipulation_targetAtFixation,jsons/VE125_randls_68.json,http://54.235.29.9/FacialAge/BNav_EC2/DepthDuration/v2_depth_duration_MTurk/v2_DepthDuration_HTML.html#155,155,1366,625,1366,768,9-20-2022,14-19-20,154,depth_duration_stimuli/002875_2014-06-01_15-19-00_094959634447_rgbf000151-resize_1/002875_2014-06-01_15-19-00_094959634447_rgbf000151-resize_1-target.png,125,1.9675,4,2315,123,meters,jsons/VE125_randls_68.json,1198930,1322085,29,Man
154,852495,DepthScenes,duration_manipulation_targetAtFixation,jsons/VE125_randls_68.json,http://54.235.29.9/FacialAge/BNav_EC2/DepthDuration/v2_depth_duration_MTurk/v2_DepthDuration_HTML.html#155,155,1366,625,1366,768,9-20-2022,14-19-20,155,depth_duration_stimuli/002272_2014-06-28_18-53-56_260595134347_rgbf000067-resize_2/002272_2014-06-28_18-53-56_260595134347_rgbf000067-resize_2-target.png,125,1.138,4,4334,136,meters,jsons/VE125_randls_68.json,1198930,1322085,29,Man
155,852495,DepthScenes,duration_manipulation_targetAtFixation,jsons/VE125_randls_68.json,http://54.235.29.9/FacialAge/BNav_EC2/DepthDuration/v2_depth_duration_MTurk/v2_DepthDuration_HTML.html#155,155,1366,625,1366,768,9-20-2022,14-19-20,156,depth_duration_stimuli/001571_2014-06-20_17-21-32_260595134347_rgbf000089-resize_1/001571_2014-06-20_17-21-32_260595134347_rgbf000089-resize_1-target.png,125,1.86,3,2339,128,meters,jsons/VE125_randls_68.json,1198930,1322085,29,Man
156,852495,DepthScenes,duration_manipulation_targetAtFixation,jsons/VE125_randls_68.json,http://54.235.29.9/FacialAge/BNav_EC2/DepthDuration/v2_depth_duration_MTurk/v2_DepthDuration_HTML.html#155,155,1366,625,1366,768,9-20-2022,14-19-20,157,depth_duration_stimuli/001016_2014-06-09_16-16-10_260595134347_rgbf000112-resize_5/001016_2014-06-09_16-16-10_260595134347_rgbf000112-resize_5-target.png,125,1.6565,4,4069,128,meters,jsons/VE125_randls_68.json,1198930,1322085,29,Man
157,852495,DepthScenes,duration_manipulation_targetAtFixation,jsons/VE125_randls_68.json,http://54.235.29.9/FacialAge/BNav_EC2/DepthDuration/v2_depth_duration_MTurk/v2_DepthDuration_HTML.html#155,155,1366,625,1366,768,9-20-2022,14-19-20,158,depth_duration_stimuli/002340_2014-06-28_20-05-46_260595134347_rgbf000113-resize_0/002340_2014-06-28_20-05-46_260595134347_rgbf000113-resize_0-target.png,125,2.4735,4,2450,124,meters,jsons/VE125_randls_68.json,1198930,1322085,29,Man
158,852495,DepthScenes,duration_manipulation_targetAtFixation,jsons/VE125_randls_68.json,http://54.235.29.9/FacialAge/BNav_EC2/DepthDuration/v2_depth_duration_MTurk/v2_DepthDuration_HTML.html#155,155,1366,625,1366,768,9-20-2022,14-19-20,159,depth_duration_stimuli/001110_2014-06-15_17-25-28_260595134347_rgbf000150-resize_1/001110_2014-06-15_17-25-28_260595134347_rgbf000150-resize_1-target.png,125,1.7115,4,3966,124,meters,jsons/VE125_randls_68.json,1198930,1322085,29,Man
159,852495,DepthScenes,duration_manipulation_targetAtFixation,jsons/VE125_randls_68.json,http://54.235.29.9/FacialAge/BNav_EC2/DepthDuration/v2_depth_duration_MTurk/v2_DepthDuration_HTML.html#155,155,1366,625,1366,768,9-20-2022,14-19-20,160,depth_duration_stimuli/000927_2014-06-09_16-32-30_260595134347_rgbf000123-resize_3/000927_2014-06-09_16-32-30_260595134347_rgbf000123-resize_3-target.png,125,2.6785,3,2301,126,meters,jsons/VE125_randls_68.json,1198930,1322085,29,Man
160,852495,DepthScenes,duration_manipulation_targetAtFixation,jsons/VE125_randls_68.json,http://54.235.29.9/FacialAge/BNav_EC2/DepthDuration/v2_depth_duration_MTurk/v2_DepthDuration_HTML.html#155,155,1366,625,1366,768,9-20-2022,14-19-20,161,depth_duration_stimuli/001066_2014-06-08_22-03-20_260595134347_rgbf000066-resize_4/001066_2014-06-08_22-03-20_260595134347_rgbf000066-resize_4-target.png,125,4.2330000000000005,4,3753,154,meters,jsons/VE125_randls_68.json,1198930,1322085,29,Man
161,852495,DepthScenes,duration_manipulation_targetAtFixation,jsons/VE125_randls_68.json,http://54.235.29.9/FacialAge/BNav_EC2/DepthDuration/v2_depth_duration_MTurk/v2_DepthDuration_HTML.html#155,155,1366,625,1366,768,9-20-2022,14-19-20,162,depth_duration_stimuli/000742_2014-06-08_18-48-09_260595134347_rgbf000164-resize_4/000742_2014-06-08_18-48-09_260595134347_rgbf000164-resize_4-target.png,125,4.632,3,2702,111,meters,jsons/VE125_randls_68.json,1198930,1322085,29,Man
162,852495,DepthScenes,duration_manipulation_targetAtFixation,jsons/VE125_randls_68.json,http://54.235.29.9/FacialAge/BNav_EC2/DepthDuration/v2_depth_duration_MTurk/v2_DepthDuration_HTML.html#155,155,1366,625,1366,768,9-20-2022,14-19-20,163,depth_duration_stimuli/001806_2014-06-26_20-50-20_260595134347_rgbf000091-resize_1/001806_2014-06-26_20-50-20_260595134347_rgbf000091-resize_1-target.png,125,2.7305,2,2349,134,meters,jsons/VE125_randls_68.json,1198930,1322085,29,Man
163,852495,DepthScenes,duration_manipulation_targetAtFixation,jsons/VE125_randls_68.json,http://54.235.29.9/FacialAge/BNav_EC2/DepthDuration/v2_depth_duration_MTurk/v2_DepthDuration_HTML.html#155,155,1366,625,1366,768,9-20-2022,14-19-20,164,depth_duration_stimuli/001617_2014-06-20_11-35-32_260595134347_rgbf000066-resize_1/001617_2014-06-20_11-35-32_260595134347_rgbf000066-resize_1-target.png,125,3.7910000000000004,2,2365,126,meters,jsons/VE125_randls_68.json,1198930,1322085,29,Man
