,subjID,experimentName,versionName,sequenceName,url,selected_row,windowWidth,windowHeight,screenWidth,screenHeight,startDate,startTime,trial,stimulus,duration,actual_depth,depth_estimate,trial_RT,log_sceneDuration,unitSelection,seq_filepath,experimentTime,totalTime,age,gender
0,852736,DepthScenes,duration_manipulation_targetAtFixation,jsons/v1_VE250_randls_53_rotated.json,http://54.235.29.9/FacialAge/BNav_EC2/DepthDuration/v2_depth_duration_MTurk/v2_DepthDuration_HTML.html#47,47,1536,746,1536,864,8-20-2022,10-28-45,1,depth_duration_stimuli/000635_2014-06-08_16-38-42_260595134347_rgbf000106-resize_1/000635_2014-06-08_16-38-42_260595134347_rgbf000106-resize_1-target.png,250,2.074,9,5931,249,meters,jsons/v1_VE250_randls_53_rotated.json,731145,1073553,32,Man
1,852736,DepthScenes,duration_manipulation_targetAtFixation,jsons/v1_VE250_randls_53_rotated.json,http://54.235.29.9/FacialAge/BNav_EC2/DepthDuration/v2_depth_duration_MTurk/v2_DepthDuration_HTML.html#47,47,1536,746,1536,864,8-20-2022,10-28-45,2,depth_duration_stimuli/002279_2014-06-28_18-55-32_260595134347_rgbf000040-resize_5/002279_2014-06-28_18-55-32_260595134347_rgbf000040-resize_5-target.png,250,1.5043333333333,5,4199,246,meters,jsons/v1_VE250_randls_53_rotated.json,731145,1073553,32,Man
2,852736,DepthScenes,duration_manipulation_targetAtFixation,jsons/v1_VE250_randls_53_rotated.json,http://54.235.29.9/FacialAge/BNav_EC2/DepthDuration/v2_depth_duration_MTurk/v2_DepthDuration_HTML.html#47,47,1536,746,1536,864,8-20-2022,10-28-45,3,depth_duration_stimuli/000677_2014-06-08_23-10-32_260595134347_rgbf000158-resize_6/000677_2014-06-08_23-10-32_260595134347_rgbf000158-resize_6-target.png,250,3.556,8,2829,251,meters,jsons/v1_VE250_randls_53_rotated.json,731145,1073553,32,Man
3,852736,DepthScenes,duration_manipulation_targetAtFixation,jsons/v1_VE250_randls_53_rotated.json,http://54.235.29.9/FacialAge/BNav_EC2/DepthDuration/v2_depth_duration_MTurk/v2_DepthDuration_HTML.html#47,47,1536,746,1536,864,8-20-2022,10-28-45,4,depth_duration_stimuli/001029_2014-06-08_13-17-57_260595134347_rgbf000065-resize_1/001029_2014-06-08_13-17-57_260595134347_rgbf000065-resize_1-target.png,250,3.0835,9,2686,248,meters,jsons/v1_VE250_randls_53_rotated.json,731145,1073553,32,Man
4,852736,DepthScenes,duration_manipulation_targetAtFixation,jsons/v1_VE250_randls_53_rotated.json,http://54.235.29.9/FacialAge/BNav_EC2/DepthDuration/v2_depth_duration_MTurk/v2_DepthDuration_HTML.html#47,47,1536,746,1536,864,8-20-2022,10-28-45,5,depth_duration_stimuli/003081_2014-06-15_15-19-16_094959634447_rgbf000150-resize_1/003081_2014-06-15_15-19-16_094959634447_rgbf000150-resize_1-target.png,250,3.9125,10,2753,252,meters,jsons/v1_VE250_randls_53_rotated.json,731145,1073553,32,Man
5,852736,DepthScenes,duration_manipulation_targetAtFixation,jsons/v1_VE250_randls_53_rotated.json,http://54.235.29.9/FacialAge/BNav_EC2/DepthDuration/v2_depth_duration_MTurk/v2_DepthDuration_HTML.html#47,47,1536,746,1536,864,8-20-2022,10-28-45,6,depth_duration_stimuli/001417_2014-06-19_16-25-36_260595134347_rgbf000115-resize_5/001417_2014-06-19_16-25-36_260595134347_rgbf000115-resize_5-target.png,250,4.6255,10,2647,251,meters,jsons/v1_VE250_randls_53_rotated.json,731145,1073553,32,Man
6,852736,DepthScenes,duration_manipulation_targetAtFixation,jsons/v1_VE250_randls_53_rotated.json,http://54.235.29.9/FacialAge/BNav_EC2/DepthDuration/v2_depth_duration_MTurk/v2_DepthDuration_HTML.html#47,47,1536,746,1536,864,8-20-2022,10-28-45,7,depth_duration_stimuli/000549_2014-06-08_22-10-24_260595134347_rgbf000247-resize_3/000549_2014-06-08_22-10-24_260595134347_rgbf000247-resize_3-target.png,250,1.841,4,2927,249,meters,jsons/v1_VE250_randls_53_rotated.json,731145,1073553,32,Man
7,852736,DepthScenes,duration_manipulation_targetAtFixation,jsons/v1_VE250_randls_53_rotated.json,http://54.235.29.9/FacialAge/BNav_EC2/DepthDuration/v2_depth_duration_MTurk/v2_DepthDuration_HTML.html#47,47,1536,746,1536,864,8-20-2022,10-28-45,8,depth_duration_stimuli/001055_2014-06-08_18-45-35_260595134347_rgbf000111-resize_4/001055_2014-06-08_18-45-35_260595134347_rgbf000111-resize_4-target.png,250,2.4290000000000003,11,77832,239,meters,jsons/v1_VE250_randls_53_rotated.json,731145,1073553,32,Man
8,852736,DepthScenes,duration_manipulation_targetAtFixation,jsons/v1_VE250_randls_53_rotated.json,http://54.235.29.9/FacialAge/BNav_EC2/DepthDuration/v2_depth_duration_MTurk/v2_DepthDuration_HTML.html#47,47,1536,746,1536,864,8-20-2022,10-28-45,9,depth_duration_stimuli/001650_2014-06-20_12-09-00_260595134347_rgbf000087-resize_3/001650_2014-06-20_12-09-00_260595134347_rgbf000087-resize_3-target.png,250,1.9505,3,3958,242,meters,jsons/v1_VE250_randls_53_rotated.json,731145,1073553,32,Man
9,852736,DepthScenes,duration_manipulation_targetAtFixation,jsons/v1_VE250_randls_53_rotated.json,http://54.235.29.9/FacialAge/BNav_EC2/DepthDuration/v2_depth_duration_MTurk/v2_DepthDuration_HTML.html#47,47,1536,746,1536,864,8-20-2022,10-28-45,10,depth_duration_stimuli/000682_2014-06-08_23-14-58_260595134347_rgbf000041-resize_5/000682_2014-06-08_23-14-58_260595134347_rgbf000041-resize_5-target.png,250,2.7239999999999998,7,2529,251,meters,jsons/v1_VE250_randls_53_rotated.json,731145,1073553,32,Man
10,852736,DepthScenes,duration_manipulation_targetAtFixation,jsons/v1_VE250_randls_53_rotated.json,http://54.235.29.9/FacialAge/BNav_EC2/DepthDuration/v2_depth_duration_MTurk/v2_DepthDuration_HTML.html#47,47,1536,746,1536,864,8-20-2022,10-28-45,11,depth_duration_stimuli/003490_2014-05-21_15-50-11_094959634447_rgbf000101-resize_3/003490_2014-05-21_15-50-11_094959634447_rgbf000101-resize_3-target.png,250,3.6445,9,2496,248,meters,jsons/v1_VE250_randls_53_rotated.json,731145,1073553,32,Man
11,852736,DepthScenes,duration_manipulation_targetAtFixation,jsons/v1_VE250_randls_53_rotated.json,http://54.235.29.9/FacialAge/BNav_EC2/DepthDuration/v2_depth_duration_MTurk/v2_DepthDuration_HTML.html#47,47,1536,746,1536,864,8-20-2022,10-28-45,12,depth_duration_stimuli/001175_2014-06-17_15-45-55_260595134347_rgbf000129-resize_4/001175_2014-06-17_15-45-55_260595134347_rgbf000129-resize_4-target.png,250,4.255,12,2534,224,meters,jsons/v1_VE250_randls_53_rotated.json,731145,1073553,32,Man
12,852736,DepthScenes,duration_manipulation_targetAtFixation,jsons/v1_VE250_randls_53_rotated.json,http://54.235.29.9/FacialAge/BNav_EC2/DepthDuration/v2_depth_duration_MTurk/v2_DepthDuration_HTML.html#47,47,1536,746,1536,864,8-20-2022,10-28-45,13,depth_duration_stimuli/001828_2014-06-26_21-40-03_260595134347_rgbf000024-resize_0/001828_2014-06-26_21-40-03_260595134347_rgbf000024-resize_0-target.png,250,4.8260000000000005,6,2546,247,meters,jsons/v1_VE250_randls_53_rotated.json,731145,1073553,32,Man
13,852736,DepthScenes,duration_manipulation_targetAtFixation,jsons/v1_VE250_randls_53_rotated.json,http://54.235.29.9/FacialAge/BNav_EC2/DepthDuration/v2_depth_duration_MTurk/v2_DepthDuration_HTML.html#47,47,1536,746,1536,864,8-20-2022,10-28-45,14,depth_duration_stimuli/000009_2014-05-26_14-32-05_260595134347_rgbf000034-resize_3/000009_2014-05-26_14-32-05_260595134347_rgbf000034-resize_3-target.png,250,3.8715,11,2375,253,meters,jsons/v1_VE250_randls_53_rotated.json,731145,1073553,32,Man
14,852736,DepthScenes,duration_manipulation_targetAtFixation,jsons/v1_VE250_randls_53_rotated.json,http://54.235.29.9/FacialAge/BNav_EC2/DepthDuration/v2_depth_duration_MTurk/v2_DepthDuration_HTML.html#47,47,1536,746,1536,864,8-20-2022,10-28-45,15,depth_duration_stimuli/002949_2014-06-26_15-57-42_094959634447_rgbf000079-resize_1/002949_2014-06-26_15-57-42_094959634447_rgbf000079-resize_1-target.png,250,1.8915,5,2781,250,meters,jsons/v1_VE250_randls_53_rotated.json,731145,1073553,32,Man
15,852736,DepthScenes,duration_manipulation_targetAtFixation,jsons/v1_VE250_randls_53_rotated.json,http://54.235.29.9/FacialAge/BNav_EC2/DepthDuration/v2_depth_duration_MTurk/v2_DepthDuration_HTML.html#47,47,1536,746,1536,864,8-20-2022,10-28-45,16,depth_duration_stimuli/000522_2014-06-08_13-35-06_260595134347_rgbf000244-resize_1/000522_2014-06-08_13-35-06_260595134347_rgbf000244-resize_1-target.png,250,2.3715,4,2270,252,meters,jsons/v1_VE250_randls_53_rotated.json,731145,1073553,32,Man
16,852736,DepthScenes,duration_manipulation_targetAtFixation,jsons/v1_VE250_randls_53_rotated.json,http://54.235.29.9/FacialAge/BNav_EC2/DepthDuration/v2_depth_duration_MTurk/v2_DepthDuration_HTML.html#47,47,1536,746,1536,864,8-20-2022,10-28-45,17,depth_duration_stimuli/003129_2014-05-12_10-48-10_094959634447_rgbf000100-resize_0/003129_2014-05-12_10-48-10_094959634447_rgbf000100-resize_0-target.png,250,4.9305,8,2416,262,meters,jsons/v1_VE250_randls_53_rotated.json,731145,1073553,32,Man
17,852736,DepthScenes,duration_manipulation_targetAtFixation,jsons/v1_VE250_randls_53_rotated.json,http://54.235.29.9/FacialAge/BNav_EC2/DepthDuration/v2_depth_duration_MTurk/v2_DepthDuration_HTML.html#47,47,1536,746,1536,864,8-20-2022,10-28-45,18,depth_duration_stimuli/000414_2014-06-04_19-49-13_260595134347_rgbf000044-resize_0/000414_2014-06-04_19-49-13_260595134347_rgbf000044-resize_0-target.png,250,4.329,10,2661,243,meters,jsons/v1_VE250_randls_53_rotated.json,731145,1073553,32,Man
18,852736,DepthScenes,duration_manipulation_targetAtFixation,jsons/v1_VE250_randls_53_rotated.json,http://54.235.29.9/FacialAge/BNav_EC2/DepthDuration/v2_depth_duration_MTurk/v2_DepthDuration_HTML.html#47,47,1536,746,1536,864,8-20-2022,10-28-45,19,depth_duration_stimuli/001498_2014-06-19_17-45-14_260595134347_rgbf000129-resize_4/001498_2014-06-19_17-45-14_260595134347_rgbf000129-resize-original.jpg,250,1.4075,0,2504,244,meters,jsons/v1_VE250_randls_53_rotated.json,731145,1073553,32,Man
19,852736,DepthScenes,duration_manipulation_targetAtFixation,jsons/v1_VE250_randls_53_rotated.json,http://54.235.29.9/FacialAge/BNav_EC2/DepthDuration/v2_depth_duration_MTurk/v2_DepthDuration_HTML.html#47,47,1536,746,1536,864,8-20-2022,10-28-45,20,depth_duration_stimuli/002199_2014-06-28_18-33-56_260595134347_rgbf000074-resize_0/002199_2014-06-28_18-33-56_260595134347_rgbf000074-resize_0-target.png,250,1.996,3,2462,267,meters,jsons/v1_VE250_randls_53_rotated.json,731145,1073553,32,Man
20,852736,DepthScenes,duration_manipulation_targetAtFixation,jsons/v1_VE250_randls_53_rotated.json,http://54.235.29.9/FacialAge/BNav_EC2/DepthDuration/v2_depth_duration_MTurk/v2_DepthDuration_HTML.html#47,47,1536,746,1536,864,8-20-2022,10-28-45,21,depth_duration_stimuli/001056_2014-06-08_18-46-44_260595134347_rgbf000068-resize_0/001056_2014-06-08_18-46-44_260595134347_rgbf000068-resize_0-target.png,250,2.6625,6,2643,248,meters,jsons/v1_VE250_randls_53_rotated.json,731145,1073553,32,Man
21,852736,DepthScenes,duration_manipulation_targetAtFixation,jsons/v1_VE250_randls_53_rotated.json,http://54.235.29.9/FacialAge/BNav_EC2/DepthDuration/v2_depth_duration_MTurk/v2_DepthDuration_HTML.html#47,47,1536,746,1536,864,8-20-2022,10-28-45,22,depth_duration_stimuli/000191_2014-05-12_17-07-38_260595134347_rgbf000199-resize_0/000191_2014-05-12_17-07-38_260595134347_rgbf000199-resize_0-target.png,250,3.7995,8,4112,248,meters,jsons/v1_VE250_randls_53_rotated.json,731145,1073553,32,Man
22,852736,DepthScenes,duration_manipulation_targetAtFixation,jsons/v1_VE250_randls_53_rotated.json,http://54.235.29.9/FacialAge/BNav_EC2/DepthDuration/v2_depth_duration_MTurk/v2_DepthDuration_HTML.html#47,47,1536,746,1536,864,8-20-2022,10-28-45,23,depth_duration_stimuli/000493_2014-06-09_21-01-18_260595134347_rgbf000196-resize_3/000493_2014-06-09_21-01-18_260595134347_rgbf000196-resize_3-target.png,250,3.44,8,3039,240,meters,jsons/v1_VE250_randls_53_rotated.json,731145,1073553,32,Man
23,852736,DepthScenes,duration_manipulation_targetAtFixation,jsons/v1_VE250_randls_53_rotated.json,http://54.235.29.9/FacialAge/BNav_EC2/DepthDuration/v2_depth_duration_MTurk/v2_DepthDuration_HTML.html#47,47,1536,746,1536,864,8-20-2022,10-28-45,24,depth_duration_stimuli/002323_2014-06-28_20-01-54_260595134347_rgbf000051-resize_4/002323_2014-06-28_20-01-54_260595134347_rgbf000051-resize_4-target.png,250,3.7310000000000003,9,2660,238,meters,jsons/v1_VE250_randls_53_rotated.json,731145,1073553,32,Man
24,852736,DepthScenes,duration_manipulation_targetAtFixation,jsons/v1_VE250_randls_53_rotated.json,http://54.235.29.9/FacialAge/BNav_EC2/DepthDuration/v2_depth_duration_MTurk/v2_DepthDuration_HTML.html#47,47,1536,746,1536,864,8-20-2022,10-28-45,25,depth_duration_stimuli/000917_2014-06-09_22-45-29_260595134347_rgbf000149-resize_3/000917_2014-06-09_22-45-29_260595134347_rgbf000149-resize_3-target.png,250,4.1865,8,2186,251,meters,jsons/v1_VE250_randls_53_rotated.json,731145,1073553,32,Man
25,852736,DepthScenes,duration_manipulation_targetAtFixation,jsons/v1_VE250_randls_53_rotated.json,http://54.235.29.9/FacialAge/BNav_EC2/DepthDuration/v2_depth_duration_MTurk/v2_DepthDuration_HTML.html#47,47,1536,746,1536,864,8-20-2022,10-28-45,26,depth_duration_stimuli/002425_2014-06-28_20-27-29_260595134347_rgbf000031-resize_8/002425_2014-06-28_20-27-29_260595134347_rgbf000031-resize_8-target.png,250,3.8960000000000004,9,2989,252,meters,jsons/v1_VE250_randls_53_rotated.json,731145,1073553,32,Man
26,852736,DepthScenes,duration_manipulation_targetAtFixation,jsons/v1_VE250_randls_53_rotated.json,http://54.235.29.9/FacialAge/BNav_EC2/DepthDuration/v2_depth_duration_MTurk/v2_DepthDuration_HTML.html#47,47,1536,746,1536,864,8-20-2022,10-28-45,27,depth_duration_stimuli/000642_2014-06-08_16-59-25_260595134347_rgbf000098-resize_2/000642_2014-06-08_16-59-25_260595134347_rgbf000098-resize_2-target.png,250,2.8815,8,2448,240,meters,jsons/v1_VE250_randls_53_rotated.json,731145,1073553,32,Man
27,852736,DepthScenes,duration_manipulation_targetAtFixation,jsons/v1_VE250_randls_53_rotated.json,http://54.235.29.9/FacialAge/BNav_EC2/DepthDuration/v2_depth_duration_MTurk/v2_DepthDuration_HTML.html#47,47,1536,746,1536,864,8-20-2022,10-28-45,28,depth_duration_stimuli/003587_2014-05-23_16-48-02_094959634447_rgbf002384-resize_2/003587_2014-05-23_16-48-02_094959634447_rgbf002384-resize_2-target.png,250,1.357,4,2236,240,meters,jsons/v1_VE250_randls_53_rotated.json,731145,1073553,32,Man
28,852736,DepthScenes,duration_manipulation_targetAtFixation,jsons/v1_VE250_randls_53_rotated.json,http://54.235.29.9/FacialAge/BNav_EC2/DepthDuration/v2_depth_duration_MTurk/v2_DepthDuration_HTML.html#47,47,1536,746,1536,864,8-20-2022,10-28-45,29,depth_duration_stimuli/001167_2014-06-17_15-38-07_260595134347_rgbf000108-resize_0/001167_2014-06-17_15-38-07_260595134347_rgbf000108-resize_0-target.png,250,1.8505,5,2166,262,meters,jsons/v1_VE250_randls_53_rotated.json,731145,1073553,32,Man
29,852736,DepthScenes,duration_manipulation_targetAtFixation,jsons/v1_VE250_randls_53_rotated.json,http://54.235.29.9/FacialAge/BNav_EC2/DepthDuration/v2_depth_duration_MTurk/v2_DepthDuration_HTML.html#47,47,1536,746,1536,864,8-20-2022,10-28-45,30,depth_duration_stimuli/002072_2014-06-24_21-48-06_260595134347_rgbf000115-resize_0/002072_2014-06-24_21-48-06_260595134347_rgbf000115-resize-original.jpg,250,4.702,0,2248,248,meters,jsons/v1_VE250_randls_53_rotated.json,731145,1073553,32,Man
30,852736,DepthScenes,duration_manipulation_targetAtFixation,jsons/v1_VE250_randls_53_rotated.json,http://54.235.29.9/FacialAge/BNav_EC2/DepthDuration/v2_depth_duration_MTurk/v2_DepthDuration_HTML.html#47,47,1536,746,1536,864,8-20-2022,10-28-45,31,depth_duration_stimuli/002545_2014-06-24_13-38-53_094959634447_rgbf000080-resize_4/002545_2014-06-24_13-38-53_094959634447_rgbf000080-resize_4-target.png,250,1.9205,8,12954,249,meters,jsons/v1_VE250_randls_53_rotated.json,731145,1073553,32,Man
31,852736,DepthScenes,duration_manipulation_targetAtFixation,jsons/v1_VE250_randls_53_rotated.json,http://54.235.29.9/FacialAge/BNav_EC2/DepthDuration/v2_depth_duration_MTurk/v2_DepthDuration_HTML.html#47,47,1536,746,1536,864,8-20-2022,10-28-45,32,depth_duration_stimuli/001092_2014-06-15_17-34-58_260595134347_rgbf000171-resize_3/001092_2014-06-15_17-34-58_260595134347_rgbf000171-resize_3-target.png,250,2.6935,6,4374,252,meters,jsons/v1_VE250_randls_53_rotated.json,731145,1073553,32,Man
32,852736,DepthScenes,duration_manipulation_targetAtFixation,jsons/v1_VE250_randls_53_rotated.json,http://54.235.29.9/FacialAge/BNav_EC2/DepthDuration/v2_depth_duration_MTurk/v2_DepthDuration_HTML.html#47,47,1536,746,1536,864,8-20-2022,10-28-45,33,depth_duration_stimuli/001214_2014-06-17_16-13-55_260595134347_rgbf000111-resize_0/001214_2014-06-17_16-13-55_260595134347_rgbf000111-resize_0-target.png,250,2.6505,6,2402,248,meters,jsons/v1_VE250_randls_53_rotated.json,731145,1073553,32,Man
33,852736,DepthScenes,duration_manipulation_targetAtFixation,jsons/v1_VE250_randls_53_rotated.json,http://54.235.29.9/FacialAge/BNav_EC2/DepthDuration/v2_depth_duration_MTurk/v2_DepthDuration_HTML.html#47,47,1536,746,1536,864,8-20-2022,10-28-45,34,depth_duration_stimuli/000810_2014-06-08_17-20-01_260595134347_rgbf000105-resize_0/000810_2014-06-08_17-20-01_260595134347_rgbf000105-resize_0-target.png,250,1.4865,5,2182,255,meters,jsons/v1_VE250_randls_53_rotated.json,731145,1073553,32,Man
34,852736,DepthScenes,duration_manipulation_targetAtFixation,jsons/v1_VE250_randls_53_rotated.json,http://54.235.29.9/FacialAge/BNav_EC2/DepthDuration/v2_depth_duration_MTurk/v2_DepthDuration_HTML.html#47,47,1536,746,1536,864,8-20-2022,10-28-45,35,depth_duration_stimuli/001052_2014-06-08_18-24-54_260595134347_rgbf000130-resize_1/001052_2014-06-08_18-24-54_260595134347_rgbf000130-resize_1-target.png,250,4.1045,8,2208,249,meters,jsons/v1_VE250_randls_53_rotated.json,731145,1073553,32,Man
35,852736,DepthScenes,duration_manipulation_targetAtFixation,jsons/v1_VE250_randls_53_rotated.json,http://54.235.29.9/FacialAge/BNav_EC2/DepthDuration/v2_depth_duration_MTurk/v2_DepthDuration_HTML.html#47,47,1536,746,1536,864,8-20-2022,10-28-45,36,depth_duration_stimuli/002988_2014-06-15_12-24-20_094959634447_rgbf000150-resize_1/002988_2014-06-15_12-24-20_094959634447_rgbf000150-resize_1-target.png,250,4.7669999999999995,10,2596,254,meters,jsons/v1_VE250_randls_53_rotated.json,731145,1073553,32,Man
36,852736,DepthScenes,duration_manipulation_targetAtFixation,jsons/v1_VE250_randls_53_rotated.json,http://54.235.29.9/FacialAge/BNav_EC2/DepthDuration/v2_depth_duration_MTurk/v2_DepthDuration_HTML.html#47,47,1536,746,1536,864,8-20-2022,10-28-45,37,depth_duration_stimuli/002637_2014-06-24_14-51-13_094959634447_rgbf000066-resize_4/002637_2014-06-24_14-51-13_094959634447_rgbf000066-resize_4-target.png,250,1.9955,7,11237,254,meters,jsons/v1_VE250_randls_53_rotated.json,731145,1073553,32,Man
37,852736,DepthScenes,duration_manipulation_targetAtFixation,jsons/v1_VE250_randls_53_rotated.json,http://54.235.29.9/FacialAge/BNav_EC2/DepthDuration/v2_depth_duration_MTurk/v2_DepthDuration_HTML.html#47,47,1536,746,1536,864,8-20-2022,10-28-45,38,depth_duration_stimuli/003534_2014-05-22_15-06-10_094959634447_rgbf000102-resize_4/003534_2014-05-22_15-06-10_094959634447_rgbf000102-resize_4-target.png,250,1.426,4,2515,258,meters,jsons/v1_VE250_randls_53_rotated.json,731145,1073553,32,Man
38,852736,DepthScenes,duration_manipulation_targetAtFixation,jsons/v1_VE250_randls_53_rotated.json,http://54.235.29.9/FacialAge/BNav_EC2/DepthDuration/v2_depth_duration_MTurk/v2_DepthDuration_HTML.html#47,47,1536,746,1536,864,8-20-2022,10-28-45,39,depth_duration_stimuli/000665_2014-06-09_20-42-35_260595134347_rgbf000110-resize_1/000665_2014-06-09_20-42-35_260595134347_rgbf000110-resize_1-target.png,250,3.057,6,3062,251,meters,jsons/v1_VE250_randls_53_rotated.json,731145,1073553,32,Man
39,852736,DepthScenes,duration_manipulation_targetAtFixation,jsons/v1_VE250_randls_53_rotated.json,http://54.235.29.9/FacialAge/BNav_EC2/DepthDuration/v2_depth_duration_MTurk/v2_DepthDuration_HTML.html#47,47,1536,746,1536,864,8-20-2022,10-28-45,40,depth_duration_stimuli/001150_2014-06-17_15-27-34_260595134347_rgbf000108-resize_2/001150_2014-06-17_15-27-34_260595134347_rgbf000108-resize_2-target.png,250,4.0325,7,2401,252,meters,jsons/v1_VE250_randls_53_rotated.json,731145,1073553,32,Man
40,852736,DepthScenes,duration_manipulation_targetAtFixation,jsons/v1_VE250_randls_53_rotated.json,http://54.235.29.9/FacialAge/BNav_EC2/DepthDuration/v2_depth_duration_MTurk/v2_DepthDuration_HTML.html#47,47,1536,746,1536,864,8-20-2022,10-28-45,41,depth_duration_stimuli/001617_2014-06-20_11-35-32_260595134347_rgbf000066-resize_1/001617_2014-06-20_11-35-32_260595134347_rgbf000066-resize_1-target.png,250,3.7910000000000004,9,2836,259,meters,jsons/v1_VE250_randls_53_rotated.json,731145,1073553,32,Man
41,852736,DepthScenes,duration_manipulation_targetAtFixation,jsons/v1_VE250_randls_53_rotated.json,http://54.235.29.9/FacialAge/BNav_EC2/DepthDuration/v2_depth_duration_MTurk/v2_DepthDuration_HTML.html#47,47,1536,746,1536,864,8-20-2022,10-28-45,42,depth_duration_stimuli/001806_2014-06-26_20-50-20_260595134347_rgbf000091-resize_1/001806_2014-06-26_20-50-20_260595134347_rgbf000091-resize_1-target.png,250,2.7305,5,2788,242,meters,jsons/v1_VE250_randls_53_rotated.json,731145,1073553,32,Man
42,852736,DepthScenes,duration_manipulation_targetAtFixation,jsons/v1_VE250_randls_53_rotated.json,http://54.235.29.9/FacialAge/BNav_EC2/DepthDuration/v2_depth_duration_MTurk/v2_DepthDuration_HTML.html#47,47,1536,746,1536,864,8-20-2022,10-28-45,43,depth_duration_stimuli/003083_2014-06-15_15-21-03_094959634447_rgbf000063-resize_1/003083_2014-06-15_15-21-03_094959634447_rgbf000063-resize_1-target.png,250,4.1405,10,2674,247,meters,jsons/v1_VE250_randls_53_rotated.json,731145,1073553,32,Man
43,852736,DepthScenes,duration_manipulation_targetAtFixation,jsons/v1_VE250_randls_53_rotated.json,http://54.235.29.9/FacialAge/BNav_EC2/DepthDuration/v2_depth_duration_MTurk/v2_DepthDuration_HTML.html#47,47,1536,746,1536,864,8-20-2022,10-28-45,44,depth_duration_stimuli/000486_2014-06-09_20-47-20_260595134347_rgbf000143-resize_2/000486_2014-06-09_20-47-20_260595134347_rgbf000143-resize_2-target.png,250,4.8325,9,3109,250,meters,jsons/v1_VE250_randls_53_rotated.json,731145,1073553,32,Man
44,852736,DepthScenes,duration_manipulation_targetAtFixation,jsons/v1_VE250_randls_53_rotated.json,http://54.235.29.9/FacialAge/BNav_EC2/DepthDuration/v2_depth_duration_MTurk/v2_DepthDuration_HTML.html#47,47,1536,746,1536,864,8-20-2022,10-28-45,45,depth_duration_stimuli/001815_2014-06-26_20-52-55_260595134347_rgbf000020-resize_0/001815_2014-06-26_20-52-55_260595134347_rgbf000020-resize_0-target.png,250,3.3865,10,2327,249,meters,jsons/v1_VE250_randls_53_rotated.json,731145,1073553,32,Man
45,852736,DepthScenes,duration_manipulation_targetAtFixation,jsons/v1_VE250_randls_53_rotated.json,http://54.235.29.9/FacialAge/BNav_EC2/DepthDuration/v2_depth_duration_MTurk/v2_DepthDuration_HTML.html#47,47,1536,746,1536,864,8-20-2022,10-28-45,46,depth_duration_stimuli/001808_2014-06-26_20-50-58_260595134347_rgbf000029-resize_1/001808_2014-06-26_20-50-58_260595134347_rgbf000029-resize_1-target.png,250,4.249,9,2247,247,meters,jsons/v1_VE250_randls_53_rotated.json,731145,1073553,32,Man
46,852736,DepthScenes,duration_manipulation_targetAtFixation,jsons/v1_VE250_randls_53_rotated.json,http://54.235.29.9/FacialAge/BNav_EC2/DepthDuration/v2_depth_duration_MTurk/v2_DepthDuration_HTML.html#47,47,1536,746,1536,864,8-20-2022,10-28-45,47,depth_duration_stimuli/002758_2014-06-22_19-11-20_094959634447_rgbf000128-resize_1/002758_2014-06-22_19-11-20_094959634447_rgbf000128-resize_1-target.png,250,2.555,8,2862,250,meters,jsons/v1_VE250_randls_53_rotated.json,731145,1073553,32,Man
47,852736,DepthScenes,duration_manipulation_targetAtFixation,jsons/v1_VE250_randls_53_rotated.json,http://54.235.29.9/FacialAge/BNav_EC2/DepthDuration/v2_depth_duration_MTurk/v2_DepthDuration_HTML.html#47,47,1536,746,1536,864,8-20-2022,10-28-45,48,depth_duration_stimuli/002630_2014-06-24_14-47-50_094959634447_rgbf000055-resize_1/002630_2014-06-24_14-47-50_094959634447_rgbf000055-resize_1-target.png,250,3.0095,7,2282,250,meters,jsons/v1_VE250_randls_53_rotated.json,731145,1073553,32,Man
48,852736,DepthScenes,duration_manipulation_targetAtFixation,jsons/v1_VE250_randls_53_rotated.json,http://54.235.29.9/FacialAge/BNav_EC2/DepthDuration/v2_depth_duration_MTurk/v2_DepthDuration_HTML.html#47,47,1536,746,1536,864,8-20-2022,10-28-45,49,depth_duration_stimuli/001170_2014-06-17_15-43-44_260595134347_rgbf000096-resize_6/001170_2014-06-17_15-43-44_260595134347_rgbf000096-resize-original.jpg,250,1.1909999999999998,0,2521,245,meters,jsons/v1_VE250_randls_53_rotated.json,731145,1073553,32,Man
49,852736,DepthScenes,duration_manipulation_targetAtFixation,jsons/v1_VE250_randls_53_rotated.json,http://54.235.29.9/FacialAge/BNav_EC2/DepthDuration/v2_depth_duration_MTurk/v2_DepthDuration_HTML.html#47,47,1536,746,1536,864,8-20-2022,10-28-45,50,depth_duration_stimuli/002444_2014-06-28_20-32-08_260595134347_rgbf000027-resize_0/002444_2014-06-28_20-32-08_260595134347_rgbf000027-resize_0-target.png,250,4.388999999999999,6,3380,241,meters,jsons/v1_VE250_randls_53_rotated.json,731145,1073553,32,Man
50,852736,DepthScenes,duration_manipulation_targetAtFixation,jsons/v1_VE250_randls_53_rotated.json,http://54.235.29.9/FacialAge/BNav_EC2/DepthDuration/v2_depth_duration_MTurk/v2_DepthDuration_HTML.html#47,47,1536,746,1536,864,8-20-2022,10-28-45,51,depth_duration_stimuli/000436_2014-06-09_22-25-11_260595134347_rgbf000137-resize_1/000436_2014-06-09_22-25-11_260595134347_rgbf000137-resize_1-target.png,250,4.0705,8,2314,231,meters,jsons/v1_VE250_randls_53_rotated.json,731145,1073553,32,Man
51,852736,DepthScenes,duration_manipulation_targetAtFixation,jsons/v1_VE250_randls_53_rotated.json,http://54.235.29.9/FacialAge/BNav_EC2/DepthDuration/v2_depth_duration_MTurk/v2_DepthDuration_HTML.html#47,47,1536,746,1536,864,8-20-2022,10-28-45,52,depth_duration_stimuli/002209_2014-06-28_18-36-10_260595134347_rgbf000051-resize_1/002209_2014-06-28_18-36-10_260595134347_rgbf000051-resize_1-target.png,250,2.057,5,2221,253,meters,jsons/v1_VE250_randls_53_rotated.json,731145,1073553,32,Man
52,852736,DepthScenes,duration_manipulation_targetAtFixation,jsons/v1_VE250_randls_53_rotated.json,http://54.235.29.9/FacialAge/BNav_EC2/DepthDuration/v2_depth_duration_MTurk/v2_DepthDuration_HTML.html#47,47,1536,746,1536,864,8-20-2022,10-28-45,53,depth_duration_stimuli/002763_2014-06-22_19-13-10_094959634447_rgbf000075-resize_4/002763_2014-06-22_19-13-10_094959634447_rgbf000075-resize_4-target.png,250,1.68375,5,2257,244,meters,jsons/v1_VE250_randls_53_rotated.json,731145,1073553,32,Man
53,852736,DepthScenes,duration_manipulation_targetAtFixation,jsons/v1_VE250_randls_53_rotated.json,http://54.235.29.9/FacialAge/BNav_EC2/DepthDuration/v2_depth_duration_MTurk/v2_DepthDuration_HTML.html#47,47,1536,746,1536,864,8-20-2022,10-28-45,54,depth_duration_stimuli/000103_2014-05-14_22-01-17_260595134347_rgbf000152-resize_5/000103_2014-05-14_22-01-17_260595134347_rgbf000152-resize_5-target.png,250,1.993,8,2922,246,meters,jsons/v1_VE250_randls_53_rotated.json,731145,1073553,32,Man
54,852736,DepthScenes,duration_manipulation_targetAtFixation,jsons/v1_VE250_randls_53_rotated.json,http://54.235.29.9/FacialAge/BNav_EC2/DepthDuration/v2_depth_duration_MTurk/v2_DepthDuration_HTML.html#47,47,1536,746,1536,864,8-20-2022,10-28-45,55,depth_duration_stimuli/001555_2014-06-20_17-12-10_260595134347_rgbf000065-resize_4/001555_2014-06-20_17-12-10_260595134347_rgbf000065-resize_4-target.png,250,1.633,4,2330,244,meters,jsons/v1_VE250_randls_53_rotated.json,731145,1073553,32,Man
55,852736,DepthScenes,duration_manipulation_targetAtFixation,jsons/v1_VE250_randls_53_rotated.json,http://54.235.29.9/FacialAge/BNav_EC2/DepthDuration/v2_depth_duration_MTurk/v2_DepthDuration_HTML.html#47,47,1536,746,1536,864,8-20-2022,10-28-45,56,depth_duration_stimuli/002678_2014-06-13_16-15-32_094959634447_rgbf000151-resize_6/002678_2014-06-13_16-15-32_094959634447_rgbf000151-resize_6-target.png,250,2.1830000000000003,9,3178,252,meters,jsons/v1_VE250_randls_53_rotated.json,731145,1073553,32,Man
56,852736,DepthScenes,duration_manipulation_targetAtFixation,jsons/v1_VE250_randls_53_rotated.json,http://54.235.29.9/FacialAge/BNav_EC2/DepthDuration/v2_depth_duration_MTurk/v2_DepthDuration_HTML.html#47,47,1536,746,1536,864,8-20-2022,10-28-45,57,depth_duration_stimuli/000368_2014-06-09_15-53-01_260595134347_rgbf000155-resize_2/000368_2014-06-09_15-53-01_260595134347_rgbf000155-resize_2-target.png,250,2.4859999999999998,4,2162,236,meters,jsons/v1_VE250_randls_53_rotated.json,731145,1073553,32,Man
57,852736,DepthScenes,duration_manipulation_targetAtFixation,jsons/v1_VE250_randls_53_rotated.json,http://54.235.29.9/FacialAge/BNav_EC2/DepthDuration/v2_depth_duration_MTurk/v2_DepthDuration_HTML.html#47,47,1536,746,1536,864,8-20-2022,10-28-45,58,depth_duration_stimuli/001447_2014-06-19_17-00-32_260595134347_rgbf000082-resize_5/001447_2014-06-19_17-00-32_260595134347_rgbf000082-resize_5-target.png,250,4.13775,7,2694,257,meters,jsons/v1_VE250_randls_53_rotated.json,731145,1073553,32,Man
58,852736,DepthScenes,duration_manipulation_targetAtFixation,jsons/v1_VE250_randls_53_rotated.json,http://54.235.29.9/FacialAge/BNav_EC2/DepthDuration/v2_depth_duration_MTurk/v2_DepthDuration_HTML.html#47,47,1536,746,1536,864,8-20-2022,10-28-45,59,depth_duration_stimuli/000447_2014-06-08_16-15-46_260595134347_rgbf000130-resize_1/000447_2014-06-08_16-15-46_260595134347_rgbf000130-resize_1-target.png,250,4.479,8,2202,263,meters,jsons/v1_VE250_randls_53_rotated.json,731145,1073553,32,Man
59,852736,DepthScenes,duration_manipulation_targetAtFixation,jsons/v1_VE250_randls_53_rotated.json,http://54.235.29.9/FacialAge/BNav_EC2/DepthDuration/v2_depth_duration_MTurk/v2_DepthDuration_HTML.html#47,47,1536,746,1536,864,8-20-2022,10-28-45,60,depth_duration_stimuli/003079_2014-06-15_15-18-20_094959634447_rgbf000152-resize_8/003079_2014-06-15_15-18-20_094959634447_rgbf000152-resize_8-target.png,250,2.8775,10,2343,254,meters,jsons/v1_VE250_randls_53_rotated.json,731145,1073553,32,Man
60,852736,DepthScenes,duration_manipulation_targetAtFixation,jsons/v1_VE250_randls_53_rotated.json,http://54.235.29.9/FacialAge/BNav_EC2/DepthDuration/v2_depth_duration_MTurk/v2_DepthDuration_HTML.html#47,47,1536,746,1536,864,8-20-2022,10-28-45,61,depth_duration_stimuli/000506_2014-06-08_23-21-00_260595134347_rgbf000070-resize_7/000506_2014-06-08_23-21-00_260595134347_rgbf000070-resize_7-target.png,250,4.0585,9,2223,244,meters,jsons/v1_VE250_randls_53_rotated.json,731145,1073553,32,Man
61,852736,DepthScenes,duration_manipulation_targetAtFixation,jsons/v1_VE250_randls_53_rotated.json,http://54.235.29.9/FacialAge/BNav_EC2/DepthDuration/v2_depth_duration_MTurk/v2_DepthDuration_HTML.html#47,47,1536,746,1536,864,8-20-2022,10-28-45,62,depth_duration_stimuli/002340_2014-06-28_20-05-46_260595134347_rgbf000113-resize_0/002340_2014-06-28_20-05-46_260595134347_rgbf000113-resize_0-target.png,250,2.4735,10,2480,240,meters,jsons/v1_VE250_randls_53_rotated.json,731145,1073553,32,Man
62,852736,DepthScenes,duration_manipulation_targetAtFixation,jsons/v1_VE250_randls_53_rotated.json,http://54.235.29.9/FacialAge/BNav_EC2/DepthDuration/v2_depth_duration_MTurk/v2_DepthDuration_HTML.html#47,47,1536,746,1536,864,8-20-2022,10-28-45,63,depth_duration_stimuli/001016_2014-06-09_16-16-10_260595134347_rgbf000112-resize_5/001016_2014-06-09_16-16-10_260595134347_rgbf000112-resize_5-target.png,250,1.6565,7,3057,240,meters,jsons/v1_VE250_randls_53_rotated.json,731145,1073553,32,Man
63,852736,DepthScenes,duration_manipulation_targetAtFixation,jsons/v1_VE250_randls_53_rotated.json,http://54.235.29.9/FacialAge/BNav_EC2/DepthDuration/v2_depth_duration_MTurk/v2_DepthDuration_HTML.html#47,47,1536,746,1536,864,8-20-2022,10-28-45,64,depth_duration_stimuli/000734_2014-06-08_17-39-11_260595134347_rgbf000128-resize_2/000734_2014-06-08_17-39-11_260595134347_rgbf000128-resize_2-target.png,250,4.098,8,2125,239,meters,jsons/v1_VE250_randls_53_rotated.json,731145,1073553,32,Man
64,852736,DepthScenes,duration_manipulation_targetAtFixation,jsons/v1_VE250_randls_53_rotated.json,http://54.235.29.9/FacialAge/BNav_EC2/DepthDuration/v2_depth_duration_MTurk/v2_DepthDuration_HTML.html#47,47,1536,746,1536,864,8-20-2022,10-28-45,65,depth_duration_stimuli/000739_2014-06-08_18-45-58_260595134347_rgbf000068-resize_1/000739_2014-06-08_18-45-58_260595134347_rgbf000068-resize_1-target.png,250,3.534,8,2382,259,meters,jsons/v1_VE250_randls_53_rotated.json,731145,1073553,32,Man
65,852736,DepthScenes,duration_manipulation_targetAtFixation,jsons/v1_VE250_randls_53_rotated.json,http://54.235.29.9/FacialAge/BNav_EC2/DepthDuration/v2_depth_duration_MTurk/v2_DepthDuration_HTML.html#47,47,1536,746,1536,864,8-20-2022,10-28-45,66,depth_duration_stimuli/001540_2014-06-20_17-01-05_260595134347_rgbf000086-resize_2/001540_2014-06-20_17-01-05_260595134347_rgbf000086-resize-original.jpg,250,1.459,0,2359,259,meters,jsons/v1_VE250_randls_53_rotated.json,731145,1073553,32,Man
66,852736,DepthScenes,duration_manipulation_targetAtFixation,jsons/v1_VE250_randls_53_rotated.json,http://54.235.29.9/FacialAge/BNav_EC2/DepthDuration/v2_depth_duration_MTurk/v2_DepthDuration_HTML.html#47,47,1536,746,1536,864,8-20-2022,10-28-45,67,depth_duration_stimuli/000502_2014-06-08_23-02-32_260595134347_rgbf000063-resize_4/000502_2014-06-08_23-02-32_260595134347_rgbf000063-resize_4-target.png,250,2.431,5,2691,251,meters,jsons/v1_VE250_randls_53_rotated.json,731145,1073553,32,Man
67,852736,DepthScenes,duration_manipulation_targetAtFixation,jsons/v1_VE250_randls_53_rotated.json,http://54.235.29.9/FacialAge/BNav_EC2/DepthDuration/v2_depth_duration_MTurk/v2_DepthDuration_HTML.html#47,47,1536,746,1536,864,8-20-2022,10-28-45,68,depth_duration_stimuli/001199_2014-06-17_16-03-48_260595134347_rgbf000077-resize_0/001199_2014-06-17_16-03-48_260595134347_rgbf000077-resize_0-target.png,250,3.4375,8,2283,243,meters,jsons/v1_VE250_randls_53_rotated.json,731145,1073553,32,Man
68,852736,DepthScenes,duration_manipulation_targetAtFixation,jsons/v1_VE250_randls_53_rotated.json,http://54.235.29.9/FacialAge/BNav_EC2/DepthDuration/v2_depth_duration_MTurk/v2_DepthDuration_HTML.html#47,47,1536,746,1536,864,8-20-2022,10-28-45,69,depth_duration_stimuli/000749_2014-06-08_21-55-06_260595134347_rgbf000070-resize_2/000749_2014-06-08_21-55-06_260595134347_rgbf000070-resize_2-target.png,250,2.331,7,21515,248,meters,jsons/v1_VE250_randls_53_rotated.json,731145,1073553,32,Man
69,852736,DepthScenes,duration_manipulation_targetAtFixation,jsons/v1_VE250_randls_53_rotated.json,http://54.235.29.9/FacialAge/BNav_EC2/DepthDuration/v2_depth_duration_MTurk/v2_DepthDuration_HTML.html#47,47,1536,746,1536,864,8-20-2022,10-28-45,70,depth_duration_stimuli/002788_2014-06-22_19-36-03_094959634447_rgbf000088-resize_2/002788_2014-06-22_19-36-03_094959634447_rgbf000088-resize_2-target.png,250,1.6465,8,2322,243,meters,jsons/v1_VE250_randls_53_rotated.json,731145,1073553,32,Man
70,852736,DepthScenes,duration_manipulation_targetAtFixation,jsons/v1_VE250_randls_53_rotated.json,http://54.235.29.9/FacialAge/BNav_EC2/DepthDuration/v2_depth_duration_MTurk/v2_DepthDuration_HTML.html#47,47,1536,746,1536,864,8-20-2022,10-28-45,71,depth_duration_stimuli/002995_2014-06-15_12-31-26_094959634447_rgbf000150-resize_1/002995_2014-06-15_12-31-26_094959634447_rgbf000150-resize_1-target.png,250,3.8360000000000003,9,6504,264,meters,jsons/v1_VE250_randls_53_rotated.json,731145,1073553,32,Man
71,852736,DepthScenes,duration_manipulation_targetAtFixation,jsons/v1_VE250_randls_53_rotated.json,http://54.235.29.9/FacialAge/BNav_EC2/DepthDuration/v2_depth_duration_MTurk/v2_DepthDuration_HTML.html#47,47,1536,746,1536,864,8-20-2022,10-28-45,72,depth_duration_stimuli/002748_2014-06-22_19-07-22_094959634447_rgbf000078-resize_1/002748_2014-06-22_19-07-22_094959634447_rgbf000078-resize_1-target.png,250,4.6705,10,2513,244,meters,jsons/v1_VE250_randls_53_rotated.json,731145,1073553,32,Man
72,852736,DepthScenes,duration_manipulation_targetAtFixation,jsons/v1_VE250_randls_53_rotated.json,http://54.235.29.9/FacialAge/BNav_EC2/DepthDuration/v2_depth_duration_MTurk/v2_DepthDuration_HTML.html#47,47,1536,746,1536,864,8-20-2022,10-28-45,73,depth_duration_stimuli/000709_2014-06-08_13-51-55_260595134347_rgbf000068-resize_3/000709_2014-06-08_13-51-55_260595134347_rgbf000068-resize_3-target.png,250,1.8030000000000002,8,2416,260,meters,jsons/v1_VE250_randls_53_rotated.json,731145,1073553,32,Man
73,852736,DepthScenes,duration_manipulation_targetAtFixation,jsons/v1_VE250_randls_53_rotated.json,http://54.235.29.9/FacialAge/BNav_EC2/DepthDuration/v2_depth_duration_MTurk/v2_DepthDuration_HTML.html#47,47,1536,746,1536,864,8-20-2022,10-28-45,74,depth_duration_stimuli/002057_2014-06-24_21-00-13_260595134347_rgbf000120-resize_1/002057_2014-06-24_21-00-13_260595134347_rgbf000120-resize_1-target.png,250,2.967,9,2955,235,meters,jsons/v1_VE250_randls_53_rotated.json,731145,1073553,32,Man
74,852736,DepthScenes,duration_manipulation_targetAtFixation,jsons/v1_VE250_randls_53_rotated.json,http://54.235.29.9/FacialAge/BNav_EC2/DepthDuration/v2_depth_duration_MTurk/v2_DepthDuration_HTML.html#47,47,1536,746,1536,864,8-20-2022,10-28-45,75,depth_duration_stimuli/000742_2014-06-08_18-48-09_260595134347_rgbf000164-resize_4/000742_2014-06-08_18-48-09_260595134347_rgbf000164-resize_4-target.png,250,4.632,10,2513,254,meters,jsons/v1_VE250_randls_53_rotated.json,731145,1073553,32,Man
75,852736,DepthScenes,duration_manipulation_targetAtFixation,jsons/v1_VE250_randls_53_rotated.json,http://54.235.29.9/FacialAge/BNav_EC2/DepthDuration/v2_depth_duration_MTurk/v2_DepthDuration_HTML.html#47,47,1536,746,1536,864,8-20-2022,10-28-45,76,depth_duration_stimuli/001066_2014-06-08_22-03-20_260595134347_rgbf000066-resize_4/001066_2014-06-08_22-03-20_260595134347_rgbf000066-resize_4-target.png,250,4.2330000000000005,11,2528,243,meters,jsons/v1_VE250_randls_53_rotated.json,731145,1073553,32,Man
76,852736,DepthScenes,duration_manipulation_targetAtFixation,jsons/v1_VE250_randls_53_rotated.json,http://54.235.29.9/FacialAge/BNav_EC2/DepthDuration/v2_depth_duration_MTurk/v2_DepthDuration_HTML.html#47,47,1536,746,1536,864,8-20-2022,10-28-45,77,depth_duration_stimuli/001516_2014-06-20_16-25-09_260595134347_rgbf000076-resize_2/001516_2014-06-20_16-25-09_260595134347_rgbf000076-resize_2-target.png,250,1.7445,9,2335,249,meters,jsons/v1_VE250_randls_53_rotated.json,731145,1073553,32,Man
77,852736,DepthScenes,duration_manipulation_targetAtFixation,jsons/v1_VE250_randls_53_rotated.json,http://54.235.29.9/FacialAge/BNav_EC2/DepthDuration/v2_depth_duration_MTurk/v2_DepthDuration_HTML.html#47,47,1536,746,1536,864,8-20-2022,10-28-45,78,depth_duration_stimuli/002118_2014-06-25_20-32-08_260595134347_rgbf000078-resize_1/002118_2014-06-25_20-32-08_260595134347_rgbf000078-resize_1-target.png,250,2.6460000000000004,5,2297,262,meters,jsons/v1_VE250_randls_53_rotated.json,731145,1073553,32,Man
78,852736,DepthScenes,duration_manipulation_targetAtFixation,jsons/v1_VE250_randls_53_rotated.json,http://54.235.29.9/FacialAge/BNav_EC2/DepthDuration/v2_depth_duration_MTurk/v2_DepthDuration_HTML.html#47,47,1536,746,1536,864,8-20-2022,10-28-45,79,depth_duration_stimuli/002657_2014-06-13_15-29-54_094959634447_rgbf000150-resize_1/002657_2014-06-13_15-29-54_094959634447_rgbf000150-resize_1-target.png,250,4.919,9,2677,240,meters,jsons/v1_VE250_randls_53_rotated.json,731145,1073553,32,Man
79,852736,DepthScenes,duration_manipulation_targetAtFixation,jsons/v1_VE250_randls_53_rotated.json,http://54.235.29.9/FacialAge/BNav_EC2/DepthDuration/v2_depth_duration_MTurk/v2_DepthDuration_HTML.html#47,47,1536,746,1536,864,8-20-2022,10-28-45,80,depth_duration_stimuli/002375_2014-06-28_20-13-44_260595134347_rgbf000032-resize_1/002375_2014-06-28_20-13-44_260595134347_rgbf000032-resize_1-target.png,250,4.0175,8,2166,260,meters,jsons/v1_VE250_randls_53_rotated.json,731145,1073553,32,Man
80,852736,DepthScenes,duration_manipulation_targetAtFixation,jsons/v1_VE250_randls_53_rotated.json,http://54.235.29.9/FacialAge/BNav_EC2/DepthDuration/v2_depth_duration_MTurk/v2_DepthDuration_HTML.html#47,47,1536,746,1536,864,8-20-2022,10-28-45,81,depth_duration_stimuli/000109_2014-05-14_23-41-52_260595134347_rgbf000035-resize_9/000109_2014-05-14_23-41-52_260595134347_rgbf000035-resize_9-target.png,250,1.3545,5,3210,252,meters,jsons/v1_VE250_randls_53_rotated.json,731145,1073553,32,Man
81,852736,DepthScenes,duration_manipulation_targetAtFixation,jsons/v1_VE250_randls_53_rotated.json,http://54.235.29.9/FacialAge/BNav_EC2/DepthDuration/v2_depth_duration_MTurk/v2_DepthDuration_HTML.html#47,47,1536,746,1536,864,8-20-2022,10-28-45,82,depth_duration_stimuli/000470_2014-06-09_19-42-40_260595134347_rgbf000094-resize_1/000470_2014-06-09_19-42-40_260595134347_rgbf000094-resize_1-target.png,250,1.831,4,2292,240,meters,jsons/v1_VE250_randls_53_rotated.json,731145,1073553,32,Man
82,852736,DepthScenes,duration_manipulation_targetAtFixation,jsons/v1_VE250_randls_53_rotated.json,http://54.235.29.9/FacialAge/BNav_EC2/DepthDuration/v2_depth_duration_MTurk/v2_DepthDuration_HTML.html#47,47,1536,746,1536,864,8-20-2022,10-28-45,83,depth_duration_stimuli/001571_2014-06-20_17-21-32_260595134347_rgbf000089-resize_1/001571_2014-06-20_17-21-32_260595134347_rgbf000089-resize_1-target.png,250,1.86,5,2093,256,meters,jsons/v1_VE250_randls_53_rotated.json,731145,1073553,32,Man
83,852736,DepthScenes,duration_manipulation_targetAtFixation,jsons/v1_VE250_randls_53_rotated.json,http://54.235.29.9/FacialAge/BNav_EC2/DepthDuration/v2_depth_duration_MTurk/v2_DepthDuration_HTML.html#47,47,1536,746,1536,864,8-20-2022,10-28-45,84,depth_duration_stimuli/002272_2014-06-28_18-53-56_260595134347_rgbf000067-resize_2/002272_2014-06-28_18-53-56_260595134347_rgbf000067-resize_2-target.png,250,1.138,4,2195,252,meters,jsons/v1_VE250_randls_53_rotated.json,731145,1073553,32,Man
84,852736,DepthScenes,duration_manipulation_targetAtFixation,jsons/v1_VE250_randls_53_rotated.json,http://54.235.29.9/FacialAge/BNav_EC2/DepthDuration/v2_depth_duration_MTurk/v2_DepthDuration_HTML.html#47,47,1536,746,1536,864,8-20-2022,10-28-45,85,depth_duration_stimuli/000556_2014-06-09_22-42-56_260595134347_rgbf000214-resize_1/000556_2014-06-09_22-42-56_260595134347_rgbf000214-resize_1-target.png,250,4.8415,7,2923,249,meters,jsons/v1_VE250_randls_53_rotated.json,731145,1073553,32,Man
85,852736,DepthScenes,duration_manipulation_targetAtFixation,jsons/v1_VE250_randls_53_rotated.json,http://54.235.29.9/FacialAge/BNav_EC2/DepthDuration/v2_depth_duration_MTurk/v2_DepthDuration_HTML.html#47,47,1536,746,1536,864,8-20-2022,10-28-45,86,depth_duration_stimuli/001158_2014-06-17_15-32-16_260595134347_rgbf000138-resize_2/001158_2014-06-17_15-32-16_260595134347_rgbf000138-resize_2-target.png,250,4.5315,12,3051,227,meters,jsons/v1_VE250_randls_53_rotated.json,731145,1073553,32,Man
86,852736,DepthScenes,duration_manipulation_targetAtFixation,jsons/v1_VE250_randls_53_rotated.json,http://54.235.29.9/FacialAge/BNav_EC2/DepthDuration/v2_depth_duration_MTurk/v2_DepthDuration_HTML.html#47,47,1536,746,1536,864,8-20-2022,10-28-45,87,depth_duration_stimuli/001100_2014-06-15_17-46-26_260595134347_rgbf000225-resize_2/001100_2014-06-15_17-46-26_260595134347_rgbf000225-resize_2-target.png,250,2.24,4,2206,257,meters,jsons/v1_VE250_randls_53_rotated.json,731145,1073553,32,Man
87,852736,DepthScenes,duration_manipulation_targetAtFixation,jsons/v1_VE250_randls_53_rotated.json,http://54.235.29.9/FacialAge/BNav_EC2/DepthDuration/v2_depth_duration_MTurk/v2_DepthDuration_HTML.html#47,47,1536,746,1536,864,8-20-2022,10-28-45,88,depth_duration_stimuli/002784_2014-06-22_19-26-30_094959634447_rgbf000083-resize_3/002784_2014-06-22_19-26-30_094959634447_rgbf000083-resize_3-target.png,250,1.8046666666667,4,2361,259,meters,jsons/v1_VE250_randls_53_rotated.json,731145,1073553,32,Man
88,852736,DepthScenes,duration_manipulation_targetAtFixation,jsons/v1_VE250_randls_53_rotated.json,http://54.235.29.9/FacialAge/BNav_EC2/DepthDuration/v2_depth_duration_MTurk/v2_DepthDuration_HTML.html#47,47,1536,746,1536,864,8-20-2022,10-28-45,89,depth_duration_stimuli/000854_2014-06-09_19-43-13_260595134347_rgbf000066-resize_0/000854_2014-06-09_19-43-13_260595134347_rgbf000066-resize_0-target.png,250,3.068,5,2298,260,meters,jsons/v1_VE250_randls_53_rotated.json,731145,1073553,32,Man
89,852736,DepthScenes,duration_manipulation_targetAtFixation,jsons/v1_VE250_randls_53_rotated.json,http://54.235.29.9/FacialAge/BNav_EC2/DepthDuration/v2_depth_duration_MTurk/v2_DepthDuration_HTML.html#47,47,1536,746,1536,864,8-20-2022,10-28-45,90,depth_duration_stimuli/000758_2014-06-08_22-05-08_260595134347_rgbf000085-resize_0/000758_2014-06-08_22-05-08_260595134347_rgbf000085-resize_0-target.png,250,3.3810000000000002,9,3668,261,meters,jsons/v1_VE250_randls_53_rotated.json,731145,1073553,32,Man
90,852736,DepthScenes,duration_manipulation_targetAtFixation,jsons/v1_VE250_randls_53_rotated.json,http://54.235.29.9/FacialAge/BNav_EC2/DepthDuration/v2_depth_duration_MTurk/v2_DepthDuration_HTML.html#47,47,1536,746,1536,864,8-20-2022,10-28-45,91,depth_duration_stimuli/001584_2014-06-20_11-07-43_260595134347_rgbf000002-resize_1/001584_2014-06-20_11-07-43_260595134347_rgbf000002-resize_1-target.png,250,3.53,9,2448,252,meters,jsons/v1_VE250_randls_53_rotated.json,731145,1073553,32,Man
91,852736,DepthScenes,duration_manipulation_targetAtFixation,jsons/v1_VE250_randls_53_rotated.json,http://54.235.29.9/FacialAge/BNav_EC2/DepthDuration/v2_depth_duration_MTurk/v2_DepthDuration_HTML.html#47,47,1536,746,1536,864,8-20-2022,10-28-45,92,depth_duration_stimuli/003621_2014-05-23_18-06-08_094959634447_rgbf000101-resize_1/003621_2014-05-23_18-06-08_094959634447_rgbf000101-resize_1-target.png,250,3.9835,9,5168,244,meters,jsons/v1_VE250_randls_53_rotated.json,731145,1073553,32,Man
92,852736,DepthScenes,duration_manipulation_targetAtFixation,jsons/v1_VE250_randls_53_rotated.json,http://54.235.29.9/FacialAge/BNav_EC2/DepthDuration/v2_depth_duration_MTurk/v2_DepthDuration_HTML.html#47,47,1536,746,1536,864,8-20-2022,10-28-45,93,depth_duration_stimuli/002467_2014-06-28_20-38-07_260595134347_rgbf000026-resize_2/002467_2014-06-28_20-38-07_260595134347_rgbf000026-resize_2-target.png,250,4.742,8,2435,243,meters,jsons/v1_VE250_randls_53_rotated.json,731145,1073553,32,Man
93,852736,DepthScenes,duration_manipulation_targetAtFixation,jsons/v1_VE250_randls_53_rotated.json,http://54.235.29.9/FacialAge/BNav_EC2/DepthDuration/v2_depth_duration_MTurk/v2_DepthDuration_HTML.html#47,47,1536,746,1536,864,8-20-2022,10-28-45,94,depth_duration_stimuli/002570_2014-06-24_13-59-54_094959634447_rgbf000059-resize_0/002570_2014-06-24_13-59-54_094959634447_rgbf000059-resize_0-target.png,250,4.037,8,2522,264,meters,jsons/v1_VE250_randls_53_rotated.json,731145,1073553,32,Man
94,852736,DepthScenes,duration_manipulation_targetAtFixation,jsons/v1_VE250_randls_53_rotated.json,http://54.235.29.9/FacialAge/BNav_EC2/DepthDuration/v2_depth_duration_MTurk/v2_DepthDuration_HTML.html#47,47,1536,746,1536,864,8-20-2022,10-28-45,95,depth_duration_stimuli/001450_2014-06-19_17-02-03_260595134347_rgbf000203-resize_4/001450_2014-06-19_17-02-03_260595134347_rgbf000203-resize_4-target.png,250,4.0106666666667,8,50614,254,meters,jsons/v1_VE250_randls_53_rotated.json,731145,1073553,32,Man
95,852736,DepthScenes,duration_manipulation_targetAtFixation,jsons/v1_VE250_randls_53_rotated.json,http://54.235.29.9/FacialAge/BNav_EC2/DepthDuration/v2_depth_duration_MTurk/v2_DepthDuration_HTML.html#47,47,1536,746,1536,864,8-20-2022,10-28-45,96,depth_duration_stimuli/001449_2014-06-19_17-01-27_260595134347_rgbf000116-resize_2/001449_2014-06-19_17-01-27_260595134347_rgbf000116-resize_2-target.png,250,3.452,8,2784,248,meters,jsons/v1_VE250_randls_53_rotated.json,731145,1073553,32,Man
96,852736,DepthScenes,duration_manipulation_targetAtFixation,jsons/v1_VE250_randls_53_rotated.json,http://54.235.29.9/FacialAge/BNav_EC2/DepthDuration/v2_depth_duration_MTurk/v2_DepthDuration_HTML.html#47,47,1536,746,1536,864,8-20-2022,10-28-45,97,depth_duration_stimuli/002136_2014-06-25_21-18-03_260595134347_rgbf000109-resize_3/002136_2014-06-25_21-18-03_260595134347_rgbf000109-resize_3-target.png,250,1.9569999999999999,7,4719,260,meters,jsons/v1_VE250_randls_53_rotated.json,731145,1073553,32,Man
97,852736,DepthScenes,duration_manipulation_targetAtFixation,jsons/v1_VE250_randls_53_rotated.json,http://54.235.29.9/FacialAge/BNav_EC2/DepthDuration/v2_depth_duration_MTurk/v2_DepthDuration_HTML.html#47,47,1536,746,1536,864,8-20-2022,10-28-45,98,depth_duration_stimuli/002964_2014-06-08_17-46-11_094959634447_rgbf000091-resize_4/002964_2014-06-08_17-46-11_094959634447_rgbf000091-resize_4-target.png,250,1.6909999999999998,5,2406,250,meters,jsons/v1_VE250_randls_53_rotated.json,731145,1073553,32,Man
98,852736,DepthScenes,duration_manipulation_targetAtFixation,jsons/v1_VE250_randls_53_rotated.json,http://54.235.29.9/FacialAge/BNav_EC2/DepthDuration/v2_depth_duration_MTurk/v2_DepthDuration_HTML.html#47,47,1536,746,1536,864,8-20-2022,10-28-45,99,depth_duration_stimuli/001222_2014-06-17_16-24-06_260595134347_rgbf000073-resize_0/001222_2014-06-17_16-24-06_260595134347_rgbf000073-resize-original.jpg,250,1.4385,0,2326,257,meters,jsons/v1_VE250_randls_53_rotated.json,731145,1073553,32,Man
99,852736,DepthScenes,duration_manipulation_targetAtFixation,jsons/v1_VE250_randls_53_rotated.json,http://54.235.29.9/FacialAge/BNav_EC2/DepthDuration/v2_depth_duration_MTurk/v2_DepthDuration_HTML.html#47,47,1536,746,1536,864,8-20-2022,10-28-45,100,depth_duration_stimuli/000780_2014-06-08_22-28-29_260595134347_rgbf000126-resize_1/000780_2014-06-08_22-28-29_260595134347_rgbf000126-resize_1-target.png,250,3.3825,8,2765,253,meters,jsons/v1_VE250_randls_53_rotated.json,731145,1073553,32,Man
100,852736,DepthScenes,duration_manipulation_targetAtFixation,jsons/v1_VE250_randls_53_rotated.json,http://54.235.29.9/FacialAge/BNav_EC2/DepthDuration/v2_depth_duration_MTurk/v2_DepthDuration_HTML.html#47,47,1536,746,1536,864,8-20-2022,10-28-45,101,depth_duration_stimuli/002445_2014-06-28_20-32-16_260595134347_rgbf000029-resize_4/002445_2014-06-28_20-32-16_260595134347_rgbf000029-resize_4-target.png,250,2.5315,6,3921,235,meters,jsons/v1_VE250_randls_53_rotated.json,731145,1073553,32,Man
101,852736,DepthScenes,duration_manipulation_targetAtFixation,jsons/v1_VE250_randls_53_rotated.json,http://54.235.29.9/FacialAge/BNav_EC2/DepthDuration/v2_depth_duration_MTurk/v2_DepthDuration_HTML.html#47,47,1536,746,1536,864,8-20-2022,10-28-45,102,depth_duration_stimuli/002344_2014-06-28_20-06-29_260595134347_rgbf000030-resize_1/002344_2014-06-28_20-06-29_260595134347_rgbf000030-resize_1-target.png,250,1.5795,4,2245,261,meters,jsons/v1_VE250_randls_53_rotated.json,731145,1073553,32,Man
102,852736,DepthScenes,duration_manipulation_targetAtFixation,jsons/v1_VE250_randls_53_rotated.json,http://54.235.29.9/FacialAge/BNav_EC2/DepthDuration/v2_depth_duration_MTurk/v2_DepthDuration_HTML.html#47,47,1536,746,1536,864,8-20-2022,10-28-45,103,depth_duration_stimuli/002725_2014-06-22_11-47-51_094959634447_rgbf000070-resize_1/002725_2014-06-22_11-47-51_094959634447_rgbf000070-resize_1-target.png,250,2.195,7,3130,258,meters,jsons/v1_VE250_randls_53_rotated.json,731145,1073553,32,Man
103,852736,DepthScenes,duration_manipulation_targetAtFixation,jsons/v1_VE250_randls_53_rotated.json,http://54.235.29.9/FacialAge/BNav_EC2/DepthDuration/v2_depth_duration_MTurk/v2_DepthDuration_HTML.html#47,47,1536,746,1536,864,8-20-2022,10-28-45,104,depth_duration_stimuli/002414_2014-06-28_20-24-58_260595134347_rgbf000067-resize_4/002414_2014-06-28_20-24-58_260595134347_rgbf000067-resize_4-target.png,250,4.363,9,3150,250,meters,jsons/v1_VE250_randls_53_rotated.json,731145,1073553,32,Man
104,852736,DepthScenes,duration_manipulation_targetAtFixation,jsons/v1_VE250_randls_53_rotated.json,http://54.235.29.9/FacialAge/BNav_EC2/DepthDuration/v2_depth_duration_MTurk/v2_DepthDuration_HTML.html#47,47,1536,746,1536,864,8-20-2022,10-28-45,105,depth_duration_stimuli/000773_2014-06-08_22-24-54_260595134347_rgbf000093-resize_1/000773_2014-06-08_22-24-54_260595134347_rgbf000093-resize_1-target.png,250,4.973,10,2426,215,meters,jsons/v1_VE250_randls_53_rotated.json,731145,1073553,32,Man
105,852736,DepthScenes,duration_manipulation_targetAtFixation,jsons/v1_VE250_randls_53_rotated.json,http://54.235.29.9/FacialAge/BNav_EC2/DepthDuration/v2_depth_duration_MTurk/v2_DepthDuration_HTML.html#47,47,1536,746,1536,864,8-20-2022,10-28-45,106,depth_duration_stimuli/002805_2014-06-22_19-54-03_094959634447_rgbf000079-resize_1/002805_2014-06-22_19-54-03_094959634447_rgbf000079-resize_1-target.png,250,3.1439999999999997,10,2835,242,meters,jsons/v1_VE250_randls_53_rotated.json,731145,1073553,32,Man
106,852736,DepthScenes,duration_manipulation_targetAtFixation,jsons/v1_VE250_randls_53_rotated.json,http://54.235.29.9/FacialAge/BNav_EC2/DepthDuration/v2_depth_duration_MTurk/v2_DepthDuration_HTML.html#47,47,1536,746,1536,864,8-20-2022,10-28-45,107,depth_duration_stimuli/000906_2014-06-08_13-35-43_260595134347_rgbf000155-resize_1/000906_2014-06-08_13-35-43_260595134347_rgbf000155-resize_1-target.png,250,2.8489999999999998,10,3109,251,meters,jsons/v1_VE250_randls_53_rotated.json,731145,1073553,32,Man
107,852736,DepthScenes,duration_manipulation_targetAtFixation,jsons/v1_VE250_randls_53_rotated.json,http://54.235.29.9/FacialAge/BNav_EC2/DepthDuration/v2_depth_duration_MTurk/v2_DepthDuration_HTML.html#47,47,1536,746,1536,864,8-20-2022,10-28-45,108,depth_duration_stimuli/000409_2014-06-04_19-23-33_260595134347_rgbf000067-resize_0/000409_2014-06-04_19-23-33_260595134347_rgbf000067-resize_0-target.png,250,3.7335,10,2479,263,meters,jsons/v1_VE250_randls_53_rotated.json,731145,1073553,32,Man
108,852736,DepthScenes,duration_manipulation_targetAtFixation,jsons/v1_VE250_randls_53_rotated.json,http://54.235.29.9/FacialAge/BNav_EC2/DepthDuration/v2_depth_duration_MTurk/v2_DepthDuration_HTML.html#47,47,1536,746,1536,864,8-20-2022,10-28-45,109,depth_duration_stimuli/002663_2014-06-13_15-50-26_094959634447_rgbf000075-resize_1/002663_2014-06-13_15-50-26_094959634447_rgbf000075-resize_1-target.png,250,4.7495,10,2339,260,meters,jsons/v1_VE250_randls_53_rotated.json,731145,1073553,32,Man
109,852736,DepthScenes,duration_manipulation_targetAtFixation,jsons/v1_VE250_randls_53_rotated.json,http://54.235.29.9/FacialAge/BNav_EC2/DepthDuration/v2_depth_duration_MTurk/v2_DepthDuration_HTML.html#47,47,1536,746,1536,864,8-20-2022,10-28-45,110,depth_duration_stimuli/003423_2014-05-21_10-23-26_094959634447_rgbf002665-resize_2/003423_2014-05-21_10-23-26_094959634447_rgbf002665-resize_2-target.png,250,3.2575,11,2267,253,meters,jsons/v1_VE250_randls_53_rotated.json,731145,1073553,32,Man
110,852736,DepthScenes,duration_manipulation_targetAtFixation,jsons/v1_VE250_randls_53_rotated.json,http://54.235.29.9/FacialAge/BNav_EC2/DepthDuration/v2_depth_duration_MTurk/v2_DepthDuration_HTML.html#47,47,1536,746,1536,864,8-20-2022,10-28-45,111,depth_duration_stimuli/002905_2014-06-03_18-04-43_094959634447_rgbf000151-resize_2/002905_2014-06-03_18-04-43_094959634447_rgbf000151-resize_2-target.png,250,2.0295,7,2625,247,meters,jsons/v1_VE250_randls_53_rotated.json,731145,1073553,32,Man
111,852736,DepthScenes,duration_manipulation_targetAtFixation,jsons/v1_VE250_randls_53_rotated.json,http://54.235.29.9/FacialAge/BNav_EC2/DepthDuration/v2_depth_duration_MTurk/v2_DepthDuration_HTML.html#47,47,1536,746,1536,864,8-20-2022,10-28-45,112,depth_duration_stimuli/002639_2014-06-24_14-51-37_094959634447_rgbf000074-resize_4/002639_2014-06-24_14-51-37_094959634447_rgbf000074-resize_4-target.png,250,4.0375,8,29836,247,meters,jsons/v1_VE250_randls_53_rotated.json,731145,1073553,32,Man
112,852736,DepthScenes,duration_manipulation_targetAtFixation,jsons/v1_VE250_randls_53_rotated.json,http://54.235.29.9/FacialAge/BNav_EC2/DepthDuration/v2_depth_duration_MTurk/v2_DepthDuration_HTML.html#47,47,1536,746,1536,864,8-20-2022,10-28-45,113,depth_duration_stimuli/003292_2014-05-14_21-53-49_094959634447_rgbf000100-resize_2/003292_2014-05-14_21-53-49_094959634447_rgbf000100-resize_2-target.png,250,3.4815,10,2706,256,meters,jsons/v1_VE250_randls_53_rotated.json,731145,1073553,32,Man
113,852736,DepthScenes,duration_manipulation_targetAtFixation,jsons/v1_VE250_randls_53_rotated.json,http://54.235.29.9/FacialAge/BNav_EC2/DepthDuration/v2_depth_duration_MTurk/v2_DepthDuration_HTML.html#47,47,1536,746,1536,864,8-20-2022,10-28-45,114,depth_duration_stimuli/000943_2014-06-09_19-31-07_260595134347_rgbf000128-resize_1/000943_2014-06-09_19-31-07_260595134347_rgbf000128-resize_1-target.png,250,1.9765,10,2494,245,meters,jsons/v1_VE250_randls_53_rotated.json,731145,1073553,32,Man
114,852736,DepthScenes,duration_manipulation_targetAtFixation,jsons/v1_VE250_randls_53_rotated.json,http://54.235.29.9/FacialAge/BNav_EC2/DepthDuration/v2_depth_duration_MTurk/v2_DepthDuration_HTML.html#47,47,1536,746,1536,864,8-20-2022,10-28-45,115,depth_duration_stimuli/003070_2014-06-15_14-58-27_094959634447_rgbf000150-resize_3/003070_2014-06-15_14-58-27_094959634447_rgbf000150-resize_3-target.png,250,2.9415,12,2521,248,meters,jsons/v1_VE250_randls_53_rotated.json,731145,1073553,32,Man
115,852736,DepthScenes,duration_manipulation_targetAtFixation,jsons/v1_VE250_randls_53_rotated.json,http://54.235.29.9/FacialAge/BNav_EC2/DepthDuration/v2_depth_duration_MTurk/v2_DepthDuration_HTML.html#47,47,1536,746,1536,864,8-20-2022,10-28-45,116,depth_duration_stimuli/002750_2014-06-22_19-08-03_094959634447_rgbf000094-resize_4/002750_2014-06-22_19-08-03_094959634447_rgbf000094-resize_4-target.png,250,2.354,12,2808,254,meters,jsons/v1_VE250_randls_53_rotated.json,731145,1073553,32,Man
116,852736,DepthScenes,duration_manipulation_targetAtFixation,jsons/v1_VE250_randls_53_rotated.json,http://54.235.29.9/FacialAge/BNav_EC2/DepthDuration/v2_depth_duration_MTurk/v2_DepthDuration_HTML.html#47,47,1536,746,1536,864,8-20-2022,10-28-45,117,depth_duration_stimuli/002549_2014-06-24_13-41-39_094959634447_rgbf000022-resize_3/002549_2014-06-24_13-41-39_094959634447_rgbf000022-resize_3-target.png,250,1.476,8,2235,249,meters,jsons/v1_VE250_randls_53_rotated.json,731145,1073553,32,Man
117,852736,DepthScenes,duration_manipulation_targetAtFixation,jsons/v1_VE250_randls_53_rotated.json,http://54.235.29.9/FacialAge/BNav_EC2/DepthDuration/v2_depth_duration_MTurk/v2_DepthDuration_HTML.html#47,47,1536,746,1536,864,8-20-2022,10-28-45,118,depth_duration_stimuli/003010_2014-06-15_12-54-35_094959634447_rgbf000112-resize_0/003010_2014-06-15_12-54-35_094959634447_rgbf000112-resize_0-target.png,250,3.1185,15,3352,241,meters,jsons/v1_VE250_randls_53_rotated.json,731145,1073553,32,Man
118,852736,DepthScenes,duration_manipulation_targetAtFixation,jsons/v1_VE250_randls_53_rotated.json,http://54.235.29.9/FacialAge/BNav_EC2/DepthDuration/v2_depth_duration_MTurk/v2_DepthDuration_HTML.html#47,47,1536,746,1536,864,8-20-2022,10-28-45,119,depth_duration_stimuli/001810_2014-06-26_20-51-35_260595134347_rgbf000040-resize_3/001810_2014-06-26_20-51-35_260595134347_rgbf000040-resize_3-target.png,250,2.2525,9,3607,257,meters,jsons/v1_VE250_randls_53_rotated.json,731145,1073553,32,Man
119,852736,DepthScenes,duration_manipulation_targetAtFixation,jsons/v1_VE250_randls_53_rotated.json,http://54.235.29.9/FacialAge/BNav_EC2/DepthDuration/v2_depth_duration_MTurk/v2_DepthDuration_HTML.html#47,47,1536,746,1536,864,8-20-2022,10-28-45,120,depth_duration_stimuli/000787_2014-06-08_22-33-53_260595134347_rgbf000175-resize_1/000787_2014-06-08_22-33-53_260595134347_rgbf000175-resize-original.jpg,250,4.784,0,3229,245,meters,jsons/v1_VE250_randls_53_rotated.json,731145,1073553,32,Man
120,852736,DepthScenes,duration_manipulation_targetAtFixation,jsons/v1_VE250_randls_53_rotated.json,http://54.235.29.9/FacialAge/BNav_EC2/DepthDuration/v2_depth_duration_MTurk/v2_DepthDuration_HTML.html#47,47,1536,746,1536,864,8-20-2022,10-28-45,121,depth_duration_stimuli/001392_2014-06-19_16-07-59_260595134347_rgbf000046-resize_1/001392_2014-06-19_16-07-59_260595134347_rgbf000046-resize_1-target.png,250,4.135,10,3683,249,meters,jsons/v1_VE250_randls_53_rotated.json,731145,1073553,32,Man
121,852736,DepthScenes,duration_manipulation_targetAtFixation,jsons/v1_VE250_randls_53_rotated.json,http://54.235.29.9/FacialAge/BNav_EC2/DepthDuration/v2_depth_duration_MTurk/v2_DepthDuration_HTML.html#47,47,1536,746,1536,864,8-20-2022,10-28-45,122,depth_duration_stimuli/001570_2014-06-20_17-21-09_260595134347_rgbf000135-resize_4/001570_2014-06-20_17-21-09_260595134347_rgbf000135-resize_4-target.png,250,4.467,11,2652,260,meters,jsons/v1_VE250_randls_53_rotated.json,731145,1073553,32,Man
122,852736,DepthScenes,duration_manipulation_targetAtFixation,jsons/v1_VE250_randls_53_rotated.json,http://54.235.29.9/FacialAge/BNav_EC2/DepthDuration/v2_depth_duration_MTurk/v2_DepthDuration_HTML.html#47,47,1536,746,1536,864,8-20-2022,10-28-45,123,depth_duration_stimuli/000483_2014-06-09_20-41-45_260595134347_rgbf000116-resize_4/000483_2014-06-09_20-41-45_260595134347_rgbf000116-resize_4-target.png,250,1.337,4,7075,244,meters,jsons/v1_VE250_randls_53_rotated.json,731145,1073553,32,Man
123,852736,DepthScenes,duration_manipulation_targetAtFixation,jsons/v1_VE250_randls_53_rotated.json,http://54.235.29.9/FacialAge/BNav_EC2/DepthDuration/v2_depth_duration_MTurk/v2_DepthDuration_HTML.html#47,47,1536,746,1536,864,8-20-2022,10-28-45,124,depth_duration_stimuli/000469_2014-06-09_19-42-10_260595134347_rgbf000081-resize_1/000469_2014-06-09_19-42-10_260595134347_rgbf000081-resize_1-target.png,250,1.652,4,2778,265,meters,jsons/v1_VE250_randls_53_rotated.json,731145,1073553,32,Man
124,852736,DepthScenes,duration_manipulation_targetAtFixation,jsons/v1_VE250_randls_53_rotated.json,http://54.235.29.9/FacialAge/BNav_EC2/DepthDuration/v2_depth_duration_MTurk/v2_DepthDuration_HTML.html#47,47,1536,746,1536,864,8-20-2022,10-28-45,125,depth_duration_stimuli/000137_2014-05-20_17-04-49_260595134347_rgbf000120-resize_1/000137_2014-05-20_17-04-49_260595134347_rgbf000120-resize_1-target.png,250,3.786,9,4559,250,meters,jsons/v1_VE250_randls_53_rotated.json,731145,1073553,32,Man
125,852736,DepthScenes,duration_manipulation_targetAtFixation,jsons/v1_VE250_randls_53_rotated.json,http://54.235.29.9/FacialAge/BNav_EC2/DepthDuration/v2_depth_duration_MTurk/v2_DepthDuration_HTML.html#47,47,1536,746,1536,864,8-20-2022,10-28-45,126,depth_duration_stimuli/000736_2014-06-08_18-24-15_260595134347_rgbf000206-resize_3/000736_2014-06-08_18-24-15_260595134347_rgbf000206-resize_3-target.png,250,3.515,8,2619,236,meters,jsons/v1_VE250_randls_53_rotated.json,731145,1073553,32,Man
126,852736,DepthScenes,duration_manipulation_targetAtFixation,jsons/v1_VE250_randls_53_rotated.json,http://54.235.29.9/FacialAge/BNav_EC2/DepthDuration/v2_depth_duration_MTurk/v2_DepthDuration_HTML.html#47,47,1536,746,1536,864,8-20-2022,10-28-45,127,depth_duration_stimuli/002568_2014-06-24_13-59-21_094959634447_rgbf000062-resize_4/002568_2014-06-24_13-59-21_094959634447_rgbf000062-resize_4-target.png,250,3.015,9,2296,258,meters,jsons/v1_VE250_randls_53_rotated.json,731145,1073553,32,Man
127,852736,DepthScenes,duration_manipulation_targetAtFixation,jsons/v1_VE250_randls_53_rotated.json,http://54.235.29.9/FacialAge/BNav_EC2/DepthDuration/v2_depth_duration_MTurk/v2_DepthDuration_HTML.html#47,47,1536,746,1536,864,8-20-2022,10-28-45,128,depth_duration_stimuli/003492_2014-05-21_15-50-55_094959634447_rgbf000828-resize_1/003492_2014-05-21_15-50-55_094959634447_rgbf000828-resize_1-target.png,250,4.06875,10,2706,259,meters,jsons/v1_VE250_randls_53_rotated.json,731145,1073553,32,Man
128,852736,DepthScenes,duration_manipulation_targetAtFixation,jsons/v1_VE250_randls_53_rotated.json,http://54.235.29.9/FacialAge/BNav_EC2/DepthDuration/v2_depth_duration_MTurk/v2_DepthDuration_HTML.html#47,47,1536,746,1536,864,8-20-2022,10-28-45,129,depth_duration_stimuli/001235_2014-06-17_16-37-36_260595134347_rgbf000084-resize_4/001235_2014-06-17_16-37-36_260595134347_rgbf000084-resize_4-target.png,250,3.6605,9,2532,246,meters,jsons/v1_VE250_randls_53_rotated.json,731145,1073553,32,Man
129,852736,DepthScenes,duration_manipulation_targetAtFixation,jsons/v1_VE250_randls_53_rotated.json,http://54.235.29.9/FacialAge/BNav_EC2/DepthDuration/v2_depth_duration_MTurk/v2_DepthDuration_HTML.html#47,47,1536,746,1536,864,8-20-2022,10-28-45,130,depth_duration_stimuli/000788_2014-06-08_22-34-36_260595134347_rgbf000131-resize_1/000788_2014-06-08_22-34-36_260595134347_rgbf000131-resize_1-target.png,250,3.359,10,2797,240,meters,jsons/v1_VE250_randls_53_rotated.json,731145,1073553,32,Man
130,852736,DepthScenes,duration_manipulation_targetAtFixation,jsons/v1_VE250_randls_53_rotated.json,http://54.235.29.9/FacialAge/BNav_EC2/DepthDuration/v2_depth_duration_MTurk/v2_DepthDuration_HTML.html#47,47,1536,746,1536,864,8-20-2022,10-28-45,131,depth_duration_stimuli/000866_2014-06-09_20-45-42_260595134347_rgbf000139-resize_1/000866_2014-06-09_20-45-42_260595134347_rgbf000139-resize_1-target.png,250,3.2155,10,2349,253,meters,jsons/v1_VE250_randls_53_rotated.json,731145,1073553,32,Man
131,852736,DepthScenes,duration_manipulation_targetAtFixation,jsons/v1_VE250_randls_53_rotated.json,http://54.235.29.9/FacialAge/BNav_EC2/DepthDuration/v2_depth_duration_MTurk/v2_DepthDuration_HTML.html#47,47,1536,746,1536,864,8-20-2022,10-28-45,132,depth_duration_stimuli/002989_2014-06-15_12-25-03_094959634447_rgbf000150-resize_3/002989_2014-06-15_12-25-03_094959634447_rgbf000150-resize_3-target.png,250,4.1975,11,2215,252,meters,jsons/v1_VE250_randls_53_rotated.json,731145,1073553,32,Man
132,852736,DepthScenes,duration_manipulation_targetAtFixation,jsons/v1_VE250_randls_53_rotated.json,http://54.235.29.9/FacialAge/BNav_EC2/DepthDuration/v2_depth_duration_MTurk/v2_DepthDuration_HTML.html#47,47,1536,746,1536,864,8-20-2022,10-28-45,133,depth_duration_stimuli/002660_2014-06-13_15-44-18_094959634447_rgbf001878-resize_2/002660_2014-06-13_15-44-18_094959634447_rgbf001878-resize_2-target.png,250,3.576,11,2376,250,meters,jsons/v1_VE250_randls_53_rotated.json,731145,1073553,32,Man
133,852736,DepthScenes,duration_manipulation_targetAtFixation,jsons/v1_VE250_randls_53_rotated.json,http://54.235.29.9/FacialAge/BNav_EC2/DepthDuration/v2_depth_duration_MTurk/v2_DepthDuration_HTML.html#47,47,1536,746,1536,864,8-20-2022,10-28-45,134,depth_duration_stimuli/002153_2014-06-25_21-27-18_260595134347_rgbf000038-resize_5/002153_2014-06-25_21-27-18_260595134347_rgbf000038-resize_5-target.png,250,2.505,7,3815,248,meters,jsons/v1_VE250_randls_53_rotated.json,731145,1073553,32,Man
134,852736,DepthScenes,duration_manipulation_targetAtFixation,jsons/v1_VE250_randls_53_rotated.json,http://54.235.29.9/FacialAge/BNav_EC2/DepthDuration/v2_depth_duration_MTurk/v2_DepthDuration_HTML.html#47,47,1536,746,1536,864,8-20-2022,10-28-45,135,depth_duration_stimuli/000375_2014-06-08_11-17-29_260595134347_rgbf000133-resize_2/000375_2014-06-08_11-17-29_260595134347_rgbf000133-resize-original.jpg,250,4.718,0,2844,246,meters,jsons/v1_VE250_randls_53_rotated.json,731145,1073553,32,Man
135,852736,DepthScenes,duration_manipulation_targetAtFixation,jsons/v1_VE250_randls_53_rotated.json,http://54.235.29.9/FacialAge/BNav_EC2/DepthDuration/v2_depth_duration_MTurk/v2_DepthDuration_HTML.html#47,47,1536,746,1536,864,8-20-2022,10-28-45,136,depth_duration_stimuli/003338_2014-05-20_11-01-23_094959634447_rgbf000051-resize_6/003338_2014-05-20_11-01-23_094959634447_rgbf000051-resize_6-target.png,250,1.693,5,2403,264,meters,jsons/v1_VE250_randls_53_rotated.json,731145,1073553,32,Man
136,852736,DepthScenes,duration_manipulation_targetAtFixation,jsons/v1_VE250_randls_53_rotated.json,http://54.235.29.9/FacialAge/BNav_EC2/DepthDuration/v2_depth_duration_MTurk/v2_DepthDuration_HTML.html#47,47,1536,746,1536,864,8-20-2022,10-28-45,137,depth_duration_stimuli/002509_2014-06-24_13-19-22_094959634447_rgbf000077-resize_0/002509_2014-06-24_13-19-22_094959634447_rgbf000077-resize_0-target.png,250,1.3065,4,2160,260,meters,jsons/v1_VE250_randls_53_rotated.json,731145,1073553,32,Man
137,852736,DepthScenes,duration_manipulation_targetAtFixation,jsons/v1_VE250_randls_53_rotated.json,http://54.235.29.9/FacialAge/BNav_EC2/DepthDuration/v2_depth_duration_MTurk/v2_DepthDuration_HTML.html#47,47,1536,746,1536,864,8-20-2022,10-28-45,138,depth_duration_stimuli/003228_2014-05-14_13-42-35_094959634447_rgbf000101-resize_1/003228_2014-05-14_13-42-35_094959634447_rgbf000101-resize_1-target.png,250,1.9680000000000002,4,2198,256,meters,jsons/v1_VE250_randls_53_rotated.json,731145,1073553,32,Man
138,852736,DepthScenes,duration_manipulation_targetAtFixation,jsons/v1_VE250_randls_53_rotated.json,http://54.235.29.9/FacialAge/BNav_EC2/DepthDuration/v2_depth_duration_MTurk/v2_DepthDuration_HTML.html#47,47,1536,746,1536,864,8-20-2022,10-28-45,139,depth_duration_stimuli/002600_2014-06-24_14-27-04_094959634447_rgbf000074-resize_2/002600_2014-06-24_14-27-04_094959634447_rgbf000074-resize_2-target.png,250,2.7575,8,3162,241,meters,jsons/v1_VE250_randls_53_rotated.json,731145,1073553,32,Man
139,852736,DepthScenes,duration_manipulation_targetAtFixation,jsons/v1_VE250_randls_53_rotated.json,http://54.235.29.9/FacialAge/BNav_EC2/DepthDuration/v2_depth_duration_MTurk/v2_DepthDuration_HTML.html#47,47,1536,746,1536,864,8-20-2022,10-28-45,140,depth_duration_stimuli/001032_2014-06-08_13-23-17_260595134347_rgbf000021-resize_3/001032_2014-06-08_13-23-17_260595134347_rgbf000021-resize_3-target.png,250,3.2725,7,2132,250,meters,jsons/v1_VE250_randls_53_rotated.json,731145,1073553,32,Man
140,852736,DepthScenes,duration_manipulation_targetAtFixation,jsons/v1_VE250_randls_53_rotated.json,http://54.235.29.9/FacialAge/BNav_EC2/DepthDuration/v2_depth_duration_MTurk/v2_DepthDuration_HTML.html#47,47,1536,746,1536,864,8-20-2022,10-28-45,141,depth_duration_stimuli/001059_2014-06-08_21-53-27_260595134347_rgbf000061-resize_4/001059_2014-06-08_21-53-27_260595134347_rgbf000061-resize_4-target.png,250,2.4185,8,3389,246,meters,jsons/v1_VE250_randls_53_rotated.json,731145,1073553,32,Man
141,852736,DepthScenes,duration_manipulation_targetAtFixation,jsons/v1_VE250_randls_53_rotated.json,http://54.235.29.9/FacialAge/BNav_EC2/DepthDuration/v2_depth_duration_MTurk/v2_DepthDuration_HTML.html#47,47,1536,746,1536,864,8-20-2022,10-28-45,142,depth_duration_stimuli/001136_2014-06-17_15-19-41_260595134347_rgbf000076-resize_3/001136_2014-06-17_15-19-41_260595134347_rgbf000076-resize_3-target.png,250,1.8655,8,2275,249,meters,jsons/v1_VE250_randls_53_rotated.json,731145,1073553,32,Man
142,852736,DepthScenes,duration_manipulation_targetAtFixation,jsons/v1_VE250_randls_53_rotated.json,http://54.235.29.9/FacialAge/BNav_EC2/DepthDuration/v2_depth_duration_MTurk/v2_DepthDuration_HTML.html#47,47,1536,746,1536,864,8-20-2022,10-28-45,143,depth_duration_stimuli/001164_2014-06-17_15-35-46_260595134347_rgbf000085-resize_3/001164_2014-06-17_15-35-46_260595134347_rgbf000085-resize_3-target.png,250,2.354,10,2337,250,meters,jsons/v1_VE250_randls_53_rotated.json,731145,1073553,32,Man
143,852736,DepthScenes,duration_manipulation_targetAtFixation,jsons/v1_VE250_randls_53_rotated.json,http://54.235.29.9/FacialAge/BNav_EC2/DepthDuration/v2_depth_duration_MTurk/v2_DepthDuration_HTML.html#47,47,1536,746,1536,864,8-20-2022,10-28-45,144,depth_duration_stimuli/003048_2014-06-15_13-49-43_094959634447_rgbf000150-resize_1/003048_2014-06-15_13-49-43_094959634447_rgbf000150-resize_1-target.png,250,4.0035,11,2228,250,meters,jsons/v1_VE250_randls_53_rotated.json,731145,1073553,32,Man
144,852736,DepthScenes,duration_manipulation_targetAtFixation,jsons/v1_VE250_randls_53_rotated.json,http://54.235.29.9/FacialAge/BNav_EC2/DepthDuration/v2_depth_duration_MTurk/v2_DepthDuration_HTML.html#47,47,1536,746,1536,864,8-20-2022,10-28-45,145,depth_duration_stimuli/002043_2014-06-24_20-29-38_260595134347_rgbf000039-resize_4/002043_2014-06-24_20-29-38_260595134347_rgbf000039-resize_4-target.png,250,2.8435,11,2425,244,meters,jsons/v1_VE250_randls_53_rotated.json,731145,1073553,32,Man
145,852736,DepthScenes,duration_manipulation_targetAtFixation,jsons/v1_VE250_randls_53_rotated.json,http://54.235.29.9/FacialAge/BNav_EC2/DepthDuration/v2_depth_duration_MTurk/v2_DepthDuration_HTML.html#47,47,1536,746,1536,864,8-20-2022,10-28-45,146,depth_duration_stimuli/000927_2014-06-09_16-32-30_260595134347_rgbf000123-resize_3/000927_2014-06-09_16-32-30_260595134347_rgbf000123-resize_3-target.png,250,2.6785,11,3080,235,meters,jsons/v1_VE250_randls_53_rotated.json,731145,1073553,32,Man
146,852736,DepthScenes,duration_manipulation_targetAtFixation,jsons/v1_VE250_randls_53_rotated.json,http://54.235.29.9/FacialAge/BNav_EC2/DepthDuration/v2_depth_duration_MTurk/v2_DepthDuration_HTML.html#47,47,1536,746,1536,864,8-20-2022,10-28-45,147,depth_duration_stimuli/001110_2014-06-15_17-25-28_260595134347_rgbf000150-resize_1/001110_2014-06-15_17-25-28_260595134347_rgbf000150-resize_1-target.png,250,1.7115,6,2442,263,meters,jsons/v1_VE250_randls_53_rotated.json,731145,1073553,32,Man
147,852736,DepthScenes,duration_manipulation_targetAtFixation,jsons/v1_VE250_randls_53_rotated.json,http://54.235.29.9/FacialAge/BNav_EC2/DepthDuration/v2_depth_duration_MTurk/v2_DepthDuration_HTML.html#47,47,1536,746,1536,864,8-20-2022,10-28-45,148,depth_duration_stimuli/002875_2014-06-01_15-19-00_094959634447_rgbf000151-resize_1/002875_2014-06-01_15-19-00_094959634447_rgbf000151-resize_1-target.png,250,1.9675,8,2618,249,meters,jsons/v1_VE250_randls_53_rotated.json,731145,1073553,32,Man
148,852736,DepthScenes,duration_manipulation_targetAtFixation,jsons/v1_VE250_randls_53_rotated.json,http://54.235.29.9/FacialAge/BNav_EC2/DepthDuration/v2_depth_duration_MTurk/v2_DepthDuration_HTML.html#47,47,1536,746,1536,864,8-20-2022,10-28-45,149,depth_duration_stimuli/001011_2014-06-08_23-18-54_260595134347_rgbf000044-resize_4/001011_2014-06-08_23-18-54_260595134347_rgbf000044-resize_4-target.png,250,2.4730000000000003,10,2819,240,meters,jsons/v1_VE250_randls_53_rotated.json,731145,1073553,32,Man
149,852736,DepthScenes,duration_manipulation_targetAtFixation,jsons/v1_VE250_randls_53_rotated.json,http://54.235.29.9/FacialAge/BNav_EC2/DepthDuration/v2_depth_duration_MTurk/v2_DepthDuration_HTML.html#47,47,1536,746,1536,864,8-20-2022,10-28-45,150,depth_duration_stimuli/001132_2014-06-17_14-48-54_260595134347_rgbf000100-resize_2/001132_2014-06-17_14-48-54_260595134347_rgbf000100-resize_2-target.png,250,3.753,11,7141,235,meters,jsons/v1_VE250_randls_53_rotated.json,731145,1073553,32,Man
150,852736,DepthScenes,duration_manipulation_targetAtFixation,jsons/v1_VE250_randls_53_rotated.json,http://54.235.29.9/FacialAge/BNav_EC2/DepthDuration/v2_depth_duration_MTurk/v2_DepthDuration_HTML.html#47,47,1536,746,1536,864,8-20-2022,10-28-45,151,depth_duration_stimuli/001133_2014-06-17_14-49-16_260595134347_rgbf000100-resize_0/001133_2014-06-17_14-49-16_260595134347_rgbf000100-resize_0-target.png,250,4.2115,12,3906,258,meters,jsons/v1_VE250_randls_53_rotated.json,731145,1073553,32,Man
151,852736,DepthScenes,duration_manipulation_targetAtFixation,jsons/v1_VE250_randls_53_rotated.json,http://54.235.29.9/FacialAge/BNav_EC2/DepthDuration/v2_depth_duration_MTurk/v2_DepthDuration_HTML.html#47,47,1536,746,1536,864,8-20-2022,10-28-45,152,depth_duration_stimuli/000569_2014-06-09_22-51-47_260595134347_rgbf000141-resize_3/000569_2014-06-09_22-51-47_260595134347_rgbf000141-resize-original.jpg,250,4.512,0,3287,264,meters,jsons/v1_VE250_randls_53_rotated.json,731145,1073553,32,Man
152,852736,DepthScenes,duration_manipulation_targetAtFixation,jsons/v1_VE250_randls_53_rotated.json,http://54.235.29.9/FacialAge/BNav_EC2/DepthDuration/v2_depth_duration_MTurk/v2_DepthDuration_HTML.html#47,47,1536,746,1536,864,8-20-2022,10-28-45,153,depth_duration_stimuli/000691_2014-06-08_13-08-50_260595134347_rgbf000132-resize_3/000691_2014-06-08_13-08-50_260595134347_rgbf000132-resize_3-target.png,250,4.1530000000000005,10,2405,260,meters,jsons/v1_VE250_randls_53_rotated.json,731145,1073553,32,Man
153,852736,DepthScenes,duration_manipulation_targetAtFixation,jsons/v1_VE250_randls_53_rotated.json,http://54.235.29.9/FacialAge/BNav_EC2/DepthDuration/v2_depth_duration_MTurk/v2_DepthDuration_HTML.html#47,47,1536,746,1536,864,8-20-2022,10-28-45,154,depth_duration_stimuli/002213_2014-06-28_18-37-58_260595134347_rgbf000055-resize_1/002213_2014-06-28_18-37-58_260595134347_rgbf000055-resize_1-target.png,250,3.62,0,2133,252,meters,jsons/v1_VE250_randls_53_rotated.json,731145,1073553,32,Man
154,852736,DepthScenes,duration_manipulation_targetAtFixation,jsons/v1_VE250_randls_53_rotated.json,http://54.235.29.9/FacialAge/BNav_EC2/DepthDuration/v2_depth_duration_MTurk/v2_DepthDuration_HTML.html#47,47,1536,746,1536,864,8-20-2022,10-28-45,155,depth_duration_stimuli/000457_2014-06-08_16-52-43_260595134347_rgbf000199-resize_1/000457_2014-06-08_16-52-43_260595134347_rgbf000199-resize_1-target.png,250,3.6489999999999996,12,2731,244,meters,jsons/v1_VE250_randls_53_rotated.json,731145,1073553,32,Man
155,852736,DepthScenes,duration_manipulation_targetAtFixation,jsons/v1_VE250_randls_53_rotated.json,http://54.235.29.9/FacialAge/BNav_EC2/DepthDuration/v2_depth_duration_MTurk/v2_DepthDuration_HTML.html#47,47,1536,746,1536,864,8-20-2022,10-28-45,156,depth_duration_stimuli/000929_2014-06-09_16-33-19_260595134347_rgbf000139-resize_0/000929_2014-06-09_16-33-19_260595134347_rgbf000139-resize_0-target.png,250,2.8680000000000003,10,2781,249,meters,jsons/v1_VE250_randls_53_rotated.json,731145,1073553,32,Man
156,852736,DepthScenes,duration_manipulation_targetAtFixation,jsons/v1_VE250_randls_53_rotated.json,http://54.235.29.9/FacialAge/BNav_EC2/DepthDuration/v2_depth_duration_MTurk/v2_DepthDuration_HTML.html#47,47,1536,746,1536,864,8-20-2022,10-28-45,157,depth_duration_stimuli/002103_2014-06-25_20-00-40_260595134347_rgbf000049-resize_0/002103_2014-06-25_20-00-40_260595134347_rgbf000049-resize_0-target.png,250,4.105,0,3690,254,meters,jsons/v1_VE250_randls_53_rotated.json,731145,1073553,32,Man
157,852736,DepthScenes,duration_manipulation_targetAtFixation,jsons/v1_VE250_randls_53_rotated.json,http://54.235.29.9/FacialAge/BNav_EC2/DepthDuration/v2_depth_duration_MTurk/v2_DepthDuration_HTML.html#47,47,1536,746,1536,864,8-20-2022,10-28-45,158,depth_duration_stimuli/002039_2014-06-24_20-22-38_260595134347_rgbf000084-resize_1/002039_2014-06-24_20-22-38_260595134347_rgbf000084-resize_1-target.png,250,4.408,10,3001,255,meters,jsons/v1_VE250_randls_53_rotated.json,731145,1073553,32,Man
158,852736,DepthScenes,duration_manipulation_targetAtFixation,jsons/v1_VE250_randls_53_rotated.json,http://54.235.29.9/FacialAge/BNav_EC2/DepthDuration/v2_depth_duration_MTurk/v2_DepthDuration_HTML.html#47,47,1536,746,1536,864,8-20-2022,10-28-45,159,depth_duration_stimuli/001094_2014-06-15_17-36-00_260595134347_rgbf000205-resize_0/001094_2014-06-15_17-36-00_260595134347_rgbf000205-resize_0-target.png,250,4.2175,10,2613,247,meters,jsons/v1_VE250_randls_53_rotated.json,731145,1073553,32,Man
159,852736,DepthScenes,duration_manipulation_targetAtFixation,jsons/v1_VE250_randls_53_rotated.json,http://54.235.29.9/FacialAge/BNav_EC2/DepthDuration/v2_depth_duration_MTurk/v2_DepthDuration_HTML.html#47,47,1536,746,1536,864,8-20-2022,10-28-45,160,depth_duration_stimuli/000692_2014-06-08_13-09-42_260595134347_rgbf000199-resize_2/000692_2014-06-08_13-09-42_260595134347_rgbf000199-resize_2-target.png,250,3.661,12,2239,245,meters,jsons/v1_VE250_randls_53_rotated.json,731145,1073553,32,Man
160,852736,DepthScenes,duration_manipulation_targetAtFixation,jsons/v1_VE250_randls_53_rotated.json,http://54.235.29.9/FacialAge/BNav_EC2/DepthDuration/v2_depth_duration_MTurk/v2_DepthDuration_HTML.html#47,47,1536,746,1536,864,8-20-2022,10-28-45,161,depth_duration_stimuli/002953_2014-06-08_17-32-18_094959634447_rgbf000059-resize_5/002953_2014-06-08_17-32-18_094959634447_rgbf000059-resize_5-target.png,250,1.551,7,2850,247,meters,jsons/v1_VE250_randls_53_rotated.json,731145,1073553,32,Man
161,852736,DepthScenes,duration_manipulation_targetAtFixation,jsons/v1_VE250_randls_53_rotated.json,http://54.235.29.9/FacialAge/BNav_EC2/DepthDuration/v2_depth_duration_MTurk/v2_DepthDuration_HTML.html#47,47,1536,746,1536,864,8-20-2022,10-28-45,162,depth_duration_stimuli/000878_2014-06-08_22-52-45_260595134347_rgbf000045-resize_2/000878_2014-06-08_22-52-45_260595134347_rgbf000045-resize_2-target.png,250,2.092,10,2459,251,meters,jsons/v1_VE250_randls_53_rotated.json,731145,1073553,32,Man
162,852736,DepthScenes,duration_manipulation_targetAtFixation,jsons/v1_VE250_randls_53_rotated.json,http://54.235.29.9/FacialAge/BNav_EC2/DepthDuration/v2_depth_duration_MTurk/v2_DepthDuration_HTML.html#47,47,1536,746,1536,864,8-20-2022,10-28-45,163,depth_duration_stimuli/003495_2014-05-21_16-01-51_094959634447_rgbf000100-resize_3/003495_2014-05-21_16-01-51_094959634447_rgbf000100-resize_3-target.png,250,1.6255,6,3222,232,meters,jsons/v1_VE250_randls_53_rotated.json,731145,1073553,32,Man
163,852736,DepthScenes,duration_manipulation_targetAtFixation,jsons/v1_VE250_randls_53_rotated.json,http://54.235.29.9/FacialAge/BNav_EC2/DepthDuration/v2_depth_duration_MTurk/v2_DepthDuration_HTML.html#47,47,1536,746,1536,864,8-20-2022,10-28-45,164,depth_duration_stimuli/001244_2014-06-17_16-47-45_260595134347_rgbf000030-resize_4/001244_2014-06-17_16-47-45_260595134347_rgbf000030-resize_4-target.png,250,2.0425,8,2449,258,meters,jsons/v1_VE250_randls_53_rotated.json,731145,1073553,32,Man
