,subjID,experimentName,versionName,sequenceName,url,selected_row,windowWidth,windowHeight,screenWidth,screenHeight,startDate,startTime,trial,stimulus,duration,actual_depth,depth_estimate,trial_RT,log_sceneDuration,unitSelection,seq_filepath,experimentTime,totalTime,age,gender
0,855424,DepthScenes,duration_manipulation_targetAtFixation,jsons/VE125_randls_40_rotated.json,http://54.235.29.9/FacialAge/BNav_EC2/DepthDuration/v2_depth_duration_MTurk/v2_DepthDuration_HTML.html#76,76,1366,625,1366,768,8-21-2022,9-43-18,1,depth_duration_stimuli/001094_2014-06-15_17-36-00_260595134347_rgbf000205-resize_0/001094_2014-06-15_17-36-00_260595134347_rgbf000205-resize_0-target.png,125,4.2175,0,25571,124,meters,jsons/VE125_randls_40_rotated.json,2374522,2601712,66,Woman
1,855424,DepthScenes,duration_manipulation_targetAtFixation,jsons/VE125_randls_40_rotated.json,http://54.235.29.9/FacialAge/BNav_EC2/DepthDuration/v2_depth_duration_MTurk/v2_DepthDuration_HTML.html#76,76,1366,625,1366,768,8-21-2022,9-43-18,2,depth_duration_stimuli/000692_2014-06-08_13-09-42_260595134347_rgbf000199-resize_2/000692_2014-06-08_13-09-42_260595134347_rgbf000199-resize_2-target.png,125,3.661,0,26973,131,meters,jsons/VE125_randls_40_rotated.json,2374522,2601712,66,Woman
2,855424,DepthScenes,duration_manipulation_targetAtFixation,jsons/VE125_randls_40_rotated.json,http://54.235.29.9/FacialAge/BNav_EC2/DepthDuration/v2_depth_duration_MTurk/v2_DepthDuration_HTML.html#76,76,1366,625,1366,768,8-21-2022,9-43-18,3,depth_duration_stimuli/003423_2014-05-21_10-23-26_094959634447_rgbf002665-resize_2/003423_2014-05-21_10-23-26_094959634447_rgbf002665-resize_2-target.png,125,3.2575,0,22163,124,meters,jsons/VE125_randls_40_rotated.json,2374522,2601712,66,Woman
3,855424,DepthScenes,duration_manipulation_targetAtFixation,jsons/VE125_randls_40_rotated.json,http://54.235.29.9/FacialAge/BNav_EC2/DepthDuration/v2_depth_duration_MTurk/v2_DepthDuration_HTML.html#76,76,1366,625,1366,768,8-21-2022,9-43-18,4,depth_duration_stimuli/002905_2014-06-03_18-04-43_094959634447_rgbf000151-resize_2/002905_2014-06-03_18-04-43_094959634447_rgbf000151-resize_2-target.png,125,2.0295,0,3132,116,meters,jsons/VE125_randls_40_rotated.json,2374522,2601712,66,Woman
4,855424,DepthScenes,duration_manipulation_targetAtFixation,jsons/VE125_randls_40_rotated.json,http://54.235.29.9/FacialAge/BNav_EC2/DepthDuration/v2_depth_duration_MTurk/v2_DepthDuration_HTML.html#76,76,1366,625,1366,768,8-21-2022,9-43-18,5,depth_duration_stimuli/001100_2014-06-15_17-46-26_260595134347_rgbf000225-resize_2/001100_2014-06-15_17-46-26_260595134347_rgbf000225-resize_2-target.png,125,2.24,0,19729,132,meters,jsons/VE125_randls_40_rotated.json,2374522,2601712,66,Woman
5,855424,DepthScenes,duration_manipulation_targetAtFixation,jsons/VE125_randls_40_rotated.json,http://54.235.29.9/FacialAge/BNav_EC2/DepthDuration/v2_depth_duration_MTurk/v2_DepthDuration_HTML.html#76,76,1366,625,1366,768,8-21-2022,9-43-18,6,depth_duration_stimuli/002784_2014-06-22_19-26-30_094959634447_rgbf000083-resize_3/002784_2014-06-22_19-26-30_094959634447_rgbf000083-resize_3-target.png,125,1.8046666666667,0,3310,132,meters,jsons/VE125_randls_40_rotated.json,2374522,2601712,66,Woman
6,855424,DepthScenes,duration_manipulation_targetAtFixation,jsons/VE125_randls_40_rotated.json,http://54.235.29.9/FacialAge/BNav_EC2/DepthDuration/v2_depth_duration_MTurk/v2_DepthDuration_HTML.html#76,76,1366,625,1366,768,8-21-2022,9-43-18,7,depth_duration_stimuli/000709_2014-06-08_13-51-55_260595134347_rgbf000068-resize_3/000709_2014-06-08_13-51-55_260595134347_rgbf000068-resize_3-target.png,125,1.8030000000000002,0,18202,124,meters,jsons/VE125_randls_40_rotated.json,2374522,2601712,66,Woman
7,855424,DepthScenes,duration_manipulation_targetAtFixation,jsons/VE125_randls_40_rotated.json,http://54.235.29.9/FacialAge/BNav_EC2/DepthDuration/v2_depth_duration_MTurk/v2_DepthDuration_HTML.html#76,76,1366,625,1366,768,8-21-2022,9-43-18,8,depth_duration_stimuli/002057_2014-06-24_21-00-13_260595134347_rgbf000120-resize_1/002057_2014-06-24_21-00-13_260595134347_rgbf000120-resize_1-target.png,125,2.967,0,11147,121,meters,jsons/VE125_randls_40_rotated.json,2374522,2601712,66,Woman
8,855424,DepthScenes,duration_manipulation_targetAtFixation,jsons/VE125_randls_40_rotated.json,http://54.235.29.9/FacialAge/BNav_EC2/DepthDuration/v2_depth_duration_MTurk/v2_DepthDuration_HTML.html#76,76,1366,625,1366,768,8-21-2022,9-43-18,9,depth_duration_stimuli/003079_2014-06-15_15-18-20_094959634447_rgbf000152-resize_8/003079_2014-06-15_15-18-20_094959634447_rgbf000152-resize_8-target.png,125,2.8775,0,18598,100,meters,jsons/VE125_randls_40_rotated.json,2374522,2601712,66,Woman
9,855424,DepthScenes,duration_manipulation_targetAtFixation,jsons/VE125_randls_40_rotated.json,http://54.235.29.9/FacialAge/BNav_EC2/DepthDuration/v2_depth_duration_MTurk/v2_DepthDuration_HTML.html#76,76,1366,625,1366,768,8-21-2022,9-43-18,10,depth_duration_stimuli/000506_2014-06-08_23-21-00_260595134347_rgbf000070-resize_7/000506_2014-06-08_23-21-00_260595134347_rgbf000070-resize_7-target.png,125,4.0585,0,3297,124,meters,jsons/VE125_randls_40_rotated.json,2374522,2601712,66,Woman
10,855424,DepthScenes,duration_manipulation_targetAtFixation,jsons/VE125_randls_40_rotated.json,http://54.235.29.9/FacialAge/BNav_EC2/DepthDuration/v2_depth_duration_MTurk/v2_DepthDuration_HTML.html#76,76,1366,625,1366,768,8-21-2022,9-43-18,11,depth_duration_stimuli/002444_2014-06-28_20-32-08_260595134347_rgbf000027-resize_0/002444_2014-06-28_20-32-08_260595134347_rgbf000027-resize_0-target.png,125,4.388999999999999,0,21896,117,meters,jsons/VE125_randls_40_rotated.json,2374522,2601712,66,Woman
11,855424,DepthScenes,duration_manipulation_targetAtFixation,jsons/VE125_randls_40_rotated.json,http://54.235.29.9/FacialAge/BNav_EC2/DepthDuration/v2_depth_duration_MTurk/v2_DepthDuration_HTML.html#76,76,1366,625,1366,768,8-21-2022,9-43-18,12,depth_duration_stimuli/000436_2014-06-09_22-25-11_260595134347_rgbf000137-resize_1/000436_2014-06-09_22-25-11_260595134347_rgbf000137-resize_1-target.png,125,4.0705,0,9025,115,meters,jsons/VE125_randls_40_rotated.json,2374522,2601712,66,Woman
12,855424,DepthScenes,duration_manipulation_targetAtFixation,jsons/VE125_randls_40_rotated.json,http://54.235.29.9/FacialAge/BNav_EC2/DepthDuration/v2_depth_duration_MTurk/v2_DepthDuration_HTML.html#76,76,1366,625,1366,768,8-21-2022,9-43-18,13,depth_duration_stimuli/002953_2014-06-08_17-32-18_094959634447_rgbf000059-resize_5/002953_2014-06-08_17-32-18_094959634447_rgbf000059-resize_5-target.png,125,1.551,0,23378,159,meters,jsons/VE125_randls_40_rotated.json,2374522,2601712,66,Woman
13,855424,DepthScenes,duration_manipulation_targetAtFixation,jsons/VE125_randls_40_rotated.json,http://54.235.29.9/FacialAge/BNav_EC2/DepthDuration/v2_depth_duration_MTurk/v2_DepthDuration_HTML.html#76,76,1366,625,1366,768,8-21-2022,9-43-18,14,depth_duration_stimuli/000878_2014-06-08_22-52-45_260595134347_rgbf000045-resize_2/000878_2014-06-08_22-52-45_260595134347_rgbf000045-resize_2-target.png,125,2.092,0,2894,124,meters,jsons/VE125_randls_40_rotated.json,2374522,2601712,66,Woman
14,855424,DepthScenes,duration_manipulation_targetAtFixation,jsons/VE125_randls_40_rotated.json,http://54.235.29.9/FacialAge/BNav_EC2/DepthDuration/v2_depth_duration_MTurk/v2_DepthDuration_HTML.html#76,76,1366,625,1366,768,8-21-2022,9-43-18,15,depth_duration_stimuli/000691_2014-06-08_13-08-50_260595134347_rgbf000132-resize_3/000691_2014-06-08_13-08-50_260595134347_rgbf000132-resize_3-target.png,125,4.1530000000000005,0,18897,125,meters,jsons/VE125_randls_40_rotated.json,2374522,2601712,66,Woman
15,855424,DepthScenes,duration_manipulation_targetAtFixation,jsons/VE125_randls_40_rotated.json,http://54.235.29.9/FacialAge/BNav_EC2/DepthDuration/v2_depth_duration_MTurk/v2_DepthDuration_HTML.html#76,76,1366,625,1366,768,8-21-2022,9-43-18,16,depth_duration_stimuli/002213_2014-06-28_18-37-58_260595134347_rgbf000055-resize_1/002213_2014-06-28_18-37-58_260595134347_rgbf000055-resize_1-target.png,125,3.62,0,10403,124,meters,jsons/VE125_randls_40_rotated.json,2374522,2601712,66,Woman
16,855424,DepthScenes,duration_manipulation_targetAtFixation,jsons/VE125_randls_40_rotated.json,http://54.235.29.9/FacialAge/BNav_EC2/DepthDuration/v2_depth_duration_MTurk/v2_DepthDuration_HTML.html#76,76,1366,625,1366,768,8-21-2022,9-43-18,17,depth_duration_stimuli/001617_2014-06-20_11-35-32_260595134347_rgbf000066-resize_1/001617_2014-06-20_11-35-32_260595134347_rgbf000066-resize_1-target.png,125,3.7910000000000004,0,23286,125,meters,jsons/VE125_randls_40_rotated.json,2374522,2601712,66,Woman
17,855424,DepthScenes,duration_manipulation_targetAtFixation,jsons/VE125_randls_40_rotated.json,http://54.235.29.9/FacialAge/BNav_EC2/DepthDuration/v2_depth_duration_MTurk/v2_DepthDuration_HTML.html#76,76,1366,625,1366,768,8-21-2022,9-43-18,18,depth_duration_stimuli/001806_2014-06-26_20-50-20_260595134347_rgbf000091-resize_1/001806_2014-06-26_20-50-20_260595134347_rgbf000091-resize_1-target.png,125,2.7305,0,9152,125,meters,jsons/VE125_randls_40_rotated.json,2374522,2601712,66,Woman
18,855424,DepthScenes,duration_manipulation_targetAtFixation,jsons/VE125_randls_40_rotated.json,http://54.235.29.9/FacialAge/BNav_EC2/DepthDuration/v2_depth_duration_MTurk/v2_DepthDuration_HTML.html#76,76,1366,625,1366,768,8-21-2022,9-43-18,19,depth_duration_stimuli/001498_2014-06-19_17-45-14_260595134347_rgbf000129-resize_4/001498_2014-06-19_17-45-14_260595134347_rgbf000129-resize-original.jpg,125,1.4075,0,23669,111,meters,jsons/VE125_randls_40_rotated.json,2374522,2601712,66,Woman
19,855424,DepthScenes,duration_manipulation_targetAtFixation,jsons/VE125_randls_40_rotated.json,http://54.235.29.9/FacialAge/BNav_EC2/DepthDuration/v2_depth_duration_MTurk/v2_DepthDuration_HTML.html#76,76,1366,625,1366,768,8-21-2022,9-43-18,20,depth_duration_stimuli/000502_2014-06-08_23-02-32_260595134347_rgbf000063-resize_4/000502_2014-06-08_23-02-32_260595134347_rgbf000063-resize_4-target.png,125,2.431,0,19707,83,meters,jsons/VE125_randls_40_rotated.json,2374522,2601712,66,Woman
20,855424,DepthScenes,duration_manipulation_targetAtFixation,jsons/VE125_randls_40_rotated.json,http://54.235.29.9/FacialAge/BNav_EC2/DepthDuration/v2_depth_duration_MTurk/v2_DepthDuration_HTML.html#76,76,1366,625,1366,768,8-21-2022,9-43-18,21,depth_duration_stimuli/001199_2014-06-17_16-03-48_260595134347_rgbf000077-resize_0/001199_2014-06-17_16-03-48_260595134347_rgbf000077-resize_0-target.png,125,3.4375,0,11086,123,meters,jsons/VE125_randls_40_rotated.json,2374522,2601712,66,Woman
21,855424,DepthScenes,duration_manipulation_targetAtFixation,jsons/VE125_randls_40_rotated.json,http://54.235.29.9/FacialAge/BNav_EC2/DepthDuration/v2_depth_duration_MTurk/v2_DepthDuration_HTML.html#76,76,1366,625,1366,768,8-21-2022,9-43-18,22,depth_duration_stimuli/002660_2014-06-13_15-44-18_094959634447_rgbf001878-resize_2/002660_2014-06-13_15-44-18_094959634447_rgbf001878-resize_2-target.png,125,3.576,0,19008,122,meters,jsons/VE125_randls_40_rotated.json,2374522,2601712,66,Woman
22,855424,DepthScenes,duration_manipulation_targetAtFixation,jsons/VE125_randls_40_rotated.json,http://54.235.29.9/FacialAge/BNav_EC2/DepthDuration/v2_depth_duration_MTurk/v2_DepthDuration_HTML.html#76,76,1366,625,1366,768,8-21-2022,9-43-18,23,depth_duration_stimuli/002153_2014-06-25_21-27-18_260595134347_rgbf000038-resize_5/002153_2014-06-25_21-27-18_260595134347_rgbf000038-resize_5-target.png,125,2.505,0,3403,126,meters,jsons/VE125_randls_40_rotated.json,2374522,2601712,66,Woman
23,855424,DepthScenes,duration_manipulation_targetAtFixation,jsons/VE125_randls_40_rotated.json,http://54.235.29.9/FacialAge/BNav_EC2/DepthDuration/v2_depth_duration_MTurk/v2_DepthDuration_HTML.html#76,76,1366,625,1366,768,8-21-2022,9-43-18,24,depth_duration_stimuli/003338_2014-05-20_11-01-23_094959634447_rgbf000051-resize_6/003338_2014-05-20_11-01-23_094959634447_rgbf000051-resize_6-target.png,125,1.693,0,3407,124,meters,jsons/VE125_randls_40_rotated.json,2374522,2601712,66,Woman
24,855424,DepthScenes,duration_manipulation_targetAtFixation,jsons/VE125_randls_40_rotated.json,http://54.235.29.9/FacialAge/BNav_EC2/DepthDuration/v2_depth_duration_MTurk/v2_DepthDuration_HTML.html#76,76,1366,625,1366,768,8-21-2022,9-43-18,25,depth_duration_stimuli/002509_2014-06-24_13-19-22_094959634447_rgbf000077-resize_0/002509_2014-06-24_13-19-22_094959634447_rgbf000077-resize_0-target.png,125,1.3065,0,24095,125,meters,jsons/VE125_randls_40_rotated.json,2374522,2601712,66,Woman
25,855424,DepthScenes,duration_manipulation_targetAtFixation,jsons/VE125_randls_40_rotated.json,http://54.235.29.9/FacialAge/BNav_EC2/DepthDuration/v2_depth_duration_MTurk/v2_DepthDuration_HTML.html#76,76,1366,625,1366,768,8-21-2022,9-43-18,26,depth_duration_stimuli/002545_2014-06-24_13-38-53_094959634447_rgbf000080-resize_4/002545_2014-06-24_13-38-53_094959634447_rgbf000080-resize_4-target.png,125,1.9205,0,3759,204,meters,jsons/VE125_randls_40_rotated.json,2374522,2601712,66,Woman
26,855424,DepthScenes,duration_manipulation_targetAtFixation,jsons/VE125_randls_40_rotated.json,http://54.235.29.9/FacialAge/BNav_EC2/DepthDuration/v2_depth_duration_MTurk/v2_DepthDuration_HTML.html#76,76,1366,625,1366,768,8-21-2022,9-43-18,27,depth_duration_stimuli/001092_2014-06-15_17-34-58_260595134347_rgbf000171-resize_3/001092_2014-06-15_17-34-58_260595134347_rgbf000171-resize_3-target.png,125,2.6935,0,28104,118,meters,jsons/VE125_randls_40_rotated.json,2374522,2601712,66,Woman
27,855424,DepthScenes,duration_manipulation_targetAtFixation,jsons/VE125_randls_40_rotated.json,http://54.235.29.9/FacialAge/BNav_EC2/DepthDuration/v2_depth_duration_MTurk/v2_DepthDuration_HTML.html#76,76,1366,625,1366,768,8-21-2022,9-43-18,28,depth_duration_stimuli/002199_2014-06-28_18-33-56_260595134347_rgbf000074-resize_0/002199_2014-06-28_18-33-56_260595134347_rgbf000074-resize_0-target.png,125,1.996,0,18655,144,meters,jsons/VE125_randls_40_rotated.json,2374522,2601712,66,Woman
28,855424,DepthScenes,duration_manipulation_targetAtFixation,jsons/VE125_randls_40_rotated.json,http://54.235.29.9/FacialAge/BNav_EC2/DepthDuration/v2_depth_duration_MTurk/v2_DepthDuration_HTML.html#76,76,1366,625,1366,768,8-21-2022,9-43-18,29,depth_duration_stimuli/001056_2014-06-08_18-46-44_260595134347_rgbf000068-resize_0/001056_2014-06-08_18-46-44_260595134347_rgbf000068-resize_0-target.png,125,2.6625,0,7339,125,meters,jsons/VE125_randls_40_rotated.json,2374522,2601712,66,Woman
29,855424,DepthScenes,duration_manipulation_targetAtFixation,jsons/VE125_randls_40_rotated.json,http://54.235.29.9/FacialAge/BNav_EC2/DepthDuration/v2_depth_duration_MTurk/v2_DepthDuration_HTML.html#76,76,1366,625,1366,768,8-21-2022,9-43-18,30,depth_duration_stimuli/002072_2014-06-24_21-48-06_260595134347_rgbf000115-resize_0/002072_2014-06-24_21-48-06_260595134347_rgbf000115-resize-original.jpg,125,4.702,0,18971,126,meters,jsons/VE125_randls_40_rotated.json,2374522,2601712,66,Woman
30,855424,DepthScenes,duration_manipulation_targetAtFixation,jsons/VE125_randls_40_rotated.json,http://54.235.29.9/FacialAge/BNav_EC2/DepthDuration/v2_depth_duration_MTurk/v2_DepthDuration_HTML.html#76,76,1366,625,1366,768,8-21-2022,9-43-18,31,depth_duration_stimuli/002637_2014-06-24_14-51-13_094959634447_rgbf000066-resize_4/002637_2014-06-24_14-51-13_094959634447_rgbf000066-resize_4-target.png,125,1.9955,0,18814,103,meters,jsons/VE125_randls_40_rotated.json,2374522,2601712,66,Woman
31,855424,DepthScenes,duration_manipulation_targetAtFixation,jsons/VE125_randls_40_rotated.json,http://54.235.29.9/FacialAge/BNav_EC2/DepthDuration/v2_depth_duration_MTurk/v2_DepthDuration_HTML.html#76,76,1366,625,1366,768,8-21-2022,9-43-18,32,depth_duration_stimuli/003534_2014-05-22_15-06-10_094959634447_rgbf000102-resize_4/003534_2014-05-22_15-06-10_094959634447_rgbf000102-resize_4-target.png,125,1.426,0,9690,126,meters,jsons/VE125_randls_40_rotated.json,2374522,2601712,66,Woman
32,855424,DepthScenes,duration_manipulation_targetAtFixation,jsons/VE125_randls_40_rotated.json,http://54.235.29.9/FacialAge/BNav_EC2/DepthDuration/v2_depth_duration_MTurk/v2_DepthDuration_HTML.html#76,76,1366,625,1366,768,8-21-2022,9-43-18,33,depth_duration_stimuli/003495_2014-05-21_16-01-51_094959634447_rgbf000100-resize_3/003495_2014-05-21_16-01-51_094959634447_rgbf000100-resize_3-target.png,125,1.6255,0,14261,143,meters,jsons/VE125_randls_40_rotated.json,2374522,2601712,66,Woman
33,855424,DepthScenes,duration_manipulation_targetAtFixation,jsons/VE125_randls_40_rotated.json,http://54.235.29.9/FacialAge/BNav_EC2/DepthDuration/v2_depth_duration_MTurk/v2_DepthDuration_HTML.html#76,76,1366,625,1366,768,8-21-2022,9-43-18,34,depth_duration_stimuli/001244_2014-06-17_16-47-45_260595134347_rgbf000030-resize_4/001244_2014-06-17_16-47-45_260595134347_rgbf000030-resize_4-target.png,125,2.0425,0,2980,124,meters,jsons/VE125_randls_40_rotated.json,2374522,2601712,66,Woman
34,855424,DepthScenes,duration_manipulation_targetAtFixation,jsons/VE125_randls_40_rotated.json,http://54.235.29.9/FacialAge/BNav_EC2/DepthDuration/v2_depth_duration_MTurk/v2_DepthDuration_HTML.html#76,76,1366,625,1366,768,8-21-2022,9-43-18,35,depth_duration_stimuli/002103_2014-06-25_20-00-40_260595134347_rgbf000049-resize_0/002103_2014-06-25_20-00-40_260595134347_rgbf000049-resize_0-target.png,125,4.105,0,24435,104,meters,jsons/VE125_randls_40_rotated.json,2374522,2601712,66,Woman
35,855424,DepthScenes,duration_manipulation_targetAtFixation,jsons/VE125_randls_40_rotated.json,http://54.235.29.9/FacialAge/BNav_EC2/DepthDuration/v2_depth_duration_MTurk/v2_DepthDuration_HTML.html#76,76,1366,625,1366,768,8-21-2022,9-43-18,36,depth_duration_stimuli/002039_2014-06-24_20-22-38_260595134347_rgbf000084-resize_1/002039_2014-06-24_20-22-38_260595134347_rgbf000084-resize_1-target.png,125,4.408,0,18825,75,meters,jsons/VE125_randls_40_rotated.json,2374522,2601712,66,Woman
36,855424,DepthScenes,duration_manipulation_targetAtFixation,jsons/VE125_randls_40_rotated.json,http://54.235.29.9/FacialAge/BNav_EC2/DepthDuration/v2_depth_duration_MTurk/v2_DepthDuration_HTML.html#76,76,1366,625,1366,768,8-21-2022,9-43-18,37,depth_duration_stimuli/000780_2014-06-08_22-28-29_260595134347_rgbf000126-resize_1/000780_2014-06-08_22-28-29_260595134347_rgbf000126-resize_1-target.png,125,3.3825,0,42589,138,meters,jsons/VE125_randls_40_rotated.json,2374522,2601712,66,Woman
37,855424,DepthScenes,duration_manipulation_targetAtFixation,jsons/VE125_randls_40_rotated.json,http://54.235.29.9/FacialAge/BNav_EC2/DepthDuration/v2_depth_duration_MTurk/v2_DepthDuration_HTML.html#76,76,1366,625,1366,768,8-21-2022,9-43-18,38,depth_duration_stimuli/002445_2014-06-28_20-32-16_260595134347_rgbf000029-resize_4/002445_2014-06-28_20-32-16_260595134347_rgbf000029-resize_4-target.png,125,2.5315,0,26108,123,meters,jsons/VE125_randls_40_rotated.json,2374522,2601712,66,Woman
38,855424,DepthScenes,duration_manipulation_targetAtFixation,jsons/VE125_randls_40_rotated.json,http://54.235.29.9/FacialAge/BNav_EC2/DepthDuration/v2_depth_duration_MTurk/v2_DepthDuration_HTML.html#76,76,1366,625,1366,768,8-21-2022,9-43-18,39,depth_duration_stimuli/002805_2014-06-22_19-54-03_094959634447_rgbf000079-resize_1/002805_2014-06-22_19-54-03_094959634447_rgbf000079-resize_1-target.png,125,3.1439999999999997,0,25420,138,meters,jsons/VE125_randls_40_rotated.json,2374522,2601712,66,Woman
39,855424,DepthScenes,duration_manipulation_targetAtFixation,jsons/VE125_randls_40_rotated.json,http://54.235.29.9/FacialAge/BNav_EC2/DepthDuration/v2_depth_duration_MTurk/v2_DepthDuration_HTML.html#76,76,1366,625,1366,768,8-21-2022,9-43-18,40,depth_duration_stimuli/000906_2014-06-08_13-35-43_260595134347_rgbf000155-resize_1/000906_2014-06-08_13-35-43_260595134347_rgbf000155-resize_1-target.png,125,2.8489999999999998,0,39133,107,meters,jsons/VE125_randls_40_rotated.json,2374522,2601712,66,Woman
40,855424,DepthScenes,duration_manipulation_targetAtFixation,jsons/VE125_randls_40_rotated.json,http://54.235.29.9/FacialAge/BNav_EC2/DepthDuration/v2_depth_duration_MTurk/v2_DepthDuration_HTML.html#76,76,1366,625,1366,768,8-21-2022,9-43-18,41,depth_duration_stimuli/003081_2014-06-15_15-19-16_094959634447_rgbf000150-resize_1/003081_2014-06-15_15-19-16_094959634447_rgbf000150-resize_1-target.png,125,3.9125,0,24274,124,meters,jsons/VE125_randls_40_rotated.json,2374522,2601712,66,Woman
41,855424,DepthScenes,duration_manipulation_targetAtFixation,jsons/VE125_randls_40_rotated.json,http://54.235.29.9/FacialAge/BNav_EC2/DepthDuration/v2_depth_duration_MTurk/v2_DepthDuration_HTML.html#76,76,1366,625,1366,768,8-21-2022,9-43-18,42,depth_duration_stimuli/001417_2014-06-19_16-25-36_260595134347_rgbf000115-resize_5/001417_2014-06-19_16-25-36_260595134347_rgbf000115-resize_5-target.png,125,4.6255,0,6300,140,meters,jsons/VE125_randls_40_rotated.json,2374522,2601712,66,Woman
42,855424,DepthScenes,duration_manipulation_targetAtFixation,jsons/VE125_randls_40_rotated.json,http://54.235.29.9/FacialAge/BNav_EC2/DepthDuration/v2_depth_duration_MTurk/v2_DepthDuration_HTML.html#76,76,1366,625,1366,768,8-21-2022,9-43-18,43,depth_duration_stimuli/000943_2014-06-09_19-31-07_260595134347_rgbf000128-resize_1/000943_2014-06-09_19-31-07_260595134347_rgbf000128-resize_1-target.png,125,1.9765,0,24671,120,meters,jsons/VE125_randls_40_rotated.json,2374522,2601712,66,Woman
43,855424,DepthScenes,duration_manipulation_targetAtFixation,jsons/VE125_randls_40_rotated.json,http://54.235.29.9/FacialAge/BNav_EC2/DepthDuration/v2_depth_duration_MTurk/v2_DepthDuration_HTML.html#76,76,1366,625,1366,768,8-21-2022,9-43-18,44,depth_duration_stimuli/003070_2014-06-15_14-58-27_094959634447_rgbf000150-resize_3/003070_2014-06-15_14-58-27_094959634447_rgbf000150-resize_3-target.png,125,2.9415,0,19381,106,meters,jsons/VE125_randls_40_rotated.json,2374522,2601712,66,Woman
44,855424,DepthScenes,duration_manipulation_targetAtFixation,jsons/VE125_randls_40_rotated.json,http://54.235.29.9/FacialAge/BNav_EC2/DepthDuration/v2_depth_duration_MTurk/v2_DepthDuration_HTML.html#76,76,1366,625,1366,768,8-21-2022,9-43-18,45,depth_duration_stimuli/002949_2014-06-26_15-57-42_094959634447_rgbf000079-resize_1/002949_2014-06-26_15-57-42_094959634447_rgbf000079-resize_1-target.png,125,1.8915,0,18384,114,meters,jsons/VE125_randls_40_rotated.json,2374522,2601712,66,Woman
45,855424,DepthScenes,duration_manipulation_targetAtFixation,jsons/VE125_randls_40_rotated.json,http://54.235.29.9/FacialAge/BNav_EC2/DepthDuration/v2_depth_duration_MTurk/v2_DepthDuration_HTML.html#76,76,1366,625,1366,768,8-21-2022,9-43-18,46,depth_duration_stimuli/000522_2014-06-08_13-35-06_260595134347_rgbf000244-resize_1/000522_2014-06-08_13-35-06_260595134347_rgbf000244-resize_1-target.png,125,2.3715,0,5619,126,meters,jsons/VE125_randls_40_rotated.json,2374522,2601712,66,Woman
46,855424,DepthScenes,duration_manipulation_targetAtFixation,jsons/VE125_randls_40_rotated.json,http://54.235.29.9/FacialAge/BNav_EC2/DepthDuration/v2_depth_duration_MTurk/v2_DepthDuration_HTML.html#76,76,1366,625,1366,768,8-21-2022,9-43-18,47,depth_duration_stimuli/000927_2014-06-09_16-32-30_260595134347_rgbf000123-resize_3/000927_2014-06-09_16-32-30_260595134347_rgbf000123-resize_3-target.png,125,2.6785,0,3875,125,meters,jsons/VE125_randls_40_rotated.json,2374522,2601712,66,Woman
47,855424,DepthScenes,duration_manipulation_targetAtFixation,jsons/VE125_randls_40_rotated.json,http://54.235.29.9/FacialAge/BNav_EC2/DepthDuration/v2_depth_duration_MTurk/v2_DepthDuration_HTML.html#76,76,1366,625,1366,768,8-21-2022,9-43-18,48,depth_duration_stimuli/001110_2014-06-15_17-25-28_260595134347_rgbf000150-resize_1/001110_2014-06-15_17-25-28_260595134347_rgbf000150-resize_1-target.png,125,1.7115,0,3329,124,meters,jsons/VE125_randls_40_rotated.json,2374522,2601712,66,Woman
48,855424,DepthScenes,duration_manipulation_targetAtFixation,jsons/VE125_randls_40_rotated.json,http://54.235.29.9/FacialAge/BNav_EC2/DepthDuration/v2_depth_duration_MTurk/v2_DepthDuration_HTML.html#76,76,1366,625,1366,768,8-21-2022,9-43-18,49,depth_duration_stimuli/001170_2014-06-17_15-43-44_260595134347_rgbf000096-resize_6/001170_2014-06-17_15-43-44_260595134347_rgbf000096-resize-original.jpg,125,1.1909999999999998,0,20163,123,meters,jsons/VE125_randls_40_rotated.json,2374522,2601712,66,Woman
49,855424,DepthScenes,duration_manipulation_targetAtFixation,jsons/VE125_randls_40_rotated.json,http://54.235.29.9/FacialAge/BNav_EC2/DepthDuration/v2_depth_duration_MTurk/v2_DepthDuration_HTML.html#76,76,1366,625,1366,768,8-21-2022,9-43-18,50,depth_duration_stimuli/002750_2014-06-22_19-08-03_094959634447_rgbf000094-resize_4/002750_2014-06-22_19-08-03_094959634447_rgbf000094-resize_4-target.png,125,2.354,0,17026,127,meters,jsons/VE125_randls_40_rotated.json,2374522,2601712,66,Woman
50,855424,DepthScenes,duration_manipulation_targetAtFixation,jsons/VE125_randls_40_rotated.json,http://54.235.29.9/FacialAge/BNav_EC2/DepthDuration/v2_depth_duration_MTurk/v2_DepthDuration_HTML.html#76,76,1366,625,1366,768,8-21-2022,9-43-18,51,depth_duration_stimuli/002549_2014-06-24_13-41-39_094959634447_rgbf000022-resize_3/002549_2014-06-24_13-41-39_094959634447_rgbf000022-resize_3-target.png,125,1.476,0,9530,122,meters,jsons/VE125_randls_40_rotated.json,2374522,2601712,66,Woman
51,855424,DepthScenes,duration_manipulation_targetAtFixation,jsons/VE125_randls_40_rotated.json,http://54.235.29.9/FacialAge/BNav_EC2/DepthDuration/v2_depth_duration_MTurk/v2_DepthDuration_HTML.html#76,76,1366,625,1366,768,8-21-2022,9-43-18,52,depth_duration_stimuli/002467_2014-06-28_20-38-07_260595134347_rgbf000026-resize_2/002467_2014-06-28_20-38-07_260595134347_rgbf000026-resize_2-target.png,125,4.742,0,4692,158,meters,jsons/VE125_randls_40_rotated.json,2374522,2601712,66,Woman
52,855424,DepthScenes,duration_manipulation_targetAtFixation,jsons/VE125_randls_40_rotated.json,http://54.235.29.9/FacialAge/BNav_EC2/DepthDuration/v2_depth_duration_MTurk/v2_DepthDuration_HTML.html#76,76,1366,625,1366,768,8-21-2022,9-43-18,53,depth_duration_stimuli/002570_2014-06-24_13-59-54_094959634447_rgbf000059-resize_0/002570_2014-06-24_13-59-54_094959634447_rgbf000059-resize_0-target.png,125,4.037,0,4206,199,meters,jsons/VE125_randls_40_rotated.json,2374522,2601712,66,Woman
53,855424,DepthScenes,duration_manipulation_targetAtFixation,jsons/VE125_randls_40_rotated.json,http://54.235.29.9/FacialAge/BNav_EC2/DepthDuration/v2_depth_duration_MTurk/v2_DepthDuration_HTML.html#76,76,1366,625,1366,768,8-21-2022,9-43-18,54,depth_duration_stimuli/000742_2014-06-08_18-48-09_260595134347_rgbf000164-resize_4/000742_2014-06-08_18-48-09_260595134347_rgbf000164-resize_4-target.png,125,4.632,0,23669,123,meters,jsons/VE125_randls_40_rotated.json,2374522,2601712,66,Woman
54,855424,DepthScenes,duration_manipulation_targetAtFixation,jsons/VE125_randls_40_rotated.json,http://54.235.29.9/FacialAge/BNav_EC2/DepthDuration/v2_depth_duration_MTurk/v2_DepthDuration_HTML.html#76,76,1366,625,1366,768,8-21-2022,9-43-18,55,depth_duration_stimuli/001066_2014-06-08_22-03-20_260595134347_rgbf000066-resize_4/001066_2014-06-08_22-03-20_260595134347_rgbf000066-resize_4-target.png,125,4.2330000000000005,0,7933,124,meters,jsons/VE125_randls_40_rotated.json,2374522,2601712,66,Woman
55,855424,DepthScenes,duration_manipulation_targetAtFixation,jsons/VE125_randls_40_rotated.json,http://54.235.29.9/FacialAge/BNav_EC2/DepthDuration/v2_depth_duration_MTurk/v2_DepthDuration_HTML.html#76,76,1366,625,1366,768,8-21-2022,9-43-18,56,depth_duration_stimuli/000749_2014-06-08_21-55-06_260595134347_rgbf000070-resize_2/000749_2014-06-08_21-55-06_260595134347_rgbf000070-resize_2-target.png,125,2.331,0,20319,99,meters,jsons/VE125_randls_40_rotated.json,2374522,2601712,66,Woman
56,855424,DepthScenes,duration_manipulation_targetAtFixation,jsons/VE125_randls_40_rotated.json,http://54.235.29.9/FacialAge/BNav_EC2/DepthDuration/v2_depth_duration_MTurk/v2_DepthDuration_HTML.html#76,76,1366,625,1366,768,8-21-2022,9-43-18,57,depth_duration_stimuli/002788_2014-06-22_19-36-03_094959634447_rgbf000088-resize_2/002788_2014-06-22_19-36-03_094959634447_rgbf000088-resize_2-target.png,125,1.6465,0,3027,124,meters,jsons/VE125_randls_40_rotated.json,2374522,2601712,66,Woman
57,855424,DepthScenes,duration_manipulation_targetAtFixation,jsons/VE125_randls_40_rotated.json,http://54.235.29.9/FacialAge/BNav_EC2/DepthDuration/v2_depth_duration_MTurk/v2_DepthDuration_HTML.html#76,76,1366,625,1366,768,8-21-2022,9-43-18,58,depth_duration_stimuli/001132_2014-06-17_14-48-54_260595134347_rgbf000100-resize_2/001132_2014-06-17_14-48-54_260595134347_rgbf000100-resize_2-target.png,125,3.753,0,18172,124,meters,jsons/VE125_randls_40_rotated.json,2374522,2601712,66,Woman
58,855424,DepthScenes,duration_manipulation_targetAtFixation,jsons/VE125_randls_40_rotated.json,http://54.235.29.9/FacialAge/BNav_EC2/DepthDuration/v2_depth_duration_MTurk/v2_DepthDuration_HTML.html#76,76,1366,625,1366,768,8-21-2022,9-43-18,59,depth_duration_stimuli/001133_2014-06-17_14-49-16_260595134347_rgbf000100-resize_0/001133_2014-06-17_14-49-16_260595134347_rgbf000100-resize_0-target.png,125,4.2115,0,3380,121,meters,jsons/VE125_randls_40_rotated.json,2374522,2601712,66,Woman
59,855424,DepthScenes,duration_manipulation_targetAtFixation,jsons/VE125_randls_40_rotated.json,http://54.235.29.9/FacialAge/BNav_EC2/DepthDuration/v2_depth_duration_MTurk/v2_DepthDuration_HTML.html#76,76,1366,625,1366,768,8-21-2022,9-43-18,60,depth_duration_stimuli/000137_2014-05-20_17-04-49_260595134347_rgbf000120-resize_1/000137_2014-05-20_17-04-49_260595134347_rgbf000120-resize_1-target.png,125,3.786,0,18291,132,meters,jsons/VE125_randls_40_rotated.json,2374522,2601712,66,Woman
60,855424,DepthScenes,duration_manipulation_targetAtFixation,jsons/VE125_randls_40_rotated.json,http://54.235.29.9/FacialAge/BNav_EC2/DepthDuration/v2_depth_duration_MTurk/v2_DepthDuration_HTML.html#76,76,1366,625,1366,768,8-21-2022,9-43-18,61,depth_duration_stimuli/000736_2014-06-08_18-24-15_260595134347_rgbf000206-resize_3/000736_2014-06-08_18-24-15_260595134347_rgbf000206-resize_3-target.png,125,3.515,0,2941,127,meters,jsons/VE125_randls_40_rotated.json,2374522,2601712,66,Woman
61,855424,DepthScenes,duration_manipulation_targetAtFixation,jsons/VE125_randls_40_rotated.json,http://54.235.29.9/FacialAge/BNav_EC2/DepthDuration/v2_depth_duration_MTurk/v2_DepthDuration_HTML.html#76,76,1366,625,1366,768,8-21-2022,9-43-18,62,depth_duration_stimuli/002678_2014-06-13_16-15-32_094959634447_rgbf000151-resize_6/002678_2014-06-13_16-15-32_094959634447_rgbf000151-resize_6-target.png,125,2.1830000000000003,0,15882,123,meters,jsons/VE125_randls_40_rotated.json,2374522,2601712,66,Woman
62,855424,DepthScenes,duration_manipulation_targetAtFixation,jsons/VE125_randls_40_rotated.json,http://54.235.29.9/FacialAge/BNav_EC2/DepthDuration/v2_depth_duration_MTurk/v2_DepthDuration_HTML.html#76,76,1366,625,1366,768,8-21-2022,9-43-18,63,depth_duration_stimuli/000368_2014-06-09_15-53-01_260595134347_rgbf000155-resize_2/000368_2014-06-09_15-53-01_260595134347_rgbf000155-resize_2-target.png,125,2.4859999999999998,0,10576,124,meters,jsons/VE125_randls_40_rotated.json,2374522,2601712,66,Woman
63,855424,DepthScenes,duration_manipulation_targetAtFixation,jsons/VE125_randls_40_rotated.json,http://54.235.29.9/FacialAge/BNav_EC2/DepthDuration/v2_depth_duration_MTurk/v2_DepthDuration_HTML.html#76,76,1366,625,1366,768,8-21-2022,9-43-18,64,depth_duration_stimuli/002425_2014-06-28_20-27-29_260595134347_rgbf000031-resize_8/002425_2014-06-28_20-27-29_260595134347_rgbf000031-resize_8-target.png,125,3.8960000000000004,0,16026,196,meters,jsons/VE125_randls_40_rotated.json,2374522,2601712,66,Woman
64,855424,DepthScenes,duration_manipulation_targetAtFixation,jsons/VE125_randls_40_rotated.json,http://54.235.29.9/FacialAge/BNav_EC2/DepthDuration/v2_depth_duration_MTurk/v2_DepthDuration_HTML.html#76,76,1366,625,1366,768,8-21-2022,9-43-18,65,depth_duration_stimuli/000642_2014-06-08_16-59-25_260595134347_rgbf000098-resize_2/000642_2014-06-08_16-59-25_260595134347_rgbf000098-resize_2-target.png,125,2.8815,0,3407,124,meters,jsons/VE125_randls_40_rotated.json,2374522,2601712,66,Woman
65,855424,DepthScenes,duration_manipulation_targetAtFixation,jsons/VE125_randls_40_rotated.json,http://54.235.29.9/FacialAge/BNav_EC2/DepthDuration/v2_depth_duration_MTurk/v2_DepthDuration_HTML.html#76,76,1366,625,1366,768,8-21-2022,9-43-18,66,depth_duration_stimuli/001540_2014-06-20_17-01-05_260595134347_rgbf000086-resize_2/001540_2014-06-20_17-01-05_260595134347_rgbf000086-resize-original.jpg,125,1.459,0,21145,143,meters,jsons/VE125_randls_40_rotated.json,2374522,2601712,66,Woman
66,855424,DepthScenes,duration_manipulation_targetAtFixation,jsons/VE125_randls_40_rotated.json,http://54.235.29.9/FacialAge/BNav_EC2/DepthDuration/v2_depth_duration_MTurk/v2_DepthDuration_HTML.html#76,76,1366,625,1366,768,8-21-2022,9-43-18,67,depth_duration_stimuli/000457_2014-06-08_16-52-43_260595134347_rgbf000199-resize_1/000457_2014-06-08_16-52-43_260595134347_rgbf000199-resize_1-target.png,125,3.6489999999999996,0,16997,63,meters,jsons/VE125_randls_40_rotated.json,2374522,2601712,66,Woman
67,855424,DepthScenes,duration_manipulation_targetAtFixation,jsons/VE125_randls_40_rotated.json,http://54.235.29.9/FacialAge/BNav_EC2/DepthDuration/v2_depth_duration_MTurk/v2_DepthDuration_HTML.html#76,76,1366,625,1366,768,8-21-2022,9-43-18,68,depth_duration_stimuli/000929_2014-06-09_16-33-19_260595134347_rgbf000139-resize_0/000929_2014-06-09_16-33-19_260595134347_rgbf000139-resize_0-target.png,125,2.8680000000000003,0,9832,128,meters,jsons/VE125_randls_40_rotated.json,2374522,2601712,66,Woman
68,855424,DepthScenes,duration_manipulation_targetAtFixation,jsons/VE125_randls_40_rotated.json,http://54.235.29.9/FacialAge/BNav_EC2/DepthDuration/v2_depth_duration_MTurk/v2_DepthDuration_HTML.html#76,76,1366,625,1366,768,8-21-2022,9-43-18,69,depth_duration_stimuli/002136_2014-06-25_21-18-03_260595134347_rgbf000109-resize_3/002136_2014-06-25_21-18-03_260595134347_rgbf000109-resize_3-target.png,125,1.9569999999999999,0,4116,165,meters,jsons/VE125_randls_40_rotated.json,2374522,2601712,66,Woman
69,855424,DepthScenes,duration_manipulation_targetAtFixation,jsons/VE125_randls_40_rotated.json,http://54.235.29.9/FacialAge/BNav_EC2/DepthDuration/v2_depth_duration_MTurk/v2_DepthDuration_HTML.html#76,76,1366,625,1366,768,8-21-2022,9-43-18,70,depth_duration_stimuli/002964_2014-06-08_17-46-11_094959634447_rgbf000091-resize_4/002964_2014-06-08_17-46-11_094959634447_rgbf000091-resize_4-target.png,125,1.6909999999999998,0,37193,123,meters,jsons/VE125_randls_40_rotated.json,2374522,2601712,66,Woman
70,855424,DepthScenes,duration_manipulation_targetAtFixation,jsons/VE125_randls_40_rotated.json,http://54.235.29.9/FacialAge/BNav_EC2/DepthDuration/v2_depth_duration_MTurk/v2_DepthDuration_HTML.html#76,76,1366,625,1366,768,8-21-2022,9-43-18,71,depth_duration_stimuli/003587_2014-05-23_16-48-02_094959634447_rgbf002384-resize_2/003587_2014-05-23_16-48-02_094959634447_rgbf002384-resize_2-target.png,125,1.357,0,22551,123,meters,jsons/VE125_randls_40_rotated.json,2374522,2601712,66,Woman
71,855424,DepthScenes,duration_manipulation_targetAtFixation,jsons/VE125_randls_40_rotated.json,http://54.235.29.9/FacialAge/BNav_EC2/DepthDuration/v2_depth_duration_MTurk/v2_DepthDuration_HTML.html#76,76,1366,625,1366,768,8-21-2022,9-43-18,72,depth_duration_stimuli/001167_2014-06-17_15-38-07_260595134347_rgbf000108-resize_0/001167_2014-06-17_15-38-07_260595134347_rgbf000108-resize_0-target.png,125,1.8505,0,10007,124,meters,jsons/VE125_randls_40_rotated.json,2374522,2601712,66,Woman
72,855424,DepthScenes,duration_manipulation_targetAtFixation,jsons/VE125_randls_40_rotated.json,http://54.235.29.9/FacialAge/BNav_EC2/DepthDuration/v2_depth_duration_MTurk/v2_DepthDuration_HTML.html#76,76,1366,625,1366,768,8-21-2022,9-43-18,73,depth_duration_stimuli/002568_2014-06-24_13-59-21_094959634447_rgbf000062-resize_4/002568_2014-06-24_13-59-21_094959634447_rgbf000062-resize_4-target.png,125,3.015,0,18804,125,meters,jsons/VE125_randls_40_rotated.json,2374522,2601712,66,Woman
73,855424,DepthScenes,duration_manipulation_targetAtFixation,jsons/VE125_randls_40_rotated.json,http://54.235.29.9/FacialAge/BNav_EC2/DepthDuration/v2_depth_duration_MTurk/v2_DepthDuration_HTML.html#76,76,1366,625,1366,768,8-21-2022,9-43-18,74,depth_duration_stimuli/003492_2014-05-21_15-50-55_094959634447_rgbf000828-resize_1/003492_2014-05-21_15-50-55_094959634447_rgbf000828-resize_1-target.png,125,4.06875,0,3102,115,meters,jsons/VE125_randls_40_rotated.json,2374522,2601712,66,Woman
74,855424,DepthScenes,duration_manipulation_targetAtFixation,jsons/VE125_randls_40_rotated.json,http://54.235.29.9/FacialAge/BNav_EC2/DepthDuration/v2_depth_duration_MTurk/v2_DepthDuration_HTML.html#76,76,1366,625,1366,768,8-21-2022,9-43-18,75,depth_duration_stimuli/001032_2014-06-08_13-23-17_260595134347_rgbf000021-resize_3/001032_2014-06-08_13-23-17_260595134347_rgbf000021-resize_3-target.png,125,3.2725,0,12798,124,meters,jsons/VE125_randls_40_rotated.json,2374522,2601712,66,Woman
75,855424,DepthScenes,duration_manipulation_targetAtFixation,jsons/VE125_randls_40_rotated.json,http://54.235.29.9/FacialAge/BNav_EC2/DepthDuration/v2_depth_duration_MTurk/v2_DepthDuration_HTML.html#76,76,1366,625,1366,768,8-21-2022,9-43-18,76,depth_duration_stimuli/001059_2014-06-08_21-53-27_260595134347_rgbf000061-resize_4/001059_2014-06-08_21-53-27_260595134347_rgbf000061-resize_4-target.png,125,2.4185,0,9853,169,meters,jsons/VE125_randls_40_rotated.json,2374522,2601712,66,Woman
76,855424,DepthScenes,duration_manipulation_targetAtFixation,jsons/VE125_randls_40_rotated.json,http://54.235.29.9/FacialAge/BNav_EC2/DepthDuration/v2_depth_duration_MTurk/v2_DepthDuration_HTML.html#76,76,1366,625,1366,768,8-21-2022,9-43-18,77,depth_duration_stimuli/002340_2014-06-28_20-05-46_260595134347_rgbf000113-resize_0/002340_2014-06-28_20-05-46_260595134347_rgbf000113-resize_0-target.png,125,2.4735,0,21518,125,meters,jsons/VE125_randls_40_rotated.json,2374522,2601712,66,Woman
77,855424,DepthScenes,duration_manipulation_targetAtFixation,jsons/VE125_randls_40_rotated.json,http://54.235.29.9/FacialAge/BNav_EC2/DepthDuration/v2_depth_duration_MTurk/v2_DepthDuration_HTML.html#76,76,1366,625,1366,768,8-21-2022,9-43-18,78,depth_duration_stimuli/001016_2014-06-09_16-16-10_260595134347_rgbf000112-resize_5/001016_2014-06-09_16-16-10_260595134347_rgbf000112-resize_5-target.png,125,1.6565,0,11634,124,meters,jsons/VE125_randls_40_rotated.json,2374522,2601712,66,Woman
78,855424,DepthScenes,duration_manipulation_targetAtFixation,jsons/VE125_randls_40_rotated.json,http://54.235.29.9/FacialAge/BNav_EC2/DepthDuration/v2_depth_duration_MTurk/v2_DepthDuration_HTML.html#76,76,1366,625,1366,768,8-21-2022,9-43-18,79,depth_duration_stimuli/003010_2014-06-15_12-54-35_094959634447_rgbf000112-resize_0/003010_2014-06-15_12-54-35_094959634447_rgbf000112-resize_0-target.png,125,3.1185,0,14089,156,meters,jsons/VE125_randls_40_rotated.json,2374522,2601712,66,Woman
79,855424,DepthScenes,duration_manipulation_targetAtFixation,jsons/VE125_randls_40_rotated.json,http://54.235.29.9/FacialAge/BNav_EC2/DepthDuration/v2_depth_duration_MTurk/v2_DepthDuration_HTML.html#76,76,1366,625,1366,768,8-21-2022,9-43-18,80,depth_duration_stimuli/001810_2014-06-26_20-51-35_260595134347_rgbf000040-resize_3/001810_2014-06-26_20-51-35_260595134347_rgbf000040-resize_3-target.png,125,2.2525,0,5303,123,meters,jsons/VE125_randls_40_rotated.json,2374522,2601712,66,Woman
80,855424,DepthScenes,duration_manipulation_targetAtFixation,jsons/VE125_randls_40_rotated.json,http://54.235.29.9/FacialAge/BNav_EC2/DepthDuration/v2_depth_duration_MTurk/v2_DepthDuration_HTML.html#76,76,1366,625,1366,768,8-21-2022,9-43-18,81,depth_duration_stimuli/000734_2014-06-08_17-39-11_260595134347_rgbf000128-resize_2/000734_2014-06-08_17-39-11_260595134347_rgbf000128-resize_2-target.png,125,4.098,0,12204,161,meters,jsons/VE125_randls_40_rotated.json,2374522,2601712,66,Woman
81,855424,DepthScenes,duration_manipulation_targetAtFixation,jsons/VE125_randls_40_rotated.json,http://54.235.29.9/FacialAge/BNav_EC2/DepthDuration/v2_depth_duration_MTurk/v2_DepthDuration_HTML.html#76,76,1366,625,1366,768,8-21-2022,9-43-18,82,depth_duration_stimuli/000739_2014-06-08_18-45-58_260595134347_rgbf000068-resize_1/000739_2014-06-08_18-45-58_260595134347_rgbf000068-resize_1-target.png,125,3.534,0,2575,124,meters,jsons/VE125_randls_40_rotated.json,2374522,2601712,66,Woman
82,855424,DepthScenes,duration_manipulation_targetAtFixation,jsons/VE125_randls_40_rotated.json,http://54.235.29.9/FacialAge/BNav_EC2/DepthDuration/v2_depth_duration_MTurk/v2_DepthDuration_HTML.html#76,76,1366,625,1366,768,8-21-2022,9-43-18,83,depth_duration_stimuli/001235_2014-06-17_16-37-36_260595134347_rgbf000084-resize_4/001235_2014-06-17_16-37-36_260595134347_rgbf000084-resize_4-target.png,125,3.6605,0,20698,126,meters,jsons/VE125_randls_40_rotated.json,2374522,2601712,66,Woman
83,855424,DepthScenes,duration_manipulation_targetAtFixation,jsons/VE125_randls_40_rotated.json,http://54.235.29.9/FacialAge/BNav_EC2/DepthDuration/v2_depth_duration_MTurk/v2_DepthDuration_HTML.html#76,76,1366,625,1366,768,8-21-2022,9-43-18,84,depth_duration_stimuli/000788_2014-06-08_22-34-36_260595134347_rgbf000131-resize_1/000788_2014-06-08_22-34-36_260595134347_rgbf000131-resize_1-target.png,125,3.359,0,2984,127,meters,jsons/VE125_randls_40_rotated.json,2374522,2601712,66,Woman
84,855424,DepthScenes,duration_manipulation_targetAtFixation,jsons/VE125_randls_40_rotated.json,http://54.235.29.9/FacialAge/BNav_EC2/DepthDuration/v2_depth_duration_MTurk/v2_DepthDuration_HTML.html#76,76,1366,625,1366,768,8-21-2022,9-43-18,85,depth_duration_stimuli/000549_2014-06-08_22-10-24_260595134347_rgbf000247-resize_3/000549_2014-06-08_22-10-24_260595134347_rgbf000247-resize_3-target.png,125,1.841,0,3422,124,meters,jsons/VE125_randls_40_rotated.json,2374522,2601712,66,Woman
85,855424,DepthScenes,duration_manipulation_targetAtFixation,jsons/VE125_randls_40_rotated.json,http://54.235.29.9/FacialAge/BNav_EC2/DepthDuration/v2_depth_duration_MTurk/v2_DepthDuration_HTML.html#76,76,1366,625,1366,768,8-21-2022,9-43-18,86,depth_duration_stimuli/001055_2014-06-08_18-45-35_260595134347_rgbf000111-resize_4/001055_2014-06-08_18-45-35_260595134347_rgbf000111-resize_4-target.png,125,2.4290000000000003,0,23921,126,meters,jsons/VE125_randls_40_rotated.json,2374522,2601712,66,Woman
86,855424,DepthScenes,duration_manipulation_targetAtFixation,jsons/VE125_randls_40_rotated.json,http://54.235.29.9/FacialAge/BNav_EC2/DepthDuration/v2_depth_duration_MTurk/v2_DepthDuration_HTML.html#76,76,1366,625,1366,768,8-21-2022,9-43-18,87,depth_duration_stimuli/003228_2014-05-14_13-42-35_094959634447_rgbf000101-resize_1/003228_2014-05-14_13-42-35_094959634447_rgbf000101-resize_1-target.png,125,1.9680000000000002,0,3673,124,meters,jsons/VE125_randls_40_rotated.json,2374522,2601712,66,Woman
87,855424,DepthScenes,duration_manipulation_targetAtFixation,jsons/VE125_randls_40_rotated.json,http://54.235.29.9/FacialAge/BNav_EC2/DepthDuration/v2_depth_duration_MTurk/v2_DepthDuration_HTML.html#76,76,1366,625,1366,768,8-21-2022,9-43-18,88,depth_duration_stimuli/002600_2014-06-24_14-27-04_094959634447_rgbf000074-resize_2/002600_2014-06-24_14-27-04_094959634447_rgbf000074-resize_2-target.png,125,2.7575,0,22871,140,meters,jsons/VE125_randls_40_rotated.json,2374522,2601712,66,Woman
88,855424,DepthScenes,duration_manipulation_targetAtFixation,jsons/VE125_randls_40_rotated.json,http://54.235.29.9/FacialAge/BNav_EC2/DepthDuration/v2_depth_duration_MTurk/v2_DepthDuration_HTML.html#76,76,1366,625,1366,768,8-21-2022,9-43-18,89,depth_duration_stimuli/001052_2014-06-08_18-24-54_260595134347_rgbf000130-resize_1/001052_2014-06-08_18-24-54_260595134347_rgbf000130-resize_1-target.png,125,4.1045,0,20510,125,meters,jsons/VE125_randls_40_rotated.json,2374522,2601712,66,Woman
89,855424,DepthScenes,duration_manipulation_targetAtFixation,jsons/VE125_randls_40_rotated.json,http://54.235.29.9/FacialAge/BNav_EC2/DepthDuration/v2_depth_duration_MTurk/v2_DepthDuration_HTML.html#76,76,1366,625,1366,768,8-21-2022,9-43-18,90,depth_duration_stimuli/002988_2014-06-15_12-24-20_094959634447_rgbf000150-resize_1/002988_2014-06-15_12-24-20_094959634447_rgbf000150-resize_1-target.png,125,4.7669999999999995,0,8003,122,meters,jsons/VE125_randls_40_rotated.json,2374522,2601712,66,Woman
90,855424,DepthScenes,duration_manipulation_targetAtFixation,jsons/VE125_randls_40_rotated.json,http://54.235.29.9/FacialAge/BNav_EC2/DepthDuration/v2_depth_duration_MTurk/v2_DepthDuration_HTML.html#76,76,1366,625,1366,768,8-21-2022,9-43-18,91,depth_duration_stimuli/001214_2014-06-17_16-13-55_260595134347_rgbf000111-resize_0/001214_2014-06-17_16-13-55_260595134347_rgbf000111-resize_0-target.png,125,2.6505,0,3380,179,meters,jsons/VE125_randls_40_rotated.json,2374522,2601712,66,Woman
91,855424,DepthScenes,duration_manipulation_targetAtFixation,jsons/VE125_randls_40_rotated.json,http://54.235.29.9/FacialAge/BNav_EC2/DepthDuration/v2_depth_duration_MTurk/v2_DepthDuration_HTML.html#76,76,1366,625,1366,768,8-21-2022,9-43-18,92,depth_duration_stimuli/000810_2014-06-08_17-20-01_260595134347_rgbf000105-resize_0/000810_2014-06-08_17-20-01_260595134347_rgbf000105-resize_0-target.png,125,1.4865,0,24137,124,meters,jsons/VE125_randls_40_rotated.json,2374522,2601712,66,Woman
92,855424,DepthScenes,duration_manipulation_targetAtFixation,jsons/VE125_randls_40_rotated.json,http://54.235.29.9/FacialAge/BNav_EC2/DepthDuration/v2_depth_duration_MTurk/v2_DepthDuration_HTML.html#76,76,1366,625,1366,768,8-21-2022,9-43-18,93,depth_duration_stimuli/002758_2014-06-22_19-11-20_094959634447_rgbf000128-resize_1/002758_2014-06-22_19-11-20_094959634447_rgbf000128-resize_1-target.png,125,2.555,0,15897,157,meters,jsons/VE125_randls_40_rotated.json,2374522,2601712,66,Woman
93,855424,DepthScenes,duration_manipulation_targetAtFixation,jsons/VE125_randls_40_rotated.json,http://54.235.29.9/FacialAge/BNav_EC2/DepthDuration/v2_depth_duration_MTurk/v2_DepthDuration_HTML.html#76,76,1366,625,1366,768,8-21-2022,9-43-18,94,depth_duration_stimuli/002630_2014-06-24_14-47-50_094959634447_rgbf000055-resize_1/002630_2014-06-24_14-47-50_094959634447_rgbf000055-resize_1-target.png,125,3.0095,0,2463,159,meters,jsons/VE125_randls_40_rotated.json,2374522,2601712,66,Woman
94,855424,DepthScenes,duration_manipulation_targetAtFixation,jsons/VE125_randls_40_rotated.json,http://54.235.29.9/FacialAge/BNav_EC2/DepthDuration/v2_depth_duration_MTurk/v2_DepthDuration_HTML.html#76,76,1366,625,1366,768,8-21-2022,9-43-18,95,depth_duration_stimuli/000665_2014-06-09_20-42-35_260595134347_rgbf000110-resize_1/000665_2014-06-09_20-42-35_260595134347_rgbf000110-resize_1-target.png,125,3.057,0,23618,127,meters,jsons/VE125_randls_40_rotated.json,2374522,2601712,66,Woman
95,855424,DepthScenes,duration_manipulation_targetAtFixation,jsons/VE125_randls_40_rotated.json,http://54.235.29.9/FacialAge/BNav_EC2/DepthDuration/v2_depth_duration_MTurk/v2_DepthDuration_HTML.html#76,76,1366,625,1366,768,8-21-2022,9-43-18,96,depth_duration_stimuli/001150_2014-06-17_15-27-34_260595134347_rgbf000108-resize_2/001150_2014-06-17_15-27-34_260595134347_rgbf000108-resize_2-target.png,125,4.0325,0,7378,175,meters,jsons/VE125_randls_40_rotated.json,2374522,2601712,66,Woman
96,855424,DepthScenes,duration_manipulation_targetAtFixation,jsons/VE125_randls_40_rotated.json,http://54.235.29.9/FacialAge/BNav_EC2/DepthDuration/v2_depth_duration_MTurk/v2_DepthDuration_HTML.html#76,76,1366,625,1366,768,8-21-2022,9-43-18,97,depth_duration_stimuli/000635_2014-06-08_16-38-42_260595134347_rgbf000106-resize_1/000635_2014-06-08_16-38-42_260595134347_rgbf000106-resize_1-target.png,125,2.074,0,19595,124,meters,jsons/VE125_randls_40_rotated.json,2374522,2601712,66,Woman
97,855424,DepthScenes,duration_manipulation_targetAtFixation,jsons/VE125_randls_40_rotated.json,http://54.235.29.9/FacialAge/BNav_EC2/DepthDuration/v2_depth_duration_MTurk/v2_DepthDuration_HTML.html#76,76,1366,625,1366,768,8-21-2022,9-43-18,98,depth_duration_stimuli/002279_2014-06-28_18-55-32_260595134347_rgbf000040-resize_5/002279_2014-06-28_18-55-32_260595134347_rgbf000040-resize_5-target.png,125,1.5043333333333,0,8690,197,meters,jsons/VE125_randls_40_rotated.json,2374522,2601712,66,Woman
98,855424,DepthScenes,duration_manipulation_targetAtFixation,jsons/VE125_randls_40_rotated.json,http://54.235.29.9/FacialAge/BNav_EC2/DepthDuration/v2_depth_duration_MTurk/v2_DepthDuration_HTML.html#76,76,1366,625,1366,768,8-21-2022,9-43-18,99,depth_duration_stimuli/001222_2014-06-17_16-24-06_260595134347_rgbf000073-resize_0/001222_2014-06-17_16-24-06_260595134347_rgbf000073-resize-original.jpg,125,1.4385,0,17600,90,meters,jsons/VE125_randls_40_rotated.json,2374522,2601712,66,Woman
99,855424,DepthScenes,duration_manipulation_targetAtFixation,jsons/VE125_randls_40_rotated.json,http://54.235.29.9/FacialAge/BNav_EC2/DepthDuration/v2_depth_duration_MTurk/v2_DepthDuration_HTML.html#76,76,1366,625,1366,768,8-21-2022,9-43-18,100,depth_duration_stimuli/001392_2014-06-19_16-07-59_260595134347_rgbf000046-resize_1/001392_2014-06-19_16-07-59_260595134347_rgbf000046-resize_1-target.png,125,4.135,0,14896,75,meters,jsons/VE125_randls_40_rotated.json,2374522,2601712,66,Woman
100,855424,DepthScenes,duration_manipulation_targetAtFixation,jsons/VE125_randls_40_rotated.json,http://54.235.29.9/FacialAge/BNav_EC2/DepthDuration/v2_depth_duration_MTurk/v2_DepthDuration_HTML.html#76,76,1366,625,1366,768,8-21-2022,9-43-18,101,depth_duration_stimuli/001570_2014-06-20_17-21-09_260595134347_rgbf000135-resize_4/001570_2014-06-20_17-21-09_260595134347_rgbf000135-resize_4-target.png,125,4.467,0,3102,124,meters,jsons/VE125_randls_40_rotated.json,2374522,2601712,66,Woman
101,855424,DepthScenes,duration_manipulation_targetAtFixation,jsons/VE125_randls_40_rotated.json,http://54.235.29.9/FacialAge/BNav_EC2/DepthDuration/v2_depth_duration_MTurk/v2_DepthDuration_HTML.html#76,76,1366,625,1366,768,8-21-2022,9-43-18,102,depth_duration_stimuli/001650_2014-06-20_12-09-00_260595134347_rgbf000087-resize_3/001650_2014-06-20_12-09-00_260595134347_rgbf000087-resize_3-target.png,125,1.9505,0,15988,125,meters,jsons/VE125_randls_40_rotated.json,2374522,2601712,66,Woman
102,855424,DepthScenes,duration_manipulation_targetAtFixation,jsons/VE125_randls_40_rotated.json,http://54.235.29.9/FacialAge/BNav_EC2/DepthDuration/v2_depth_duration_MTurk/v2_DepthDuration_HTML.html#76,76,1366,625,1366,768,8-21-2022,9-43-18,103,depth_duration_stimuli/000682_2014-06-08_23-14-58_260595134347_rgbf000041-resize_5/000682_2014-06-08_23-14-58_260595134347_rgbf000041-resize_5-target.png,125,2.7239999999999998,0,10192,125,meters,jsons/VE125_randls_40_rotated.json,2374522,2601712,66,Woman
103,855424,DepthScenes,duration_manipulation_targetAtFixation,jsons/VE125_randls_40_rotated.json,http://54.235.29.9/FacialAge/BNav_EC2/DepthDuration/v2_depth_duration_MTurk/v2_DepthDuration_HTML.html#76,76,1366,625,1366,768,8-21-2022,9-43-18,104,depth_duration_stimuli/002209_2014-06-28_18-36-10_260595134347_rgbf000051-resize_1/002209_2014-06-28_18-36-10_260595134347_rgbf000051-resize_1-target.png,125,2.057,0,19330,126,meters,jsons/VE125_randls_40_rotated.json,2374522,2601712,66,Woman
104,855424,DepthScenes,duration_manipulation_targetAtFixation,jsons/VE125_randls_40_rotated.json,http://54.235.29.9/FacialAge/BNav_EC2/DepthDuration/v2_depth_duration_MTurk/v2_DepthDuration_HTML.html#76,76,1366,625,1366,768,8-21-2022,9-43-18,105,depth_duration_stimuli/002763_2014-06-22_19-13-10_094959634447_rgbf000075-resize_4/002763_2014-06-22_19-13-10_094959634447_rgbf000075-resize_4-target.png,125,1.68375,0,10427,124,meters,jsons/VE125_randls_40_rotated.json,2374522,2601712,66,Woman
105,855424,DepthScenes,duration_manipulation_targetAtFixation,jsons/VE125_randls_40_rotated.json,http://54.235.29.9/FacialAge/BNav_EC2/DepthDuration/v2_depth_duration_MTurk/v2_DepthDuration_HTML.html#76,76,1366,625,1366,768,8-21-2022,9-43-18,106,depth_duration_stimuli/001571_2014-06-20_17-21-32_260595134347_rgbf000089-resize_1/001571_2014-06-20_17-21-32_260595134347_rgbf000089-resize_1-target.png,125,1.86,0,10114,102,meters,jsons/VE125_randls_40_rotated.json,2374522,2601712,66,Woman
106,855424,DepthScenes,duration_manipulation_targetAtFixation,jsons/VE125_randls_40_rotated.json,http://54.235.29.9/FacialAge/BNav_EC2/DepthDuration/v2_depth_duration_MTurk/v2_DepthDuration_HTML.html#76,76,1366,625,1366,768,8-21-2022,9-43-18,107,depth_duration_stimuli/002272_2014-06-28_18-53-56_260595134347_rgbf000067-resize_2/002272_2014-06-28_18-53-56_260595134347_rgbf000067-resize_2-target.png,125,1.138,0,13987,200,meters,jsons/VE125_randls_40_rotated.json,2374522,2601712,66,Woman
107,855424,DepthScenes,duration_manipulation_targetAtFixation,jsons/VE125_randls_40_rotated.json,http://54.235.29.9/FacialAge/BNav_EC2/DepthDuration/v2_depth_duration_MTurk/v2_DepthDuration_HTML.html#76,76,1366,625,1366,768,8-21-2022,9-43-18,108,depth_duration_stimuli/003048_2014-06-15_13-49-43_094959634447_rgbf000150-resize_1/003048_2014-06-15_13-49-43_094959634447_rgbf000150-resize_1-target.png,125,4.0035,0,17812,139,meters,jsons/VE125_randls_40_rotated.json,2374522,2601712,66,Woman
108,855424,DepthScenes,duration_manipulation_targetAtFixation,jsons/VE125_randls_40_rotated.json,http://54.235.29.9/FacialAge/BNav_EC2/DepthDuration/v2_depth_duration_MTurk/v2_DepthDuration_HTML.html#76,76,1366,625,1366,768,8-21-2022,9-43-18,109,depth_duration_stimuli/002043_2014-06-24_20-29-38_260595134347_rgbf000039-resize_4/002043_2014-06-24_20-29-38_260595134347_rgbf000039-resize_4-target.png,125,2.8435,0,10505,125,meters,jsons/VE125_randls_40_rotated.json,2374522,2601712,66,Woman
109,855424,DepthScenes,duration_manipulation_targetAtFixation,jsons/VE125_randls_40_rotated.json,http://54.235.29.9/FacialAge/BNav_EC2/DepthDuration/v2_depth_duration_MTurk/v2_DepthDuration_HTML.html#76,76,1366,625,1366,768,8-21-2022,9-43-18,110,depth_duration_stimuli/003129_2014-05-12_10-48-10_094959634447_rgbf000100-resize_0/003129_2014-05-12_10-48-10_094959634447_rgbf000100-resize_0-target.png,125,4.9305,0,15511,124,meters,jsons/VE125_randls_40_rotated.json,2374522,2601712,66,Woman
110,855424,DepthScenes,duration_manipulation_targetAtFixation,jsons/VE125_randls_40_rotated.json,http://54.235.29.9/FacialAge/BNav_EC2/DepthDuration/v2_depth_duration_MTurk/v2_DepthDuration_HTML.html#76,76,1366,625,1366,768,8-21-2022,9-43-18,111,depth_duration_stimuli/000414_2014-06-04_19-49-13_260595134347_rgbf000044-resize_0/000414_2014-06-04_19-49-13_260595134347_rgbf000044-resize_0-target.png,125,4.329,0,4681,125,meters,jsons/VE125_randls_40_rotated.json,2374522,2601712,66,Woman
111,855424,DepthScenes,duration_manipulation_targetAtFixation,jsons/VE125_randls_40_rotated.json,http://54.235.29.9/FacialAge/BNav_EC2/DepthDuration/v2_depth_duration_MTurk/v2_DepthDuration_HTML.html#76,76,1366,625,1366,768,8-21-2022,9-43-18,112,depth_duration_stimuli/002344_2014-06-28_20-06-29_260595134347_rgbf000030-resize_1/002344_2014-06-28_20-06-29_260595134347_rgbf000030-resize_1-target.png,125,1.5795,0,20021,195,meters,jsons/VE125_randls_40_rotated.json,2374522,2601712,66,Woman
112,855424,DepthScenes,duration_manipulation_targetAtFixation,jsons/VE125_randls_40_rotated.json,http://54.235.29.9/FacialAge/BNav_EC2/DepthDuration/v2_depth_duration_MTurk/v2_DepthDuration_HTML.html#76,76,1366,625,1366,768,8-21-2022,9-43-18,113,depth_duration_stimuli/002725_2014-06-22_11-47-51_094959634447_rgbf000070-resize_1/002725_2014-06-22_11-47-51_094959634447_rgbf000070-resize_1-target.png,125,2.195,0,3524,100,meters,jsons/VE125_randls_40_rotated.json,2374522,2601712,66,Woman
113,855424,DepthScenes,duration_manipulation_targetAtFixation,jsons/VE125_randls_40_rotated.json,http://54.235.29.9/FacialAge/BNav_EC2/DepthDuration/v2_depth_duration_MTurk/v2_DepthDuration_HTML.html#76,76,1366,625,1366,768,8-21-2022,9-43-18,114,depth_duration_stimuli/000556_2014-06-09_22-42-56_260595134347_rgbf000214-resize_1/000556_2014-06-09_22-42-56_260595134347_rgbf000214-resize_1-target.png,125,4.8415,0,16198,130,meters,jsons/VE125_randls_40_rotated.json,2374522,2601712,66,Woman
114,855424,DepthScenes,duration_manipulation_targetAtFixation,jsons/VE125_randls_40_rotated.json,http://54.235.29.9/FacialAge/BNav_EC2/DepthDuration/v2_depth_duration_MTurk/v2_DepthDuration_HTML.html#76,76,1366,625,1366,768,8-21-2022,9-43-18,115,depth_duration_stimuli/001158_2014-06-17_15-32-16_260595134347_rgbf000138-resize_2/001158_2014-06-17_15-32-16_260595134347_rgbf000138-resize_2-target.png,125,4.5315,0,2576,123,meters,jsons/VE125_randls_40_rotated.json,2374522,2601712,66,Woman
115,855424,DepthScenes,duration_manipulation_targetAtFixation,jsons/VE125_randls_40_rotated.json,http://54.235.29.9/FacialAge/BNav_EC2/DepthDuration/v2_depth_duration_MTurk/v2_DepthDuration_HTML.html#76,76,1366,625,1366,768,8-21-2022,9-43-18,116,depth_duration_stimuli/000103_2014-05-14_22-01-17_260595134347_rgbf000152-resize_5/000103_2014-05-14_22-01-17_260595134347_rgbf000152-resize_5-target.png,125,1.993,0,14983,122,meters,jsons/VE125_randls_40_rotated.json,2374522,2601712,66,Woman
116,855424,DepthScenes,duration_manipulation_targetAtFixation,jsons/VE125_randls_40_rotated.json,http://54.235.29.9/FacialAge/BNav_EC2/DepthDuration/v2_depth_duration_MTurk/v2_DepthDuration_HTML.html#76,76,1366,625,1366,768,8-21-2022,9-43-18,117,depth_duration_stimuli/001555_2014-06-20_17-12-10_260595134347_rgbf000065-resize_4/001555_2014-06-20_17-12-10_260595134347_rgbf000065-resize_4-target.png,125,1.633,0,8455,125,meters,jsons/VE125_randls_40_rotated.json,2374522,2601712,66,Woman
117,855424,DepthScenes,duration_manipulation_targetAtFixation,jsons/VE125_randls_40_rotated.json,http://54.235.29.9/FacialAge/BNav_EC2/DepthDuration/v2_depth_duration_MTurk/v2_DepthDuration_HTML.html#76,76,1366,625,1366,768,8-21-2022,9-43-18,118,depth_duration_stimuli/001136_2014-06-17_15-19-41_260595134347_rgbf000076-resize_3/001136_2014-06-17_15-19-41_260595134347_rgbf000076-resize_3-target.png,125,1.8655,0,15154,152,meters,jsons/VE125_randls_40_rotated.json,2374522,2601712,66,Woman
118,855424,DepthScenes,duration_manipulation_targetAtFixation,jsons/VE125_randls_40_rotated.json,http://54.235.29.9/FacialAge/BNav_EC2/DepthDuration/v2_depth_duration_MTurk/v2_DepthDuration_HTML.html#76,76,1366,625,1366,768,8-21-2022,9-43-18,119,depth_duration_stimuli/001164_2014-06-17_15-35-46_260595134347_rgbf000085-resize_3/001164_2014-06-17_15-35-46_260595134347_rgbf000085-resize_3-target.png,125,2.354,0,12703,124,meters,jsons/VE125_randls_40_rotated.json,2374522,2601712,66,Woman
119,855424,DepthScenes,duration_manipulation_targetAtFixation,jsons/VE125_randls_40_rotated.json,http://54.235.29.9/FacialAge/BNav_EC2/DepthDuration/v2_depth_duration_MTurk/v2_DepthDuration_HTML.html#76,76,1366,625,1366,768,8-21-2022,9-43-18,120,depth_duration_stimuli/000787_2014-06-08_22-33-53_260595134347_rgbf000175-resize_1/000787_2014-06-08_22-33-53_260595134347_rgbf000175-resize-original.jpg,125,4.784,0,14190,124,meters,jsons/VE125_randls_40_rotated.json,2374522,2601712,66,Woman
120,855424,DepthScenes,duration_manipulation_targetAtFixation,jsons/VE125_randls_40_rotated.json,http://54.235.29.9/FacialAge/BNav_EC2/DepthDuration/v2_depth_duration_MTurk/v2_DepthDuration_HTML.html#76,76,1366,625,1366,768,8-21-2022,9-43-18,121,depth_duration_stimuli/001447_2014-06-19_17-00-32_260595134347_rgbf000082-resize_5/001447_2014-06-19_17-00-32_260595134347_rgbf000082-resize_5-target.png,125,4.13775,0,9359,118,meters,jsons/VE125_randls_40_rotated.json,2374522,2601712,66,Woman
121,855424,DepthScenes,duration_manipulation_targetAtFixation,jsons/VE125_randls_40_rotated.json,http://54.235.29.9/FacialAge/BNav_EC2/DepthDuration/v2_depth_duration_MTurk/v2_DepthDuration_HTML.html#76,76,1366,625,1366,768,8-21-2022,9-43-18,122,depth_duration_stimuli/000447_2014-06-08_16-15-46_260595134347_rgbf000130-resize_1/000447_2014-06-08_16-15-46_260595134347_rgbf000130-resize_1-target.png,125,4.479,0,3241,98,meters,jsons/VE125_randls_40_rotated.json,2374522,2601712,66,Woman
122,855424,DepthScenes,duration_manipulation_targetAtFixation,jsons/VE125_randls_40_rotated.json,http://54.235.29.9/FacialAge/BNav_EC2/DepthDuration/v2_depth_duration_MTurk/v2_DepthDuration_HTML.html#76,76,1366,625,1366,768,8-21-2022,9-43-18,123,depth_duration_stimuli/001815_2014-06-26_20-52-55_260595134347_rgbf000020-resize_0/001815_2014-06-26_20-52-55_260595134347_rgbf000020-resize_0-target.png,125,3.3865,0,17592,160,meters,jsons/VE125_randls_40_rotated.json,2374522,2601712,66,Woman
123,855424,DepthScenes,duration_manipulation_targetAtFixation,jsons/VE125_randls_40_rotated.json,http://54.235.29.9/FacialAge/BNav_EC2/DepthDuration/v2_depth_duration_MTurk/v2_DepthDuration_HTML.html#76,76,1366,625,1366,768,8-21-2022,9-43-18,124,depth_duration_stimuli/001808_2014-06-26_20-50-58_260595134347_rgbf000029-resize_1/001808_2014-06-26_20-50-58_260595134347_rgbf000029-resize_1-target.png,125,4.249,0,2681,98,meters,jsons/VE125_randls_40_rotated.json,2374522,2601712,66,Woman
124,855424,DepthScenes,duration_manipulation_targetAtFixation,jsons/VE125_randls_40_rotated.json,http://54.235.29.9/FacialAge/BNav_EC2/DepthDuration/v2_depth_duration_MTurk/v2_DepthDuration_HTML.html#76,76,1366,625,1366,768,8-21-2022,9-43-18,125,depth_duration_stimuli/000866_2014-06-09_20-45-42_260595134347_rgbf000139-resize_1/000866_2014-06-09_20-45-42_260595134347_rgbf000139-resize_1-target.png,125,3.2155,0,22465,125,meters,jsons/VE125_randls_40_rotated.json,2374522,2601712,66,Woman
125,855424,DepthScenes,duration_manipulation_targetAtFixation,jsons/VE125_randls_40_rotated.json,http://54.235.29.9/FacialAge/BNav_EC2/DepthDuration/v2_depth_duration_MTurk/v2_DepthDuration_HTML.html#76,76,1366,625,1366,768,8-21-2022,9-43-18,126,depth_duration_stimuli/002989_2014-06-15_12-25-03_094959634447_rgbf000150-resize_3/002989_2014-06-15_12-25-03_094959634447_rgbf000150-resize_3-target.png,125,4.1975,0,7623,102,meters,jsons/VE125_randls_40_rotated.json,2374522,2601712,66,Woman
126,855424,DepthScenes,duration_manipulation_targetAtFixation,jsons/VE125_randls_40_rotated.json,http://54.235.29.9/FacialAge/BNav_EC2/DepthDuration/v2_depth_duration_MTurk/v2_DepthDuration_HTML.html#76,76,1366,625,1366,768,8-21-2022,9-43-18,127,depth_duration_stimuli/003490_2014-05-21_15-50-11_094959634447_rgbf000101-resize_3/003490_2014-05-21_15-50-11_094959634447_rgbf000101-resize_3-target.png,125,3.6445,0,20778,124,meters,jsons/VE125_randls_40_rotated.json,2374522,2601712,66,Woman
127,855424,DepthScenes,duration_manipulation_targetAtFixation,jsons/VE125_randls_40_rotated.json,http://54.235.29.9/FacialAge/BNav_EC2/DepthDuration/v2_depth_duration_MTurk/v2_DepthDuration_HTML.html#76,76,1366,625,1366,768,8-21-2022,9-43-18,128,depth_duration_stimuli/001175_2014-06-17_15-45-55_260595134347_rgbf000129-resize_4/001175_2014-06-17_15-45-55_260595134347_rgbf000129-resize_4-target.png,125,4.255,0,4012,126,meters,jsons/VE125_randls_40_rotated.json,2374522,2601712,66,Woman
128,855424,DepthScenes,duration_manipulation_targetAtFixation,jsons/VE125_randls_40_rotated.json,http://54.235.29.9/FacialAge/BNav_EC2/DepthDuration/v2_depth_duration_MTurk/v2_DepthDuration_HTML.html#76,76,1366,625,1366,768,8-21-2022,9-43-18,129,depth_duration_stimuli/001516_2014-06-20_16-25-09_260595134347_rgbf000076-resize_2/001516_2014-06-20_16-25-09_260595134347_rgbf000076-resize_2-target.png,125,1.7445,0,17683,113,meters,jsons/VE125_randls_40_rotated.json,2374522,2601712,66,Woman
129,855424,DepthScenes,duration_manipulation_targetAtFixation,jsons/VE125_randls_40_rotated.json,http://54.235.29.9/FacialAge/BNav_EC2/DepthDuration/v2_depth_duration_MTurk/v2_DepthDuration_HTML.html#76,76,1366,625,1366,768,8-21-2022,9-43-18,130,depth_duration_stimuli/002118_2014-06-25_20-32-08_260595134347_rgbf000078-resize_1/002118_2014-06-25_20-32-08_260595134347_rgbf000078-resize_1-target.png,125,2.6460000000000004,0,11805,118,meters,jsons/VE125_randls_40_rotated.json,2374522,2601712,66,Woman
130,855424,DepthScenes,duration_manipulation_targetAtFixation,jsons/VE125_randls_40_rotated.json,http://54.235.29.9/FacialAge/BNav_EC2/DepthDuration/v2_depth_duration_MTurk/v2_DepthDuration_HTML.html#76,76,1366,625,1366,768,8-21-2022,9-43-18,131,depth_duration_stimuli/000677_2014-06-08_23-10-32_260595134347_rgbf000158-resize_6/000677_2014-06-08_23-10-32_260595134347_rgbf000158-resize_6-target.png,125,3.556,0,15962,125,meters,jsons/VE125_randls_40_rotated.json,2374522,2601712,66,Woman
131,855424,DepthScenes,duration_manipulation_targetAtFixation,jsons/VE125_randls_40_rotated.json,http://54.235.29.9/FacialAge/BNav_EC2/DepthDuration/v2_depth_duration_MTurk/v2_DepthDuration_HTML.html#76,76,1366,625,1366,768,8-21-2022,9-43-18,132,depth_duration_stimuli/001029_2014-06-08_13-17-57_260595134347_rgbf000065-resize_1/001029_2014-06-08_13-17-57_260595134347_rgbf000065-resize_1-target.png,125,3.0835,0,7835,125,meters,jsons/VE125_randls_40_rotated.json,2374522,2601712,66,Woman
132,855424,DepthScenes,duration_manipulation_targetAtFixation,jsons/VE125_randls_40_rotated.json,http://54.235.29.9/FacialAge/BNav_EC2/DepthDuration/v2_depth_duration_MTurk/v2_DepthDuration_HTML.html#76,76,1366,625,1366,768,8-21-2022,9-43-18,133,depth_duration_stimuli/001584_2014-06-20_11-07-43_260595134347_rgbf000002-resize_1/001584_2014-06-20_11-07-43_260595134347_rgbf000002-resize_1-target.png,125,3.53,0,21991,158,meters,jsons/VE125_randls_40_rotated.json,2374522,2601712,66,Woman
133,855424,DepthScenes,duration_manipulation_targetAtFixation,jsons/VE125_randls_40_rotated.json,http://54.235.29.9/FacialAge/BNav_EC2/DepthDuration/v2_depth_duration_MTurk/v2_DepthDuration_HTML.html#76,76,1366,625,1366,768,8-21-2022,9-43-18,134,depth_duration_stimuli/003621_2014-05-23_18-06-08_094959634447_rgbf000101-resize_1/003621_2014-05-23_18-06-08_094959634447_rgbf000101-resize_1-target.png,125,3.9835,0,4685,166,meters,jsons/VE125_randls_40_rotated.json,2374522,2601712,66,Woman
134,855424,DepthScenes,duration_manipulation_targetAtFixation,jsons/VE125_randls_40_rotated.json,http://54.235.29.9/FacialAge/BNav_EC2/DepthDuration/v2_depth_duration_MTurk/v2_DepthDuration_HTML.html#76,76,1366,625,1366,768,8-21-2022,9-43-18,135,depth_duration_stimuli/000375_2014-06-08_11-17-29_260595134347_rgbf000133-resize_2/000375_2014-06-08_11-17-29_260595134347_rgbf000133-resize-original.jpg,125,4.718,0,2744,120,meters,jsons/VE125_randls_40_rotated.json,2374522,2601712,66,Woman
135,855424,DepthScenes,duration_manipulation_targetAtFixation,jsons/VE125_randls_40_rotated.json,http://54.235.29.9/FacialAge/BNav_EC2/DepthDuration/v2_depth_duration_MTurk/v2_DepthDuration_HTML.html#76,76,1366,625,1366,768,8-21-2022,9-43-18,136,depth_duration_stimuli/002639_2014-06-24_14-51-37_094959634447_rgbf000074-resize_4/002639_2014-06-24_14-51-37_094959634447_rgbf000074-resize_4-target.png,125,4.0375,0,27271,124,meters,jsons/VE125_randls_40_rotated.json,2374522,2601712,66,Woman
136,855424,DepthScenes,duration_manipulation_targetAtFixation,jsons/VE125_randls_40_rotated.json,http://54.235.29.9/FacialAge/BNav_EC2/DepthDuration/v2_depth_duration_MTurk/v2_DepthDuration_HTML.html#76,76,1366,625,1366,768,8-21-2022,9-43-18,137,depth_duration_stimuli/003292_2014-05-14_21-53-49_094959634447_rgbf000100-resize_2/003292_2014-05-14_21-53-49_094959634447_rgbf000100-resize_2-target.png,125,3.4815,0,7603,124,meters,jsons/VE125_randls_40_rotated.json,2374522,2601712,66,Woman
137,855424,DepthScenes,duration_manipulation_targetAtFixation,jsons/VE125_randls_40_rotated.json,http://54.235.29.9/FacialAge/BNav_EC2/DepthDuration/v2_depth_duration_MTurk/v2_DepthDuration_HTML.html#76,76,1366,625,1366,768,8-21-2022,9-43-18,138,depth_duration_stimuli/000854_2014-06-09_19-43-13_260595134347_rgbf000066-resize_0/000854_2014-06-09_19-43-13_260595134347_rgbf000066-resize_0-target.png,125,3.068,0,16703,78,meters,jsons/VE125_randls_40_rotated.json,2374522,2601712,66,Woman
138,855424,DepthScenes,duration_manipulation_targetAtFixation,jsons/VE125_randls_40_rotated.json,http://54.235.29.9/FacialAge/BNav_EC2/DepthDuration/v2_depth_duration_MTurk/v2_DepthDuration_HTML.html#76,76,1366,625,1366,768,8-21-2022,9-43-18,139,depth_duration_stimuli/000758_2014-06-08_22-05-08_260595134347_rgbf000085-resize_0/000758_2014-06-08_22-05-08_260595134347_rgbf000085-resize_0-target.png,125,3.3810000000000002,0,12333,125,meters,jsons/VE125_randls_40_rotated.json,2374522,2601712,66,Woman
139,855424,DepthScenes,duration_manipulation_targetAtFixation,jsons/VE125_randls_40_rotated.json,http://54.235.29.9/FacialAge/BNav_EC2/DepthDuration/v2_depth_duration_MTurk/v2_DepthDuration_HTML.html#76,76,1366,625,1366,768,8-21-2022,9-43-18,140,depth_duration_stimuli/000409_2014-06-04_19-23-33_260595134347_rgbf000067-resize_0/000409_2014-06-04_19-23-33_260595134347_rgbf000067-resize_0-target.png,125,3.7335,0,26046,140,meters,jsons/VE125_randls_40_rotated.json,2374522,2601712,66,Woman
140,855424,DepthScenes,duration_manipulation_targetAtFixation,jsons/VE125_randls_40_rotated.json,http://54.235.29.9/FacialAge/BNav_EC2/DepthDuration/v2_depth_duration_MTurk/v2_DepthDuration_HTML.html#76,76,1366,625,1366,768,8-21-2022,9-43-18,141,depth_duration_stimuli/002663_2014-06-13_15-50-26_094959634447_rgbf000075-resize_1/002663_2014-06-13_15-50-26_094959634447_rgbf000075-resize_1-target.png,125,4.7495,0,4292,123,meters,jsons/VE125_randls_40_rotated.json,2374522,2601712,66,Woman
141,855424,DepthScenes,duration_manipulation_targetAtFixation,jsons/VE125_randls_40_rotated.json,http://54.235.29.9/FacialAge/BNav_EC2/DepthDuration/v2_depth_duration_MTurk/v2_DepthDuration_HTML.html#76,76,1366,625,1366,768,8-21-2022,9-43-18,142,depth_duration_stimuli/002323_2014-06-28_20-01-54_260595134347_rgbf000051-resize_4/002323_2014-06-28_20-01-54_260595134347_rgbf000051-resize_4-target.png,125,3.7310000000000003,0,20004,125,meters,jsons/VE125_randls_40_rotated.json,2374522,2601712,66,Woman
142,855424,DepthScenes,duration_manipulation_targetAtFixation,jsons/VE125_randls_40_rotated.json,http://54.235.29.9/FacialAge/BNav_EC2/DepthDuration/v2_depth_duration_MTurk/v2_DepthDuration_HTML.html#76,76,1366,625,1366,768,8-21-2022,9-43-18,143,depth_duration_stimuli/000917_2014-06-09_22-45-29_260595134347_rgbf000149-resize_3/000917_2014-06-09_22-45-29_260595134347_rgbf000149-resize_3-target.png,125,4.1865,0,11649,125,meters,jsons/VE125_randls_40_rotated.json,2374522,2601712,66,Woman
143,855424,DepthScenes,duration_manipulation_targetAtFixation,jsons/VE125_randls_40_rotated.json,http://54.235.29.9/FacialAge/BNav_EC2/DepthDuration/v2_depth_duration_MTurk/v2_DepthDuration_HTML.html#76,76,1366,625,1366,768,8-21-2022,9-43-18,144,depth_duration_stimuli/002995_2014-06-15_12-31-26_094959634447_rgbf000150-resize_1/002995_2014-06-15_12-31-26_094959634447_rgbf000150-resize_1-target.png,125,3.8360000000000003,0,21499,124,meters,jsons/VE125_randls_40_rotated.json,2374522,2601712,66,Woman
144,855424,DepthScenes,duration_manipulation_targetAtFixation,jsons/VE125_randls_40_rotated.json,http://54.235.29.9/FacialAge/BNav_EC2/DepthDuration/v2_depth_duration_MTurk/v2_DepthDuration_HTML.html#76,76,1366,625,1366,768,8-21-2022,9-43-18,145,depth_duration_stimuli/002748_2014-06-22_19-07-22_094959634447_rgbf000078-resize_1/002748_2014-06-22_19-07-22_094959634447_rgbf000078-resize_1-target.png,125,4.6705,5,20146,125,meters,jsons/VE125_randls_40_rotated.json,2374522,2601712,66,Woman
145,855424,DepthScenes,duration_manipulation_targetAtFixation,jsons/VE125_randls_40_rotated.json,http://54.235.29.9/FacialAge/BNav_EC2/DepthDuration/v2_depth_duration_MTurk/v2_DepthDuration_HTML.html#76,76,1366,625,1366,768,8-21-2022,9-43-18,146,depth_duration_stimuli/002414_2014-06-28_20-24-58_260595134347_rgbf000067-resize_4/002414_2014-06-28_20-24-58_260595134347_rgbf000067-resize_4-target.png,125,4.363,1,17809,127,meters,jsons/VE125_randls_40_rotated.json,2374522,2601712,66,Woman
146,855424,DepthScenes,duration_manipulation_targetAtFixation,jsons/VE125_randls_40_rotated.json,http://54.235.29.9/FacialAge/BNav_EC2/DepthDuration/v2_depth_duration_MTurk/v2_DepthDuration_HTML.html#76,76,1366,625,1366,768,8-21-2022,9-43-18,147,depth_duration_stimuli/000773_2014-06-08_22-24-54_260595134347_rgbf000093-resize_1/000773_2014-06-08_22-24-54_260595134347_rgbf000093-resize_1-target.png,125,4.973,1,12706,111,meters,jsons/VE125_randls_40_rotated.json,2374522,2601712,66,Woman
147,855424,DepthScenes,duration_manipulation_targetAtFixation,jsons/VE125_randls_40_rotated.json,http://54.235.29.9/FacialAge/BNav_EC2/DepthDuration/v2_depth_duration_MTurk/v2_DepthDuration_HTML.html#76,76,1366,625,1366,768,8-21-2022,9-43-18,148,depth_duration_stimuli/001450_2014-06-19_17-02-03_260595134347_rgbf000203-resize_4/001450_2014-06-19_17-02-03_260595134347_rgbf000203-resize_4-target.png,125,4.0106666666667,1,18162,157,meters,jsons/VE125_randls_40_rotated.json,2374522,2601712,66,Woman
148,855424,DepthScenes,duration_manipulation_targetAtFixation,jsons/VE125_randls_40_rotated.json,http://54.235.29.9/FacialAge/BNav_EC2/DepthDuration/v2_depth_duration_MTurk/v2_DepthDuration_HTML.html#76,76,1366,625,1366,768,8-21-2022,9-43-18,149,depth_duration_stimuli/001449_2014-06-19_17-01-27_260595134347_rgbf000116-resize_2/001449_2014-06-19_17-01-27_260595134347_rgbf000116-resize_2-target.png,125,3.452,1,9721,121,meters,jsons/VE125_randls_40_rotated.json,2374522,2601712,66,Woman
149,855424,DepthScenes,duration_manipulation_targetAtFixation,jsons/VE125_randls_40_rotated.json,http://54.235.29.9/FacialAge/BNav_EC2/DepthDuration/v2_depth_duration_MTurk/v2_DepthDuration_HTML.html#76,76,1366,625,1366,768,8-21-2022,9-43-18,150,depth_duration_stimuli/002657_2014-06-13_15-29-54_094959634447_rgbf000150-resize_1/002657_2014-06-13_15-29-54_094959634447_rgbf000150-resize_1-target.png,125,4.919,1,20707,125,meters,jsons/VE125_randls_40_rotated.json,2374522,2601712,66,Woman
150,855424,DepthScenes,duration_manipulation_targetAtFixation,jsons/VE125_randls_40_rotated.json,http://54.235.29.9/FacialAge/BNav_EC2/DepthDuration/v2_depth_duration_MTurk/v2_DepthDuration_HTML.html#76,76,1366,625,1366,768,8-21-2022,9-43-18,151,depth_duration_stimuli/002375_2014-06-28_20-13-44_260595134347_rgbf000032-resize_1/002375_2014-06-28_20-13-44_260595134347_rgbf000032-resize_1-target.png,125,4.0175,1,2832,160,meters,jsons/VE125_randls_40_rotated.json,2374522,2601712,66,Woman
151,855424,DepthScenes,duration_manipulation_targetAtFixation,jsons/VE125_randls_40_rotated.json,http://54.235.29.9/FacialAge/BNav_EC2/DepthDuration/v2_depth_duration_MTurk/v2_DepthDuration_HTML.html#76,76,1366,625,1366,768,8-21-2022,9-43-18,152,depth_duration_stimuli/000569_2014-06-09_22-51-47_260595134347_rgbf000141-resize_3/000569_2014-06-09_22-51-47_260595134347_rgbf000141-resize-original.jpg,125,4.512,1,13357,108,meters,jsons/VE125_randls_40_rotated.json,2374522,2601712,66,Woman
152,855424,DepthScenes,duration_manipulation_targetAtFixation,jsons/VE125_randls_40_rotated.json,http://54.235.29.9/FacialAge/BNav_EC2/DepthDuration/v2_depth_duration_MTurk/v2_DepthDuration_HTML.html#76,76,1366,625,1366,768,8-21-2022,9-43-18,153,depth_duration_stimuli/002875_2014-06-01_15-19-00_094959634447_rgbf000151-resize_1/002875_2014-06-01_15-19-00_094959634447_rgbf000151-resize_1-target.png,125,1.9675,1,2267,145,meters,jsons/VE125_randls_40_rotated.json,2374522,2601712,66,Woman
153,855424,DepthScenes,duration_manipulation_targetAtFixation,jsons/VE125_randls_40_rotated.json,http://54.235.29.9/FacialAge/BNav_EC2/DepthDuration/v2_depth_duration_MTurk/v2_DepthDuration_HTML.html#76,76,1366,625,1366,768,8-21-2022,9-43-18,154,depth_duration_stimuli/001011_2014-06-08_23-18-54_260595134347_rgbf000044-resize_4/001011_2014-06-08_23-18-54_260595134347_rgbf000044-resize_4-target.png,125,2.4730000000000003,1,18251,124,meters,jsons/VE125_randls_40_rotated.json,2374522,2601712,66,Woman
154,855424,DepthScenes,duration_manipulation_targetAtFixation,jsons/VE125_randls_40_rotated.json,http://54.235.29.9/FacialAge/BNav_EC2/DepthDuration/v2_depth_duration_MTurk/v2_DepthDuration_HTML.html#76,76,1366,625,1366,768,8-21-2022,9-43-18,155,depth_duration_stimuli/001828_2014-06-26_21-40-03_260595134347_rgbf000024-resize_0/001828_2014-06-26_21-40-03_260595134347_rgbf000024-resize_0-target.png,125,4.8260000000000005,1,20441,125,meters,jsons/VE125_randls_40_rotated.json,2374522,2601712,66,Woman
155,855424,DepthScenes,duration_manipulation_targetAtFixation,jsons/VE125_randls_40_rotated.json,http://54.235.29.9/FacialAge/BNav_EC2/DepthDuration/v2_depth_duration_MTurk/v2_DepthDuration_HTML.html#76,76,1366,625,1366,768,8-21-2022,9-43-18,156,depth_duration_stimuli/000009_2014-05-26_14-32-05_260595134347_rgbf000034-resize_3/000009_2014-05-26_14-32-05_260595134347_rgbf000034-resize_3-target.png,125,3.8715,1,3471,125,meters,jsons/VE125_randls_40_rotated.json,2374522,2601712,66,Woman
156,855424,DepthScenes,duration_manipulation_targetAtFixation,jsons/VE125_randls_40_rotated.json,http://54.235.29.9/FacialAge/BNav_EC2/DepthDuration/v2_depth_duration_MTurk/v2_DepthDuration_HTML.html#76,76,1366,625,1366,768,8-21-2022,9-43-18,157,depth_duration_stimuli/000483_2014-06-09_20-41-45_260595134347_rgbf000116-resize_4/000483_2014-06-09_20-41-45_260595134347_rgbf000116-resize_4-target.png,125,1.337,1,14039,125,meters,jsons/VE125_randls_40_rotated.json,2374522,2601712,66,Woman
157,855424,DepthScenes,duration_manipulation_targetAtFixation,jsons/VE125_randls_40_rotated.json,http://54.235.29.9/FacialAge/BNav_EC2/DepthDuration/v2_depth_duration_MTurk/v2_DepthDuration_HTML.html#76,76,1366,625,1366,768,8-21-2022,9-43-18,158,depth_duration_stimuli/000469_2014-06-09_19-42-10_260595134347_rgbf000081-resize_1/000469_2014-06-09_19-42-10_260595134347_rgbf000081-resize_1-target.png,125,1.652,1,2985,125,meters,jsons/VE125_randls_40_rotated.json,2374522,2601712,66,Woman
158,855424,DepthScenes,duration_manipulation_targetAtFixation,jsons/VE125_randls_40_rotated.json,http://54.235.29.9/FacialAge/BNav_EC2/DepthDuration/v2_depth_duration_MTurk/v2_DepthDuration_HTML.html#76,76,1366,625,1366,768,8-21-2022,9-43-18,159,depth_duration_stimuli/000109_2014-05-14_23-41-52_260595134347_rgbf000035-resize_9/000109_2014-05-14_23-41-52_260595134347_rgbf000035-resize_9-target.png,125,1.3545,1,21720,127,meters,jsons/VE125_randls_40_rotated.json,2374522,2601712,66,Woman
159,855424,DepthScenes,duration_manipulation_targetAtFixation,jsons/VE125_randls_40_rotated.json,http://54.235.29.9/FacialAge/BNav_EC2/DepthDuration/v2_depth_duration_MTurk/v2_DepthDuration_HTML.html#76,76,1366,625,1366,768,8-21-2022,9-43-18,160,depth_duration_stimuli/000470_2014-06-09_19-42-40_260595134347_rgbf000094-resize_1/000470_2014-06-09_19-42-40_260595134347_rgbf000094-resize_1-target.png,125,1.831,1,3910,156,meters,jsons/VE125_randls_40_rotated.json,2374522,2601712,66,Woman
160,855424,DepthScenes,duration_manipulation_targetAtFixation,jsons/VE125_randls_40_rotated.json,http://54.235.29.9/FacialAge/BNav_EC2/DepthDuration/v2_depth_duration_MTurk/v2_DepthDuration_HTML.html#76,76,1366,625,1366,768,8-21-2022,9-43-18,161,depth_duration_stimuli/003083_2014-06-15_15-21-03_094959634447_rgbf000063-resize_1/003083_2014-06-15_15-21-03_094959634447_rgbf000063-resize_1-target.png,125,4.1405,1,19952,156,meters,jsons/VE125_randls_40_rotated.json,2374522,2601712,66,Woman
161,855424,DepthScenes,duration_manipulation_targetAtFixation,jsons/VE125_randls_40_rotated.json,http://54.235.29.9/FacialAge/BNav_EC2/DepthDuration/v2_depth_duration_MTurk/v2_DepthDuration_HTML.html#76,76,1366,625,1366,768,8-21-2022,9-43-18,162,depth_duration_stimuli/000486_2014-06-09_20-47-20_260595134347_rgbf000143-resize_2/000486_2014-06-09_20-47-20_260595134347_rgbf000143-resize_2-target.png,125,4.8325,1,28114,128,meters,jsons/VE125_randls_40_rotated.json,2374522,2601712,66,Woman
162,855424,DepthScenes,duration_manipulation_targetAtFixation,jsons/VE125_randls_40_rotated.json,http://54.235.29.9/FacialAge/BNav_EC2/DepthDuration/v2_depth_duration_MTurk/v2_DepthDuration_HTML.html#76,76,1366,625,1366,768,8-21-2022,9-43-18,163,depth_duration_stimuli/000191_2014-05-12_17-07-38_260595134347_rgbf000199-resize_0/000191_2014-05-12_17-07-38_260595134347_rgbf000199-resize_0-target.png,125,3.7995,1,3251,177,meters,jsons/VE125_randls_40_rotated.json,2374522,2601712,66,Woman
163,855424,DepthScenes,duration_manipulation_targetAtFixation,jsons/VE125_randls_40_rotated.json,http://54.235.29.9/FacialAge/BNav_EC2/DepthDuration/v2_depth_duration_MTurk/v2_DepthDuration_HTML.html#76,76,1366,625,1366,768,8-21-2022,9-43-18,164,depth_duration_stimuli/000493_2014-06-09_21-01-18_260595134347_rgbf000196-resize_3/000493_2014-06-09_21-01-18_260595134347_rgbf000196-resize_3-target.png,125,3.44,1,23062,126,meters,jsons/VE125_randls_40_rotated.json,2374522,2601712,66,Woman
