,subjID,experimentName,versionName,sequenceName,url,selected_row,windowWidth,windowHeight,screenWidth,screenHeight,startDate,startTime,trial,stimulus,duration,actual_depth,depth_estimate,trial_RT,log_sceneDuration,unitSelection,seq_filepath,experimentTime,totalTime,age,gender
0,857628,DepthScenes,duration_manipulation_targetAtFixation,jsons/v1_VE1000_randls_35.json,http://54.235.29.9/FacialAge/BNav_EC2/DepthDuration/v2_depth_duration_MTurk/v2_DepthDuration_HTML.html#140,140,1366,768,1366,768,8-22-2022,7-59-24,1,depth_duration_stimuli/003534_2014-05-22_15-06-10_094959634447_rgbf000102-resize_4/003534_2014-05-22_15-06-10_094959634447_rgbf000102-resize_4-target.png,1000,1.426,3.0,5225,1004,meters,jsons/v1_VE1000_randls_35.json,1465165,1952755,63,Man
1,857628,DepthScenes,duration_manipulation_targetAtFixation,jsons/v1_VE1000_randls_35.json,http://54.235.29.9/FacialAge/BNav_EC2/DepthDuration/v2_depth_duration_MTurk/v2_DepthDuration_HTML.html#140,140,1366,768,1366,768,8-22-2022,7-59-24,2,depth_duration_stimuli/002637_2014-06-24_14-51-13_094959634447_rgbf000066-resize_4/002637_2014-06-24_14-51-13_094959634447_rgbf000066-resize_4-target.png,1000,1.9955,0.3,7524,1008,meters,jsons/v1_VE1000_randls_35.json,1465165,1952755,63,Man
2,857628,DepthScenes,duration_manipulation_targetAtFixation,jsons/v1_VE1000_randls_35.json,http://54.235.29.9/FacialAge/BNav_EC2/DepthDuration/v2_depth_duration_MTurk/v2_DepthDuration_HTML.html#140,140,1366,768,1366,768,8-22-2022,7-59-24,3,depth_duration_stimuli/002118_2014-06-25_20-32-08_260595134347_rgbf000078-resize_1/002118_2014-06-25_20-32-08_260595134347_rgbf000078-resize_1-target.png,1000,2.6460000000000004,3.0,9220,994,meters,jsons/v1_VE1000_randls_35.json,1465165,1952755,63,Man
3,857628,DepthScenes,duration_manipulation_targetAtFixation,jsons/v1_VE1000_randls_35.json,http://54.235.29.9/FacialAge/BNav_EC2/DepthDuration/v2_depth_duration_MTurk/v2_DepthDuration_HTML.html#140,140,1366,768,1366,768,8-22-2022,7-59-24,4,depth_duration_stimuli/001516_2014-06-20_16-25-09_260595134347_rgbf000076-resize_2/001516_2014-06-20_16-25-09_260595134347_rgbf000076-resize_2-target.png,1000,1.7445,2.0,6710,1007,meters,jsons/v1_VE1000_randls_35.json,1465165,1952755,63,Man
4,857628,DepthScenes,duration_manipulation_targetAtFixation,jsons/v1_VE1000_randls_35.json,http://54.235.29.9/FacialAge/BNav_EC2/DepthDuration/v2_depth_duration_MTurk/v2_DepthDuration_HTML.html#140,140,1366,768,1366,768,8-22-2022,7-59-24,5,depth_duration_stimuli/000368_2014-06-09_15-53-01_260595134347_rgbf000155-resize_2/000368_2014-06-09_15-53-01_260595134347_rgbf000155-resize_2-target.png,1000,2.4859999999999998,2.0,7932,1005,meters,jsons/v1_VE1000_randls_35.json,1465165,1952755,63,Man
5,857628,DepthScenes,duration_manipulation_targetAtFixation,jsons/v1_VE1000_randls_35.json,http://54.235.29.9/FacialAge/BNav_EC2/DepthDuration/v2_depth_duration_MTurk/v2_DepthDuration_HTML.html#140,140,1366,768,1366,768,8-22-2022,7-59-24,6,depth_duration_stimuli/002678_2014-06-13_16-15-32_094959634447_rgbf000151-resize_6/002678_2014-06-13_16-15-32_094959634447_rgbf000151-resize_6-target.png,1000,2.1830000000000003,2.0,6088,1011,meters,jsons/v1_VE1000_randls_35.json,1465165,1952755,63,Man
6,857628,DepthScenes,duration_manipulation_targetAtFixation,jsons/v1_VE1000_randls_35.json,http://54.235.29.9/FacialAge/BNav_EC2/DepthDuration/v2_depth_duration_MTurk/v2_DepthDuration_HTML.html#140,140,1366,768,1366,768,8-22-2022,7-59-24,7,depth_duration_stimuli/001056_2014-06-08_18-46-44_260595134347_rgbf000068-resize_0/001056_2014-06-08_18-46-44_260595134347_rgbf000068-resize_0-target.png,1000,2.6625,2.5,11683,998,meters,jsons/v1_VE1000_randls_35.json,1465165,1952755,63,Man
7,857628,DepthScenes,duration_manipulation_targetAtFixation,jsons/v1_VE1000_randls_35.json,http://54.235.29.9/FacialAge/BNav_EC2/DepthDuration/v2_depth_duration_MTurk/v2_DepthDuration_HTML.html#140,140,1366,768,1366,768,8-22-2022,7-59-24,8,depth_duration_stimuli/002199_2014-06-28_18-33-56_260595134347_rgbf000074-resize_0/002199_2014-06-28_18-33-56_260595134347_rgbf000074-resize_0-target.png,1000,1.996,7.0,13329,1004,meters,jsons/v1_VE1000_randls_35.json,1465165,1952755,63,Man
8,857628,DepthScenes,duration_manipulation_targetAtFixation,jsons/v1_VE1000_randls_35.json,http://54.235.29.9/FacialAge/BNav_EC2/DepthDuration/v2_depth_duration_MTurk/v2_DepthDuration_HTML.html#140,140,1366,768,1366,768,8-22-2022,7-59-24,9,depth_duration_stimuli/002784_2014-06-22_19-26-30_094959634447_rgbf000083-resize_3/002784_2014-06-22_19-26-30_094959634447_rgbf000083-resize_3-target.png,1000,1.8046666666667,0.4,18954,994,meters,jsons/v1_VE1000_randls_35.json,1465165,1952755,63,Man
9,857628,DepthScenes,duration_manipulation_targetAtFixation,jsons/v1_VE1000_randls_35.json,http://54.235.29.9/FacialAge/BNav_EC2/DepthDuration/v2_depth_duration_MTurk/v2_DepthDuration_HTML.html#140,140,1366,768,1366,768,8-22-2022,7-59-24,10,depth_duration_stimuli/001100_2014-06-15_17-46-26_260595134347_rgbf000225-resize_2/001100_2014-06-15_17-46-26_260595134347_rgbf000225-resize_2-target.png,1000,2.24,3.0,13823,1005,meters,jsons/v1_VE1000_randls_35.json,1465165,1952755,63,Man
10,857628,DepthScenes,duration_manipulation_targetAtFixation,jsons/v1_VE1000_randls_35.json,http://54.235.29.9/FacialAge/BNav_EC2/DepthDuration/v2_depth_duration_MTurk/v2_DepthDuration_HTML.html#140,140,1366,768,1366,768,8-22-2022,7-59-24,11,depth_duration_stimuli/001133_2014-06-17_14-49-16_260595134347_rgbf000100-resize_0/001133_2014-06-17_14-49-16_260595134347_rgbf000100-resize_0-target.png,1000,4.2115,2.0,15277,1031,meters,jsons/v1_VE1000_randls_35.json,1465165,1952755,63,Man
11,857628,DepthScenes,duration_manipulation_targetAtFixation,jsons/v1_VE1000_randls_35.json,http://54.235.29.9/FacialAge/BNav_EC2/DepthDuration/v2_depth_duration_MTurk/v2_DepthDuration_HTML.html#140,140,1366,768,1366,768,8-22-2022,7-59-24,12,depth_duration_stimuli/001132_2014-06-17_14-48-54_260595134347_rgbf000100-resize_2/001132_2014-06-17_14-48-54_260595134347_rgbf000100-resize_2-target.png,1000,3.753,1.0,9573,999,meters,jsons/v1_VE1000_randls_35.json,1465165,1952755,63,Man
12,857628,DepthScenes,duration_manipulation_targetAtFixation,jsons/v1_VE1000_randls_35.json,http://54.235.29.9/FacialAge/BNav_EC2/DepthDuration/v2_depth_duration_MTurk/v2_DepthDuration_HTML.html#140,140,1366,768,1366,768,8-22-2022,7-59-24,13,depth_duration_stimuli/000569_2014-06-09_22-51-47_260595134347_rgbf000141-resize_3/000569_2014-06-09_22-51-47_260595134347_rgbf000141-resize-original.jpg,1000,4.512,0.0,5383,888,meters,jsons/v1_VE1000_randls_35.json,1465165,1952755,63,Man
13,857628,DepthScenes,duration_manipulation_targetAtFixation,jsons/v1_VE1000_randls_35.json,http://54.235.29.9/FacialAge/BNav_EC2/DepthDuration/v2_depth_duration_MTurk/v2_DepthDuration_HTML.html#140,140,1366,768,1366,768,8-22-2022,7-59-24,14,depth_duration_stimuli/002039_2014-06-24_20-22-38_260595134347_rgbf000084-resize_1/002039_2014-06-24_20-22-38_260595134347_rgbf000084-resize_1-target.png,1000,4.408,1.0,11355,1001,meters,jsons/v1_VE1000_randls_35.json,1465165,1952755,63,Man
14,857628,DepthScenes,duration_manipulation_targetAtFixation,jsons/v1_VE1000_randls_35.json,http://54.235.29.9/FacialAge/BNav_EC2/DepthDuration/v2_depth_duration_MTurk/v2_DepthDuration_HTML.html#140,140,1366,768,1366,768,8-22-2022,7-59-24,15,depth_duration_stimuli/002103_2014-06-25_20-00-40_260595134347_rgbf000049-resize_0/002103_2014-06-25_20-00-40_260595134347_rgbf000049-resize_0-target.png,1000,4.105,3.0,11109,993,meters,jsons/v1_VE1000_randls_35.json,1465165,1952755,63,Man
15,857628,DepthScenes,duration_manipulation_targetAtFixation,jsons/v1_VE1000_randls_35.json,http://54.235.29.9/FacialAge/BNav_EC2/DepthDuration/v2_depth_duration_MTurk/v2_DepthDuration_HTML.html#140,140,1366,768,1366,768,8-22-2022,7-59-24,16,depth_duration_stimuli/001016_2014-06-09_16-16-10_260595134347_rgbf000112-resize_5/001016_2014-06-09_16-16-10_260595134347_rgbf000112-resize_5-target.png,1000,1.6565,0.2,16689,1003,meters,jsons/v1_VE1000_randls_35.json,1465165,1952755,63,Man
16,857628,DepthScenes,duration_manipulation_targetAtFixation,jsons/v1_VE1000_randls_35.json,http://54.235.29.9/FacialAge/BNav_EC2/DepthDuration/v2_depth_duration_MTurk/v2_DepthDuration_HTML.html#140,140,1366,768,1366,768,8-22-2022,7-59-24,17,depth_duration_stimuli/002340_2014-06-28_20-05-46_260595134347_rgbf000113-resize_0/002340_2014-06-28_20-05-46_260595134347_rgbf000113-resize_0-target.png,1000,2.4735,0.5,16612,1000,meters,jsons/v1_VE1000_randls_35.json,1465165,1952755,63,Man
17,857628,DepthScenes,duration_manipulation_targetAtFixation,jsons/v1_VE1000_randls_35.json,http://54.235.29.9/FacialAge/BNav_EC2/DepthDuration/v2_depth_duration_MTurk/v2_DepthDuration_HTML.html#140,140,1366,768,1366,768,8-22-2022,7-59-24,18,depth_duration_stimuli/002043_2014-06-24_20-29-38_260595134347_rgbf000039-resize_4/002043_2014-06-24_20-29-38_260595134347_rgbf000039-resize_4-target.png,1000,2.8435,0.3,6728,990,meters,jsons/v1_VE1000_randls_35.json,1465165,1952755,63,Man
18,857628,DepthScenes,duration_manipulation_targetAtFixation,jsons/v1_VE1000_randls_35.json,http://54.235.29.9/FacialAge/BNav_EC2/DepthDuration/v2_depth_duration_MTurk/v2_DepthDuration_HTML.html#140,140,1366,768,1366,768,8-22-2022,7-59-24,19,depth_duration_stimuli/003048_2014-06-15_13-49-43_094959634447_rgbf000150-resize_1/003048_2014-06-15_13-49-43_094959634447_rgbf000150-resize_1-target.png,1000,4.0035,0.4,22780,1004,meters,jsons/v1_VE1000_randls_35.json,1465165,1952755,63,Man
19,857628,DepthScenes,duration_manipulation_targetAtFixation,jsons/v1_VE1000_randls_35.json,http://54.235.29.9/FacialAge/BNav_EC2/DepthDuration/v2_depth_duration_MTurk/v2_DepthDuration_HTML.html#140,140,1366,768,1366,768,8-22-2022,7-59-24,20,depth_duration_stimuli/001029_2014-06-08_13-17-57_260595134347_rgbf000065-resize_1/001029_2014-06-08_13-17-57_260595134347_rgbf000065-resize_1-target.png,1000,3.0835,0.9,12680,996,meters,jsons/v1_VE1000_randls_35.json,1465165,1952755,63,Man
20,857628,DepthScenes,duration_manipulation_targetAtFixation,jsons/v1_VE1000_randls_35.json,http://54.235.29.9/FacialAge/BNav_EC2/DepthDuration/v2_depth_duration_MTurk/v2_DepthDuration_HTML.html#140,140,1366,768,1366,768,8-22-2022,7-59-24,21,depth_duration_stimuli/000677_2014-06-08_23-10-32_260595134347_rgbf000158-resize_6/000677_2014-06-08_23-10-32_260595134347_rgbf000158-resize_6-target.png,1000,3.556,0.9,9465,1023,meters,jsons/v1_VE1000_randls_35.json,1465165,1952755,63,Man
21,857628,DepthScenes,duration_manipulation_targetAtFixation,jsons/v1_VE1000_randls_35.json,http://54.235.29.9/FacialAge/BNav_EC2/DepthDuration/v2_depth_duration_MTurk/v2_DepthDuration_HTML.html#140,140,1366,768,1366,768,8-22-2022,7-59-24,22,depth_duration_stimuli/002989_2014-06-15_12-25-03_094959634447_rgbf000150-resize_3/002989_2014-06-15_12-25-03_094959634447_rgbf000150-resize_3-target.png,1000,4.1975,0.2,6844,1003,meters,jsons/v1_VE1000_randls_35.json,1465165,1952755,63,Man
22,857628,DepthScenes,duration_manipulation_targetAtFixation,jsons/v1_VE1000_randls_35.json,http://54.235.29.9/FacialAge/BNav_EC2/DepthDuration/v2_depth_duration_MTurk/v2_DepthDuration_HTML.html#140,140,1366,768,1366,768,8-22-2022,7-59-24,23,depth_duration_stimuli/000866_2014-06-09_20-45-42_260595134347_rgbf000139-resize_1/000866_2014-06-09_20-45-42_260595134347_rgbf000139-resize_1-target.png,1000,3.2155,0.4,34696,1004,meters,jsons/v1_VE1000_randls_35.json,1465165,1952755,63,Man
23,857628,DepthScenes,duration_manipulation_targetAtFixation,jsons/v1_VE1000_randls_35.json,http://54.235.29.9/FacialAge/BNav_EC2/DepthDuration/v2_depth_duration_MTurk/v2_DepthDuration_HTML.html#140,140,1366,768,1366,768,8-22-2022,7-59-24,24,depth_duration_stimuli/000414_2014-06-04_19-49-13_260595134347_rgbf000044-resize_0/000414_2014-06-04_19-49-13_260595134347_rgbf000044-resize_0-target.png,1000,4.329,0.8,12994,1071,meters,jsons/v1_VE1000_randls_35.json,1465165,1952755,63,Man
24,857628,DepthScenes,duration_manipulation_targetAtFixation,jsons/v1_VE1000_randls_35.json,http://54.235.29.9/FacialAge/BNav_EC2/DepthDuration/v2_depth_duration_MTurk/v2_DepthDuration_HTML.html#140,140,1366,768,1366,768,8-22-2022,7-59-24,25,depth_duration_stimuli/003129_2014-05-12_10-48-10_094959634447_rgbf000100-resize_0/003129_2014-05-12_10-48-10_094959634447_rgbf000100-resize_0-target.png,1000,4.9305,0.6,7970,1007,meters,jsons/v1_VE1000_randls_35.json,1465165,1952755,63,Man
25,857628,DepthScenes,duration_manipulation_targetAtFixation,jsons/v1_VE1000_randls_35.json,http://54.235.29.9/FacialAge/BNav_EC2/DepthDuration/v2_depth_duration_MTurk/v2_DepthDuration_HTML.html#140,140,1366,768,1366,768,8-22-2022,7-59-24,26,depth_duration_stimuli/000009_2014-05-26_14-32-05_260595134347_rgbf000034-resize_3/000009_2014-05-26_14-32-05_260595134347_rgbf000034-resize_3-target.png,1000,3.8715,0.3,6850,987,meters,jsons/v1_VE1000_randls_35.json,1465165,1952755,63,Man
26,857628,DepthScenes,duration_manipulation_targetAtFixation,jsons/v1_VE1000_randls_35.json,http://54.235.29.9/FacialAge/BNav_EC2/DepthDuration/v2_depth_duration_MTurk/v2_DepthDuration_HTML.html#140,140,1366,768,1366,768,8-22-2022,7-59-24,27,depth_duration_stimuli/001828_2014-06-26_21-40-03_260595134347_rgbf000024-resize_0/001828_2014-06-26_21-40-03_260595134347_rgbf000024-resize_0-target.png,1000,4.8260000000000005,0.6,11444,992,meters,jsons/v1_VE1000_randls_35.json,1465165,1952755,63,Man
27,857628,DepthScenes,duration_manipulation_targetAtFixation,jsons/v1_VE1000_randls_35.json,http://54.235.29.9/FacialAge/BNav_EC2/DepthDuration/v2_depth_duration_MTurk/v2_DepthDuration_HTML.html#140,140,1366,768,1366,768,8-22-2022,7-59-24,28,depth_duration_stimuli/002570_2014-06-24_13-59-54_094959634447_rgbf000059-resize_0/002570_2014-06-24_13-59-54_094959634447_rgbf000059-resize_0-target.png,1000,4.037,2.0,7394,1005,meters,jsons/v1_VE1000_randls_35.json,1465165,1952755,63,Man
28,857628,DepthScenes,duration_manipulation_targetAtFixation,jsons/v1_VE1000_randls_35.json,http://54.235.29.9/FacialAge/BNav_EC2/DepthDuration/v2_depth_duration_MTurk/v2_DepthDuration_HTML.html#140,140,1366,768,1366,768,8-22-2022,7-59-24,29,depth_duration_stimuli/002467_2014-06-28_20-38-07_260595134347_rgbf000026-resize_2/002467_2014-06-28_20-38-07_260595134347_rgbf000026-resize_2-target.png,1000,4.742,0.4,8252,994,meters,jsons/v1_VE1000_randls_35.json,1465165,1952755,63,Man
29,857628,DepthScenes,duration_manipulation_targetAtFixation,jsons/v1_VE1000_randls_35.json,http://54.235.29.9/FacialAge/BNav_EC2/DepthDuration/v2_depth_duration_MTurk/v2_DepthDuration_HTML.html#140,140,1366,768,1366,768,8-22-2022,7-59-24,30,depth_duration_stimuli/000375_2014-06-08_11-17-29_260595134347_rgbf000133-resize_2/000375_2014-06-08_11-17-29_260595134347_rgbf000133-resize-original.jpg,1000,4.718,0.0,4763,997,meters,jsons/v1_VE1000_randls_35.json,1465165,1952755,63,Man
30,857628,DepthScenes,duration_manipulation_targetAtFixation,jsons/v1_VE1000_randls_35.json,http://54.235.29.9/FacialAge/BNav_EC2/DepthDuration/v2_depth_duration_MTurk/v2_DepthDuration_HTML.html#140,140,1366,768,1366,768,8-22-2022,7-59-24,31,depth_duration_stimuli/002663_2014-06-13_15-50-26_094959634447_rgbf000075-resize_1/002663_2014-06-13_15-50-26_094959634447_rgbf000075-resize_1-target.png,1000,4.7495,0.7,14681,1008,meters,jsons/v1_VE1000_randls_35.json,1465165,1952755,63,Man
31,857628,DepthScenes,duration_manipulation_targetAtFixation,jsons/v1_VE1000_randls_35.json,http://54.235.29.9/FacialAge/BNav_EC2/DepthDuration/v2_depth_duration_MTurk/v2_DepthDuration_HTML.html#140,140,1366,768,1366,768,8-22-2022,7-59-24,32,depth_duration_stimuli/000409_2014-06-04_19-23-33_260595134347_rgbf000067-resize_0/000409_2014-06-04_19-23-33_260595134347_rgbf000067-resize_0-target.png,1000,3.7335,0.6,12402,987,meters,jsons/v1_VE1000_randls_35.json,1465165,1952755,63,Man
32,857628,DepthScenes,duration_manipulation_targetAtFixation,jsons/v1_VE1000_randls_35.json,http://54.235.29.9/FacialAge/BNav_EC2/DepthDuration/v2_depth_duration_MTurk/v2_DepthDuration_HTML.html#140,140,1366,768,1366,768,8-22-2022,7-59-24,33,depth_duration_stimuli/001150_2014-06-17_15-27-34_260595134347_rgbf000108-resize_2/001150_2014-06-17_15-27-34_260595134347_rgbf000108-resize_2-target.png,1000,4.0325,0.9,9694,1009,meters,jsons/v1_VE1000_randls_35.json,1465165,1952755,63,Man
33,857628,DepthScenes,duration_manipulation_targetAtFixation,jsons/v1_VE1000_randls_35.json,http://54.235.29.9/FacialAge/BNav_EC2/DepthDuration/v2_depth_duration_MTurk/v2_DepthDuration_HTML.html#140,140,1366,768,1366,768,8-22-2022,7-59-24,34,depth_duration_stimuli/000665_2014-06-09_20-42-35_260595134347_rgbf000110-resize_1/000665_2014-06-09_20-42-35_260595134347_rgbf000110-resize_1-target.png,1000,3.057,1.0,8091,998,meters,jsons/v1_VE1000_randls_35.json,1465165,1952755,63,Man
34,857628,DepthScenes,duration_manipulation_targetAtFixation,jsons/v1_VE1000_randls_35.json,http://54.235.29.9/FacialAge/BNav_EC2/DepthDuration/v2_depth_duration_MTurk/v2_DepthDuration_HTML.html#140,140,1366,768,1366,768,8-22-2022,7-59-24,35,depth_duration_stimuli/003292_2014-05-14_21-53-49_094959634447_rgbf000100-resize_2/003292_2014-05-14_21-53-49_094959634447_rgbf000100-resize_2-target.png,1000,3.4815,2.0,5547,1002,meters,jsons/v1_VE1000_randls_35.json,1465165,1952755,63,Man
35,857628,DepthScenes,duration_manipulation_targetAtFixation,jsons/v1_VE1000_randls_35.json,http://54.235.29.9/FacialAge/BNav_EC2/DepthDuration/v2_depth_duration_MTurk/v2_DepthDuration_HTML.html#140,140,1366,768,1366,768,8-22-2022,7-59-24,36,depth_duration_stimuli/002639_2014-06-24_14-51-37_094959634447_rgbf000074-resize_4/002639_2014-06-24_14-51-37_094959634447_rgbf000074-resize_4-target.png,1000,4.0375,2.0,5062,999,meters,jsons/v1_VE1000_randls_35.json,1465165,1952755,63,Man
36,857628,DepthScenes,duration_manipulation_targetAtFixation,jsons/v1_VE1000_randls_35.json,http://54.235.29.9/FacialAge/BNav_EC2/DepthDuration/v2_depth_duration_MTurk/v2_DepthDuration_HTML.html#140,140,1366,768,1366,768,8-22-2022,7-59-24,37,depth_duration_stimuli/003621_2014-05-23_18-06-08_094959634447_rgbf000101-resize_1/003621_2014-05-23_18-06-08_094959634447_rgbf000101-resize_1-target.png,1000,3.9835,4.0,7136,995,meters,jsons/v1_VE1000_randls_35.json,1465165,1952755,63,Man
37,857628,DepthScenes,duration_manipulation_targetAtFixation,jsons/v1_VE1000_randls_35.json,http://54.235.29.9/FacialAge/BNav_EC2/DepthDuration/v2_depth_duration_MTurk/v2_DepthDuration_HTML.html#140,140,1366,768,1366,768,8-22-2022,7-59-24,38,depth_duration_stimuli/001584_2014-06-20_11-07-43_260595134347_rgbf000002-resize_1/001584_2014-06-20_11-07-43_260595134347_rgbf000002-resize_1-target.png,1000,3.53,3.0,11600,999,meters,jsons/v1_VE1000_randls_35.json,1465165,1952755,63,Man
38,857628,DepthScenes,duration_manipulation_targetAtFixation,jsons/v1_VE1000_randls_35.json,http://54.235.29.9/FacialAge/BNav_EC2/DepthDuration/v2_depth_duration_MTurk/v2_DepthDuration_HTML.html#140,140,1366,768,1366,768,8-22-2022,7-59-24,39,depth_duration_stimuli/001570_2014-06-20_17-21-09_260595134347_rgbf000135-resize_4/001570_2014-06-20_17-21-09_260595134347_rgbf000135-resize_4-target.png,1000,4.467,0.3,5631,994,meters,jsons/v1_VE1000_randls_35.json,1465165,1952755,63,Man
39,857628,DepthScenes,duration_manipulation_targetAtFixation,jsons/v1_VE1000_randls_35.json,http://54.235.29.9/FacialAge/BNav_EC2/DepthDuration/v2_depth_duration_MTurk/v2_DepthDuration_HTML.html#140,140,1366,768,1366,768,8-22-2022,7-59-24,40,depth_duration_stimuli/001392_2014-06-19_16-07-59_260595134347_rgbf000046-resize_1/001392_2014-06-19_16-07-59_260595134347_rgbf000046-resize_1-target.png,1000,4.135,0.4,8529,1010,meters,jsons/v1_VE1000_randls_35.json,1465165,1952755,63,Man
40,857628,DepthScenes,duration_manipulation_targetAtFixation,jsons/v1_VE1000_randls_35.json,http://54.235.29.9/FacialAge/BNav_EC2/DepthDuration/v2_depth_duration_MTurk/v2_DepthDuration_HTML.html#140,140,1366,768,1366,768,8-22-2022,7-59-24,41,depth_duration_stimuli/000929_2014-06-09_16-33-19_260595134347_rgbf000139-resize_0/000929_2014-06-09_16-33-19_260595134347_rgbf000139-resize_0-target.png,1000,2.8680000000000003,0.5,11337,996,meters,jsons/v1_VE1000_randls_35.json,1465165,1952755,63,Man
41,857628,DepthScenes,duration_manipulation_targetAtFixation,jsons/v1_VE1000_randls_35.json,http://54.235.29.9/FacialAge/BNav_EC2/DepthDuration/v2_depth_duration_MTurk/v2_DepthDuration_HTML.html#140,140,1366,768,1366,768,8-22-2022,7-59-24,42,depth_duration_stimuli/000457_2014-06-08_16-52-43_260595134347_rgbf000199-resize_1/000457_2014-06-08_16-52-43_260595134347_rgbf000199-resize_1-target.png,1000,3.6489999999999996,2.0,6074,1005,meters,jsons/v1_VE1000_randls_35.json,1465165,1952755,63,Man
42,857628,DepthScenes,duration_manipulation_targetAtFixation,jsons/v1_VE1000_randls_35.json,http://54.235.29.9/FacialAge/BNav_EC2/DepthDuration/v2_depth_duration_MTurk/v2_DepthDuration_HTML.html#140,140,1366,768,1366,768,8-22-2022,7-59-24,43,depth_duration_stimuli/001199_2014-06-17_16-03-48_260595134347_rgbf000077-resize_0/001199_2014-06-17_16-03-48_260595134347_rgbf000077-resize_0-target.png,1000,3.4375,4.0,5253,1000,meters,jsons/v1_VE1000_randls_35.json,1465165,1952755,63,Man
43,857628,DepthScenes,duration_manipulation_targetAtFixation,jsons/v1_VE1000_randls_35.json,http://54.235.29.9/FacialAge/BNav_EC2/DepthDuration/v2_depth_duration_MTurk/v2_DepthDuration_HTML.html#140,140,1366,768,1366,768,8-22-2022,7-59-24,44,depth_duration_stimuli/000502_2014-06-08_23-02-32_260595134347_rgbf000063-resize_4/000502_2014-06-08_23-02-32_260595134347_rgbf000063-resize_4-target.png,1000,2.431,1.0,9339,1004,meters,jsons/v1_VE1000_randls_35.json,1465165,1952755,63,Man
44,857628,DepthScenes,duration_manipulation_targetAtFixation,jsons/v1_VE1000_randls_35.json,http://54.235.29.9/FacialAge/BNav_EC2/DepthDuration/v2_depth_duration_MTurk/v2_DepthDuration_HTML.html#140,140,1366,768,1366,768,8-22-2022,7-59-24,45,depth_duration_stimuli/000787_2014-06-08_22-33-53_260595134347_rgbf000175-resize_1/000787_2014-06-08_22-33-53_260595134347_rgbf000175-resize-original.jpg,1000,4.784,0.0,5430,992,meters,jsons/v1_VE1000_randls_35.json,1465165,1952755,63,Man
45,857628,DepthScenes,duration_manipulation_targetAtFixation,jsons/v1_VE1000_randls_35.json,http://54.235.29.9/FacialAge/BNav_EC2/DepthDuration/v2_depth_duration_MTurk/v2_DepthDuration_HTML.html#140,140,1366,768,1366,768,8-22-2022,7-59-24,46,depth_duration_stimuli/000522_2014-06-08_13-35-06_260595134347_rgbf000244-resize_1/000522_2014-06-08_13-35-06_260595134347_rgbf000244-resize_1-target.png,1000,2.3715,2.0,6383,1011,meters,jsons/v1_VE1000_randls_35.json,1465165,1952755,63,Man
46,857628,DepthScenes,duration_manipulation_targetAtFixation,jsons/v1_VE1000_randls_35.json,http://54.235.29.9/FacialAge/BNav_EC2/DepthDuration/v2_depth_duration_MTurk/v2_DepthDuration_HTML.html#140,140,1366,768,1366,768,8-22-2022,7-59-24,47,depth_duration_stimuli/002949_2014-06-26_15-57-42_094959634447_rgbf000079-resize_1/002949_2014-06-26_15-57-42_094959634447_rgbf000079-resize_1-target.png,1000,1.8915,0.9,11133,982,meters,jsons/v1_VE1000_randls_35.json,1465165,1952755,63,Man
47,857628,DepthScenes,duration_manipulation_targetAtFixation,jsons/v1_VE1000_randls_35.json,http://54.235.29.9/FacialAge/BNav_EC2/DepthDuration/v2_depth_duration_MTurk/v2_DepthDuration_HTML.html#140,140,1366,768,1366,768,8-22-2022,7-59-24,48,depth_duration_stimuli/001011_2014-06-08_23-18-54_260595134347_rgbf000044-resize_4/001011_2014-06-08_23-18-54_260595134347_rgbf000044-resize_4-target.png,1000,2.4730000000000003,1.0,6337,1004,meters,jsons/v1_VE1000_randls_35.json,1465165,1952755,63,Man
48,857628,DepthScenes,duration_manipulation_targetAtFixation,jsons/v1_VE1000_randls_35.json,http://54.235.29.9/FacialAge/BNav_EC2/DepthDuration/v2_depth_duration_MTurk/v2_DepthDuration_HTML.html#140,140,1366,768,1366,768,8-22-2022,7-59-24,49,depth_duration_stimuli/002875_2014-06-01_15-19-00_094959634447_rgbf000151-resize_1/002875_2014-06-01_15-19-00_094959634447_rgbf000151-resize_1-target.png,1000,1.9675,0.7,8733,999,meters,jsons/v1_VE1000_randls_35.json,1465165,1952755,63,Man
49,857628,DepthScenes,duration_manipulation_targetAtFixation,jsons/v1_VE1000_randls_35.json,http://54.235.29.9/FacialAge/BNav_EC2/DepthDuration/v2_depth_duration_MTurk/v2_DepthDuration_HTML.html#140,140,1366,768,1366,768,8-22-2022,7-59-24,50,depth_duration_stimuli/001808_2014-06-26_20-50-58_260595134347_rgbf000029-resize_1/001808_2014-06-26_20-50-58_260595134347_rgbf000029-resize_1-target.png,1000,4.249,2.0,6960,989,meters,jsons/v1_VE1000_randls_35.json,1465165,1952755,63,Man
50,857628,DepthScenes,duration_manipulation_targetAtFixation,jsons/v1_VE1000_randls_35.json,http://54.235.29.9/FacialAge/BNav_EC2/DepthDuration/v2_depth_duration_MTurk/v2_DepthDuration_HTML.html#140,140,1366,768,1366,768,8-22-2022,7-59-24,51,depth_duration_stimuli/001815_2014-06-26_20-52-55_260595134347_rgbf000020-resize_0/001815_2014-06-26_20-52-55_260595134347_rgbf000020-resize_0-target.png,1000,3.3865,3.0,6110,993,meters,jsons/v1_VE1000_randls_35.json,1465165,1952755,63,Man
51,857628,DepthScenes,duration_manipulation_targetAtFixation,jsons/v1_VE1000_randls_35.json,http://54.235.29.9/FacialAge/BNav_EC2/DepthDuration/v2_depth_duration_MTurk/v2_DepthDuration_HTML.html#140,140,1366,768,1366,768,8-22-2022,7-59-24,52,depth_duration_stimuli/001244_2014-06-17_16-47-45_260595134347_rgbf000030-resize_4/001244_2014-06-17_16-47-45_260595134347_rgbf000030-resize_4-target.png,1000,2.0425,4.0,5471,999,meters,jsons/v1_VE1000_randls_35.json,1465165,1952755,63,Man
52,857628,DepthScenes,duration_manipulation_targetAtFixation,jsons/v1_VE1000_randls_35.json,http://54.235.29.9/FacialAge/BNav_EC2/DepthDuration/v2_depth_duration_MTurk/v2_DepthDuration_HTML.html#140,140,1366,768,1366,768,8-22-2022,7-59-24,53,depth_duration_stimuli/003495_2014-05-21_16-01-51_094959634447_rgbf000100-resize_3/003495_2014-05-21_16-01-51_094959634447_rgbf000100-resize_3-target.png,1000,1.6255,0.5,7573,1008,meters,jsons/v1_VE1000_randls_35.json,1465165,1952755,63,Man
53,857628,DepthScenes,duration_manipulation_targetAtFixation,jsons/v1_VE1000_randls_35.json,http://54.235.29.9/FacialAge/BNav_EC2/DepthDuration/v2_depth_duration_MTurk/v2_DepthDuration_HTML.html#140,140,1366,768,1366,768,8-22-2022,7-59-24,54,depth_duration_stimuli/000470_2014-06-09_19-42-40_260595134347_rgbf000094-resize_1/000470_2014-06-09_19-42-40_260595134347_rgbf000094-resize_1-target.png,1000,1.831,0.6,11323,994,meters,jsons/v1_VE1000_randls_35.json,1465165,1952755,63,Man
54,857628,DepthScenes,duration_manipulation_targetAtFixation,jsons/v1_VE1000_randls_35.json,http://54.235.29.9/FacialAge/BNav_EC2/DepthDuration/v2_depth_duration_MTurk/v2_DepthDuration_HTML.html#140,140,1366,768,1366,768,8-22-2022,7-59-24,55,depth_duration_stimuli/000109_2014-05-14_23-41-52_260595134347_rgbf000035-resize_9/000109_2014-05-14_23-41-52_260595134347_rgbf000035-resize_9-target.png,1000,1.3545,1.5,6079,1001,meters,jsons/v1_VE1000_randls_35.json,1465165,1952755,63,Man
55,857628,DepthScenes,duration_manipulation_targetAtFixation,jsons/v1_VE1000_randls_35.json,http://54.235.29.9/FacialAge/BNav_EC2/DepthDuration/v2_depth_duration_MTurk/v2_DepthDuration_HTML.html#140,140,1366,768,1366,768,8-22-2022,7-59-24,56,depth_duration_stimuli/002763_2014-06-22_19-13-10_094959634447_rgbf000075-resize_4/002763_2014-06-22_19-13-10_094959634447_rgbf000075-resize_4-target.png,1000,1.68375,3.0,4050,995,meters,jsons/v1_VE1000_randls_35.json,1465165,1952755,63,Man
56,857628,DepthScenes,duration_manipulation_targetAtFixation,jsons/v1_VE1000_randls_35.json,http://54.235.29.9/FacialAge/BNav_EC2/DepthDuration/v2_depth_duration_MTurk/v2_DepthDuration_HTML.html#140,140,1366,768,1366,768,8-22-2022,7-59-24,57,depth_duration_stimuli/002209_2014-06-28_18-36-10_260595134347_rgbf000051-resize_1/002209_2014-06-28_18-36-10_260595134347_rgbf000051-resize_1-target.png,1000,2.057,3.5,5570,1014,meters,jsons/v1_VE1000_randls_35.json,1465165,1952755,63,Man
57,857628,DepthScenes,duration_manipulation_targetAtFixation,jsons/v1_VE1000_randls_35.json,http://54.235.29.9/FacialAge/BNav_EC2/DepthDuration/v2_depth_duration_MTurk/v2_DepthDuration_HTML.html#140,140,1366,768,1366,768,8-22-2022,7-59-24,58,depth_duration_stimuli/001555_2014-06-20_17-12-10_260595134347_rgbf000065-resize_4/001555_2014-06-20_17-12-10_260595134347_rgbf000065-resize_4-target.png,1000,1.633,1.0,4266,1005,meters,jsons/v1_VE1000_randls_35.json,1465165,1952755,63,Man
58,857628,DepthScenes,duration_manipulation_targetAtFixation,jsons/v1_VE1000_randls_35.json,http://54.235.29.9/FacialAge/BNav_EC2/DepthDuration/v2_depth_duration_MTurk/v2_DepthDuration_HTML.html#140,140,1366,768,1366,768,8-22-2022,7-59-24,59,depth_duration_stimuli/000103_2014-05-14_22-01-17_260595134347_rgbf000152-resize_5/000103_2014-05-14_22-01-17_260595134347_rgbf000152-resize_5-target.png,1000,1.993,1.5,4756,1008,meters,jsons/v1_VE1000_randls_35.json,1465165,1952755,63,Man
59,857628,DepthScenes,duration_manipulation_targetAtFixation,jsons/v1_VE1000_randls_35.json,http://54.235.29.9/FacialAge/BNav_EC2/DepthDuration/v2_depth_duration_MTurk/v2_DepthDuration_HTML.html#140,140,1366,768,1366,768,8-22-2022,7-59-24,60,depth_duration_stimuli/001164_2014-06-17_15-35-46_260595134347_rgbf000085-resize_3/001164_2014-06-17_15-35-46_260595134347_rgbf000085-resize_3-target.png,1000,2.354,2.0,4065,1019,meters,jsons/v1_VE1000_randls_35.json,1465165,1952755,63,Man
60,857628,DepthScenes,duration_manipulation_targetAtFixation,jsons/v1_VE1000_randls_35.json,http://54.235.29.9/FacialAge/BNav_EC2/DepthDuration/v2_depth_duration_MTurk/v2_DepthDuration_HTML.html#140,140,1366,768,1366,768,8-22-2022,7-59-24,61,depth_duration_stimuli/001136_2014-06-17_15-19-41_260595134347_rgbf000076-resize_3/001136_2014-06-17_15-19-41_260595134347_rgbf000076-resize_3-target.png,1000,1.8655,2.5,5802,992,meters,jsons/v1_VE1000_randls_35.json,1465165,1952755,63,Man
61,857628,DepthScenes,duration_manipulation_targetAtFixation,jsons/v1_VE1000_randls_35.json,http://54.235.29.9/FacialAge/BNav_EC2/DepthDuration/v2_depth_duration_MTurk/v2_DepthDuration_HTML.html#140,140,1366,768,1366,768,8-22-2022,7-59-24,62,depth_duration_stimuli/002509_2014-06-24_13-19-22_094959634447_rgbf000077-resize_0/002509_2014-06-24_13-19-22_094959634447_rgbf000077-resize_0-target.png,1000,1.3065,5.0,9290,995,meters,jsons/v1_VE1000_randls_35.json,1465165,1952755,63,Man
62,857628,DepthScenes,duration_manipulation_targetAtFixation,jsons/v1_VE1000_randls_35.json,http://54.235.29.9/FacialAge/BNav_EC2/DepthDuration/v2_depth_duration_MTurk/v2_DepthDuration_HTML.html#140,140,1366,768,1366,768,8-22-2022,7-59-24,63,depth_duration_stimuli/003338_2014-05-20_11-01-23_094959634447_rgbf000051-resize_6/003338_2014-05-20_11-01-23_094959634447_rgbf000051-resize_6-target.png,1000,1.693,0.9,8601,1003,meters,jsons/v1_VE1000_randls_35.json,1465165,1952755,63,Man
63,857628,DepthScenes,duration_manipulation_targetAtFixation,jsons/v1_VE1000_randls_35.json,http://54.235.29.9/FacialAge/BNav_EC2/DepthDuration/v2_depth_duration_MTurk/v2_DepthDuration_HTML.html#140,140,1366,768,1366,768,8-22-2022,7-59-24,64,depth_duration_stimuli/001810_2014-06-26_20-51-35_260595134347_rgbf000040-resize_3/001810_2014-06-26_20-51-35_260595134347_rgbf000040-resize_3-target.png,1000,2.2525,4.0,5510,984,meters,jsons/v1_VE1000_randls_35.json,1465165,1952755,63,Man
64,857628,DepthScenes,duration_manipulation_targetAtFixation,jsons/v1_VE1000_randls_35.json,http://54.235.29.9/FacialAge/BNav_EC2/DepthDuration/v2_depth_duration_MTurk/v2_DepthDuration_HTML.html#140,140,1366,768,1366,768,8-22-2022,7-59-24,65,depth_duration_stimuli/003010_2014-06-15_12-54-35_094959634447_rgbf000112-resize_0/003010_2014-06-15_12-54-35_094959634447_rgbf000112-resize_0-target.png,1000,3.1185,2.5,5875,999,meters,jsons/v1_VE1000_randls_35.json,1465165,1952755,63,Man
65,857628,DepthScenes,duration_manipulation_targetAtFixation,jsons/v1_VE1000_randls_35.json,http://54.235.29.9/FacialAge/BNav_EC2/DepthDuration/v2_depth_duration_MTurk/v2_DepthDuration_HTML.html#140,140,1366,768,1366,768,8-22-2022,7-59-24,66,depth_duration_stimuli/001222_2014-06-17_16-24-06_260595134347_rgbf000073-resize_0/001222_2014-06-17_16-24-06_260595134347_rgbf000073-resize-original.jpg,1000,1.4385,2.0,12482,993,meters,jsons/v1_VE1000_randls_35.json,1465165,1952755,63,Man
66,857628,DepthScenes,duration_manipulation_targetAtFixation,jsons/v1_VE1000_randls_35.json,http://54.235.29.9/FacialAge/BNav_EC2/DepthDuration/v2_depth_duration_MTurk/v2_DepthDuration_HTML.html#140,140,1366,768,1366,768,8-22-2022,7-59-24,67,depth_duration_stimuli/001059_2014-06-08_21-53-27_260595134347_rgbf000061-resize_4/001059_2014-06-08_21-53-27_260595134347_rgbf000061-resize_4-target.png,1000,2.4185,0.03,6465,1006,meters,jsons/v1_VE1000_randls_35.json,1465165,1952755,63,Man
67,857628,DepthScenes,duration_manipulation_targetAtFixation,jsons/v1_VE1000_randls_35.json,http://54.235.29.9/FacialAge/BNav_EC2/DepthDuration/v2_depth_duration_MTurk/v2_DepthDuration_HTML.html#140,140,1366,768,1366,768,8-22-2022,7-59-24,68,depth_duration_stimuli/001032_2014-06-08_13-23-17_260595134347_rgbf000021-resize_3/001032_2014-06-08_13-23-17_260595134347_rgbf000021-resize_3-target.png,1000,3.2725,0.02,14206,971,meters,jsons/v1_VE1000_randls_35.json,1465165,1952755,63,Man
68,857628,DepthScenes,duration_manipulation_targetAtFixation,jsons/v1_VE1000_randls_35.json,http://54.235.29.9/FacialAge/BNav_EC2/DepthDuration/v2_depth_duration_MTurk/v2_DepthDuration_HTML.html#140,140,1366,768,1366,768,8-22-2022,7-59-24,69,depth_duration_stimuli/002272_2014-06-28_18-53-56_260595134347_rgbf000067-resize_2/002272_2014-06-28_18-53-56_260595134347_rgbf000067-resize_2-target.png,1000,1.138,0.5,7846,989,meters,jsons/v1_VE1000_randls_35.json,1465165,1952755,63,Man
69,857628,DepthScenes,duration_manipulation_targetAtFixation,jsons/v1_VE1000_randls_35.json,http://54.235.29.9/FacialAge/BNav_EC2/DepthDuration/v2_depth_duration_MTurk/v2_DepthDuration_HTML.html#140,140,1366,768,1366,768,8-22-2022,7-59-24,70,depth_duration_stimuli/001571_2014-06-20_17-21-32_260595134347_rgbf000089-resize_1/001571_2014-06-20_17-21-32_260595134347_rgbf000089-resize_1-target.png,1000,1.86,2.0,6960,994,meters,jsons/v1_VE1000_randls_35.json,1465165,1952755,63,Man
70,857628,DepthScenes,duration_manipulation_targetAtFixation,jsons/v1_VE1000_randls_35.json,http://54.235.29.9/FacialAge/BNav_EC2/DepthDuration/v2_depth_duration_MTurk/v2_DepthDuration_HTML.html#140,140,1366,768,1366,768,8-22-2022,7-59-24,71,depth_duration_stimuli/000682_2014-06-08_23-14-58_260595134347_rgbf000041-resize_5/000682_2014-06-08_23-14-58_260595134347_rgbf000041-resize_5-target.png,1000,2.7239999999999998,2.0,7857,988,meters,jsons/v1_VE1000_randls_35.json,1465165,1952755,63,Man
71,857628,DepthScenes,duration_manipulation_targetAtFixation,jsons/v1_VE1000_randls_35.json,http://54.235.29.9/FacialAge/BNav_EC2/DepthDuration/v2_depth_duration_MTurk/v2_DepthDuration_HTML.html#140,140,1366,768,1366,768,8-22-2022,7-59-24,72,depth_duration_stimuli/001650_2014-06-20_12-09-00_260595134347_rgbf000087-resize_3/001650_2014-06-20_12-09-00_260595134347_rgbf000087-resize_3-target.png,1000,1.9505,2.0,8047,999,meters,jsons/v1_VE1000_randls_35.json,1465165,1952755,63,Man
72,857628,DepthScenes,duration_manipulation_targetAtFixation,jsons/v1_VE1000_randls_35.json,http://54.235.29.9/FacialAge/BNav_EC2/DepthDuration/v2_depth_duration_MTurk/v2_DepthDuration_HTML.html#140,140,1366,768,1366,768,8-22-2022,7-59-24,73,depth_duration_stimuli/002445_2014-06-28_20-32-16_260595134347_rgbf000029-resize_4/002445_2014-06-28_20-32-16_260595134347_rgbf000029-resize_4-target.png,1000,2.5315,1.3,6251,989,meters,jsons/v1_VE1000_randls_35.json,1465165,1952755,63,Man
73,857628,DepthScenes,duration_manipulation_targetAtFixation,jsons/v1_VE1000_randls_35.json,http://54.235.29.9/FacialAge/BNav_EC2/DepthDuration/v2_depth_duration_MTurk/v2_DepthDuration_HTML.html#140,140,1366,768,1366,768,8-22-2022,7-59-24,74,depth_duration_stimuli/000780_2014-06-08_22-28-29_260595134347_rgbf000126-resize_1/000780_2014-06-08_22-28-29_260595134347_rgbf000126-resize_1-target.png,1000,3.3825,2.0,5589,1002,meters,jsons/v1_VE1000_randls_35.json,1465165,1952755,63,Man
74,857628,DepthScenes,duration_manipulation_targetAtFixation,jsons/v1_VE1000_randls_35.json,http://54.235.29.9/FacialAge/BNav_EC2/DepthDuration/v2_depth_duration_MTurk/v2_DepthDuration_HTML.html#140,140,1366,768,1366,768,8-22-2022,7-59-24,75,depth_duration_stimuli/002213_2014-06-28_18-37-58_260595134347_rgbf000055-resize_1/002213_2014-06-28_18-37-58_260595134347_rgbf000055-resize_1-target.png,1000,3.62,0.5,7085,990,meters,jsons/v1_VE1000_randls_35.json,1465165,1952755,63,Man
75,857628,DepthScenes,duration_manipulation_targetAtFixation,jsons/v1_VE1000_randls_35.json,http://54.235.29.9/FacialAge/BNav_EC2/DepthDuration/v2_depth_duration_MTurk/v2_DepthDuration_HTML.html#140,140,1366,768,1366,768,8-22-2022,7-59-24,76,depth_duration_stimuli/000691_2014-06-08_13-08-50_260595134347_rgbf000132-resize_3/000691_2014-06-08_13-08-50_260595134347_rgbf000132-resize_3-target.png,1000,4.1530000000000005,1.5,6191,992,meters,jsons/v1_VE1000_randls_35.json,1465165,1952755,63,Man
76,857628,DepthScenes,duration_manipulation_targetAtFixation,jsons/v1_VE1000_randls_35.json,http://54.235.29.9/FacialAge/BNav_EC2/DepthDuration/v2_depth_duration_MTurk/v2_DepthDuration_HTML.html#140,140,1366,768,1366,768,8-22-2022,7-59-24,77,depth_duration_stimuli/002988_2014-06-15_12-24-20_094959634447_rgbf000150-resize_1/002988_2014-06-15_12-24-20_094959634447_rgbf000150-resize_1-target.png,1000,4.7669999999999995,0.05,9264,997,meters,jsons/v1_VE1000_randls_35.json,1465165,1952755,63,Man
77,857628,DepthScenes,duration_manipulation_targetAtFixation,jsons/v1_VE1000_randls_35.json,http://54.235.29.9/FacialAge/BNav_EC2/DepthDuration/v2_depth_duration_MTurk/v2_DepthDuration_HTML.html#140,140,1366,768,1366,768,8-22-2022,7-59-24,78,depth_duration_stimuli/001052_2014-06-08_18-24-54_260595134347_rgbf000130-resize_1/001052_2014-06-08_18-24-54_260595134347_rgbf000130-resize_1-target.png,1000,4.1045,0.3,7097,985,meters,jsons/v1_VE1000_randls_35.json,1465165,1952755,63,Man
78,857628,DepthScenes,duration_manipulation_targetAtFixation,jsons/v1_VE1000_randls_35.json,http://54.235.29.9/FacialAge/BNav_EC2/DepthDuration/v2_depth_duration_MTurk/v2_DepthDuration_HTML.html#140,140,1366,768,1366,768,8-22-2022,7-59-24,79,depth_duration_stimuli/002279_2014-06-28_18-55-32_260595134347_rgbf000040-resize_5/002279_2014-06-28_18-55-32_260595134347_rgbf000040-resize_5-target.png,1000,1.5043333333333,1.5,6255,1003,meters,jsons/v1_VE1000_randls_35.json,1465165,1952755,63,Man
79,857628,DepthScenes,duration_manipulation_targetAtFixation,jsons/v1_VE1000_randls_35.json,http://54.235.29.9/FacialAge/BNav_EC2/DepthDuration/v2_depth_duration_MTurk/v2_DepthDuration_HTML.html#140,140,1366,768,1366,768,8-22-2022,7-59-24,80,depth_duration_stimuli/000635_2014-06-08_16-38-42_260595134347_rgbf000106-resize_1/000635_2014-06-08_16-38-42_260595134347_rgbf000106-resize_1-target.png,1000,2.074,0.6,10007,992,meters,jsons/v1_VE1000_randls_35.json,1465165,1952755,63,Man
80,857628,DepthScenes,duration_manipulation_targetAtFixation,jsons/v1_VE1000_randls_35.json,http://54.235.29.9/FacialAge/BNav_EC2/DepthDuration/v2_depth_duration_MTurk/v2_DepthDuration_HTML.html#140,140,1366,768,1366,768,8-22-2022,7-59-24,81,depth_duration_stimuli/000810_2014-06-08_17-20-01_260595134347_rgbf000105-resize_0/000810_2014-06-08_17-20-01_260595134347_rgbf000105-resize_0-target.png,1000,1.4865,1.5,6809,1004,meters,jsons/v1_VE1000_randls_35.json,1465165,1952755,63,Man
81,857628,DepthScenes,duration_manipulation_targetAtFixation,jsons/v1_VE1000_randls_35.json,http://54.235.29.9/FacialAge/BNav_EC2/DepthDuration/v2_depth_duration_MTurk/v2_DepthDuration_HTML.html#140,140,1366,768,1366,768,8-22-2022,7-59-24,82,depth_duration_stimuli/001214_2014-06-17_16-13-55_260595134347_rgbf000111-resize_0/001214_2014-06-17_16-13-55_260595134347_rgbf000111-resize_0-target.png,1000,2.6505,0.2,9221,1001,meters,jsons/v1_VE1000_randls_35.json,1465165,1952755,63,Man
82,857628,DepthScenes,duration_manipulation_targetAtFixation,jsons/v1_VE1000_randls_35.json,http://54.235.29.9/FacialAge/BNav_EC2/DepthDuration/v2_depth_duration_MTurk/v2_DepthDuration_HTML.html#140,140,1366,768,1366,768,8-22-2022,7-59-24,83,depth_duration_stimuli/000447_2014-06-08_16-15-46_260595134347_rgbf000130-resize_1/000447_2014-06-08_16-15-46_260595134347_rgbf000130-resize_1-target.png,1000,4.479,2.5,6952,1002,meters,jsons/v1_VE1000_randls_35.json,1465165,1952755,63,Man
83,857628,DepthScenes,duration_manipulation_targetAtFixation,jsons/v1_VE1000_randls_35.json,http://54.235.29.9/FacialAge/BNav_EC2/DepthDuration/v2_depth_duration_MTurk/v2_DepthDuration_HTML.html#140,140,1366,768,1366,768,8-22-2022,7-59-24,84,depth_duration_stimuli/001447_2014-06-19_17-00-32_260595134347_rgbf000082-resize_5/001447_2014-06-19_17-00-32_260595134347_rgbf000082-resize_5-target.png,1000,4.13775,3.0,4359,1034,meters,jsons/v1_VE1000_randls_35.json,1465165,1952755,63,Man
84,857628,DepthScenes,duration_manipulation_targetAtFixation,jsons/v1_VE1000_randls_35.json,http://54.235.29.9/FacialAge/BNav_EC2/DepthDuration/v2_depth_duration_MTurk/v2_DepthDuration_HTML.html#140,140,1366,768,1366,768,8-22-2022,7-59-24,85,depth_duration_stimuli/001110_2014-06-15_17-25-28_260595134347_rgbf000150-resize_1/001110_2014-06-15_17-25-28_260595134347_rgbf000150-resize_1-target.png,1000,1.7115,2.9,7980,1004,meters,jsons/v1_VE1000_randls_35.json,1465165,1952755,63,Man
85,857628,DepthScenes,duration_manipulation_targetAtFixation,jsons/v1_VE1000_randls_35.json,http://54.235.29.9/FacialAge/BNav_EC2/DepthDuration/v2_depth_duration_MTurk/v2_DepthDuration_HTML.html#140,140,1366,768,1366,768,8-22-2022,7-59-24,86,depth_duration_stimuli/000927_2014-06-09_16-32-30_260595134347_rgbf000123-resize_3/000927_2014-06-09_16-32-30_260595134347_rgbf000123-resize_3-target.png,1000,2.6785,2.2,8718,1000,meters,jsons/v1_VE1000_randls_35.json,1465165,1952755,63,Man
86,857628,DepthScenes,duration_manipulation_targetAtFixation,jsons/v1_VE1000_randls_35.json,http://54.235.29.9/FacialAge/BNav_EC2/DepthDuration/v2_depth_duration_MTurk/v2_DepthDuration_HTML.html#140,140,1366,768,1366,768,8-22-2022,7-59-24,87,depth_duration_stimuli/001066_2014-06-08_22-03-20_260595134347_rgbf000066-resize_4/001066_2014-06-08_22-03-20_260595134347_rgbf000066-resize_4-target.png,1000,4.2330000000000005,1.4,6908,1019,meters,jsons/v1_VE1000_randls_35.json,1465165,1952755,63,Man
87,857628,DepthScenes,duration_manipulation_targetAtFixation,jsons/v1_VE1000_randls_35.json,http://54.235.29.9/FacialAge/BNav_EC2/DepthDuration/v2_depth_duration_MTurk/v2_DepthDuration_HTML.html#140,140,1366,768,1366,768,8-22-2022,7-59-24,88,depth_duration_stimuli/000742_2014-06-08_18-48-09_260595134347_rgbf000164-resize_4/000742_2014-06-08_18-48-09_260595134347_rgbf000164-resize_4-target.png,1000,4.632,0.6,6527,1000,meters,jsons/v1_VE1000_randls_35.json,1465165,1952755,63,Man
88,857628,DepthScenes,duration_manipulation_targetAtFixation,jsons/v1_VE1000_randls_35.json,http://54.235.29.9/FacialAge/BNav_EC2/DepthDuration/v2_depth_duration_MTurk/v2_DepthDuration_HTML.html#140,140,1366,768,1366,768,8-22-2022,7-59-24,89,depth_duration_stimuli/002600_2014-06-24_14-27-04_094959634447_rgbf000074-resize_2/002600_2014-06-24_14-27-04_094959634447_rgbf000074-resize_2-target.png,1000,2.7575,0.9,5383,1003,meters,jsons/v1_VE1000_randls_35.json,1465165,1952755,63,Man
89,857628,DepthScenes,duration_manipulation_targetAtFixation,jsons/v1_VE1000_randls_35.json,http://54.235.29.9/FacialAge/BNav_EC2/DepthDuration/v2_depth_duration_MTurk/v2_DepthDuration_HTML.html#140,140,1366,768,1366,768,8-22-2022,7-59-24,90,depth_duration_stimuli/003228_2014-05-14_13-42-35_094959634447_rgbf000101-resize_1/003228_2014-05-14_13-42-35_094959634447_rgbf000101-resize_1-target.png,1000,1.9680000000000002,2.0,3891,1002,meters,jsons/v1_VE1000_randls_35.json,1465165,1952755,63,Man
90,857628,DepthScenes,duration_manipulation_targetAtFixation,jsons/v1_VE1000_randls_35.json,http://54.235.29.9/FacialAge/BNav_EC2/DepthDuration/v2_depth_duration_MTurk/v2_DepthDuration_HTML.html#140,140,1366,768,1366,768,8-22-2022,7-59-24,91,depth_duration_stimuli/002375_2014-06-28_20-13-44_260595134347_rgbf000032-resize_1/002375_2014-06-28_20-13-44_260595134347_rgbf000032-resize_1-target.png,1000,4.0175,1.8,5501,999,meters,jsons/v1_VE1000_randls_35.json,1465165,1952755,63,Man
91,857628,DepthScenes,duration_manipulation_targetAtFixation,jsons/v1_VE1000_randls_35.json,http://54.235.29.9/FacialAge/BNav_EC2/DepthDuration/v2_depth_duration_MTurk/v2_DepthDuration_HTML.html#140,140,1366,768,1366,768,8-22-2022,7-59-24,92,depth_duration_stimuli/002657_2014-06-13_15-29-54_094959634447_rgbf000150-resize_1/002657_2014-06-13_15-29-54_094959634447_rgbf000150-resize_1-target.png,1000,4.919,1.1,5724,998,meters,jsons/v1_VE1000_randls_35.json,1465165,1952755,63,Man
92,857628,DepthScenes,duration_manipulation_targetAtFixation,jsons/v1_VE1000_randls_35.json,http://54.235.29.9/FacialAge/BNav_EC2/DepthDuration/v2_depth_duration_MTurk/v2_DepthDuration_HTML.html#140,140,1366,768,1366,768,8-22-2022,7-59-24,93,depth_duration_stimuli/002057_2014-06-24_21-00-13_260595134347_rgbf000120-resize_1/002057_2014-06-24_21-00-13_260595134347_rgbf000120-resize_1-target.png,1000,2.967,0.9,10173,998,meters,jsons/v1_VE1000_randls_35.json,1465165,1952755,63,Man
93,857628,DepthScenes,duration_manipulation_targetAtFixation,jsons/v1_VE1000_randls_35.json,http://54.235.29.9/FacialAge/BNav_EC2/DepthDuration/v2_depth_duration_MTurk/v2_DepthDuration_HTML.html#140,140,1366,768,1366,768,8-22-2022,7-59-24,94,depth_duration_stimuli/000709_2014-06-08_13-51-55_260595134347_rgbf000068-resize_3/000709_2014-06-08_13-51-55_260595134347_rgbf000068-resize_3-target.png,1000,1.8030000000000002,0.4,21195,1004,meters,jsons/v1_VE1000_randls_35.json,1465165,1952755,63,Man
94,857628,DepthScenes,duration_manipulation_targetAtFixation,jsons/v1_VE1000_randls_35.json,http://54.235.29.9/FacialAge/BNav_EC2/DepthDuration/v2_depth_duration_MTurk/v2_DepthDuration_HTML.html#140,140,1366,768,1366,768,8-22-2022,7-59-24,95,depth_duration_stimuli/003492_2014-05-21_15-50-55_094959634447_rgbf000828-resize_1/003492_2014-05-21_15-50-55_094959634447_rgbf000828-resize_1-target.png,1000,4.06875,1.2,7761,1004,meters,jsons/v1_VE1000_randls_35.json,1465165,1952755,63,Man
95,857628,DepthScenes,duration_manipulation_targetAtFixation,jsons/v1_VE1000_randls_35.json,http://54.235.29.9/FacialAge/BNav_EC2/DepthDuration/v2_depth_duration_MTurk/v2_DepthDuration_HTML.html#140,140,1366,768,1366,768,8-22-2022,7-59-24,96,depth_duration_stimuli/002568_2014-06-24_13-59-21_094959634447_rgbf000062-resize_4/002568_2014-06-24_13-59-21_094959634447_rgbf000062-resize_4-target.png,1000,3.015,1.2,18144,1003,meters,jsons/v1_VE1000_randls_35.json,1465165,1952755,63,Man
96,857628,DepthScenes,duration_manipulation_targetAtFixation,jsons/v1_VE1000_randls_35.json,http://54.235.29.9/FacialAge/BNav_EC2/DepthDuration/v2_depth_duration_MTurk/v2_DepthDuration_HTML.html#140,140,1366,768,1366,768,8-22-2022,7-59-24,97,depth_duration_stimuli/000506_2014-06-08_23-21-00_260595134347_rgbf000070-resize_7/000506_2014-06-08_23-21-00_260595134347_rgbf000070-resize_7-target.png,1000,4.0585,1.0,8332,1001,meters,jsons/v1_VE1000_randls_35.json,1465165,1952755,63,Man
97,857628,DepthScenes,duration_manipulation_targetAtFixation,jsons/v1_VE1000_randls_35.json,http://54.235.29.9/FacialAge/BNav_EC2/DepthDuration/v2_depth_duration_MTurk/v2_DepthDuration_HTML.html#140,140,1366,768,1366,768,8-22-2022,7-59-24,98,depth_duration_stimuli/003079_2014-06-15_15-18-20_094959634447_rgbf000152-resize_8/003079_2014-06-15_15-18-20_094959634447_rgbf000152-resize_8-target.png,1000,2.8775,0.9,6831,992,meters,jsons/v1_VE1000_randls_35.json,1465165,1952755,63,Man
98,857628,DepthScenes,duration_manipulation_targetAtFixation,jsons/v1_VE1000_randls_35.json,http://54.235.29.9/FacialAge/BNav_EC2/DepthDuration/v2_depth_duration_MTurk/v2_DepthDuration_HTML.html#140,140,1366,768,1366,768,8-22-2022,7-59-24,99,depth_duration_stimuli/001540_2014-06-20_17-01-05_260595134347_rgbf000086-resize_2/001540_2014-06-20_17-01-05_260595134347_rgbf000086-resize-original.jpg,1000,1.459,0.0,5403,999,meters,jsons/v1_VE1000_randls_35.json,1465165,1952755,63,Man
99,857628,DepthScenes,duration_manipulation_targetAtFixation,jsons/v1_VE1000_randls_35.json,http://54.235.29.9/FacialAge/BNav_EC2/DepthDuration/v2_depth_duration_MTurk/v2_DepthDuration_HTML.html#140,140,1366,768,1366,768,8-22-2022,7-59-24,100,depth_duration_stimuli/001092_2014-06-15_17-34-58_260595134347_rgbf000171-resize_3/001092_2014-06-15_17-34-58_260595134347_rgbf000171-resize_3-target.png,1000,2.6935,2.3,5804,1006,meters,jsons/v1_VE1000_randls_35.json,1465165,1952755,63,Man
100,857628,DepthScenes,duration_manipulation_targetAtFixation,jsons/v1_VE1000_randls_35.json,http://54.235.29.9/FacialAge/BNav_EC2/DepthDuration/v2_depth_duration_MTurk/v2_DepthDuration_HTML.html#140,140,1366,768,1366,768,8-22-2022,7-59-24,101,depth_duration_stimuli/002545_2014-06-24_13-38-53_094959634447_rgbf000080-resize_4/002545_2014-06-24_13-38-53_094959634447_rgbf000080-resize_4-target.png,1000,1.9205,1.0,5962,973,meters,jsons/v1_VE1000_randls_35.json,1465165,1952755,63,Man
101,857628,DepthScenes,duration_manipulation_targetAtFixation,jsons/v1_VE1000_randls_35.json,http://54.235.29.9/FacialAge/BNav_EC2/DepthDuration/v2_depth_duration_MTurk/v2_DepthDuration_HTML.html#140,140,1366,768,1366,768,8-22-2022,7-59-24,102,depth_duration_stimuli/003070_2014-06-15_14-58-27_094959634447_rgbf000150-resize_3/003070_2014-06-15_14-58-27_094959634447_rgbf000150-resize_3-target.png,1000,2.9415,2.0,4543,1002,meters,jsons/v1_VE1000_randls_35.json,1465165,1952755,63,Man
102,857628,DepthScenes,duration_manipulation_targetAtFixation,jsons/v1_VE1000_randls_35.json,http://54.235.29.9/FacialAge/BNav_EC2/DepthDuration/v2_depth_duration_MTurk/v2_DepthDuration_HTML.html#140,140,1366,768,1366,768,8-22-2022,7-59-24,103,depth_duration_stimuli/000943_2014-06-09_19-31-07_260595134347_rgbf000128-resize_1/000943_2014-06-09_19-31-07_260595134347_rgbf000128-resize_1-target.png,1000,1.9765,1.6,6047,997,meters,jsons/v1_VE1000_randls_35.json,1465165,1952755,63,Man
103,857628,DepthScenes,duration_manipulation_targetAtFixation,jsons/v1_VE1000_randls_35.json,http://54.235.29.9/FacialAge/BNav_EC2/DepthDuration/v2_depth_duration_MTurk/v2_DepthDuration_HTML.html#140,140,1366,768,1366,768,8-22-2022,7-59-24,104,depth_duration_stimuli/001167_2014-06-17_15-38-07_260595134347_rgbf000108-resize_0/001167_2014-06-17_15-38-07_260595134347_rgbf000108-resize_0-target.png,1000,1.8505,0.9,5682,991,meters,jsons/v1_VE1000_randls_35.json,1465165,1952755,63,Man
104,857628,DepthScenes,duration_manipulation_targetAtFixation,jsons/v1_VE1000_randls_35.json,http://54.235.29.9/FacialAge/BNav_EC2/DepthDuration/v2_depth_duration_MTurk/v2_DepthDuration_HTML.html#140,140,1366,768,1366,768,8-22-2022,7-59-24,105,depth_duration_stimuli/003587_2014-05-23_16-48-02_094959634447_rgbf002384-resize_2/003587_2014-05-23_16-48-02_094959634447_rgbf002384-resize_2-target.png,1000,1.357,1.0,4712,1013,meters,jsons/v1_VE1000_randls_35.json,1465165,1952755,63,Man
105,857628,DepthScenes,duration_manipulation_targetAtFixation,jsons/v1_VE1000_randls_35.json,http://54.235.29.9/FacialAge/BNav_EC2/DepthDuration/v2_depth_duration_MTurk/v2_DepthDuration_HTML.html#140,140,1366,768,1366,768,8-22-2022,7-59-24,106,depth_duration_stimuli/001158_2014-06-17_15-32-16_260595134347_rgbf000138-resize_2/001158_2014-06-17_15-32-16_260595134347_rgbf000138-resize_2-target.png,1000,4.5315,0.7,9944,997,meters,jsons/v1_VE1000_randls_35.json,1465165,1952755,63,Man
106,857628,DepthScenes,duration_manipulation_targetAtFixation,jsons/v1_VE1000_randls_35.json,http://54.235.29.9/FacialAge/BNav_EC2/DepthDuration/v2_depth_duration_MTurk/v2_DepthDuration_HTML.html#140,140,1366,768,1366,768,8-22-2022,7-59-24,107,depth_duration_stimuli/000556_2014-06-09_22-42-56_260595134347_rgbf000214-resize_1/000556_2014-06-09_22-42-56_260595134347_rgbf000214-resize_1-target.png,1000,4.8415,0.3,6856,996,meters,jsons/v1_VE1000_randls_35.json,1465165,1952755,63,Man
107,857628,DepthScenes,duration_manipulation_targetAtFixation,jsons/v1_VE1000_randls_35.json,http://54.235.29.9/FacialAge/BNav_EC2/DepthDuration/v2_depth_duration_MTurk/v2_DepthDuration_HTML.html#140,140,1366,768,1366,768,8-22-2022,7-59-24,108,depth_duration_stimuli/000486_2014-06-09_20-47-20_260595134347_rgbf000143-resize_2/000486_2014-06-09_20-47-20_260595134347_rgbf000143-resize_2-target.png,1000,4.8325,2.0,4145,1005,meters,jsons/v1_VE1000_randls_35.json,1465165,1952755,63,Man
108,857628,DepthScenes,duration_manipulation_targetAtFixation,jsons/v1_VE1000_randls_35.json,http://54.235.29.9/FacialAge/BNav_EC2/DepthDuration/v2_depth_duration_MTurk/v2_DepthDuration_HTML.html#140,140,1366,768,1366,768,8-22-2022,7-59-24,109,depth_duration_stimuli/003083_2014-06-15_15-21-03_094959634447_rgbf000063-resize_1/003083_2014-06-15_15-21-03_094959634447_rgbf000063-resize_1-target.png,1000,4.1405,2.3,6897,998,meters,jsons/v1_VE1000_randls_35.json,1465165,1952755,63,Man
109,857628,DepthScenes,duration_manipulation_targetAtFixation,jsons/v1_VE1000_randls_35.json,http://54.235.29.9/FacialAge/BNav_EC2/DepthDuration/v2_depth_duration_MTurk/v2_DepthDuration_HTML.html#140,140,1366,768,1366,768,8-22-2022,7-59-24,110,depth_duration_stimuli/002153_2014-06-25_21-27-18_260595134347_rgbf000038-resize_5/002153_2014-06-25_21-27-18_260595134347_rgbf000038-resize_5-target.png,1000,2.505,1.0,4353,988,meters,jsons/v1_VE1000_randls_35.json,1465165,1952755,63,Man
110,857628,DepthScenes,duration_manipulation_targetAtFixation,jsons/v1_VE1000_randls_35.json,http://54.235.29.9/FacialAge/BNav_EC2/DepthDuration/v2_depth_duration_MTurk/v2_DepthDuration_HTML.html#140,140,1366,768,1366,768,8-22-2022,7-59-24,111,depth_duration_stimuli/002660_2014-06-13_15-44-18_094959634447_rgbf001878-resize_2/002660_2014-06-13_15-44-18_094959634447_rgbf001878-resize_2-target.png,1000,3.576,0.09,8664,983,meters,jsons/v1_VE1000_randls_35.json,1465165,1952755,63,Man
111,857628,DepthScenes,duration_manipulation_targetAtFixation,jsons/v1_VE1000_randls_35.json,http://54.235.29.9/FacialAge/BNav_EC2/DepthDuration/v2_depth_duration_MTurk/v2_DepthDuration_HTML.html#140,140,1366,768,1366,768,8-22-2022,7-59-24,112,depth_duration_stimuli/001449_2014-06-19_17-01-27_260595134347_rgbf000116-resize_2/001449_2014-06-19_17-01-27_260595134347_rgbf000116-resize_2-target.png,1000,3.452,1.2,6599,1005,meters,jsons/v1_VE1000_randls_35.json,1465165,1952755,63,Man
112,857628,DepthScenes,duration_manipulation_targetAtFixation,jsons/v1_VE1000_randls_35.json,http://54.235.29.9/FacialAge/BNav_EC2/DepthDuration/v2_depth_duration_MTurk/v2_DepthDuration_HTML.html#140,140,1366,768,1366,768,8-22-2022,7-59-24,113,depth_duration_stimuli/001450_2014-06-19_17-02-03_260595134347_rgbf000203-resize_4/001450_2014-06-19_17-02-03_260595134347_rgbf000203-resize_4-target.png,1000,4.0106666666667,0.15,7875,984,meters,jsons/v1_VE1000_randls_35.json,1465165,1952755,63,Man
113,857628,DepthScenes,duration_manipulation_targetAtFixation,jsons/v1_VE1000_randls_35.json,http://54.235.29.9/FacialAge/BNav_EC2/DepthDuration/v2_depth_duration_MTurk/v2_DepthDuration_HTML.html#140,140,1366,768,1366,768,8-22-2022,7-59-24,114,depth_duration_stimuli/000773_2014-06-08_22-24-54_260595134347_rgbf000093-resize_1/000773_2014-06-08_22-24-54_260595134347_rgbf000093-resize_1-target.png,1000,4.973,0.9,10887,996,meters,jsons/v1_VE1000_randls_35.json,1465165,1952755,63,Man
114,857628,DepthScenes,duration_manipulation_targetAtFixation,jsons/v1_VE1000_randls_35.json,http://54.235.29.9/FacialAge/BNav_EC2/DepthDuration/v2_depth_duration_MTurk/v2_DepthDuration_HTML.html#140,140,1366,768,1366,768,8-22-2022,7-59-24,115,depth_duration_stimuli/002414_2014-06-28_20-24-58_260595134347_rgbf000067-resize_4/002414_2014-06-28_20-24-58_260595134347_rgbf000067-resize_4-target.png,1000,4.363,0.4,6346,999,meters,jsons/v1_VE1000_randls_35.json,1465165,1952755,63,Man
115,857628,DepthScenes,duration_manipulation_targetAtFixation,jsons/v1_VE1000_randls_35.json,http://54.235.29.9/FacialAge/BNav_EC2/DepthDuration/v2_depth_duration_MTurk/v2_DepthDuration_HTML.html#140,140,1366,768,1366,768,8-22-2022,7-59-24,116,depth_duration_stimuli/001170_2014-06-17_15-43-44_260595134347_rgbf000096-resize_6/001170_2014-06-17_15-43-44_260595134347_rgbf000096-resize-original.jpg,1000,1.1909999999999998,0.0,4361,1008,meters,jsons/v1_VE1000_randls_35.json,1465165,1952755,63,Man
116,857628,DepthScenes,duration_manipulation_targetAtFixation,jsons/v1_VE1000_randls_35.json,http://54.235.29.9/FacialAge/BNav_EC2/DepthDuration/v2_depth_duration_MTurk/v2_DepthDuration_HTML.html#140,140,1366,768,1366,768,8-22-2022,7-59-24,117,depth_duration_stimuli/000493_2014-06-09_21-01-18_260595134347_rgbf000196-resize_3/000493_2014-06-09_21-01-18_260595134347_rgbf000196-resize_3-target.png,1000,3.44,3.0,4331,956,meters,jsons/v1_VE1000_randls_35.json,1465165,1952755,63,Man
117,857628,DepthScenes,duration_manipulation_targetAtFixation,jsons/v1_VE1000_randls_35.json,http://54.235.29.9/FacialAge/BNav_EC2/DepthDuration/v2_depth_duration_MTurk/v2_DepthDuration_HTML.html#140,140,1366,768,1366,768,8-22-2022,7-59-24,118,depth_duration_stimuli/000191_2014-05-12_17-07-38_260595134347_rgbf000199-resize_0/000191_2014-05-12_17-07-38_260595134347_rgbf000199-resize_0-target.png,1000,3.7995,0.9,6189,1007,meters,jsons/v1_VE1000_randls_35.json,1465165,1952755,63,Man
118,857628,DepthScenes,duration_manipulation_targetAtFixation,jsons/v1_VE1000_randls_35.json,http://54.235.29.9/FacialAge/BNav_EC2/DepthDuration/v2_depth_duration_MTurk/v2_DepthDuration_HTML.html#140,140,1366,768,1366,768,8-22-2022,7-59-24,119,depth_duration_stimuli/002905_2014-06-03_18-04-43_094959634447_rgbf000151-resize_2/002905_2014-06-03_18-04-43_094959634447_rgbf000151-resize_2-target.png,1000,2.0295,2.0,6102,1003,meters,jsons/v1_VE1000_randls_35.json,1465165,1952755,63,Man
119,857628,DepthScenes,duration_manipulation_targetAtFixation,jsons/v1_VE1000_randls_35.json,http://54.235.29.9/FacialAge/BNav_EC2/DepthDuration/v2_depth_duration_MTurk/v2_DepthDuration_HTML.html#140,140,1366,768,1366,768,8-22-2022,7-59-24,120,depth_duration_stimuli/003423_2014-05-21_10-23-26_094959634447_rgbf002665-resize_2/003423_2014-05-21_10-23-26_094959634447_rgbf002665-resize_2-target.png,1000,3.2575,1.0,5828,934,meters,jsons/v1_VE1000_randls_35.json,1465165,1952755,63,Man
120,857628,DepthScenes,duration_manipulation_targetAtFixation,jsons/v1_VE1000_randls_35.json,http://54.235.29.9/FacialAge/BNav_EC2/DepthDuration/v2_depth_duration_MTurk/v2_DepthDuration_HTML.html#140,140,1366,768,1366,768,8-22-2022,7-59-24,121,depth_duration_stimuli/002748_2014-06-22_19-07-22_094959634447_rgbf000078-resize_1/002748_2014-06-22_19-07-22_094959634447_rgbf000078-resize_1-target.png,1000,4.6705,0.7,7629,997,meters,jsons/v1_VE1000_randls_35.json,1465165,1952755,63,Man
121,857628,DepthScenes,duration_manipulation_targetAtFixation,jsons/v1_VE1000_randls_35.json,http://54.235.29.9/FacialAge/BNav_EC2/DepthDuration/v2_depth_duration_MTurk/v2_DepthDuration_HTML.html#140,140,1366,768,1366,768,8-22-2022,7-59-24,122,depth_duration_stimuli/002995_2014-06-15_12-31-26_094959634447_rgbf000150-resize_1/002995_2014-06-15_12-31-26_094959634447_rgbf000150-resize_1-target.png,1000,3.8360000000000003,2.0,4031,988,meters,jsons/v1_VE1000_randls_35.json,1465165,1952755,63,Man
122,857628,DepthScenes,duration_manipulation_targetAtFixation,jsons/v1_VE1000_randls_35.json,http://54.235.29.9/FacialAge/BNav_EC2/DepthDuration/v2_depth_duration_MTurk/v2_DepthDuration_HTML.html#140,140,1366,768,1366,768,8-22-2022,7-59-24,123,depth_duration_stimuli/000758_2014-06-08_22-05-08_260595134347_rgbf000085-resize_0/000758_2014-06-08_22-05-08_260595134347_rgbf000085-resize_0-target.png,1000,3.3810000000000002,1.5,5090,995,meters,jsons/v1_VE1000_randls_35.json,1465165,1952755,63,Man
123,857628,DepthScenes,duration_manipulation_targetAtFixation,jsons/v1_VE1000_randls_35.json,http://54.235.29.9/FacialAge/BNav_EC2/DepthDuration/v2_depth_duration_MTurk/v2_DepthDuration_HTML.html#140,140,1366,768,1366,768,8-22-2022,7-59-24,124,depth_duration_stimuli/000854_2014-06-09_19-43-13_260595134347_rgbf000066-resize_0/000854_2014-06-09_19-43-13_260595134347_rgbf000066-resize_0-target.png,1000,3.068,2.0,3667,999,meters,jsons/v1_VE1000_randls_35.json,1465165,1952755,63,Man
124,857628,DepthScenes,duration_manipulation_targetAtFixation,jsons/v1_VE1000_randls_35.json,http://54.235.29.9/FacialAge/BNav_EC2/DepthDuration/v2_depth_duration_MTurk/v2_DepthDuration_HTML.html#140,140,1366,768,1366,768,8-22-2022,7-59-24,125,depth_duration_stimuli/002725_2014-06-22_11-47-51_094959634447_rgbf000070-resize_1/002725_2014-06-22_11-47-51_094959634447_rgbf000070-resize_1-target.png,1000,2.195,1.0,4452,1031,meters,jsons/v1_VE1000_randls_35.json,1465165,1952755,63,Man
125,857628,DepthScenes,duration_manipulation_targetAtFixation,jsons/v1_VE1000_randls_35.json,http://54.235.29.9/FacialAge/BNav_EC2/DepthDuration/v2_depth_duration_MTurk/v2_DepthDuration_HTML.html#140,140,1366,768,1366,768,8-22-2022,7-59-24,126,depth_duration_stimuli/002344_2014-06-28_20-06-29_260595134347_rgbf000030-resize_1/002344_2014-06-28_20-06-29_260595134347_rgbf000030-resize_1-target.png,1000,1.5795,1.3,7421,983,meters,jsons/v1_VE1000_randls_35.json,1465165,1952755,63,Man
126,857628,DepthScenes,duration_manipulation_targetAtFixation,jsons/v1_VE1000_randls_35.json,http://54.235.29.9/FacialAge/BNav_EC2/DepthDuration/v2_depth_duration_MTurk/v2_DepthDuration_HTML.html#140,140,1366,768,1366,768,8-22-2022,7-59-24,127,depth_duration_stimuli/000788_2014-06-08_22-34-36_260595134347_rgbf000131-resize_1/000788_2014-06-08_22-34-36_260595134347_rgbf000131-resize_1-target.png,1000,3.359,0.9,5953,990,meters,jsons/v1_VE1000_randls_35.json,1465165,1952755,63,Man
127,857628,DepthScenes,duration_manipulation_targetAtFixation,jsons/v1_VE1000_randls_35.json,http://54.235.29.9/FacialAge/BNav_EC2/DepthDuration/v2_depth_duration_MTurk/v2_DepthDuration_HTML.html#140,140,1366,768,1366,768,8-22-2022,7-59-24,128,depth_duration_stimuli/001235_2014-06-17_16-37-36_260595134347_rgbf000084-resize_4/001235_2014-06-17_16-37-36_260595134347_rgbf000084-resize_4-target.png,1000,3.6605,2.0,5544,1005,meters,jsons/v1_VE1000_randls_35.json,1465165,1952755,63,Man
128,857628,DepthScenes,duration_manipulation_targetAtFixation,jsons/v1_VE1000_randls_35.json,http://54.235.29.9/FacialAge/BNav_EC2/DepthDuration/v2_depth_duration_MTurk/v2_DepthDuration_HTML.html#140,140,1366,768,1366,768,8-22-2022,7-59-24,129,depth_duration_stimuli/001417_2014-06-19_16-25-36_260595134347_rgbf000115-resize_5/001417_2014-06-19_16-25-36_260595134347_rgbf000115-resize_5-target.png,1000,4.6255,3.2,5531,994,meters,jsons/v1_VE1000_randls_35.json,1465165,1952755,63,Man
129,857628,DepthScenes,duration_manipulation_targetAtFixation,jsons/v1_VE1000_randls_35.json,http://54.235.29.9/FacialAge/BNav_EC2/DepthDuration/v2_depth_duration_MTurk/v2_DepthDuration_HTML.html#140,140,1366,768,1366,768,8-22-2022,7-59-24,130,depth_duration_stimuli/003081_2014-06-15_15-19-16_094959634447_rgbf000150-resize_1/003081_2014-06-15_15-19-16_094959634447_rgbf000150-resize_1-target.png,1000,3.9125,0.9,9219,1002,meters,jsons/v1_VE1000_randls_35.json,1465165,1952755,63,Man
130,857628,DepthScenes,duration_manipulation_targetAtFixation,jsons/v1_VE1000_randls_35.json,http://54.235.29.9/FacialAge/BNav_EC2/DepthDuration/v2_depth_duration_MTurk/v2_DepthDuration_HTML.html#140,140,1366,768,1366,768,8-22-2022,7-59-24,131,depth_duration_stimuli/000736_2014-06-08_18-24-15_260595134347_rgbf000206-resize_3/000736_2014-06-08_18-24-15_260595134347_rgbf000206-resize_3-target.png,1000,3.515,0.6,14232,961,meters,jsons/v1_VE1000_randls_35.json,1465165,1952755,63,Man
131,857628,DepthScenes,duration_manipulation_targetAtFixation,jsons/v1_VE1000_randls_35.json,http://54.235.29.9/FacialAge/BNav_EC2/DepthDuration/v2_depth_duration_MTurk/v2_DepthDuration_HTML.html#140,140,1366,768,1366,768,8-22-2022,7-59-24,132,depth_duration_stimuli/000137_2014-05-20_17-04-49_260595134347_rgbf000120-resize_1/000137_2014-05-20_17-04-49_260595134347_rgbf000120-resize_1-target.png,1000,3.786,1.2,6134,998,meters,jsons/v1_VE1000_randls_35.json,1465165,1952755,63,Man
132,857628,DepthScenes,duration_manipulation_targetAtFixation,jsons/v1_VE1000_randls_35.json,http://54.235.29.9/FacialAge/BNav_EC2/DepthDuration/v2_depth_duration_MTurk/v2_DepthDuration_HTML.html#140,140,1366,768,1366,768,8-22-2022,7-59-24,133,depth_duration_stimuli/002964_2014-06-08_17-46-11_094959634447_rgbf000091-resize_4/002964_2014-06-08_17-46-11_094959634447_rgbf000091-resize_4-target.png,1000,1.6909999999999998,0.8,8063,992,meters,jsons/v1_VE1000_randls_35.json,1465165,1952755,63,Man
133,857628,DepthScenes,duration_manipulation_targetAtFixation,jsons/v1_VE1000_randls_35.json,http://54.235.29.9/FacialAge/BNav_EC2/DepthDuration/v2_depth_duration_MTurk/v2_DepthDuration_HTML.html#140,140,1366,768,1366,768,8-22-2022,7-59-24,134,depth_duration_stimuli/002136_2014-06-25_21-18-03_260595134347_rgbf000109-resize_3/002136_2014-06-25_21-18-03_260595134347_rgbf000109-resize_3-target.png,1000,1.9569999999999999,2.8,5030,1001,meters,jsons/v1_VE1000_randls_35.json,1465165,1952755,63,Man
134,857628,DepthScenes,duration_manipulation_targetAtFixation,jsons/v1_VE1000_randls_35.json,http://54.235.29.9/FacialAge/BNav_EC2/DepthDuration/v2_depth_duration_MTurk/v2_DepthDuration_HTML.html#140,140,1366,768,1366,768,8-22-2022,7-59-24,135,depth_duration_stimuli/002072_2014-06-24_21-48-06_260595134347_rgbf000115-resize_0/002072_2014-06-24_21-48-06_260595134347_rgbf000115-resize-original.jpg,1000,4.702,0.0,4626,997,meters,jsons/v1_VE1000_randls_35.json,1465165,1952755,63,Man
135,857628,DepthScenes,duration_manipulation_targetAtFixation,jsons/v1_VE1000_randls_35.json,http://54.235.29.9/FacialAge/BNav_EC2/DepthDuration/v2_depth_duration_MTurk/v2_DepthDuration_HTML.html#140,140,1366,768,1366,768,8-22-2022,7-59-24,136,depth_duration_stimuli/000906_2014-06-08_13-35-43_260595134347_rgbf000155-resize_1/000906_2014-06-08_13-35-43_260595134347_rgbf000155-resize_1-target.png,1000,2.8489999999999998,1.3,5328,1037,meters,jsons/v1_VE1000_randls_35.json,1465165,1952755,63,Man
136,857628,DepthScenes,duration_manipulation_targetAtFixation,jsons/v1_VE1000_randls_35.json,http://54.235.29.9/FacialAge/BNav_EC2/DepthDuration/v2_depth_duration_MTurk/v2_DepthDuration_HTML.html#140,140,1366,768,1366,768,8-22-2022,7-59-24,137,depth_duration_stimuli/002805_2014-06-22_19-54-03_094959634447_rgbf000079-resize_1/002805_2014-06-22_19-54-03_094959634447_rgbf000079-resize_1-target.png,1000,3.1439999999999997,0.6,18242,1000,meters,jsons/v1_VE1000_randls_35.json,1465165,1952755,63,Man
137,857628,DepthScenes,duration_manipulation_targetAtFixation,jsons/v1_VE1000_randls_35.json,http://54.235.29.9/FacialAge/BNav_EC2/DepthDuration/v2_depth_duration_MTurk/v2_DepthDuration_HTML.html#140,140,1366,768,1366,768,8-22-2022,7-59-24,138,depth_duration_stimuli/001175_2014-06-17_15-45-55_260595134347_rgbf000129-resize_4/001175_2014-06-17_15-45-55_260595134347_rgbf000129-resize_4-target.png,1000,4.255,2.1,13281,998,meters,jsons/v1_VE1000_randls_35.json,1465165,1952755,63,Man
138,857628,DepthScenes,duration_manipulation_targetAtFixation,jsons/v1_VE1000_randls_35.json,http://54.235.29.9/FacialAge/BNav_EC2/DepthDuration/v2_depth_duration_MTurk/v2_DepthDuration_HTML.html#140,140,1366,768,1366,768,8-22-2022,7-59-24,139,depth_duration_stimuli/003490_2014-05-21_15-50-11_094959634447_rgbf000101-resize_3/003490_2014-05-21_15-50-11_094959634447_rgbf000101-resize_3-target.png,1000,3.6445,0.3,5611,999,meters,jsons/v1_VE1000_randls_35.json,1465165,1952755,63,Man
139,857628,DepthScenes,duration_manipulation_targetAtFixation,jsons/v1_VE1000_randls_35.json,http://54.235.29.9/FacialAge/BNav_EC2/DepthDuration/v2_depth_duration_MTurk/v2_DepthDuration_HTML.html#140,140,1366,768,1366,768,8-22-2022,7-59-24,140,depth_duration_stimuli/000469_2014-06-09_19-42-10_260595134347_rgbf000081-resize_1/000469_2014-06-09_19-42-10_260595134347_rgbf000081-resize_1-target.png,1000,1.652,0.6,9611,993,meters,jsons/v1_VE1000_randls_35.json,1465165,1952755,63,Man
140,857628,DepthScenes,duration_manipulation_targetAtFixation,jsons/v1_VE1000_randls_35.json,http://54.235.29.9/FacialAge/BNav_EC2/DepthDuration/v2_depth_duration_MTurk/v2_DepthDuration_HTML.html#140,140,1366,768,1366,768,8-22-2022,7-59-24,141,depth_duration_stimuli/000483_2014-06-09_20-41-45_260595134347_rgbf000116-resize_4/000483_2014-06-09_20-41-45_260595134347_rgbf000116-resize_4-target.png,1000,1.337,0.9,5913,986,meters,jsons/v1_VE1000_randls_35.json,1465165,1952755,63,Man
141,857628,DepthScenes,duration_manipulation_targetAtFixation,jsons/v1_VE1000_randls_35.json,http://54.235.29.9/FacialAge/BNav_EC2/DepthDuration/v2_depth_duration_MTurk/v2_DepthDuration_HTML.html#140,140,1366,768,1366,768,8-22-2022,7-59-24,142,depth_duration_stimuli/000642_2014-06-08_16-59-25_260595134347_rgbf000098-resize_2/000642_2014-06-08_16-59-25_260595134347_rgbf000098-resize_2-target.png,1000,2.8815,0.4,14604,999,meters,jsons/v1_VE1000_randls_35.json,1465165,1952755,63,Man
142,857628,DepthScenes,duration_manipulation_targetAtFixation,jsons/v1_VE1000_randls_35.json,http://54.235.29.9/FacialAge/BNav_EC2/DepthDuration/v2_depth_duration_MTurk/v2_DepthDuration_HTML.html#140,140,1366,768,1366,768,8-22-2022,7-59-24,143,depth_duration_stimuli/002425_2014-06-28_20-27-29_260595134347_rgbf000031-resize_8/002425_2014-06-28_20-27-29_260595134347_rgbf000031-resize_8-target.png,1000,3.8960000000000004,0.2,5060,995,meters,jsons/v1_VE1000_randls_35.json,1465165,1952755,63,Man
143,857628,DepthScenes,duration_manipulation_targetAtFixation,jsons/v1_VE1000_randls_35.json,http://54.235.29.9/FacialAge/BNav_EC2/DepthDuration/v2_depth_duration_MTurk/v2_DepthDuration_HTML.html#140,140,1366,768,1366,768,8-22-2022,7-59-24,144,depth_duration_stimuli/002788_2014-06-22_19-36-03_094959634447_rgbf000088-resize_2/002788_2014-06-22_19-36-03_094959634447_rgbf000088-resize_2-target.png,1000,1.6465,1.32,16662,987,meters,jsons/v1_VE1000_randls_35.json,1465165,1952755,63,Man
144,857628,DepthScenes,duration_manipulation_targetAtFixation,jsons/v1_VE1000_randls_35.json,http://54.235.29.9/FacialAge/BNav_EC2/DepthDuration/v2_depth_duration_MTurk/v2_DepthDuration_HTML.html#140,140,1366,768,1366,768,8-22-2022,7-59-24,145,depth_duration_stimuli/000749_2014-06-08_21-55-06_260595134347_rgbf000070-resize_2/000749_2014-06-08_21-55-06_260595134347_rgbf000070-resize_2-target.png,1000,2.331,0.5,14480,814,meters,jsons/v1_VE1000_randls_35.json,1465165,1952755,63,Man
145,857628,DepthScenes,duration_manipulation_targetAtFixation,jsons/v1_VE1000_randls_35.json,http://54.235.29.9/FacialAge/BNav_EC2/DepthDuration/v2_depth_duration_MTurk/v2_DepthDuration_HTML.html#140,140,1366,768,1366,768,8-22-2022,7-59-24,146,depth_duration_stimuli/001498_2014-06-19_17-45-14_260595134347_rgbf000129-resize_4/001498_2014-06-19_17-45-14_260595134347_rgbf000129-resize-original.jpg,1000,1.4075,0.0,5528,999,meters,jsons/v1_VE1000_randls_35.json,1465165,1952755,63,Man
146,857628,DepthScenes,duration_manipulation_targetAtFixation,jsons/v1_VE1000_randls_35.json,http://54.235.29.9/FacialAge/BNav_EC2/DepthDuration/v2_depth_duration_MTurk/v2_DepthDuration_HTML.html#140,140,1366,768,1366,768,8-22-2022,7-59-24,147,depth_duration_stimuli/002630_2014-06-24_14-47-50_094959634447_rgbf000055-resize_1/002630_2014-06-24_14-47-50_094959634447_rgbf000055-resize_1-target.png,1000,3.0095,2.4,6347,998,meters,jsons/v1_VE1000_randls_35.json,1465165,1952755,63,Man
147,857628,DepthScenes,duration_manipulation_targetAtFixation,jsons/v1_VE1000_randls_35.json,http://54.235.29.9/FacialAge/BNav_EC2/DepthDuration/v2_depth_duration_MTurk/v2_DepthDuration_HTML.html#140,140,1366,768,1366,768,8-22-2022,7-59-24,148,depth_duration_stimuli/002758_2014-06-22_19-11-20_094959634447_rgbf000128-resize_1/002758_2014-06-22_19-11-20_094959634447_rgbf000128-resize_1-target.png,1000,2.555,0.7,5886,1005,meters,jsons/v1_VE1000_randls_35.json,1465165,1952755,63,Man
148,857628,DepthScenes,duration_manipulation_targetAtFixation,jsons/v1_VE1000_randls_35.json,http://54.235.29.9/FacialAge/BNav_EC2/DepthDuration/v2_depth_duration_MTurk/v2_DepthDuration_HTML.html#140,140,1366,768,1366,768,8-22-2022,7-59-24,149,depth_duration_stimuli/000878_2014-06-08_22-52-45_260595134347_rgbf000045-resize_2/000878_2014-06-08_22-52-45_260595134347_rgbf000045-resize_2-target.png,1000,2.092,0.2,6094,996,meters,jsons/v1_VE1000_randls_35.json,1465165,1952755,63,Man
149,857628,DepthScenes,duration_manipulation_targetAtFixation,jsons/v1_VE1000_randls_35.json,http://54.235.29.9/FacialAge/BNav_EC2/DepthDuration/v2_depth_duration_MTurk/v2_DepthDuration_HTML.html#140,140,1366,768,1366,768,8-22-2022,7-59-24,150,depth_duration_stimuli/002953_2014-06-08_17-32-18_094959634447_rgbf000059-resize_5/002953_2014-06-08_17-32-18_094959634447_rgbf000059-resize_5-target.png,1000,1.551,1.4,4860,1010,meters,jsons/v1_VE1000_randls_35.json,1465165,1952755,63,Man
150,857628,DepthScenes,duration_manipulation_targetAtFixation,jsons/v1_VE1000_randls_35.json,http://54.235.29.9/FacialAge/BNav_EC2/DepthDuration/v2_depth_duration_MTurk/v2_DepthDuration_HTML.html#140,140,1366,768,1366,768,8-22-2022,7-59-24,151,depth_duration_stimuli/000917_2014-06-09_22-45-29_260595134347_rgbf000149-resize_3/000917_2014-06-09_22-45-29_260595134347_rgbf000149-resize_3-target.png,1000,4.1865,0.7,6175,976,meters,jsons/v1_VE1000_randls_35.json,1465165,1952755,63,Man
151,857628,DepthScenes,duration_manipulation_targetAtFixation,jsons/v1_VE1000_randls_35.json,http://54.235.29.9/FacialAge/BNav_EC2/DepthDuration/v2_depth_duration_MTurk/v2_DepthDuration_HTML.html#140,140,1366,768,1366,768,8-22-2022,7-59-24,152,depth_duration_stimuli/002323_2014-06-28_20-01-54_260595134347_rgbf000051-resize_4/002323_2014-06-28_20-01-54_260595134347_rgbf000051-resize_4-target.png,1000,3.7310000000000003,0.4,6746,1000,meters,jsons/v1_VE1000_randls_35.json,1465165,1952755,63,Man
152,857628,DepthScenes,duration_manipulation_targetAtFixation,jsons/v1_VE1000_randls_35.json,http://54.235.29.9/FacialAge/BNav_EC2/DepthDuration/v2_depth_duration_MTurk/v2_DepthDuration_HTML.html#140,140,1366,768,1366,768,8-22-2022,7-59-24,153,depth_duration_stimuli/001806_2014-06-26_20-50-20_260595134347_rgbf000091-resize_1/001806_2014-06-26_20-50-20_260595134347_rgbf000091-resize_1-target.png,1000,2.7305,1.5,8398,995,meters,jsons/v1_VE1000_randls_35.json,1465165,1952755,63,Man
153,857628,DepthScenes,duration_manipulation_targetAtFixation,jsons/v1_VE1000_randls_35.json,http://54.235.29.9/FacialAge/BNav_EC2/DepthDuration/v2_depth_duration_MTurk/v2_DepthDuration_HTML.html#140,140,1366,768,1366,768,8-22-2022,7-59-24,154,depth_duration_stimuli/001617_2014-06-20_11-35-32_260595134347_rgbf000066-resize_1/001617_2014-06-20_11-35-32_260595134347_rgbf000066-resize_1-target.png,1000,3.7910000000000004,2.0,3941,992,meters,jsons/v1_VE1000_randls_35.json,1465165,1952755,63,Man
154,857628,DepthScenes,duration_manipulation_targetAtFixation,jsons/v1_VE1000_randls_35.json,http://54.235.29.9/FacialAge/BNav_EC2/DepthDuration/v2_depth_duration_MTurk/v2_DepthDuration_HTML.html#140,140,1366,768,1366,768,8-22-2022,7-59-24,155,depth_duration_stimuli/001055_2014-06-08_18-45-35_260595134347_rgbf000111-resize_4/001055_2014-06-08_18-45-35_260595134347_rgbf000111-resize_4-target.png,1000,2.4290000000000003,2.3,8445,1004,meters,jsons/v1_VE1000_randls_35.json,1465165,1952755,63,Man
155,857628,DepthScenes,duration_manipulation_targetAtFixation,jsons/v1_VE1000_randls_35.json,http://54.235.29.9/FacialAge/BNav_EC2/DepthDuration/v2_depth_duration_MTurk/v2_DepthDuration_HTML.html#140,140,1366,768,1366,768,8-22-2022,7-59-24,156,depth_duration_stimuli/000549_2014-06-08_22-10-24_260595134347_rgbf000247-resize_3/000549_2014-06-08_22-10-24_260595134347_rgbf000247-resize_3-target.png,1000,1.841,0.4,11512,995,meters,jsons/v1_VE1000_randls_35.json,1465165,1952755,63,Man
156,857628,DepthScenes,duration_manipulation_targetAtFixation,jsons/v1_VE1000_randls_35.json,http://54.235.29.9/FacialAge/BNav_EC2/DepthDuration/v2_depth_duration_MTurk/v2_DepthDuration_HTML.html#140,140,1366,768,1366,768,8-22-2022,7-59-24,157,depth_duration_stimuli/002549_2014-06-24_13-41-39_094959634447_rgbf000022-resize_3/002549_2014-06-24_13-41-39_094959634447_rgbf000022-resize_3-target.png,1000,1.476,2.0,4940,995,meters,jsons/v1_VE1000_randls_35.json,1465165,1952755,63,Man
157,857628,DepthScenes,duration_manipulation_targetAtFixation,jsons/v1_VE1000_randls_35.json,http://54.235.29.9/FacialAge/BNav_EC2/DepthDuration/v2_depth_duration_MTurk/v2_DepthDuration_HTML.html#140,140,1366,768,1366,768,8-22-2022,7-59-24,158,depth_duration_stimuli/002750_2014-06-22_19-08-03_094959634447_rgbf000094-resize_4/002750_2014-06-22_19-08-03_094959634447_rgbf000094-resize_4-target.png,1000,2.354,0.7,4198,972,meters,jsons/v1_VE1000_randls_35.json,1465165,1952755,63,Man
158,857628,DepthScenes,duration_manipulation_targetAtFixation,jsons/v1_VE1000_randls_35.json,http://54.235.29.9/FacialAge/BNav_EC2/DepthDuration/v2_depth_duration_MTurk/v2_DepthDuration_HTML.html#140,140,1366,768,1366,768,8-22-2022,7-59-24,159,depth_duration_stimuli/000739_2014-06-08_18-45-58_260595134347_rgbf000068-resize_1/000739_2014-06-08_18-45-58_260595134347_rgbf000068-resize_1-target.png,1000,3.534,1.0,11630,1002,meters,jsons/v1_VE1000_randls_35.json,1465165,1952755,63,Man
159,857628,DepthScenes,duration_manipulation_targetAtFixation,jsons/v1_VE1000_randls_35.json,http://54.235.29.9/FacialAge/BNav_EC2/DepthDuration/v2_depth_duration_MTurk/v2_DepthDuration_HTML.html#140,140,1366,768,1366,768,8-22-2022,7-59-24,160,depth_duration_stimuli/000734_2014-06-08_17-39-11_260595134347_rgbf000128-resize_2/000734_2014-06-08_17-39-11_260595134347_rgbf000128-resize_2-target.png,1000,4.098,0.7,9095,1336,meters,jsons/v1_VE1000_randls_35.json,1465165,1952755,63,Man
160,857628,DepthScenes,duration_manipulation_targetAtFixation,jsons/v1_VE1000_randls_35.json,http://54.235.29.9/FacialAge/BNav_EC2/DepthDuration/v2_depth_duration_MTurk/v2_DepthDuration_HTML.html#140,140,1366,768,1366,768,8-22-2022,7-59-24,161,depth_duration_stimuli/000692_2014-06-08_13-09-42_260595134347_rgbf000199-resize_2/000692_2014-06-08_13-09-42_260595134347_rgbf000199-resize_2-target.png,1000,3.661,0.8,16577,1002,meters,jsons/v1_VE1000_randls_35.json,1465165,1952755,63,Man
161,857628,DepthScenes,duration_manipulation_targetAtFixation,jsons/v1_VE1000_randls_35.json,http://54.235.29.9/FacialAge/BNav_EC2/DepthDuration/v2_depth_duration_MTurk/v2_DepthDuration_HTML.html#140,140,1366,768,1366,768,8-22-2022,7-59-24,162,depth_duration_stimuli/001094_2014-06-15_17-36-00_260595134347_rgbf000205-resize_0/001094_2014-06-15_17-36-00_260595134347_rgbf000205-resize_0-target.png,1000,4.2175,0.6,36613,999,meters,jsons/v1_VE1000_randls_35.json,1465165,1952755,63,Man
162,857628,DepthScenes,duration_manipulation_targetAtFixation,jsons/v1_VE1000_randls_35.json,http://54.235.29.9/FacialAge/BNav_EC2/DepthDuration/v2_depth_duration_MTurk/v2_DepthDuration_HTML.html#140,140,1366,768,1366,768,8-22-2022,7-59-24,163,depth_duration_stimuli/000436_2014-06-09_22-25-11_260595134347_rgbf000137-resize_1/000436_2014-06-09_22-25-11_260595134347_rgbf000137-resize_1-target.png,1000,4.0705,2.0,4529,1005,meters,jsons/v1_VE1000_randls_35.json,1465165,1952755,63,Man
163,857628,DepthScenes,duration_manipulation_targetAtFixation,jsons/v1_VE1000_randls_35.json,http://54.235.29.9/FacialAge/BNav_EC2/DepthDuration/v2_depth_duration_MTurk/v2_DepthDuration_HTML.html#140,140,1366,768,1366,768,8-22-2022,7-59-24,164,depth_duration_stimuli/002444_2014-06-28_20-32-08_260595134347_rgbf000027-resize_0/002444_2014-06-28_20-32-08_260595134347_rgbf000027-resize_0-target.png,1000,4.388999999999999,1.3,5625,995,meters,jsons/v1_VE1000_randls_35.json,1465165,1952755,63,Man
