,subjID,experimentName,versionName,sequenceName,url,selected_row,windowWidth,windowHeight,screenWidth,screenHeight,startDate,startTime,trial,stimulus,duration,actual_depth,depth_estimate,trial_RT,log_sceneDuration,unitSelection,seq_filepath,experimentTime,totalTime,age,gender
0,858720,DepthScenes,duration_manipulation_targetAtFixation,jsons/VE125_randls_64.json,http://54.235.29.9/FacialAge/BNav_EC2/DepthDuration/v2_depth_duration_MTurk/v2_DepthDuration_HTML.html#122,122,1366,625,1366,768,9-3-2022,9-22-55,1,depth_duration_stimuli/002988_2014-06-15_12-24-20_094959634447_rgbf000150-resize_1/002988_2014-06-15_12-24-20_094959634447_rgbf000150-resize_1-target.png,125,4.7669999999999995,3,3161,122,meters,jsons/VE125_randls_64.json,621084,1874142,31,Man
1,858720,DepthScenes,duration_manipulation_targetAtFixation,jsons/VE125_randls_64.json,http://54.235.29.9/FacialAge/BNav_EC2/DepthDuration/v2_depth_duration_MTurk/v2_DepthDuration_HTML.html#122,122,1366,625,1366,768,9-3-2022,9-22-55,2,depth_duration_stimuli/001052_2014-06-08_18-24-54_260595134347_rgbf000130-resize_1/001052_2014-06-08_18-24-54_260595134347_rgbf000130-resize_1-target.png,125,4.1045,1,4997,125,meters,jsons/VE125_randls_64.json,621084,1874142,31,Man
2,858720,DepthScenes,duration_manipulation_targetAtFixation,jsons/VE125_randls_64.json,http://54.235.29.9/FacialAge/BNav_EC2/DepthDuration/v2_depth_duration_MTurk/v2_DepthDuration_HTML.html#122,122,1366,625,1366,768,9-3-2022,9-22-55,3,depth_duration_stimuli/002964_2014-06-08_17-46-11_094959634447_rgbf000091-resize_4/002964_2014-06-08_17-46-11_094959634447_rgbf000091-resize_4-target.png,125,1.6909999999999998,2,4471,120,meters,jsons/VE125_randls_64.json,621084,1874142,31,Man
3,858720,DepthScenes,duration_manipulation_targetAtFixation,jsons/VE125_randls_64.json,http://54.235.29.9/FacialAge/BNav_EC2/DepthDuration/v2_depth_duration_MTurk/v2_DepthDuration_HTML.html#122,122,1366,625,1366,768,9-3-2022,9-22-55,4,depth_duration_stimuli/002136_2014-06-25_21-18-03_260595134347_rgbf000109-resize_3/002136_2014-06-25_21-18-03_260595134347_rgbf000109-resize_3-target.png,125,1.9569999999999999,3,3266,126,meters,jsons/VE125_randls_64.json,621084,1874142,31,Man
4,858720,DepthScenes,duration_manipulation_targetAtFixation,jsons/VE125_randls_64.json,http://54.235.29.9/FacialAge/BNav_EC2/DepthDuration/v2_depth_duration_MTurk/v2_DepthDuration_HTML.html#122,122,1366,625,1366,768,9-3-2022,9-22-55,5,depth_duration_stimuli/000917_2014-06-09_22-45-29_260595134347_rgbf000149-resize_3/000917_2014-06-09_22-45-29_260595134347_rgbf000149-resize_3-target.png,125,4.1865,3,2639,125,meters,jsons/VE125_randls_64.json,621084,1874142,31,Man
5,858720,DepthScenes,duration_manipulation_targetAtFixation,jsons/VE125_randls_64.json,http://54.235.29.9/FacialAge/BNav_EC2/DepthDuration/v2_depth_duration_MTurk/v2_DepthDuration_HTML.html#122,122,1366,625,1366,768,9-3-2022,9-22-55,6,depth_duration_stimuli/002323_2014-06-28_20-01-54_260595134347_rgbf000051-resize_4/002323_2014-06-28_20-01-54_260595134347_rgbf000051-resize_4-target.png,125,3.7310000000000003,3,3531,127,meters,jsons/VE125_randls_64.json,621084,1874142,31,Man
6,858720,DepthScenes,duration_manipulation_targetAtFixation,jsons/VE125_randls_64.json,http://54.235.29.9/FacialAge/BNav_EC2/DepthDuration/v2_depth_duration_MTurk/v2_DepthDuration_HTML.html#122,122,1366,625,1366,768,9-3-2022,9-22-55,7,depth_duration_stimuli/002279_2014-06-28_18-55-32_260595134347_rgbf000040-resize_5/002279_2014-06-28_18-55-32_260595134347_rgbf000040-resize_5-target.png,125,1.5043333333333,2,3733,125,meters,jsons/VE125_randls_64.json,621084,1874142,31,Man
7,858720,DepthScenes,duration_manipulation_targetAtFixation,jsons/VE125_randls_64.json,http://54.235.29.9/FacialAge/BNav_EC2/DepthDuration/v2_depth_duration_MTurk/v2_DepthDuration_HTML.html#122,122,1366,625,1366,768,9-3-2022,9-22-55,8,depth_duration_stimuli/000635_2014-06-08_16-38-42_260595134347_rgbf000106-resize_1/000635_2014-06-08_16-38-42_260595134347_rgbf000106-resize_1-target.png,125,2.074,3,3423,123,meters,jsons/VE125_randls_64.json,621084,1874142,31,Man
8,858720,DepthScenes,duration_manipulation_targetAtFixation,jsons/VE125_randls_64.json,http://54.235.29.9/FacialAge/BNav_EC2/DepthDuration/v2_depth_duration_MTurk/v2_DepthDuration_HTML.html#122,122,1366,625,1366,768,9-3-2022,9-22-55,9,depth_duration_stimuli/000506_2014-06-08_23-21-00_260595134347_rgbf000070-resize_7/000506_2014-06-08_23-21-00_260595134347_rgbf000070-resize_7-target.png,125,4.0585,4,3060,126,meters,jsons/VE125_randls_64.json,621084,1874142,31,Man
9,858720,DepthScenes,duration_manipulation_targetAtFixation,jsons/VE125_randls_64.json,http://54.235.29.9/FacialAge/BNav_EC2/DepthDuration/v2_depth_duration_MTurk/v2_DepthDuration_HTML.html#122,122,1366,625,1366,768,9-3-2022,9-22-55,10,depth_duration_stimuli/003079_2014-06-15_15-18-20_094959634447_rgbf000152-resize_8/003079_2014-06-15_15-18-20_094959634447_rgbf000152-resize_8-target.png,125,2.8775,5,3033,112,meters,jsons/VE125_randls_64.json,621084,1874142,31,Man
10,858720,DepthScenes,duration_manipulation_targetAtFixation,jsons/VE125_randls_64.json,http://54.235.29.9/FacialAge/BNav_EC2/DepthDuration/v2_depth_duration_MTurk/v2_DepthDuration_HTML.html#122,122,1366,625,1366,768,9-3-2022,9-22-55,11,depth_duration_stimuli/000758_2014-06-08_22-05-08_260595134347_rgbf000085-resize_0/000758_2014-06-08_22-05-08_260595134347_rgbf000085-resize_0-target.png,125,3.3810000000000002,3,4633,116,meters,jsons/VE125_randls_64.json,621084,1874142,31,Man
11,858720,DepthScenes,duration_manipulation_targetAtFixation,jsons/VE125_randls_64.json,http://54.235.29.9/FacialAge/BNav_EC2/DepthDuration/v2_depth_duration_MTurk/v2_DepthDuration_HTML.html#122,122,1366,625,1366,768,9-3-2022,9-22-55,12,depth_duration_stimuli/000854_2014-06-09_19-43-13_260595134347_rgbf000066-resize_0/000854_2014-06-09_19-43-13_260595134347_rgbf000066-resize_0-target.png,125,3.068,3,3309,85,meters,jsons/VE125_randls_64.json,621084,1874142,31,Man
12,858720,DepthScenes,duration_manipulation_targetAtFixation,jsons/VE125_randls_64.json,http://54.235.29.9/FacialAge/BNav_EC2/DepthDuration/v2_depth_duration_MTurk/v2_DepthDuration_HTML.html#122,122,1366,625,1366,768,9-3-2022,9-22-55,13,depth_duration_stimuli/000569_2014-06-09_22-51-47_260595134347_rgbf000141-resize_3/000569_2014-06-09_22-51-47_260595134347_rgbf000141-resize-original.jpg,125,4.512,0,5281,130,meters,jsons/VE125_randls_64.json,621084,1874142,31,Man
13,858720,DepthScenes,duration_manipulation_targetAtFixation,jsons/VE125_randls_64.json,http://54.235.29.9/FacialAge/BNav_EC2/DepthDuration/v2_depth_duration_MTurk/v2_DepthDuration_HTML.html#122,122,1366,625,1366,768,9-3-2022,9-22-55,14,depth_duration_stimuli/002788_2014-06-22_19-36-03_094959634447_rgbf000088-resize_2/002788_2014-06-22_19-36-03_094959634447_rgbf000088-resize_2-target.png,125,1.6465,2,3402,124,meters,jsons/VE125_randls_64.json,621084,1874142,31,Man
14,858720,DepthScenes,duration_manipulation_targetAtFixation,jsons/VE125_randls_64.json,http://54.235.29.9/FacialAge/BNav_EC2/DepthDuration/v2_depth_duration_MTurk/v2_DepthDuration_HTML.html#122,122,1366,625,1366,768,9-3-2022,9-22-55,15,depth_duration_stimuli/000749_2014-06-08_21-55-06_260595134347_rgbf000070-resize_2/000749_2014-06-08_21-55-06_260595134347_rgbf000070-resize_2-target.png,125,2.331,2,2753,126,meters,jsons/VE125_randls_64.json,621084,1874142,31,Man
15,858720,DepthScenes,duration_manipulation_targetAtFixation,jsons/VE125_randls_64.json,http://54.235.29.9/FacialAge/BNav_EC2/DepthDuration/v2_depth_duration_MTurk/v2_DepthDuration_HTML.html#122,122,1366,625,1366,768,9-3-2022,9-22-55,16,depth_duration_stimuli/002989_2014-06-15_12-25-03_094959634447_rgbf000150-resize_3/002989_2014-06-15_12-25-03_094959634447_rgbf000150-resize_3-target.png,125,4.1975,1,2909,113,meters,jsons/VE125_randls_64.json,621084,1874142,31,Man
16,858720,DepthScenes,duration_manipulation_targetAtFixation,jsons/VE125_randls_64.json,http://54.235.29.9/FacialAge/BNav_EC2/DepthDuration/v2_depth_duration_MTurk/v2_DepthDuration_HTML.html#122,122,1366,625,1366,768,9-3-2022,9-22-55,17,depth_duration_stimuli/000866_2014-06-09_20-45-42_260595134347_rgbf000139-resize_1/000866_2014-06-09_20-45-42_260595134347_rgbf000139-resize_1-target.png,125,3.2155,4,3378,123,meters,jsons/VE125_randls_64.json,621084,1874142,31,Man
17,858720,DepthScenes,duration_manipulation_targetAtFixation,jsons/VE125_randls_64.json,http://54.235.29.9/FacialAge/BNav_EC2/DepthDuration/v2_depth_duration_MTurk/v2_DepthDuration_HTML.html#122,122,1366,625,1366,768,9-3-2022,9-22-55,18,depth_duration_stimuli/002039_2014-06-24_20-22-38_260595134347_rgbf000084-resize_1/002039_2014-06-24_20-22-38_260595134347_rgbf000084-resize_1-target.png,125,4.408,3,3205,120,meters,jsons/VE125_randls_64.json,621084,1874142,31,Man
18,858720,DepthScenes,duration_manipulation_targetAtFixation,jsons/VE125_randls_64.json,http://54.235.29.9/FacialAge/BNav_EC2/DepthDuration/v2_depth_duration_MTurk/v2_DepthDuration_HTML.html#122,122,1366,625,1366,768,9-3-2022,9-22-55,19,depth_duration_stimuli/002103_2014-06-25_20-00-40_260595134347_rgbf000049-resize_0/002103_2014-06-25_20-00-40_260595134347_rgbf000049-resize_0-target.png,125,4.105,3,2788,138,meters,jsons/VE125_randls_64.json,621084,1874142,31,Man
19,858720,DepthScenes,duration_manipulation_targetAtFixation,jsons/VE125_randls_64.json,http://54.235.29.9/FacialAge/BNav_EC2/DepthDuration/v2_depth_duration_MTurk/v2_DepthDuration_HTML.html#122,122,1366,625,1366,768,9-3-2022,9-22-55,20,depth_duration_stimuli/001244_2014-06-17_16-47-45_260595134347_rgbf000030-resize_4/001244_2014-06-17_16-47-45_260595134347_rgbf000030-resize_4-target.png,125,2.0425,5,3217,125,meters,jsons/VE125_randls_64.json,621084,1874142,31,Man
20,858720,DepthScenes,duration_manipulation_targetAtFixation,jsons/VE125_randls_64.json,http://54.235.29.9/FacialAge/BNav_EC2/DepthDuration/v2_depth_duration_MTurk/v2_DepthDuration_HTML.html#122,122,1366,625,1366,768,9-3-2022,9-22-55,21,depth_duration_stimuli/003495_2014-05-21_16-01-51_094959634447_rgbf000100-resize_3/003495_2014-05-21_16-01-51_094959634447_rgbf000100-resize_3-target.png,125,1.6255,4,2679,124,meters,jsons/VE125_randls_64.json,621084,1874142,31,Man
21,858720,DepthScenes,duration_manipulation_targetAtFixation,jsons/VE125_randls_64.json,http://54.235.29.9/FacialAge/BNav_EC2/DepthDuration/v2_depth_duration_MTurk/v2_DepthDuration_HTML.html#122,122,1366,625,1366,768,9-3-2022,9-22-55,22,depth_duration_stimuli/001056_2014-06-08_18-46-44_260595134347_rgbf000068-resize_0/001056_2014-06-08_18-46-44_260595134347_rgbf000068-resize_0-target.png,125,2.6625,3,2900,116,meters,jsons/VE125_randls_64.json,621084,1874142,31,Man
22,858720,DepthScenes,duration_manipulation_targetAtFixation,jsons/VE125_randls_64.json,http://54.235.29.9/FacialAge/BNav_EC2/DepthDuration/v2_depth_duration_MTurk/v2_DepthDuration_HTML.html#122,122,1366,625,1366,768,9-3-2022,9-22-55,23,depth_duration_stimuli/002199_2014-06-28_18-33-56_260595134347_rgbf000074-resize_0/002199_2014-06-28_18-33-56_260595134347_rgbf000074-resize_0-target.png,125,1.996,3,2842,123,meters,jsons/VE125_randls_64.json,621084,1874142,31,Man
23,858720,DepthScenes,duration_manipulation_targetAtFixation,jsons/VE125_randls_64.json,http://54.235.29.9/FacialAge/BNav_EC2/DepthDuration/v2_depth_duration_MTurk/v2_DepthDuration_HTML.html#122,122,1366,625,1366,768,9-3-2022,9-22-55,24,depth_duration_stimuli/002509_2014-06-24_13-19-22_094959634447_rgbf000077-resize_0/002509_2014-06-24_13-19-22_094959634447_rgbf000077-resize_0-target.png,125,1.3065,3,3419,116,meters,jsons/VE125_randls_64.json,621084,1874142,31,Man
24,858720,DepthScenes,duration_manipulation_targetAtFixation,jsons/VE125_randls_64.json,http://54.235.29.9/FacialAge/BNav_EC2/DepthDuration/v2_depth_duration_MTurk/v2_DepthDuration_HTML.html#122,122,1366,625,1366,768,9-3-2022,9-22-55,25,depth_duration_stimuli/003338_2014-05-20_11-01-23_094959634447_rgbf000051-resize_6/003338_2014-05-20_11-01-23_094959634447_rgbf000051-resize_6-target.png,125,1.693,2,3196,118,meters,jsons/VE125_randls_64.json,621084,1874142,31,Man
25,858720,DepthScenes,duration_manipulation_targetAtFixation,jsons/VE125_randls_64.json,http://54.235.29.9/FacialAge/BNav_EC2/DepthDuration/v2_depth_duration_MTurk/v2_DepthDuration_HTML.html#122,122,1366,625,1366,768,9-3-2022,9-22-55,26,depth_duration_stimuli/000642_2014-06-08_16-59-25_260595134347_rgbf000098-resize_2/000642_2014-06-08_16-59-25_260595134347_rgbf000098-resize_2-target.png,125,2.8815,3,3637,120,meters,jsons/VE125_randls_64.json,621084,1874142,31,Man
26,858720,DepthScenes,duration_manipulation_targetAtFixation,jsons/VE125_randls_64.json,http://54.235.29.9/FacialAge/BNav_EC2/DepthDuration/v2_depth_duration_MTurk/v2_DepthDuration_HTML.html#122,122,1366,625,1366,768,9-3-2022,9-22-55,27,depth_duration_stimuli/002425_2014-06-28_20-27-29_260595134347_rgbf000031-resize_8/002425_2014-06-28_20-27-29_260595134347_rgbf000031-resize_8-target.png,125,3.8960000000000004,2,3400,132,meters,jsons/VE125_randls_64.json,621084,1874142,31,Man
27,858720,DepthScenes,duration_manipulation_targetAtFixation,jsons/VE125_randls_64.json,http://54.235.29.9/FacialAge/BNav_EC2/DepthDuration/v2_depth_duration_MTurk/v2_DepthDuration_HTML.html#122,122,1366,625,1366,768,9-3-2022,9-22-55,28,depth_duration_stimuli/003070_2014-06-15_14-58-27_094959634447_rgbf000150-resize_3/003070_2014-06-15_14-58-27_094959634447_rgbf000150-resize_3-target.png,125,2.9415,4,3052,121,meters,jsons/VE125_randls_64.json,621084,1874142,31,Man
28,858720,DepthScenes,duration_manipulation_targetAtFixation,jsons/VE125_randls_64.json,http://54.235.29.9/FacialAge/BNav_EC2/DepthDuration/v2_depth_duration_MTurk/v2_DepthDuration_HTML.html#122,122,1366,625,1366,768,9-3-2022,9-22-55,29,depth_duration_stimuli/000943_2014-06-09_19-31-07_260595134347_rgbf000128-resize_1/000943_2014-06-09_19-31-07_260595134347_rgbf000128-resize_1-target.png,125,1.9765,5,2829,124,meters,jsons/VE125_randls_64.json,621084,1874142,31,Man
29,858720,DepthScenes,duration_manipulation_targetAtFixation,jsons/VE125_randls_64.json,http://54.235.29.9/FacialAge/BNav_EC2/DepthDuration/v2_depth_duration_MTurk/v2_DepthDuration_HTML.html#122,122,1366,625,1366,768,9-3-2022,9-22-55,30,depth_duration_stimuli/000375_2014-06-08_11-17-29_260595134347_rgbf000133-resize_2/000375_2014-06-08_11-17-29_260595134347_rgbf000133-resize-original.jpg,125,4.718,0,4473,124,meters,jsons/VE125_randls_64.json,621084,1874142,31,Man
30,858720,DepthScenes,duration_manipulation_targetAtFixation,jsons/VE125_randls_64.json,http://54.235.29.9/FacialAge/BNav_EC2/DepthDuration/v2_depth_duration_MTurk/v2_DepthDuration_HTML.html#122,122,1366,625,1366,768,9-3-2022,9-22-55,31,depth_duration_stimuli/000929_2014-06-09_16-33-19_260595134347_rgbf000139-resize_0/000929_2014-06-09_16-33-19_260595134347_rgbf000139-resize_0-target.png,125,2.8680000000000003,3,3971,117,meters,jsons/VE125_randls_64.json,621084,1874142,31,Man
31,858720,DepthScenes,duration_manipulation_targetAtFixation,jsons/VE125_randls_64.json,http://54.235.29.9/FacialAge/BNav_EC2/DepthDuration/v2_depth_duration_MTurk/v2_DepthDuration_HTML.html#122,122,1366,625,1366,768,9-3-2022,9-22-55,32,depth_duration_stimuli/000457_2014-06-08_16-52-43_260595134347_rgbf000199-resize_1/000457_2014-06-08_16-52-43_260595134347_rgbf000199-resize_1-target.png,125,3.6489999999999996,3,2956,112,meters,jsons/VE125_randls_64.json,621084,1874142,31,Man
32,858720,DepthScenes,duration_manipulation_targetAtFixation,jsons/VE125_randls_64.json,http://54.235.29.9/FacialAge/BNav_EC2/DepthDuration/v2_depth_duration_MTurk/v2_DepthDuration_HTML.html#122,122,1366,625,1366,768,9-3-2022,9-22-55,33,depth_duration_stimuli/000878_2014-06-08_22-52-45_260595134347_rgbf000045-resize_2/000878_2014-06-08_22-52-45_260595134347_rgbf000045-resize_2-target.png,125,2.092,3,2765,63,meters,jsons/VE125_randls_64.json,621084,1874142,31,Man
33,858720,DepthScenes,duration_manipulation_targetAtFixation,jsons/VE125_randls_64.json,http://54.235.29.9/FacialAge/BNav_EC2/DepthDuration/v2_depth_duration_MTurk/v2_DepthDuration_HTML.html#122,122,1366,625,1366,768,9-3-2022,9-22-55,34,depth_duration_stimuli/002953_2014-06-08_17-32-18_094959634447_rgbf000059-resize_5/002953_2014-06-08_17-32-18_094959634447_rgbf000059-resize_5-target.png,125,1.551,2,3213,125,meters,jsons/VE125_randls_64.json,621084,1874142,31,Man
34,858720,DepthScenes,duration_manipulation_targetAtFixation,jsons/VE125_randls_64.json,http://54.235.29.9/FacialAge/BNav_EC2/DepthDuration/v2_depth_duration_MTurk/v2_DepthDuration_HTML.html#122,122,1366,625,1366,768,9-3-2022,9-22-55,35,depth_duration_stimuli/000493_2014-06-09_21-01-18_260595134347_rgbf000196-resize_3/000493_2014-06-09_21-01-18_260595134347_rgbf000196-resize_3-target.png,125,3.44,2,3667,124,meters,jsons/VE125_randls_64.json,621084,1874142,31,Man
35,858720,DepthScenes,duration_manipulation_targetAtFixation,jsons/VE125_randls_64.json,http://54.235.29.9/FacialAge/BNav_EC2/DepthDuration/v2_depth_duration_MTurk/v2_DepthDuration_HTML.html#122,122,1366,625,1366,768,9-3-2022,9-22-55,36,depth_duration_stimuli/000191_2014-05-12_17-07-38_260595134347_rgbf000199-resize_0/000191_2014-05-12_17-07-38_260595134347_rgbf000199-resize_0-target.png,125,3.7995,3,2808,119,meters,jsons/VE125_randls_64.json,621084,1874142,31,Man
36,858720,DepthScenes,duration_manipulation_targetAtFixation,jsons/VE125_randls_64.json,http://54.235.29.9/FacialAge/BNav_EC2/DepthDuration/v2_depth_duration_MTurk/v2_DepthDuration_HTML.html#122,122,1366,625,1366,768,9-3-2022,9-22-55,37,depth_duration_stimuli/001808_2014-06-26_20-50-58_260595134347_rgbf000029-resize_1/001808_2014-06-26_20-50-58_260595134347_rgbf000029-resize_1-target.png,125,4.249,3,3097,128,meters,jsons/VE125_randls_64.json,621084,1874142,31,Man
37,858720,DepthScenes,duration_manipulation_targetAtFixation,jsons/VE125_randls_64.json,http://54.235.29.9/FacialAge/BNav_EC2/DepthDuration/v2_depth_duration_MTurk/v2_DepthDuration_HTML.html#122,122,1366,625,1366,768,9-3-2022,9-22-55,38,depth_duration_stimuli/001815_2014-06-26_20-52-55_260595134347_rgbf000020-resize_0/001815_2014-06-26_20-52-55_260595134347_rgbf000020-resize_0-target.png,125,3.3865,2,3019,134,meters,jsons/VE125_randls_64.json,621084,1874142,31,Man
38,858720,DepthScenes,duration_manipulation_targetAtFixation,jsons/VE125_randls_64.json,http://54.235.29.9/FacialAge/BNav_EC2/DepthDuration/v2_depth_duration_MTurk/v2_DepthDuration_HTML.html#122,122,1366,625,1366,768,9-3-2022,9-22-55,39,depth_duration_stimuli/003492_2014-05-21_15-50-55_094959634447_rgbf000828-resize_1/003492_2014-05-21_15-50-55_094959634447_rgbf000828-resize_1-target.png,125,4.06875,2,3458,134,meters,jsons/VE125_randls_64.json,621084,1874142,31,Man
39,858720,DepthScenes,duration_manipulation_targetAtFixation,jsons/VE125_randls_64.json,http://54.235.29.9/FacialAge/BNav_EC2/DepthDuration/v2_depth_duration_MTurk/v2_DepthDuration_HTML.html#122,122,1366,625,1366,768,9-3-2022,9-22-55,40,depth_duration_stimuli/002568_2014-06-24_13-59-21_094959634447_rgbf000062-resize_4/002568_2014-06-24_13-59-21_094959634447_rgbf000062-resize_4-target.png,125,3.015,1,3741,113,meters,jsons/VE125_randls_64.json,621084,1874142,31,Man
40,858720,DepthScenes,duration_manipulation_targetAtFixation,jsons/VE125_randls_64.json,http://54.235.29.9/FacialAge/BNav_EC2/DepthDuration/v2_depth_duration_MTurk/v2_DepthDuration_HTML.html#122,122,1366,625,1366,768,9-3-2022,9-22-55,41,depth_duration_stimuli/001029_2014-06-08_13-17-57_260595134347_rgbf000065-resize_1/001029_2014-06-08_13-17-57_260595134347_rgbf000065-resize_1-target.png,125,3.0835,2,3470,123,meters,jsons/VE125_randls_64.json,621084,1874142,31,Man
41,858720,DepthScenes,duration_manipulation_targetAtFixation,jsons/VE125_randls_64.json,http://54.235.29.9/FacialAge/BNav_EC2/DepthDuration/v2_depth_duration_MTurk/v2_DepthDuration_HTML.html#122,122,1366,625,1366,768,9-3-2022,9-22-55,42,depth_duration_stimuli/000677_2014-06-08_23-10-32_260595134347_rgbf000158-resize_6/000677_2014-06-08_23-10-32_260595134347_rgbf000158-resize_6-target.png,125,3.556,4,2889,123,meters,jsons/VE125_randls_64.json,621084,1874142,31,Man
42,858720,DepthScenes,duration_manipulation_targetAtFixation,jsons/VE125_randls_64.json,http://54.235.29.9/FacialAge/BNav_EC2/DepthDuration/v2_depth_duration_MTurk/v2_DepthDuration_HTML.html#122,122,1366,625,1366,768,9-3-2022,9-22-55,43,depth_duration_stimuli/002748_2014-06-22_19-07-22_094959634447_rgbf000078-resize_1/002748_2014-06-22_19-07-22_094959634447_rgbf000078-resize_1-target.png,125,4.6705,2,3694,124,meters,jsons/VE125_randls_64.json,621084,1874142,31,Man
43,858720,DepthScenes,duration_manipulation_targetAtFixation,jsons/VE125_randls_64.json,http://54.235.29.9/FacialAge/BNav_EC2/DepthDuration/v2_depth_duration_MTurk/v2_DepthDuration_HTML.html#122,122,1366,625,1366,768,9-3-2022,9-22-55,44,depth_duration_stimuli/002995_2014-06-15_12-31-26_094959634447_rgbf000150-resize_1/002995_2014-06-15_12-31-26_094959634447_rgbf000150-resize_1-target.png,125,3.8360000000000003,3,2693,127,meters,jsons/VE125_randls_64.json,621084,1874142,31,Man
44,858720,DepthScenes,duration_manipulation_targetAtFixation,jsons/VE125_randls_64.json,http://54.235.29.9/FacialAge/BNav_EC2/DepthDuration/v2_depth_duration_MTurk/v2_DepthDuration_HTML.html#122,122,1366,625,1366,768,9-3-2022,9-22-55,45,depth_duration_stimuli/000787_2014-06-08_22-33-53_260595134347_rgbf000175-resize_1/000787_2014-06-08_22-33-53_260595134347_rgbf000175-resize-original.jpg,125,4.784,0,4954,134,meters,jsons/VE125_randls_64.json,621084,1874142,31,Man
45,858720,DepthScenes,duration_manipulation_targetAtFixation,jsons/VE125_randls_64.json,http://54.235.29.9/FacialAge/BNav_EC2/DepthDuration/v2_depth_duration_MTurk/v2_DepthDuration_HTML.html#122,122,1366,625,1366,768,9-3-2022,9-22-55,46,depth_duration_stimuli/001417_2014-06-19_16-25-36_260595134347_rgbf000115-resize_5/001417_2014-06-19_16-25-36_260595134347_rgbf000115-resize_5-target.png,125,4.6255,3,3180,126,meters,jsons/VE125_randls_64.json,621084,1874142,31,Man
46,858720,DepthScenes,duration_manipulation_targetAtFixation,jsons/VE125_randls_64.json,http://54.235.29.9/FacialAge/BNav_EC2/DepthDuration/v2_depth_duration_MTurk/v2_DepthDuration_HTML.html#122,122,1366,625,1366,768,9-3-2022,9-22-55,47,depth_duration_stimuli/003081_2014-06-15_15-19-16_094959634447_rgbf000150-resize_1/003081_2014-06-15_15-19-16_094959634447_rgbf000150-resize_1-target.png,125,3.9125,3,2788,127,meters,jsons/VE125_randls_64.json,621084,1874142,31,Man
47,858720,DepthScenes,duration_manipulation_targetAtFixation,jsons/VE125_randls_64.json,http://54.235.29.9/FacialAge/BNav_EC2/DepthDuration/v2_depth_duration_MTurk/v2_DepthDuration_HTML.html#122,122,1366,625,1366,768,9-3-2022,9-22-55,48,depth_duration_stimuli/002272_2014-06-28_18-53-56_260595134347_rgbf000067-resize_2/002272_2014-06-28_18-53-56_260595134347_rgbf000067-resize_2-target.png,125,1.138,2,3393,132,meters,jsons/VE125_randls_64.json,621084,1874142,31,Man
48,858720,DepthScenes,duration_manipulation_targetAtFixation,jsons/VE125_randls_64.json,http://54.235.29.9/FacialAge/BNav_EC2/DepthDuration/v2_depth_duration_MTurk/v2_DepthDuration_HTML.html#122,122,1366,625,1366,768,9-3-2022,9-22-55,49,depth_duration_stimuli/001571_2014-06-20_17-21-32_260595134347_rgbf000089-resize_1/001571_2014-06-20_17-21-32_260595134347_rgbf000089-resize_1-target.png,125,1.86,3,2786,130,meters,jsons/VE125_randls_64.json,621084,1874142,31,Man
49,858720,DepthScenes,duration_manipulation_targetAtFixation,jsons/VE125_randls_64.json,http://54.235.29.9/FacialAge/BNav_EC2/DepthDuration/v2_depth_duration_MTurk/v2_DepthDuration_HTML.html#122,122,1366,625,1366,768,9-3-2022,9-22-55,50,depth_duration_stimuli/001016_2014-06-09_16-16-10_260595134347_rgbf000112-resize_5/001016_2014-06-09_16-16-10_260595134347_rgbf000112-resize_5-target.png,125,1.6565,3,2881,128,meters,jsons/VE125_randls_64.json,621084,1874142,31,Man
50,858720,DepthScenes,duration_manipulation_targetAtFixation,jsons/VE125_randls_64.json,http://54.235.29.9/FacialAge/BNav_EC2/DepthDuration/v2_depth_duration_MTurk/v2_DepthDuration_HTML.html#122,122,1366,625,1366,768,9-3-2022,9-22-55,51,depth_duration_stimuli/002340_2014-06-28_20-05-46_260595134347_rgbf000113-resize_0/002340_2014-06-28_20-05-46_260595134347_rgbf000113-resize_0-target.png,125,2.4735,3,3318,132,meters,jsons/VE125_randls_64.json,621084,1874142,31,Man
51,858720,DepthScenes,duration_manipulation_targetAtFixation,jsons/VE125_randls_64.json,http://54.235.29.9/FacialAge/BNav_EC2/DepthDuration/v2_depth_duration_MTurk/v2_DepthDuration_HTML.html#122,122,1366,625,1366,768,9-3-2022,9-22-55,52,depth_duration_stimuli/001555_2014-06-20_17-12-10_260595134347_rgbf000065-resize_4/001555_2014-06-20_17-12-10_260595134347_rgbf000065-resize_4-target.png,125,1.633,4,3513,123,meters,jsons/VE125_randls_64.json,621084,1874142,31,Man
52,858720,DepthScenes,duration_manipulation_targetAtFixation,jsons/VE125_randls_64.json,http://54.235.29.9/FacialAge/BNav_EC2/DepthDuration/v2_depth_duration_MTurk/v2_DepthDuration_HTML.html#122,122,1366,625,1366,768,9-3-2022,9-22-55,53,depth_duration_stimuli/000103_2014-05-14_22-01-17_260595134347_rgbf000152-resize_5/000103_2014-05-14_22-01-17_260595134347_rgbf000152-resize_5-target.png,125,1.993,4,5512,121,meters,jsons/VE125_randls_64.json,621084,1874142,31,Man
53,858720,DepthScenes,duration_manipulation_targetAtFixation,jsons/VE125_randls_64.json,http://54.235.29.9/FacialAge/BNav_EC2/DepthDuration/v2_depth_duration_MTurk/v2_DepthDuration_HTML.html#122,122,1366,625,1366,768,9-3-2022,9-22-55,54,depth_duration_stimuli/001199_2014-06-17_16-03-48_260595134347_rgbf000077-resize_0/001199_2014-06-17_16-03-48_260595134347_rgbf000077-resize_0-target.png,125,3.4375,2,4522,121,meters,jsons/VE125_randls_64.json,621084,1874142,31,Man
54,858720,DepthScenes,duration_manipulation_targetAtFixation,jsons/VE125_randls_64.json,http://54.235.29.9/FacialAge/BNav_EC2/DepthDuration/v2_depth_duration_MTurk/v2_DepthDuration_HTML.html#122,122,1366,625,1366,768,9-3-2022,9-22-55,55,depth_duration_stimuli/000502_2014-06-08_23-02-32_260595134347_rgbf000063-resize_4/000502_2014-06-08_23-02-32_260595134347_rgbf000063-resize_4-target.png,125,2.431,2,3113,124,meters,jsons/VE125_randls_64.json,621084,1874142,31,Man
55,858720,DepthScenes,duration_manipulation_targetAtFixation,jsons/VE125_randls_64.json,http://54.235.29.9/FacialAge/BNav_EC2/DepthDuration/v2_depth_duration_MTurk/v2_DepthDuration_HTML.html#122,122,1366,625,1366,768,9-3-2022,9-22-55,56,depth_duration_stimuli/001167_2014-06-17_15-38-07_260595134347_rgbf000108-resize_0/001167_2014-06-17_15-38-07_260595134347_rgbf000108-resize_0-target.png,125,1.8505,2,3063,125,meters,jsons/VE125_randls_64.json,621084,1874142,31,Man
56,858720,DepthScenes,duration_manipulation_targetAtFixation,jsons/VE125_randls_64.json,http://54.235.29.9/FacialAge/BNav_EC2/DepthDuration/v2_depth_duration_MTurk/v2_DepthDuration_HTML.html#122,122,1366,625,1366,768,9-3-2022,9-22-55,57,depth_duration_stimuli/003587_2014-05-23_16-48-02_094959634447_rgbf002384-resize_2/003587_2014-05-23_16-48-02_094959634447_rgbf002384-resize_2-target.png,125,1.357,1,3698,118,meters,jsons/VE125_randls_64.json,621084,1874142,31,Man
57,858720,DepthScenes,duration_manipulation_targetAtFixation,jsons/VE125_randls_64.json,http://54.235.29.9/FacialAge/BNav_EC2/DepthDuration/v2_depth_duration_MTurk/v2_DepthDuration_HTML.html#122,122,1366,625,1366,768,9-3-2022,9-22-55,58,depth_duration_stimuli/002763_2014-06-22_19-13-10_094959634447_rgbf000075-resize_4/002763_2014-06-22_19-13-10_094959634447_rgbf000075-resize_4-target.png,125,1.68375,2,2968,126,meters,jsons/VE125_randls_64.json,621084,1874142,31,Man
58,858720,DepthScenes,duration_manipulation_targetAtFixation,jsons/VE125_randls_64.json,http://54.235.29.9/FacialAge/BNav_EC2/DepthDuration/v2_depth_duration_MTurk/v2_DepthDuration_HTML.html#122,122,1366,625,1366,768,9-3-2022,9-22-55,59,depth_duration_stimuli/002209_2014-06-28_18-36-10_260595134347_rgbf000051-resize_1/002209_2014-06-28_18-36-10_260595134347_rgbf000051-resize_1-target.png,125,2.057,2,2626,124,meters,jsons/VE125_randls_64.json,621084,1874142,31,Man
59,858720,DepthScenes,duration_manipulation_targetAtFixation,jsons/VE125_randls_64.json,http://54.235.29.9/FacialAge/BNav_EC2/DepthDuration/v2_depth_duration_MTurk/v2_DepthDuration_HTML.html#122,122,1366,625,1366,768,9-3-2022,9-22-55,60,depth_duration_stimuli/002043_2014-06-24_20-29-38_260595134347_rgbf000039-resize_4/002043_2014-06-24_20-29-38_260595134347_rgbf000039-resize_4-target.png,125,2.8435,2,3289,122,meters,jsons/VE125_randls_64.json,621084,1874142,31,Man
60,858720,DepthScenes,duration_manipulation_targetAtFixation,jsons/VE125_randls_64.json,http://54.235.29.9/FacialAge/BNav_EC2/DepthDuration/v2_depth_duration_MTurk/v2_DepthDuration_HTML.html#122,122,1366,625,1366,768,9-3-2022,9-22-55,61,depth_duration_stimuli/003048_2014-06-15_13-49-43_094959634447_rgbf000150-resize_1/003048_2014-06-15_13-49-43_094959634447_rgbf000150-resize_1-target.png,125,4.0035,1,2922,115,meters,jsons/VE125_randls_64.json,621084,1874142,31,Man
61,858720,DepthScenes,duration_manipulation_targetAtFixation,jsons/VE125_randls_64.json,http://54.235.29.9/FacialAge/BNav_EC2/DepthDuration/v2_depth_duration_MTurk/v2_DepthDuration_HTML.html#122,122,1366,625,1366,768,9-3-2022,9-22-55,62,depth_duration_stimuli/000470_2014-06-09_19-42-40_260595134347_rgbf000094-resize_1/000470_2014-06-09_19-42-40_260595134347_rgbf000094-resize_1-target.png,125,1.831,4,3047,132,meters,jsons/VE125_randls_64.json,621084,1874142,31,Man
62,858720,DepthScenes,duration_manipulation_targetAtFixation,jsons/VE125_randls_64.json,http://54.235.29.9/FacialAge/BNav_EC2/DepthDuration/v2_depth_duration_MTurk/v2_DepthDuration_HTML.html#122,122,1366,625,1366,768,9-3-2022,9-22-55,63,depth_duration_stimuli/000109_2014-05-14_23-41-52_260595134347_rgbf000035-resize_9/000109_2014-05-14_23-41-52_260595134347_rgbf000035-resize_9-target.png,125,1.3545,2,2772,124,meters,jsons/VE125_randls_64.json,621084,1874142,31,Man
63,858720,DepthScenes,duration_manipulation_targetAtFixation,jsons/VE125_randls_64.json,http://54.235.29.9/FacialAge/BNav_EC2/DepthDuration/v2_depth_duration_MTurk/v2_DepthDuration_HTML.html#122,122,1366,625,1366,768,9-3-2022,9-22-55,64,depth_duration_stimuli/003621_2014-05-23_18-06-08_094959634447_rgbf000101-resize_1/003621_2014-05-23_18-06-08_094959634447_rgbf000101-resize_1-target.png,125,3.9835,2,2921,126,meters,jsons/VE125_randls_64.json,621084,1874142,31,Man
64,858720,DepthScenes,duration_manipulation_targetAtFixation,jsons/VE125_randls_64.json,http://54.235.29.9/FacialAge/BNav_EC2/DepthDuration/v2_depth_duration_MTurk/v2_DepthDuration_HTML.html#122,122,1366,625,1366,768,9-3-2022,9-22-55,65,depth_duration_stimuli/001584_2014-06-20_11-07-43_260595134347_rgbf000002-resize_1/001584_2014-06-20_11-07-43_260595134347_rgbf000002-resize_1-target.png,125,3.53,3,2784,124,meters,jsons/VE125_randls_64.json,621084,1874142,31,Man
65,858720,DepthScenes,duration_manipulation_targetAtFixation,jsons/VE125_randls_64.json,http://54.235.29.9/FacialAge/BNav_EC2/DepthDuration/v2_depth_duration_MTurk/v2_DepthDuration_HTML.html#122,122,1366,625,1366,768,9-3-2022,9-22-55,66,depth_duration_stimuli/001222_2014-06-17_16-24-06_260595134347_rgbf000073-resize_0/001222_2014-06-17_16-24-06_260595134347_rgbf000073-resize-original.jpg,125,1.4385,0,4134,115,meters,jsons/VE125_randls_64.json,621084,1874142,31,Man
66,858720,DepthScenes,duration_manipulation_targetAtFixation,jsons/VE125_randls_64.json,http://54.235.29.9/FacialAge/BNav_EC2/DepthDuration/v2_depth_duration_MTurk/v2_DepthDuration_HTML.html#122,122,1366,625,1366,768,9-3-2022,9-22-55,67,depth_duration_stimuli/001810_2014-06-26_20-51-35_260595134347_rgbf000040-resize_3/001810_2014-06-26_20-51-35_260595134347_rgbf000040-resize_3-target.png,125,2.2525,4,3341,137,meters,jsons/VE125_randls_64.json,621084,1874142,31,Man
67,858720,DepthScenes,duration_manipulation_targetAtFixation,jsons/VE125_randls_64.json,http://54.235.29.9/FacialAge/BNav_EC2/DepthDuration/v2_depth_duration_MTurk/v2_DepthDuration_HTML.html#122,122,1366,625,1366,768,9-3-2022,9-22-55,68,depth_duration_stimuli/003010_2014-06-15_12-54-35_094959634447_rgbf000112-resize_0/003010_2014-06-15_12-54-35_094959634447_rgbf000112-resize_0-target.png,125,3.1185,3,4284,126,meters,jsons/VE125_randls_64.json,621084,1874142,31,Man
68,858720,DepthScenes,duration_manipulation_targetAtFixation,jsons/VE125_randls_64.json,http://54.235.29.9/FacialAge/BNav_EC2/DepthDuration/v2_depth_duration_MTurk/v2_DepthDuration_HTML.html#122,122,1366,625,1366,768,9-3-2022,9-22-55,69,depth_duration_stimuli/000739_2014-06-08_18-45-58_260595134347_rgbf000068-resize_1/000739_2014-06-08_18-45-58_260595134347_rgbf000068-resize_1-target.png,125,3.534,3,2694,139,meters,jsons/VE125_randls_64.json,621084,1874142,31,Man
69,858720,DepthScenes,duration_manipulation_targetAtFixation,jsons/VE125_randls_64.json,http://54.235.29.9/FacialAge/BNav_EC2/DepthDuration/v2_depth_duration_MTurk/v2_DepthDuration_HTML.html#122,122,1366,625,1366,768,9-3-2022,9-22-55,70,depth_duration_stimuli/000734_2014-06-08_17-39-11_260595134347_rgbf000128-resize_2/000734_2014-06-08_17-39-11_260595134347_rgbf000128-resize_2-target.png,125,4.098,2,2987,121,meters,jsons/VE125_randls_64.json,621084,1874142,31,Man
70,858720,DepthScenes,duration_manipulation_targetAtFixation,jsons/VE125_randls_64.json,http://54.235.29.9/FacialAge/BNav_EC2/DepthDuration/v2_depth_duration_MTurk/v2_DepthDuration_HTML.html#122,122,1366,625,1366,768,9-3-2022,9-22-55,71,depth_duration_stimuli/000736_2014-06-08_18-24-15_260595134347_rgbf000206-resize_3/000736_2014-06-08_18-24-15_260595134347_rgbf000206-resize_3-target.png,125,3.515,3,3353,136,meters,jsons/VE125_randls_64.json,621084,1874142,31,Man
71,858720,DepthScenes,duration_manipulation_targetAtFixation,jsons/VE125_randls_64.json,http://54.235.29.9/FacialAge/BNav_EC2/DepthDuration/v2_depth_duration_MTurk/v2_DepthDuration_HTML.html#122,122,1366,625,1366,768,9-3-2022,9-22-55,72,depth_duration_stimuli/000137_2014-05-20_17-04-49_260595134347_rgbf000120-resize_1/000137_2014-05-20_17-04-49_260595134347_rgbf000120-resize_1-target.png,125,3.786,4,3435,124,meters,jsons/VE125_randls_64.json,621084,1874142,31,Man
72,858720,DepthScenes,duration_manipulation_targetAtFixation,jsons/VE125_randls_64.json,http://54.235.29.9/FacialAge/BNav_EC2/DepthDuration/v2_depth_duration_MTurk/v2_DepthDuration_HTML.html#122,122,1366,625,1366,768,9-3-2022,9-22-55,73,depth_duration_stimuli/001066_2014-06-08_22-03-20_260595134347_rgbf000066-resize_4/001066_2014-06-08_22-03-20_260595134347_rgbf000066-resize_4-target.png,125,4.2330000000000005,3,3367,122,meters,jsons/VE125_randls_64.json,621084,1874142,31,Man
73,858720,DepthScenes,duration_manipulation_targetAtFixation,jsons/VE125_randls_64.json,http://54.235.29.9/FacialAge/BNav_EC2/DepthDuration/v2_depth_duration_MTurk/v2_DepthDuration_HTML.html#122,122,1366,625,1366,768,9-3-2022,9-22-55,74,depth_duration_stimuli/000742_2014-06-08_18-48-09_260595134347_rgbf000164-resize_4/000742_2014-06-08_18-48-09_260595134347_rgbf000164-resize_4-target.png,125,4.632,4,2879,121,meters,jsons/VE125_randls_64.json,621084,1874142,31,Man
74,858720,DepthScenes,duration_manipulation_targetAtFixation,jsons/VE125_randls_64.json,http://54.235.29.9/FacialAge/BNav_EC2/DepthDuration/v2_depth_duration_MTurk/v2_DepthDuration_HTML.html#122,122,1366,625,1366,768,9-3-2022,9-22-55,75,depth_duration_stimuli/001055_2014-06-08_18-45-35_260595134347_rgbf000111-resize_4/001055_2014-06-08_18-45-35_260595134347_rgbf000111-resize_4-target.png,125,2.4290000000000003,2,3181,117,meters,jsons/VE125_randls_64.json,621084,1874142,31,Man
75,858720,DepthScenes,duration_manipulation_targetAtFixation,jsons/VE125_randls_64.json,http://54.235.29.9/FacialAge/BNav_EC2/DepthDuration/v2_depth_duration_MTurk/v2_DepthDuration_HTML.html#122,122,1366,625,1366,768,9-3-2022,9-22-55,76,depth_duration_stimuli/000549_2014-06-08_22-10-24_260595134347_rgbf000247-resize_3/000549_2014-06-08_22-10-24_260595134347_rgbf000247-resize_3-target.png,125,1.841,4,2706,118,meters,jsons/VE125_randls_64.json,621084,1874142,31,Man
76,858720,DepthScenes,duration_manipulation_targetAtFixation,jsons/VE125_randls_64.json,http://54.235.29.9/FacialAge/BNav_EC2/DepthDuration/v2_depth_duration_MTurk/v2_DepthDuration_HTML.html#122,122,1366,625,1366,768,9-3-2022,9-22-55,77,depth_duration_stimuli/001164_2014-06-17_15-35-46_260595134347_rgbf000085-resize_3/001164_2014-06-17_15-35-46_260595134347_rgbf000085-resize_3-target.png,125,2.354,2,3394,123,meters,jsons/VE125_randls_64.json,621084,1874142,31,Man
77,858720,DepthScenes,duration_manipulation_targetAtFixation,jsons/VE125_randls_64.json,http://54.235.29.9/FacialAge/BNav_EC2/DepthDuration/v2_depth_duration_MTurk/v2_DepthDuration_HTML.html#122,122,1366,625,1366,768,9-3-2022,9-22-55,78,depth_duration_stimuli/001136_2014-06-17_15-19-41_260595134347_rgbf000076-resize_3/001136_2014-06-17_15-19-41_260595134347_rgbf000076-resize_3-target.png,125,1.8655,3,4188,118,meters,jsons/VE125_randls_64.json,621084,1874142,31,Man
78,858720,DepthScenes,duration_manipulation_targetAtFixation,jsons/VE125_randls_64.json,http://54.235.29.9/FacialAge/BNav_EC2/DepthDuration/v2_depth_duration_MTurk/v2_DepthDuration_HTML.html#122,122,1366,625,1366,768,9-3-2022,9-22-55,79,depth_duration_stimuli/000810_2014-06-08_17-20-01_260595134347_rgbf000105-resize_0/000810_2014-06-08_17-20-01_260595134347_rgbf000105-resize_0-target.png,125,1.4865,2,2951,131,meters,jsons/VE125_randls_64.json,621084,1874142,31,Man
79,858720,DepthScenes,duration_manipulation_targetAtFixation,jsons/VE125_randls_64.json,http://54.235.29.9/FacialAge/BNav_EC2/DepthDuration/v2_depth_duration_MTurk/v2_DepthDuration_HTML.html#122,122,1366,625,1366,768,9-3-2022,9-22-55,80,depth_duration_stimuli/001214_2014-06-17_16-13-55_260595134347_rgbf000111-resize_0/001214_2014-06-17_16-13-55_260595134347_rgbf000111-resize_0-target.png,125,2.6505,3,2978,125,meters,jsons/VE125_randls_64.json,621084,1874142,31,Man
80,858720,DepthScenes,duration_manipulation_targetAtFixation,jsons/VE125_randls_64.json,http://54.235.29.9/FacialAge/BNav_EC2/DepthDuration/v2_depth_duration_MTurk/v2_DepthDuration_HTML.html#122,122,1366,625,1366,768,9-3-2022,9-22-55,81,depth_duration_stimuli/001092_2014-06-15_17-34-58_260595134347_rgbf000171-resize_3/001092_2014-06-15_17-34-58_260595134347_rgbf000171-resize_3-target.png,125,2.6935,3,3538,123,meters,jsons/VE125_randls_64.json,621084,1874142,31,Man
81,858720,DepthScenes,duration_manipulation_targetAtFixation,jsons/VE125_randls_64.json,http://54.235.29.9/FacialAge/BNav_EC2/DepthDuration/v2_depth_duration_MTurk/v2_DepthDuration_HTML.html#122,122,1366,625,1366,768,9-3-2022,9-22-55,82,depth_duration_stimuli/002545_2014-06-24_13-38-53_094959634447_rgbf000080-resize_4/002545_2014-06-24_13-38-53_094959634447_rgbf000080-resize_4-target.png,125,1.9205,3,2543,134,meters,jsons/VE125_randls_64.json,621084,1874142,31,Man
82,858720,DepthScenes,duration_manipulation_targetAtFixation,jsons/VE125_randls_64.json,http://54.235.29.9/FacialAge/BNav_EC2/DepthDuration/v2_depth_duration_MTurk/v2_DepthDuration_HTML.html#122,122,1366,625,1366,768,9-3-2022,9-22-55,83,depth_duration_stimuli/000692_2014-06-08_13-09-42_260595134347_rgbf000199-resize_2/000692_2014-06-08_13-09-42_260595134347_rgbf000199-resize_2-target.png,125,3.661,4,4471,125,meters,jsons/VE125_randls_64.json,621084,1874142,31,Man
83,858720,DepthScenes,duration_manipulation_targetAtFixation,jsons/VE125_randls_64.json,http://54.235.29.9/FacialAge/BNav_EC2/DepthDuration/v2_depth_duration_MTurk/v2_DepthDuration_HTML.html#122,122,1366,625,1366,768,9-3-2022,9-22-55,84,depth_duration_stimuli/001094_2014-06-15_17-36-00_260595134347_rgbf000205-resize_0/001094_2014-06-15_17-36-00_260595134347_rgbf000205-resize_0-target.png,125,4.2175,3,3865,131,meters,jsons/VE125_randls_64.json,621084,1874142,31,Man
84,858720,DepthScenes,duration_manipulation_targetAtFixation,jsons/VE125_randls_64.json,http://54.235.29.9/FacialAge/BNav_EC2/DepthDuration/v2_depth_duration_MTurk/v2_DepthDuration_HTML.html#122,122,1366,625,1366,768,9-3-2022,9-22-55,85,depth_duration_stimuli/002570_2014-06-24_13-59-54_094959634447_rgbf000059-resize_0/002570_2014-06-24_13-59-54_094959634447_rgbf000059-resize_0-target.png,125,4.037,6,2872,123,meters,jsons/VE125_randls_64.json,621084,1874142,31,Man
85,858720,DepthScenes,duration_manipulation_targetAtFixation,jsons/VE125_randls_64.json,http://54.235.29.9/FacialAge/BNav_EC2/DepthDuration/v2_depth_duration_MTurk/v2_DepthDuration_HTML.html#122,122,1366,625,1366,768,9-3-2022,9-22-55,86,depth_duration_stimuli/002467_2014-06-28_20-38-07_260595134347_rgbf000026-resize_2/002467_2014-06-28_20-38-07_260595134347_rgbf000026-resize_2-target.png,125,4.742,5,3671,120,meters,jsons/VE125_randls_64.json,621084,1874142,31,Man
86,858720,DepthScenes,duration_manipulation_targetAtFixation,jsons/VE125_randls_64.json,http://54.235.29.9/FacialAge/BNav_EC2/DepthDuration/v2_depth_duration_MTurk/v2_DepthDuration_HTML.html#122,122,1366,625,1366,768,9-3-2022,9-22-55,87,depth_duration_stimuli/000682_2014-06-08_23-14-58_260595134347_rgbf000041-resize_5/000682_2014-06-08_23-14-58_260595134347_rgbf000041-resize_5-target.png,125,2.7239999999999998,6,4648,128,meters,jsons/VE125_randls_64.json,621084,1874142,31,Man
87,858720,DepthScenes,duration_manipulation_targetAtFixation,jsons/VE125_randls_64.json,http://54.235.29.9/FacialAge/BNav_EC2/DepthDuration/v2_depth_duration_MTurk/v2_DepthDuration_HTML.html#122,122,1366,625,1366,768,9-3-2022,9-22-55,88,depth_duration_stimuli/001650_2014-06-20_12-09-00_260595134347_rgbf000087-resize_3/001650_2014-06-20_12-09-00_260595134347_rgbf000087-resize_3-target.png,125,1.9505,4,3516,124,meters,jsons/VE125_randls_64.json,621084,1874142,31,Man
88,858720,DepthScenes,duration_manipulation_targetAtFixation,jsons/VE125_randls_64.json,http://54.235.29.9/FacialAge/BNav_EC2/DepthDuration/v2_depth_duration_MTurk/v2_DepthDuration_HTML.html#122,122,1366,625,1366,768,9-3-2022,9-22-55,89,depth_duration_stimuli/002153_2014-06-25_21-27-18_260595134347_rgbf000038-resize_5/002153_2014-06-25_21-27-18_260595134347_rgbf000038-resize_5-target.png,125,2.505,2,2888,132,meters,jsons/VE125_randls_64.json,621084,1874142,31,Man
89,858720,DepthScenes,duration_manipulation_targetAtFixation,jsons/VE125_randls_64.json,http://54.235.29.9/FacialAge/BNav_EC2/DepthDuration/v2_depth_duration_MTurk/v2_DepthDuration_HTML.html#122,122,1366,625,1366,768,9-3-2022,9-22-55,90,depth_duration_stimuli/002660_2014-06-13_15-44-18_094959634447_rgbf001878-resize_2/002660_2014-06-13_15-44-18_094959634447_rgbf001878-resize_2-target.png,125,3.576,4,4082,131,meters,jsons/VE125_randls_64.json,621084,1874142,31,Man
90,858720,DepthScenes,duration_manipulation_targetAtFixation,jsons/VE125_randls_64.json,http://54.235.29.9/FacialAge/BNav_EC2/DepthDuration/v2_depth_duration_MTurk/v2_DepthDuration_HTML.html#122,122,1366,625,1366,768,9-3-2022,9-22-55,91,depth_duration_stimuli/000788_2014-06-08_22-34-36_260595134347_rgbf000131-resize_1/000788_2014-06-08_22-34-36_260595134347_rgbf000131-resize_1-target.png,125,3.359,3,2713,125,meters,jsons/VE125_randls_64.json,621084,1874142,31,Man
91,858720,DepthScenes,duration_manipulation_targetAtFixation,jsons/VE125_randls_64.json,http://54.235.29.9/FacialAge/BNav_EC2/DepthDuration/v2_depth_duration_MTurk/v2_DepthDuration_HTML.html#122,122,1366,625,1366,768,9-3-2022,9-22-55,92,depth_duration_stimuli/001235_2014-06-17_16-37-36_260595134347_rgbf000084-resize_4/001235_2014-06-17_16-37-36_260595134347_rgbf000084-resize_4-target.png,125,3.6605,5,3593,125,meters,jsons/VE125_randls_64.json,621084,1874142,31,Man
92,858720,DepthScenes,duration_manipulation_targetAtFixation,jsons/VE125_randls_64.json,http://54.235.29.9/FacialAge/BNav_EC2/DepthDuration/v2_depth_duration_MTurk/v2_DepthDuration_HTML.html#122,122,1366,625,1366,768,9-3-2022,9-22-55,93,depth_duration_stimuli/002213_2014-06-28_18-37-58_260595134347_rgbf000055-resize_1/002213_2014-06-28_18-37-58_260595134347_rgbf000055-resize_1-target.png,125,3.62,1,2853,114,meters,jsons/VE125_randls_64.json,621084,1874142,31,Man
93,858720,DepthScenes,duration_manipulation_targetAtFixation,jsons/VE125_randls_64.json,http://54.235.29.9/FacialAge/BNav_EC2/DepthDuration/v2_depth_duration_MTurk/v2_DepthDuration_HTML.html#122,122,1366,625,1366,768,9-3-2022,9-22-55,94,depth_duration_stimuli/000691_2014-06-08_13-08-50_260595134347_rgbf000132-resize_3/000691_2014-06-08_13-08-50_260595134347_rgbf000132-resize_3-target.png,125,4.1530000000000005,4,3369,124,meters,jsons/VE125_randls_64.json,621084,1874142,31,Man
94,858720,DepthScenes,duration_manipulation_targetAtFixation,jsons/VE125_randls_64.json,http://54.235.29.9/FacialAge/BNav_EC2/DepthDuration/v2_depth_duration_MTurk/v2_DepthDuration_HTML.html#122,122,1366,625,1366,768,9-3-2022,9-22-55,95,depth_duration_stimuli/002663_2014-06-13_15-50-26_094959634447_rgbf000075-resize_1/002663_2014-06-13_15-50-26_094959634447_rgbf000075-resize_1-target.png,125,4.7495,2,2993,117,meters,jsons/VE125_randls_64.json,621084,1874142,31,Man
95,858720,DepthScenes,duration_manipulation_targetAtFixation,jsons/VE125_randls_64.json,http://54.235.29.9/FacialAge/BNav_EC2/DepthDuration/v2_depth_duration_MTurk/v2_DepthDuration_HTML.html#122,122,1366,625,1366,768,9-3-2022,9-22-55,96,depth_duration_stimuli/000409_2014-06-04_19-23-33_260595134347_rgbf000067-resize_0/000409_2014-06-04_19-23-33_260595134347_rgbf000067-resize_0-target.png,125,3.7335,4,3698,124,meters,jsons/VE125_randls_64.json,621084,1874142,31,Man
96,858720,DepthScenes,duration_manipulation_targetAtFixation,jsons/VE125_randls_64.json,http://54.235.29.9/FacialAge/BNav_EC2/DepthDuration/v2_depth_duration_MTurk/v2_DepthDuration_HTML.html#122,122,1366,625,1366,768,9-3-2022,9-22-55,97,depth_duration_stimuli/000486_2014-06-09_20-47-20_260595134347_rgbf000143-resize_2/000486_2014-06-09_20-47-20_260595134347_rgbf000143-resize_2-target.png,125,4.8325,5,3237,134,meters,jsons/VE125_randls_64.json,621084,1874142,31,Man
97,858720,DepthScenes,duration_manipulation_targetAtFixation,jsons/VE125_randls_64.json,http://54.235.29.9/FacialAge/BNav_EC2/DepthDuration/v2_depth_duration_MTurk/v2_DepthDuration_HTML.html#122,122,1366,625,1366,768,9-3-2022,9-22-55,98,depth_duration_stimuli/003083_2014-06-15_15-21-03_094959634447_rgbf000063-resize_1/003083_2014-06-15_15-21-03_094959634447_rgbf000063-resize_1-target.png,125,4.1405,6,2986,124,meters,jsons/VE125_randls_64.json,621084,1874142,31,Man
98,858720,DepthScenes,duration_manipulation_targetAtFixation,jsons/VE125_randls_64.json,http://54.235.29.9/FacialAge/BNav_EC2/DepthDuration/v2_depth_duration_MTurk/v2_DepthDuration_HTML.html#122,122,1366,625,1366,768,9-3-2022,9-22-55,99,depth_duration_stimuli/001540_2014-06-20_17-01-05_260595134347_rgbf000086-resize_2/001540_2014-06-20_17-01-05_260595134347_rgbf000086-resize-original.jpg,125,1.459,0,3115,113,meters,jsons/VE125_randls_64.json,621084,1874142,31,Man
99,858720,DepthScenes,duration_manipulation_targetAtFixation,jsons/VE125_randls_64.json,http://54.235.29.9/FacialAge/BNav_EC2/DepthDuration/v2_depth_duration_MTurk/v2_DepthDuration_HTML.html#122,122,1366,625,1366,768,9-3-2022,9-22-55,100,depth_duration_stimuli/000368_2014-06-09_15-53-01_260595134347_rgbf000155-resize_2/000368_2014-06-09_15-53-01_260595134347_rgbf000155-resize_2-target.png,125,2.4859999999999998,2,2979,129,meters,jsons/VE125_randls_64.json,621084,1874142,31,Man
100,858720,DepthScenes,duration_manipulation_targetAtFixation,jsons/VE125_randls_64.json,http://54.235.29.9/FacialAge/BNav_EC2/DepthDuration/v2_depth_duration_MTurk/v2_DepthDuration_HTML.html#122,122,1366,625,1366,768,9-3-2022,9-22-55,101,depth_duration_stimuli/002678_2014-06-13_16-15-32_094959634447_rgbf000151-resize_6/002678_2014-06-13_16-15-32_094959634447_rgbf000151-resize_6-target.png,125,2.1830000000000003,4,2716,123,meters,jsons/VE125_randls_64.json,621084,1874142,31,Man
101,858720,DepthScenes,duration_manipulation_targetAtFixation,jsons/VE125_randls_64.json,http://54.235.29.9/FacialAge/BNav_EC2/DepthDuration/v2_depth_duration_MTurk/v2_DepthDuration_HTML.html#122,122,1366,625,1366,768,9-3-2022,9-22-55,102,depth_duration_stimuli/002725_2014-06-22_11-47-51_094959634447_rgbf000070-resize_1/002725_2014-06-22_11-47-51_094959634447_rgbf000070-resize_1-target.png,125,2.195,4,3081,125,meters,jsons/VE125_randls_64.json,621084,1874142,31,Man
102,858720,DepthScenes,duration_manipulation_targetAtFixation,jsons/VE125_randls_64.json,http://54.235.29.9/FacialAge/BNav_EC2/DepthDuration/v2_depth_duration_MTurk/v2_DepthDuration_HTML.html#122,122,1366,625,1366,768,9-3-2022,9-22-55,103,depth_duration_stimuli/002344_2014-06-28_20-06-29_260595134347_rgbf000030-resize_1/002344_2014-06-28_20-06-29_260595134347_rgbf000030-resize_1-target.png,125,1.5795,4,2535,119,meters,jsons/VE125_randls_64.json,621084,1874142,31,Man
103,858720,DepthScenes,duration_manipulation_targetAtFixation,jsons/VE125_randls_64.json,http://54.235.29.9/FacialAge/BNav_EC2/DepthDuration/v2_depth_duration_MTurk/v2_DepthDuration_HTML.html#122,122,1366,625,1366,768,9-3-2022,9-22-55,104,depth_duration_stimuli/002784_2014-06-22_19-26-30_094959634447_rgbf000083-resize_3/002784_2014-06-22_19-26-30_094959634447_rgbf000083-resize_3-target.png,125,1.8046666666667,3,3390,116,meters,jsons/VE125_randls_64.json,621084,1874142,31,Man
104,858720,DepthScenes,duration_manipulation_targetAtFixation,jsons/VE125_randls_64.json,http://54.235.29.9/FacialAge/BNav_EC2/DepthDuration/v2_depth_duration_MTurk/v2_DepthDuration_HTML.html#122,122,1366,625,1366,768,9-3-2022,9-22-55,105,depth_duration_stimuli/001100_2014-06-15_17-46-26_260595134347_rgbf000225-resize_2/001100_2014-06-15_17-46-26_260595134347_rgbf000225-resize_2-target.png,125,2.24,1,3015,133,meters,jsons/VE125_randls_64.json,621084,1874142,31,Man
105,858720,DepthScenes,duration_manipulation_targetAtFixation,jsons/VE125_randls_64.json,http://54.235.29.9/FacialAge/BNav_EC2/DepthDuration/v2_depth_duration_MTurk/v2_DepthDuration_HTML.html#122,122,1366,625,1366,768,9-3-2022,9-22-55,106,depth_duration_stimuli/001570_2014-06-20_17-21-09_260595134347_rgbf000135-resize_4/001570_2014-06-20_17-21-09_260595134347_rgbf000135-resize_4-target.png,125,4.467,4,3334,125,meters,jsons/VE125_randls_64.json,621084,1874142,31,Man
106,858720,DepthScenes,duration_manipulation_targetAtFixation,jsons/VE125_randls_64.json,http://54.235.29.9/FacialAge/BNav_EC2/DepthDuration/v2_depth_duration_MTurk/v2_DepthDuration_HTML.html#122,122,1366,625,1366,768,9-3-2022,9-22-55,107,depth_duration_stimuli/001392_2014-06-19_16-07-59_260595134347_rgbf000046-resize_1/001392_2014-06-19_16-07-59_260595134347_rgbf000046-resize_1-target.png,125,4.135,2,2829,120,meters,jsons/VE125_randls_64.json,621084,1874142,31,Man
107,858720,DepthScenes,duration_manipulation_targetAtFixation,jsons/VE125_randls_64.json,http://54.235.29.9/FacialAge/BNav_EC2/DepthDuration/v2_depth_duration_MTurk/v2_DepthDuration_HTML.html#122,122,1366,625,1366,768,9-3-2022,9-22-55,108,depth_duration_stimuli/002445_2014-06-28_20-32-16_260595134347_rgbf000029-resize_4/002445_2014-06-28_20-32-16_260595134347_rgbf000029-resize_4-target.png,125,2.5315,3,2911,120,meters,jsons/VE125_randls_64.json,621084,1874142,31,Man
108,858720,DepthScenes,duration_manipulation_targetAtFixation,jsons/VE125_randls_64.json,http://54.235.29.9/FacialAge/BNav_EC2/DepthDuration/v2_depth_duration_MTurk/v2_DepthDuration_HTML.html#122,122,1366,625,1366,768,9-3-2022,9-22-55,109,depth_duration_stimuli/000780_2014-06-08_22-28-29_260595134347_rgbf000126-resize_1/000780_2014-06-08_22-28-29_260595134347_rgbf000126-resize_1-target.png,125,3.3825,4,2838,122,meters,jsons/VE125_randls_64.json,621084,1874142,31,Man
109,858720,DepthScenes,duration_manipulation_targetAtFixation,jsons/VE125_randls_64.json,http://54.235.29.9/FacialAge/BNav_EC2/DepthDuration/v2_depth_duration_MTurk/v2_DepthDuration_HTML.html#122,122,1366,625,1366,768,9-3-2022,9-22-55,110,depth_duration_stimuli/001449_2014-06-19_17-01-27_260595134347_rgbf000116-resize_2/001449_2014-06-19_17-01-27_260595134347_rgbf000116-resize_2-target.png,125,3.452,3,3210,119,meters,jsons/VE125_randls_64.json,621084,1874142,31,Man
110,858720,DepthScenes,duration_manipulation_targetAtFixation,jsons/VE125_randls_64.json,http://54.235.29.9/FacialAge/BNav_EC2/DepthDuration/v2_depth_duration_MTurk/v2_DepthDuration_HTML.html#122,122,1366,625,1366,768,9-3-2022,9-22-55,111,depth_duration_stimuli/001450_2014-06-19_17-02-03_260595134347_rgbf000203-resize_4/001450_2014-06-19_17-02-03_260595134347_rgbf000203-resize_4-target.png,125,4.0106666666667,2,2978,123,meters,jsons/VE125_randls_64.json,621084,1874142,31,Man
111,858720,DepthScenes,duration_manipulation_targetAtFixation,jsons/VE125_randls_64.json,http://54.235.29.9/FacialAge/BNav_EC2/DepthDuration/v2_depth_duration_MTurk/v2_DepthDuration_HTML.html#122,122,1366,625,1366,768,9-3-2022,9-22-55,112,depth_duration_stimuli/000009_2014-05-26_14-32-05_260595134347_rgbf000034-resize_3/000009_2014-05-26_14-32-05_260595134347_rgbf000034-resize_3-target.png,125,3.8715,3,2984,83,meters,jsons/VE125_randls_64.json,621084,1874142,31,Man
112,858720,DepthScenes,duration_manipulation_targetAtFixation,jsons/VE125_randls_64.json,http://54.235.29.9/FacialAge/BNav_EC2/DepthDuration/v2_depth_duration_MTurk/v2_DepthDuration_HTML.html#122,122,1366,625,1366,768,9-3-2022,9-22-55,113,depth_duration_stimuli/001828_2014-06-26_21-40-03_260595134347_rgbf000024-resize_0/001828_2014-06-26_21-40-03_260595134347_rgbf000024-resize_0-target.png,125,4.8260000000000005,5,3171,116,meters,jsons/VE125_randls_64.json,621084,1874142,31,Man
113,858720,DepthScenes,duration_manipulation_targetAtFixation,jsons/VE125_randls_64.json,http://54.235.29.9/FacialAge/BNav_EC2/DepthDuration/v2_depth_duration_MTurk/v2_DepthDuration_HTML.html#122,122,1366,625,1366,768,9-3-2022,9-22-55,114,depth_duration_stimuli/000447_2014-06-08_16-15-46_260595134347_rgbf000130-resize_1/000447_2014-06-08_16-15-46_260595134347_rgbf000130-resize_1-target.png,125,4.479,2,3214,122,meters,jsons/VE125_randls_64.json,621084,1874142,31,Man
114,858720,DepthScenes,duration_manipulation_targetAtFixation,jsons/VE125_randls_64.json,http://54.235.29.9/FacialAge/BNav_EC2/DepthDuration/v2_depth_duration_MTurk/v2_DepthDuration_HTML.html#122,122,1366,625,1366,768,9-3-2022,9-22-55,115,depth_duration_stimuli/001447_2014-06-19_17-00-32_260595134347_rgbf000082-resize_5/001447_2014-06-19_17-00-32_260595134347_rgbf000082-resize_5-target.png,125,4.13775,3,3912,117,meters,jsons/VE125_randls_64.json,621084,1874142,31,Man
115,858720,DepthScenes,duration_manipulation_targetAtFixation,jsons/VE125_randls_64.json,http://54.235.29.9/FacialAge/BNav_EC2/DepthDuration/v2_depth_duration_MTurk/v2_DepthDuration_HTML.html#122,122,1366,625,1366,768,9-3-2022,9-22-55,116,depth_duration_stimuli/001170_2014-06-17_15-43-44_260595134347_rgbf000096-resize_6/001170_2014-06-17_15-43-44_260595134347_rgbf000096-resize-original.jpg,125,1.1909999999999998,0,3896,133,meters,jsons/VE125_randls_64.json,621084,1874142,31,Man
116,858720,DepthScenes,duration_manipulation_targetAtFixation,jsons/VE125_randls_64.json,http://54.235.29.9/FacialAge/BNav_EC2/DepthDuration/v2_depth_duration_MTurk/v2_DepthDuration_HTML.html#122,122,1366,625,1366,768,9-3-2022,9-22-55,117,depth_duration_stimuli/002118_2014-06-25_20-32-08_260595134347_rgbf000078-resize_1/002118_2014-06-25_20-32-08_260595134347_rgbf000078-resize_1-target.png,125,2.6460000000000004,4,3317,185,meters,jsons/VE125_randls_64.json,621084,1874142,31,Man
117,858720,DepthScenes,duration_manipulation_targetAtFixation,jsons/VE125_randls_64.json,http://54.235.29.9/FacialAge/BNav_EC2/DepthDuration/v2_depth_duration_MTurk/v2_DepthDuration_HTML.html#122,122,1366,625,1366,768,9-3-2022,9-22-55,118,depth_duration_stimuli/001516_2014-06-20_16-25-09_260595134347_rgbf000076-resize_2/001516_2014-06-20_16-25-09_260595134347_rgbf000076-resize_2-target.png,125,1.7445,3,2607,137,meters,jsons/VE125_randls_64.json,621084,1874142,31,Man
118,858720,DepthScenes,duration_manipulation_targetAtFixation,jsons/VE125_randls_64.json,http://54.235.29.9/FacialAge/BNav_EC2/DepthDuration/v2_depth_duration_MTurk/v2_DepthDuration_HTML.html#122,122,1366,625,1366,768,9-3-2022,9-22-55,119,depth_duration_stimuli/001110_2014-06-15_17-25-28_260595134347_rgbf000150-resize_1/001110_2014-06-15_17-25-28_260595134347_rgbf000150-resize_1-target.png,125,1.7115,2,2925,120,meters,jsons/VE125_randls_64.json,621084,1874142,31,Man
119,858720,DepthScenes,duration_manipulation_targetAtFixation,jsons/VE125_randls_64.json,http://54.235.29.9/FacialAge/BNav_EC2/DepthDuration/v2_depth_duration_MTurk/v2_DepthDuration_HTML.html#122,122,1366,625,1366,768,9-3-2022,9-22-55,120,depth_duration_stimuli/000927_2014-06-09_16-32-30_260595134347_rgbf000123-resize_3/000927_2014-06-09_16-32-30_260595134347_rgbf000123-resize_3-target.png,125,2.6785,4,3039,121,meters,jsons/VE125_randls_64.json,621084,1874142,31,Man
120,858720,DepthScenes,duration_manipulation_targetAtFixation,jsons/VE125_randls_64.json,http://54.235.29.9/FacialAge/BNav_EC2/DepthDuration/v2_depth_duration_MTurk/v2_DepthDuration_HTML.html#122,122,1366,625,1366,768,9-3-2022,9-22-55,121,depth_duration_stimuli/003292_2014-05-14_21-53-49_094959634447_rgbf000100-resize_2/003292_2014-05-14_21-53-49_094959634447_rgbf000100-resize_2-target.png,125,3.4815,3,3648,128,meters,jsons/VE125_randls_64.json,621084,1874142,31,Man
121,858720,DepthScenes,duration_manipulation_targetAtFixation,jsons/VE125_randls_64.json,http://54.235.29.9/FacialAge/BNav_EC2/DepthDuration/v2_depth_duration_MTurk/v2_DepthDuration_HTML.html#122,122,1366,625,1366,768,9-3-2022,9-22-55,122,depth_duration_stimuli/002639_2014-06-24_14-51-37_094959634447_rgbf000074-resize_4/002639_2014-06-24_14-51-37_094959634447_rgbf000074-resize_4-target.png,125,4.0375,2,2910,122,meters,jsons/VE125_randls_64.json,621084,1874142,31,Man
122,858720,DepthScenes,duration_manipulation_targetAtFixation,jsons/VE125_randls_64.json,http://54.235.29.9/FacialAge/BNav_EC2/DepthDuration/v2_depth_duration_MTurk/v2_DepthDuration_HTML.html#122,122,1366,625,1366,768,9-3-2022,9-22-55,123,depth_duration_stimuli/000414_2014-06-04_19-49-13_260595134347_rgbf000044-resize_0/000414_2014-06-04_19-49-13_260595134347_rgbf000044-resize_0-target.png,125,4.329,1,2907,123,meters,jsons/VE125_randls_64.json,621084,1874142,31,Man
123,858720,DepthScenes,duration_manipulation_targetAtFixation,jsons/VE125_randls_64.json,http://54.235.29.9/FacialAge/BNav_EC2/DepthDuration/v2_depth_duration_MTurk/v2_DepthDuration_HTML.html#122,122,1366,625,1366,768,9-3-2022,9-22-55,124,depth_duration_stimuli/003129_2014-05-12_10-48-10_094959634447_rgbf000100-resize_0/003129_2014-05-12_10-48-10_094959634447_rgbf000100-resize_0-target.png,125,4.9305,3,2896,125,meters,jsons/VE125_randls_64.json,621084,1874142,31,Man
124,858720,DepthScenes,duration_manipulation_targetAtFixation,jsons/VE125_randls_64.json,http://54.235.29.9/FacialAge/BNav_EC2/DepthDuration/v2_depth_duration_MTurk/v2_DepthDuration_HTML.html#122,122,1366,625,1366,768,9-3-2022,9-22-55,125,depth_duration_stimuli/002057_2014-06-24_21-00-13_260595134347_rgbf000120-resize_1/002057_2014-06-24_21-00-13_260595134347_rgbf000120-resize_1-target.png,125,2.967,2,3126,127,meters,jsons/VE125_randls_64.json,621084,1874142,31,Man
125,858720,DepthScenes,duration_manipulation_targetAtFixation,jsons/VE125_randls_64.json,http://54.235.29.9/FacialAge/BNav_EC2/DepthDuration/v2_depth_duration_MTurk/v2_DepthDuration_HTML.html#122,122,1366,625,1366,768,9-3-2022,9-22-55,126,depth_duration_stimuli/000709_2014-06-08_13-51-55_260595134347_rgbf000068-resize_3/000709_2014-06-08_13-51-55_260595134347_rgbf000068-resize_3-target.png,125,1.8030000000000002,3,3049,111,meters,jsons/VE125_randls_64.json,621084,1874142,31,Man
126,858720,DepthScenes,duration_manipulation_targetAtFixation,jsons/VE125_randls_64.json,http://54.235.29.9/FacialAge/BNav_EC2/DepthDuration/v2_depth_duration_MTurk/v2_DepthDuration_HTML.html#122,122,1366,625,1366,768,9-3-2022,9-22-55,127,depth_duration_stimuli/000906_2014-06-08_13-35-43_260595134347_rgbf000155-resize_1/000906_2014-06-08_13-35-43_260595134347_rgbf000155-resize_1-target.png,125,2.8489999999999998,3,2748,139,meters,jsons/VE125_randls_64.json,621084,1874142,31,Man
127,858720,DepthScenes,duration_manipulation_targetAtFixation,jsons/VE125_randls_64.json,http://54.235.29.9/FacialAge/BNav_EC2/DepthDuration/v2_depth_duration_MTurk/v2_DepthDuration_HTML.html#122,122,1366,625,1366,768,9-3-2022,9-22-55,128,depth_duration_stimuli/002805_2014-06-22_19-54-03_094959634447_rgbf000079-resize_1/002805_2014-06-22_19-54-03_094959634447_rgbf000079-resize_1-target.png,125,3.1439999999999997,2,2959,138,meters,jsons/VE125_randls_64.json,621084,1874142,31,Man
128,858720,DepthScenes,duration_manipulation_targetAtFixation,jsons/VE125_randls_64.json,http://54.235.29.9/FacialAge/BNav_EC2/DepthDuration/v2_depth_duration_MTurk/v2_DepthDuration_HTML.html#122,122,1366,625,1366,768,9-3-2022,9-22-55,129,depth_duration_stimuli/002600_2014-06-24_14-27-04_094959634447_rgbf000074-resize_2/002600_2014-06-24_14-27-04_094959634447_rgbf000074-resize_2-target.png,125,2.7575,4,2899,132,meters,jsons/VE125_randls_64.json,621084,1874142,31,Man
129,858720,DepthScenes,duration_manipulation_targetAtFixation,jsons/VE125_randls_64.json,http://54.235.29.9/FacialAge/BNav_EC2/DepthDuration/v2_depth_duration_MTurk/v2_DepthDuration_HTML.html#122,122,1366,625,1366,768,9-3-2022,9-22-55,130,depth_duration_stimuli/003228_2014-05-14_13-42-35_094959634447_rgbf000101-resize_1/003228_2014-05-14_13-42-35_094959634447_rgbf000101-resize_1-target.png,125,1.9680000000000002,4,2314,129,meters,jsons/VE125_randls_64.json,621084,1874142,31,Man
130,858720,DepthScenes,duration_manipulation_targetAtFixation,jsons/VE125_randls_64.json,http://54.235.29.9/FacialAge/BNav_EC2/DepthDuration/v2_depth_duration_MTurk/v2_DepthDuration_HTML.html#122,122,1366,625,1366,768,9-3-2022,9-22-55,131,depth_duration_stimuli/001150_2014-06-17_15-27-34_260595134347_rgbf000108-resize_2/001150_2014-06-17_15-27-34_260595134347_rgbf000108-resize_2-target.png,125,4.0325,3,2741,112,meters,jsons/VE125_randls_64.json,621084,1874142,31,Man
131,858720,DepthScenes,duration_manipulation_targetAtFixation,jsons/VE125_randls_64.json,http://54.235.29.9/FacialAge/BNav_EC2/DepthDuration/v2_depth_duration_MTurk/v2_DepthDuration_HTML.html#122,122,1366,625,1366,768,9-3-2022,9-22-55,132,depth_duration_stimuli/000665_2014-06-09_20-42-35_260595134347_rgbf000110-resize_1/000665_2014-06-09_20-42-35_260595134347_rgbf000110-resize_1-target.png,125,3.057,2,3943,114,meters,jsons/VE125_randls_64.json,621084,1874142,31,Man
132,858720,DepthScenes,duration_manipulation_targetAtFixation,jsons/VE125_randls_64.json,http://54.235.29.9/FacialAge/BNav_EC2/DepthDuration/v2_depth_duration_MTurk/v2_DepthDuration_HTML.html#122,122,1366,625,1366,768,9-3-2022,9-22-55,133,depth_duration_stimuli/001175_2014-06-17_15-45-55_260595134347_rgbf000129-resize_4/001175_2014-06-17_15-45-55_260595134347_rgbf000129-resize_4-target.png,125,4.255,2,3130,121,meters,jsons/VE125_randls_64.json,621084,1874142,31,Man
133,858720,DepthScenes,duration_manipulation_targetAtFixation,jsons/VE125_randls_64.json,http://54.235.29.9/FacialAge/BNav_EC2/DepthDuration/v2_depth_duration_MTurk/v2_DepthDuration_HTML.html#122,122,1366,625,1366,768,9-3-2022,9-22-55,134,depth_duration_stimuli/003490_2014-05-21_15-50-11_094959634447_rgbf000101-resize_3/003490_2014-05-21_15-50-11_094959634447_rgbf000101-resize_3-target.png,125,3.6445,3,3285,98,meters,jsons/VE125_randls_64.json,621084,1874142,31,Man
134,858720,DepthScenes,duration_manipulation_targetAtFixation,jsons/VE125_randls_64.json,http://54.235.29.9/FacialAge/BNav_EC2/DepthDuration/v2_depth_duration_MTurk/v2_DepthDuration_HTML.html#122,122,1366,625,1366,768,9-3-2022,9-22-55,135,depth_duration_stimuli/002072_2014-06-24_21-48-06_260595134347_rgbf000115-resize_0/002072_2014-06-24_21-48-06_260595134347_rgbf000115-resize-original.jpg,125,4.702,0,3116,118,meters,jsons/VE125_randls_64.json,621084,1874142,31,Man
135,858720,DepthScenes,duration_manipulation_targetAtFixation,jsons/VE125_randls_64.json,http://54.235.29.9/FacialAge/BNav_EC2/DepthDuration/v2_depth_duration_MTurk/v2_DepthDuration_HTML.html#122,122,1366,625,1366,768,9-3-2022,9-22-55,136,depth_duration_stimuli/000773_2014-06-08_22-24-54_260595134347_rgbf000093-resize_1/000773_2014-06-08_22-24-54_260595134347_rgbf000093-resize_1-target.png,125,4.973,2,5677,118,meters,jsons/VE125_randls_64.json,621084,1874142,31,Man
136,858720,DepthScenes,duration_manipulation_targetAtFixation,jsons/VE125_randls_64.json,http://54.235.29.9/FacialAge/BNav_EC2/DepthDuration/v2_depth_duration_MTurk/v2_DepthDuration_HTML.html#122,122,1366,625,1366,768,9-3-2022,9-22-55,137,depth_duration_stimuli/002414_2014-06-28_20-24-58_260595134347_rgbf000067-resize_4/002414_2014-06-28_20-24-58_260595134347_rgbf000067-resize_4-target.png,125,4.363,2,2628,121,meters,jsons/VE125_randls_64.json,621084,1874142,31,Man
137,858720,DepthScenes,duration_manipulation_targetAtFixation,jsons/VE125_randls_64.json,http://54.235.29.9/FacialAge/BNav_EC2/DepthDuration/v2_depth_duration_MTurk/v2_DepthDuration_HTML.html#122,122,1366,625,1366,768,9-3-2022,9-22-55,138,depth_duration_stimuli/002375_2014-06-28_20-13-44_260595134347_rgbf000032-resize_1/002375_2014-06-28_20-13-44_260595134347_rgbf000032-resize_1-target.png,125,4.0175,2,2921,121,meters,jsons/VE125_randls_64.json,621084,1874142,31,Man
138,858720,DepthScenes,duration_manipulation_targetAtFixation,jsons/VE125_randls_64.json,http://54.235.29.9/FacialAge/BNav_EC2/DepthDuration/v2_depth_duration_MTurk/v2_DepthDuration_HTML.html#122,122,1366,625,1366,768,9-3-2022,9-22-55,139,depth_duration_stimuli/002657_2014-06-13_15-29-54_094959634447_rgbf000150-resize_1/002657_2014-06-13_15-29-54_094959634447_rgbf000150-resize_1-target.png,125,4.919,3,3154,126,meters,jsons/VE125_randls_64.json,621084,1874142,31,Man
139,858720,DepthScenes,duration_manipulation_targetAtFixation,jsons/VE125_randls_64.json,http://54.235.29.9/FacialAge/BNav_EC2/DepthDuration/v2_depth_duration_MTurk/v2_DepthDuration_HTML.html#122,122,1366,625,1366,768,9-3-2022,9-22-55,140,depth_duration_stimuli/001059_2014-06-08_21-53-27_260595134347_rgbf000061-resize_4/001059_2014-06-08_21-53-27_260595134347_rgbf000061-resize_4-target.png,125,2.4185,5,2690,134,meters,jsons/VE125_randls_64.json,621084,1874142,31,Man
140,858720,DepthScenes,duration_manipulation_targetAtFixation,jsons/VE125_randls_64.json,http://54.235.29.9/FacialAge/BNav_EC2/DepthDuration/v2_depth_duration_MTurk/v2_DepthDuration_HTML.html#122,122,1366,625,1366,768,9-3-2022,9-22-55,141,depth_duration_stimuli/001032_2014-06-08_13-23-17_260595134347_rgbf000021-resize_3/001032_2014-06-08_13-23-17_260595134347_rgbf000021-resize_3-target.png,125,3.2725,4,2612,123,meters,jsons/VE125_randls_64.json,621084,1874142,31,Man
141,858720,DepthScenes,duration_manipulation_targetAtFixation,jsons/VE125_randls_64.json,http://54.235.29.9/FacialAge/BNav_EC2/DepthDuration/v2_depth_duration_MTurk/v2_DepthDuration_HTML.html#122,122,1366,625,1366,768,9-3-2022,9-22-55,142,depth_duration_stimuli/001011_2014-06-08_23-18-54_260595134347_rgbf000044-resize_4/001011_2014-06-08_23-18-54_260595134347_rgbf000044-resize_4-target.png,125,2.4730000000000003,2,2929,123,meters,jsons/VE125_randls_64.json,621084,1874142,31,Man
142,858720,DepthScenes,duration_manipulation_targetAtFixation,jsons/VE125_randls_64.json,http://54.235.29.9/FacialAge/BNav_EC2/DepthDuration/v2_depth_duration_MTurk/v2_DepthDuration_HTML.html#122,122,1366,625,1366,768,9-3-2022,9-22-55,143,depth_duration_stimuli/002875_2014-06-01_15-19-00_094959634447_rgbf000151-resize_1/002875_2014-06-01_15-19-00_094959634447_rgbf000151-resize_1-target.png,125,1.9675,5,2827,116,meters,jsons/VE125_randls_64.json,621084,1874142,31,Man
143,858720,DepthScenes,duration_manipulation_targetAtFixation,jsons/VE125_randls_64.json,http://54.235.29.9/FacialAge/BNav_EC2/DepthDuration/v2_depth_duration_MTurk/v2_DepthDuration_HTML.html#122,122,1366,625,1366,768,9-3-2022,9-22-55,144,depth_duration_stimuli/001806_2014-06-26_20-50-20_260595134347_rgbf000091-resize_1/001806_2014-06-26_20-50-20_260595134347_rgbf000091-resize_1-target.png,125,2.7305,2,4253,123,meters,jsons/VE125_randls_64.json,621084,1874142,31,Man
144,858720,DepthScenes,duration_manipulation_targetAtFixation,jsons/VE125_randls_64.json,http://54.235.29.9/FacialAge/BNav_EC2/DepthDuration/v2_depth_duration_MTurk/v2_DepthDuration_HTML.html#122,122,1366,625,1366,768,9-3-2022,9-22-55,145,depth_duration_stimuli/001617_2014-06-20_11-35-32_260595134347_rgbf000066-resize_1/001617_2014-06-20_11-35-32_260595134347_rgbf000066-resize_1-target.png,125,3.7910000000000004,3,4984,120,meters,jsons/VE125_randls_64.json,621084,1874142,31,Man
145,858720,DepthScenes,duration_manipulation_targetAtFixation,jsons/VE125_randls_64.json,http://54.235.29.9/FacialAge/BNav_EC2/DepthDuration/v2_depth_duration_MTurk/v2_DepthDuration_HTML.html#122,122,1366,625,1366,768,9-3-2022,9-22-55,146,depth_duration_stimuli/001498_2014-06-19_17-45-14_260595134347_rgbf000129-resize_4/001498_2014-06-19_17-45-14_260595134347_rgbf000129-resize-original.jpg,125,1.4075,0,6233,124,meters,jsons/VE125_randls_64.json,621084,1874142,31,Man
146,858720,DepthScenes,duration_manipulation_targetAtFixation,jsons/VE125_randls_64.json,http://54.235.29.9/FacialAge/BNav_EC2/DepthDuration/v2_depth_duration_MTurk/v2_DepthDuration_HTML.html#122,122,1366,625,1366,768,9-3-2022,9-22-55,147,depth_duration_stimuli/000469_2014-06-09_19-42-10_260595134347_rgbf000081-resize_1/000469_2014-06-09_19-42-10_260595134347_rgbf000081-resize_1-target.png,125,1.652,3,2879,123,meters,jsons/VE125_randls_64.json,621084,1874142,31,Man
147,858720,DepthScenes,duration_manipulation_targetAtFixation,jsons/VE125_randls_64.json,http://54.235.29.9/FacialAge/BNav_EC2/DepthDuration/v2_depth_duration_MTurk/v2_DepthDuration_HTML.html#122,122,1366,625,1366,768,9-3-2022,9-22-55,148,depth_duration_stimuli/000483_2014-06-09_20-41-45_260595134347_rgbf000116-resize_4/000483_2014-06-09_20-41-45_260595134347_rgbf000116-resize_4-target.png,125,1.337,3,3001,115,meters,jsons/VE125_randls_64.json,621084,1874142,31,Man
148,858720,DepthScenes,duration_manipulation_targetAtFixation,jsons/VE125_randls_64.json,http://54.235.29.9/FacialAge/BNav_EC2/DepthDuration/v2_depth_duration_MTurk/v2_DepthDuration_HTML.html#122,122,1366,625,1366,768,9-3-2022,9-22-55,149,depth_duration_stimuli/001133_2014-06-17_14-49-16_260595134347_rgbf000100-resize_0/001133_2014-06-17_14-49-16_260595134347_rgbf000100-resize_0-target.png,125,4.2115,2,2789,124,meters,jsons/VE125_randls_64.json,621084,1874142,31,Man
149,858720,DepthScenes,duration_manipulation_targetAtFixation,jsons/VE125_randls_64.json,http://54.235.29.9/FacialAge/BNav_EC2/DepthDuration/v2_depth_duration_MTurk/v2_DepthDuration_HTML.html#122,122,1366,625,1366,768,9-3-2022,9-22-55,150,depth_duration_stimuli/001132_2014-06-17_14-48-54_260595134347_rgbf000100-resize_2/001132_2014-06-17_14-48-54_260595134347_rgbf000100-resize_2-target.png,125,3.753,1,3303,119,meters,jsons/VE125_randls_64.json,621084,1874142,31,Man
150,858720,DepthScenes,duration_manipulation_targetAtFixation,jsons/VE125_randls_64.json,http://54.235.29.9/FacialAge/BNav_EC2/DepthDuration/v2_depth_duration_MTurk/v2_DepthDuration_HTML.html#122,122,1366,625,1366,768,9-3-2022,9-22-55,151,depth_duration_stimuli/000522_2014-06-08_13-35-06_260595134347_rgbf000244-resize_1/000522_2014-06-08_13-35-06_260595134347_rgbf000244-resize_1-target.png,125,2.3715,5,3209,118,meters,jsons/VE125_randls_64.json,621084,1874142,31,Man
151,858720,DepthScenes,duration_manipulation_targetAtFixation,jsons/VE125_randls_64.json,http://54.235.29.9/FacialAge/BNav_EC2/DepthDuration/v2_depth_duration_MTurk/v2_DepthDuration_HTML.html#122,122,1366,625,1366,768,9-3-2022,9-22-55,152,depth_duration_stimuli/002949_2014-06-26_15-57-42_094959634447_rgbf000079-resize_1/002949_2014-06-26_15-57-42_094959634447_rgbf000079-resize_1-target.png,125,1.8915,3,3129,119,meters,jsons/VE125_randls_64.json,621084,1874142,31,Man
152,858720,DepthScenes,duration_manipulation_targetAtFixation,jsons/VE125_randls_64.json,http://54.235.29.9/FacialAge/BNav_EC2/DepthDuration/v2_depth_duration_MTurk/v2_DepthDuration_HTML.html#122,122,1366,625,1366,768,9-3-2022,9-22-55,153,depth_duration_stimuli/002549_2014-06-24_13-41-39_094959634447_rgbf000022-resize_3/002549_2014-06-24_13-41-39_094959634447_rgbf000022-resize_3-target.png,125,1.476,7,2899,125,meters,jsons/VE125_randls_64.json,621084,1874142,31,Man
153,858720,DepthScenes,duration_manipulation_targetAtFixation,jsons/VE125_randls_64.json,http://54.235.29.9/FacialAge/BNav_EC2/DepthDuration/v2_depth_duration_MTurk/v2_DepthDuration_HTML.html#122,122,1366,625,1366,768,9-3-2022,9-22-55,154,depth_duration_stimuli/002750_2014-06-22_19-08-03_094959634447_rgbf000094-resize_4/002750_2014-06-22_19-08-03_094959634447_rgbf000094-resize_4-target.png,125,2.354,2,2865,110,meters,jsons/VE125_randls_64.json,621084,1874142,31,Man
154,858720,DepthScenes,duration_manipulation_targetAtFixation,jsons/VE125_randls_64.json,http://54.235.29.9/FacialAge/BNav_EC2/DepthDuration/v2_depth_duration_MTurk/v2_DepthDuration_HTML.html#122,122,1366,625,1366,768,9-3-2022,9-22-55,155,depth_duration_stimuli/002905_2014-06-03_18-04-43_094959634447_rgbf000151-resize_2/002905_2014-06-03_18-04-43_094959634447_rgbf000151-resize_2-target.png,125,2.0295,1,2711,133,meters,jsons/VE125_randls_64.json,621084,1874142,31,Man
155,858720,DepthScenes,duration_manipulation_targetAtFixation,jsons/VE125_randls_64.json,http://54.235.29.9/FacialAge/BNav_EC2/DepthDuration/v2_depth_duration_MTurk/v2_DepthDuration_HTML.html#122,122,1366,625,1366,768,9-3-2022,9-22-55,156,depth_duration_stimuli/003423_2014-05-21_10-23-26_094959634447_rgbf002665-resize_2/003423_2014-05-21_10-23-26_094959634447_rgbf002665-resize_2-target.png,125,3.2575,4,3021,119,meters,jsons/VE125_randls_64.json,621084,1874142,31,Man
156,858720,DepthScenes,duration_manipulation_targetAtFixation,jsons/VE125_randls_64.json,http://54.235.29.9/FacialAge/BNav_EC2/DepthDuration/v2_depth_duration_MTurk/v2_DepthDuration_HTML.html#122,122,1366,625,1366,768,9-3-2022,9-22-55,157,depth_duration_stimuli/000436_2014-06-09_22-25-11_260595134347_rgbf000137-resize_1/000436_2014-06-09_22-25-11_260595134347_rgbf000137-resize_1-target.png,125,4.0705,3,2938,114,meters,jsons/VE125_randls_64.json,621084,1874142,31,Man
157,858720,DepthScenes,duration_manipulation_targetAtFixation,jsons/VE125_randls_64.json,http://54.235.29.9/FacialAge/BNav_EC2/DepthDuration/v2_depth_duration_MTurk/v2_DepthDuration_HTML.html#122,122,1366,625,1366,768,9-3-2022,9-22-55,158,depth_duration_stimuli/002444_2014-06-28_20-32-08_260595134347_rgbf000027-resize_0/002444_2014-06-28_20-32-08_260595134347_rgbf000027-resize_0-target.png,125,4.388999999999999,4,2863,135,meters,jsons/VE125_randls_64.json,621084,1874142,31,Man
158,858720,DepthScenes,duration_manipulation_targetAtFixation,jsons/VE125_randls_64.json,http://54.235.29.9/FacialAge/BNav_EC2/DepthDuration/v2_depth_duration_MTurk/v2_DepthDuration_HTML.html#122,122,1366,625,1366,768,9-3-2022,9-22-55,159,depth_duration_stimuli/003534_2014-05-22_15-06-10_094959634447_rgbf000102-resize_4/003534_2014-05-22_15-06-10_094959634447_rgbf000102-resize_4-target.png,125,1.426,2,3206,129,meters,jsons/VE125_randls_64.json,621084,1874142,31,Man
159,858720,DepthScenes,duration_manipulation_targetAtFixation,jsons/VE125_randls_64.json,http://54.235.29.9/FacialAge/BNav_EC2/DepthDuration/v2_depth_duration_MTurk/v2_DepthDuration_HTML.html#122,122,1366,625,1366,768,9-3-2022,9-22-55,160,depth_duration_stimuli/002637_2014-06-24_14-51-13_094959634447_rgbf000066-resize_4/002637_2014-06-24_14-51-13_094959634447_rgbf000066-resize_4-target.png,125,1.9955,1,3263,117,meters,jsons/VE125_randls_64.json,621084,1874142,31,Man
160,858720,DepthScenes,duration_manipulation_targetAtFixation,jsons/VE125_randls_64.json,http://54.235.29.9/FacialAge/BNav_EC2/DepthDuration/v2_depth_duration_MTurk/v2_DepthDuration_HTML.html#122,122,1366,625,1366,768,9-3-2022,9-22-55,161,depth_duration_stimuli/001158_2014-06-17_15-32-16_260595134347_rgbf000138-resize_2/001158_2014-06-17_15-32-16_260595134347_rgbf000138-resize_2-target.png,125,4.5315,2,2849,123,meters,jsons/VE125_randls_64.json,621084,1874142,31,Man
161,858720,DepthScenes,duration_manipulation_targetAtFixation,jsons/VE125_randls_64.json,http://54.235.29.9/FacialAge/BNav_EC2/DepthDuration/v2_depth_duration_MTurk/v2_DepthDuration_HTML.html#122,122,1366,625,1366,768,9-3-2022,9-22-55,162,depth_duration_stimuli/000556_2014-06-09_22-42-56_260595134347_rgbf000214-resize_1/000556_2014-06-09_22-42-56_260595134347_rgbf000214-resize_1-target.png,125,4.8415,3,2805,123,meters,jsons/VE125_randls_64.json,621084,1874142,31,Man
162,858720,DepthScenes,duration_manipulation_targetAtFixation,jsons/VE125_randls_64.json,http://54.235.29.9/FacialAge/BNav_EC2/DepthDuration/v2_depth_duration_MTurk/v2_DepthDuration_HTML.html#122,122,1366,625,1366,768,9-3-2022,9-22-55,163,depth_duration_stimuli/002630_2014-06-24_14-47-50_094959634447_rgbf000055-resize_1/002630_2014-06-24_14-47-50_094959634447_rgbf000055-resize_1-target.png,125,3.0095,2,3297,128,meters,jsons/VE125_randls_64.json,621084,1874142,31,Man
163,858720,DepthScenes,duration_manipulation_targetAtFixation,jsons/VE125_randls_64.json,http://54.235.29.9/FacialAge/BNav_EC2/DepthDuration/v2_depth_duration_MTurk/v2_DepthDuration_HTML.html#122,122,1366,625,1366,768,9-3-2022,9-22-55,164,depth_duration_stimuli/002758_2014-06-22_19-11-20_094959634447_rgbf000128-resize_1/002758_2014-06-22_19-11-20_094959634447_rgbf000128-resize_1-target.png,125,2.555,5,2722,113,meters,jsons/VE125_randls_64.json,621084,1874142,31,Man
