,subjID,experimentName,versionName,sequenceName,url,selected_row,windowWidth,windowHeight,screenWidth,screenHeight,startDate,startTime,trial,stimulus,duration,actual_depth,depth_estimate,trial_RT,log_sceneDuration,unitSelection,seq_filepath,experimentTime,totalTime,age,gender
0,858876,DepthScenes,duration_manipulation_targetAtFixation,jsons/VE125_randls_7.json,http://54.235.29.9/FacialAge/BNav_EC2/DepthDuration/v2_depth_duration_MTurk/v2_DepthDuration_HTML.html#6,6,1600,789,1600,900,8-21-2022,9-35-21,1,depth_duration_stimuli/002445_2014-06-28_20-32-16_260595134347_rgbf000029-resize_4/002445_2014-06-28_20-32-16_260595134347_rgbf000029-resize_4-target.png,125,2.5315,0,5448,124,meters,jsons/VE125_randls_7.json,710039,820118,34,Woman
1,858876,DepthScenes,duration_manipulation_targetAtFixation,jsons/VE125_randls_7.json,http://54.235.29.9/FacialAge/BNav_EC2/DepthDuration/v2_depth_duration_MTurk/v2_DepthDuration_HTML.html#6,6,1600,789,1600,900,8-21-2022,9-35-21,2,depth_duration_stimuli/000780_2014-06-08_22-28-29_260595134347_rgbf000126-resize_1/000780_2014-06-08_22-28-29_260595134347_rgbf000126-resize_1-target.png,125,3.3825,2,18297,124,meters,jsons/VE125_randls_7.json,710039,820118,34,Woman
2,858876,DepthScenes,duration_manipulation_targetAtFixation,jsons/VE125_randls_7.json,http://54.235.29.9/FacialAge/BNav_EC2/DepthDuration/v2_depth_duration_MTurk/v2_DepthDuration_HTML.html#6,6,1600,789,1600,900,8-21-2022,9-35-21,3,depth_duration_stimuli/000009_2014-05-26_14-32-05_260595134347_rgbf000034-resize_3/000009_2014-05-26_14-32-05_260595134347_rgbf000034-resize_3-target.png,125,3.8715,0,5251,126,meters,jsons/VE125_randls_7.json,710039,820118,34,Woman
3,858876,DepthScenes,duration_manipulation_targetAtFixation,jsons/VE125_randls_7.json,http://54.235.29.9/FacialAge/BNav_EC2/DepthDuration/v2_depth_duration_MTurk/v2_DepthDuration_HTML.html#6,6,1600,789,1600,900,8-21-2022,9-35-21,4,depth_duration_stimuli/001828_2014-06-26_21-40-03_260595134347_rgbf000024-resize_0/001828_2014-06-26_21-40-03_260595134347_rgbf000024-resize_0-target.png,125,4.8260000000000005,0,2753,124,meters,jsons/VE125_randls_7.json,710039,820118,34,Woman
4,858876,DepthScenes,duration_manipulation_targetAtFixation,jsons/VE125_randls_7.json,http://54.235.29.9/FacialAge/BNav_EC2/DepthDuration/v2_depth_duration_MTurk/v2_DepthDuration_HTML.html#6,6,1600,789,1600,900,8-21-2022,9-35-21,5,depth_duration_stimuli/001810_2014-06-26_20-51-35_260595134347_rgbf000040-resize_3/001810_2014-06-26_20-51-35_260595134347_rgbf000040-resize_3-target.png,125,2.2525,0,3010,123,meters,jsons/VE125_randls_7.json,710039,820118,34,Woman
5,858876,DepthScenes,duration_manipulation_targetAtFixation,jsons/VE125_randls_7.json,http://54.235.29.9/FacialAge/BNav_EC2/DepthDuration/v2_depth_duration_MTurk/v2_DepthDuration_HTML.html#6,6,1600,789,1600,900,8-21-2022,9-35-21,6,depth_duration_stimuli/003010_2014-06-15_12-54-35_094959634447_rgbf000112-resize_0/003010_2014-06-15_12-54-35_094959634447_rgbf000112-resize_0-target.png,125,3.1185,1,2912,124,meters,jsons/VE125_randls_7.json,710039,820118,34,Woman
6,858876,DepthScenes,duration_manipulation_targetAtFixation,jsons/VE125_randls_7.json,http://54.235.29.9/FacialAge/BNav_EC2/DepthDuration/v2_depth_duration_MTurk/v2_DepthDuration_HTML.html#6,6,1600,789,1600,900,8-21-2022,9-35-21,7,depth_duration_stimuli/001059_2014-06-08_21-53-27_260595134347_rgbf000061-resize_4/001059_2014-06-08_21-53-27_260595134347_rgbf000061-resize_4-target.png,125,2.4185,1,2593,124,meters,jsons/VE125_randls_7.json,710039,820118,34,Woman
7,858876,DepthScenes,duration_manipulation_targetAtFixation,jsons/VE125_randls_7.json,http://54.235.29.9/FacialAge/BNav_EC2/DepthDuration/v2_depth_duration_MTurk/v2_DepthDuration_HTML.html#6,6,1600,789,1600,900,8-21-2022,9-35-21,8,depth_duration_stimuli/001032_2014-06-08_13-23-17_260595134347_rgbf000021-resize_3/001032_2014-06-08_13-23-17_260595134347_rgbf000021-resize_3-target.png,125,3.2725,0,2903,119,meters,jsons/VE125_randls_7.json,710039,820118,34,Woman
8,858876,DepthScenes,duration_manipulation_targetAtFixation,jsons/VE125_randls_7.json,http://54.235.29.9/FacialAge/BNav_EC2/DepthDuration/v2_depth_duration_MTurk/v2_DepthDuration_HTML.html#6,6,1600,789,1600,900,8-21-2022,9-35-21,9,depth_duration_stimuli/001806_2014-06-26_20-50-20_260595134347_rgbf000091-resize_1/001806_2014-06-26_20-50-20_260595134347_rgbf000091-resize_1-target.png,125,2.7305,1,3232,124,meters,jsons/VE125_randls_7.json,710039,820118,34,Woman
9,858876,DepthScenes,duration_manipulation_targetAtFixation,jsons/VE125_randls_7.json,http://54.235.29.9/FacialAge/BNav_EC2/DepthDuration/v2_depth_duration_MTurk/v2_DepthDuration_HTML.html#6,6,1600,789,1600,900,8-21-2022,9-35-21,10,depth_duration_stimuli/001617_2014-06-20_11-35-32_260595134347_rgbf000066-resize_1/001617_2014-06-20_11-35-32_260595134347_rgbf000066-resize_1-target.png,125,3.7910000000000004,1,2658,124,meters,jsons/VE125_randls_7.json,710039,820118,34,Woman
10,858876,DepthScenes,duration_manipulation_targetAtFixation,jsons/VE125_randls_7.json,http://54.235.29.9/FacialAge/BNav_EC2/DepthDuration/v2_depth_duration_MTurk/v2_DepthDuration_HTML.html#6,6,1600,789,1600,900,8-21-2022,9-35-21,11,depth_duration_stimuli/002118_2014-06-25_20-32-08_260595134347_rgbf000078-resize_1/002118_2014-06-25_20-32-08_260595134347_rgbf000078-resize_1-target.png,125,2.6460000000000004,0,3401,125,meters,jsons/VE125_randls_7.json,710039,820118,34,Woman
11,858876,DepthScenes,duration_manipulation_targetAtFixation,jsons/VE125_randls_7.json,http://54.235.29.9/FacialAge/BNav_EC2/DepthDuration/v2_depth_duration_MTurk/v2_DepthDuration_HTML.html#6,6,1600,789,1600,900,8-21-2022,9-35-21,12,depth_duration_stimuli/001516_2014-06-20_16-25-09_260595134347_rgbf000076-resize_2/001516_2014-06-20_16-25-09_260595134347_rgbf000076-resize_2-target.png,125,1.7445,0,1907,126,meters,jsons/VE125_randls_7.json,710039,820118,34,Woman
12,858876,DepthScenes,duration_manipulation_targetAtFixation,jsons/VE125_randls_7.json,http://54.235.29.9/FacialAge/BNav_EC2/DepthDuration/v2_depth_duration_MTurk/v2_DepthDuration_HTML.html#6,6,1600,789,1600,900,8-21-2022,9-35-21,13,depth_duration_stimuli/000569_2014-06-09_22-51-47_260595134347_rgbf000141-resize_3/000569_2014-06-09_22-51-47_260595134347_rgbf000141-resize-original.jpg,125,4.512,3,4217,125,meters,jsons/VE125_randls_7.json,710039,820118,34,Woman
13,858876,DepthScenes,duration_manipulation_targetAtFixation,jsons/VE125_randls_7.json,http://54.235.29.9/FacialAge/BNav_EC2/DepthDuration/v2_depth_duration_MTurk/v2_DepthDuration_HTML.html#6,6,1600,789,1600,900,8-21-2022,9-35-21,14,depth_duration_stimuli/002043_2014-06-24_20-29-38_260595134347_rgbf000039-resize_4/002043_2014-06-24_20-29-38_260595134347_rgbf000039-resize_4-target.png,125,2.8435,1,4002,126,meters,jsons/VE125_randls_7.json,710039,820118,34,Woman
14,858876,DepthScenes,duration_manipulation_targetAtFixation,jsons/VE125_randls_7.json,http://54.235.29.9/FacialAge/BNav_EC2/DepthDuration/v2_depth_duration_MTurk/v2_DepthDuration_HTML.html#6,6,1600,789,1600,900,8-21-2022,9-35-21,15,depth_duration_stimuli/003048_2014-06-15_13-49-43_094959634447_rgbf000150-resize_1/003048_2014-06-15_13-49-43_094959634447_rgbf000150-resize_1-target.png,125,4.0035,1,9117,127,meters,jsons/VE125_randls_7.json,710039,820118,34,Woman
15,858876,DepthScenes,duration_manipulation_targetAtFixation,jsons/VE125_randls_7.json,http://54.235.29.9/FacialAge/BNav_EC2/DepthDuration/v2_depth_duration_MTurk/v2_DepthDuration_HTML.html#6,6,1600,789,1600,900,8-21-2022,9-35-21,16,depth_duration_stimuli/003534_2014-05-22_15-06-10_094959634447_rgbf000102-resize_4/003534_2014-05-22_15-06-10_094959634447_rgbf000102-resize_4-target.png,125,1.426,1,2681,124,meters,jsons/VE125_randls_7.json,710039,820118,34,Woman
16,858876,DepthScenes,duration_manipulation_targetAtFixation,jsons/VE125_randls_7.json,http://54.235.29.9/FacialAge/BNav_EC2/DepthDuration/v2_depth_duration_MTurk/v2_DepthDuration_HTML.html#6,6,1600,789,1600,900,8-21-2022,9-35-21,17,depth_duration_stimuli/002637_2014-06-24_14-51-13_094959634447_rgbf000066-resize_4/002637_2014-06-24_14-51-13_094959634447_rgbf000066-resize_4-target.png,125,1.9955,0,2799,125,meters,jsons/VE125_randls_7.json,710039,820118,34,Woman
17,858876,DepthScenes,duration_manipulation_targetAtFixation,jsons/VE125_randls_7.json,http://54.235.29.9/FacialAge/BNav_EC2/DepthDuration/v2_depth_duration_MTurk/v2_DepthDuration_HTML.html#6,6,1600,789,1600,900,8-21-2022,9-35-21,18,depth_duration_stimuli/001808_2014-06-26_20-50-58_260595134347_rgbf000029-resize_1/001808_2014-06-26_20-50-58_260595134347_rgbf000029-resize_1-target.png,125,4.249,2,3211,125,meters,jsons/VE125_randls_7.json,710039,820118,34,Woman
18,858876,DepthScenes,duration_manipulation_targetAtFixation,jsons/VE125_randls_7.json,http://54.235.29.9/FacialAge/BNav_EC2/DepthDuration/v2_depth_duration_MTurk/v2_DepthDuration_HTML.html#6,6,1600,789,1600,900,8-21-2022,9-35-21,19,depth_duration_stimuli/001815_2014-06-26_20-52-55_260595134347_rgbf000020-resize_0/001815_2014-06-26_20-52-55_260595134347_rgbf000020-resize_0-target.png,125,3.3865,1,2825,124,meters,jsons/VE125_randls_7.json,710039,820118,34,Woman
19,858876,DepthScenes,duration_manipulation_targetAtFixation,jsons/VE125_randls_7.json,http://54.235.29.9/FacialAge/BNav_EC2/DepthDuration/v2_depth_duration_MTurk/v2_DepthDuration_HTML.html#6,6,1600,789,1600,900,8-21-2022,9-35-21,20,depth_duration_stimuli/000739_2014-06-08_18-45-58_260595134347_rgbf000068-resize_1/000739_2014-06-08_18-45-58_260595134347_rgbf000068-resize_1-target.png,125,3.534,0,3003,126,meters,jsons/VE125_randls_7.json,710039,820118,34,Woman
20,858876,DepthScenes,duration_manipulation_targetAtFixation,jsons/VE125_randls_7.json,http://54.235.29.9/FacialAge/BNav_EC2/DepthDuration/v2_depth_duration_MTurk/v2_DepthDuration_HTML.html#6,6,1600,789,1600,900,8-21-2022,9-35-21,21,depth_duration_stimuli/000734_2014-06-08_17-39-11_260595134347_rgbf000128-resize_2/000734_2014-06-08_17-39-11_260595134347_rgbf000128-resize_2-target.png,125,4.098,1,2986,125,meters,jsons/VE125_randls_7.json,710039,820118,34,Woman
21,858876,DepthScenes,duration_manipulation_targetAtFixation,jsons/VE125_randls_7.json,http://54.235.29.9/FacialAge/BNav_EC2/DepthDuration/v2_depth_duration_MTurk/v2_DepthDuration_HTML.html#6,6,1600,789,1600,900,8-21-2022,9-35-21,22,depth_duration_stimuli/000642_2014-06-08_16-59-25_260595134347_rgbf000098-resize_2/000642_2014-06-08_16-59-25_260595134347_rgbf000098-resize_2-target.png,125,2.8815,1,2426,126,meters,jsons/VE125_randls_7.json,710039,820118,34,Woman
22,858876,DepthScenes,duration_manipulation_targetAtFixation,jsons/VE125_randls_7.json,http://54.235.29.9/FacialAge/BNav_EC2/DepthDuration/v2_depth_duration_MTurk/v2_DepthDuration_HTML.html#6,6,1600,789,1600,900,8-21-2022,9-35-21,23,depth_duration_stimuli/002425_2014-06-28_20-27-29_260595134347_rgbf000031-resize_8/002425_2014-06-28_20-27-29_260595134347_rgbf000031-resize_8-target.png,125,3.8960000000000004,1,2258,126,meters,jsons/VE125_randls_7.json,710039,820118,34,Woman
23,858876,DepthScenes,duration_manipulation_targetAtFixation,jsons/VE125_randls_7.json,http://54.235.29.9/FacialAge/BNav_EC2/DepthDuration/v2_depth_duration_MTurk/v2_DepthDuration_HTML.html#6,6,1600,789,1600,900,8-21-2022,9-35-21,24,depth_duration_stimuli/001056_2014-06-08_18-46-44_260595134347_rgbf000068-resize_0/001056_2014-06-08_18-46-44_260595134347_rgbf000068-resize_0-target.png,125,2.6625,1,2739,125,meters,jsons/VE125_randls_7.json,710039,820118,34,Woman
24,858876,DepthScenes,duration_manipulation_targetAtFixation,jsons/VE125_randls_7.json,http://54.235.29.9/FacialAge/BNav_EC2/DepthDuration/v2_depth_duration_MTurk/v2_DepthDuration_HTML.html#6,6,1600,789,1600,900,8-21-2022,9-35-21,25,depth_duration_stimuli/002199_2014-06-28_18-33-56_260595134347_rgbf000074-resize_0/002199_2014-06-28_18-33-56_260595134347_rgbf000074-resize_0-target.png,125,1.996,1,3058,124,meters,jsons/VE125_randls_7.json,710039,820118,34,Woman
25,858876,DepthScenes,duration_manipulation_targetAtFixation,jsons/VE125_randls_7.json,http://54.235.29.9/FacialAge/BNav_EC2/DepthDuration/v2_depth_duration_MTurk/v2_DepthDuration_HTML.html#6,6,1600,789,1600,900,8-21-2022,9-35-21,26,depth_duration_stimuli/000368_2014-06-09_15-53-01_260595134347_rgbf000155-resize_2/000368_2014-06-09_15-53-01_260595134347_rgbf000155-resize_2-target.png,125,2.4859999999999998,2,9008,126,meters,jsons/VE125_randls_7.json,710039,820118,34,Woman
26,858876,DepthScenes,duration_manipulation_targetAtFixation,jsons/VE125_randls_7.json,http://54.235.29.9/FacialAge/BNav_EC2/DepthDuration/v2_depth_duration_MTurk/v2_DepthDuration_HTML.html#6,6,1600,789,1600,900,8-21-2022,9-35-21,27,depth_duration_stimuli/002678_2014-06-13_16-15-32_094959634447_rgbf000151-resize_6/002678_2014-06-13_16-15-32_094959634447_rgbf000151-resize_6-target.png,125,2.1830000000000003,2,5410,125,meters,jsons/VE125_randls_7.json,710039,820118,34,Woman
27,858876,DepthScenes,duration_manipulation_targetAtFixation,jsons/VE125_randls_7.json,http://54.235.29.9/FacialAge/BNav_EC2/DepthDuration/v2_depth_duration_MTurk/v2_DepthDuration_HTML.html#6,6,1600,789,1600,900,8-21-2022,9-35-21,28,depth_duration_stimuli/002272_2014-06-28_18-53-56_260595134347_rgbf000067-resize_2/002272_2014-06-28_18-53-56_260595134347_rgbf000067-resize_2-target.png,125,1.138,1,4194,126,meters,jsons/VE125_randls_7.json,710039,820118,34,Woman
28,858876,DepthScenes,duration_manipulation_targetAtFixation,jsons/VE125_randls_7.json,http://54.235.29.9/FacialAge/BNav_EC2/DepthDuration/v2_depth_duration_MTurk/v2_DepthDuration_HTML.html#6,6,1600,789,1600,900,8-21-2022,9-35-21,29,depth_duration_stimuli/001571_2014-06-20_17-21-32_260595134347_rgbf000089-resize_1/001571_2014-06-20_17-21-32_260595134347_rgbf000089-resize_1-target.png,125,1.86,0,6794,124,meters,jsons/VE125_randls_7.json,710039,820118,34,Woman
29,858876,DepthScenes,duration_manipulation_targetAtFixation,jsons/VE125_randls_7.json,http://54.235.29.9/FacialAge/BNav_EC2/DepthDuration/v2_depth_duration_MTurk/v2_DepthDuration_HTML.html#6,6,1600,789,1600,900,8-21-2022,9-35-21,30,depth_duration_stimuli/000375_2014-06-08_11-17-29_260595134347_rgbf000133-resize_2/000375_2014-06-08_11-17-29_260595134347_rgbf000133-resize-original.jpg,125,4.718,0,6027,125,meters,jsons/VE125_randls_7.json,710039,820118,34,Woman
30,858876,DepthScenes,duration_manipulation_targetAtFixation,jsons/VE125_randls_7.json,http://54.235.29.9/FacialAge/BNav_EC2/DepthDuration/v2_depth_duration_MTurk/v2_DepthDuration_HTML.html#6,6,1600,789,1600,900,8-21-2022,9-35-21,31,depth_duration_stimuli/002784_2014-06-22_19-26-30_094959634447_rgbf000083-resize_3/002784_2014-06-22_19-26-30_094959634447_rgbf000083-resize_3-target.png,125,1.8046666666667,0,4488,124,meters,jsons/VE125_randls_7.json,710039,820118,34,Woman
31,858876,DepthScenes,duration_manipulation_targetAtFixation,jsons/VE125_randls_7.json,http://54.235.29.9/FacialAge/BNav_EC2/DepthDuration/v2_depth_duration_MTurk/v2_DepthDuration_HTML.html#6,6,1600,789,1600,900,8-21-2022,9-35-21,32,depth_duration_stimuli/001100_2014-06-15_17-46-26_260595134347_rgbf000225-resize_2/001100_2014-06-15_17-46-26_260595134347_rgbf000225-resize_2-target.png,125,2.24,0,2130,125,meters,jsons/VE125_randls_7.json,710039,820118,34,Woman
32,858876,DepthScenes,duration_manipulation_targetAtFixation,jsons/VE125_randls_7.json,http://54.235.29.9/FacialAge/BNav_EC2/DepthDuration/v2_depth_duration_MTurk/v2_DepthDuration_HTML.html#6,6,1600,789,1600,900,8-21-2022,9-35-21,33,depth_duration_stimuli/000692_2014-06-08_13-09-42_260595134347_rgbf000199-resize_2/000692_2014-06-08_13-09-42_260595134347_rgbf000199-resize_2-target.png,125,3.661,1,2825,124,meters,jsons/VE125_randls_7.json,710039,820118,34,Woman
33,858876,DepthScenes,duration_manipulation_targetAtFixation,jsons/VE125_randls_7.json,http://54.235.29.9/FacialAge/BNav_EC2/DepthDuration/v2_depth_duration_MTurk/v2_DepthDuration_HTML.html#6,6,1600,789,1600,900,8-21-2022,9-35-21,34,depth_duration_stimuli/001094_2014-06-15_17-36-00_260595134347_rgbf000205-resize_0/001094_2014-06-15_17-36-00_260595134347_rgbf000205-resize_0-target.png,125,4.2175,0,16098,124,meters,jsons/VE125_randls_7.json,710039,820118,34,Woman
34,858876,DepthScenes,duration_manipulation_targetAtFixation,jsons/VE125_randls_7.json,http://54.235.29.9/FacialAge/BNav_EC2/DepthDuration/v2_depth_duration_MTurk/v2_DepthDuration_HTML.html#6,6,1600,789,1600,900,8-21-2022,9-35-21,35,depth_duration_stimuli/002570_2014-06-24_13-59-54_094959634447_rgbf000059-resize_0/002570_2014-06-24_13-59-54_094959634447_rgbf000059-resize_0-target.png,125,4.037,0,3529,125,meters,jsons/VE125_randls_7.json,710039,820118,34,Woman
35,858876,DepthScenes,duration_manipulation_targetAtFixation,jsons/VE125_randls_7.json,http://54.235.29.9/FacialAge/BNav_EC2/DepthDuration/v2_depth_duration_MTurk/v2_DepthDuration_HTML.html#6,6,1600,789,1600,900,8-21-2022,9-35-21,36,depth_duration_stimuli/002467_2014-06-28_20-38-07_260595134347_rgbf000026-resize_2/002467_2014-06-28_20-38-07_260595134347_rgbf000026-resize_2-target.png,125,4.742,0,2345,125,meters,jsons/VE125_randls_7.json,710039,820118,34,Woman
36,858876,DepthScenes,duration_manipulation_targetAtFixation,jsons/VE125_randls_7.json,http://54.235.29.9/FacialAge/BNav_EC2/DepthDuration/v2_depth_duration_MTurk/v2_DepthDuration_HTML.html#6,6,1600,789,1600,900,8-21-2022,9-35-21,37,depth_duration_stimuli/000522_2014-06-08_13-35-06_260595134347_rgbf000244-resize_1/000522_2014-06-08_13-35-06_260595134347_rgbf000244-resize_1-target.png,125,2.3715,1,2539,126,meters,jsons/VE125_randls_7.json,710039,820118,34,Woman
37,858876,DepthScenes,duration_manipulation_targetAtFixation,jsons/VE125_randls_7.json,http://54.235.29.9/FacialAge/BNav_EC2/DepthDuration/v2_depth_duration_MTurk/v2_DepthDuration_HTML.html#6,6,1600,789,1600,900,8-21-2022,9-35-21,38,depth_duration_stimuli/002949_2014-06-26_15-57-42_094959634447_rgbf000079-resize_1/002949_2014-06-26_15-57-42_094959634447_rgbf000079-resize_1-target.png,125,1.8915,0,2290,125,meters,jsons/VE125_randls_7.json,710039,820118,34,Woman
38,858876,DepthScenes,duration_manipulation_targetAtFixation,jsons/VE125_randls_7.json,http://54.235.29.9/FacialAge/BNav_EC2/DepthDuration/v2_depth_duration_MTurk/v2_DepthDuration_HTML.html#6,6,1600,789,1600,900,8-21-2022,9-35-21,39,depth_duration_stimuli/002748_2014-06-22_19-07-22_094959634447_rgbf000078-resize_1/002748_2014-06-22_19-07-22_094959634447_rgbf000078-resize_1-target.png,125,4.6705,1,3801,125,meters,jsons/VE125_randls_7.json,710039,820118,34,Woman
39,858876,DepthScenes,duration_manipulation_targetAtFixation,jsons/VE125_randls_7.json,http://54.235.29.9/FacialAge/BNav_EC2/DepthDuration/v2_depth_duration_MTurk/v2_DepthDuration_HTML.html#6,6,1600,789,1600,900,8-21-2022,9-35-21,40,depth_duration_stimuli/002995_2014-06-15_12-31-26_094959634447_rgbf000150-resize_1/002995_2014-06-15_12-31-26_094959634447_rgbf000150-resize_1-target.png,125,3.8360000000000003,1,2054,122,meters,jsons/VE125_randls_7.json,710039,820118,34,Woman
40,858876,DepthScenes,duration_manipulation_targetAtFixation,jsons/VE125_randls_7.json,http://54.235.29.9/FacialAge/BNav_EC2/DepthDuration/v2_depth_duration_MTurk/v2_DepthDuration_HTML.html#6,6,1600,789,1600,900,8-21-2022,9-35-21,41,depth_duration_stimuli/000758_2014-06-08_22-05-08_260595134347_rgbf000085-resize_0/000758_2014-06-08_22-05-08_260595134347_rgbf000085-resize_0-target.png,125,3.3810000000000002,3,2777,124,meters,jsons/VE125_randls_7.json,710039,820118,34,Woman
41,858876,DepthScenes,duration_manipulation_targetAtFixation,jsons/VE125_randls_7.json,http://54.235.29.9/FacialAge/BNav_EC2/DepthDuration/v2_depth_duration_MTurk/v2_DepthDuration_HTML.html#6,6,1600,789,1600,900,8-21-2022,9-35-21,42,depth_duration_stimuli/000854_2014-06-09_19-43-13_260595134347_rgbf000066-resize_0/000854_2014-06-09_19-43-13_260595134347_rgbf000066-resize_0-target.png,125,3.068,0,3068,124,meters,jsons/VE125_randls_7.json,710039,820118,34,Woman
42,858876,DepthScenes,duration_manipulation_targetAtFixation,jsons/VE125_randls_7.json,http://54.235.29.9/FacialAge/BNav_EC2/DepthDuration/v2_depth_duration_MTurk/v2_DepthDuration_HTML.html#6,6,1600,789,1600,900,8-21-2022,9-35-21,43,depth_duration_stimuli/001244_2014-06-17_16-47-45_260595134347_rgbf000030-resize_4/001244_2014-06-17_16-47-45_260595134347_rgbf000030-resize_4-target.png,125,2.0425,1,3665,125,meters,jsons/VE125_randls_7.json,710039,820118,34,Woman
43,858876,DepthScenes,duration_manipulation_targetAtFixation,jsons/VE125_randls_7.json,http://54.235.29.9/FacialAge/BNav_EC2/DepthDuration/v2_depth_duration_MTurk/v2_DepthDuration_HTML.html#6,6,1600,789,1600,900,8-21-2022,9-35-21,44,depth_duration_stimuli/003495_2014-05-21_16-01-51_094959634447_rgbf000100-resize_3/003495_2014-05-21_16-01-51_094959634447_rgbf000100-resize_3-target.png,125,1.6255,1,4410,124,meters,jsons/VE125_randls_7.json,710039,820118,34,Woman
44,858876,DepthScenes,duration_manipulation_targetAtFixation,jsons/VE125_randls_7.json,http://54.235.29.9/FacialAge/BNav_EC2/DepthDuration/v2_depth_duration_MTurk/v2_DepthDuration_HTML.html#6,6,1600,789,1600,900,8-21-2022,9-35-21,45,depth_duration_stimuli/000787_2014-06-08_22-33-53_260595134347_rgbf000175-resize_1/000787_2014-06-08_22-33-53_260595134347_rgbf000175-resize-original.jpg,125,4.784,0,2745,125,meters,jsons/VE125_randls_7.json,710039,820118,34,Woman
45,858876,DepthScenes,duration_manipulation_targetAtFixation,jsons/VE125_randls_7.json,http://54.235.29.9/FacialAge/BNav_EC2/DepthDuration/v2_depth_duration_MTurk/v2_DepthDuration_HTML.html#6,6,1600,789,1600,900,8-21-2022,9-35-21,46,depth_duration_stimuli/000436_2014-06-09_22-25-11_260595134347_rgbf000137-resize_1/000436_2014-06-09_22-25-11_260595134347_rgbf000137-resize_1-target.png,125,4.0705,1,2441,125,meters,jsons/VE125_randls_7.json,710039,820118,34,Woman
46,858876,DepthScenes,duration_manipulation_targetAtFixation,jsons/VE125_randls_7.json,http://54.235.29.9/FacialAge/BNav_EC2/DepthDuration/v2_depth_duration_MTurk/v2_DepthDuration_HTML.html#6,6,1600,789,1600,900,8-21-2022,9-35-21,47,depth_duration_stimuli/002444_2014-06-28_20-32-08_260595134347_rgbf000027-resize_0/002444_2014-06-28_20-32-08_260595134347_rgbf000027-resize_0-target.png,125,4.388999999999999,1,2388,125,meters,jsons/VE125_randls_7.json,710039,820118,34,Woman
47,858876,DepthScenes,duration_manipulation_targetAtFixation,jsons/VE125_randls_7.json,http://54.235.29.9/FacialAge/BNav_EC2/DepthDuration/v2_depth_duration_MTurk/v2_DepthDuration_HTML.html#6,6,1600,789,1600,900,8-21-2022,9-35-21,48,depth_duration_stimuli/001029_2014-06-08_13-17-57_260595134347_rgbf000065-resize_1/001029_2014-06-08_13-17-57_260595134347_rgbf000065-resize_1-target.png,125,3.0835,2,33725,125,meters,jsons/VE125_randls_7.json,710039,820118,34,Woman
48,858876,DepthScenes,duration_manipulation_targetAtFixation,jsons/VE125_randls_7.json,http://54.235.29.9/FacialAge/BNav_EC2/DepthDuration/v2_depth_duration_MTurk/v2_DepthDuration_HTML.html#6,6,1600,789,1600,900,8-21-2022,9-35-21,49,depth_duration_stimuli/000677_2014-06-08_23-10-32_260595134347_rgbf000158-resize_6/000677_2014-06-08_23-10-32_260595134347_rgbf000158-resize_6-target.png,125,3.556,2,3657,125,meters,jsons/VE125_randls_7.json,710039,820118,34,Woman
49,858876,DepthScenes,duration_manipulation_targetAtFixation,jsons/VE125_randls_7.json,http://54.235.29.9/FacialAge/BNav_EC2/DepthDuration/v2_depth_duration_MTurk/v2_DepthDuration_HTML.html#6,6,1600,789,1600,900,8-21-2022,9-35-21,50,depth_duration_stimuli/000447_2014-06-08_16-15-46_260595134347_rgbf000130-resize_1/000447_2014-06-08_16-15-46_260595134347_rgbf000130-resize_1-target.png,125,4.479,6,2961,124,meters,jsons/VE125_randls_7.json,710039,820118,34,Woman
50,858876,DepthScenes,duration_manipulation_targetAtFixation,jsons/VE125_randls_7.json,http://54.235.29.9/FacialAge/BNav_EC2/DepthDuration/v2_depth_duration_MTurk/v2_DepthDuration_HTML.html#6,6,1600,789,1600,900,8-21-2022,9-35-21,51,depth_duration_stimuli/001447_2014-06-19_17-00-32_260595134347_rgbf000082-resize_5/001447_2014-06-19_17-00-32_260595134347_rgbf000082-resize_5-target.png,125,4.13775,2,2322,124,meters,jsons/VE125_randls_7.json,710039,820118,34,Woman
51,858876,DepthScenes,duration_manipulation_targetAtFixation,jsons/VE125_randls_7.json,http://54.235.29.9/FacialAge/BNav_EC2/DepthDuration/v2_depth_duration_MTurk/v2_DepthDuration_HTML.html#6,6,1600,789,1600,900,8-21-2022,9-35-21,52,depth_duration_stimuli/002213_2014-06-28_18-37-58_260595134347_rgbf000055-resize_1/002213_2014-06-28_18-37-58_260595134347_rgbf000055-resize_1-target.png,125,3.62,2,2554,125,meters,jsons/VE125_randls_7.json,710039,820118,34,Woman
52,858876,DepthScenes,duration_manipulation_targetAtFixation,jsons/VE125_randls_7.json,http://54.235.29.9/FacialAge/BNav_EC2/DepthDuration/v2_depth_duration_MTurk/v2_DepthDuration_HTML.html#6,6,1600,789,1600,900,8-21-2022,9-35-21,53,depth_duration_stimuli/000691_2014-06-08_13-08-50_260595134347_rgbf000132-resize_3/000691_2014-06-08_13-08-50_260595134347_rgbf000132-resize_3-target.png,125,4.1530000000000005,0,5257,125,meters,jsons/VE125_randls_7.json,710039,820118,34,Woman
53,858876,DepthScenes,duration_manipulation_targetAtFixation,jsons/VE125_randls_7.json,http://54.235.29.9/FacialAge/BNav_EC2/DepthDuration/v2_depth_duration_MTurk/v2_DepthDuration_HTML.html#6,6,1600,789,1600,900,8-21-2022,9-35-21,54,depth_duration_stimuli/001092_2014-06-15_17-34-58_260595134347_rgbf000171-resize_3/001092_2014-06-15_17-34-58_260595134347_rgbf000171-resize_3-target.png,125,2.6935,0,6043,124,meters,jsons/VE125_randls_7.json,710039,820118,34,Woman
54,858876,DepthScenes,duration_manipulation_targetAtFixation,jsons/VE125_randls_7.json,http://54.235.29.9/FacialAge/BNav_EC2/DepthDuration/v2_depth_duration_MTurk/v2_DepthDuration_HTML.html#6,6,1600,789,1600,900,8-21-2022,9-35-21,55,depth_duration_stimuli/002545_2014-06-24_13-38-53_094959634447_rgbf000080-resize_4/002545_2014-06-24_13-38-53_094959634447_rgbf000080-resize_4-target.png,125,1.9205,0,2921,125,meters,jsons/VE125_randls_7.json,710039,820118,34,Woman
55,858876,DepthScenes,duration_manipulation_targetAtFixation,jsons/VE125_randls_7.json,http://54.235.29.9/FacialAge/BNav_EC2/DepthDuration/v2_depth_duration_MTurk/v2_DepthDuration_HTML.html#6,6,1600,789,1600,900,8-21-2022,9-35-21,56,depth_duration_stimuli/001175_2014-06-17_15-45-55_260595134347_rgbf000129-resize_4/001175_2014-06-17_15-45-55_260595134347_rgbf000129-resize_4-target.png,125,4.255,5,4513,125,meters,jsons/VE125_randls_7.json,710039,820118,34,Woman
56,858876,DepthScenes,duration_manipulation_targetAtFixation,jsons/VE125_randls_7.json,http://54.235.29.9/FacialAge/BNav_EC2/DepthDuration/v2_depth_duration_MTurk/v2_DepthDuration_HTML.html#6,6,1600,789,1600,900,8-21-2022,9-35-21,57,depth_duration_stimuli/003490_2014-05-21_15-50-11_094959634447_rgbf000101-resize_3/003490_2014-05-21_15-50-11_094959634447_rgbf000101-resize_3-target.png,125,3.6445,0,3268,124,meters,jsons/VE125_randls_7.json,710039,820118,34,Woman
57,858876,DepthScenes,duration_manipulation_targetAtFixation,jsons/VE125_randls_7.json,http://54.235.29.9/FacialAge/BNav_EC2/DepthDuration/v2_depth_duration_MTurk/v2_DepthDuration_HTML.html#6,6,1600,789,1600,900,8-21-2022,9-35-21,58,depth_duration_stimuli/001158_2014-06-17_15-32-16_260595134347_rgbf000138-resize_2/001158_2014-06-17_15-32-16_260595134347_rgbf000138-resize_2-target.png,125,4.5315,2,5767,125,meters,jsons/VE125_randls_7.json,710039,820118,34,Woman
58,858876,DepthScenes,duration_manipulation_targetAtFixation,jsons/VE125_randls_7.json,http://54.235.29.9/FacialAge/BNav_EC2/DepthDuration/v2_depth_duration_MTurk/v2_DepthDuration_HTML.html#6,6,1600,789,1600,900,8-21-2022,9-35-21,59,depth_duration_stimuli/000556_2014-06-09_22-42-56_260595134347_rgbf000214-resize_1/000556_2014-06-09_22-42-56_260595134347_rgbf000214-resize_1-target.png,125,4.8415,5,2890,125,meters,jsons/VE125_randls_7.json,710039,820118,34,Woman
59,858876,DepthScenes,duration_manipulation_targetAtFixation,jsons/VE125_randls_7.json,http://54.235.29.9/FacialAge/BNav_EC2/DepthDuration/v2_depth_duration_MTurk/v2_DepthDuration_HTML.html#6,6,1600,789,1600,900,8-21-2022,9-35-21,60,depth_duration_stimuli/000470_2014-06-09_19-42-40_260595134347_rgbf000094-resize_1/000470_2014-06-09_19-42-40_260595134347_rgbf000094-resize_1-target.png,125,1.831,2,3288,125,meters,jsons/VE125_randls_7.json,710039,820118,34,Woman
60,858876,DepthScenes,duration_manipulation_targetAtFixation,jsons/VE125_randls_7.json,http://54.235.29.9/FacialAge/BNav_EC2/DepthDuration/v2_depth_duration_MTurk/v2_DepthDuration_HTML.html#6,6,1600,789,1600,900,8-21-2022,9-35-21,61,depth_duration_stimuli/000109_2014-05-14_23-41-52_260595134347_rgbf000035-resize_9/000109_2014-05-14_23-41-52_260595134347_rgbf000035-resize_9-target.png,125,1.3545,0,2570,125,meters,jsons/VE125_randls_7.json,710039,820118,34,Woman
61,858876,DepthScenes,duration_manipulation_targetAtFixation,jsons/VE125_randls_7.json,http://54.235.29.9/FacialAge/BNav_EC2/DepthDuration/v2_depth_duration_MTurk/v2_DepthDuration_HTML.html#6,6,1600,789,1600,900,8-21-2022,9-35-21,62,depth_duration_stimuli/000878_2014-06-08_22-52-45_260595134347_rgbf000045-resize_2/000878_2014-06-08_22-52-45_260595134347_rgbf000045-resize_2-target.png,125,2.092,2,3368,125,meters,jsons/VE125_randls_7.json,710039,820118,34,Woman
62,858876,DepthScenes,duration_manipulation_targetAtFixation,jsons/VE125_randls_7.json,http://54.235.29.9/FacialAge/BNav_EC2/DepthDuration/v2_depth_duration_MTurk/v2_DepthDuration_HTML.html#6,6,1600,789,1600,900,8-21-2022,9-35-21,63,depth_duration_stimuli/002953_2014-06-08_17-32-18_094959634447_rgbf000059-resize_5/002953_2014-06-08_17-32-18_094959634447_rgbf000059-resize_5-target.png,125,1.551,0,2674,124,meters,jsons/VE125_randls_7.json,710039,820118,34,Woman
63,858876,DepthScenes,duration_manipulation_targetAtFixation,jsons/VE125_randls_7.json,http://54.235.29.9/FacialAge/BNav_EC2/DepthDuration/v2_depth_duration_MTurk/v2_DepthDuration_HTML.html#6,6,1600,789,1600,900,8-21-2022,9-35-21,64,depth_duration_stimuli/002600_2014-06-24_14-27-04_094959634447_rgbf000074-resize_2/002600_2014-06-24_14-27-04_094959634447_rgbf000074-resize_2-target.png,125,2.7575,2,18602,124,meters,jsons/VE125_randls_7.json,710039,820118,34,Woman
64,858876,DepthScenes,duration_manipulation_targetAtFixation,jsons/VE125_randls_7.json,http://54.235.29.9/FacialAge/BNav_EC2/DepthDuration/v2_depth_duration_MTurk/v2_DepthDuration_HTML.html#6,6,1600,789,1600,900,8-21-2022,9-35-21,65,depth_duration_stimuli/003228_2014-05-14_13-42-35_094959634447_rgbf000101-resize_1/003228_2014-05-14_13-42-35_094959634447_rgbf000101-resize_1-target.png,125,1.9680000000000002,0,3922,125,meters,jsons/VE125_randls_7.json,710039,820118,34,Woman
65,858876,DepthScenes,duration_manipulation_targetAtFixation,jsons/VE125_randls_7.json,http://54.235.29.9/FacialAge/BNav_EC2/DepthDuration/v2_depth_duration_MTurk/v2_DepthDuration_HTML.html#6,6,1600,789,1600,900,8-21-2022,9-35-21,66,depth_duration_stimuli/001222_2014-06-17_16-24-06_260595134347_rgbf000073-resize_0/001222_2014-06-17_16-24-06_260595134347_rgbf000073-resize-original.jpg,125,1.4385,6,4267,125,meters,jsons/VE125_randls_7.json,710039,820118,34,Woman
66,858876,DepthScenes,duration_manipulation_targetAtFixation,jsons/VE125_randls_7.json,http://54.235.29.9/FacialAge/BNav_EC2/DepthDuration/v2_depth_duration_MTurk/v2_DepthDuration_HTML.html#6,6,1600,789,1600,900,8-21-2022,9-35-21,67,depth_duration_stimuli/002988_2014-06-15_12-24-20_094959634447_rgbf000150-resize_1/002988_2014-06-15_12-24-20_094959634447_rgbf000150-resize_1-target.png,125,4.7669999999999995,3,3209,125,meters,jsons/VE125_randls_7.json,710039,820118,34,Woman
67,858876,DepthScenes,duration_manipulation_targetAtFixation,jsons/VE125_randls_7.json,http://54.235.29.9/FacialAge/BNav_EC2/DepthDuration/v2_depth_duration_MTurk/v2_DepthDuration_HTML.html#6,6,1600,789,1600,900,8-21-2022,9-35-21,68,depth_duration_stimuli/001052_2014-06-08_18-24-54_260595134347_rgbf000130-resize_1/001052_2014-06-08_18-24-54_260595134347_rgbf000130-resize_1-target.png,125,4.1045,3,2448,125,meters,jsons/VE125_randls_7.json,710039,820118,34,Woman
68,858876,DepthScenes,duration_manipulation_targetAtFixation,jsons/VE125_randls_7.json,http://54.235.29.9/FacialAge/BNav_EC2/DepthDuration/v2_depth_duration_MTurk/v2_DepthDuration_HTML.html#6,6,1600,789,1600,900,8-21-2022,9-35-21,69,depth_duration_stimuli/000906_2014-06-08_13-35-43_260595134347_rgbf000155-resize_1/000906_2014-06-08_13-35-43_260595134347_rgbf000155-resize_1-target.png,125,2.8489999999999998,3,2857,124,meters,jsons/VE125_randls_7.json,710039,820118,34,Woman
69,858876,DepthScenes,duration_manipulation_targetAtFixation,jsons/VE125_randls_7.json,http://54.235.29.9/FacialAge/BNav_EC2/DepthDuration/v2_depth_duration_MTurk/v2_DepthDuration_HTML.html#6,6,1600,789,1600,900,8-21-2022,9-35-21,70,depth_duration_stimuli/002805_2014-06-22_19-54-03_094959634447_rgbf000079-resize_1/002805_2014-06-22_19-54-03_094959634447_rgbf000079-resize_1-target.png,125,3.1439999999999997,1,3396,126,meters,jsons/VE125_randls_7.json,710039,820118,34,Woman
70,858876,DepthScenes,duration_manipulation_targetAtFixation,jsons/VE125_randls_7.json,http://54.235.29.9/FacialAge/BNav_EC2/DepthDuration/v2_depth_duration_MTurk/v2_DepthDuration_HTML.html#6,6,1600,789,1600,900,8-21-2022,9-35-21,71,depth_duration_stimuli/002989_2014-06-15_12-25-03_094959634447_rgbf000150-resize_3/002989_2014-06-15_12-25-03_094959634447_rgbf000150-resize_3-target.png,125,4.1975,3,2889,124,meters,jsons/VE125_randls_7.json,710039,820118,34,Woman
71,858876,DepthScenes,duration_manipulation_targetAtFixation,jsons/VE125_randls_7.json,http://54.235.29.9/FacialAge/BNav_EC2/DepthDuration/v2_depth_duration_MTurk/v2_DepthDuration_HTML.html#6,6,1600,789,1600,900,8-21-2022,9-35-21,72,depth_duration_stimuli/000866_2014-06-09_20-45-42_260595134347_rgbf000139-resize_1/000866_2014-06-09_20-45-42_260595134347_rgbf000139-resize_1-target.png,125,3.2155,0,3482,125,meters,jsons/VE125_randls_7.json,710039,820118,34,Woman
72,858876,DepthScenes,duration_manipulation_targetAtFixation,jsons/VE125_randls_7.json,http://54.235.29.9/FacialAge/BNav_EC2/DepthDuration/v2_depth_duration_MTurk/v2_DepthDuration_HTML.html#6,6,1600,789,1600,900,8-21-2022,9-35-21,73,depth_duration_stimuli/002279_2014-06-28_18-55-32_260595134347_rgbf000040-resize_5/002279_2014-06-28_18-55-32_260595134347_rgbf000040-resize_5-target.png,125,1.5043333333333,3,3778,126,meters,jsons/VE125_randls_7.json,710039,820118,34,Woman
73,858876,DepthScenes,duration_manipulation_targetAtFixation,jsons/VE125_randls_7.json,http://54.235.29.9/FacialAge/BNav_EC2/DepthDuration/v2_depth_duration_MTurk/v2_DepthDuration_HTML.html#6,6,1600,789,1600,900,8-21-2022,9-35-21,74,depth_duration_stimuli/000635_2014-06-08_16-38-42_260595134347_rgbf000106-resize_1/000635_2014-06-08_16-38-42_260595134347_rgbf000106-resize_1-target.png,125,2.074,0,22506,124,meters,jsons/VE125_randls_7.json,710039,820118,34,Woman
74,858876,DepthScenes,duration_manipulation_targetAtFixation,jsons/VE125_randls_7.json,http://54.235.29.9/FacialAge/BNav_EC2/DepthDuration/v2_depth_duration_MTurk/v2_DepthDuration_HTML.html#6,6,1600,789,1600,900,8-21-2022,9-35-21,75,depth_duration_stimuli/000736_2014-06-08_18-24-15_260595134347_rgbf000206-resize_3/000736_2014-06-08_18-24-15_260595134347_rgbf000206-resize_3-target.png,125,3.515,0,3545,124,meters,jsons/VE125_randls_7.json,710039,820118,34,Woman
75,858876,DepthScenes,duration_manipulation_targetAtFixation,jsons/VE125_randls_7.json,http://54.235.29.9/FacialAge/BNav_EC2/DepthDuration/v2_depth_duration_MTurk/v2_DepthDuration_HTML.html#6,6,1600,789,1600,900,8-21-2022,9-35-21,76,depth_duration_stimuli/000137_2014-05-20_17-04-49_260595134347_rgbf000120-resize_1/000137_2014-05-20_17-04-49_260595134347_rgbf000120-resize_1-target.png,125,3.786,0,2239,125,meters,jsons/VE125_randls_7.json,710039,820118,34,Woman
76,858876,DepthScenes,duration_manipulation_targetAtFixation,jsons/VE125_randls_7.json,http://54.235.29.9/FacialAge/BNav_EC2/DepthDuration/v2_depth_duration_MTurk/v2_DepthDuration_HTML.html#6,6,1600,789,1600,900,8-21-2022,9-35-21,77,depth_duration_stimuli/000486_2014-06-09_20-47-20_260595134347_rgbf000143-resize_2/000486_2014-06-09_20-47-20_260595134347_rgbf000143-resize_2-target.png,125,4.8325,1,2476,126,meters,jsons/VE125_randls_7.json,710039,820118,34,Woman
77,858876,DepthScenes,duration_manipulation_targetAtFixation,jsons/VE125_randls_7.json,http://54.235.29.9/FacialAge/BNav_EC2/DepthDuration/v2_depth_duration_MTurk/v2_DepthDuration_HTML.html#6,6,1600,789,1600,900,8-21-2022,9-35-21,78,depth_duration_stimuli/003083_2014-06-15_15-21-03_094959634447_rgbf000063-resize_1/003083_2014-06-15_15-21-03_094959634447_rgbf000063-resize_1-target.png,125,4.1405,0,2129,125,meters,jsons/VE125_randls_7.json,710039,820118,34,Woman
78,858876,DepthScenes,duration_manipulation_targetAtFixation,jsons/VE125_randls_7.json,http://54.235.29.9/FacialAge/BNav_EC2/DepthDuration/v2_depth_duration_MTurk/v2_DepthDuration_HTML.html#6,6,1600,789,1600,900,8-21-2022,9-35-21,79,depth_duration_stimuli/002763_2014-06-22_19-13-10_094959634447_rgbf000075-resize_4/002763_2014-06-22_19-13-10_094959634447_rgbf000075-resize_4-target.png,125,1.68375,0,2712,125,meters,jsons/VE125_randls_7.json,710039,820118,34,Woman
79,858876,DepthScenes,duration_manipulation_targetAtFixation,jsons/VE125_randls_7.json,http://54.235.29.9/FacialAge/BNav_EC2/DepthDuration/v2_depth_duration_MTurk/v2_DepthDuration_HTML.html#6,6,1600,789,1600,900,8-21-2022,9-35-21,80,depth_duration_stimuli/002209_2014-06-28_18-36-10_260595134347_rgbf000051-resize_1/002209_2014-06-28_18-36-10_260595134347_rgbf000051-resize_1-target.png,125,2.057,0,2179,124,meters,jsons/VE125_randls_7.json,710039,820118,34,Woman
80,858876,DepthScenes,duration_manipulation_targetAtFixation,jsons/VE125_randls_7.json,http://54.235.29.9/FacialAge/BNav_EC2/DepthDuration/v2_depth_duration_MTurk/v2_DepthDuration_HTML.html#6,6,1600,789,1600,900,8-21-2022,9-35-21,81,depth_duration_stimuli/002549_2014-06-24_13-41-39_094959634447_rgbf000022-resize_3/002549_2014-06-24_13-41-39_094959634447_rgbf000022-resize_3-target.png,125,1.476,2,3696,122,meters,jsons/VE125_randls_7.json,710039,820118,34,Woman
81,858876,DepthScenes,duration_manipulation_targetAtFixation,jsons/VE125_randls_7.json,http://54.235.29.9/FacialAge/BNav_EC2/DepthDuration/v2_depth_duration_MTurk/v2_DepthDuration_HTML.html#6,6,1600,789,1600,900,8-21-2022,9-35-21,82,depth_duration_stimuli/002750_2014-06-22_19-08-03_094959634447_rgbf000094-resize_4/002750_2014-06-22_19-08-03_094959634447_rgbf000094-resize_4-target.png,125,2.354,2,2033,125,meters,jsons/VE125_randls_7.json,710039,820118,34,Woman
82,858876,DepthScenes,duration_manipulation_targetAtFixation,jsons/VE125_randls_7.json,http://54.235.29.9/FacialAge/BNav_EC2/DepthDuration/v2_depth_duration_MTurk/v2_DepthDuration_HTML.html#6,6,1600,789,1600,900,8-21-2022,9-35-21,83,depth_duration_stimuli/002153_2014-06-25_21-27-18_260595134347_rgbf000038-resize_5/002153_2014-06-25_21-27-18_260595134347_rgbf000038-resize_5-target.png,125,2.505,1,2635,124,meters,jsons/VE125_randls_7.json,710039,820118,34,Woman
83,858876,DepthScenes,duration_manipulation_targetAtFixation,jsons/VE125_randls_7.json,http://54.235.29.9/FacialAge/BNav_EC2/DepthDuration/v2_depth_duration_MTurk/v2_DepthDuration_HTML.html#6,6,1600,789,1600,900,8-21-2022,9-35-21,84,depth_duration_stimuli/002660_2014-06-13_15-44-18_094959634447_rgbf001878-resize_2/002660_2014-06-13_15-44-18_094959634447_rgbf001878-resize_2-target.png,125,3.576,1,1936,124,meters,jsons/VE125_randls_7.json,710039,820118,34,Woman
84,858876,DepthScenes,duration_manipulation_targetAtFixation,jsons/VE125_randls_7.json,http://54.235.29.9/FacialAge/BNav_EC2/DepthDuration/v2_depth_duration_MTurk/v2_DepthDuration_HTML.html#6,6,1600,789,1600,900,8-21-2022,9-35-21,85,depth_duration_stimuli/003492_2014-05-21_15-50-55_094959634447_rgbf000828-resize_1/003492_2014-05-21_15-50-55_094959634447_rgbf000828-resize_1-target.png,125,4.06875,1,2354,124,meters,jsons/VE125_randls_7.json,710039,820118,34,Woman
85,858876,DepthScenes,duration_manipulation_targetAtFixation,jsons/VE125_randls_7.json,http://54.235.29.9/FacialAge/BNav_EC2/DepthDuration/v2_depth_duration_MTurk/v2_DepthDuration_HTML.html#6,6,1600,789,1600,900,8-21-2022,9-35-21,86,depth_duration_stimuli/002568_2014-06-24_13-59-21_094959634447_rgbf000062-resize_4/002568_2014-06-24_13-59-21_094959634447_rgbf000062-resize_4-target.png,125,3.015,1,1795,124,meters,jsons/VE125_randls_7.json,710039,820118,34,Woman
86,858876,DepthScenes,duration_manipulation_targetAtFixation,jsons/VE125_randls_7.json,http://54.235.29.9/FacialAge/BNav_EC2/DepthDuration/v2_depth_duration_MTurk/v2_DepthDuration_HTML.html#6,6,1600,789,1600,900,8-21-2022,9-35-21,87,depth_duration_stimuli/000929_2014-06-09_16-33-19_260595134347_rgbf000139-resize_0/000929_2014-06-09_16-33-19_260595134347_rgbf000139-resize_0-target.png,125,2.8680000000000003,0,2793,125,meters,jsons/VE125_randls_7.json,710039,820118,34,Woman
87,858876,DepthScenes,duration_manipulation_targetAtFixation,jsons/VE125_randls_7.json,http://54.235.29.9/FacialAge/BNav_EC2/DepthDuration/v2_depth_duration_MTurk/v2_DepthDuration_HTML.html#6,6,1600,789,1600,900,8-21-2022,9-35-21,88,depth_duration_stimuli/000457_2014-06-08_16-52-43_260595134347_rgbf000199-resize_1/000457_2014-06-08_16-52-43_260595134347_rgbf000199-resize_1-target.png,125,3.6489999999999996,1,1913,125,meters,jsons/VE125_randls_7.json,710039,820118,34,Woman
88,858876,DepthScenes,duration_manipulation_targetAtFixation,jsons/VE125_randls_7.json,http://54.235.29.9/FacialAge/BNav_EC2/DepthDuration/v2_depth_duration_MTurk/v2_DepthDuration_HTML.html#6,6,1600,789,1600,900,8-21-2022,9-35-21,89,depth_duration_stimuli/002630_2014-06-24_14-47-50_094959634447_rgbf000055-resize_1/002630_2014-06-24_14-47-50_094959634447_rgbf000055-resize_1-target.png,125,3.0095,4,2955,125,meters,jsons/VE125_randls_7.json,710039,820118,34,Woman
89,858876,DepthScenes,duration_manipulation_targetAtFixation,jsons/VE125_randls_7.json,http://54.235.29.9/FacialAge/BNav_EC2/DepthDuration/v2_depth_duration_MTurk/v2_DepthDuration_HTML.html#6,6,1600,789,1600,900,8-21-2022,9-35-21,90,depth_duration_stimuli/002758_2014-06-22_19-11-20_094959634447_rgbf000128-resize_1/002758_2014-06-22_19-11-20_094959634447_rgbf000128-resize_1-target.png,125,2.555,2,1920,124,meters,jsons/VE125_randls_7.json,710039,820118,34,Woman
90,858876,DepthScenes,duration_manipulation_targetAtFixation,jsons/VE125_randls_7.json,http://54.235.29.9/FacialAge/BNav_EC2/DepthDuration/v2_depth_duration_MTurk/v2_DepthDuration_HTML.html#6,6,1600,789,1600,900,8-21-2022,9-35-21,91,depth_duration_stimuli/000810_2014-06-08_17-20-01_260595134347_rgbf000105-resize_0/000810_2014-06-08_17-20-01_260595134347_rgbf000105-resize_0-target.png,125,1.4865,2,2324,124,meters,jsons/VE125_randls_7.json,710039,820118,34,Woman
91,858876,DepthScenes,duration_manipulation_targetAtFixation,jsons/VE125_randls_7.json,http://54.235.29.9/FacialAge/BNav_EC2/DepthDuration/v2_depth_duration_MTurk/v2_DepthDuration_HTML.html#6,6,1600,789,1600,900,8-21-2022,9-35-21,92,depth_duration_stimuli/001214_2014-06-17_16-13-55_260595134347_rgbf000111-resize_0/001214_2014-06-17_16-13-55_260595134347_rgbf000111-resize_0-target.png,125,2.6505,1,4275,124,meters,jsons/VE125_randls_7.json,710039,820118,34,Woman
92,858876,DepthScenes,duration_manipulation_targetAtFixation,jsons/VE125_randls_7.json,http://54.235.29.9/FacialAge/BNav_EC2/DepthDuration/v2_depth_duration_MTurk/v2_DepthDuration_HTML.html#6,6,1600,789,1600,900,8-21-2022,9-35-21,93,depth_duration_stimuli/001133_2014-06-17_14-49-16_260595134347_rgbf000100-resize_0/001133_2014-06-17_14-49-16_260595134347_rgbf000100-resize_0-target.png,125,4.2115,1,2256,125,meters,jsons/VE125_randls_7.json,710039,820118,34,Woman
93,858876,DepthScenes,duration_manipulation_targetAtFixation,jsons/VE125_randls_7.json,http://54.235.29.9/FacialAge/BNav_EC2/DepthDuration/v2_depth_duration_MTurk/v2_DepthDuration_HTML.html#6,6,1600,789,1600,900,8-21-2022,9-35-21,94,depth_duration_stimuli/001132_2014-06-17_14-48-54_260595134347_rgbf000100-resize_2/001132_2014-06-17_14-48-54_260595134347_rgbf000100-resize_2-target.png,125,3.753,0,2409,124,meters,jsons/VE125_randls_7.json,710039,820118,34,Woman
94,858876,DepthScenes,duration_manipulation_targetAtFixation,jsons/VE125_randls_7.json,http://54.235.29.9/FacialAge/BNav_EC2/DepthDuration/v2_depth_duration_MTurk/v2_DepthDuration_HTML.html#6,6,1600,789,1600,900,8-21-2022,9-35-21,95,depth_duration_stimuli/000414_2014-06-04_19-49-13_260595134347_rgbf000044-resize_0/000414_2014-06-04_19-49-13_260595134347_rgbf000044-resize_0-target.png,125,4.329,4,2547,125,meters,jsons/VE125_randls_7.json,710039,820118,34,Woman
95,858876,DepthScenes,duration_manipulation_targetAtFixation,jsons/VE125_randls_7.json,http://54.235.29.9/FacialAge/BNav_EC2/DepthDuration/v2_depth_duration_MTurk/v2_DepthDuration_HTML.html#6,6,1600,789,1600,900,8-21-2022,9-35-21,96,depth_duration_stimuli/003129_2014-05-12_10-48-10_094959634447_rgbf000100-resize_0/003129_2014-05-12_10-48-10_094959634447_rgbf000100-resize_0-target.png,125,4.9305,0,2418,125,meters,jsons/VE125_randls_7.json,710039,820118,34,Woman
96,858876,DepthScenes,duration_manipulation_targetAtFixation,jsons/VE125_randls_7.json,http://54.235.29.9/FacialAge/BNav_EC2/DepthDuration/v2_depth_duration_MTurk/v2_DepthDuration_HTML.html#6,6,1600,789,1600,900,8-21-2022,9-35-21,97,depth_duration_stimuli/001016_2014-06-09_16-16-10_260595134347_rgbf000112-resize_5/001016_2014-06-09_16-16-10_260595134347_rgbf000112-resize_5-target.png,125,1.6565,0,2617,125,meters,jsons/VE125_randls_7.json,710039,820118,34,Woman
97,858876,DepthScenes,duration_manipulation_targetAtFixation,jsons/VE125_randls_7.json,http://54.235.29.9/FacialAge/BNav_EC2/DepthDuration/v2_depth_duration_MTurk/v2_DepthDuration_HTML.html#6,6,1600,789,1600,900,8-21-2022,9-35-21,98,depth_duration_stimuli/002340_2014-06-28_20-05-46_260595134347_rgbf000113-resize_0/002340_2014-06-28_20-05-46_260595134347_rgbf000113-resize_0-target.png,125,2.4735,1,1865,125,meters,jsons/VE125_randls_7.json,710039,820118,34,Woman
98,858876,DepthScenes,duration_manipulation_targetAtFixation,jsons/VE125_randls_7.json,http://54.235.29.9/FacialAge/BNav_EC2/DepthDuration/v2_depth_duration_MTurk/v2_DepthDuration_HTML.html#6,6,1600,789,1600,900,8-21-2022,9-35-21,99,depth_duration_stimuli/001540_2014-06-20_17-01-05_260595134347_rgbf000086-resize_2/001540_2014-06-20_17-01-05_260595134347_rgbf000086-resize-original.jpg,125,1.459,1,2258,125,meters,jsons/VE125_randls_7.json,710039,820118,34,Woman
99,858876,DepthScenes,duration_manipulation_targetAtFixation,jsons/VE125_randls_7.json,http://54.235.29.9/FacialAge/BNav_EC2/DepthDuration/v2_depth_duration_MTurk/v2_DepthDuration_HTML.html#6,6,1600,789,1600,900,8-21-2022,9-35-21,100,depth_duration_stimuli/002964_2014-06-08_17-46-11_094959634447_rgbf000091-resize_4/002964_2014-06-08_17-46-11_094959634447_rgbf000091-resize_4-target.png,125,1.6909999999999998,1,2514,125,meters,jsons/VE125_randls_7.json,710039,820118,34,Woman
100,858876,DepthScenes,duration_manipulation_targetAtFixation,jsons/VE125_randls_7.json,http://54.235.29.9/FacialAge/BNav_EC2/DepthDuration/v2_depth_duration_MTurk/v2_DepthDuration_HTML.html#6,6,1600,789,1600,900,8-21-2022,9-35-21,101,depth_duration_stimuli/002136_2014-06-25_21-18-03_260595134347_rgbf000109-resize_3/002136_2014-06-25_21-18-03_260595134347_rgbf000109-resize_3-target.png,125,1.9569999999999999,0,3561,124,meters,jsons/VE125_randls_7.json,710039,820118,34,Woman
101,858876,DepthScenes,duration_manipulation_targetAtFixation,jsons/VE125_randls_7.json,http://54.235.29.9/FacialAge/BNav_EC2/DepthDuration/v2_depth_duration_MTurk/v2_DepthDuration_HTML.html#6,6,1600,789,1600,900,8-21-2022,9-35-21,102,depth_duration_stimuli/003621_2014-05-23_18-06-08_094959634447_rgbf000101-resize_1/003621_2014-05-23_18-06-08_094959634447_rgbf000101-resize_1-target.png,125,3.9835,3,3578,124,meters,jsons/VE125_randls_7.json,710039,820118,34,Woman
102,858876,DepthScenes,duration_manipulation_targetAtFixation,jsons/VE125_randls_7.json,http://54.235.29.9/FacialAge/BNav_EC2/DepthDuration/v2_depth_duration_MTurk/v2_DepthDuration_HTML.html#6,6,1600,789,1600,900,8-21-2022,9-35-21,103,depth_duration_stimuli/001584_2014-06-20_11-07-43_260595134347_rgbf000002-resize_1/001584_2014-06-20_11-07-43_260595134347_rgbf000002-resize_1-target.png,125,3.53,3,1961,126,meters,jsons/VE125_randls_7.json,710039,820118,34,Woman
103,858876,DepthScenes,duration_manipulation_targetAtFixation,jsons/VE125_randls_7.json,http://54.235.29.9/FacialAge/BNav_EC2/DepthDuration/v2_depth_duration_MTurk/v2_DepthDuration_HTML.html#6,6,1600,789,1600,900,8-21-2022,9-35-21,104,depth_duration_stimuli/002788_2014-06-22_19-36-03_094959634447_rgbf000088-resize_2/002788_2014-06-22_19-36-03_094959634447_rgbf000088-resize_2-target.png,125,1.6465,1,2826,125,meters,jsons/VE125_randls_7.json,710039,820118,34,Woman
104,858876,DepthScenes,duration_manipulation_targetAtFixation,jsons/VE125_randls_7.json,http://54.235.29.9/FacialAge/BNav_EC2/DepthDuration/v2_depth_duration_MTurk/v2_DepthDuration_HTML.html#6,6,1600,789,1600,900,8-21-2022,9-35-21,105,depth_duration_stimuli/000749_2014-06-08_21-55-06_260595134347_rgbf000070-resize_2/000749_2014-06-08_21-55-06_260595134347_rgbf000070-resize_2-target.png,125,2.331,0,2426,124,meters,jsons/VE125_randls_7.json,710039,820118,34,Woman
105,858876,DepthScenes,duration_manipulation_targetAtFixation,jsons/VE125_randls_7.json,http://54.235.29.9/FacialAge/BNav_EC2/DepthDuration/v2_depth_duration_MTurk/v2_DepthDuration_HTML.html#6,6,1600,789,1600,900,8-21-2022,9-35-21,106,depth_duration_stimuli/001167_2014-06-17_15-38-07_260595134347_rgbf000108-resize_0/001167_2014-06-17_15-38-07_260595134347_rgbf000108-resize_0-target.png,125,1.8505,1,2609,125,meters,jsons/VE125_randls_7.json,710039,820118,34,Woman
106,858876,DepthScenes,duration_manipulation_targetAtFixation,jsons/VE125_randls_7.json,http://54.235.29.9/FacialAge/BNav_EC2/DepthDuration/v2_depth_duration_MTurk/v2_DepthDuration_HTML.html#6,6,1600,789,1600,900,8-21-2022,9-35-21,107,depth_duration_stimuli/003587_2014-05-23_16-48-02_094959634447_rgbf002384-resize_2/003587_2014-05-23_16-48-02_094959634447_rgbf002384-resize_2-target.png,125,1.357,1,1858,125,meters,jsons/VE125_randls_7.json,710039,820118,34,Woman
107,858876,DepthScenes,duration_manipulation_targetAtFixation,jsons/VE125_randls_7.json,http://54.235.29.9/FacialAge/BNav_EC2/DepthDuration/v2_depth_duration_MTurk/v2_DepthDuration_HTML.html#6,6,1600,789,1600,900,8-21-2022,9-35-21,108,depth_duration_stimuli/000788_2014-06-08_22-34-36_260595134347_rgbf000131-resize_1/000788_2014-06-08_22-34-36_260595134347_rgbf000131-resize_1-target.png,125,3.359,1,2594,125,meters,jsons/VE125_randls_7.json,710039,820118,34,Woman
108,858876,DepthScenes,duration_manipulation_targetAtFixation,jsons/VE125_randls_7.json,http://54.235.29.9/FacialAge/BNav_EC2/DepthDuration/v2_depth_duration_MTurk/v2_DepthDuration_HTML.html#6,6,1600,789,1600,900,8-21-2022,9-35-21,109,depth_duration_stimuli/001235_2014-06-17_16-37-36_260595134347_rgbf000084-resize_4/001235_2014-06-17_16-37-36_260595134347_rgbf000084-resize_4-target.png,125,3.6605,1,2409,125,meters,jsons/VE125_randls_7.json,710039,820118,34,Woman
109,858876,DepthScenes,duration_manipulation_targetAtFixation,jsons/VE125_randls_7.json,http://54.235.29.9/FacialAge/BNav_EC2/DepthDuration/v2_depth_duration_MTurk/v2_DepthDuration_HTML.html#6,6,1600,789,1600,900,8-21-2022,9-35-21,110,depth_duration_stimuli/002039_2014-06-24_20-22-38_260595134347_rgbf000084-resize_1/002039_2014-06-24_20-22-38_260595134347_rgbf000084-resize_1-target.png,125,4.408,1,2348,125,meters,jsons/VE125_randls_7.json,710039,820118,34,Woman
110,858876,DepthScenes,duration_manipulation_targetAtFixation,jsons/VE125_randls_7.json,http://54.235.29.9/FacialAge/BNav_EC2/DepthDuration/v2_depth_duration_MTurk/v2_DepthDuration_HTML.html#6,6,1600,789,1600,900,8-21-2022,9-35-21,111,depth_duration_stimuli/002103_2014-06-25_20-00-40_260595134347_rgbf000049-resize_0/002103_2014-06-25_20-00-40_260595134347_rgbf000049-resize_0-target.png,125,4.105,1,1946,125,meters,jsons/VE125_randls_7.json,710039,820118,34,Woman
111,858876,DepthScenes,duration_manipulation_targetAtFixation,jsons/VE125_randls_7.json,http://54.235.29.9/FacialAge/BNav_EC2/DepthDuration/v2_depth_duration_MTurk/v2_DepthDuration_HTML.html#6,6,1600,789,1600,900,8-21-2022,9-35-21,112,depth_duration_stimuli/001011_2014-06-08_23-18-54_260595134347_rgbf000044-resize_4/001011_2014-06-08_23-18-54_260595134347_rgbf000044-resize_4-target.png,125,2.4730000000000003,1,2298,125,meters,jsons/VE125_randls_7.json,710039,820118,34,Woman
112,858876,DepthScenes,duration_manipulation_targetAtFixation,jsons/VE125_randls_7.json,http://54.235.29.9/FacialAge/BNav_EC2/DepthDuration/v2_depth_duration_MTurk/v2_DepthDuration_HTML.html#6,6,1600,789,1600,900,8-21-2022,9-35-21,113,depth_duration_stimuli/002875_2014-06-01_15-19-00_094959634447_rgbf000151-resize_1/002875_2014-06-01_15-19-00_094959634447_rgbf000151-resize_1-target.png,125,1.9675,1,1898,125,meters,jsons/VE125_randls_7.json,710039,820118,34,Woman
113,858876,DepthScenes,duration_manipulation_targetAtFixation,jsons/VE125_randls_7.json,http://54.235.29.9/FacialAge/BNav_EC2/DepthDuration/v2_depth_duration_MTurk/v2_DepthDuration_HTML.html#6,6,1600,789,1600,900,8-21-2022,9-35-21,114,depth_duration_stimuli/001449_2014-06-19_17-01-27_260595134347_rgbf000116-resize_2/001449_2014-06-19_17-01-27_260595134347_rgbf000116-resize_2-target.png,125,3.452,1,2257,125,meters,jsons/VE125_randls_7.json,710039,820118,34,Woman
114,858876,DepthScenes,duration_manipulation_targetAtFixation,jsons/VE125_randls_7.json,http://54.235.29.9/FacialAge/BNav_EC2/DepthDuration/v2_depth_duration_MTurk/v2_DepthDuration_HTML.html#6,6,1600,789,1600,900,8-21-2022,9-35-21,115,depth_duration_stimuli/001450_2014-06-19_17-02-03_260595134347_rgbf000203-resize_4/001450_2014-06-19_17-02-03_260595134347_rgbf000203-resize_4-target.png,125,4.0106666666667,1,31448,125,meters,jsons/VE125_randls_7.json,710039,820118,34,Woman
115,858876,DepthScenes,duration_manipulation_targetAtFixation,jsons/VE125_randls_7.json,http://54.235.29.9/FacialAge/BNav_EC2/DepthDuration/v2_depth_duration_MTurk/v2_DepthDuration_HTML.html#6,6,1600,789,1600,900,8-21-2022,9-35-21,116,depth_duration_stimuli/001170_2014-06-17_15-43-44_260595134347_rgbf000096-resize_6/001170_2014-06-17_15-43-44_260595134347_rgbf000096-resize-original.jpg,125,1.1909999999999998,1,7989,120,meters,jsons/VE125_randls_7.json,710039,820118,34,Woman
116,858876,DepthScenes,duration_manipulation_targetAtFixation,jsons/VE125_randls_7.json,http://54.235.29.9/FacialAge/BNav_EC2/DepthDuration/v2_depth_duration_MTurk/v2_DepthDuration_HTML.html#6,6,1600,789,1600,900,8-21-2022,9-35-21,117,depth_duration_stimuli/001055_2014-06-08_18-45-35_260595134347_rgbf000111-resize_4/001055_2014-06-08_18-45-35_260595134347_rgbf000111-resize_4-target.png,125,2.4290000000000003,5,4554,124,meters,jsons/VE125_randls_7.json,710039,820118,34,Woman
117,858876,DepthScenes,duration_manipulation_targetAtFixation,jsons/VE125_randls_7.json,http://54.235.29.9/FacialAge/BNav_EC2/DepthDuration/v2_depth_duration_MTurk/v2_DepthDuration_HTML.html#6,6,1600,789,1600,900,8-21-2022,9-35-21,118,depth_duration_stimuli/000549_2014-06-08_22-10-24_260595134347_rgbf000247-resize_3/000549_2014-06-08_22-10-24_260595134347_rgbf000247-resize_3-target.png,125,1.841,2,9394,125,meters,jsons/VE125_randls_7.json,710039,820118,34,Woman
118,858876,DepthScenes,duration_manipulation_targetAtFixation,jsons/VE125_randls_7.json,http://54.235.29.9/FacialAge/BNav_EC2/DepthDuration/v2_depth_duration_MTurk/v2_DepthDuration_HTML.html#6,6,1600,789,1600,900,8-21-2022,9-35-21,119,depth_duration_stimuli/002725_2014-06-22_11-47-51_094959634447_rgbf000070-resize_1/002725_2014-06-22_11-47-51_094959634447_rgbf000070-resize_1-target.png,125,2.195,1,2282,125,meters,jsons/VE125_randls_7.json,710039,820118,34,Woman
119,858876,DepthScenes,duration_manipulation_targetAtFixation,jsons/VE125_randls_7.json,http://54.235.29.9/FacialAge/BNav_EC2/DepthDuration/v2_depth_duration_MTurk/v2_DepthDuration_HTML.html#6,6,1600,789,1600,900,8-21-2022,9-35-21,120,depth_duration_stimuli/002344_2014-06-28_20-06-29_260595134347_rgbf000030-resize_1/002344_2014-06-28_20-06-29_260595134347_rgbf000030-resize_1-target.png,125,1.5795,0,2578,124,meters,jsons/VE125_randls_7.json,710039,820118,34,Woman
120,858876,DepthScenes,duration_manipulation_targetAtFixation,jsons/VE125_randls_7.json,http://54.235.29.9/FacialAge/BNav_EC2/DepthDuration/v2_depth_duration_MTurk/v2_DepthDuration_HTML.html#6,6,1600,789,1600,900,8-21-2022,9-35-21,121,depth_duration_stimuli/000682_2014-06-08_23-14-58_260595134347_rgbf000041-resize_5/000682_2014-06-08_23-14-58_260595134347_rgbf000041-resize_5-target.png,125,2.7239999999999998,3,2545,125,meters,jsons/VE125_randls_7.json,710039,820118,34,Woman
121,858876,DepthScenes,duration_manipulation_targetAtFixation,jsons/VE125_randls_7.json,http://54.235.29.9/FacialAge/BNav_EC2/DepthDuration/v2_depth_duration_MTurk/v2_DepthDuration_HTML.html#6,6,1600,789,1600,900,8-21-2022,9-35-21,122,depth_duration_stimuli/001650_2014-06-20_12-09-00_260595134347_rgbf000087-resize_3/001650_2014-06-20_12-09-00_260595134347_rgbf000087-resize_3-target.png,125,1.9505,0,2418,124,meters,jsons/VE125_randls_7.json,710039,820118,34,Woman
122,858876,DepthScenes,duration_manipulation_targetAtFixation,jsons/VE125_randls_7.json,http://54.235.29.9/FacialAge/BNav_EC2/DepthDuration/v2_depth_duration_MTurk/v2_DepthDuration_HTML.html#6,6,1600,789,1600,900,8-21-2022,9-35-21,123,depth_duration_stimuli/002057_2014-06-24_21-00-13_260595134347_rgbf000120-resize_1/002057_2014-06-24_21-00-13_260595134347_rgbf000120-resize_1-target.png,125,2.967,2,3538,124,meters,jsons/VE125_randls_7.json,710039,820118,34,Woman
123,858876,DepthScenes,duration_manipulation_targetAtFixation,jsons/VE125_randls_7.json,http://54.235.29.9/FacialAge/BNav_EC2/DepthDuration/v2_depth_duration_MTurk/v2_DepthDuration_HTML.html#6,6,1600,789,1600,900,8-21-2022,9-35-21,124,depth_duration_stimuli/000709_2014-06-08_13-51-55_260595134347_rgbf000068-resize_3/000709_2014-06-08_13-51-55_260595134347_rgbf000068-resize_3-target.png,125,1.8030000000000002,0,2322,125,meters,jsons/VE125_randls_7.json,710039,820118,34,Woman
124,858876,DepthScenes,duration_manipulation_targetAtFixation,jsons/VE125_randls_7.json,http://54.235.29.9/FacialAge/BNav_EC2/DepthDuration/v2_depth_duration_MTurk/v2_DepthDuration_HTML.html#6,6,1600,789,1600,900,8-21-2022,9-35-21,125,depth_duration_stimuli/001164_2014-06-17_15-35-46_260595134347_rgbf000085-resize_3/001164_2014-06-17_15-35-46_260595134347_rgbf000085-resize_3-target.png,125,2.354,2,2929,125,meters,jsons/VE125_randls_7.json,710039,820118,34,Woman
125,858876,DepthScenes,duration_manipulation_targetAtFixation,jsons/VE125_randls_7.json,http://54.235.29.9/FacialAge/BNav_EC2/DepthDuration/v2_depth_duration_MTurk/v2_DepthDuration_HTML.html#6,6,1600,789,1600,900,8-21-2022,9-35-21,126,depth_duration_stimuli/001136_2014-06-17_15-19-41_260595134347_rgbf000076-resize_3/001136_2014-06-17_15-19-41_260595134347_rgbf000076-resize_3-target.png,125,1.8655,2,2042,124,meters,jsons/VE125_randls_7.json,710039,820118,34,Woman
126,858876,DepthScenes,duration_manipulation_targetAtFixation,jsons/VE125_randls_7.json,http://54.235.29.9/FacialAge/BNav_EC2/DepthDuration/v2_depth_duration_MTurk/v2_DepthDuration_HTML.html#6,6,1600,789,1600,900,8-21-2022,9-35-21,127,depth_duration_stimuli/001110_2014-06-15_17-25-28_260595134347_rgbf000150-resize_1/001110_2014-06-15_17-25-28_260595134347_rgbf000150-resize_1-target.png,125,1.7115,1,2545,126,meters,jsons/VE125_randls_7.json,710039,820118,34,Woman
127,858876,DepthScenes,duration_manipulation_targetAtFixation,jsons/VE125_randls_7.json,http://54.235.29.9/FacialAge/BNav_EC2/DepthDuration/v2_depth_duration_MTurk/v2_DepthDuration_HTML.html#6,6,1600,789,1600,900,8-21-2022,9-35-21,128,depth_duration_stimuli/000927_2014-06-09_16-32-30_260595134347_rgbf000123-resize_3/000927_2014-06-09_16-32-30_260595134347_rgbf000123-resize_3-target.png,125,2.6785,3,1802,125,meters,jsons/VE125_randls_7.json,710039,820118,34,Woman
128,858876,DepthScenes,duration_manipulation_targetAtFixation,jsons/VE125_randls_7.json,http://54.235.29.9/FacialAge/BNav_EC2/DepthDuration/v2_depth_duration_MTurk/v2_DepthDuration_HTML.html#6,6,1600,789,1600,900,8-21-2022,9-35-21,129,depth_duration_stimuli/001570_2014-06-20_17-21-09_260595134347_rgbf000135-resize_4/001570_2014-06-20_17-21-09_260595134347_rgbf000135-resize_4-target.png,125,4.467,2,2251,124,meters,jsons/VE125_randls_7.json,710039,820118,34,Woman
129,858876,DepthScenes,duration_manipulation_targetAtFixation,jsons/VE125_randls_7.json,http://54.235.29.9/FacialAge/BNav_EC2/DepthDuration/v2_depth_duration_MTurk/v2_DepthDuration_HTML.html#6,6,1600,789,1600,900,8-21-2022,9-35-21,130,depth_duration_stimuli/001392_2014-06-19_16-07-59_260595134347_rgbf000046-resize_1/001392_2014-06-19_16-07-59_260595134347_rgbf000046-resize_1-target.png,125,4.135,2,1802,124,meters,jsons/VE125_randls_7.json,710039,820118,34,Woman
130,858876,DepthScenes,duration_manipulation_targetAtFixation,jsons/VE125_randls_7.json,http://54.235.29.9/FacialAge/BNav_EC2/DepthDuration/v2_depth_duration_MTurk/v2_DepthDuration_HTML.html#6,6,1600,789,1600,900,8-21-2022,9-35-21,131,depth_duration_stimuli/002663_2014-06-13_15-50-26_094959634447_rgbf000075-resize_1/002663_2014-06-13_15-50-26_094959634447_rgbf000075-resize_1-target.png,125,4.7495,3,2490,124,meters,jsons/VE125_randls_7.json,710039,820118,34,Woman
131,858876,DepthScenes,duration_manipulation_targetAtFixation,jsons/VE125_randls_7.json,http://54.235.29.9/FacialAge/BNav_EC2/DepthDuration/v2_depth_duration_MTurk/v2_DepthDuration_HTML.html#6,6,1600,789,1600,900,8-21-2022,9-35-21,132,depth_duration_stimuli/000409_2014-06-04_19-23-33_260595134347_rgbf000067-resize_0/000409_2014-06-04_19-23-33_260595134347_rgbf000067-resize_0-target.png,125,3.7335,0,2322,125,meters,jsons/VE125_randls_7.json,710039,820118,34,Woman
132,858876,DepthScenes,duration_manipulation_targetAtFixation,jsons/VE125_randls_7.json,http://54.235.29.9/FacialAge/BNav_EC2/DepthDuration/v2_depth_duration_MTurk/v2_DepthDuration_HTML.html#6,6,1600,789,1600,900,8-21-2022,9-35-21,133,depth_duration_stimuli/001066_2014-06-08_22-03-20_260595134347_rgbf000066-resize_4/001066_2014-06-08_22-03-20_260595134347_rgbf000066-resize_4-target.png,125,4.2330000000000005,3,2360,125,meters,jsons/VE125_randls_7.json,710039,820118,34,Woman
133,858876,DepthScenes,duration_manipulation_targetAtFixation,jsons/VE125_randls_7.json,http://54.235.29.9/FacialAge/BNav_EC2/DepthDuration/v2_depth_duration_MTurk/v2_DepthDuration_HTML.html#6,6,1600,789,1600,900,8-21-2022,9-35-21,134,depth_duration_stimuli/000742_2014-06-08_18-48-09_260595134347_rgbf000164-resize_4/000742_2014-06-08_18-48-09_260595134347_rgbf000164-resize_4-target.png,125,4.632,1,2404,125,meters,jsons/VE125_randls_7.json,710039,820118,34,Woman
134,858876,DepthScenes,duration_manipulation_targetAtFixation,jsons/VE125_randls_7.json,http://54.235.29.9/FacialAge/BNav_EC2/DepthDuration/v2_depth_duration_MTurk/v2_DepthDuration_HTML.html#6,6,1600,789,1600,900,8-21-2022,9-35-21,135,depth_duration_stimuli/002072_2014-06-24_21-48-06_260595134347_rgbf000115-resize_0/002072_2014-06-24_21-48-06_260595134347_rgbf000115-resize-original.jpg,125,4.702,0,3553,126,meters,jsons/VE125_randls_7.json,710039,820118,34,Woman
135,858876,DepthScenes,duration_manipulation_targetAtFixation,jsons/VE125_randls_7.json,http://54.235.29.9/FacialAge/BNav_EC2/DepthDuration/v2_depth_duration_MTurk/v2_DepthDuration_HTML.html#6,6,1600,789,1600,900,8-21-2022,9-35-21,136,depth_duration_stimuli/001150_2014-06-17_15-27-34_260595134347_rgbf000108-resize_2/001150_2014-06-17_15-27-34_260595134347_rgbf000108-resize_2-target.png,125,4.0325,1,4009,125,meters,jsons/VE125_randls_7.json,710039,820118,34,Woman
136,858876,DepthScenes,duration_manipulation_targetAtFixation,jsons/VE125_randls_7.json,http://54.235.29.9/FacialAge/BNav_EC2/DepthDuration/v2_depth_duration_MTurk/v2_DepthDuration_HTML.html#6,6,1600,789,1600,900,8-21-2022,9-35-21,137,depth_duration_stimuli/000665_2014-06-09_20-42-35_260595134347_rgbf000110-resize_1/000665_2014-06-09_20-42-35_260595134347_rgbf000110-resize_1-target.png,125,3.057,0,2225,124,meters,jsons/VE125_randls_7.json,710039,820118,34,Woman
137,858876,DepthScenes,duration_manipulation_targetAtFixation,jsons/VE125_randls_7.json,http://54.235.29.9/FacialAge/BNav_EC2/DepthDuration/v2_depth_duration_MTurk/v2_DepthDuration_HTML.html#6,6,1600,789,1600,900,8-21-2022,9-35-21,138,depth_duration_stimuli/000773_2014-06-08_22-24-54_260595134347_rgbf000093-resize_1/000773_2014-06-08_22-24-54_260595134347_rgbf000093-resize_1-target.png,125,4.973,1,2364,124,meters,jsons/VE125_randls_7.json,710039,820118,34,Woman
138,858876,DepthScenes,duration_manipulation_targetAtFixation,jsons/VE125_randls_7.json,http://54.235.29.9/FacialAge/BNav_EC2/DepthDuration/v2_depth_duration_MTurk/v2_DepthDuration_HTML.html#6,6,1600,789,1600,900,8-21-2022,9-35-21,139,depth_duration_stimuli/002414_2014-06-28_20-24-58_260595134347_rgbf000067-resize_4/002414_2014-06-28_20-24-58_260595134347_rgbf000067-resize_4-target.png,125,4.363,0,2313,125,meters,jsons/VE125_randls_7.json,710039,820118,34,Woman
139,858876,DepthScenes,duration_manipulation_targetAtFixation,jsons/VE125_randls_7.json,http://54.235.29.9/FacialAge/BNav_EC2/DepthDuration/v2_depth_duration_MTurk/v2_DepthDuration_HTML.html#6,6,1600,789,1600,900,8-21-2022,9-35-21,140,depth_duration_stimuli/000506_2014-06-08_23-21-00_260595134347_rgbf000070-resize_7/000506_2014-06-08_23-21-00_260595134347_rgbf000070-resize_7-target.png,125,4.0585,4,2266,125,meters,jsons/VE125_randls_7.json,710039,820118,34,Woman
140,858876,DepthScenes,duration_manipulation_targetAtFixation,jsons/VE125_randls_7.json,http://54.235.29.9/FacialAge/BNav_EC2/DepthDuration/v2_depth_duration_MTurk/v2_DepthDuration_HTML.html#6,6,1600,789,1600,900,8-21-2022,9-35-21,141,depth_duration_stimuli/003079_2014-06-15_15-18-20_094959634447_rgbf000152-resize_8/003079_2014-06-15_15-18-20_094959634447_rgbf000152-resize_8-target.png,125,2.8775,4,2233,124,meters,jsons/VE125_randls_7.json,710039,820118,34,Woman
141,858876,DepthScenes,duration_manipulation_targetAtFixation,jsons/VE125_randls_7.json,http://54.235.29.9/FacialAge/BNav_EC2/DepthDuration/v2_depth_duration_MTurk/v2_DepthDuration_HTML.html#6,6,1600,789,1600,900,8-21-2022,9-35-21,142,depth_duration_stimuli/001555_2014-06-20_17-12-10_260595134347_rgbf000065-resize_4/001555_2014-06-20_17-12-10_260595134347_rgbf000065-resize_4-target.png,125,1.633,4,2482,125,meters,jsons/VE125_randls_7.json,710039,820118,34,Woman
142,858876,DepthScenes,duration_manipulation_targetAtFixation,jsons/VE125_randls_7.json,http://54.235.29.9/FacialAge/BNav_EC2/DepthDuration/v2_depth_duration_MTurk/v2_DepthDuration_HTML.html#6,6,1600,789,1600,900,8-21-2022,9-35-21,143,depth_duration_stimuli/000103_2014-05-14_22-01-17_260595134347_rgbf000152-resize_5/000103_2014-05-14_22-01-17_260595134347_rgbf000152-resize_5-target.png,125,1.993,0,2194,124,meters,jsons/VE125_randls_7.json,710039,820118,34,Woman
143,858876,DepthScenes,duration_manipulation_targetAtFixation,jsons/VE125_randls_7.json,http://54.235.29.9/FacialAge/BNav_EC2/DepthDuration/v2_depth_duration_MTurk/v2_DepthDuration_HTML.html#6,6,1600,789,1600,900,8-21-2022,9-35-21,144,depth_duration_stimuli/002509_2014-06-24_13-19-22_094959634447_rgbf000077-resize_0/002509_2014-06-24_13-19-22_094959634447_rgbf000077-resize_0-target.png,125,1.3065,2,2474,124,meters,jsons/VE125_randls_7.json,710039,820118,34,Woman
144,858876,DepthScenes,duration_manipulation_targetAtFixation,jsons/VE125_randls_7.json,http://54.235.29.9/FacialAge/BNav_EC2/DepthDuration/v2_depth_duration_MTurk/v2_DepthDuration_HTML.html#6,6,1600,789,1600,900,8-21-2022,9-35-21,145,depth_duration_stimuli/003338_2014-05-20_11-01-23_094959634447_rgbf000051-resize_6/003338_2014-05-20_11-01-23_094959634447_rgbf000051-resize_6-target.png,125,1.693,0,2850,125,meters,jsons/VE125_randls_7.json,710039,820118,34,Woman
145,858876,DepthScenes,duration_manipulation_targetAtFixation,jsons/VE125_randls_7.json,http://54.235.29.9/FacialAge/BNav_EC2/DepthDuration/v2_depth_duration_MTurk/v2_DepthDuration_HTML.html#6,6,1600,789,1600,900,8-21-2022,9-35-21,146,depth_duration_stimuli/001498_2014-06-19_17-45-14_260595134347_rgbf000129-resize_4/001498_2014-06-19_17-45-14_260595134347_rgbf000129-resize-original.jpg,125,1.4075,0,2769,124,meters,jsons/VE125_randls_7.json,710039,820118,34,Woman
146,858876,DepthScenes,duration_manipulation_targetAtFixation,jsons/VE125_randls_7.json,http://54.235.29.9/FacialAge/BNav_EC2/DepthDuration/v2_depth_duration_MTurk/v2_DepthDuration_HTML.html#6,6,1600,789,1600,900,8-21-2022,9-35-21,147,depth_duration_stimuli/000917_2014-06-09_22-45-29_260595134347_rgbf000149-resize_3/000917_2014-06-09_22-45-29_260595134347_rgbf000149-resize_3-target.png,125,4.1865,2,2443,125,meters,jsons/VE125_randls_7.json,710039,820118,34,Woman
147,858876,DepthScenes,duration_manipulation_targetAtFixation,jsons/VE125_randls_7.json,http://54.235.29.9/FacialAge/BNav_EC2/DepthDuration/v2_depth_duration_MTurk/v2_DepthDuration_HTML.html#6,6,1600,789,1600,900,8-21-2022,9-35-21,148,depth_duration_stimuli/002323_2014-06-28_20-01-54_260595134347_rgbf000051-resize_4/002323_2014-06-28_20-01-54_260595134347_rgbf000051-resize_4-target.png,125,3.7310000000000003,2,1923,125,meters,jsons/VE125_randls_7.json,710039,820118,34,Woman
148,858876,DepthScenes,duration_manipulation_targetAtFixation,jsons/VE125_randls_7.json,http://54.235.29.9/FacialAge/BNav_EC2/DepthDuration/v2_depth_duration_MTurk/v2_DepthDuration_HTML.html#6,6,1600,789,1600,900,8-21-2022,9-35-21,149,depth_duration_stimuli/002375_2014-06-28_20-13-44_260595134347_rgbf000032-resize_1/002375_2014-06-28_20-13-44_260595134347_rgbf000032-resize_1-target.png,125,4.0175,1,2314,125,meters,jsons/VE125_randls_7.json,710039,820118,34,Woman
149,858876,DepthScenes,duration_manipulation_targetAtFixation,jsons/VE125_randls_7.json,http://54.235.29.9/FacialAge/BNav_EC2/DepthDuration/v2_depth_duration_MTurk/v2_DepthDuration_HTML.html#6,6,1600,789,1600,900,8-21-2022,9-35-21,150,depth_duration_stimuli/002657_2014-06-13_15-29-54_094959634447_rgbf000150-resize_1/002657_2014-06-13_15-29-54_094959634447_rgbf000150-resize_1-target.png,125,4.919,0,2257,124,meters,jsons/VE125_randls_7.json,710039,820118,34,Woman
150,858876,DepthScenes,duration_manipulation_targetAtFixation,jsons/VE125_randls_7.json,http://54.235.29.9/FacialAge/BNav_EC2/DepthDuration/v2_depth_duration_MTurk/v2_DepthDuration_HTML.html#6,6,1600,789,1600,900,8-21-2022,9-35-21,151,depth_duration_stimuli/001417_2014-06-19_16-25-36_260595134347_rgbf000115-resize_5/001417_2014-06-19_16-25-36_260595134347_rgbf000115-resize_5-target.png,125,4.6255,3,2345,125,meters,jsons/VE125_randls_7.json,710039,820118,34,Woman
151,858876,DepthScenes,duration_manipulation_targetAtFixation,jsons/VE125_randls_7.json,http://54.235.29.9/FacialAge/BNav_EC2/DepthDuration/v2_depth_duration_MTurk/v2_DepthDuration_HTML.html#6,6,1600,789,1600,900,8-21-2022,9-35-21,152,depth_duration_stimuli/003081_2014-06-15_15-19-16_094959634447_rgbf000150-resize_1/003081_2014-06-15_15-19-16_094959634447_rgbf000150-resize_1-target.png,125,3.9125,0,2131,126,meters,jsons/VE125_randls_7.json,710039,820118,34,Woman
152,858876,DepthScenes,duration_manipulation_targetAtFixation,jsons/VE125_randls_7.json,http://54.235.29.9/FacialAge/BNav_EC2/DepthDuration/v2_depth_duration_MTurk/v2_DepthDuration_HTML.html#6,6,1600,789,1600,900,8-21-2022,9-35-21,153,depth_duration_stimuli/002905_2014-06-03_18-04-43_094959634447_rgbf000151-resize_2/002905_2014-06-03_18-04-43_094959634447_rgbf000151-resize_2-target.png,125,2.0295,2,2435,124,meters,jsons/VE125_randls_7.json,710039,820118,34,Woman
153,858876,DepthScenes,duration_manipulation_targetAtFixation,jsons/VE125_randls_7.json,http://54.235.29.9/FacialAge/BNav_EC2/DepthDuration/v2_depth_duration_MTurk/v2_DepthDuration_HTML.html#6,6,1600,789,1600,900,8-21-2022,9-35-21,154,depth_duration_stimuli/003423_2014-05-21_10-23-26_094959634447_rgbf002665-resize_2/003423_2014-05-21_10-23-26_094959634447_rgbf002665-resize_2-target.png,125,3.2575,2,2194,125,meters,jsons/VE125_randls_7.json,710039,820118,34,Woman
154,858876,DepthScenes,duration_manipulation_targetAtFixation,jsons/VE125_randls_7.json,http://54.235.29.9/FacialAge/BNav_EC2/DepthDuration/v2_depth_duration_MTurk/v2_DepthDuration_HTML.html#6,6,1600,789,1600,900,8-21-2022,9-35-21,155,depth_duration_stimuli/000469_2014-06-09_19-42-10_260595134347_rgbf000081-resize_1/000469_2014-06-09_19-42-10_260595134347_rgbf000081-resize_1-target.png,125,1.652,1,2353,124,meters,jsons/VE125_randls_7.json,710039,820118,34,Woman
155,858876,DepthScenes,duration_manipulation_targetAtFixation,jsons/VE125_randls_7.json,http://54.235.29.9/FacialAge/BNav_EC2/DepthDuration/v2_depth_duration_MTurk/v2_DepthDuration_HTML.html#6,6,1600,789,1600,900,8-21-2022,9-35-21,156,depth_duration_stimuli/000483_2014-06-09_20-41-45_260595134347_rgbf000116-resize_4/000483_2014-06-09_20-41-45_260595134347_rgbf000116-resize_4-target.png,125,1.337,0,2267,124,meters,jsons/VE125_randls_7.json,710039,820118,34,Woman
156,858876,DepthScenes,duration_manipulation_targetAtFixation,jsons/VE125_randls_7.json,http://54.235.29.9/FacialAge/BNav_EC2/DepthDuration/v2_depth_duration_MTurk/v2_DepthDuration_HTML.html#6,6,1600,789,1600,900,8-21-2022,9-35-21,157,depth_duration_stimuli/000493_2014-06-09_21-01-18_260595134347_rgbf000196-resize_3/000493_2014-06-09_21-01-18_260595134347_rgbf000196-resize_3-target.png,125,3.44,2,2186,125,meters,jsons/VE125_randls_7.json,710039,820118,34,Woman
157,858876,DepthScenes,duration_manipulation_targetAtFixation,jsons/VE125_randls_7.json,http://54.235.29.9/FacialAge/BNav_EC2/DepthDuration/v2_depth_duration_MTurk/v2_DepthDuration_HTML.html#6,6,1600,789,1600,900,8-21-2022,9-35-21,158,depth_duration_stimuli/000191_2014-05-12_17-07-38_260595134347_rgbf000199-resize_0/000191_2014-05-12_17-07-38_260595134347_rgbf000199-resize_0-target.png,125,3.7995,4,2483,125,meters,jsons/VE125_randls_7.json,710039,820118,34,Woman
158,858876,DepthScenes,duration_manipulation_targetAtFixation,jsons/VE125_randls_7.json,http://54.235.29.9/FacialAge/BNav_EC2/DepthDuration/v2_depth_duration_MTurk/v2_DepthDuration_HTML.html#6,6,1600,789,1600,900,8-21-2022,9-35-21,159,depth_duration_stimuli/003292_2014-05-14_21-53-49_094959634447_rgbf000100-resize_2/003292_2014-05-14_21-53-49_094959634447_rgbf000100-resize_2-target.png,125,3.4815,2,3675,123,meters,jsons/VE125_randls_7.json,710039,820118,34,Woman
159,858876,DepthScenes,duration_manipulation_targetAtFixation,jsons/VE125_randls_7.json,http://54.235.29.9/FacialAge/BNav_EC2/DepthDuration/v2_depth_duration_MTurk/v2_DepthDuration_HTML.html#6,6,1600,789,1600,900,8-21-2022,9-35-21,160,depth_duration_stimuli/002639_2014-06-24_14-51-37_094959634447_rgbf000074-resize_4/002639_2014-06-24_14-51-37_094959634447_rgbf000074-resize_4-target.png,125,4.0375,2,2034,123,meters,jsons/VE125_randls_7.json,710039,820118,34,Woman
160,858876,DepthScenes,duration_manipulation_targetAtFixation,jsons/VE125_randls_7.json,http://54.235.29.9/FacialAge/BNav_EC2/DepthDuration/v2_depth_duration_MTurk/v2_DepthDuration_HTML.html#6,6,1600,789,1600,900,8-21-2022,9-35-21,161,depth_duration_stimuli/003070_2014-06-15_14-58-27_094959634447_rgbf000150-resize_3/003070_2014-06-15_14-58-27_094959634447_rgbf000150-resize_3-target.png,125,2.9415,2,2202,125,meters,jsons/VE125_randls_7.json,710039,820118,34,Woman
161,858876,DepthScenes,duration_manipulation_targetAtFixation,jsons/VE125_randls_7.json,http://54.235.29.9/FacialAge/BNav_EC2/DepthDuration/v2_depth_duration_MTurk/v2_DepthDuration_HTML.html#6,6,1600,789,1600,900,8-21-2022,9-35-21,162,depth_duration_stimuli/000943_2014-06-09_19-31-07_260595134347_rgbf000128-resize_1/000943_2014-06-09_19-31-07_260595134347_rgbf000128-resize_1-target.png,125,1.9765,2,7779,125,meters,jsons/VE125_randls_7.json,710039,820118,34,Woman
162,858876,DepthScenes,duration_manipulation_targetAtFixation,jsons/VE125_randls_7.json,http://54.235.29.9/FacialAge/BNav_EC2/DepthDuration/v2_depth_duration_MTurk/v2_DepthDuration_HTML.html#6,6,1600,789,1600,900,8-21-2022,9-35-21,163,depth_duration_stimuli/001199_2014-06-17_16-03-48_260595134347_rgbf000077-resize_0/001199_2014-06-17_16-03-48_260595134347_rgbf000077-resize_0-target.png,125,3.4375,2,2410,124,meters,jsons/VE125_randls_7.json,710039,820118,34,Woman
163,858876,DepthScenes,duration_manipulation_targetAtFixation,jsons/VE125_randls_7.json,http://54.235.29.9/FacialAge/BNav_EC2/DepthDuration/v2_depth_duration_MTurk/v2_DepthDuration_HTML.html#6,6,1600,789,1600,900,8-21-2022,9-35-21,164,depth_duration_stimuli/000502_2014-06-08_23-02-32_260595134347_rgbf000063-resize_4/000502_2014-06-08_23-02-32_260595134347_rgbf000063-resize_4-target.png,125,2.431,2,5321,125,meters,jsons/VE125_randls_7.json,710039,820118,34,Woman
