,subjID,experimentName,versionName,sequenceName,url,selected_row,windowWidth,windowHeight,screenWidth,screenHeight,startDate,startTime,trial,stimulus,duration,actual_depth,depth_estimate,trial_RT,log_sceneDuration,unitSelection,seq_filepath,experimentTime,totalTime,age,gender
0,859627,DepthScenes,duration_manipulation_targetAtFixation,jsons/VE125_randls_38_rotated.json,http://54.235.29.9/FacialAge/BNav_EC2/DepthDuration/v2_depth_duration_MTurk/v2_DepthDuration_HTML.html#400,400,1440,789,1440,900,8-29-2022,9-12-20,1,depth_duration_stimuli/002103_2014-06-25_20-00-40_260595134347_rgbf000049-resize_0/002103_2014-06-25_20-00-40_260595134347_rgbf000049-resize_0-target.png,125,4.105,5,2625,128,meters,jsons/VE125_randls_38_rotated.json,537901,618616,25,Woman
1,859627,DepthScenes,duration_manipulation_targetAtFixation,jsons/VE125_randls_38_rotated.json,http://54.235.29.9/FacialAge/BNav_EC2/DepthDuration/v2_depth_duration_MTurk/v2_DepthDuration_HTML.html#400,400,1440,789,1440,900,8-29-2022,9-12-20,2,depth_duration_stimuli/002039_2014-06-24_20-22-38_260595134347_rgbf000084-resize_1/002039_2014-06-24_20-22-38_260595134347_rgbf000084-resize_1-target.png,125,4.408,3,2316,137,meters,jsons/VE125_randls_38_rotated.json,537901,618616,25,Woman
2,859627,DepthScenes,duration_manipulation_targetAtFixation,jsons/VE125_randls_38_rotated.json,http://54.235.29.9/FacialAge/BNav_EC2/DepthDuration/v2_depth_duration_MTurk/v2_DepthDuration_HTML.html#400,400,1440,789,1440,900,8-29-2022,9-12-20,3,depth_duration_stimuli/003079_2014-06-15_15-18-20_094959634447_rgbf000152-resize_8/003079_2014-06-15_15-18-20_094959634447_rgbf000152-resize_8-target.png,125,2.8775,8,4127,111,meters,jsons/VE125_randls_38_rotated.json,537901,618616,25,Woman
3,859627,DepthScenes,duration_manipulation_targetAtFixation,jsons/VE125_randls_38_rotated.json,http://54.235.29.9/FacialAge/BNav_EC2/DepthDuration/v2_depth_duration_MTurk/v2_DepthDuration_HTML.html#400,400,1440,789,1440,900,8-29-2022,9-12-20,4,depth_duration_stimuli/000506_2014-06-08_23-21-00_260595134347_rgbf000070-resize_7/000506_2014-06-08_23-21-00_260595134347_rgbf000070-resize_7-target.png,125,4.0585,5,2326,114,meters,jsons/VE125_randls_38_rotated.json,537901,618616,25,Woman
4,859627,DepthScenes,duration_manipulation_targetAtFixation,jsons/VE125_randls_38_rotated.json,http://54.235.29.9/FacialAge/BNav_EC2/DepthDuration/v2_depth_duration_MTurk/v2_DepthDuration_HTML.html#400,400,1440,789,1440,900,8-29-2022,9-12-20,5,depth_duration_stimuli/000677_2014-06-08_23-10-32_260595134347_rgbf000158-resize_6/000677_2014-06-08_23-10-32_260595134347_rgbf000158-resize_6-target.png,125,3.556,6,2391,134,meters,jsons/VE125_randls_38_rotated.json,537901,618616,25,Woman
5,859627,DepthScenes,duration_manipulation_targetAtFixation,jsons/VE125_randls_38_rotated.json,http://54.235.29.9/FacialAge/BNav_EC2/DepthDuration/v2_depth_duration_MTurk/v2_DepthDuration_HTML.html#400,400,1440,789,1440,900,8-29-2022,9-12-20,6,depth_duration_stimuli/001029_2014-06-08_13-17-57_260595134347_rgbf000065-resize_1/001029_2014-06-08_13-17-57_260595134347_rgbf000065-resize_1-target.png,125,3.0835,5,2228,111,meters,jsons/VE125_randls_38_rotated.json,537901,618616,25,Woman
6,859627,DepthScenes,duration_manipulation_targetAtFixation,jsons/VE125_randls_38_rotated.json,http://54.235.29.9/FacialAge/BNav_EC2/DepthDuration/v2_depth_duration_MTurk/v2_DepthDuration_HTML.html#400,400,1440,789,1440,900,8-29-2022,9-12-20,7,depth_duration_stimuli/000483_2014-06-09_20-41-45_260595134347_rgbf000116-resize_4/000483_2014-06-09_20-41-45_260595134347_rgbf000116-resize_4-target.png,125,1.337,3,2111,127,meters,jsons/VE125_randls_38_rotated.json,537901,618616,25,Woman
7,859627,DepthScenes,duration_manipulation_targetAtFixation,jsons/VE125_randls_38_rotated.json,http://54.235.29.9/FacialAge/BNav_EC2/DepthDuration/v2_depth_duration_MTurk/v2_DepthDuration_HTML.html#400,400,1440,789,1440,900,8-29-2022,9-12-20,8,depth_duration_stimuli/000469_2014-06-09_19-42-10_260595134347_rgbf000081-resize_1/000469_2014-06-09_19-42-10_260595134347_rgbf000081-resize_1-target.png,125,1.652,3,2112,135,meters,jsons/VE125_randls_38_rotated.json,537901,618616,25,Woman
8,859627,DepthScenes,duration_manipulation_targetAtFixation,jsons/VE125_randls_38_rotated.json,http://54.235.29.9/FacialAge/BNav_EC2/DepthDuration/v2_depth_duration_MTurk/v2_DepthDuration_HTML.html#400,400,1440,789,1440,900,8-29-2022,9-12-20,9,depth_duration_stimuli/002805_2014-06-22_19-54-03_094959634447_rgbf000079-resize_1/002805_2014-06-22_19-54-03_094959634447_rgbf000079-resize_1-target.png,125,3.1439999999999997,58,3050,125,meters,jsons/VE125_randls_38_rotated.json,537901,618616,25,Woman
9,859627,DepthScenes,duration_manipulation_targetAtFixation,jsons/VE125_randls_38_rotated.json,http://54.235.29.9/FacialAge/BNav_EC2/DepthDuration/v2_depth_duration_MTurk/v2_DepthDuration_HTML.html#400,400,1440,789,1440,900,8-29-2022,9-12-20,10,depth_duration_stimuli/000906_2014-06-08_13-35-43_260595134347_rgbf000155-resize_1/000906_2014-06-08_13-35-43_260595134347_rgbf000155-resize_1-target.png,125,2.8489999999999998,3,7387,117,meters,jsons/VE125_randls_38_rotated.json,537901,618616,25,Woman
10,859627,DepthScenes,duration_manipulation_targetAtFixation,jsons/VE125_randls_38_rotated.json,http://54.235.29.9/FacialAge/BNav_EC2/DepthDuration/v2_depth_duration_MTurk/v2_DepthDuration_HTML.html#400,400,1440,789,1440,900,8-29-2022,9-12-20,11,depth_duration_stimuli/001392_2014-06-19_16-07-59_260595134347_rgbf000046-resize_1/001392_2014-06-19_16-07-59_260595134347_rgbf000046-resize_1-target.png,125,4.135,5,3381,126,meters,jsons/VE125_randls_38_rotated.json,537901,618616,25,Woman
11,859627,DepthScenes,duration_manipulation_targetAtFixation,jsons/VE125_randls_38_rotated.json,http://54.235.29.9/FacialAge/BNav_EC2/DepthDuration/v2_depth_duration_MTurk/v2_DepthDuration_HTML.html#400,400,1440,789,1440,900,8-29-2022,9-12-20,12,depth_duration_stimuli/001570_2014-06-20_17-21-09_260595134347_rgbf000135-resize_4/001570_2014-06-20_17-21-09_260595134347_rgbf000135-resize_4-target.png,125,4.467,0,2522,124,meters,jsons/VE125_randls_38_rotated.json,537901,618616,25,Woman
12,859627,DepthScenes,duration_manipulation_targetAtFixation,jsons/VE125_randls_38_rotated.json,http://54.235.29.9/FacialAge/BNav_EC2/DepthDuration/v2_depth_duration_MTurk/v2_DepthDuration_HTML.html#400,400,1440,789,1440,900,8-29-2022,9-12-20,13,depth_duration_stimuli/002414_2014-06-28_20-24-58_260595134347_rgbf000067-resize_4/002414_2014-06-28_20-24-58_260595134347_rgbf000067-resize_4-target.png,125,4.363,5,4589,138,meters,jsons/VE125_randls_38_rotated.json,537901,618616,25,Woman
13,859627,DepthScenes,duration_manipulation_targetAtFixation,jsons/VE125_randls_38_rotated.json,http://54.235.29.9/FacialAge/BNav_EC2/DepthDuration/v2_depth_duration_MTurk/v2_DepthDuration_HTML.html#400,400,1440,789,1440,900,8-29-2022,9-12-20,14,depth_duration_stimuli/000773_2014-06-08_22-24-54_260595134347_rgbf000093-resize_1/000773_2014-06-08_22-24-54_260595134347_rgbf000093-resize_1-target.png,125,4.973,8,2352,116,meters,jsons/VE125_randls_38_rotated.json,537901,618616,25,Woman
14,859627,DepthScenes,duration_manipulation_targetAtFixation,jsons/VE125_randls_38_rotated.json,http://54.235.29.9/FacialAge/BNav_EC2/DepthDuration/v2_depth_duration_MTurk/v2_DepthDuration_HTML.html#400,400,1440,789,1440,900,8-29-2022,9-12-20,15,depth_duration_stimuli/000866_2014-06-09_20-45-42_260595134347_rgbf000139-resize_1/000866_2014-06-09_20-45-42_260595134347_rgbf000139-resize_1-target.png,125,3.2155,10,3269,115,meters,jsons/VE125_randls_38_rotated.json,537901,618616,25,Woman
15,859627,DepthScenes,duration_manipulation_targetAtFixation,jsons/VE125_randls_38_rotated.json,http://54.235.29.9/FacialAge/BNav_EC2/DepthDuration/v2_depth_duration_MTurk/v2_DepthDuration_HTML.html#400,400,1440,789,1440,900,8-29-2022,9-12-20,16,depth_duration_stimuli/002989_2014-06-15_12-25-03_094959634447_rgbf000150-resize_3/002989_2014-06-15_12-25-03_094959634447_rgbf000150-resize_3-target.png,125,4.1975,12,2766,123,meters,jsons/VE125_randls_38_rotated.json,537901,618616,25,Woman
16,859627,DepthScenes,duration_manipulation_targetAtFixation,jsons/VE125_randls_38_rotated.json,http://54.235.29.9/FacialAge/BNav_EC2/DepthDuration/v2_depth_duration_MTurk/v2_DepthDuration_HTML.html#400,400,1440,789,1440,900,8-29-2022,9-12-20,17,depth_duration_stimuli/003083_2014-06-15_15-21-03_094959634447_rgbf000063-resize_1/003083_2014-06-15_15-21-03_094959634447_rgbf000063-resize_1-target.png,125,4.1405,5,3218,137,meters,jsons/VE125_randls_38_rotated.json,537901,618616,25,Woman
17,859627,DepthScenes,duration_manipulation_targetAtFixation,jsons/VE125_randls_38_rotated.json,http://54.235.29.9/FacialAge/BNav_EC2/DepthDuration/v2_depth_duration_MTurk/v2_DepthDuration_HTML.html#400,400,1440,789,1440,900,8-29-2022,9-12-20,18,depth_duration_stimuli/000486_2014-06-09_20-47-20_260595134347_rgbf000143-resize_2/000486_2014-06-09_20-47-20_260595134347_rgbf000143-resize_2-target.png,125,4.8325,0,2296,123,meters,jsons/VE125_randls_38_rotated.json,537901,618616,25,Woman
18,859627,DepthScenes,duration_manipulation_targetAtFixation,jsons/VE125_randls_38_rotated.json,http://54.235.29.9/FacialAge/BNav_EC2/DepthDuration/v2_depth_duration_MTurk/v2_DepthDuration_HTML.html#400,400,1440,789,1440,900,8-29-2022,9-12-20,19,depth_duration_stimuli/001498_2014-06-19_17-45-14_260595134347_rgbf000129-resize_4/001498_2014-06-19_17-45-14_260595134347_rgbf000129-resize-original.jpg,125,1.4075,0,2085,132,meters,jsons/VE125_randls_38_rotated.json,537901,618616,25,Woman
19,859627,DepthScenes,duration_manipulation_targetAtFixation,jsons/VE125_randls_38_rotated.json,http://54.235.29.9/FacialAge/BNav_EC2/DepthDuration/v2_depth_duration_MTurk/v2_DepthDuration_HTML.html#400,400,1440,789,1440,900,8-29-2022,9-12-20,20,depth_duration_stimuli/003495_2014-05-21_16-01-51_094959634447_rgbf000100-resize_3/003495_2014-05-21_16-01-51_094959634447_rgbf000100-resize_3-target.png,125,1.6255,5,2531,101,meters,jsons/VE125_randls_38_rotated.json,537901,618616,25,Woman
20,859627,DepthScenes,duration_manipulation_targetAtFixation,jsons/VE125_randls_38_rotated.json,http://54.235.29.9/FacialAge/BNav_EC2/DepthDuration/v2_depth_duration_MTurk/v2_DepthDuration_HTML.html#400,400,1440,789,1440,900,8-29-2022,9-12-20,21,depth_duration_stimuli/001244_2014-06-17_16-47-45_260595134347_rgbf000030-resize_4/001244_2014-06-17_16-47-45_260595134347_rgbf000030-resize_4-target.png,125,2.0425,8,2511,119,meters,jsons/VE125_randls_38_rotated.json,537901,618616,25,Woman
21,859627,DepthScenes,duration_manipulation_targetAtFixation,jsons/VE125_randls_38_rotated.json,http://54.235.29.9/FacialAge/BNav_EC2/DepthDuration/v2_depth_duration_MTurk/v2_DepthDuration_HTML.html#400,400,1440,789,1440,900,8-29-2022,9-12-20,22,depth_duration_stimuli/002758_2014-06-22_19-11-20_094959634447_rgbf000128-resize_1/002758_2014-06-22_19-11-20_094959634447_rgbf000128-resize_1-target.png,125,2.555,5,2111,135,meters,jsons/VE125_randls_38_rotated.json,537901,618616,25,Woman
22,859627,DepthScenes,duration_manipulation_targetAtFixation,jsons/VE125_randls_38_rotated.json,http://54.235.29.9/FacialAge/BNav_EC2/DepthDuration/v2_depth_duration_MTurk/v2_DepthDuration_HTML.html#400,400,1440,789,1440,900,8-29-2022,9-12-20,23,depth_duration_stimuli/002630_2014-06-24_14-47-50_094959634447_rgbf000055-resize_1/002630_2014-06-24_14-47-50_094959634447_rgbf000055-resize_1-target.png,125,3.0095,8,2239,115,meters,jsons/VE125_randls_38_rotated.json,537901,618616,25,Woman
23,859627,DepthScenes,duration_manipulation_targetAtFixation,jsons/VE125_randls_38_rotated.json,http://54.235.29.9/FacialAge/BNav_EC2/DepthDuration/v2_depth_duration_MTurk/v2_DepthDuration_HTML.html#400,400,1440,789,1440,900,8-29-2022,9-12-20,24,depth_duration_stimuli/003129_2014-05-12_10-48-10_094959634447_rgbf000100-resize_0/003129_2014-05-12_10-48-10_094959634447_rgbf000100-resize_0-target.png,125,4.9305,5,2355,136,meters,jsons/VE125_randls_38_rotated.json,537901,618616,25,Woman
24,859627,DepthScenes,duration_manipulation_targetAtFixation,jsons/VE125_randls_38_rotated.json,http://54.235.29.9/FacialAge/BNav_EC2/DepthDuration/v2_depth_duration_MTurk/v2_DepthDuration_HTML.html#400,400,1440,789,1440,900,8-29-2022,9-12-20,25,depth_duration_stimuli/000414_2014-06-04_19-49-13_260595134347_rgbf000044-resize_0/000414_2014-06-04_19-49-13_260595134347_rgbf000044-resize_0-target.png,125,4.329,4,2968,117,meters,jsons/VE125_randls_38_rotated.json,537901,618616,25,Woman
25,859627,DepthScenes,duration_manipulation_targetAtFixation,jsons/VE125_randls_38_rotated.json,http://54.235.29.9/FacialAge/BNav_EC2/DepthDuration/v2_depth_duration_MTurk/v2_DepthDuration_HTML.html#400,400,1440,789,1440,900,8-29-2022,9-12-20,26,depth_duration_stimuli/002344_2014-06-28_20-06-29_260595134347_rgbf000030-resize_1/002344_2014-06-28_20-06-29_260595134347_rgbf000030-resize_1-target.png,125,1.5795,7,2777,109,meters,jsons/VE125_randls_38_rotated.json,537901,618616,25,Woman
26,859627,DepthScenes,duration_manipulation_targetAtFixation,jsons/VE125_randls_38_rotated.json,http://54.235.29.9/FacialAge/BNav_EC2/DepthDuration/v2_depth_duration_MTurk/v2_DepthDuration_HTML.html#400,400,1440,789,1440,900,8-29-2022,9-12-20,27,depth_duration_stimuli/002725_2014-06-22_11-47-51_094959634447_rgbf000070-resize_1/002725_2014-06-22_11-47-51_094959634447_rgbf000070-resize_1-target.png,125,2.195,10,2647,124,meters,jsons/VE125_randls_38_rotated.json,537901,618616,25,Woman
27,859627,DepthScenes,duration_manipulation_targetAtFixation,jsons/VE125_randls_38_rotated.json,http://54.235.29.9/FacialAge/BNav_EC2/DepthDuration/v2_depth_duration_MTurk/v2_DepthDuration_HTML.html#400,400,1440,789,1440,900,8-29-2022,9-12-20,28,depth_duration_stimuli/002678_2014-06-13_16-15-32_094959634447_rgbf000151-resize_6/002678_2014-06-13_16-15-32_094959634447_rgbf000151-resize_6-target.png,125,2.1830000000000003,5,2132,115,meters,jsons/VE125_randls_38_rotated.json,537901,618616,25,Woman
28,859627,DepthScenes,duration_manipulation_targetAtFixation,jsons/VE125_randls_38_rotated.json,http://54.235.29.9/FacialAge/BNav_EC2/DepthDuration/v2_depth_duration_MTurk/v2_DepthDuration_HTML.html#400,400,1440,789,1440,900,8-29-2022,9-12-20,29,depth_duration_stimuli/000368_2014-06-09_15-53-01_260595134347_rgbf000155-resize_2/000368_2014-06-09_15-53-01_260595134347_rgbf000155-resize_2-target.png,125,2.4859999999999998,6,2376,121,meters,jsons/VE125_randls_38_rotated.json,537901,618616,25,Woman
29,859627,DepthScenes,duration_manipulation_targetAtFixation,jsons/VE125_randls_38_rotated.json,http://54.235.29.9/FacialAge/BNav_EC2/DepthDuration/v2_depth_duration_MTurk/v2_DepthDuration_HTML.html#400,400,1440,789,1440,900,8-29-2022,9-12-20,30,depth_duration_stimuli/002072_2014-06-24_21-48-06_260595134347_rgbf000115-resize_0/002072_2014-06-24_21-48-06_260595134347_rgbf000115-resize-original.jpg,125,4.702,0,2170,138,meters,jsons/VE125_randls_38_rotated.json,537901,618616,25,Woman
30,859627,DepthScenes,duration_manipulation_targetAtFixation,jsons/VE125_randls_38_rotated.json,http://54.235.29.9/FacialAge/BNav_EC2/DepthDuration/v2_depth_duration_MTurk/v2_DepthDuration_HTML.html#400,400,1440,789,1440,900,8-29-2022,9-12-20,31,depth_duration_stimuli/000927_2014-06-09_16-32-30_260595134347_rgbf000123-resize_3/000927_2014-06-09_16-32-30_260595134347_rgbf000123-resize_3-target.png,125,2.6785,5,2143,124,meters,jsons/VE125_randls_38_rotated.json,537901,618616,25,Woman
31,859627,DepthScenes,duration_manipulation_targetAtFixation,jsons/VE125_randls_38_rotated.json,http://54.235.29.9/FacialAge/BNav_EC2/DepthDuration/v2_depth_duration_MTurk/v2_DepthDuration_HTML.html#400,400,1440,789,1440,900,8-29-2022,9-12-20,32,depth_duration_stimuli/001110_2014-06-15_17-25-28_260595134347_rgbf000150-resize_1/001110_2014-06-15_17-25-28_260595134347_rgbf000150-resize_1-target.png,125,1.7115,3,2269,113,meters,jsons/VE125_randls_38_rotated.json,537901,618616,25,Woman
32,859627,DepthScenes,duration_manipulation_targetAtFixation,jsons/VE125_randls_38_rotated.json,http://54.235.29.9/FacialAge/BNav_EC2/DepthDuration/v2_depth_duration_MTurk/v2_DepthDuration_HTML.html#400,400,1440,789,1440,900,8-29-2022,9-12-20,33,depth_duration_stimuli/003081_2014-06-15_15-19-16_094959634447_rgbf000150-resize_1/003081_2014-06-15_15-19-16_094959634447_rgbf000150-resize_1-target.png,125,3.9125,2,2153,111,meters,jsons/VE125_randls_38_rotated.json,537901,618616,25,Woman
33,859627,DepthScenes,duration_manipulation_targetAtFixation,jsons/VE125_randls_38_rotated.json,http://54.235.29.9/FacialAge/BNav_EC2/DepthDuration/v2_depth_duration_MTurk/v2_DepthDuration_HTML.html#400,400,1440,789,1440,900,8-29-2022,9-12-20,34,depth_duration_stimuli/001417_2014-06-19_16-25-36_260595134347_rgbf000115-resize_5/001417_2014-06-19_16-25-36_260595134347_rgbf000115-resize_5-target.png,125,4.6255,3,2226,131,meters,jsons/VE125_randls_38_rotated.json,537901,618616,25,Woman
34,859627,DepthScenes,duration_manipulation_targetAtFixation,jsons/VE125_randls_38_rotated.json,http://54.235.29.9/FacialAge/BNav_EC2/DepthDuration/v2_depth_duration_MTurk/v2_DepthDuration_HTML.html#400,400,1440,789,1440,900,8-29-2022,9-12-20,35,depth_duration_stimuli/002660_2014-06-13_15-44-18_094959634447_rgbf001878-resize_2/002660_2014-06-13_15-44-18_094959634447_rgbf001878-resize_2-target.png,125,3.576,0,2783,124,meters,jsons/VE125_randls_38_rotated.json,537901,618616,25,Woman
35,859627,DepthScenes,duration_manipulation_targetAtFixation,jsons/VE125_randls_38_rotated.json,http://54.235.29.9/FacialAge/BNav_EC2/DepthDuration/v2_depth_duration_MTurk/v2_DepthDuration_HTML.html#400,400,1440,789,1440,900,8-29-2022,9-12-20,36,depth_duration_stimuli/002153_2014-06-25_21-27-18_260595134347_rgbf000038-resize_5/002153_2014-06-25_21-27-18_260595134347_rgbf000038-resize_5-target.png,125,2.505,5,2033,126,meters,jsons/VE125_randls_38_rotated.json,537901,618616,25,Woman
36,859627,DepthScenes,duration_manipulation_targetAtFixation,jsons/VE125_randls_38_rotated.json,http://54.235.29.9/FacialAge/BNav_EC2/DepthDuration/v2_depth_duration_MTurk/v2_DepthDuration_HTML.html#400,400,1440,789,1440,900,8-29-2022,9-12-20,37,depth_duration_stimuli/001100_2014-06-15_17-46-26_260595134347_rgbf000225-resize_2/001100_2014-06-15_17-46-26_260595134347_rgbf000225-resize_2-target.png,125,2.24,5,2067,124,meters,jsons/VE125_randls_38_rotated.json,537901,618616,25,Woman
37,859627,DepthScenes,duration_manipulation_targetAtFixation,jsons/VE125_randls_38_rotated.json,http://54.235.29.9/FacialAge/BNav_EC2/DepthDuration/v2_depth_duration_MTurk/v2_DepthDuration_HTML.html#400,400,1440,789,1440,900,8-29-2022,9-12-20,38,depth_duration_stimuli/002784_2014-06-22_19-26-30_094959634447_rgbf000083-resize_3/002784_2014-06-22_19-26-30_094959634447_rgbf000083-resize_3-target.png,125,1.8046666666667,8,2267,120,meters,jsons/VE125_randls_38_rotated.json,537901,618616,25,Woman
38,859627,DepthScenes,duration_manipulation_targetAtFixation,jsons/VE125_randls_38_rotated.json,http://54.235.29.9/FacialAge/BNav_EC2/DepthDuration/v2_depth_duration_MTurk/v2_DepthDuration_HTML.html#400,400,1440,789,1440,900,8-29-2022,9-12-20,39,depth_duration_stimuli/003338_2014-05-20_11-01-23_094959634447_rgbf000051-resize_6/003338_2014-05-20_11-01-23_094959634447_rgbf000051-resize_6-target.png,125,1.693,8,2357,124,meters,jsons/VE125_randls_38_rotated.json,537901,618616,25,Woman
39,859627,DepthScenes,duration_manipulation_targetAtFixation,jsons/VE125_randls_38_rotated.json,http://54.235.29.9/FacialAge/BNav_EC2/DepthDuration/v2_depth_duration_MTurk/v2_DepthDuration_HTML.html#400,400,1440,789,1440,900,8-29-2022,9-12-20,40,depth_duration_stimuli/002509_2014-06-24_13-19-22_094959634447_rgbf000077-resize_0/002509_2014-06-24_13-19-22_094959634447_rgbf000077-resize_0-target.png,125,1.3065,5,2547,121,meters,jsons/VE125_randls_38_rotated.json,537901,618616,25,Woman
40,859627,DepthScenes,duration_manipulation_targetAtFixation,jsons/VE125_randls_38_rotated.json,http://54.235.29.9/FacialAge/BNav_EC2/DepthDuration/v2_depth_duration_MTurk/v2_DepthDuration_HTML.html#400,400,1440,789,1440,900,8-29-2022,9-12-20,41,depth_duration_stimuli/002209_2014-06-28_18-36-10_260595134347_rgbf000051-resize_1/002209_2014-06-28_18-36-10_260595134347_rgbf000051-resize_1-target.png,125,2.057,4,2957,113,meters,jsons/VE125_randls_38_rotated.json,537901,618616,25,Woman
41,859627,DepthScenes,duration_manipulation_targetAtFixation,jsons/VE125_randls_38_rotated.json,http://54.235.29.9/FacialAge/BNav_EC2/DepthDuration/v2_depth_duration_MTurk/v2_DepthDuration_HTML.html#400,400,1440,789,1440,900,8-29-2022,9-12-20,42,depth_duration_stimuli/002763_2014-06-22_19-13-10_094959634447_rgbf000075-resize_4/002763_2014-06-22_19-13-10_094959634447_rgbf000075-resize_4-target.png,125,1.68375,8,2185,124,meters,jsons/VE125_randls_38_rotated.json,537901,618616,25,Woman
42,859627,DepthScenes,duration_manipulation_targetAtFixation,jsons/VE125_randls_38_rotated.json,http://54.235.29.9/FacialAge/BNav_EC2/DepthDuration/v2_depth_duration_MTurk/v2_DepthDuration_HTML.html#400,400,1440,789,1440,900,8-29-2022,9-12-20,43,depth_duration_stimuli/001032_2014-06-08_13-23-17_260595134347_rgbf000021-resize_3/001032_2014-06-08_13-23-17_260595134347_rgbf000021-resize_3-target.png,125,3.2725,58,2779,23,meters,jsons/VE125_randls_38_rotated.json,537901,618616,25,Woman
43,859627,DepthScenes,duration_manipulation_targetAtFixation,jsons/VE125_randls_38_rotated.json,http://54.235.29.9/FacialAge/BNav_EC2/DepthDuration/v2_depth_duration_MTurk/v2_DepthDuration_HTML.html#400,400,1440,789,1440,900,8-29-2022,9-12-20,44,depth_duration_stimuli/001059_2014-06-08_21-53-27_260595134347_rgbf000061-resize_4/001059_2014-06-08_21-53-27_260595134347_rgbf000061-resize_4-target.png,125,2.4185,12,2732,124,meters,jsons/VE125_randls_38_rotated.json,537901,618616,25,Woman
44,859627,DepthScenes,duration_manipulation_targetAtFixation,jsons/VE125_randls_38_rotated.json,http://54.235.29.9/FacialAge/BNav_EC2/DepthDuration/v2_depth_duration_MTurk/v2_DepthDuration_HTML.html#400,400,1440,789,1440,900,8-29-2022,9-12-20,45,depth_duration_stimuli/000943_2014-06-09_19-31-07_260595134347_rgbf000128-resize_1/000943_2014-06-09_19-31-07_260595134347_rgbf000128-resize_1-target.png,125,1.9765,2,3694,120,meters,jsons/VE125_randls_38_rotated.json,537901,618616,25,Woman
45,859627,DepthScenes,duration_manipulation_targetAtFixation,jsons/VE125_randls_38_rotated.json,http://54.235.29.9/FacialAge/BNav_EC2/DepthDuration/v2_depth_duration_MTurk/v2_DepthDuration_HTML.html#400,400,1440,789,1440,900,8-29-2022,9-12-20,46,depth_duration_stimuli/003070_2014-06-15_14-58-27_094959634447_rgbf000150-resize_3/003070_2014-06-15_14-58-27_094959634447_rgbf000150-resize_3-target.png,125,2.9415,10,2465,124,meters,jsons/VE125_randls_38_rotated.json,537901,618616,25,Woman
46,859627,DepthScenes,duration_manipulation_targetAtFixation,jsons/VE125_randls_38_rotated.json,http://54.235.29.9/FacialAge/BNav_EC2/DepthDuration/v2_depth_duration_MTurk/v2_DepthDuration_HTML.html#400,400,1440,789,1440,900,8-29-2022,9-12-20,47,depth_duration_stimuli/000734_2014-06-08_17-39-11_260595134347_rgbf000128-resize_2/000734_2014-06-08_17-39-11_260595134347_rgbf000128-resize_2-target.png,125,4.098,8,2323,116,meters,jsons/VE125_randls_38_rotated.json,537901,618616,25,Woman
47,859627,DepthScenes,duration_manipulation_targetAtFixation,jsons/VE125_randls_38_rotated.json,http://54.235.29.9/FacialAge/BNav_EC2/DepthDuration/v2_depth_duration_MTurk/v2_DepthDuration_HTML.html#400,400,1440,789,1440,900,8-29-2022,9-12-20,48,depth_duration_stimuli/000739_2014-06-08_18-45-58_260595134347_rgbf000068-resize_1/000739_2014-06-08_18-45-58_260595134347_rgbf000068-resize_1-target.png,125,3.534,5,2753,86,meters,jsons/VE125_randls_38_rotated.json,537901,618616,25,Woman
48,859627,DepthScenes,duration_manipulation_targetAtFixation,jsons/VE125_randls_38_rotated.json,http://54.235.29.9/FacialAge/BNav_EC2/DepthDuration/v2_depth_duration_MTurk/v2_DepthDuration_HTML.html#400,400,1440,789,1440,900,8-29-2022,9-12-20,49,depth_duration_stimuli/001170_2014-06-17_15-43-44_260595134347_rgbf000096-resize_6/001170_2014-06-17_15-43-44_260595134347_rgbf000096-resize-original.jpg,125,1.1909999999999998,0,2118,121,meters,jsons/VE125_randls_38_rotated.json,537901,618616,25,Woman
49,859627,DepthScenes,duration_manipulation_targetAtFixation,jsons/VE125_randls_38_rotated.json,http://54.235.29.9/FacialAge/BNav_EC2/DepthDuration/v2_depth_duration_MTurk/v2_DepthDuration_HTML.html#400,400,1440,789,1440,900,8-29-2022,9-12-20,50,depth_duration_stimuli/000854_2014-06-09_19-43-13_260595134347_rgbf000066-resize_0/000854_2014-06-09_19-43-13_260595134347_rgbf000066-resize_0-target.png,125,3.068,5,2280,114,meters,jsons/VE125_randls_38_rotated.json,537901,618616,25,Woman
50,859627,DepthScenes,duration_manipulation_targetAtFixation,jsons/VE125_randls_38_rotated.json,http://54.235.29.9/FacialAge/BNav_EC2/DepthDuration/v2_depth_duration_MTurk/v2_DepthDuration_HTML.html#400,400,1440,789,1440,900,8-29-2022,9-12-20,51,depth_duration_stimuli/000758_2014-06-08_22-05-08_260595134347_rgbf000085-resize_0/000758_2014-06-08_22-05-08_260595134347_rgbf000085-resize_0-target.png,125,3.3810000000000002,5,2940,122,meters,jsons/VE125_randls_38_rotated.json,537901,618616,25,Woman
51,859627,DepthScenes,duration_manipulation_targetAtFixation,jsons/VE125_randls_38_rotated.json,http://54.235.29.9/FacialAge/BNav_EC2/DepthDuration/v2_depth_duration_MTurk/v2_DepthDuration_HTML.html#400,400,1440,789,1440,900,8-29-2022,9-12-20,52,depth_duration_stimuli/003490_2014-05-21_15-50-11_094959634447_rgbf000101-resize_3/003490_2014-05-21_15-50-11_094959634447_rgbf000101-resize_3-target.png,125,3.6445,7,2480,121,meters,jsons/VE125_randls_38_rotated.json,537901,618616,25,Woman
52,859627,DepthScenes,duration_manipulation_targetAtFixation,jsons/VE125_randls_38_rotated.json,http://54.235.29.9/FacialAge/BNav_EC2/DepthDuration/v2_depth_duration_MTurk/v2_DepthDuration_HTML.html#400,400,1440,789,1440,900,8-29-2022,9-12-20,53,depth_duration_stimuli/001175_2014-06-17_15-45-55_260595134347_rgbf000129-resize_4/001175_2014-06-17_15-45-55_260595134347_rgbf000129-resize_4-target.png,125,4.255,5,2591,127,meters,jsons/VE125_randls_38_rotated.json,537901,618616,25,Woman
53,859627,DepthScenes,duration_manipulation_targetAtFixation,jsons/VE125_randls_38_rotated.json,http://54.235.29.9/FacialAge/BNav_EC2/DepthDuration/v2_depth_duration_MTurk/v2_DepthDuration_HTML.html#400,400,1440,789,1440,900,8-29-2022,9-12-20,54,depth_duration_stimuli/000556_2014-06-09_22-42-56_260595134347_rgbf000214-resize_1/000556_2014-06-09_22-42-56_260595134347_rgbf000214-resize_1-target.png,125,4.8415,10,2715,122,meters,jsons/VE125_randls_38_rotated.json,537901,618616,25,Woman
54,859627,DepthScenes,duration_manipulation_targetAtFixation,jsons/VE125_randls_38_rotated.json,http://54.235.29.9/FacialAge/BNav_EC2/DepthDuration/v2_depth_duration_MTurk/v2_DepthDuration_HTML.html#400,400,1440,789,1440,900,8-29-2022,9-12-20,55,depth_duration_stimuli/001158_2014-06-17_15-32-16_260595134347_rgbf000138-resize_2/001158_2014-06-17_15-32-16_260595134347_rgbf000138-resize_2-target.png,125,4.5315,8,2155,119,meters,jsons/VE125_randls_38_rotated.json,537901,618616,25,Woman
55,859627,DepthScenes,duration_manipulation_targetAtFixation,jsons/VE125_randls_38_rotated.json,http://54.235.29.9/FacialAge/BNav_EC2/DepthDuration/v2_depth_duration_MTurk/v2_DepthDuration_HTML.html#400,400,1440,789,1440,900,8-29-2022,9-12-20,56,depth_duration_stimuli/001650_2014-06-20_12-09-00_260595134347_rgbf000087-resize_3/001650_2014-06-20_12-09-00_260595134347_rgbf000087-resize_3-target.png,125,1.9505,8,3395,108,meters,jsons/VE125_randls_38_rotated.json,537901,618616,25,Woman
56,859627,DepthScenes,duration_manipulation_targetAtFixation,jsons/VE125_randls_38_rotated.json,http://54.235.29.9/FacialAge/BNav_EC2/DepthDuration/v2_depth_duration_MTurk/v2_DepthDuration_HTML.html#400,400,1440,789,1440,900,8-29-2022,9-12-20,57,depth_duration_stimuli/000682_2014-06-08_23-14-58_260595134347_rgbf000041-resize_5/000682_2014-06-08_23-14-58_260595134347_rgbf000041-resize_5-target.png,125,2.7239999999999998,0,2295,105,meters,jsons/VE125_randls_38_rotated.json,537901,618616,25,Woman
57,859627,DepthScenes,duration_manipulation_targetAtFixation,jsons/VE125_randls_38_rotated.json,http://54.235.29.9/FacialAge/BNav_EC2/DepthDuration/v2_depth_duration_MTurk/v2_DepthDuration_HTML.html#400,400,1440,789,1440,900,8-29-2022,9-12-20,58,depth_duration_stimuli/002953_2014-06-08_17-32-18_094959634447_rgbf000059-resize_5/002953_2014-06-08_17-32-18_094959634447_rgbf000059-resize_5-target.png,125,1.551,3,3158,114,meters,jsons/VE125_randls_38_rotated.json,537901,618616,25,Woman
58,859627,DepthScenes,duration_manipulation_targetAtFixation,jsons/VE125_randls_38_rotated.json,http://54.235.29.9/FacialAge/BNav_EC2/DepthDuration/v2_depth_duration_MTurk/v2_DepthDuration_HTML.html#400,400,1440,789,1440,900,8-29-2022,9-12-20,59,depth_duration_stimuli/000878_2014-06-08_22-52-45_260595134347_rgbf000045-resize_2/000878_2014-06-08_22-52-45_260595134347_rgbf000045-resize_2-target.png,125,2.092,5,2273,124,meters,jsons/VE125_randls_38_rotated.json,537901,618616,25,Woman
59,859627,DepthScenes,duration_manipulation_targetAtFixation,jsons/VE125_randls_38_rotated.json,http://54.235.29.9/FacialAge/BNav_EC2/DepthDuration/v2_depth_duration_MTurk/v2_DepthDuration_HTML.html#400,400,1440,789,1440,900,8-29-2022,9-12-20,60,depth_duration_stimuli/002568_2014-06-24_13-59-21_094959634447_rgbf000062-resize_4/002568_2014-06-24_13-59-21_094959634447_rgbf000062-resize_4-target.png,125,3.015,8,2189,127,meters,jsons/VE125_randls_38_rotated.json,537901,618616,25,Woman
60,859627,DepthScenes,duration_manipulation_targetAtFixation,jsons/VE125_randls_38_rotated.json,http://54.235.29.9/FacialAge/BNav_EC2/DepthDuration/v2_depth_duration_MTurk/v2_DepthDuration_HTML.html#400,400,1440,789,1440,900,8-29-2022,9-12-20,61,depth_duration_stimuli/003492_2014-05-21_15-50-55_094959634447_rgbf000828-resize_1/003492_2014-05-21_15-50-55_094959634447_rgbf000828-resize_1-target.png,125,4.06875,12,2842,85,meters,jsons/VE125_randls_38_rotated.json,537901,618616,25,Woman
61,859627,DepthScenes,duration_manipulation_targetAtFixation,jsons/VE125_randls_38_rotated.json,http://54.235.29.9/FacialAge/BNav_EC2/DepthDuration/v2_depth_duration_MTurk/v2_DepthDuration_HTML.html#400,400,1440,789,1440,900,8-29-2022,9-12-20,62,depth_duration_stimuli/000409_2014-06-04_19-23-33_260595134347_rgbf000067-resize_0/000409_2014-06-04_19-23-33_260595134347_rgbf000067-resize_0-target.png,125,3.7335,8,2172,125,meters,jsons/VE125_randls_38_rotated.json,537901,618616,25,Woman
62,859627,DepthScenes,duration_manipulation_targetAtFixation,jsons/VE125_randls_38_rotated.json,http://54.235.29.9/FacialAge/BNav_EC2/DepthDuration/v2_depth_duration_MTurk/v2_DepthDuration_HTML.html#400,400,1440,789,1440,900,8-29-2022,9-12-20,63,depth_duration_stimuli/002663_2014-06-13_15-50-26_094959634447_rgbf000075-resize_1/002663_2014-06-13_15-50-26_094959634447_rgbf000075-resize_1-target.png,125,4.7495,8,2594,110,meters,jsons/VE125_randls_38_rotated.json,537901,618616,25,Woman
63,859627,DepthScenes,duration_manipulation_targetAtFixation,jsons/VE125_randls_38_rotated.json,http://54.235.29.9/FacialAge/BNav_EC2/DepthDuration/v2_depth_duration_MTurk/v2_DepthDuration_HTML.html#400,400,1440,789,1440,900,8-29-2022,9-12-20,64,depth_duration_stimuli/000709_2014-06-08_13-51-55_260595134347_rgbf000068-resize_3/000709_2014-06-08_13-51-55_260595134347_rgbf000068-resize_3-target.png,125,1.8030000000000002,12,3622,138,meters,jsons/VE125_randls_38_rotated.json,537901,618616,25,Woman
64,859627,DepthScenes,duration_manipulation_targetAtFixation,jsons/VE125_randls_38_rotated.json,http://54.235.29.9/FacialAge/BNav_EC2/DepthDuration/v2_depth_duration_MTurk/v2_DepthDuration_HTML.html#400,400,1440,789,1440,900,8-29-2022,9-12-20,65,depth_duration_stimuli/002057_2014-06-24_21-00-13_260595134347_rgbf000120-resize_1/002057_2014-06-24_21-00-13_260595134347_rgbf000120-resize_1-target.png,125,2.967,5,6190,116,meters,jsons/VE125_randls_38_rotated.json,537901,618616,25,Woman
65,859627,DepthScenes,duration_manipulation_targetAtFixation,jsons/VE125_randls_38_rotated.json,http://54.235.29.9/FacialAge/BNav_EC2/DepthDuration/v2_depth_duration_MTurk/v2_DepthDuration_HTML.html#400,400,1440,789,1440,900,8-29-2022,9-12-20,66,depth_duration_stimuli/001540_2014-06-20_17-01-05_260595134347_rgbf000086-resize_2/001540_2014-06-20_17-01-05_260595134347_rgbf000086-resize-original.jpg,125,1.459,0,3104,120,meters,jsons/VE125_randls_38_rotated.json,537901,618616,25,Woman
66,859627,DepthScenes,duration_manipulation_targetAtFixation,jsons/VE125_randls_38_rotated.json,http://54.235.29.9/FacialAge/BNav_EC2/DepthDuration/v2_depth_duration_MTurk/v2_DepthDuration_HTML.html#400,400,1440,789,1440,900,8-29-2022,9-12-20,67,depth_duration_stimuli/002467_2014-06-28_20-38-07_260595134347_rgbf000026-resize_2/002467_2014-06-28_20-38-07_260595134347_rgbf000026-resize_2-target.png,125,4.742,3,2948,133,meters,jsons/VE125_randls_38_rotated.json,537901,618616,25,Woman
67,859627,DepthScenes,duration_manipulation_targetAtFixation,jsons/VE125_randls_38_rotated.json,http://54.235.29.9/FacialAge/BNav_EC2/DepthDuration/v2_depth_duration_MTurk/v2_DepthDuration_HTML.html#400,400,1440,789,1440,900,8-29-2022,9-12-20,68,depth_duration_stimuli/002570_2014-06-24_13-59-54_094959634447_rgbf000059-resize_0/002570_2014-06-24_13-59-54_094959634447_rgbf000059-resize_0-target.png,125,4.037,5,2252,125,meters,jsons/VE125_randls_38_rotated.json,537901,618616,25,Woman
68,859627,DepthScenes,duration_manipulation_targetAtFixation,jsons/VE125_randls_38_rotated.json,http://54.235.29.9/FacialAge/BNav_EC2/DepthDuration/v2_depth_duration_MTurk/v2_DepthDuration_HTML.html#400,400,1440,789,1440,900,8-29-2022,9-12-20,69,depth_duration_stimuli/003048_2014-06-15_13-49-43_094959634447_rgbf000150-resize_1/003048_2014-06-15_13-49-43_094959634447_rgbf000150-resize_1-target.png,125,4.0035,7,2183,112,meters,jsons/VE125_randls_38_rotated.json,537901,618616,25,Woman
69,859627,DepthScenes,duration_manipulation_targetAtFixation,jsons/VE125_randls_38_rotated.json,http://54.235.29.9/FacialAge/BNav_EC2/DepthDuration/v2_depth_duration_MTurk/v2_DepthDuration_HTML.html#400,400,1440,789,1440,900,8-29-2022,9-12-20,70,depth_duration_stimuli/002043_2014-06-24_20-29-38_260595134347_rgbf000039-resize_4/002043_2014-06-24_20-29-38_260595134347_rgbf000039-resize_4-target.png,125,2.8435,10,2364,121,meters,jsons/VE125_randls_38_rotated.json,537901,618616,25,Woman
70,859627,DepthScenes,duration_manipulation_targetAtFixation,jsons/VE125_randls_38_rotated.json,http://54.235.29.9/FacialAge/BNav_EC2/DepthDuration/v2_depth_duration_MTurk/v2_DepthDuration_HTML.html#400,400,1440,789,1440,900,8-29-2022,9-12-20,71,depth_duration_stimuli/000549_2014-06-08_22-10-24_260595134347_rgbf000247-resize_3/000549_2014-06-08_22-10-24_260595134347_rgbf000247-resize_3-target.png,125,1.841,2,2355,124,meters,jsons/VE125_randls_38_rotated.json,537901,618616,25,Woman
71,859627,DepthScenes,duration_manipulation_targetAtFixation,jsons/VE125_randls_38_rotated.json,http://54.235.29.9/FacialAge/BNav_EC2/DepthDuration/v2_depth_duration_MTurk/v2_DepthDuration_HTML.html#400,400,1440,789,1440,900,8-29-2022,9-12-20,72,depth_duration_stimuli/001055_2014-06-08_18-45-35_260595134347_rgbf000111-resize_4/001055_2014-06-08_18-45-35_260595134347_rgbf000111-resize_4-target.png,125,2.4290000000000003,5,1998,124,meters,jsons/VE125_randls_38_rotated.json,537901,618616,25,Woman
72,859627,DepthScenes,duration_manipulation_targetAtFixation,jsons/VE125_randls_38_rotated.json,http://54.235.29.9/FacialAge/BNav_EC2/DepthDuration/v2_depth_duration_MTurk/v2_DepthDuration_HTML.html#400,400,1440,789,1440,900,8-29-2022,9-12-20,73,depth_duration_stimuli/001132_2014-06-17_14-48-54_260595134347_rgbf000100-resize_2/001132_2014-06-17_14-48-54_260595134347_rgbf000100-resize_2-target.png,125,3.753,8,2234,139,meters,jsons/VE125_randls_38_rotated.json,537901,618616,25,Woman
73,859627,DepthScenes,duration_manipulation_targetAtFixation,jsons/VE125_randls_38_rotated.json,http://54.235.29.9/FacialAge/BNav_EC2/DepthDuration/v2_depth_duration_MTurk/v2_DepthDuration_HTML.html#400,400,1440,789,1440,900,8-29-2022,9-12-20,74,depth_duration_stimuli/001133_2014-06-17_14-49-16_260595134347_rgbf000100-resize_0/001133_2014-06-17_14-49-16_260595134347_rgbf000100-resize_0-target.png,125,4.2115,3,2684,112,meters,jsons/VE125_randls_38_rotated.json,537901,618616,25,Woman
74,859627,DepthScenes,duration_manipulation_targetAtFixation,jsons/VE125_randls_38_rotated.json,http://54.235.29.9/FacialAge/BNav_EC2/DepthDuration/v2_depth_duration_MTurk/v2_DepthDuration_HTML.html#400,400,1440,789,1440,900,8-29-2022,9-12-20,75,depth_duration_stimuli/001094_2014-06-15_17-36-00_260595134347_rgbf000205-resize_0/001094_2014-06-15_17-36-00_260595134347_rgbf000205-resize_0-target.png,125,4.2175,5,2250,127,meters,jsons/VE125_randls_38_rotated.json,537901,618616,25,Woman
75,859627,DepthScenes,duration_manipulation_targetAtFixation,jsons/VE125_randls_38_rotated.json,http://54.235.29.9/FacialAge/BNav_EC2/DepthDuration/v2_depth_duration_MTurk/v2_DepthDuration_HTML.html#400,400,1440,789,1440,900,8-29-2022,9-12-20,76,depth_duration_stimuli/000692_2014-06-08_13-09-42_260595134347_rgbf000199-resize_2/000692_2014-06-08_13-09-42_260595134347_rgbf000199-resize_2-target.png,125,3.661,8,3265,125,meters,jsons/VE125_randls_38_rotated.json,537901,618616,25,Woman
76,859627,DepthScenes,duration_manipulation_targetAtFixation,jsons/VE125_randls_38_rotated.json,http://54.235.29.9/FacialAge/BNav_EC2/DepthDuration/v2_depth_duration_MTurk/v2_DepthDuration_HTML.html#400,400,1440,789,1440,900,8-29-2022,9-12-20,77,depth_duration_stimuli/002750_2014-06-22_19-08-03_094959634447_rgbf000094-resize_4/002750_2014-06-22_19-08-03_094959634447_rgbf000094-resize_4-target.png,125,2.354,7,3108,123,meters,jsons/VE125_randls_38_rotated.json,537901,618616,25,Woman
77,859627,DepthScenes,duration_manipulation_targetAtFixation,jsons/VE125_randls_38_rotated.json,http://54.235.29.9/FacialAge/BNav_EC2/DepthDuration/v2_depth_duration_MTurk/v2_DepthDuration_HTML.html#400,400,1440,789,1440,900,8-29-2022,9-12-20,78,depth_duration_stimuli/002549_2014-06-24_13-41-39_094959634447_rgbf000022-resize_3/002549_2014-06-24_13-41-39_094959634447_rgbf000022-resize_3-target.png,125,1.476,0,3832,132,meters,jsons/VE125_randls_38_rotated.json,537901,618616,25,Woman
78,859627,DepthScenes,duration_manipulation_targetAtFixation,jsons/VE125_randls_38_rotated.json,http://54.235.29.9/FacialAge/BNav_EC2/DepthDuration/v2_depth_duration_MTurk/v2_DepthDuration_HTML.html#400,400,1440,789,1440,900,8-29-2022,9-12-20,79,depth_duration_stimuli/002995_2014-06-15_12-31-26_094959634447_rgbf000150-resize_1/002995_2014-06-15_12-31-26_094959634447_rgbf000150-resize_1-target.png,125,3.8360000000000003,5,3465,194,meters,jsons/VE125_randls_38_rotated.json,537901,618616,25,Woman
79,859627,DepthScenes,duration_manipulation_targetAtFixation,jsons/VE125_randls_38_rotated.json,http://54.235.29.9/FacialAge/BNav_EC2/DepthDuration/v2_depth_duration_MTurk/v2_DepthDuration_HTML.html#400,400,1440,789,1440,900,8-29-2022,9-12-20,80,depth_duration_stimuli/002748_2014-06-22_19-07-22_094959634447_rgbf000078-resize_1/002748_2014-06-22_19-07-22_094959634447_rgbf000078-resize_1-target.png,125,4.6705,0,2433,124,meters,jsons/VE125_randls_38_rotated.json,537901,618616,25,Woman
80,859627,DepthScenes,duration_manipulation_targetAtFixation,jsons/VE125_randls_38_rotated.json,http://54.235.29.9/FacialAge/BNav_EC2/DepthDuration/v2_depth_duration_MTurk/v2_DepthDuration_HTML.html#400,400,1440,789,1440,900,8-29-2022,9-12-20,81,depth_duration_stimuli/003010_2014-06-15_12-54-35_094959634447_rgbf000112-resize_0/003010_2014-06-15_12-54-35_094959634447_rgbf000112-resize_0-target.png,125,3.1185,5,2867,121,meters,jsons/VE125_randls_38_rotated.json,537901,618616,25,Woman
81,859627,DepthScenes,duration_manipulation_targetAtFixation,jsons/VE125_randls_38_rotated.json,http://54.235.29.9/FacialAge/BNav_EC2/DepthDuration/v2_depth_duration_MTurk/v2_DepthDuration_HTML.html#400,400,1440,789,1440,900,8-29-2022,9-12-20,82,depth_duration_stimuli/001810_2014-06-26_20-51-35_260595134347_rgbf000040-resize_3/001810_2014-06-26_20-51-35_260595134347_rgbf000040-resize_3-target.png,125,2.2525,6,2535,138,meters,jsons/VE125_randls_38_rotated.json,537901,618616,25,Woman
82,859627,DepthScenes,duration_manipulation_targetAtFixation,jsons/VE125_randls_38_rotated.json,http://54.235.29.9/FacialAge/BNav_EC2/DepthDuration/v2_depth_duration_MTurk/v2_DepthDuration_HTML.html#400,400,1440,789,1440,900,8-29-2022,9-12-20,83,depth_duration_stimuli/002323_2014-06-28_20-01-54_260595134347_rgbf000051-resize_4/002323_2014-06-28_20-01-54_260595134347_rgbf000051-resize_4-target.png,125,3.7310000000000003,2,3098,124,meters,jsons/VE125_randls_38_rotated.json,537901,618616,25,Woman
83,859627,DepthScenes,duration_manipulation_targetAtFixation,jsons/VE125_randls_38_rotated.json,http://54.235.29.9/FacialAge/BNav_EC2/DepthDuration/v2_depth_duration_MTurk/v2_DepthDuration_HTML.html#400,400,1440,789,1440,900,8-29-2022,9-12-20,84,depth_duration_stimuli/000917_2014-06-09_22-45-29_260595134347_rgbf000149-resize_3/000917_2014-06-09_22-45-29_260595134347_rgbf000149-resize_3-target.png,125,4.1865,5,2336,121,meters,jsons/VE125_randls_38_rotated.json,537901,618616,25,Woman
84,859627,DepthScenes,duration_manipulation_targetAtFixation,jsons/VE125_randls_38_rotated.json,http://54.235.29.9/FacialAge/BNav_EC2/DepthDuration/v2_depth_duration_MTurk/v2_DepthDuration_HTML.html#400,400,1440,789,1440,900,8-29-2022,9-12-20,85,depth_duration_stimuli/003228_2014-05-14_13-42-35_094959634447_rgbf000101-resize_1/003228_2014-05-14_13-42-35_094959634447_rgbf000101-resize_1-target.png,125,1.9680000000000002,3,2391,125,meters,jsons/VE125_randls_38_rotated.json,537901,618616,25,Woman
85,859627,DepthScenes,duration_manipulation_targetAtFixation,jsons/VE125_randls_38_rotated.json,http://54.235.29.9/FacialAge/BNav_EC2/DepthDuration/v2_depth_duration_MTurk/v2_DepthDuration_HTML.html#400,400,1440,789,1440,900,8-29-2022,9-12-20,86,depth_duration_stimuli/002600_2014-06-24_14-27-04_094959634447_rgbf000074-resize_2/002600_2014-06-24_14-27-04_094959634447_rgbf000074-resize_2-target.png,125,2.7575,5,2084,118,meters,jsons/VE125_randls_38_rotated.json,537901,618616,25,Woman
86,859627,DepthScenes,duration_manipulation_targetAtFixation,jsons/VE125_randls_38_rotated.json,http://54.235.29.9/FacialAge/BNav_EC2/DepthDuration/v2_depth_duration_MTurk/v2_DepthDuration_HTML.html#400,400,1440,789,1440,900,8-29-2022,9-12-20,87,depth_duration_stimuli/000457_2014-06-08_16-52-43_260595134347_rgbf000199-resize_1/000457_2014-06-08_16-52-43_260595134347_rgbf000199-resize_1-target.png,125,3.6489999999999996,7,2899,134,meters,jsons/VE125_randls_38_rotated.json,537901,618616,25,Woman
87,859627,DepthScenes,duration_manipulation_targetAtFixation,jsons/VE125_randls_38_rotated.json,http://54.235.29.9/FacialAge/BNav_EC2/DepthDuration/v2_depth_duration_MTurk/v2_DepthDuration_HTML.html#400,400,1440,789,1440,900,8-29-2022,9-12-20,88,depth_duration_stimuli/000929_2014-06-09_16-33-19_260595134347_rgbf000139-resize_0/000929_2014-06-09_16-33-19_260595134347_rgbf000139-resize_0-target.png,125,2.8680000000000003,0,2278,8,meters,jsons/VE125_randls_38_rotated.json,537901,618616,25,Woman
88,859627,DepthScenes,duration_manipulation_targetAtFixation,jsons/VE125_randls_38_rotated.json,http://54.235.29.9/FacialAge/BNav_EC2/DepthDuration/v2_depth_duration_MTurk/v2_DepthDuration_HTML.html#400,400,1440,789,1440,900,8-29-2022,9-12-20,89,depth_duration_stimuli/001571_2014-06-20_17-21-32_260595134347_rgbf000089-resize_1/001571_2014-06-20_17-21-32_260595134347_rgbf000089-resize_1-target.png,125,1.86,5,2416,130,meters,jsons/VE125_randls_38_rotated.json,537901,618616,25,Woman
89,859627,DepthScenes,duration_manipulation_targetAtFixation,jsons/VE125_randls_38_rotated.json,http://54.235.29.9/FacialAge/BNav_EC2/DepthDuration/v2_depth_duration_MTurk/v2_DepthDuration_HTML.html#400,400,1440,789,1440,900,8-29-2022,9-12-20,90,depth_duration_stimuli/002272_2014-06-28_18-53-56_260595134347_rgbf000067-resize_2/002272_2014-06-28_18-53-56_260595134347_rgbf000067-resize_2-target.png,125,1.138,3,2715,123,meters,jsons/VE125_randls_38_rotated.json,537901,618616,25,Woman
90,859627,DepthScenes,duration_manipulation_targetAtFixation,jsons/VE125_randls_38_rotated.json,http://54.235.29.9/FacialAge/BNav_EC2/DepthDuration/v2_depth_duration_MTurk/v2_DepthDuration_HTML.html#400,400,1440,789,1440,900,8-29-2022,9-12-20,91,depth_duration_stimuli/003423_2014-05-21_10-23-26_094959634447_rgbf002665-resize_2/003423_2014-05-21_10-23-26_094959634447_rgbf002665-resize_2-target.png,125,3.2575,3,2771,122,meters,jsons/VE125_randls_38_rotated.json,537901,618616,25,Woman
91,859627,DepthScenes,duration_manipulation_targetAtFixation,jsons/VE125_randls_38_rotated.json,http://54.235.29.9/FacialAge/BNav_EC2/DepthDuration/v2_depth_duration_MTurk/v2_DepthDuration_HTML.html#400,400,1440,789,1440,900,8-29-2022,9-12-20,92,depth_duration_stimuli/002905_2014-06-03_18-04-43_094959634447_rgbf000151-resize_2/002905_2014-06-03_18-04-43_094959634447_rgbf000151-resize_2-target.png,125,2.0295,3,2703,124,meters,jsons/VE125_randls_38_rotated.json,537901,618616,25,Woman
92,859627,DepthScenes,duration_manipulation_targetAtFixation,jsons/VE125_randls_38_rotated.json,http://54.235.29.9/FacialAge/BNav_EC2/DepthDuration/v2_depth_duration_MTurk/v2_DepthDuration_HTML.html#400,400,1440,789,1440,900,8-29-2022,9-12-20,93,depth_duration_stimuli/002637_2014-06-24_14-51-13_094959634447_rgbf000066-resize_4/002637_2014-06-24_14-51-13_094959634447_rgbf000066-resize_4-target.png,125,1.9955,3,2199,124,meters,jsons/VE125_randls_38_rotated.json,537901,618616,25,Woman
93,859627,DepthScenes,duration_manipulation_targetAtFixation,jsons/VE125_randls_38_rotated.json,http://54.235.29.9/FacialAge/BNav_EC2/DepthDuration/v2_depth_duration_MTurk/v2_DepthDuration_HTML.html#400,400,1440,789,1440,900,8-29-2022,9-12-20,94,depth_duration_stimuli/003534_2014-05-22_15-06-10_094959634447_rgbf000102-resize_4/003534_2014-05-22_15-06-10_094959634447_rgbf000102-resize_4-target.png,125,1.426,2,2225,126,meters,jsons/VE125_randls_38_rotated.json,537901,618616,25,Woman
94,859627,DepthScenes,duration_manipulation_targetAtFixation,jsons/VE125_randls_38_rotated.json,http://54.235.29.9/FacialAge/BNav_EC2/DepthDuration/v2_depth_duration_MTurk/v2_DepthDuration_HTML.html#400,400,1440,789,1440,900,8-29-2022,9-12-20,95,depth_duration_stimuli/000691_2014-06-08_13-08-50_260595134347_rgbf000132-resize_3/000691_2014-06-08_13-08-50_260595134347_rgbf000132-resize_3-target.png,125,4.1530000000000005,5,2133,126,meters,jsons/VE125_randls_38_rotated.json,537901,618616,25,Woman
95,859627,DepthScenes,duration_manipulation_targetAtFixation,jsons/VE125_randls_38_rotated.json,http://54.235.29.9/FacialAge/BNav_EC2/DepthDuration/v2_depth_duration_MTurk/v2_DepthDuration_HTML.html#400,400,1440,789,1440,900,8-29-2022,9-12-20,96,depth_duration_stimuli/002213_2014-06-28_18-37-58_260595134347_rgbf000055-resize_1/002213_2014-06-28_18-37-58_260595134347_rgbf000055-resize_1-target.png,125,3.62,8,2283,124,meters,jsons/VE125_randls_38_rotated.json,537901,618616,25,Woman
96,859627,DepthScenes,duration_manipulation_targetAtFixation,jsons/VE125_randls_38_rotated.json,http://54.235.29.9/FacialAge/BNav_EC2/DepthDuration/v2_depth_duration_MTurk/v2_DepthDuration_HTML.html#400,400,1440,789,1440,900,8-29-2022,9-12-20,97,depth_duration_stimuli/002340_2014-06-28_20-05-46_260595134347_rgbf000113-resize_0/002340_2014-06-28_20-05-46_260595134347_rgbf000113-resize_0-target.png,125,2.4735,4,2626,131,meters,jsons/VE125_randls_38_rotated.json,537901,618616,25,Woman
97,859627,DepthScenes,duration_manipulation_targetAtFixation,jsons/VE125_randls_38_rotated.json,http://54.235.29.9/FacialAge/BNav_EC2/DepthDuration/v2_depth_duration_MTurk/v2_DepthDuration_HTML.html#400,400,1440,789,1440,900,8-29-2022,9-12-20,98,depth_duration_stimuli/001016_2014-06-09_16-16-10_260595134347_rgbf000112-resize_5/001016_2014-06-09_16-16-10_260595134347_rgbf000112-resize_5-target.png,125,1.6565,3,2634,108,meters,jsons/VE125_randls_38_rotated.json,537901,618616,25,Woman
98,859627,DepthScenes,duration_manipulation_targetAtFixation,jsons/VE125_randls_38_rotated.json,http://54.235.29.9/FacialAge/BNav_EC2/DepthDuration/v2_depth_duration_MTurk/v2_DepthDuration_HTML.html#400,400,1440,789,1440,900,8-29-2022,9-12-20,99,depth_duration_stimuli/001222_2014-06-17_16-24-06_260595134347_rgbf000073-resize_0/001222_2014-06-17_16-24-06_260595134347_rgbf000073-resize-original.jpg,125,1.4385,0,2169,113,meters,jsons/VE125_randls_38_rotated.json,537901,618616,25,Woman
99,859627,DepthScenes,duration_manipulation_targetAtFixation,jsons/VE125_randls_38_rotated.json,http://54.235.29.9/FacialAge/BNav_EC2/DepthDuration/v2_depth_duration_MTurk/v2_DepthDuration_HTML.html#400,400,1440,789,1440,900,8-29-2022,9-12-20,100,depth_duration_stimuli/001516_2014-06-20_16-25-09_260595134347_rgbf000076-resize_2/001516_2014-06-20_16-25-09_260595134347_rgbf000076-resize_2-target.png,125,1.7445,3,2562,119,meters,jsons/VE125_randls_38_rotated.json,537901,618616,25,Woman
100,859627,DepthScenes,duration_manipulation_targetAtFixation,jsons/VE125_randls_38_rotated.json,http://54.235.29.9/FacialAge/BNav_EC2/DepthDuration/v2_depth_duration_MTurk/v2_DepthDuration_HTML.html#400,400,1440,789,1440,900,8-29-2022,9-12-20,101,depth_duration_stimuli/002118_2014-06-25_20-32-08_260595134347_rgbf000078-resize_1/002118_2014-06-25_20-32-08_260595134347_rgbf000078-resize_1-target.png,125,2.6460000000000004,5,2262,112,meters,jsons/VE125_randls_38_rotated.json,537901,618616,25,Woman
101,859627,DepthScenes,duration_manipulation_targetAtFixation,jsons/VE125_randls_38_rotated.json,http://54.235.29.9/FacialAge/BNav_EC2/DepthDuration/v2_depth_duration_MTurk/v2_DepthDuration_HTML.html#400,400,1440,789,1440,900,8-29-2022,9-12-20,102,depth_duration_stimuli/000780_2014-06-08_22-28-29_260595134347_rgbf000126-resize_1/000780_2014-06-08_22-28-29_260595134347_rgbf000126-resize_1-target.png,125,3.3825,8,2288,99,meters,jsons/VE125_randls_38_rotated.json,537901,618616,25,Woman
102,859627,DepthScenes,duration_manipulation_targetAtFixation,jsons/VE125_randls_38_rotated.json,http://54.235.29.9/FacialAge/BNav_EC2/DepthDuration/v2_depth_duration_MTurk/v2_DepthDuration_HTML.html#400,400,1440,789,1440,900,8-29-2022,9-12-20,103,depth_duration_stimuli/002445_2014-06-28_20-32-16_260595134347_rgbf000029-resize_4/002445_2014-06-28_20-32-16_260595134347_rgbf000029-resize_4-target.png,125,2.5315,3,2146,120,meters,jsons/VE125_randls_38_rotated.json,537901,618616,25,Woman
103,859627,DepthScenes,duration_manipulation_targetAtFixation,jsons/VE125_randls_38_rotated.json,http://54.235.29.9/FacialAge/BNav_EC2/DepthDuration/v2_depth_duration_MTurk/v2_DepthDuration_HTML.html#400,400,1440,789,1440,900,8-29-2022,9-12-20,104,depth_duration_stimuli/001052_2014-06-08_18-24-54_260595134347_rgbf000130-resize_1/001052_2014-06-08_18-24-54_260595134347_rgbf000130-resize_1-target.png,125,4.1045,5,2230,116,meters,jsons/VE125_randls_38_rotated.json,537901,618616,25,Woman
104,859627,DepthScenes,duration_manipulation_targetAtFixation,jsons/VE125_randls_38_rotated.json,http://54.235.29.9/FacialAge/BNav_EC2/DepthDuration/v2_depth_duration_MTurk/v2_DepthDuration_HTML.html#400,400,1440,789,1440,900,8-29-2022,9-12-20,105,depth_duration_stimuli/002988_2014-06-15_12-24-20_094959634447_rgbf000150-resize_1/002988_2014-06-15_12-24-20_094959634447_rgbf000150-resize_1-target.png,125,4.7669999999999995,5,2460,126,meters,jsons/VE125_randls_38_rotated.json,537901,618616,25,Woman
105,859627,DepthScenes,duration_manipulation_targetAtFixation,jsons/VE125_randls_38_rotated.json,http://54.235.29.9/FacialAge/BNav_EC2/DepthDuration/v2_depth_duration_MTurk/v2_DepthDuration_HTML.html#400,400,1440,789,1440,900,8-29-2022,9-12-20,106,depth_duration_stimuli/001235_2014-06-17_16-37-36_260595134347_rgbf000084-resize_4/001235_2014-06-17_16-37-36_260595134347_rgbf000084-resize_4-target.png,125,3.6605,3,2399,137,meters,jsons/VE125_randls_38_rotated.json,537901,618616,25,Woman
106,859627,DepthScenes,duration_manipulation_targetAtFixation,jsons/VE125_randls_38_rotated.json,http://54.235.29.9/FacialAge/BNav_EC2/DepthDuration/v2_depth_duration_MTurk/v2_DepthDuration_HTML.html#400,400,1440,789,1440,900,8-29-2022,9-12-20,107,depth_duration_stimuli/000788_2014-06-08_22-34-36_260595134347_rgbf000131-resize_1/000788_2014-06-08_22-34-36_260595134347_rgbf000131-resize_1-target.png,125,3.359,4,2307,123,meters,jsons/VE125_randls_38_rotated.json,537901,618616,25,Woman
107,859627,DepthScenes,duration_manipulation_targetAtFixation,jsons/VE125_randls_38_rotated.json,http://54.235.29.9/FacialAge/BNav_EC2/DepthDuration/v2_depth_duration_MTurk/v2_DepthDuration_HTML.html#400,400,1440,789,1440,900,8-29-2022,9-12-20,108,depth_duration_stimuli/001828_2014-06-26_21-40-03_260595134347_rgbf000024-resize_0/001828_2014-06-26_21-40-03_260595134347_rgbf000024-resize_0-target.png,125,4.8260000000000005,6,2709,123,meters,jsons/VE125_randls_38_rotated.json,537901,618616,25,Woman
108,859627,DepthScenes,duration_manipulation_targetAtFixation,jsons/VE125_randls_38_rotated.json,http://54.235.29.9/FacialAge/BNav_EC2/DepthDuration/v2_depth_duration_MTurk/v2_DepthDuration_HTML.html#400,400,1440,789,1440,900,8-29-2022,9-12-20,109,depth_duration_stimuli/000009_2014-05-26_14-32-05_260595134347_rgbf000034-resize_3/000009_2014-05-26_14-32-05_260595134347_rgbf000034-resize_3-target.png,125,3.8715,6,2675,121,meters,jsons/VE125_randls_38_rotated.json,537901,618616,25,Woman
109,859627,DepthScenes,duration_manipulation_targetAtFixation,jsons/VE125_randls_38_rotated.json,http://54.235.29.9/FacialAge/BNav_EC2/DepthDuration/v2_depth_duration_MTurk/v2_DepthDuration_HTML.html#400,400,1440,789,1440,900,8-29-2022,9-12-20,110,depth_duration_stimuli/001450_2014-06-19_17-02-03_260595134347_rgbf000203-resize_4/001450_2014-06-19_17-02-03_260595134347_rgbf000203-resize_4-target.png,125,4.0106666666667,8,2681,115,meters,jsons/VE125_randls_38_rotated.json,537901,618616,25,Woman
110,859627,DepthScenes,duration_manipulation_targetAtFixation,jsons/VE125_randls_38_rotated.json,http://54.235.29.9/FacialAge/BNav_EC2/DepthDuration/v2_depth_duration_MTurk/v2_DepthDuration_HTML.html#400,400,1440,789,1440,900,8-29-2022,9-12-20,111,depth_duration_stimuli/001449_2014-06-19_17-01-27_260595134347_rgbf000116-resize_2/001449_2014-06-19_17-01-27_260595134347_rgbf000116-resize_2-target.png,125,3.452,5,2425,131,meters,jsons/VE125_randls_38_rotated.json,537901,618616,25,Woman
111,859627,DepthScenes,duration_manipulation_targetAtFixation,jsons/VE125_randls_38_rotated.json,http://54.235.29.9/FacialAge/BNav_EC2/DepthDuration/v2_depth_duration_MTurk/v2_DepthDuration_HTML.html#400,400,1440,789,1440,900,8-29-2022,9-12-20,112,depth_duration_stimuli/001815_2014-06-26_20-52-55_260595134347_rgbf000020-resize_0/001815_2014-06-26_20-52-55_260595134347_rgbf000020-resize_0-target.png,125,3.3865,3,4730,139,meters,jsons/VE125_randls_38_rotated.json,537901,618616,25,Woman
112,859627,DepthScenes,duration_manipulation_targetAtFixation,jsons/VE125_randls_38_rotated.json,http://54.235.29.9/FacialAge/BNav_EC2/DepthDuration/v2_depth_duration_MTurk/v2_DepthDuration_HTML.html#400,400,1440,789,1440,900,8-29-2022,9-12-20,113,depth_duration_stimuli/001808_2014-06-26_20-50-58_260595134347_rgbf000029-resize_1/001808_2014-06-26_20-50-58_260595134347_rgbf000029-resize_1-target.png,125,4.249,5,2220,122,meters,jsons/VE125_randls_38_rotated.json,537901,618616,25,Woman
113,859627,DepthScenes,duration_manipulation_targetAtFixation,jsons/VE125_randls_38_rotated.json,http://54.235.29.9/FacialAge/BNav_EC2/DepthDuration/v2_depth_duration_MTurk/v2_DepthDuration_HTML.html#400,400,1440,789,1440,900,8-29-2022,9-12-20,114,depth_duration_stimuli/001136_2014-06-17_15-19-41_260595134347_rgbf000076-resize_3/001136_2014-06-17_15-19-41_260595134347_rgbf000076-resize_3-target.png,125,1.8655,12,2902,117,meters,jsons/VE125_randls_38_rotated.json,537901,618616,25,Woman
114,859627,DepthScenes,duration_manipulation_targetAtFixation,jsons/VE125_randls_38_rotated.json,http://54.235.29.9/FacialAge/BNav_EC2/DepthDuration/v2_depth_duration_MTurk/v2_DepthDuration_HTML.html#400,400,1440,789,1440,900,8-29-2022,9-12-20,115,depth_duration_stimuli/001164_2014-06-17_15-35-46_260595134347_rgbf000085-resize_3/001164_2014-06-17_15-35-46_260595134347_rgbf000085-resize_3-target.png,125,2.354,8,2454,131,meters,jsons/VE125_randls_38_rotated.json,537901,618616,25,Woman
115,859627,DepthScenes,duration_manipulation_targetAtFixation,jsons/VE125_randls_38_rotated.json,http://54.235.29.9/FacialAge/BNav_EC2/DepthDuration/v2_depth_duration_MTurk/v2_DepthDuration_HTML.html#400,400,1440,789,1440,900,8-29-2022,9-12-20,116,depth_duration_stimuli/002444_2014-06-28_20-32-08_260595134347_rgbf000027-resize_0/002444_2014-06-28_20-32-08_260595134347_rgbf000027-resize_0-target.png,125,4.388999999999999,8,2666,205,meters,jsons/VE125_randls_38_rotated.json,537901,618616,25,Woman
116,859627,DepthScenes,duration_manipulation_targetAtFixation,jsons/VE125_randls_38_rotated.json,http://54.235.29.9/FacialAge/BNav_EC2/DepthDuration/v2_depth_duration_MTurk/v2_DepthDuration_HTML.html#400,400,1440,789,1440,900,8-29-2022,9-12-20,117,depth_duration_stimuli/000436_2014-06-09_22-25-11_260595134347_rgbf000137-resize_1/000436_2014-06-09_22-25-11_260595134347_rgbf000137-resize_1-target.png,125,4.0705,5,2579,125,meters,jsons/VE125_randls_38_rotated.json,537901,618616,25,Woman
117,859627,DepthScenes,duration_manipulation_targetAtFixation,jsons/VE125_randls_38_rotated.json,http://54.235.29.9/FacialAge/BNav_EC2/DepthDuration/v2_depth_duration_MTurk/v2_DepthDuration_HTML.html#400,400,1440,789,1440,900,8-29-2022,9-12-20,118,depth_duration_stimuli/002639_2014-06-24_14-51-37_094959634447_rgbf000074-resize_4/002639_2014-06-24_14-51-37_094959634447_rgbf000074-resize_4-target.png,125,4.0375,3,2485,118,meters,jsons/VE125_randls_38_rotated.json,537901,618616,25,Woman
118,859627,DepthScenes,duration_manipulation_targetAtFixation,jsons/VE125_randls_38_rotated.json,http://54.235.29.9/FacialAge/BNav_EC2/DepthDuration/v2_depth_duration_MTurk/v2_DepthDuration_HTML.html#400,400,1440,789,1440,900,8-29-2022,9-12-20,119,depth_duration_stimuli/003292_2014-05-14_21-53-49_094959634447_rgbf000100-resize_2/003292_2014-05-14_21-53-49_094959634447_rgbf000100-resize_2-target.png,125,3.4815,3,2750,114,meters,jsons/VE125_randls_38_rotated.json,537901,618616,25,Woman
119,859627,DepthScenes,duration_manipulation_targetAtFixation,jsons/VE125_randls_38_rotated.json,http://54.235.29.9/FacialAge/BNav_EC2/DepthDuration/v2_depth_duration_MTurk/v2_DepthDuration_HTML.html#400,400,1440,789,1440,900,8-29-2022,9-12-20,120,depth_duration_stimuli/000787_2014-06-08_22-33-53_260595134347_rgbf000175-resize_1/000787_2014-06-08_22-33-53_260595134347_rgbf000175-resize-original.jpg,125,4.784,0,2524,87,meters,jsons/VE125_randls_38_rotated.json,537901,618616,25,Woman
120,859627,DepthScenes,duration_manipulation_targetAtFixation,jsons/VE125_randls_38_rotated.json,http://54.235.29.9/FacialAge/BNav_EC2/DepthDuration/v2_depth_duration_MTurk/v2_DepthDuration_HTML.html#400,400,1440,789,1440,900,8-29-2022,9-12-20,121,depth_duration_stimuli/000137_2014-05-20_17-04-49_260595134347_rgbf000120-resize_1/000137_2014-05-20_17-04-49_260595134347_rgbf000120-resize_1-target.png,125,3.786,3,3073,123,meters,jsons/VE125_randls_38_rotated.json,537901,618616,25,Woman
121,859627,DepthScenes,duration_manipulation_targetAtFixation,jsons/VE125_randls_38_rotated.json,http://54.235.29.9/FacialAge/BNav_EC2/DepthDuration/v2_depth_duration_MTurk/v2_DepthDuration_HTML.html#400,400,1440,789,1440,900,8-29-2022,9-12-20,122,depth_duration_stimuli/000736_2014-06-08_18-24-15_260595134347_rgbf000206-resize_3/000736_2014-06-08_18-24-15_260595134347_rgbf000206-resize_3-target.png,125,3.515,5,2463,124,meters,jsons/VE125_randls_38_rotated.json,537901,618616,25,Woman
122,859627,DepthScenes,duration_manipulation_targetAtFixation,jsons/VE125_randls_38_rotated.json,http://54.235.29.9/FacialAge/BNav_EC2/DepthDuration/v2_depth_duration_MTurk/v2_DepthDuration_HTML.html#400,400,1440,789,1440,900,8-29-2022,9-12-20,123,depth_duration_stimuli/001617_2014-06-20_11-35-32_260595134347_rgbf000066-resize_1/001617_2014-06-20_11-35-32_260595134347_rgbf000066-resize_1-target.png,125,3.7910000000000004,8,2648,129,meters,jsons/VE125_randls_38_rotated.json,537901,618616,25,Woman
123,859627,DepthScenes,duration_manipulation_targetAtFixation,jsons/VE125_randls_38_rotated.json,http://54.235.29.9/FacialAge/BNav_EC2/DepthDuration/v2_depth_duration_MTurk/v2_DepthDuration_HTML.html#400,400,1440,789,1440,900,8-29-2022,9-12-20,124,depth_duration_stimuli/001806_2014-06-26_20-50-20_260595134347_rgbf000091-resize_1/001806_2014-06-26_20-50-20_260595134347_rgbf000091-resize_1-target.png,125,2.7305,3,2478,125,meters,jsons/VE125_randls_38_rotated.json,537901,618616,25,Woman
124,859627,DepthScenes,duration_manipulation_targetAtFixation,jsons/VE125_randls_38_rotated.json,http://54.235.29.9/FacialAge/BNav_EC2/DepthDuration/v2_depth_duration_MTurk/v2_DepthDuration_HTML.html#400,400,1440,789,1440,900,8-29-2022,9-12-20,125,depth_duration_stimuli/000665_2014-06-09_20-42-35_260595134347_rgbf000110-resize_1/000665_2014-06-09_20-42-35_260595134347_rgbf000110-resize_1-target.png,125,3.057,5,2583,119,meters,jsons/VE125_randls_38_rotated.json,537901,618616,25,Woman
125,859627,DepthScenes,duration_manipulation_targetAtFixation,jsons/VE125_randls_38_rotated.json,http://54.235.29.9/FacialAge/BNav_EC2/DepthDuration/v2_depth_duration_MTurk/v2_DepthDuration_HTML.html#400,400,1440,789,1440,900,8-29-2022,9-12-20,126,depth_duration_stimuli/001150_2014-06-17_15-27-34_260595134347_rgbf000108-resize_2/001150_2014-06-17_15-27-34_260595134347_rgbf000108-resize_2-target.png,125,4.0325,8,2258,122,meters,jsons/VE125_randls_38_rotated.json,537901,618616,25,Woman
126,859627,DepthScenes,duration_manipulation_targetAtFixation,jsons/VE125_randls_38_rotated.json,http://54.235.29.9/FacialAge/BNav_EC2/DepthDuration/v2_depth_duration_MTurk/v2_DepthDuration_HTML.html#400,400,1440,789,1440,900,8-29-2022,9-12-20,127,depth_duration_stimuli/000742_2014-06-08_18-48-09_260595134347_rgbf000164-resize_4/000742_2014-06-08_18-48-09_260595134347_rgbf000164-resize_4-target.png,125,4.632,8,2514,124,meters,jsons/VE125_randls_38_rotated.json,537901,618616,25,Woman
127,859627,DepthScenes,duration_manipulation_targetAtFixation,jsons/VE125_randls_38_rotated.json,http://54.235.29.9/FacialAge/BNav_EC2/DepthDuration/v2_depth_duration_MTurk/v2_DepthDuration_HTML.html#400,400,1440,789,1440,900,8-29-2022,9-12-20,128,depth_duration_stimuli/001066_2014-06-08_22-03-20_260595134347_rgbf000066-resize_4/001066_2014-06-08_22-03-20_260595134347_rgbf000066-resize_4-target.png,125,4.2330000000000005,10,2784,110,meters,jsons/VE125_randls_38_rotated.json,537901,618616,25,Woman
128,859627,DepthScenes,duration_manipulation_targetAtFixation,jsons/VE125_randls_38_rotated.json,http://54.235.29.9/FacialAge/BNav_EC2/DepthDuration/v2_depth_duration_MTurk/v2_DepthDuration_HTML.html#400,400,1440,789,1440,900,8-29-2022,9-12-20,129,depth_duration_stimuli/002657_2014-06-13_15-29-54_094959634447_rgbf000150-resize_1/002657_2014-06-13_15-29-54_094959634447_rgbf000150-resize_1-target.png,125,4.919,10,2329,121,meters,jsons/VE125_randls_38_rotated.json,537901,618616,25,Woman
129,859627,DepthScenes,duration_manipulation_targetAtFixation,jsons/VE125_randls_38_rotated.json,http://54.235.29.9/FacialAge/BNav_EC2/DepthDuration/v2_depth_duration_MTurk/v2_DepthDuration_HTML.html#400,400,1440,789,1440,900,8-29-2022,9-12-20,130,depth_duration_stimuli/002375_2014-06-28_20-13-44_260595134347_rgbf000032-resize_1/002375_2014-06-28_20-13-44_260595134347_rgbf000032-resize_1-target.png,125,4.0175,0,2529,0,meters,jsons/VE125_randls_38_rotated.json,537901,618616,25,Woman
130,859627,DepthScenes,duration_manipulation_targetAtFixation,jsons/VE125_randls_38_rotated.json,http://54.235.29.9/FacialAge/BNav_EC2/DepthDuration/v2_depth_duration_MTurk/v2_DepthDuration_HTML.html#400,400,1440,789,1440,900,8-29-2022,9-12-20,131,depth_duration_stimuli/002136_2014-06-25_21-18-03_260595134347_rgbf000109-resize_3/002136_2014-06-25_21-18-03_260595134347_rgbf000109-resize_3-target.png,125,1.9569999999999999,10,18273,122,meters,jsons/VE125_randls_38_rotated.json,537901,618616,25,Woman
131,859627,DepthScenes,duration_manipulation_targetAtFixation,jsons/VE125_randls_38_rotated.json,http://54.235.29.9/FacialAge/BNav_EC2/DepthDuration/v2_depth_duration_MTurk/v2_DepthDuration_HTML.html#400,400,1440,789,1440,900,8-29-2022,9-12-20,132,depth_duration_stimuli/002964_2014-06-08_17-46-11_094959634447_rgbf000091-resize_4/002964_2014-06-08_17-46-11_094959634447_rgbf000091-resize_4-target.png,125,1.6909999999999998,5,2392,123,meters,jsons/VE125_randls_38_rotated.json,537901,618616,25,Woman
132,859627,DepthScenes,duration_manipulation_targetAtFixation,jsons/VE125_randls_38_rotated.json,http://54.235.29.9/FacialAge/BNav_EC2/DepthDuration/v2_depth_duration_MTurk/v2_DepthDuration_HTML.html#400,400,1440,789,1440,900,8-29-2022,9-12-20,133,depth_duration_stimuli/000109_2014-05-14_23-41-52_260595134347_rgbf000035-resize_9/000109_2014-05-14_23-41-52_260595134347_rgbf000035-resize_9-target.png,125,1.3545,3,2409,108,meters,jsons/VE125_randls_38_rotated.json,537901,618616,25,Woman
133,859627,DepthScenes,duration_manipulation_targetAtFixation,jsons/VE125_randls_38_rotated.json,http://54.235.29.9/FacialAge/BNav_EC2/DepthDuration/v2_depth_duration_MTurk/v2_DepthDuration_HTML.html#400,400,1440,789,1440,900,8-29-2022,9-12-20,134,depth_duration_stimuli/000470_2014-06-09_19-42-40_260595134347_rgbf000094-resize_1/000470_2014-06-09_19-42-40_260595134347_rgbf000094-resize_1-target.png,125,1.831,5,2293,132,meters,jsons/VE125_randls_38_rotated.json,537901,618616,25,Woman
134,859627,DepthScenes,duration_manipulation_targetAtFixation,jsons/VE125_randls_38_rotated.json,http://54.235.29.9/FacialAge/BNav_EC2/DepthDuration/v2_depth_duration_MTurk/v2_DepthDuration_HTML.html#400,400,1440,789,1440,900,8-29-2022,9-12-20,135,depth_duration_stimuli/000375_2014-06-08_11-17-29_260595134347_rgbf000133-resize_2/000375_2014-06-08_11-17-29_260595134347_rgbf000133-resize-original.jpg,125,4.718,0,2146,117,meters,jsons/VE125_randls_38_rotated.json,537901,618616,25,Woman
135,859627,DepthScenes,duration_manipulation_targetAtFixation,jsons/VE125_randls_38_rotated.json,http://54.235.29.9/FacialAge/BNav_EC2/DepthDuration/v2_depth_duration_MTurk/v2_DepthDuration_HTML.html#400,400,1440,789,1440,900,8-29-2022,9-12-20,136,depth_duration_stimuli/001447_2014-06-19_17-00-32_260595134347_rgbf000082-resize_5/001447_2014-06-19_17-00-32_260595134347_rgbf000082-resize_5-target.png,125,4.13775,5,2235,151,meters,jsons/VE125_randls_38_rotated.json,537901,618616,25,Woman
136,859627,DepthScenes,duration_manipulation_targetAtFixation,jsons/VE125_randls_38_rotated.json,http://54.235.29.9/FacialAge/BNav_EC2/DepthDuration/v2_depth_duration_MTurk/v2_DepthDuration_HTML.html#400,400,1440,789,1440,900,8-29-2022,9-12-20,137,depth_duration_stimuli/000447_2014-06-08_16-15-46_260595134347_rgbf000130-resize_1/000447_2014-06-08_16-15-46_260595134347_rgbf000130-resize_1-target.png,125,4.479,8,2276,123,meters,jsons/VE125_randls_38_rotated.json,537901,618616,25,Woman
137,859627,DepthScenes,duration_manipulation_targetAtFixation,jsons/VE125_randls_38_rotated.json,http://54.235.29.9/FacialAge/BNav_EC2/DepthDuration/v2_depth_duration_MTurk/v2_DepthDuration_HTML.html#400,400,1440,789,1440,900,8-29-2022,9-12-20,138,depth_duration_stimuli/000191_2014-05-12_17-07-38_260595134347_rgbf000199-resize_0/000191_2014-05-12_17-07-38_260595134347_rgbf000199-resize_0-target.png,125,3.7995,10,2473,122,meters,jsons/VE125_randls_38_rotated.json,537901,618616,25,Woman
138,859627,DepthScenes,duration_manipulation_targetAtFixation,jsons/VE125_randls_38_rotated.json,http://54.235.29.9/FacialAge/BNav_EC2/DepthDuration/v2_depth_duration_MTurk/v2_DepthDuration_HTML.html#400,400,1440,789,1440,900,8-29-2022,9-12-20,139,depth_duration_stimuli/000493_2014-06-09_21-01-18_260595134347_rgbf000196-resize_3/000493_2014-06-09_21-01-18_260595134347_rgbf000196-resize_3-target.png,125,3.44,8,2481,123,meters,jsons/VE125_randls_38_rotated.json,537901,618616,25,Woman
139,859627,DepthScenes,duration_manipulation_targetAtFixation,jsons/VE125_randls_38_rotated.json,http://54.235.29.9/FacialAge/BNav_EC2/DepthDuration/v2_depth_duration_MTurk/v2_DepthDuration_HTML.html#400,400,1440,789,1440,900,8-29-2022,9-12-20,140,depth_duration_stimuli/000749_2014-06-08_21-55-06_260595134347_rgbf000070-resize_2/000749_2014-06-08_21-55-06_260595134347_rgbf000070-resize_2-target.png,125,2.331,8,3116,120,meters,jsons/VE125_randls_38_rotated.json,537901,618616,25,Woman
140,859627,DepthScenes,duration_manipulation_targetAtFixation,jsons/VE125_randls_38_rotated.json,http://54.235.29.9/FacialAge/BNav_EC2/DepthDuration/v2_depth_duration_MTurk/v2_DepthDuration_HTML.html#400,400,1440,789,1440,900,8-29-2022,9-12-20,141,depth_duration_stimuli/002788_2014-06-22_19-36-03_094959634447_rgbf000088-resize_2/002788_2014-06-22_19-36-03_094959634447_rgbf000088-resize_2-target.png,125,1.6465,2,2959,124,meters,jsons/VE125_randls_38_rotated.json,537901,618616,25,Woman
141,859627,DepthScenes,duration_manipulation_targetAtFixation,jsons/VE125_randls_38_rotated.json,http://54.235.29.9/FacialAge/BNav_EC2/DepthDuration/v2_depth_duration_MTurk/v2_DepthDuration_HTML.html#400,400,1440,789,1440,900,8-29-2022,9-12-20,142,depth_duration_stimuli/002949_2014-06-26_15-57-42_094959634447_rgbf000079-resize_1/002949_2014-06-26_15-57-42_094959634447_rgbf000079-resize_1-target.png,125,1.8915,5,2616,151,meters,jsons/VE125_randls_38_rotated.json,537901,618616,25,Woman
142,859627,DepthScenes,duration_manipulation_targetAtFixation,jsons/VE125_randls_38_rotated.json,http://54.235.29.9/FacialAge/BNav_EC2/DepthDuration/v2_depth_duration_MTurk/v2_DepthDuration_HTML.html#400,400,1440,789,1440,900,8-29-2022,9-12-20,143,depth_duration_stimuli/000522_2014-06-08_13-35-06_260595134347_rgbf000244-resize_1/000522_2014-06-08_13-35-06_260595134347_rgbf000244-resize_1-target.png,125,2.3715,12,2742,123,meters,jsons/VE125_randls_38_rotated.json,537901,618616,25,Woman
143,859627,DepthScenes,duration_manipulation_targetAtFixation,jsons/VE125_randls_38_rotated.json,http://54.235.29.9/FacialAge/BNav_EC2/DepthDuration/v2_depth_duration_MTurk/v2_DepthDuration_HTML.html#400,400,1440,789,1440,900,8-29-2022,9-12-20,144,depth_duration_stimuli/001214_2014-06-17_16-13-55_260595134347_rgbf000111-resize_0/001214_2014-06-17_16-13-55_260595134347_rgbf000111-resize_0-target.png,125,2.6505,12,9727,119,meters,jsons/VE125_randls_38_rotated.json,537901,618616,25,Woman
144,859627,DepthScenes,duration_manipulation_targetAtFixation,jsons/VE125_randls_38_rotated.json,http://54.235.29.9/FacialAge/BNav_EC2/DepthDuration/v2_depth_duration_MTurk/v2_DepthDuration_HTML.html#400,400,1440,789,1440,900,8-29-2022,9-12-20,145,depth_duration_stimuli/000810_2014-06-08_17-20-01_260595134347_rgbf000105-resize_0/000810_2014-06-08_17-20-01_260595134347_rgbf000105-resize_0-target.png,125,1.4865,10,2501,118,meters,jsons/VE125_randls_38_rotated.json,537901,618616,25,Woman
145,859627,DepthScenes,duration_manipulation_targetAtFixation,jsons/VE125_randls_38_rotated.json,http://54.235.29.9/FacialAge/BNav_EC2/DepthDuration/v2_depth_duration_MTurk/v2_DepthDuration_HTML.html#400,400,1440,789,1440,900,8-29-2022,9-12-20,146,depth_duration_stimuli/003587_2014-05-23_16-48-02_094959634447_rgbf002384-resize_2/003587_2014-05-23_16-48-02_094959634447_rgbf002384-resize_2-target.png,125,1.357,5,2567,124,meters,jsons/VE125_randls_38_rotated.json,537901,618616,25,Woman
146,859627,DepthScenes,duration_manipulation_targetAtFixation,jsons/VE125_randls_38_rotated.json,http://54.235.29.9/FacialAge/BNav_EC2/DepthDuration/v2_depth_duration_MTurk/v2_DepthDuration_HTML.html#400,400,1440,789,1440,900,8-29-2022,9-12-20,147,depth_duration_stimuli/001167_2014-06-17_15-38-07_260595134347_rgbf000108-resize_0/001167_2014-06-17_15-38-07_260595134347_rgbf000108-resize_0-target.png,125,1.8505,8,2225,114,meters,jsons/VE125_randls_38_rotated.json,537901,618616,25,Woman
147,859627,DepthScenes,duration_manipulation_targetAtFixation,jsons/VE125_randls_38_rotated.json,http://54.235.29.9/FacialAge/BNav_EC2/DepthDuration/v2_depth_duration_MTurk/v2_DepthDuration_HTML.html#400,400,1440,789,1440,900,8-29-2022,9-12-20,148,depth_duration_stimuli/002545_2014-06-24_13-38-53_094959634447_rgbf000080-resize_4/002545_2014-06-24_13-38-53_094959634447_rgbf000080-resize_4-target.png,125,1.9205,3,2754,120,meters,jsons/VE125_randls_38_rotated.json,537901,618616,25,Woman
148,859627,DepthScenes,duration_manipulation_targetAtFixation,jsons/VE125_randls_38_rotated.json,http://54.235.29.9/FacialAge/BNav_EC2/DepthDuration/v2_depth_duration_MTurk/v2_DepthDuration_HTML.html#400,400,1440,789,1440,900,8-29-2022,9-12-20,149,depth_duration_stimuli/001092_2014-06-15_17-34-58_260595134347_rgbf000171-resize_3/001092_2014-06-15_17-34-58_260595134347_rgbf000171-resize_3-target.png,125,2.6935,5,2163,126,meters,jsons/VE125_randls_38_rotated.json,537901,618616,25,Woman
149,859627,DepthScenes,duration_manipulation_targetAtFixation,jsons/VE125_randls_38_rotated.json,http://54.235.29.9/FacialAge/BNav_EC2/DepthDuration/v2_depth_duration_MTurk/v2_DepthDuration_HTML.html#400,400,1440,789,1440,900,8-29-2022,9-12-20,150,depth_duration_stimuli/002425_2014-06-28_20-27-29_260595134347_rgbf000031-resize_8/002425_2014-06-28_20-27-29_260595134347_rgbf000031-resize_8-target.png,125,3.8960000000000004,5,2521,114,meters,jsons/VE125_randls_38_rotated.json,537901,618616,25,Woman
150,859627,DepthScenes,duration_manipulation_targetAtFixation,jsons/VE125_randls_38_rotated.json,http://54.235.29.9/FacialAge/BNav_EC2/DepthDuration/v2_depth_duration_MTurk/v2_DepthDuration_HTML.html#400,400,1440,789,1440,900,8-29-2022,9-12-20,151,depth_duration_stimuli/000642_2014-06-08_16-59-25_260595134347_rgbf000098-resize_2/000642_2014-06-08_16-59-25_260595134347_rgbf000098-resize_2-target.png,125,2.8815,8,2188,128,meters,jsons/VE125_randls_38_rotated.json,537901,618616,25,Woman
151,859627,DepthScenes,duration_manipulation_targetAtFixation,jsons/VE125_randls_38_rotated.json,http://54.235.29.9/FacialAge/BNav_EC2/DepthDuration/v2_depth_duration_MTurk/v2_DepthDuration_HTML.html#400,400,1440,789,1440,900,8-29-2022,9-12-20,152,depth_duration_stimuli/000569_2014-06-09_22-51-47_260595134347_rgbf000141-resize_3/000569_2014-06-09_22-51-47_260595134347_rgbf000141-resize-original.jpg,125,4.512,0,3050,125,meters,jsons/VE125_randls_38_rotated.json,537901,618616,25,Woman
152,859627,DepthScenes,duration_manipulation_targetAtFixation,jsons/VE125_randls_38_rotated.json,http://54.235.29.9/FacialAge/BNav_EC2/DepthDuration/v2_depth_duration_MTurk/v2_DepthDuration_HTML.html#400,400,1440,789,1440,900,8-29-2022,9-12-20,153,depth_duration_stimuli/001584_2014-06-20_11-07-43_260595134347_rgbf000002-resize_1/001584_2014-06-20_11-07-43_260595134347_rgbf000002-resize_1-target.png,125,3.53,5,2400,121,meters,jsons/VE125_randls_38_rotated.json,537901,618616,25,Woman
153,859627,DepthScenes,duration_manipulation_targetAtFixation,jsons/VE125_randls_38_rotated.json,http://54.235.29.9/FacialAge/BNav_EC2/DepthDuration/v2_depth_duration_MTurk/v2_DepthDuration_HTML.html#400,400,1440,789,1440,900,8-29-2022,9-12-20,154,depth_duration_stimuli/003621_2014-05-23_18-06-08_094959634447_rgbf000101-resize_1/003621_2014-05-23_18-06-08_094959634447_rgbf000101-resize_1-target.png,125,3.9835,2,2602,129,meters,jsons/VE125_randls_38_rotated.json,537901,618616,25,Woman
154,859627,DepthScenes,duration_manipulation_targetAtFixation,jsons/VE125_randls_38_rotated.json,http://54.235.29.9/FacialAge/BNav_EC2/DepthDuration/v2_depth_duration_MTurk/v2_DepthDuration_HTML.html#400,400,1440,789,1440,900,8-29-2022,9-12-20,155,depth_duration_stimuli/002199_2014-06-28_18-33-56_260595134347_rgbf000074-resize_0/002199_2014-06-28_18-33-56_260595134347_rgbf000074-resize_0-target.png,125,1.996,3,3858,116,meters,jsons/VE125_randls_38_rotated.json,537901,618616,25,Woman
155,859627,DepthScenes,duration_manipulation_targetAtFixation,jsons/VE125_randls_38_rotated.json,http://54.235.29.9/FacialAge/BNav_EC2/DepthDuration/v2_depth_duration_MTurk/v2_DepthDuration_HTML.html#400,400,1440,789,1440,900,8-29-2022,9-12-20,156,depth_duration_stimuli/001056_2014-06-08_18-46-44_260595134347_rgbf000068-resize_0/001056_2014-06-08_18-46-44_260595134347_rgbf000068-resize_0-target.png,125,2.6625,5,2461,128,meters,jsons/VE125_randls_38_rotated.json,537901,618616,25,Woman
156,859627,DepthScenes,duration_manipulation_targetAtFixation,jsons/VE125_randls_38_rotated.json,http://54.235.29.9/FacialAge/BNav_EC2/DepthDuration/v2_depth_duration_MTurk/v2_DepthDuration_HTML.html#400,400,1440,789,1440,900,8-29-2022,9-12-20,157,depth_duration_stimuli/002875_2014-06-01_15-19-00_094959634447_rgbf000151-resize_1/002875_2014-06-01_15-19-00_094959634447_rgbf000151-resize_1-target.png,125,1.9675,8,2383,121,meters,jsons/VE125_randls_38_rotated.json,537901,618616,25,Woman
157,859627,DepthScenes,duration_manipulation_targetAtFixation,jsons/VE125_randls_38_rotated.json,http://54.235.29.9/FacialAge/BNav_EC2/DepthDuration/v2_depth_duration_MTurk/v2_DepthDuration_HTML.html#400,400,1440,789,1440,900,8-29-2022,9-12-20,158,depth_duration_stimuli/001011_2014-06-08_23-18-54_260595134347_rgbf000044-resize_4/001011_2014-06-08_23-18-54_260595134347_rgbf000044-resize_4-target.png,125,2.4730000000000003,5,2811,129,meters,jsons/VE125_randls_38_rotated.json,537901,618616,25,Woman
158,859627,DepthScenes,duration_manipulation_targetAtFixation,jsons/VE125_randls_38_rotated.json,http://54.235.29.9/FacialAge/BNav_EC2/DepthDuration/v2_depth_duration_MTurk/v2_DepthDuration_HTML.html#400,400,1440,789,1440,900,8-29-2022,9-12-20,159,depth_duration_stimuli/000103_2014-05-14_22-01-17_260595134347_rgbf000152-resize_5/000103_2014-05-14_22-01-17_260595134347_rgbf000152-resize_5-target.png,125,1.993,7,2650,125,meters,jsons/VE125_randls_38_rotated.json,537901,618616,25,Woman
159,859627,DepthScenes,duration_manipulation_targetAtFixation,jsons/VE125_randls_38_rotated.json,http://54.235.29.9/FacialAge/BNav_EC2/DepthDuration/v2_depth_duration_MTurk/v2_DepthDuration_HTML.html#400,400,1440,789,1440,900,8-29-2022,9-12-20,160,depth_duration_stimuli/001555_2014-06-20_17-12-10_260595134347_rgbf000065-resize_4/001555_2014-06-20_17-12-10_260595134347_rgbf000065-resize_4-target.png,125,1.633,5,2604,123,meters,jsons/VE125_randls_38_rotated.json,537901,618616,25,Woman
160,859627,DepthScenes,duration_manipulation_targetAtFixation,jsons/VE125_randls_38_rotated.json,http://54.235.29.9/FacialAge/BNav_EC2/DepthDuration/v2_depth_duration_MTurk/v2_DepthDuration_HTML.html#400,400,1440,789,1440,900,8-29-2022,9-12-20,161,depth_duration_stimuli/000635_2014-06-08_16-38-42_260595134347_rgbf000106-resize_1/000635_2014-06-08_16-38-42_260595134347_rgbf000106-resize_1-target.png,125,2.074,6,2522,119,meters,jsons/VE125_randls_38_rotated.json,537901,618616,25,Woman
161,859627,DepthScenes,duration_manipulation_targetAtFixation,jsons/VE125_randls_38_rotated.json,http://54.235.29.9/FacialAge/BNav_EC2/DepthDuration/v2_depth_duration_MTurk/v2_DepthDuration_HTML.html#400,400,1440,789,1440,900,8-29-2022,9-12-20,162,depth_duration_stimuli/002279_2014-06-28_18-55-32_260595134347_rgbf000040-resize_5/002279_2014-06-28_18-55-32_260595134347_rgbf000040-resize_5-target.png,125,1.5043333333333,5,2572,116,meters,jsons/VE125_randls_38_rotated.json,537901,618616,25,Woman
162,859627,DepthScenes,duration_manipulation_targetAtFixation,jsons/VE125_randls_38_rotated.json,http://54.235.29.9/FacialAge/BNav_EC2/DepthDuration/v2_depth_duration_MTurk/v2_DepthDuration_HTML.html#400,400,1440,789,1440,900,8-29-2022,9-12-20,163,depth_duration_stimuli/000502_2014-06-08_23-02-32_260595134347_rgbf000063-resize_4/000502_2014-06-08_23-02-32_260595134347_rgbf000063-resize_4-target.png,125,2.431,3,2339,128,meters,jsons/VE125_randls_38_rotated.json,537901,618616,25,Woman
163,859627,DepthScenes,duration_manipulation_targetAtFixation,jsons/VE125_randls_38_rotated.json,http://54.235.29.9/FacialAge/BNav_EC2/DepthDuration/v2_depth_duration_MTurk/v2_DepthDuration_HTML.html#400,400,1440,789,1440,900,8-29-2022,9-12-20,164,depth_duration_stimuli/001199_2014-06-17_16-03-48_260595134347_rgbf000077-resize_0/001199_2014-06-17_16-03-48_260595134347_rgbf000077-resize_0-target.png,125,3.4375,5,2290,116,meters,jsons/VE125_randls_38_rotated.json,537901,618616,25,Woman
