,subjID,experimentName,versionName,sequenceName,url,selected_row,windowWidth,windowHeight,screenWidth,screenHeight,startDate,startTime,trial,stimulus,duration,actual_depth,depth_estimate,trial_RT,log_sceneDuration,unitSelection,seq_filepath,experimentTime,totalTime,age,gender
0,860188,DepthScenes,duration_manipulation_targetAtFixation,jsons/v1_VE1000_randls_6.json,http://54.235.29.9/FacialAge/BNav_EC2/DepthDuration/v2_depth_duration_MTurk/v2_DepthDuration_HTML.html#160,160,1366,768,1366,768,8-30-2022,9-55-3,1,depth_duration_stimuli/002663_2014-06-13_15-50-26_094959634447_rgbf000075-resize_1/002663_2014-06-13_15-50-26_094959634447_rgbf000075-resize_1-target.png,1000,4.7495,4,6274,1007,feet,jsons/v1_VE1000_randls_6.json,826094,1034635,28,Man
1,860188,DepthScenes,duration_manipulation_targetAtFixation,jsons/v1_VE1000_randls_6.json,http://54.235.29.9/FacialAge/BNav_EC2/DepthDuration/v2_depth_duration_MTurk/v2_DepthDuration_HTML.html#160,160,1366,768,1366,768,8-30-2022,9-55-3,2,depth_duration_stimuli/000409_2014-06-04_19-23-33_260595134347_rgbf000067-resize_0/000409_2014-06-04_19-23-33_260595134347_rgbf000067-resize_0-target.png,1000,3.7335,3,6540,999,feet,jsons/v1_VE1000_randls_6.json,826094,1034635,28,Man
2,860188,DepthScenes,duration_manipulation_targetAtFixation,jsons/v1_VE1000_randls_6.json,http://54.235.29.9/FacialAge/BNav_EC2/DepthDuration/v2_depth_duration_MTurk/v2_DepthDuration_HTML.html#160,160,1366,768,1366,768,8-30-2022,9-55-3,3,depth_duration_stimuli/002905_2014-06-03_18-04-43_094959634447_rgbf000151-resize_2/002905_2014-06-03_18-04-43_094959634447_rgbf000151-resize_2-target.png,1000,2.0295,3,22540,996,feet,jsons/v1_VE1000_randls_6.json,826094,1034635,28,Man
3,860188,DepthScenes,duration_manipulation_targetAtFixation,jsons/v1_VE1000_randls_6.json,http://54.235.29.9/FacialAge/BNav_EC2/DepthDuration/v2_depth_duration_MTurk/v2_DepthDuration_HTML.html#160,160,1366,768,1366,768,8-30-2022,9-55-3,4,depth_duration_stimuli/003423_2014-05-21_10-23-26_094959634447_rgbf002665-resize_2/003423_2014-05-21_10-23-26_094959634447_rgbf002665-resize_2-target.png,1000,3.2575,3,16720,989,feet,jsons/v1_VE1000_randls_6.json,826094,1034635,28,Man
4,860188,DepthScenes,duration_manipulation_targetAtFixation,jsons/v1_VE1000_randls_6.json,http://54.235.29.9/FacialAge/BNav_EC2/DepthDuration/v2_depth_duration_MTurk/v2_DepthDuration_HTML.html#160,160,1366,768,1366,768,8-30-2022,9-55-3,5,depth_duration_stimuli/000642_2014-06-08_16-59-25_260595134347_rgbf000098-resize_2/000642_2014-06-08_16-59-25_260595134347_rgbf000098-resize_2-target.png,1000,2.8815,2,8693,994,feet,jsons/v1_VE1000_randls_6.json,826094,1034635,28,Man
5,860188,DepthScenes,duration_manipulation_targetAtFixation,jsons/v1_VE1000_randls_6.json,http://54.235.29.9/FacialAge/BNav_EC2/DepthDuration/v2_depth_duration_MTurk/v2_DepthDuration_HTML.html#160,160,1366,768,1366,768,8-30-2022,9-55-3,6,depth_duration_stimuli/002425_2014-06-28_20-27-29_260595134347_rgbf000031-resize_8/002425_2014-06-28_20-27-29_260595134347_rgbf000031-resize_8-target.png,1000,3.8960000000000004,4,4934,993,feet,jsons/v1_VE1000_randls_6.json,826094,1034635,28,Man
6,860188,DepthScenes,duration_manipulation_targetAtFixation,jsons/v1_VE1000_randls_6.json,http://54.235.29.9/FacialAge/BNav_EC2/DepthDuration/v2_depth_duration_MTurk/v2_DepthDuration_HTML.html#160,160,1366,768,1366,768,8-30-2022,9-55-3,7,depth_duration_stimuli/001449_2014-06-19_17-01-27_260595134347_rgbf000116-resize_2/001449_2014-06-19_17-01-27_260595134347_rgbf000116-resize_2-target.png,1000,3.452,3,3950,1009,feet,jsons/v1_VE1000_randls_6.json,826094,1034635,28,Man
7,860188,DepthScenes,duration_manipulation_targetAtFixation,jsons/v1_VE1000_randls_6.json,http://54.235.29.9/FacialAge/BNav_EC2/DepthDuration/v2_depth_duration_MTurk/v2_DepthDuration_HTML.html#160,160,1366,768,1366,768,8-30-2022,9-55-3,8,depth_duration_stimuli/001450_2014-06-19_17-02-03_260595134347_rgbf000203-resize_4/001450_2014-06-19_17-02-03_260595134347_rgbf000203-resize_4-target.png,1000,4.0106666666667,4,5235,997,feet,jsons/v1_VE1000_randls_6.json,826094,1034635,28,Man
8,860188,DepthScenes,duration_manipulation_targetAtFixation,jsons/v1_VE1000_randls_6.json,http://54.235.29.9/FacialAge/BNav_EC2/DepthDuration/v2_depth_duration_MTurk/v2_DepthDuration_HTML.html#160,160,1366,768,1366,768,8-30-2022,9-55-3,9,depth_duration_stimuli/002272_2014-06-28_18-53-56_260595134347_rgbf000067-resize_2/002272_2014-06-28_18-53-56_260595134347_rgbf000067-resize_2-target.png,1000,1.138,2,4267,985,feet,jsons/v1_VE1000_randls_6.json,826094,1034635,28,Man
9,860188,DepthScenes,duration_manipulation_targetAtFixation,jsons/v1_VE1000_randls_6.json,http://54.235.29.9/FacialAge/BNav_EC2/DepthDuration/v2_depth_duration_MTurk/v2_DepthDuration_HTML.html#160,160,1366,768,1366,768,8-30-2022,9-55-3,10,depth_duration_stimuli/001571_2014-06-20_17-21-32_260595134347_rgbf000089-resize_1/001571_2014-06-20_17-21-32_260595134347_rgbf000089-resize_1-target.png,1000,1.86,3,5760,1001,feet,jsons/v1_VE1000_randls_6.json,826094,1034635,28,Man
10,860188,DepthScenes,duration_manipulation_targetAtFixation,jsons/v1_VE1000_randls_6.json,http://54.235.29.9/FacialAge/BNav_EC2/DepthDuration/v2_depth_duration_MTurk/v2_DepthDuration_HTML.html#160,160,1366,768,1366,768,8-30-2022,9-55-3,11,depth_duration_stimuli/002630_2014-06-24_14-47-50_094959634447_rgbf000055-resize_1/002630_2014-06-24_14-47-50_094959634447_rgbf000055-resize_1-target.png,1000,3.0095,4,5140,999,feet,jsons/v1_VE1000_randls_6.json,826094,1034635,28,Man
11,860188,DepthScenes,duration_manipulation_targetAtFixation,jsons/v1_VE1000_randls_6.json,http://54.235.29.9/FacialAge/BNav_EC2/DepthDuration/v2_depth_duration_MTurk/v2_DepthDuration_HTML.html#160,160,1366,768,1366,768,8-30-2022,9-55-3,12,depth_duration_stimuli/002758_2014-06-22_19-11-20_094959634447_rgbf000128-resize_1/002758_2014-06-22_19-11-20_094959634447_rgbf000128-resize_1-target.png,1000,2.555,3,4050,999,feet,jsons/v1_VE1000_randls_6.json,826094,1034635,28,Man
12,860188,DepthScenes,duration_manipulation_targetAtFixation,jsons/v1_VE1000_randls_6.json,http://54.235.29.9/FacialAge/BNav_EC2/DepthDuration/v2_depth_duration_MTurk/v2_DepthDuration_HTML.html#160,160,1366,768,1366,768,8-30-2022,9-55-3,13,depth_duration_stimuli/000569_2014-06-09_22-51-47_260595134347_rgbf000141-resize_3/000569_2014-06-09_22-51-47_260595134347_rgbf000141-resize-original.jpg,1000,4.512,3,7232,998,feet,jsons/v1_VE1000_randls_6.json,826094,1034635,28,Man
13,860188,DepthScenes,duration_manipulation_targetAtFixation,jsons/v1_VE1000_randls_6.json,http://54.235.29.9/FacialAge/BNav_EC2/DepthDuration/v2_depth_duration_MTurk/v2_DepthDuration_HTML.html#160,160,1366,768,1366,768,8-30-2022,9-55-3,14,depth_duration_stimuli/002784_2014-06-22_19-26-30_094959634447_rgbf000083-resize_3/002784_2014-06-22_19-26-30_094959634447_rgbf000083-resize_3-target.png,1000,1.8046666666667,2,4957,996,feet,jsons/v1_VE1000_randls_6.json,826094,1034635,28,Man
14,860188,DepthScenes,duration_manipulation_targetAtFixation,jsons/v1_VE1000_randls_6.json,http://54.235.29.9/FacialAge/BNav_EC2/DepthDuration/v2_depth_duration_MTurk/v2_DepthDuration_HTML.html#160,160,1366,768,1366,768,8-30-2022,9-55-3,15,depth_duration_stimuli/001100_2014-06-15_17-46-26_260595134347_rgbf000225-resize_2/001100_2014-06-15_17-46-26_260595134347_rgbf000225-resize_2-target.png,1000,2.24,3,13059,999,feet,jsons/v1_VE1000_randls_6.json,826094,1034635,28,Man
15,860188,DepthScenes,duration_manipulation_targetAtFixation,jsons/v1_VE1000_randls_6.json,http://54.235.29.9/FacialAge/BNav_EC2/DepthDuration/v2_depth_duration_MTurk/v2_DepthDuration_HTML.html#160,160,1366,768,1366,768,8-30-2022,9-55-3,16,depth_duration_stimuli/002988_2014-06-15_12-24-20_094959634447_rgbf000150-resize_1/002988_2014-06-15_12-24-20_094959634447_rgbf000150-resize_1-target.png,1000,4.7669999999999995,5,6138,1000,feet,jsons/v1_VE1000_randls_6.json,826094,1034635,28,Man
16,860188,DepthScenes,duration_manipulation_targetAtFixation,jsons/v1_VE1000_randls_6.json,http://54.235.29.9/FacialAge/BNav_EC2/DepthDuration/v2_depth_duration_MTurk/v2_DepthDuration_HTML.html#160,160,1366,768,1366,768,8-30-2022,9-55-3,17,depth_duration_stimuli/001052_2014-06-08_18-24-54_260595134347_rgbf000130-resize_1/001052_2014-06-08_18-24-54_260595134347_rgbf000130-resize_1-target.png,1000,4.1045,4,7729,992,feet,jsons/v1_VE1000_randls_6.json,826094,1034635,28,Man
17,860188,DepthScenes,duration_manipulation_targetAtFixation,jsons/v1_VE1000_randls_6.json,http://54.235.29.9/FacialAge/BNav_EC2/DepthDuration/v2_depth_duration_MTurk/v2_DepthDuration_HTML.html#160,160,1366,768,1366,768,8-30-2022,9-55-3,18,depth_duration_stimuli/002748_2014-06-22_19-07-22_094959634447_rgbf000078-resize_1/002748_2014-06-22_19-07-22_094959634447_rgbf000078-resize_1-target.png,1000,4.6705,3,6105,994,feet,jsons/v1_VE1000_randls_6.json,826094,1034635,28,Man
18,860188,DepthScenes,duration_manipulation_targetAtFixation,jsons/v1_VE1000_randls_6.json,http://54.235.29.9/FacialAge/BNav_EC2/DepthDuration/v2_depth_duration_MTurk/v2_DepthDuration_HTML.html#160,160,1366,768,1366,768,8-30-2022,9-55-3,19,depth_duration_stimuli/002995_2014-06-15_12-31-26_094959634447_rgbf000150-resize_1/002995_2014-06-15_12-31-26_094959634447_rgbf000150-resize_1-target.png,1000,3.8360000000000003,2,4857,997,feet,jsons/v1_VE1000_randls_6.json,826094,1034635,28,Man
19,860188,DepthScenes,duration_manipulation_targetAtFixation,jsons/v1_VE1000_randls_6.json,http://54.235.29.9/FacialAge/BNav_EC2/DepthDuration/v2_depth_duration_MTurk/v2_DepthDuration_HTML.html#160,160,1366,768,1366,768,8-30-2022,9-55-3,20,depth_duration_stimuli/002213_2014-06-28_18-37-58_260595134347_rgbf000055-resize_1/002213_2014-06-28_18-37-58_260595134347_rgbf000055-resize_1-target.png,1000,3.62,4,4943,991,feet,jsons/v1_VE1000_randls_6.json,826094,1034635,28,Man
20,860188,DepthScenes,duration_manipulation_targetAtFixation,jsons/v1_VE1000_randls_6.json,http://54.235.29.9/FacialAge/BNav_EC2/DepthDuration/v2_depth_duration_MTurk/v2_DepthDuration_HTML.html#160,160,1366,768,1366,768,8-30-2022,9-55-3,21,depth_duration_stimuli/000691_2014-06-08_13-08-50_260595134347_rgbf000132-resize_3/000691_2014-06-08_13-08-50_260595134347_rgbf000132-resize_3-target.png,1000,4.1530000000000005,4,7093,1000,feet,jsons/v1_VE1000_randls_6.json,826094,1034635,28,Man
21,860188,DepthScenes,duration_manipulation_targetAtFixation,jsons/v1_VE1000_randls_6.json,http://54.235.29.9/FacialAge/BNav_EC2/DepthDuration/v2_depth_duration_MTurk/v2_DepthDuration_HTML.html#160,160,1366,768,1366,768,8-30-2022,9-55-3,22,depth_duration_stimuli/003492_2014-05-21_15-50-55_094959634447_rgbf000828-resize_1/003492_2014-05-21_15-50-55_094959634447_rgbf000828-resize_1-target.png,1000,4.06875,6,4945,997,feet,jsons/v1_VE1000_randls_6.json,826094,1034635,28,Man
22,860188,DepthScenes,duration_manipulation_targetAtFixation,jsons/v1_VE1000_randls_6.json,http://54.235.29.9/FacialAge/BNav_EC2/DepthDuration/v2_depth_duration_MTurk/v2_DepthDuration_HTML.html#160,160,1366,768,1366,768,8-30-2022,9-55-3,23,depth_duration_stimuli/002568_2014-06-24_13-59-21_094959634447_rgbf000062-resize_4/002568_2014-06-24_13-59-21_094959634447_rgbf000062-resize_4-target.png,1000,3.015,4,4572,995,feet,jsons/v1_VE1000_randls_6.json,826094,1034635,28,Man
23,860188,DepthScenes,duration_manipulation_targetAtFixation,jsons/v1_VE1000_randls_6.json,http://54.235.29.9/FacialAge/BNav_EC2/DepthDuration/v2_depth_duration_MTurk/v2_DepthDuration_HTML.html#160,160,1366,768,1366,768,8-30-2022,9-55-3,24,depth_duration_stimuli/001011_2014-06-08_23-18-54_260595134347_rgbf000044-resize_4/001011_2014-06-08_23-18-54_260595134347_rgbf000044-resize_4-target.png,1000,2.4730000000000003,5,9411,1002,feet,jsons/v1_VE1000_randls_6.json,826094,1034635,28,Man
24,860188,DepthScenes,duration_manipulation_targetAtFixation,jsons/v1_VE1000_randls_6.json,http://54.235.29.9/FacialAge/BNav_EC2/DepthDuration/v2_depth_duration_MTurk/v2_DepthDuration_HTML.html#160,160,1366,768,1366,768,8-30-2022,9-55-3,25,depth_duration_stimuli/002875_2014-06-01_15-19-00_094959634447_rgbf000151-resize_1/002875_2014-06-01_15-19-00_094959634447_rgbf000151-resize_1-target.png,1000,1.9675,3,3750,992,feet,jsons/v1_VE1000_randls_6.json,826094,1034635,28,Man
25,860188,DepthScenes,duration_manipulation_targetAtFixation,jsons/v1_VE1000_randls_6.json,http://54.235.29.9/FacialAge/BNav_EC2/DepthDuration/v2_depth_duration_MTurk/v2_DepthDuration_HTML.html#160,160,1366,768,1366,768,8-30-2022,9-55-3,26,depth_duration_stimuli/002964_2014-06-08_17-46-11_094959634447_rgbf000091-resize_4/002964_2014-06-08_17-46-11_094959634447_rgbf000091-resize_4-target.png,1000,1.6909999999999998,2,5194,997,feet,jsons/v1_VE1000_randls_6.json,826094,1034635,28,Man
26,860188,DepthScenes,duration_manipulation_targetAtFixation,jsons/v1_VE1000_randls_6.json,http://54.235.29.9/FacialAge/BNav_EC2/DepthDuration/v2_depth_duration_MTurk/v2_DepthDuration_HTML.html#160,160,1366,768,1366,768,8-30-2022,9-55-3,27,depth_duration_stimuli/002136_2014-06-25_21-18-03_260595134347_rgbf000109-resize_3/002136_2014-06-25_21-18-03_260595134347_rgbf000109-resize_3-target.png,1000,1.9569999999999999,3,4054,1006,feet,jsons/v1_VE1000_randls_6.json,826094,1034635,28,Man
27,860188,DepthScenes,duration_manipulation_targetAtFixation,jsons/v1_VE1000_randls_6.json,http://54.235.29.9/FacialAge/BNav_EC2/DepthDuration/v2_depth_duration_MTurk/v2_DepthDuration_HTML.html#160,160,1366,768,1366,768,8-30-2022,9-55-3,28,depth_duration_stimuli/001555_2014-06-20_17-12-10_260595134347_rgbf000065-resize_4/001555_2014-06-20_17-12-10_260595134347_rgbf000065-resize_4-target.png,1000,1.633,2,3385,1005,feet,jsons/v1_VE1000_randls_6.json,826094,1034635,28,Man
28,860188,DepthScenes,duration_manipulation_targetAtFixation,jsons/v1_VE1000_randls_6.json,http://54.235.29.9/FacialAge/BNav_EC2/DepthDuration/v2_depth_duration_MTurk/v2_DepthDuration_HTML.html#160,160,1366,768,1366,768,8-30-2022,9-55-3,29,depth_duration_stimuli/000103_2014-05-14_22-01-17_260595134347_rgbf000152-resize_5/000103_2014-05-14_22-01-17_260595134347_rgbf000152-resize_5-target.png,1000,1.993,3,3866,1004,feet,jsons/v1_VE1000_randls_6.json,826094,1034635,28,Man
29,860188,DepthScenes,duration_manipulation_targetAtFixation,jsons/v1_VE1000_randls_6.json,http://54.235.29.9/FacialAge/BNav_EC2/DepthDuration/v2_depth_duration_MTurk/v2_DepthDuration_HTML.html#160,160,1366,768,1366,768,8-30-2022,9-55-3,30,depth_duration_stimuli/000375_2014-06-08_11-17-29_260595134347_rgbf000133-resize_2/000375_2014-06-08_11-17-29_260595134347_rgbf000133-resize-original.jpg,1000,4.718,4,7609,1006,feet,jsons/v1_VE1000_randls_6.json,826094,1034635,28,Man
30,860188,DepthScenes,duration_manipulation_targetAtFixation,jsons/v1_VE1000_randls_6.json,http://54.235.29.9/FacialAge/BNav_EC2/DepthDuration/v2_depth_duration_MTurk/v2_DepthDuration_HTML.html#160,160,1366,768,1366,768,8-30-2022,9-55-3,31,depth_duration_stimuli/001175_2014-06-17_15-45-55_260595134347_rgbf000129-resize_4/001175_2014-06-17_15-45-55_260595134347_rgbf000129-resize_4-target.png,1000,4.255,6,3674,1002,feet,jsons/v1_VE1000_randls_6.json,826094,1034635,28,Man
31,860188,DepthScenes,duration_manipulation_targetAtFixation,jsons/v1_VE1000_randls_6.json,http://54.235.29.9/FacialAge/BNav_EC2/DepthDuration/v2_depth_duration_MTurk/v2_DepthDuration_HTML.html#160,160,1366,768,1366,768,8-30-2022,9-55-3,32,depth_duration_stimuli/003490_2014-05-21_15-50-11_094959634447_rgbf000101-resize_3/003490_2014-05-21_15-50-11_094959634447_rgbf000101-resize_3-target.png,1000,3.6445,5,3845,995,feet,jsons/v1_VE1000_randls_6.json,826094,1034635,28,Man
32,860188,DepthScenes,duration_manipulation_targetAtFixation,jsons/v1_VE1000_randls_6.json,http://54.235.29.9/FacialAge/BNav_EC2/DepthDuration/v2_depth_duration_MTurk/v2_DepthDuration_HTML.html#160,160,1366,768,1366,768,8-30-2022,9-55-3,33,depth_duration_stimuli/003534_2014-05-22_15-06-10_094959634447_rgbf000102-resize_4/003534_2014-05-22_15-06-10_094959634447_rgbf000102-resize_4-target.png,1000,1.426,4,7173,999,feet,jsons/v1_VE1000_randls_6.json,826094,1034635,28,Man
33,860188,DepthScenes,duration_manipulation_targetAtFixation,jsons/v1_VE1000_randls_6.json,http://54.235.29.9/FacialAge/BNav_EC2/DepthDuration/v2_depth_duration_MTurk/v2_DepthDuration_HTML.html#160,160,1366,768,1366,768,8-30-2022,9-55-3,34,depth_duration_stimuli/002637_2014-06-24_14-51-13_094959634447_rgbf000066-resize_4/002637_2014-06-24_14-51-13_094959634447_rgbf000066-resize_4-target.png,1000,1.9955,3,3845,987,feet,jsons/v1_VE1000_randls_6.json,826094,1034635,28,Man
34,860188,DepthScenes,duration_manipulation_targetAtFixation,jsons/v1_VE1000_randls_6.json,http://54.235.29.9/FacialAge/BNav_EC2/DepthDuration/v2_depth_duration_MTurk/v2_DepthDuration_HTML.html#160,160,1366,768,1366,768,8-30-2022,9-55-3,35,depth_duration_stimuli/001110_2014-06-15_17-25-28_260595134347_rgbf000150-resize_1/001110_2014-06-15_17-25-28_260595134347_rgbf000150-resize_1-target.png,1000,1.7115,2,3190,991,feet,jsons/v1_VE1000_randls_6.json,826094,1034635,28,Man
35,860188,DepthScenes,duration_manipulation_targetAtFixation,jsons/v1_VE1000_randls_6.json,http://54.235.29.9/FacialAge/BNav_EC2/DepthDuration/v2_depth_duration_MTurk/v2_DepthDuration_HTML.html#160,160,1366,768,1366,768,8-30-2022,9-55-3,36,depth_duration_stimuli/000927_2014-06-09_16-32-30_260595134347_rgbf000123-resize_3/000927_2014-06-09_16-32-30_260595134347_rgbf000123-resize_3-target.png,1000,2.6785,3,3348,1001,feet,jsons/v1_VE1000_randls_6.json,826094,1034635,28,Man
36,860188,DepthScenes,duration_manipulation_targetAtFixation,jsons/v1_VE1000_randls_6.json,http://54.235.29.9/FacialAge/BNav_EC2/DepthDuration/v2_depth_duration_MTurk/v2_DepthDuration_HTML.html#160,160,1366,768,1366,768,8-30-2022,9-55-3,37,depth_duration_stimuli/001810_2014-06-26_20-51-35_260595134347_rgbf000040-resize_3/001810_2014-06-26_20-51-35_260595134347_rgbf000040-resize_3-target.png,1000,2.2525,2,3633,995,feet,jsons/v1_VE1000_randls_6.json,826094,1034635,28,Man
37,860188,DepthScenes,duration_manipulation_targetAtFixation,jsons/v1_VE1000_randls_6.json,http://54.235.29.9/FacialAge/BNav_EC2/DepthDuration/v2_depth_duration_MTurk/v2_DepthDuration_HTML.html#160,160,1366,768,1366,768,8-30-2022,9-55-3,38,depth_duration_stimuli/003010_2014-06-15_12-54-35_094959634447_rgbf000112-resize_0/003010_2014-06-15_12-54-35_094959634447_rgbf000112-resize_0-target.png,1000,3.1185,3,3866,1009,feet,jsons/v1_VE1000_randls_6.json,826094,1034635,28,Man
38,860188,DepthScenes,duration_manipulation_targetAtFixation,jsons/v1_VE1000_randls_6.json,http://54.235.29.9/FacialAge/BNav_EC2/DepthDuration/v2_depth_duration_MTurk/v2_DepthDuration_HTML.html#160,160,1366,768,1366,768,8-30-2022,9-55-3,39,depth_duration_stimuli/002445_2014-06-28_20-32-16_260595134347_rgbf000029-resize_4/002445_2014-06-28_20-32-16_260595134347_rgbf000029-resize_4-target.png,1000,2.5315,2,7687,1008,feet,jsons/v1_VE1000_randls_6.json,826094,1034635,28,Man
39,860188,DepthScenes,duration_manipulation_targetAtFixation,jsons/v1_VE1000_randls_6.json,http://54.235.29.9/FacialAge/BNav_EC2/DepthDuration/v2_depth_duration_MTurk/v2_DepthDuration_HTML.html#160,160,1366,768,1366,768,8-30-2022,9-55-3,40,depth_duration_stimuli/000780_2014-06-08_22-28-29_260595134347_rgbf000126-resize_1/000780_2014-06-08_22-28-29_260595134347_rgbf000126-resize_1-target.png,1000,3.3825,3,3217,998,feet,jsons/v1_VE1000_randls_6.json,826094,1034635,28,Man
40,860188,DepthScenes,duration_manipulation_targetAtFixation,jsons/v1_VE1000_randls_6.json,http://54.235.29.9/FacialAge/BNav_EC2/DepthDuration/v2_depth_duration_MTurk/v2_DepthDuration_HTML.html#160,160,1366,768,1366,768,8-30-2022,9-55-3,41,depth_duration_stimuli/002763_2014-06-22_19-13-10_094959634447_rgbf000075-resize_4/002763_2014-06-22_19-13-10_094959634447_rgbf000075-resize_4-target.png,1000,1.68375,2,3090,982,feet,jsons/v1_VE1000_randls_6.json,826094,1034635,28,Man
41,860188,DepthScenes,duration_manipulation_targetAtFixation,jsons/v1_VE1000_randls_6.json,http://54.235.29.9/FacialAge/BNav_EC2/DepthDuration/v2_depth_duration_MTurk/v2_DepthDuration_HTML.html#160,160,1366,768,1366,768,8-30-2022,9-55-3,42,depth_duration_stimuli/002209_2014-06-28_18-36-10_260595134347_rgbf000051-resize_1/002209_2014-06-28_18-36-10_260595134347_rgbf000051-resize_1-target.png,1000,2.057,2,10580,999,feet,jsons/v1_VE1000_randls_6.json,826094,1034635,28,Man
42,860188,DepthScenes,duration_manipulation_targetAtFixation,jsons/v1_VE1000_randls_6.json,http://54.235.29.9/FacialAge/BNav_EC2/DepthDuration/v2_depth_duration_MTurk/v2_DepthDuration_HTML.html#160,160,1366,768,1366,768,8-30-2022,9-55-3,43,depth_duration_stimuli/000009_2014-05-26_14-32-05_260595134347_rgbf000034-resize_3/000009_2014-05-26_14-32-05_260595134347_rgbf000034-resize_3-target.png,1000,3.8715,6,4698,1010,feet,jsons/v1_VE1000_randls_6.json,826094,1034635,28,Man
43,860188,DepthScenes,duration_manipulation_targetAtFixation,jsons/v1_VE1000_randls_6.json,http://54.235.29.9/FacialAge/BNav_EC2/DepthDuration/v2_depth_duration_MTurk/v2_DepthDuration_HTML.html#160,160,1366,768,1366,768,8-30-2022,9-55-3,44,depth_duration_stimuli/001828_2014-06-26_21-40-03_260595134347_rgbf000024-resize_0/001828_2014-06-26_21-40-03_260595134347_rgbf000024-resize_0-target.png,1000,4.8260000000000005,4,3238,999,feet,jsons/v1_VE1000_randls_6.json,826094,1034635,28,Man
44,860188,DepthScenes,duration_manipulation_targetAtFixation,jsons/v1_VE1000_randls_6.json,http://54.235.29.9/FacialAge/BNav_EC2/DepthDuration/v2_depth_duration_MTurk/v2_DepthDuration_HTML.html#160,160,1366,768,1366,768,8-30-2022,9-55-3,45,depth_duration_stimuli/000787_2014-06-08_22-33-53_260595134347_rgbf000175-resize_1/000787_2014-06-08_22-33-53_260595134347_rgbf000175-resize-original.jpg,1000,4.784,4,6181,998,feet,jsons/v1_VE1000_randls_6.json,826094,1034635,28,Man
45,860188,DepthScenes,duration_manipulation_targetAtFixation,jsons/v1_VE1000_randls_6.json,http://54.235.29.9/FacialAge/BNav_EC2/DepthDuration/v2_depth_duration_MTurk/v2_DepthDuration_HTML.html#160,160,1366,768,1366,768,8-30-2022,9-55-3,46,depth_duration_stimuli/000917_2014-06-09_22-45-29_260595134347_rgbf000149-resize_3/000917_2014-06-09_22-45-29_260595134347_rgbf000149-resize_3-target.png,1000,4.1865,3,4162,1008,feet,jsons/v1_VE1000_randls_6.json,826094,1034635,28,Man
46,860188,DepthScenes,duration_manipulation_targetAtFixation,jsons/v1_VE1000_randls_6.json,http://54.235.29.9/FacialAge/BNav_EC2/DepthDuration/v2_depth_duration_MTurk/v2_DepthDuration_HTML.html#160,160,1366,768,1366,768,8-30-2022,9-55-3,47,depth_duration_stimuli/002323_2014-06-28_20-01-54_260595134347_rgbf000051-resize_4/002323_2014-06-28_20-01-54_260595134347_rgbf000051-resize_4-target.png,1000,3.7310000000000003,5,3697,998,feet,jsons/v1_VE1000_randls_6.json,826094,1034635,28,Man
47,860188,DepthScenes,duration_manipulation_targetAtFixation,jsons/v1_VE1000_randls_6.json,http://54.235.29.9/FacialAge/BNav_EC2/DepthDuration/v2_depth_duration_MTurk/v2_DepthDuration_HTML.html#160,160,1366,768,1366,768,8-30-2022,9-55-3,48,depth_duration_stimuli/001570_2014-06-20_17-21-09_260595134347_rgbf000135-resize_4/001570_2014-06-20_17-21-09_260595134347_rgbf000135-resize_4-target.png,1000,4.467,4,3733,1001,feet,jsons/v1_VE1000_randls_6.json,826094,1034635,28,Man
48,860188,DepthScenes,duration_manipulation_targetAtFixation,jsons/v1_VE1000_randls_6.json,http://54.235.29.9/FacialAge/BNav_EC2/DepthDuration/v2_depth_duration_MTurk/v2_DepthDuration_HTML.html#160,160,1366,768,1366,768,8-30-2022,9-55-3,49,depth_duration_stimuli/001392_2014-06-19_16-07-59_260595134347_rgbf000046-resize_1/001392_2014-06-19_16-07-59_260595134347_rgbf000046-resize_1-target.png,1000,4.135,3,3241,992,feet,jsons/v1_VE1000_randls_6.json,826094,1034635,28,Man
49,860188,DepthScenes,duration_manipulation_targetAtFixation,jsons/v1_VE1000_randls_6.json,http://54.235.29.9/FacialAge/BNav_EC2/DepthDuration/v2_depth_duration_MTurk/v2_DepthDuration_HTML.html#160,160,1366,768,1366,768,8-30-2022,9-55-3,50,depth_duration_stimuli/000788_2014-06-08_22-34-36_260595134347_rgbf000131-resize_1/000788_2014-06-08_22-34-36_260595134347_rgbf000131-resize_1-target.png,1000,3.359,4,3927,992,feet,jsons/v1_VE1000_randls_6.json,826094,1034635,28,Man
50,860188,DepthScenes,duration_manipulation_targetAtFixation,jsons/v1_VE1000_randls_6.json,http://54.235.29.9/FacialAge/BNav_EC2/DepthDuration/v2_depth_duration_MTurk/v2_DepthDuration_HTML.html#160,160,1366,768,1366,768,8-30-2022,9-55-3,51,depth_duration_stimuli/001235_2014-06-17_16-37-36_260595134347_rgbf000084-resize_4/001235_2014-06-17_16-37-36_260595134347_rgbf000084-resize_4-target.png,1000,3.6605,4,4212,996,feet,jsons/v1_VE1000_randls_6.json,826094,1034635,28,Man
51,860188,DepthScenes,duration_manipulation_targetAtFixation,jsons/v1_VE1000_randls_6.json,http://54.235.29.9/FacialAge/BNav_EC2/DepthDuration/v2_depth_duration_MTurk/v2_DepthDuration_HTML.html#160,160,1366,768,1366,768,8-30-2022,9-55-3,52,depth_duration_stimuli/000739_2014-06-08_18-45-58_260595134347_rgbf000068-resize_1/000739_2014-06-08_18-45-58_260595134347_rgbf000068-resize_1-target.png,1000,3.534,3,3067,1008,feet,jsons/v1_VE1000_randls_6.json,826094,1034635,28,Man
52,860188,DepthScenes,duration_manipulation_targetAtFixation,jsons/v1_VE1000_randls_6.json,http://54.235.29.9/FacialAge/BNav_EC2/DepthDuration/v2_depth_duration_MTurk/v2_DepthDuration_HTML.html#160,160,1366,768,1366,768,8-30-2022,9-55-3,53,depth_duration_stimuli/000734_2014-06-08_17-39-11_260595134347_rgbf000128-resize_2/000734_2014-06-08_17-39-11_260595134347_rgbf000128-resize_2-target.png,1000,4.098,5,3139,1000,feet,jsons/v1_VE1000_randls_6.json,826094,1034635,28,Man
53,860188,DepthScenes,duration_manipulation_targetAtFixation,jsons/v1_VE1000_randls_6.json,http://54.235.29.9/FacialAge/BNav_EC2/DepthDuration/v2_depth_duration_MTurk/v2_DepthDuration_HTML.html#160,160,1366,768,1366,768,8-30-2022,9-55-3,54,depth_duration_stimuli/000736_2014-06-08_18-24-15_260595134347_rgbf000206-resize_3/000736_2014-06-08_18-24-15_260595134347_rgbf000206-resize_3-target.png,1000,3.515,3,3540,996,feet,jsons/v1_VE1000_randls_6.json,826094,1034635,28,Man
54,860188,DepthScenes,duration_manipulation_targetAtFixation,jsons/v1_VE1000_randls_6.json,http://54.235.29.9/FacialAge/BNav_EC2/DepthDuration/v2_depth_duration_MTurk/v2_DepthDuration_HTML.html#160,160,1366,768,1366,768,8-30-2022,9-55-3,55,depth_duration_stimuli/000137_2014-05-20_17-04-49_260595134347_rgbf000120-resize_1/000137_2014-05-20_17-04-49_260595134347_rgbf000120-resize_1-target.png,1000,3.786,6,2938,996,feet,jsons/v1_VE1000_randls_6.json,826094,1034635,28,Man
55,860188,DepthScenes,duration_manipulation_targetAtFixation,jsons/v1_VE1000_randls_6.json,http://54.235.29.9/FacialAge/BNav_EC2/DepthDuration/v2_depth_duration_MTurk/v2_DepthDuration_HTML.html#160,160,1366,768,1366,768,8-30-2022,9-55-3,56,depth_duration_stimuli/001244_2014-06-17_16-47-45_260595134347_rgbf000030-resize_4/001244_2014-06-17_16-47-45_260595134347_rgbf000030-resize_4-target.png,1000,2.0425,2,3149,1001,feet,jsons/v1_VE1000_randls_6.json,826094,1034635,28,Man
56,860188,DepthScenes,duration_manipulation_targetAtFixation,jsons/v1_VE1000_randls_6.json,http://54.235.29.9/FacialAge/BNav_EC2/DepthDuration/v2_depth_duration_MTurk/v2_DepthDuration_HTML.html#160,160,1366,768,1366,768,8-30-2022,9-55-3,57,depth_duration_stimuli/003495_2014-05-21_16-01-51_094959634447_rgbf000100-resize_3/003495_2014-05-21_16-01-51_094959634447_rgbf000100-resize_3-target.png,1000,1.6255,2,3106,993,feet,jsons/v1_VE1000_randls_6.json,826094,1034635,28,Man
57,860188,DepthScenes,duration_manipulation_targetAtFixation,jsons/v1_VE1000_randls_6.json,http://54.235.29.9/FacialAge/BNav_EC2/DepthDuration/v2_depth_duration_MTurk/v2_DepthDuration_HTML.html#160,160,1366,768,1366,768,8-30-2022,9-55-3,58,depth_duration_stimuli/002039_2014-06-24_20-22-38_260595134347_rgbf000084-resize_1/002039_2014-06-24_20-22-38_260595134347_rgbf000084-resize_1-target.png,1000,4.408,2,7666,983,feet,jsons/v1_VE1000_randls_6.json,826094,1034635,28,Man
58,860188,DepthScenes,duration_manipulation_targetAtFixation,jsons/v1_VE1000_randls_6.json,http://54.235.29.9/FacialAge/BNav_EC2/DepthDuration/v2_depth_duration_MTurk/v2_DepthDuration_HTML.html#160,160,1366,768,1366,768,8-30-2022,9-55-3,59,depth_duration_stimuli/002103_2014-06-25_20-00-40_260595134347_rgbf000049-resize_0/002103_2014-06-25_20-00-40_260595134347_rgbf000049-resize_0-target.png,1000,4.105,4,3380,999,feet,jsons/v1_VE1000_randls_6.json,826094,1034635,28,Man
59,860188,DepthScenes,duration_manipulation_targetAtFixation,jsons/v1_VE1000_randls_6.json,http://54.235.29.9/FacialAge/BNav_EC2/DepthDuration/v2_depth_duration_MTurk/v2_DepthDuration_HTML.html#160,160,1366,768,1366,768,8-30-2022,9-55-3,60,depth_duration_stimuli/003070_2014-06-15_14-58-27_094959634447_rgbf000150-resize_3/003070_2014-06-15_14-58-27_094959634447_rgbf000150-resize_3-target.png,1000,2.9415,5,3425,997,feet,jsons/v1_VE1000_randls_6.json,826094,1034635,28,Man
60,860188,DepthScenes,duration_manipulation_targetAtFixation,jsons/v1_VE1000_randls_6.json,http://54.235.29.9/FacialAge/BNav_EC2/DepthDuration/v2_depth_duration_MTurk/v2_DepthDuration_HTML.html#160,160,1366,768,1366,768,8-30-2022,9-55-3,61,depth_duration_stimuli/000943_2014-06-09_19-31-07_260595134347_rgbf000128-resize_1/000943_2014-06-09_19-31-07_260595134347_rgbf000128-resize_1-target.png,1000,1.9765,3,3082,995,feet,jsons/v1_VE1000_randls_6.json,826094,1034635,28,Man
61,860188,DepthScenes,duration_manipulation_targetAtFixation,jsons/v1_VE1000_randls_6.json,http://54.235.29.9/FacialAge/BNav_EC2/DepthDuration/v2_depth_duration_MTurk/v2_DepthDuration_HTML.html#160,160,1366,768,1366,768,8-30-2022,9-55-3,62,depth_duration_stimuli/001150_2014-06-17_15-27-34_260595134347_rgbf000108-resize_2/001150_2014-06-17_15-27-34_260595134347_rgbf000108-resize_2-target.png,1000,4.0325,5,3132,999,feet,jsons/v1_VE1000_randls_6.json,826094,1034635,28,Man
62,860188,DepthScenes,duration_manipulation_targetAtFixation,jsons/v1_VE1000_randls_6.json,http://54.235.29.9/FacialAge/BNav_EC2/DepthDuration/v2_depth_duration_MTurk/v2_DepthDuration_HTML.html#160,160,1366,768,1366,768,8-30-2022,9-55-3,63,depth_duration_stimuli/000665_2014-06-09_20-42-35_260595134347_rgbf000110-resize_1/000665_2014-06-09_20-42-35_260595134347_rgbf000110-resize_1-target.png,1000,3.057,6,3248,992,feet,jsons/v1_VE1000_randls_6.json,826094,1034635,28,Man
63,860188,DepthScenes,duration_manipulation_targetAtFixation,jsons/v1_VE1000_randls_6.json,http://54.235.29.9/FacialAge/BNav_EC2/DepthDuration/v2_depth_duration_MTurk/v2_DepthDuration_HTML.html#160,160,1366,768,1366,768,8-30-2022,9-55-3,64,depth_duration_stimuli/000414_2014-06-04_19-49-13_260595134347_rgbf000044-resize_0/000414_2014-06-04_19-49-13_260595134347_rgbf000044-resize_0-target.png,1000,4.329,5,3096,1008,feet,jsons/v1_VE1000_randls_6.json,826094,1034635,28,Man
64,860188,DepthScenes,duration_manipulation_targetAtFixation,jsons/v1_VE1000_randls_6.json,http://54.235.29.9/FacialAge/BNav_EC2/DepthDuration/v2_depth_duration_MTurk/v2_DepthDuration_HTML.html#160,160,1366,768,1366,768,8-30-2022,9-55-3,65,depth_duration_stimuli/003129_2014-05-12_10-48-10_094959634447_rgbf000100-resize_0/003129_2014-05-12_10-48-10_094959634447_rgbf000100-resize_0-target.png,1000,4.9305,6,3116,984,feet,jsons/v1_VE1000_randls_6.json,826094,1034635,28,Man
65,860188,DepthScenes,duration_manipulation_targetAtFixation,jsons/v1_VE1000_randls_6.json,http://54.235.29.9/FacialAge/BNav_EC2/DepthDuration/v2_depth_duration_MTurk/v2_DepthDuration_HTML.html#160,160,1366,768,1366,768,8-30-2022,9-55-3,66,depth_duration_stimuli/001222_2014-06-17_16-24-06_260595134347_rgbf000073-resize_0/001222_2014-06-17_16-24-06_260595134347_rgbf000073-resize-original.jpg,1000,1.4385,7,3763,999,feet,jsons/v1_VE1000_randls_6.json,826094,1034635,28,Man
66,860188,DepthScenes,duration_manipulation_targetAtFixation,jsons/v1_VE1000_randls_6.json,http://54.235.29.9/FacialAge/BNav_EC2/DepthDuration/v2_depth_duration_MTurk/v2_DepthDuration_HTML.html#160,160,1366,768,1366,768,8-30-2022,9-55-3,67,depth_duration_stimuli/000368_2014-06-09_15-53-01_260595134347_rgbf000155-resize_2/000368_2014-06-09_15-53-01_260595134347_rgbf000155-resize_2-target.png,1000,2.4859999999999998,3,3542,999,feet,jsons/v1_VE1000_randls_6.json,826094,1034635,28,Man
67,860188,DepthScenes,duration_manipulation_targetAtFixation,jsons/v1_VE1000_randls_6.json,http://54.235.29.9/FacialAge/BNav_EC2/DepthDuration/v2_depth_duration_MTurk/v2_DepthDuration_HTML.html#160,160,1366,768,1366,768,8-30-2022,9-55-3,68,depth_duration_stimuli/002678_2014-06-13_16-15-32_094959634447_rgbf000151-resize_6/002678_2014-06-13_16-15-32_094959634447_rgbf000151-resize_6-target.png,1000,2.1830000000000003,5,3060,997,feet,jsons/v1_VE1000_randls_6.json,826094,1034635,28,Man
68,860188,DepthScenes,duration_manipulation_targetAtFixation,jsons/v1_VE1000_randls_6.json,http://54.235.29.9/FacialAge/BNav_EC2/DepthDuration/v2_depth_duration_MTurk/v2_DepthDuration_HTML.html#160,160,1366,768,1366,768,8-30-2022,9-55-3,69,depth_duration_stimuli/002043_2014-06-24_20-29-38_260595134347_rgbf000039-resize_4/002043_2014-06-24_20-29-38_260595134347_rgbf000039-resize_4-target.png,1000,2.8435,4,3671,999,feet,jsons/v1_VE1000_randls_6.json,826094,1034635,28,Man
69,860188,DepthScenes,duration_manipulation_targetAtFixation,jsons/v1_VE1000_randls_6.json,http://54.235.29.9/FacialAge/BNav_EC2/DepthDuration/v2_depth_duration_MTurk/v2_DepthDuration_HTML.html#160,160,1366,768,1366,768,8-30-2022,9-55-3,70,depth_duration_stimuli/003048_2014-06-15_13-49-43_094959634447_rgbf000150-resize_1/003048_2014-06-15_13-49-43_094959634447_rgbf000150-resize_1-target.png,1000,4.0035,5,3332,994,feet,jsons/v1_VE1000_randls_6.json,826094,1034635,28,Man
70,860188,DepthScenes,duration_manipulation_targetAtFixation,jsons/v1_VE1000_randls_6.json,http://54.235.29.9/FacialAge/BNav_EC2/DepthDuration/v2_depth_duration_MTurk/v2_DepthDuration_HTML.html#160,160,1366,768,1366,768,8-30-2022,9-55-3,71,depth_duration_stimuli/000810_2014-06-08_17-20-01_260595134347_rgbf000105-resize_0/000810_2014-06-08_17-20-01_260595134347_rgbf000105-resize_0-target.png,1000,1.4865,2,3147,1001,feet,jsons/v1_VE1000_randls_6.json,826094,1034635,28,Man
71,860188,DepthScenes,duration_manipulation_targetAtFixation,jsons/v1_VE1000_randls_6.json,http://54.235.29.9/FacialAge/BNav_EC2/DepthDuration/v2_depth_duration_MTurk/v2_DepthDuration_HTML.html#160,160,1366,768,1366,768,8-30-2022,9-55-3,72,depth_duration_stimuli/001214_2014-06-17_16-13-55_260595134347_rgbf000111-resize_0/001214_2014-06-17_16-13-55_260595134347_rgbf000111-resize_0-target.png,1000,2.6505,3,2981,995,feet,jsons/v1_VE1000_randls_6.json,826094,1034635,28,Man
72,860188,DepthScenes,duration_manipulation_targetAtFixation,jsons/v1_VE1000_randls_6.json,http://54.235.29.9/FacialAge/BNav_EC2/DepthDuration/v2_depth_duration_MTurk/v2_DepthDuration_HTML.html#160,160,1366,768,1366,768,8-30-2022,9-55-3,73,depth_duration_stimuli/001029_2014-06-08_13-17-57_260595134347_rgbf000065-resize_1/001029_2014-06-08_13-17-57_260595134347_rgbf000065-resize_1-target.png,1000,3.0835,2,3313,1001,feet,jsons/v1_VE1000_randls_6.json,826094,1034635,28,Man
73,860188,DepthScenes,duration_manipulation_targetAtFixation,jsons/v1_VE1000_randls_6.json,http://54.235.29.9/FacialAge/BNav_EC2/DepthDuration/v2_depth_duration_MTurk/v2_DepthDuration_HTML.html#160,160,1366,768,1366,768,8-30-2022,9-55-3,74,depth_duration_stimuli/000677_2014-06-08_23-10-32_260595134347_rgbf000158-resize_6/000677_2014-06-08_23-10-32_260595134347_rgbf000158-resize_6-target.png,1000,3.556,3,3066,996,feet,jsons/v1_VE1000_randls_6.json,826094,1034635,28,Man
74,860188,DepthScenes,duration_manipulation_targetAtFixation,jsons/v1_VE1000_randls_6.json,http://54.235.29.9/FacialAge/BNav_EC2/DepthDuration/v2_depth_duration_MTurk/v2_DepthDuration_HTML.html#160,160,1366,768,1366,768,8-30-2022,9-55-3,75,depth_duration_stimuli/000506_2014-06-08_23-21-00_260595134347_rgbf000070-resize_7/000506_2014-06-08_23-21-00_260595134347_rgbf000070-resize_7-target.png,1000,4.0585,4,3173,1000,feet,jsons/v1_VE1000_randls_6.json,826094,1034635,28,Man
75,860188,DepthScenes,duration_manipulation_targetAtFixation,jsons/v1_VE1000_randls_6.json,http://54.235.29.9/FacialAge/BNav_EC2/DepthDuration/v2_depth_duration_MTurk/v2_DepthDuration_HTML.html#160,160,1366,768,1366,768,8-30-2022,9-55-3,76,depth_duration_stimuli/003079_2014-06-15_15-18-20_094959634447_rgbf000152-resize_8/003079_2014-06-15_15-18-20_094959634447_rgbf000152-resize_8-target.png,1000,2.8775,5,3124,1002,feet,jsons/v1_VE1000_randls_6.json,826094,1034635,28,Man
76,860188,DepthScenes,duration_manipulation_targetAtFixation,jsons/v1_VE1000_randls_6.json,http://54.235.29.9/FacialAge/BNav_EC2/DepthDuration/v2_depth_duration_MTurk/v2_DepthDuration_HTML.html#160,160,1366,768,1366,768,8-30-2022,9-55-3,77,depth_duration_stimuli/001417_2014-06-19_16-25-36_260595134347_rgbf000115-resize_5/001417_2014-06-19_16-25-36_260595134347_rgbf000115-resize_5-target.png,1000,4.6255,5,3962,1001,feet,jsons/v1_VE1000_randls_6.json,826094,1034635,28,Man
77,860188,DepthScenes,duration_manipulation_targetAtFixation,jsons/v1_VE1000_randls_6.json,http://54.235.29.9/FacialAge/BNav_EC2/DepthDuration/v2_depth_duration_MTurk/v2_DepthDuration_HTML.html#160,160,1366,768,1366,768,8-30-2022,9-55-3,78,depth_duration_stimuli/003081_2014-06-15_15-19-16_094959634447_rgbf000150-resize_1/003081_2014-06-15_15-19-16_094959634447_rgbf000150-resize_1-target.png,1000,3.9125,3,3463,993,feet,jsons/v1_VE1000_randls_6.json,826094,1034635,28,Man
78,860188,DepthScenes,duration_manipulation_targetAtFixation,jsons/v1_VE1000_randls_6.json,http://54.235.29.9/FacialAge/BNav_EC2/DepthDuration/v2_depth_duration_MTurk/v2_DepthDuration_HTML.html#160,160,1366,768,1366,768,8-30-2022,9-55-3,79,depth_duration_stimuli/003621_2014-05-23_18-06-08_094959634447_rgbf000101-resize_1/003621_2014-05-23_18-06-08_094959634447_rgbf000101-resize_1-target.png,1000,3.9835,5,11082,1003,feet,jsons/v1_VE1000_randls_6.json,826094,1034635,28,Man
79,860188,DepthScenes,duration_manipulation_targetAtFixation,jsons/v1_VE1000_randls_6.json,http://54.235.29.9/FacialAge/BNav_EC2/DepthDuration/v2_depth_duration_MTurk/v2_DepthDuration_HTML.html#160,160,1366,768,1366,768,8-30-2022,9-55-3,80,depth_duration_stimuli/001584_2014-06-20_11-07-43_260595134347_rgbf000002-resize_1/001584_2014-06-20_11-07-43_260595134347_rgbf000002-resize_1-target.png,1000,3.53,3,3154,992,feet,jsons/v1_VE1000_randls_6.json,826094,1034635,28,Man
80,860188,DepthScenes,duration_manipulation_targetAtFixation,jsons/v1_VE1000_randls_6.json,http://54.235.29.9/FacialAge/BNav_EC2/DepthDuration/v2_depth_duration_MTurk/v2_DepthDuration_HTML.html#160,160,1366,768,1366,768,8-30-2022,9-55-3,81,depth_duration_stimuli/002375_2014-06-28_20-13-44_260595134347_rgbf000032-resize_1/002375_2014-06-28_20-13-44_260595134347_rgbf000032-resize_1-target.png,1000,4.0175,4,3381,1004,feet,jsons/v1_VE1000_randls_6.json,826094,1034635,28,Man
81,860188,DepthScenes,duration_manipulation_targetAtFixation,jsons/v1_VE1000_randls_6.json,http://54.235.29.9/FacialAge/BNav_EC2/DepthDuration/v2_depth_duration_MTurk/v2_DepthDuration_HTML.html#160,160,1366,768,1366,768,8-30-2022,9-55-3,82,depth_duration_stimuli/002657_2014-06-13_15-29-54_094959634447_rgbf000150-resize_1/002657_2014-06-13_15-29-54_094959634447_rgbf000150-resize_1-target.png,1000,4.919,6,3314,1003,feet,jsons/v1_VE1000_randls_6.json,826094,1034635,28,Man
82,860188,DepthScenes,duration_manipulation_targetAtFixation,jsons/v1_VE1000_randls_6.json,http://54.235.29.9/FacialAge/BNav_EC2/DepthDuration/v2_depth_duration_MTurk/v2_DepthDuration_HTML.html#160,160,1366,768,1366,768,8-30-2022,9-55-3,83,depth_duration_stimuli/002509_2014-06-24_13-19-22_094959634447_rgbf000077-resize_0/002509_2014-06-24_13-19-22_094959634447_rgbf000077-resize_0-target.png,1000,1.3065,2,3052,1000,feet,jsons/v1_VE1000_randls_6.json,826094,1034635,28,Man
83,860188,DepthScenes,duration_manipulation_targetAtFixation,jsons/v1_VE1000_randls_6.json,http://54.235.29.9/FacialAge/BNav_EC2/DepthDuration/v2_depth_duration_MTurk/v2_DepthDuration_HTML.html#160,160,1366,768,1366,768,8-30-2022,9-55-3,84,depth_duration_stimuli/003338_2014-05-20_11-01-23_094959634447_rgbf000051-resize_6/003338_2014-05-20_11-01-23_094959634447_rgbf000051-resize_6-target.png,1000,1.693,2,6322,996,feet,jsons/v1_VE1000_randls_6.json,826094,1034635,28,Man
84,860188,DepthScenes,duration_manipulation_targetAtFixation,jsons/v1_VE1000_randls_6.json,http://54.235.29.9/FacialAge/BNav_EC2/DepthDuration/v2_depth_duration_MTurk/v2_DepthDuration_HTML.html#160,160,1366,768,1366,768,8-30-2022,9-55-3,85,depth_duration_stimuli/002549_2014-06-24_13-41-39_094959634447_rgbf000022-resize_3/002549_2014-06-24_13-41-39_094959634447_rgbf000022-resize_3-target.png,1000,1.476,1,3369,1012,feet,jsons/v1_VE1000_randls_6.json,826094,1034635,28,Man
85,860188,DepthScenes,duration_manipulation_targetAtFixation,jsons/v1_VE1000_randls_6.json,http://54.235.29.9/FacialAge/BNav_EC2/DepthDuration/v2_depth_duration_MTurk/v2_DepthDuration_HTML.html#160,160,1366,768,1366,768,8-30-2022,9-55-3,86,depth_duration_stimuli/002750_2014-06-22_19-08-03_094959634447_rgbf000094-resize_4/002750_2014-06-22_19-08-03_094959634447_rgbf000094-resize_4-target.png,1000,2.354,3,3264,1009,feet,jsons/v1_VE1000_randls_6.json,826094,1034635,28,Man
86,860188,DepthScenes,duration_manipulation_targetAtFixation,jsons/v1_VE1000_randls_6.json,http://54.235.29.9/FacialAge/BNav_EC2/DepthDuration/v2_depth_duration_MTurk/v2_DepthDuration_HTML.html#160,160,1366,768,1366,768,8-30-2022,9-55-3,87,depth_duration_stimuli/002057_2014-06-24_21-00-13_260595134347_rgbf000120-resize_1/002057_2014-06-24_21-00-13_260595134347_rgbf000120-resize_1-target.png,1000,2.967,4,3514,998,feet,jsons/v1_VE1000_randls_6.json,826094,1034635,28,Man
87,860188,DepthScenes,duration_manipulation_targetAtFixation,jsons/v1_VE1000_randls_6.json,http://54.235.29.9/FacialAge/BNav_EC2/DepthDuration/v2_depth_duration_MTurk/v2_DepthDuration_HTML.html#160,160,1366,768,1366,768,8-30-2022,9-55-3,88,depth_duration_stimuli/000709_2014-06-08_13-51-55_260595134347_rgbf000068-resize_3/000709_2014-06-08_13-51-55_260595134347_rgbf000068-resize_3-target.png,1000,1.8030000000000002,3,3615,1004,feet,jsons/v1_VE1000_randls_6.json,826094,1034635,28,Man
88,860188,DepthScenes,duration_manipulation_targetAtFixation,jsons/v1_VE1000_randls_6.json,http://54.235.29.9/FacialAge/BNav_EC2/DepthDuration/v2_depth_duration_MTurk/v2_DepthDuration_HTML.html#160,160,1366,768,1366,768,8-30-2022,9-55-3,89,depth_duration_stimuli/000773_2014-06-08_22-24-54_260595134347_rgbf000093-resize_1/000773_2014-06-08_22-24-54_260595134347_rgbf000093-resize_1-target.png,1000,4.973,3,3791,1001,feet,jsons/v1_VE1000_randls_6.json,826094,1034635,28,Man
89,860188,DepthScenes,duration_manipulation_targetAtFixation,jsons/v1_VE1000_randls_6.json,http://54.235.29.9/FacialAge/BNav_EC2/DepthDuration/v2_depth_duration_MTurk/v2_DepthDuration_HTML.html#160,160,1366,768,1366,768,8-30-2022,9-55-3,90,depth_duration_stimuli/002414_2014-06-28_20-24-58_260595134347_rgbf000067-resize_4/002414_2014-06-28_20-24-58_260595134347_rgbf000067-resize_4-target.png,1000,4.363,4,3192,999,feet,jsons/v1_VE1000_randls_6.json,826094,1034635,28,Man
90,860188,DepthScenes,duration_manipulation_targetAtFixation,jsons/v1_VE1000_randls_6.json,http://54.235.29.9/FacialAge/BNav_EC2/DepthDuration/v2_depth_duration_MTurk/v2_DepthDuration_HTML.html#160,160,1366,768,1366,768,8-30-2022,9-55-3,91,depth_duration_stimuli/000906_2014-06-08_13-35-43_260595134347_rgbf000155-resize_1/000906_2014-06-08_13-35-43_260595134347_rgbf000155-resize_1-target.png,1000,2.8489999999999998,3,3163,999,feet,jsons/v1_VE1000_randls_6.json,826094,1034635,28,Man
91,860188,DepthScenes,duration_manipulation_targetAtFixation,jsons/v1_VE1000_randls_6.json,http://54.235.29.9/FacialAge/BNav_EC2/DepthDuration/v2_depth_duration_MTurk/v2_DepthDuration_HTML.html#160,160,1366,768,1366,768,8-30-2022,9-55-3,92,depth_duration_stimuli/002805_2014-06-22_19-54-03_094959634447_rgbf000079-resize_1/002805_2014-06-22_19-54-03_094959634447_rgbf000079-resize_1-target.png,1000,3.1439999999999997,3,3112,1000,feet,jsons/v1_VE1000_randls_6.json,826094,1034635,28,Man
92,860188,DepthScenes,duration_manipulation_targetAtFixation,jsons/v1_VE1000_randls_6.json,http://54.235.29.9/FacialAge/BNav_EC2/DepthDuration/v2_depth_duration_MTurk/v2_DepthDuration_HTML.html#160,160,1366,768,1366,768,8-30-2022,9-55-3,93,depth_duration_stimuli/002570_2014-06-24_13-59-54_094959634447_rgbf000059-resize_0/002570_2014-06-24_13-59-54_094959634447_rgbf000059-resize_0-target.png,1000,4.037,4,4079,1000,feet,jsons/v1_VE1000_randls_6.json,826094,1034635,28,Man
93,860188,DepthScenes,duration_manipulation_targetAtFixation,jsons/v1_VE1000_randls_6.json,http://54.235.29.9/FacialAge/BNav_EC2/DepthDuration/v2_depth_duration_MTurk/v2_DepthDuration_HTML.html#160,160,1366,768,1366,768,8-30-2022,9-55-3,94,depth_duration_stimuli/002467_2014-06-28_20-38-07_260595134347_rgbf000026-resize_2/002467_2014-06-28_20-38-07_260595134347_rgbf000026-resize_2-target.png,1000,4.742,5,6943,999,feet,jsons/v1_VE1000_randls_6.json,826094,1034635,28,Man
94,860188,DepthScenes,duration_manipulation_targetAtFixation,jsons/v1_VE1000_randls_6.json,http://54.235.29.9/FacialAge/BNav_EC2/DepthDuration/v2_depth_duration_MTurk/v2_DepthDuration_HTML.html#160,160,1366,768,1366,768,8-30-2022,9-55-3,95,depth_duration_stimuli/001806_2014-06-26_20-50-20_260595134347_rgbf000091-resize_1/001806_2014-06-26_20-50-20_260595134347_rgbf000091-resize_1-target.png,1000,2.7305,3,6548,1006,feet,jsons/v1_VE1000_randls_6.json,826094,1034635,28,Man
95,860188,DepthScenes,duration_manipulation_targetAtFixation,jsons/v1_VE1000_randls_6.json,http://54.235.29.9/FacialAge/BNav_EC2/DepthDuration/v2_depth_duration_MTurk/v2_DepthDuration_HTML.html#160,160,1366,768,1366,768,8-30-2022,9-55-3,96,depth_duration_stimuli/001617_2014-06-20_11-35-32_260595134347_rgbf000066-resize_1/001617_2014-06-20_11-35-32_260595134347_rgbf000066-resize_1-target.png,1000,3.7910000000000004,4,3212,1001,feet,jsons/v1_VE1000_randls_6.json,826094,1034635,28,Man
96,860188,DepthScenes,duration_manipulation_targetAtFixation,jsons/v1_VE1000_randls_6.json,http://54.235.29.9/FacialAge/BNav_EC2/DepthDuration/v2_depth_duration_MTurk/v2_DepthDuration_HTML.html#160,160,1366,768,1366,768,8-30-2022,9-55-3,97,depth_duration_stimuli/002153_2014-06-25_21-27-18_260595134347_rgbf000038-resize_5/002153_2014-06-25_21-27-18_260595134347_rgbf000038-resize_5-target.png,1000,2.505,5,3187,999,feet,jsons/v1_VE1000_randls_6.json,826094,1034635,28,Man
97,860188,DepthScenes,duration_manipulation_targetAtFixation,jsons/v1_VE1000_randls_6.json,http://54.235.29.9/FacialAge/BNav_EC2/DepthDuration/v2_depth_duration_MTurk/v2_DepthDuration_HTML.html#160,160,1366,768,1366,768,8-30-2022,9-55-3,98,depth_duration_stimuli/002660_2014-06-13_15-44-18_094959634447_rgbf001878-resize_2/002660_2014-06-13_15-44-18_094959634447_rgbf001878-resize_2-target.png,1000,3.576,3,3122,1002,feet,jsons/v1_VE1000_randls_6.json,826094,1034635,28,Man
98,860188,DepthScenes,duration_manipulation_targetAtFixation,jsons/v1_VE1000_randls_6.json,http://54.235.29.9/FacialAge/BNav_EC2/DepthDuration/v2_depth_duration_MTurk/v2_DepthDuration_HTML.html#160,160,1366,768,1366,768,8-30-2022,9-55-3,99,depth_duration_stimuli/001540_2014-06-20_17-01-05_260595134347_rgbf000086-resize_2/001540_2014-06-20_17-01-05_260595134347_rgbf000086-resize-original.jpg,1000,1.459,6,5307,992,feet,jsons/v1_VE1000_randls_6.json,826094,1034635,28,Man
99,860188,DepthScenes,duration_manipulation_targetAtFixation,jsons/v1_VE1000_randls_6.json,http://54.235.29.9/FacialAge/BNav_EC2/DepthDuration/v2_depth_duration_MTurk/v2_DepthDuration_HTML.html#160,160,1366,768,1366,768,8-30-2022,9-55-3,100,depth_duration_stimuli/001055_2014-06-08_18-45-35_260595134347_rgbf000111-resize_4/001055_2014-06-08_18-45-35_260595134347_rgbf000111-resize_4-target.png,1000,2.4290000000000003,3,24332,999,feet,jsons/v1_VE1000_randls_6.json,826094,1034635,28,Man
100,860188,DepthScenes,duration_manipulation_targetAtFixation,jsons/v1_VE1000_randls_6.json,http://54.235.29.9/FacialAge/BNav_EC2/DepthDuration/v2_depth_duration_MTurk/v2_DepthDuration_HTML.html#160,160,1366,768,1366,768,8-30-2022,9-55-3,101,depth_duration_stimuli/000549_2014-06-08_22-10-24_260595134347_rgbf000247-resize_3/000549_2014-06-08_22-10-24_260595134347_rgbf000247-resize_3-target.png,1000,1.841,4,4378,1002,feet,jsons/v1_VE1000_randls_6.json,826094,1034635,28,Man
101,860188,DepthScenes,duration_manipulation_targetAtFixation,jsons/v1_VE1000_randls_6.json,http://54.235.29.9/FacialAge/BNav_EC2/DepthDuration/v2_depth_duration_MTurk/v2_DepthDuration_HTML.html#160,160,1366,768,1366,768,8-30-2022,9-55-3,102,depth_duration_stimuli/000470_2014-06-09_19-42-40_260595134347_rgbf000094-resize_1/000470_2014-06-09_19-42-40_260595134347_rgbf000094-resize_1-target.png,1000,1.831,5,3256,1007,feet,jsons/v1_VE1000_randls_6.json,826094,1034635,28,Man
102,860188,DepthScenes,duration_manipulation_targetAtFixation,jsons/v1_VE1000_randls_6.json,http://54.235.29.9/FacialAge/BNav_EC2/DepthDuration/v2_depth_duration_MTurk/v2_DepthDuration_HTML.html#160,160,1366,768,1366,768,8-30-2022,9-55-3,103,depth_duration_stimuli/000109_2014-05-14_23-41-52_260595134347_rgbf000035-resize_9/000109_2014-05-14_23-41-52_260595134347_rgbf000035-resize_9-target.png,1000,1.3545,6,3269,989,feet,jsons/v1_VE1000_randls_6.json,826094,1034635,28,Man
103,860188,DepthScenes,duration_manipulation_targetAtFixation,jsons/v1_VE1000_randls_6.json,http://54.235.29.9/FacialAge/BNav_EC2/DepthDuration/v2_depth_duration_MTurk/v2_DepthDuration_HTML.html#160,160,1366,768,1366,768,8-30-2022,9-55-3,104,depth_duration_stimuli/000469_2014-06-09_19-42-10_260595134347_rgbf000081-resize_1/000469_2014-06-09_19-42-10_260595134347_rgbf000081-resize_1-target.png,1000,1.652,1,3174,1002,feet,jsons/v1_VE1000_randls_6.json,826094,1034635,28,Man
104,860188,DepthScenes,duration_manipulation_targetAtFixation,jsons/v1_VE1000_randls_6.json,http://54.235.29.9/FacialAge/BNav_EC2/DepthDuration/v2_depth_duration_MTurk/v2_DepthDuration_HTML.html#160,160,1366,768,1366,768,8-30-2022,9-55-3,105,depth_duration_stimuli/000483_2014-06-09_20-41-45_260595134347_rgbf000116-resize_4/000483_2014-06-09_20-41-45_260595134347_rgbf000116-resize_4-target.png,1000,1.337,2,2747,1004,feet,jsons/v1_VE1000_randls_6.json,826094,1034635,28,Man
105,860188,DepthScenes,duration_manipulation_targetAtFixation,jsons/v1_VE1000_randls_6.json,http://54.235.29.9/FacialAge/BNav_EC2/DepthDuration/v2_depth_duration_MTurk/v2_DepthDuration_HTML.html#160,160,1366,768,1366,768,8-30-2022,9-55-3,106,depth_duration_stimuli/001164_2014-06-17_15-35-46_260595134347_rgbf000085-resize_3/001164_2014-06-17_15-35-46_260595134347_rgbf000085-resize_3-target.png,1000,2.354,3,3817,994,feet,jsons/v1_VE1000_randls_6.json,826094,1034635,28,Man
106,860188,DepthScenes,duration_manipulation_targetAtFixation,jsons/v1_VE1000_randls_6.json,http://54.235.29.9/FacialAge/BNav_EC2/DepthDuration/v2_depth_duration_MTurk/v2_DepthDuration_HTML.html#160,160,1366,768,1366,768,8-30-2022,9-55-3,107,depth_duration_stimuli/001136_2014-06-17_15-19-41_260595134347_rgbf000076-resize_3/001136_2014-06-17_15-19-41_260595134347_rgbf000076-resize_3-target.png,1000,1.8655,2,2931,993,feet,jsons/v1_VE1000_randls_6.json,826094,1034635,28,Man
107,860188,DepthScenes,duration_manipulation_targetAtFixation,jsons/v1_VE1000_randls_6.json,http://54.235.29.9/FacialAge/BNav_EC2/DepthDuration/v2_depth_duration_MTurk/v2_DepthDuration_HTML.html#160,160,1366,768,1366,768,8-30-2022,9-55-3,108,depth_duration_stimuli/003292_2014-05-14_21-53-49_094959634447_rgbf000100-resize_2/003292_2014-05-14_21-53-49_094959634447_rgbf000100-resize_2-target.png,1000,3.4815,4,2927,1001,feet,jsons/v1_VE1000_randls_6.json,826094,1034635,28,Man
108,860188,DepthScenes,duration_manipulation_targetAtFixation,jsons/v1_VE1000_randls_6.json,http://54.235.29.9/FacialAge/BNav_EC2/DepthDuration/v2_depth_duration_MTurk/v2_DepthDuration_HTML.html#160,160,1366,768,1366,768,8-30-2022,9-55-3,109,depth_duration_stimuli/002639_2014-06-24_14-51-37_094959634447_rgbf000074-resize_4/002639_2014-06-24_14-51-37_094959634447_rgbf000074-resize_4-target.png,1000,4.0375,2,3025,998,feet,jsons/v1_VE1000_randls_6.json,826094,1034635,28,Man
109,860188,DepthScenes,duration_manipulation_targetAtFixation,jsons/v1_VE1000_randls_6.json,http://54.235.29.9/FacialAge/BNav_EC2/DepthDuration/v2_depth_duration_MTurk/v2_DepthDuration_HTML.html#160,160,1366,768,1366,768,8-30-2022,9-55-3,110,depth_duration_stimuli/002725_2014-06-22_11-47-51_094959634447_rgbf000070-resize_1/002725_2014-06-22_11-47-51_094959634447_rgbf000070-resize_1-target.png,1000,2.195,3,3060,985,feet,jsons/v1_VE1000_randls_6.json,826094,1034635,28,Man
110,860188,DepthScenes,duration_manipulation_targetAtFixation,jsons/v1_VE1000_randls_6.json,http://54.235.29.9/FacialAge/BNav_EC2/DepthDuration/v2_depth_duration_MTurk/v2_DepthDuration_HTML.html#160,160,1366,768,1366,768,8-30-2022,9-55-3,111,depth_duration_stimuli/002344_2014-06-28_20-06-29_260595134347_rgbf000030-resize_1/002344_2014-06-28_20-06-29_260595134347_rgbf000030-resize_1-target.png,1000,1.5795,2,2857,1002,feet,jsons/v1_VE1000_randls_6.json,826094,1034635,28,Man
111,860188,DepthScenes,duration_manipulation_targetAtFixation,jsons/v1_VE1000_randls_6.json,http://54.235.29.9/FacialAge/BNav_EC2/DepthDuration/v2_depth_duration_MTurk/v2_DepthDuration_HTML.html#160,160,1366,768,1366,768,8-30-2022,9-55-3,112,depth_duration_stimuli/000929_2014-06-09_16-33-19_260595134347_rgbf000139-resize_0/000929_2014-06-09_16-33-19_260595134347_rgbf000139-resize_0-target.png,1000,2.8680000000000003,2,3178,1012,feet,jsons/v1_VE1000_randls_6.json,826094,1034635,28,Man
112,860188,DepthScenes,duration_manipulation_targetAtFixation,jsons/v1_VE1000_randls_6.json,http://54.235.29.9/FacialAge/BNav_EC2/DepthDuration/v2_depth_duration_MTurk/v2_DepthDuration_HTML.html#160,160,1366,768,1366,768,8-30-2022,9-55-3,113,depth_duration_stimuli/000457_2014-06-08_16-52-43_260595134347_rgbf000199-resize_1/000457_2014-06-08_16-52-43_260595134347_rgbf000199-resize_1-target.png,1000,3.6489999999999996,3,3027,992,feet,jsons/v1_VE1000_randls_6.json,826094,1034635,28,Man
113,860188,DepthScenes,duration_manipulation_targetAtFixation,jsons/v1_VE1000_randls_6.json,http://54.235.29.9/FacialAge/BNav_EC2/DepthDuration/v2_depth_duration_MTurk/v2_DepthDuration_HTML.html#160,160,1366,768,1366,768,8-30-2022,9-55-3,114,depth_duration_stimuli/002279_2014-06-28_18-55-32_260595134347_rgbf000040-resize_5/002279_2014-06-28_18-55-32_260595134347_rgbf000040-resize_5-target.png,1000,1.5043333333333,3,2937,1005,feet,jsons/v1_VE1000_randls_6.json,826094,1034635,28,Man
114,860188,DepthScenes,duration_manipulation_targetAtFixation,jsons/v1_VE1000_randls_6.json,http://54.235.29.9/FacialAge/BNav_EC2/DepthDuration/v2_depth_duration_MTurk/v2_DepthDuration_HTML.html#160,160,1366,768,1366,768,8-30-2022,9-55-3,115,depth_duration_stimuli/000635_2014-06-08_16-38-42_260595134347_rgbf000106-resize_1/000635_2014-06-08_16-38-42_260595134347_rgbf000106-resize_1-target.png,1000,2.074,2,2915,995,feet,jsons/v1_VE1000_randls_6.json,826094,1034635,28,Man
115,860188,DepthScenes,duration_manipulation_targetAtFixation,jsons/v1_VE1000_randls_6.json,http://54.235.29.9/FacialAge/BNav_EC2/DepthDuration/v2_depth_duration_MTurk/v2_DepthDuration_HTML.html#160,160,1366,768,1366,768,8-30-2022,9-55-3,116,depth_duration_stimuli/001170_2014-06-17_15-43-44_260595134347_rgbf000096-resize_6/001170_2014-06-17_15-43-44_260595134347_rgbf000096-resize-original.jpg,1000,1.1909999999999998,5,3010,1000,feet,jsons/v1_VE1000_randls_6.json,826094,1034635,28,Man
116,860188,DepthScenes,duration_manipulation_targetAtFixation,jsons/v1_VE1000_randls_6.json,http://54.235.29.9/FacialAge/BNav_EC2/DepthDuration/v2_depth_duration_MTurk/v2_DepthDuration_HTML.html#160,160,1366,768,1366,768,8-30-2022,9-55-3,117,depth_duration_stimuli/000692_2014-06-08_13-09-42_260595134347_rgbf000199-resize_2/000692_2014-06-08_13-09-42_260595134347_rgbf000199-resize_2-target.png,1000,3.661,4,3125,998,feet,jsons/v1_VE1000_randls_6.json,826094,1034635,28,Man
117,860188,DepthScenes,duration_manipulation_targetAtFixation,jsons/v1_VE1000_randls_6.json,http://54.235.29.9/FacialAge/BNav_EC2/DepthDuration/v2_depth_duration_MTurk/v2_DepthDuration_HTML.html#160,160,1366,768,1366,768,8-30-2022,9-55-3,118,depth_duration_stimuli/001094_2014-06-15_17-36-00_260595134347_rgbf000205-resize_0/001094_2014-06-15_17-36-00_260595134347_rgbf000205-resize_0-target.png,1000,4.2175,6,3225,1007,feet,jsons/v1_VE1000_randls_6.json,826094,1034635,28,Man
118,860188,DepthScenes,duration_manipulation_targetAtFixation,jsons/v1_VE1000_randls_6.json,http://54.235.29.9/FacialAge/BNav_EC2/DepthDuration/v2_depth_duration_MTurk/v2_DepthDuration_HTML.html#160,160,1366,768,1366,768,8-30-2022,9-55-3,119,depth_duration_stimuli/001199_2014-06-17_16-03-48_260595134347_rgbf000077-resize_0/001199_2014-06-17_16-03-48_260595134347_rgbf000077-resize_0-target.png,1000,3.4375,5,4025,998,feet,jsons/v1_VE1000_randls_6.json,826094,1034635,28,Man
119,860188,DepthScenes,duration_manipulation_targetAtFixation,jsons/v1_VE1000_randls_6.json,http://54.235.29.9/FacialAge/BNav_EC2/DepthDuration/v2_depth_duration_MTurk/v2_DepthDuration_HTML.html#160,160,1366,768,1366,768,8-30-2022,9-55-3,120,depth_duration_stimuli/000502_2014-06-08_23-02-32_260595134347_rgbf000063-resize_4/000502_2014-06-08_23-02-32_260595134347_rgbf000063-resize_4-target.png,1000,2.431,6,3841,1003,feet,jsons/v1_VE1000_randls_6.json,826094,1034635,28,Man
120,860188,DepthScenes,duration_manipulation_targetAtFixation,jsons/v1_VE1000_randls_6.json,http://54.235.29.9/FacialAge/BNav_EC2/DepthDuration/v2_depth_duration_MTurk/v2_DepthDuration_HTML.html#160,160,1366,768,1366,768,8-30-2022,9-55-3,121,depth_duration_stimuli/002788_2014-06-22_19-36-03_094959634447_rgbf000088-resize_2/002788_2014-06-22_19-36-03_094959634447_rgbf000088-resize_2-target.png,1000,1.6465,5,5201,1003,feet,jsons/v1_VE1000_randls_6.json,826094,1034635,28,Man
121,860188,DepthScenes,duration_manipulation_targetAtFixation,jsons/v1_VE1000_randls_6.json,http://54.235.29.9/FacialAge/BNav_EC2/DepthDuration/v2_depth_duration_MTurk/v2_DepthDuration_HTML.html#160,160,1366,768,1366,768,8-30-2022,9-55-3,122,depth_duration_stimuli/000749_2014-06-08_21-55-06_260595134347_rgbf000070-resize_2/000749_2014-06-08_21-55-06_260595134347_rgbf000070-resize_2-target.png,1000,2.331,4,3411,997,feet,jsons/v1_VE1000_randls_6.json,826094,1034635,28,Man
122,860188,DepthScenes,duration_manipulation_targetAtFixation,jsons/v1_VE1000_randls_6.json,http://54.235.29.9/FacialAge/BNav_EC2/DepthDuration/v2_depth_duration_MTurk/v2_DepthDuration_HTML.html#160,160,1366,768,1366,768,8-30-2022,9-55-3,123,depth_duration_stimuli/001092_2014-06-15_17-34-58_260595134347_rgbf000171-resize_3/001092_2014-06-15_17-34-58_260595134347_rgbf000171-resize_3-target.png,1000,2.6935,2,2982,999,feet,jsons/v1_VE1000_randls_6.json,826094,1034635,28,Man
123,860188,DepthScenes,duration_manipulation_targetAtFixation,jsons/v1_VE1000_randls_6.json,http://54.235.29.9/FacialAge/BNav_EC2/DepthDuration/v2_depth_duration_MTurk/v2_DepthDuration_HTML.html#160,160,1366,768,1366,768,8-30-2022,9-55-3,124,depth_duration_stimuli/002545_2014-06-24_13-38-53_094959634447_rgbf000080-resize_4/002545_2014-06-24_13-38-53_094959634447_rgbf000080-resize_4-target.png,1000,1.9205,3,6218,1000,feet,jsons/v1_VE1000_randls_6.json,826094,1034635,28,Man
124,860188,DepthScenes,duration_manipulation_targetAtFixation,jsons/v1_VE1000_randls_6.json,http://54.235.29.9/FacialAge/BNav_EC2/DepthDuration/v2_depth_duration_MTurk/v2_DepthDuration_HTML.html#160,160,1366,768,1366,768,8-30-2022,9-55-3,125,depth_duration_stimuli/002989_2014-06-15_12-25-03_094959634447_rgbf000150-resize_3/002989_2014-06-15_12-25-03_094959634447_rgbf000150-resize_3-target.png,1000,4.1975,6,3420,998,feet,jsons/v1_VE1000_randls_6.json,826094,1034635,28,Man
125,860188,DepthScenes,duration_manipulation_targetAtFixation,jsons/v1_VE1000_randls_6.json,http://54.235.29.9/FacialAge/BNav_EC2/DepthDuration/v2_depth_duration_MTurk/v2_DepthDuration_HTML.html#160,160,1366,768,1366,768,8-30-2022,9-55-3,126,depth_duration_stimuli/000866_2014-06-09_20-45-42_260595134347_rgbf000139-resize_1/000866_2014-06-09_20-45-42_260595134347_rgbf000139-resize_1-target.png,1000,3.2155,4,3840,1006,feet,jsons/v1_VE1000_randls_6.json,826094,1034635,28,Man
126,860188,DepthScenes,duration_manipulation_targetAtFixation,jsons/v1_VE1000_randls_6.json,http://54.235.29.9/FacialAge/BNav_EC2/DepthDuration/v2_depth_duration_MTurk/v2_DepthDuration_HTML.html#160,160,1366,768,1366,768,8-30-2022,9-55-3,127,depth_duration_stimuli/000878_2014-06-08_22-52-45_260595134347_rgbf000045-resize_2/000878_2014-06-08_22-52-45_260595134347_rgbf000045-resize_2-target.png,1000,2.092,5,3161,1003,feet,jsons/v1_VE1000_randls_6.json,826094,1034635,28,Man
127,860188,DepthScenes,duration_manipulation_targetAtFixation,jsons/v1_VE1000_randls_6.json,http://54.235.29.9/FacialAge/BNav_EC2/DepthDuration/v2_depth_duration_MTurk/v2_DepthDuration_HTML.html#160,160,1366,768,1366,768,8-30-2022,9-55-3,128,depth_duration_stimuli/002953_2014-06-08_17-32-18_094959634447_rgbf000059-resize_5/002953_2014-06-08_17-32-18_094959634447_rgbf000059-resize_5-target.png,1000,1.551,2,2921,1004,feet,jsons/v1_VE1000_randls_6.json,826094,1034635,28,Man
128,860188,DepthScenes,duration_manipulation_targetAtFixation,jsons/v1_VE1000_randls_6.json,http://54.235.29.9/FacialAge/BNav_EC2/DepthDuration/v2_depth_duration_MTurk/v2_DepthDuration_HTML.html#160,160,1366,768,1366,768,8-30-2022,9-55-3,129,depth_duration_stimuli/000447_2014-06-08_16-15-46_260595134347_rgbf000130-resize_1/000447_2014-06-08_16-15-46_260595134347_rgbf000130-resize_1-target.png,1000,4.479,3,3453,999,feet,jsons/v1_VE1000_randls_6.json,826094,1034635,28,Man
129,860188,DepthScenes,duration_manipulation_targetAtFixation,jsons/v1_VE1000_randls_6.json,http://54.235.29.9/FacialAge/BNav_EC2/DepthDuration/v2_depth_duration_MTurk/v2_DepthDuration_HTML.html#160,160,1366,768,1366,768,8-30-2022,9-55-3,130,depth_duration_stimuli/001447_2014-06-19_17-00-32_260595134347_rgbf000082-resize_5/001447_2014-06-19_17-00-32_260595134347_rgbf000082-resize_5-target.png,1000,4.13775,4,3777,1005,feet,jsons/v1_VE1000_randls_6.json,826094,1034635,28,Man
130,860188,DepthScenes,duration_manipulation_targetAtFixation,jsons/v1_VE1000_randls_6.json,http://54.235.29.9/FacialAge/BNav_EC2/DepthDuration/v2_depth_duration_MTurk/v2_DepthDuration_HTML.html#160,160,1366,768,1366,768,8-30-2022,9-55-3,131,depth_duration_stimuli/000493_2014-06-09_21-01-18_260595134347_rgbf000196-resize_3/000493_2014-06-09_21-01-18_260595134347_rgbf000196-resize_3-target.png,1000,3.44,3,3637,994,feet,jsons/v1_VE1000_randls_6.json,826094,1034635,28,Man
131,860188,DepthScenes,duration_manipulation_targetAtFixation,jsons/v1_VE1000_randls_6.json,http://54.235.29.9/FacialAge/BNav_EC2/DepthDuration/v2_depth_duration_MTurk/v2_DepthDuration_HTML.html#160,160,1366,768,1366,768,8-30-2022,9-55-3,132,depth_duration_stimuli/000191_2014-05-12_17-07-38_260595134347_rgbf000199-resize_0/000191_2014-05-12_17-07-38_260595134347_rgbf000199-resize_0-target.png,1000,3.7995,5,3582,1004,feet,jsons/v1_VE1000_randls_6.json,826094,1034635,28,Man
132,860188,DepthScenes,duration_manipulation_targetAtFixation,jsons/v1_VE1000_randls_6.json,http://54.235.29.9/FacialAge/BNav_EC2/DepthDuration/v2_depth_duration_MTurk/v2_DepthDuration_HTML.html#160,160,1366,768,1366,768,8-30-2022,9-55-3,133,depth_duration_stimuli/001059_2014-06-08_21-53-27_260595134347_rgbf000061-resize_4/001059_2014-06-08_21-53-27_260595134347_rgbf000061-resize_4-target.png,1000,2.4185,2,6346,994,feet,jsons/v1_VE1000_randls_6.json,826094,1034635,28,Man
133,860188,DepthScenes,duration_manipulation_targetAtFixation,jsons/v1_VE1000_randls_6.json,http://54.235.29.9/FacialAge/BNav_EC2/DepthDuration/v2_depth_duration_MTurk/v2_DepthDuration_HTML.html#160,160,1366,768,1366,768,8-30-2022,9-55-3,134,depth_duration_stimuli/001032_2014-06-08_13-23-17_260595134347_rgbf000021-resize_3/001032_2014-06-08_13-23-17_260595134347_rgbf000021-resize_3-target.png,1000,3.2725,2,14047,1003,feet,jsons/v1_VE1000_randls_6.json,826094,1034635,28,Man
134,860188,DepthScenes,duration_manipulation_targetAtFixation,jsons/v1_VE1000_randls_6.json,http://54.235.29.9/FacialAge/BNav_EC2/DepthDuration/v2_depth_duration_MTurk/v2_DepthDuration_HTML.html#160,160,1366,768,1366,768,8-30-2022,9-55-3,135,depth_duration_stimuli/002072_2014-06-24_21-48-06_260595134347_rgbf000115-resize_0/002072_2014-06-24_21-48-06_260595134347_rgbf000115-resize-original.jpg,1000,4.702,5,3891,1001,feet,jsons/v1_VE1000_randls_6.json,826094,1034635,28,Man
135,860188,DepthScenes,duration_manipulation_targetAtFixation,jsons/v1_VE1000_randls_6.json,http://54.235.29.9/FacialAge/BNav_EC2/DepthDuration/v2_depth_duration_MTurk/v2_DepthDuration_HTML.html#160,160,1366,768,1366,768,8-30-2022,9-55-3,136,depth_duration_stimuli/001066_2014-06-08_22-03-20_260595134347_rgbf000066-resize_4/001066_2014-06-08_22-03-20_260595134347_rgbf000066-resize_4-target.png,1000,4.2330000000000005,6,3390,1003,feet,jsons/v1_VE1000_randls_6.json,826094,1034635,28,Man
136,860188,DepthScenes,duration_manipulation_targetAtFixation,jsons/v1_VE1000_randls_6.json,http://54.235.29.9/FacialAge/BNav_EC2/DepthDuration/v2_depth_duration_MTurk/v2_DepthDuration_HTML.html#160,160,1366,768,1366,768,8-30-2022,9-55-3,137,depth_duration_stimuli/000742_2014-06-08_18-48-09_260595134347_rgbf000164-resize_4/000742_2014-06-08_18-48-09_260595134347_rgbf000164-resize_4-target.png,1000,4.632,5,3874,1007,feet,jsons/v1_VE1000_randls_6.json,826094,1034635,28,Man
137,860188,DepthScenes,duration_manipulation_targetAtFixation,jsons/v1_VE1000_randls_6.json,http://54.235.29.9/FacialAge/BNav_EC2/DepthDuration/v2_depth_duration_MTurk/v2_DepthDuration_HTML.html#160,160,1366,768,1366,768,8-30-2022,9-55-3,138,depth_duration_stimuli/001056_2014-06-08_18-46-44_260595134347_rgbf000068-resize_0/001056_2014-06-08_18-46-44_260595134347_rgbf000068-resize_0-target.png,1000,2.6625,4,3854,1006,feet,jsons/v1_VE1000_randls_6.json,826094,1034635,28,Man
138,860188,DepthScenes,duration_manipulation_targetAtFixation,jsons/v1_VE1000_randls_6.json,http://54.235.29.9/FacialAge/BNav_EC2/DepthDuration/v2_depth_duration_MTurk/v2_DepthDuration_HTML.html#160,160,1366,768,1366,768,8-30-2022,9-55-3,139,depth_duration_stimuli/002199_2014-06-28_18-33-56_260595134347_rgbf000074-resize_0/002199_2014-06-28_18-33-56_260595134347_rgbf000074-resize_0-target.png,1000,1.996,6,3745,1003,feet,jsons/v1_VE1000_randls_6.json,826094,1034635,28,Man
139,860188,DepthScenes,duration_manipulation_targetAtFixation,jsons/v1_VE1000_randls_6.json,http://54.235.29.9/FacialAge/BNav_EC2/DepthDuration/v2_depth_duration_MTurk/v2_DepthDuration_HTML.html#160,160,1366,768,1366,768,8-30-2022,9-55-3,140,depth_duration_stimuli/000436_2014-06-09_22-25-11_260595134347_rgbf000137-resize_1/000436_2014-06-09_22-25-11_260595134347_rgbf000137-resize_1-target.png,1000,4.0705,5,3986,999,feet,jsons/v1_VE1000_randls_6.json,826094,1034635,28,Man
140,860188,DepthScenes,duration_manipulation_targetAtFixation,jsons/v1_VE1000_randls_6.json,http://54.235.29.9/FacialAge/BNav_EC2/DepthDuration/v2_depth_duration_MTurk/v2_DepthDuration_HTML.html#160,160,1366,768,1366,768,8-30-2022,9-55-3,141,depth_duration_stimuli/002444_2014-06-28_20-32-08_260595134347_rgbf000027-resize_0/002444_2014-06-28_20-32-08_260595134347_rgbf000027-resize_0-target.png,1000,4.388999999999999,5,4706,992,feet,jsons/v1_VE1000_randls_6.json,826094,1034635,28,Man
141,860188,DepthScenes,duration_manipulation_targetAtFixation,jsons/v1_VE1000_randls_6.json,http://54.235.29.9/FacialAge/BNav_EC2/DepthDuration/v2_depth_duration_MTurk/v2_DepthDuration_HTML.html#160,160,1366,768,1366,768,8-30-2022,9-55-3,142,depth_duration_stimuli/001158_2014-06-17_15-32-16_260595134347_rgbf000138-resize_2/001158_2014-06-17_15-32-16_260595134347_rgbf000138-resize_2-target.png,1000,4.5315,6,3684,1002,feet,jsons/v1_VE1000_randls_6.json,826094,1034635,28,Man
142,860188,DepthScenes,duration_manipulation_targetAtFixation,jsons/v1_VE1000_randls_6.json,http://54.235.29.9/FacialAge/BNav_EC2/DepthDuration/v2_depth_duration_MTurk/v2_DepthDuration_HTML.html#160,160,1366,768,1366,768,8-30-2022,9-55-3,143,depth_duration_stimuli/000556_2014-06-09_22-42-56_260595134347_rgbf000214-resize_1/000556_2014-06-09_22-42-56_260595134347_rgbf000214-resize_1-target.png,1000,4.8415,5,3931,999,feet,jsons/v1_VE1000_randls_6.json,826094,1034635,28,Man
143,860188,DepthScenes,duration_manipulation_targetAtFixation,jsons/v1_VE1000_randls_6.json,http://54.235.29.9/FacialAge/BNav_EC2/DepthDuration/v2_depth_duration_MTurk/v2_DepthDuration_HTML.html#160,160,1366,768,1366,768,8-30-2022,9-55-3,144,depth_duration_stimuli/001808_2014-06-26_20-50-58_260595134347_rgbf000029-resize_1/001808_2014-06-26_20-50-58_260595134347_rgbf000029-resize_1-target.png,1000,4.249,3,3925,996,feet,jsons/v1_VE1000_randls_6.json,826094,1034635,28,Man
144,860188,DepthScenes,duration_manipulation_targetAtFixation,jsons/v1_VE1000_randls_6.json,http://54.235.29.9/FacialAge/BNav_EC2/DepthDuration/v2_depth_duration_MTurk/v2_DepthDuration_HTML.html#160,160,1366,768,1366,768,8-30-2022,9-55-3,145,depth_duration_stimuli/001815_2014-06-26_20-52-55_260595134347_rgbf000020-resize_0/001815_2014-06-26_20-52-55_260595134347_rgbf000020-resize_0-target.png,1000,3.3865,4,3574,1001,feet,jsons/v1_VE1000_randls_6.json,826094,1034635,28,Man
145,860188,DepthScenes,duration_manipulation_targetAtFixation,jsons/v1_VE1000_randls_6.json,http://54.235.29.9/FacialAge/BNav_EC2/DepthDuration/v2_depth_duration_MTurk/v2_DepthDuration_HTML.html#160,160,1366,768,1366,768,8-30-2022,9-55-3,146,depth_duration_stimuli/001498_2014-06-19_17-45-14_260595134347_rgbf000129-resize_4/001498_2014-06-19_17-45-14_260595134347_rgbf000129-resize-original.jpg,1000,1.4075,3,3187,995,feet,jsons/v1_VE1000_randls_6.json,826094,1034635,28,Man
146,860188,DepthScenes,duration_manipulation_targetAtFixation,jsons/v1_VE1000_randls_6.json,http://54.235.29.9/FacialAge/BNav_EC2/DepthDuration/v2_depth_duration_MTurk/v2_DepthDuration_HTML.html#160,160,1366,768,1366,768,8-30-2022,9-55-3,147,depth_duration_stimuli/000682_2014-06-08_23-14-58_260595134347_rgbf000041-resize_5/000682_2014-06-08_23-14-58_260595134347_rgbf000041-resize_5-target.png,1000,2.7239999999999998,3,3086,1000,feet,jsons/v1_VE1000_randls_6.json,826094,1034635,28,Man
147,860188,DepthScenes,duration_manipulation_targetAtFixation,jsons/v1_VE1000_randls_6.json,http://54.235.29.9/FacialAge/BNav_EC2/DepthDuration/v2_depth_duration_MTurk/v2_DepthDuration_HTML.html#160,160,1366,768,1366,768,8-30-2022,9-55-3,148,depth_duration_stimuli/001650_2014-06-20_12-09-00_260595134347_rgbf000087-resize_3/001650_2014-06-20_12-09-00_260595134347_rgbf000087-resize_3-target.png,1000,1.9505,1,3226,994,feet,jsons/v1_VE1000_randls_6.json,826094,1034635,28,Man
148,860188,DepthScenes,duration_manipulation_targetAtFixation,jsons/v1_VE1000_randls_6.json,http://54.235.29.9/FacialAge/BNav_EC2/DepthDuration/v2_depth_duration_MTurk/v2_DepthDuration_HTML.html#160,160,1366,768,1366,768,8-30-2022,9-55-3,149,depth_duration_stimuli/000758_2014-06-08_22-05-08_260595134347_rgbf000085-resize_0/000758_2014-06-08_22-05-08_260595134347_rgbf000085-resize_0-target.png,1000,3.3810000000000002,4,2973,998,feet,jsons/v1_VE1000_randls_6.json,826094,1034635,28,Man
149,860188,DepthScenes,duration_manipulation_targetAtFixation,jsons/v1_VE1000_randls_6.json,http://54.235.29.9/FacialAge/BNav_EC2/DepthDuration/v2_depth_duration_MTurk/v2_DepthDuration_HTML.html#160,160,1366,768,1366,768,8-30-2022,9-55-3,150,depth_duration_stimuli/000854_2014-06-09_19-43-13_260595134347_rgbf000066-resize_0/000854_2014-06-09_19-43-13_260595134347_rgbf000066-resize_0-target.png,1000,3.068,2,3450,1003,feet,jsons/v1_VE1000_randls_6.json,826094,1034635,28,Man
150,860188,DepthScenes,duration_manipulation_targetAtFixation,jsons/v1_VE1000_randls_6.json,http://54.235.29.9/FacialAge/BNav_EC2/DepthDuration/v2_depth_duration_MTurk/v2_DepthDuration_HTML.html#160,160,1366,768,1366,768,8-30-2022,9-55-3,151,depth_duration_stimuli/002600_2014-06-24_14-27-04_094959634447_rgbf000074-resize_2/002600_2014-06-24_14-27-04_094959634447_rgbf000074-resize_2-target.png,1000,2.7575,3,3238,999,feet,jsons/v1_VE1000_randls_6.json,826094,1034635,28,Man
151,860188,DepthScenes,duration_manipulation_targetAtFixation,jsons/v1_VE1000_randls_6.json,http://54.235.29.9/FacialAge/BNav_EC2/DepthDuration/v2_depth_duration_MTurk/v2_DepthDuration_HTML.html#160,160,1366,768,1366,768,8-30-2022,9-55-3,152,depth_duration_stimuli/003228_2014-05-14_13-42-35_094959634447_rgbf000101-resize_1/003228_2014-05-14_13-42-35_094959634447_rgbf000101-resize_1-target.png,1000,1.9680000000000002,4,3555,992,feet,jsons/v1_VE1000_randls_6.json,826094,1034635,28,Man
152,860188,DepthScenes,duration_manipulation_targetAtFixation,jsons/v1_VE1000_randls_6.json,http://54.235.29.9/FacialAge/BNav_EC2/DepthDuration/v2_depth_duration_MTurk/v2_DepthDuration_HTML.html#160,160,1366,768,1366,768,8-30-2022,9-55-3,153,depth_duration_stimuli/001016_2014-06-09_16-16-10_260595134347_rgbf000112-resize_5/001016_2014-06-09_16-16-10_260595134347_rgbf000112-resize_5-target.png,1000,1.6565,4,4294,988,feet,jsons/v1_VE1000_randls_6.json,826094,1034635,28,Man
153,860188,DepthScenes,duration_manipulation_targetAtFixation,jsons/v1_VE1000_randls_6.json,http://54.235.29.9/FacialAge/BNav_EC2/DepthDuration/v2_depth_duration_MTurk/v2_DepthDuration_HTML.html#160,160,1366,768,1366,768,8-30-2022,9-55-3,154,depth_duration_stimuli/002340_2014-06-28_20-05-46_260595134347_rgbf000113-resize_0/002340_2014-06-28_20-05-46_260595134347_rgbf000113-resize_0-target.png,1000,2.4735,3,2960,1010,feet,jsons/v1_VE1000_randls_6.json,826094,1034635,28,Man
154,860188,DepthScenes,duration_manipulation_targetAtFixation,jsons/v1_VE1000_randls_6.json,http://54.235.29.9/FacialAge/BNav_EC2/DepthDuration/v2_depth_duration_MTurk/v2_DepthDuration_HTML.html#160,160,1366,768,1366,768,8-30-2022,9-55-3,155,depth_duration_stimuli/002118_2014-06-25_20-32-08_260595134347_rgbf000078-resize_1/002118_2014-06-25_20-32-08_260595134347_rgbf000078-resize_1-target.png,1000,2.6460000000000004,4,4254,1002,feet,jsons/v1_VE1000_randls_6.json,826094,1034635,28,Man
155,860188,DepthScenes,duration_manipulation_targetAtFixation,jsons/v1_VE1000_randls_6.json,http://54.235.29.9/FacialAge/BNav_EC2/DepthDuration/v2_depth_duration_MTurk/v2_DepthDuration_HTML.html#160,160,1366,768,1366,768,8-30-2022,9-55-3,156,depth_duration_stimuli/001516_2014-06-20_16-25-09_260595134347_rgbf000076-resize_2/001516_2014-06-20_16-25-09_260595134347_rgbf000076-resize_2-target.png,1000,1.7445,1,3226,993,feet,jsons/v1_VE1000_randls_6.json,826094,1034635,28,Man
156,860188,DepthScenes,duration_manipulation_targetAtFixation,jsons/v1_VE1000_randls_6.json,http://54.235.29.9/FacialAge/BNav_EC2/DepthDuration/v2_depth_duration_MTurk/v2_DepthDuration_HTML.html#160,160,1366,768,1366,768,8-30-2022,9-55-3,157,depth_duration_stimuli/001167_2014-06-17_15-38-07_260595134347_rgbf000108-resize_0/001167_2014-06-17_15-38-07_260595134347_rgbf000108-resize_0-target.png,1000,1.8505,2,4394,999,feet,jsons/v1_VE1000_randls_6.json,826094,1034635,28,Man
157,860188,DepthScenes,duration_manipulation_targetAtFixation,jsons/v1_VE1000_randls_6.json,http://54.235.29.9/FacialAge/BNav_EC2/DepthDuration/v2_depth_duration_MTurk/v2_DepthDuration_HTML.html#160,160,1366,768,1366,768,8-30-2022,9-55-3,158,depth_duration_stimuli/003587_2014-05-23_16-48-02_094959634447_rgbf002384-resize_2/003587_2014-05-23_16-48-02_094959634447_rgbf002384-resize_2-target.png,1000,1.357,2,3726,998,feet,jsons/v1_VE1000_randls_6.json,826094,1034635,28,Man
158,860188,DepthScenes,duration_manipulation_targetAtFixation,jsons/v1_VE1000_randls_6.json,http://54.235.29.9/FacialAge/BNav_EC2/DepthDuration/v2_depth_duration_MTurk/v2_DepthDuration_HTML.html#160,160,1366,768,1366,768,8-30-2022,9-55-3,159,depth_duration_stimuli/000486_2014-06-09_20-47-20_260595134347_rgbf000143-resize_2/000486_2014-06-09_20-47-20_260595134347_rgbf000143-resize_2-target.png,1000,4.8325,3,3073,1013,feet,jsons/v1_VE1000_randls_6.json,826094,1034635,28,Man
159,860188,DepthScenes,duration_manipulation_targetAtFixation,jsons/v1_VE1000_randls_6.json,http://54.235.29.9/FacialAge/BNav_EC2/DepthDuration/v2_depth_duration_MTurk/v2_DepthDuration_HTML.html#160,160,1366,768,1366,768,8-30-2022,9-55-3,160,depth_duration_stimuli/003083_2014-06-15_15-21-03_094959634447_rgbf000063-resize_1/003083_2014-06-15_15-21-03_094959634447_rgbf000063-resize_1-target.png,1000,4.1405,4,3117,1003,feet,jsons/v1_VE1000_randls_6.json,826094,1034635,28,Man
160,860188,DepthScenes,duration_manipulation_targetAtFixation,jsons/v1_VE1000_randls_6.json,http://54.235.29.9/FacialAge/BNav_EC2/DepthDuration/v2_depth_duration_MTurk/v2_DepthDuration_HTML.html#160,160,1366,768,1366,768,8-30-2022,9-55-3,161,depth_duration_stimuli/000522_2014-06-08_13-35-06_260595134347_rgbf000244-resize_1/000522_2014-06-08_13-35-06_260595134347_rgbf000244-resize_1-target.png,1000,2.3715,5,3369,999,feet,jsons/v1_VE1000_randls_6.json,826094,1034635,28,Man
161,860188,DepthScenes,duration_manipulation_targetAtFixation,jsons/v1_VE1000_randls_6.json,http://54.235.29.9/FacialAge/BNav_EC2/DepthDuration/v2_depth_duration_MTurk/v2_DepthDuration_HTML.html#160,160,1366,768,1366,768,8-30-2022,9-55-3,162,depth_duration_stimuli/002949_2014-06-26_15-57-42_094959634447_rgbf000079-resize_1/002949_2014-06-26_15-57-42_094959634447_rgbf000079-resize_1-target.png,1000,1.8915,2,2922,1007,feet,jsons/v1_VE1000_randls_6.json,826094,1034635,28,Man
162,860188,DepthScenes,duration_manipulation_targetAtFixation,jsons/v1_VE1000_randls_6.json,http://54.235.29.9/FacialAge/BNav_EC2/DepthDuration/v2_depth_duration_MTurk/v2_DepthDuration_HTML.html#160,160,1366,768,1366,768,8-30-2022,9-55-3,163,depth_duration_stimuli/001133_2014-06-17_14-49-16_260595134347_rgbf000100-resize_0/001133_2014-06-17_14-49-16_260595134347_rgbf000100-resize_0-target.png,1000,4.2115,3,3535,995,feet,jsons/v1_VE1000_randls_6.json,826094,1034635,28,Man
163,860188,DepthScenes,duration_manipulation_targetAtFixation,jsons/v1_VE1000_randls_6.json,http://54.235.29.9/FacialAge/BNav_EC2/DepthDuration/v2_depth_duration_MTurk/v2_DepthDuration_HTML.html#160,160,1366,768,1366,768,8-30-2022,9-55-3,164,depth_duration_stimuli/001132_2014-06-17_14-48-54_260595134347_rgbf000100-resize_2/001132_2014-06-17_14-48-54_260595134347_rgbf000100-resize_2-target.png,1000,3.753,4,3993,1004,feet,jsons/v1_VE1000_randls_6.json,826094,1034635,28,Man
