,subjID,experimentName,versionName,sequenceName,url,selected_row,windowWidth,windowHeight,screenWidth,screenHeight,startDate,startTime,trial,stimulus,duration,actual_depth,depth_estimate,trial_RT,log_sceneDuration,unitSelection,seq_filepath,experimentTime,totalTime,age,gender
0,860430,DepthScenes,duration_manipulation_targetAtFixation,jsons/v1_VE1000_randls_47_rotated.json,http://54.235.29.9/FacialAge/BNav_EC2/DepthDuration/v2_depth_duration_MTurk/v2_DepthDuration_HTML.html#229,229,1280,720,1280,720,8-29-2022,21-24-52,1,depth_duration_stimuli/001828_2014-06-26_21-40-03_260595134347_rgbf000024-resize_0/001828_2014-06-26_21-40-03_260595134347_rgbf000024-resize_0-target.png,1000,4.8260000000000005,2.0,3381,986,meters,jsons/v1_VE1000_randls_47_rotated.json,684297,903372,28,Man
1,860430,DepthScenes,duration_manipulation_targetAtFixation,jsons/v1_VE1000_randls_47_rotated.json,http://54.235.29.9/FacialAge/BNav_EC2/DepthDuration/v2_depth_duration_MTurk/v2_DepthDuration_HTML.html#229,229,1280,720,1280,720,8-29-2022,21-24-52,2,depth_duration_stimuli/000009_2014-05-26_14-32-05_260595134347_rgbf000034-resize_3/000009_2014-05-26_14-32-05_260595134347_rgbf000034-resize_3-target.png,1000,3.8715,3.0,3189,999,meters,jsons/v1_VE1000_randls_47_rotated.json,684297,903372,28,Man
2,860430,DepthScenes,duration_manipulation_targetAtFixation,jsons/v1_VE1000_randls_47_rotated.json,http://54.235.29.9/FacialAge/BNav_EC2/DepthDuration/v2_depth_duration_MTurk/v2_DepthDuration_HTML.html#229,229,1280,720,1280,720,8-29-2022,21-24-52,3,depth_duration_stimuli/000665_2014-06-09_20-42-35_260595134347_rgbf000110-resize_1/000665_2014-06-09_20-42-35_260595134347_rgbf000110-resize_1-target.png,1000,3.057,1.0,2918,1000,meters,jsons/v1_VE1000_randls_47_rotated.json,684297,903372,28,Man
3,860430,DepthScenes,duration_manipulation_targetAtFixation,jsons/v1_VE1000_randls_47_rotated.json,http://54.235.29.9/FacialAge/BNav_EC2/DepthDuration/v2_depth_duration_MTurk/v2_DepthDuration_HTML.html#229,229,1280,720,1280,720,8-29-2022,21-24-52,4,depth_duration_stimuli/001150_2014-06-17_15-27-34_260595134347_rgbf000108-resize_2/001150_2014-06-17_15-27-34_260595134347_rgbf000108-resize_2-target.png,1000,4.0325,2.0,3500,997,meters,jsons/v1_VE1000_randls_47_rotated.json,684297,903372,28,Man
4,860430,DepthScenes,duration_manipulation_targetAtFixation,jsons/v1_VE1000_randls_47_rotated.json,http://54.235.29.9/FacialAge/BNav_EC2/DepthDuration/v2_depth_duration_MTurk/v2_DepthDuration_HTML.html#229,229,1280,720,1280,720,8-29-2022,21-24-52,5,depth_duration_stimuli/002467_2014-06-28_20-38-07_260595134347_rgbf000026-resize_2/002467_2014-06-28_20-38-07_260595134347_rgbf000026-resize_2-target.png,1000,4.742,1.5,4860,993,meters,jsons/v1_VE1000_randls_47_rotated.json,684297,903372,28,Man
5,860430,DepthScenes,duration_manipulation_targetAtFixation,jsons/v1_VE1000_randls_47_rotated.json,http://54.235.29.9/FacialAge/BNav_EC2/DepthDuration/v2_depth_duration_MTurk/v2_DepthDuration_HTML.html#229,229,1280,720,1280,720,8-29-2022,21-24-52,6,depth_duration_stimuli/002570_2014-06-24_13-59-54_094959634447_rgbf000059-resize_0/002570_2014-06-24_13-59-54_094959634447_rgbf000059-resize_0-target.png,1000,4.037,1.0,3319,995,meters,jsons/v1_VE1000_randls_47_rotated.json,684297,903372,28,Man
6,860430,DepthScenes,duration_manipulation_targetAtFixation,jsons/v1_VE1000_randls_47_rotated.json,http://54.235.29.9/FacialAge/BNav_EC2/DepthDuration/v2_depth_duration_MTurk/v2_DepthDuration_HTML.html#229,229,1280,720,1280,720,8-29-2022,21-24-52,7,depth_duration_stimuli/002199_2014-06-28_18-33-56_260595134347_rgbf000074-resize_0/002199_2014-06-28_18-33-56_260595134347_rgbf000074-resize_0-target.png,1000,1.996,1.0,3135,994,meters,jsons/v1_VE1000_randls_47_rotated.json,684297,903372,28,Man
7,860430,DepthScenes,duration_manipulation_targetAtFixation,jsons/v1_VE1000_randls_47_rotated.json,http://54.235.29.9/FacialAge/BNav_EC2/DepthDuration/v2_depth_duration_MTurk/v2_DepthDuration_HTML.html#229,229,1280,720,1280,720,8-29-2022,21-24-52,8,depth_duration_stimuli/001056_2014-06-08_18-46-44_260595134347_rgbf000068-resize_0/001056_2014-06-08_18-46-44_260595134347_rgbf000068-resize_0-target.png,1000,2.6625,1.0,3131,996,meters,jsons/v1_VE1000_randls_47_rotated.json,684297,903372,28,Man
8,860430,DepthScenes,duration_manipulation_targetAtFixation,jsons/v1_VE1000_randls_47_rotated.json,http://54.235.29.9/FacialAge/BNav_EC2/DepthDuration/v2_depth_duration_MTurk/v2_DepthDuration_HTML.html#229,229,1280,720,1280,720,8-29-2022,21-24-52,9,depth_duration_stimuli/000109_2014-05-14_23-41-52_260595134347_rgbf000035-resize_9/000109_2014-05-14_23-41-52_260595134347_rgbf000035-resize_9-target.png,1000,1.3545,0.5,5009,983,meters,jsons/v1_VE1000_randls_47_rotated.json,684297,903372,28,Man
9,860430,DepthScenes,duration_manipulation_targetAtFixation,jsons/v1_VE1000_randls_47_rotated.json,http://54.235.29.9/FacialAge/BNav_EC2/DepthDuration/v2_depth_duration_MTurk/v2_DepthDuration_HTML.html#229,229,1280,720,1280,720,8-29-2022,21-24-52,10,depth_duration_stimuli/000470_2014-06-09_19-42-40_260595134347_rgbf000094-resize_1/000470_2014-06-09_19-42-40_260595134347_rgbf000094-resize_1-target.png,1000,1.831,0.5,4995,1008,meters,jsons/v1_VE1000_randls_47_rotated.json,684297,903372,28,Man
10,860430,DepthScenes,duration_manipulation_targetAtFixation,jsons/v1_VE1000_randls_47_rotated.json,http://54.235.29.9/FacialAge/BNav_EC2/DepthDuration/v2_depth_duration_MTurk/v2_DepthDuration_HTML.html#229,229,1280,720,1280,720,8-29-2022,21-24-52,11,depth_duration_stimuli/000549_2014-06-08_22-10-24_260595134347_rgbf000247-resize_3/000549_2014-06-08_22-10-24_260595134347_rgbf000247-resize_3-target.png,1000,1.841,0.5,4576,996,meters,jsons/v1_VE1000_randls_47_rotated.json,684297,903372,28,Man
11,860430,DepthScenes,duration_manipulation_targetAtFixation,jsons/v1_VE1000_randls_47_rotated.json,http://54.235.29.9/FacialAge/BNav_EC2/DepthDuration/v2_depth_duration_MTurk/v2_DepthDuration_HTML.html#229,229,1280,720,1280,720,8-29-2022,21-24-52,12,depth_duration_stimuli/001055_2014-06-08_18-45-35_260595134347_rgbf000111-resize_4/001055_2014-06-08_18-45-35_260595134347_rgbf000111-resize_4-target.png,1000,2.4290000000000003,2.0,3506,988,meters,jsons/v1_VE1000_randls_47_rotated.json,684297,903372,28,Man
12,860430,DepthScenes,duration_manipulation_targetAtFixation,jsons/v1_VE1000_randls_47_rotated.json,http://54.235.29.9/FacialAge/BNav_EC2/DepthDuration/v2_depth_duration_MTurk/v2_DepthDuration_HTML.html#229,229,1280,720,1280,720,8-29-2022,21-24-52,13,depth_duration_stimuli/003490_2014-05-21_15-50-11_094959634447_rgbf000101-resize_3/003490_2014-05-21_15-50-11_094959634447_rgbf000101-resize_3-target.png,1000,3.6445,1.0,3915,992,meters,jsons/v1_VE1000_randls_47_rotated.json,684297,903372,28,Man
13,860430,DepthScenes,duration_manipulation_targetAtFixation,jsons/v1_VE1000_randls_47_rotated.json,http://54.235.29.9/FacialAge/BNav_EC2/DepthDuration/v2_depth_duration_MTurk/v2_DepthDuration_HTML.html#229,229,1280,720,1280,720,8-29-2022,21-24-52,14,depth_duration_stimuli/001175_2014-06-17_15-45-55_260595134347_rgbf000129-resize_4/001175_2014-06-17_15-45-55_260595134347_rgbf000129-resize_4-target.png,1000,4.255,2.0,3026,997,meters,jsons/v1_VE1000_randls_47_rotated.json,684297,903372,28,Man
14,860430,DepthScenes,duration_manipulation_targetAtFixation,jsons/v1_VE1000_randls_47_rotated.json,http://54.235.29.9/FacialAge/BNav_EC2/DepthDuration/v2_depth_duration_MTurk/v2_DepthDuration_HTML.html#229,229,1280,720,1280,720,8-29-2022,21-24-52,15,depth_duration_stimuli/003010_2014-06-15_12-54-35_094959634447_rgbf000112-resize_0/003010_2014-06-15_12-54-35_094959634447_rgbf000112-resize_0-target.png,1000,3.1185,2.0,3132,998,meters,jsons/v1_VE1000_randls_47_rotated.json,684297,903372,28,Man
15,860430,DepthScenes,duration_manipulation_targetAtFixation,jsons/v1_VE1000_randls_47_rotated.json,http://54.235.29.9/FacialAge/BNav_EC2/DepthDuration/v2_depth_duration_MTurk/v2_DepthDuration_HTML.html#229,229,1280,720,1280,720,8-29-2022,21-24-52,16,depth_duration_stimuli/001810_2014-06-26_20-51-35_260595134347_rgbf000040-resize_3/001810_2014-06-26_20-51-35_260595134347_rgbf000040-resize_3-target.png,1000,2.2525,1.0,2998,986,meters,jsons/v1_VE1000_randls_47_rotated.json,684297,903372,28,Man
16,860430,DepthScenes,duration_manipulation_targetAtFixation,jsons/v1_VE1000_randls_47_rotated.json,http://54.235.29.9/FacialAge/BNav_EC2/DepthDuration/v2_depth_duration_MTurk/v2_DepthDuration_HTML.html#229,229,1280,720,1280,720,8-29-2022,21-24-52,17,depth_duration_stimuli/002209_2014-06-28_18-36-10_260595134347_rgbf000051-resize_1/002209_2014-06-28_18-36-10_260595134347_rgbf000051-resize_1-target.png,1000,2.057,1.0,2616,1007,meters,jsons/v1_VE1000_randls_47_rotated.json,684297,903372,28,Man
17,860430,DepthScenes,duration_manipulation_targetAtFixation,jsons/v1_VE1000_randls_47_rotated.json,http://54.235.29.9/FacialAge/BNav_EC2/DepthDuration/v2_depth_duration_MTurk/v2_DepthDuration_HTML.html#229,229,1280,720,1280,720,8-29-2022,21-24-52,18,depth_duration_stimuli/002763_2014-06-22_19-13-10_094959634447_rgbf000075-resize_4/002763_2014-06-22_19-13-10_094959634447_rgbf000075-resize_4-target.png,1000,1.68375,1.0,2602,1007,meters,jsons/v1_VE1000_randls_47_rotated.json,684297,903372,28,Man
18,860430,DepthScenes,duration_manipulation_targetAtFixation,jsons/v1_VE1000_randls_47_rotated.json,http://54.235.29.9/FacialAge/BNav_EC2/DepthDuration/v2_depth_duration_MTurk/v2_DepthDuration_HTML.html#229,229,1280,720,1280,720,8-29-2022,21-24-52,19,depth_duration_stimuli/001498_2014-06-19_17-45-14_260595134347_rgbf000129-resize_4/001498_2014-06-19_17-45-14_260595134347_rgbf000129-resize-original.jpg,1000,1.4075,0.0,3727,993,meters,jsons/v1_VE1000_randls_47_rotated.json,684297,903372,28,Man
19,860430,DepthScenes,duration_manipulation_targetAtFixation,jsons/v1_VE1000_randls_47_rotated.json,http://54.235.29.9/FacialAge/BNav_EC2/DepthDuration/v2_depth_duration_MTurk/v2_DepthDuration_HTML.html#229,229,1280,720,1280,720,8-29-2022,21-24-52,20,depth_duration_stimuli/002657_2014-06-13_15-29-54_094959634447_rgbf000150-resize_1/002657_2014-06-13_15-29-54_094959634447_rgbf000150-resize_1-target.png,1000,4.919,1.0,2683,994,meters,jsons/v1_VE1000_randls_47_rotated.json,684297,903372,28,Man
20,860430,DepthScenes,duration_manipulation_targetAtFixation,jsons/v1_VE1000_randls_47_rotated.json,http://54.235.29.9/FacialAge/BNav_EC2/DepthDuration/v2_depth_duration_MTurk/v2_DepthDuration_HTML.html#229,229,1280,720,1280,720,8-29-2022,21-24-52,21,depth_duration_stimuli/002375_2014-06-28_20-13-44_260595134347_rgbf000032-resize_1/002375_2014-06-28_20-13-44_260595134347_rgbf000032-resize_1-target.png,1000,4.0175,1.0,3446,986,meters,jsons/v1_VE1000_randls_47_rotated.json,684297,903372,28,Man
21,860430,DepthScenes,duration_manipulation_targetAtFixation,jsons/v1_VE1000_randls_47_rotated.json,http://54.235.29.9/FacialAge/BNav_EC2/DepthDuration/v2_depth_duration_MTurk/v2_DepthDuration_HTML.html#229,229,1280,720,1280,720,8-29-2022,21-24-52,22,depth_duration_stimuli/001100_2014-06-15_17-46-26_260595134347_rgbf000225-resize_2/001100_2014-06-15_17-46-26_260595134347_rgbf000225-resize_2-target.png,1000,2.24,1.0,2702,999,meters,jsons/v1_VE1000_randls_47_rotated.json,684297,903372,28,Man
22,860430,DepthScenes,duration_manipulation_targetAtFixation,jsons/v1_VE1000_randls_47_rotated.json,http://54.235.29.9/FacialAge/BNav_EC2/DepthDuration/v2_depth_duration_MTurk/v2_DepthDuration_HTML.html#229,229,1280,720,1280,720,8-29-2022,21-24-52,23,depth_duration_stimuli/002784_2014-06-22_19-26-30_094959634447_rgbf000083-resize_3/002784_2014-06-22_19-26-30_094959634447_rgbf000083-resize_3-target.png,1000,1.8046666666667,0.5,4659,1000,meters,jsons/v1_VE1000_randls_47_rotated.json,684297,903372,28,Man
23,860430,DepthScenes,duration_manipulation_targetAtFixation,jsons/v1_VE1000_randls_47_rotated.json,http://54.235.29.9/FacialAge/BNav_EC2/DepthDuration/v2_depth_duration_MTurk/v2_DepthDuration_HTML.html#229,229,1280,720,1280,720,8-29-2022,21-24-52,24,depth_duration_stimuli/001214_2014-06-17_16-13-55_260595134347_rgbf000111-resize_0/001214_2014-06-17_16-13-55_260595134347_rgbf000111-resize_0-target.png,1000,2.6505,0.5,4848,1005,meters,jsons/v1_VE1000_randls_47_rotated.json,684297,903372,28,Man
24,860430,DepthScenes,duration_manipulation_targetAtFixation,jsons/v1_VE1000_randls_47_rotated.json,http://54.235.29.9/FacialAge/BNav_EC2/DepthDuration/v2_depth_duration_MTurk/v2_DepthDuration_HTML.html#229,229,1280,720,1280,720,8-29-2022,21-24-52,25,depth_duration_stimuli/000810_2014-06-08_17-20-01_260595134347_rgbf000105-resize_0/000810_2014-06-08_17-20-01_260595134347_rgbf000105-resize_0-target.png,1000,1.4865,1.0,3272,998,meters,jsons/v1_VE1000_randls_47_rotated.json,684297,903372,28,Man
25,860430,DepthScenes,duration_manipulation_targetAtFixation,jsons/v1_VE1000_randls_47_rotated.json,http://54.235.29.9/FacialAge/BNav_EC2/DepthDuration/v2_depth_duration_MTurk/v2_DepthDuration_HTML.html#229,229,1280,720,1280,720,8-29-2022,21-24-52,26,depth_duration_stimuli/003495_2014-05-21_16-01-51_094959634447_rgbf000100-resize_3/003495_2014-05-21_16-01-51_094959634447_rgbf000100-resize_3-target.png,1000,1.6255,0.5,4934,998,meters,jsons/v1_VE1000_randls_47_rotated.json,684297,903372,28,Man
26,860430,DepthScenes,duration_manipulation_targetAtFixation,jsons/v1_VE1000_randls_47_rotated.json,http://54.235.29.9/FacialAge/BNav_EC2/DepthDuration/v2_depth_duration_MTurk/v2_DepthDuration_HTML.html#229,229,1280,720,1280,720,8-29-2022,21-24-52,27,depth_duration_stimuli/001244_2014-06-17_16-47-45_260595134347_rgbf000030-resize_4/001244_2014-06-17_16-47-45_260595134347_rgbf000030-resize_4-target.png,1000,2.0425,1.0,2699,999,meters,jsons/v1_VE1000_randls_47_rotated.json,684297,903372,28,Man
27,860430,DepthScenes,duration_manipulation_targetAtFixation,jsons/v1_VE1000_randls_47_rotated.json,http://54.235.29.9/FacialAge/BNav_EC2/DepthDuration/v2_depth_duration_MTurk/v2_DepthDuration_HTML.html#229,229,1280,720,1280,720,8-29-2022,21-24-52,28,depth_duration_stimuli/000483_2014-06-09_20-41-45_260595134347_rgbf000116-resize_4/000483_2014-06-09_20-41-45_260595134347_rgbf000116-resize_4-target.png,1000,1.337,0.7,4591,999,meters,jsons/v1_VE1000_randls_47_rotated.json,684297,903372,28,Man
28,860430,DepthScenes,duration_manipulation_targetAtFixation,jsons/v1_VE1000_randls_47_rotated.json,http://54.235.29.9/FacialAge/BNav_EC2/DepthDuration/v2_depth_duration_MTurk/v2_DepthDuration_HTML.html#229,229,1280,720,1280,720,8-29-2022,21-24-52,29,depth_duration_stimuli/000469_2014-06-09_19-42-10_260595134347_rgbf000081-resize_1/000469_2014-06-09_19-42-10_260595134347_rgbf000081-resize_1-target.png,1000,1.652,0.5,4476,989,meters,jsons/v1_VE1000_randls_47_rotated.json,684297,903372,28,Man
29,860430,DepthScenes,duration_manipulation_targetAtFixation,jsons/v1_VE1000_randls_47_rotated.json,http://54.235.29.9/FacialAge/BNav_EC2/DepthDuration/v2_depth_duration_MTurk/v2_DepthDuration_HTML.html#229,229,1280,720,1280,720,8-29-2022,21-24-52,30,depth_duration_stimuli/002072_2014-06-24_21-48-06_260595134347_rgbf000115-resize_0/002072_2014-06-24_21-48-06_260595134347_rgbf000115-resize-original.jpg,1000,4.702,0.0,7468,991,meters,jsons/v1_VE1000_randls_47_rotated.json,684297,903372,28,Man
30,860430,DepthScenes,duration_manipulation_targetAtFixation,jsons/v1_VE1000_randls_47_rotated.json,http://54.235.29.9/FacialAge/BNav_EC2/DepthDuration/v2_depth_duration_MTurk/v2_DepthDuration_HTML.html#229,229,1280,720,1280,720,8-29-2022,21-24-52,31,depth_duration_stimuli/003048_2014-06-15_13-49-43_094959634447_rgbf000150-resize_1/003048_2014-06-15_13-49-43_094959634447_rgbf000150-resize_1-target.png,1000,4.0035,2.0,3340,994,meters,jsons/v1_VE1000_randls_47_rotated.json,684297,903372,28,Man
31,860430,DepthScenes,duration_manipulation_targetAtFixation,jsons/v1_VE1000_randls_47_rotated.json,http://54.235.29.9/FacialAge/BNav_EC2/DepthDuration/v2_depth_duration_MTurk/v2_DepthDuration_HTML.html#229,229,1280,720,1280,720,8-29-2022,21-24-52,32,depth_duration_stimuli/002043_2014-06-24_20-29-38_260595134347_rgbf000039-resize_4/002043_2014-06-24_20-29-38_260595134347_rgbf000039-resize_4-target.png,1000,2.8435,1.0,3550,987,meters,jsons/v1_VE1000_randls_47_rotated.json,684297,903372,28,Man
32,860430,DepthScenes,duration_manipulation_targetAtFixation,jsons/v1_VE1000_randls_47_rotated.json,http://54.235.29.9/FacialAge/BNav_EC2/DepthDuration/v2_depth_duration_MTurk/v2_DepthDuration_HTML.html#229,229,1280,720,1280,720,8-29-2022,21-24-52,33,depth_duration_stimuli/000866_2014-06-09_20-45-42_260595134347_rgbf000139-resize_1/000866_2014-06-09_20-45-42_260595134347_rgbf000139-resize_1-target.png,1000,3.2155,1.0,2902,985,meters,jsons/v1_VE1000_randls_47_rotated.json,684297,903372,28,Man
33,860430,DepthScenes,duration_manipulation_targetAtFixation,jsons/v1_VE1000_randls_47_rotated.json,http://54.235.29.9/FacialAge/BNav_EC2/DepthDuration/v2_depth_duration_MTurk/v2_DepthDuration_HTML.html#229,229,1280,720,1280,720,8-29-2022,21-24-52,34,depth_duration_stimuli/002989_2014-06-15_12-25-03_094959634447_rgbf000150-resize_3/002989_2014-06-15_12-25-03_094959634447_rgbf000150-resize_3-target.png,1000,4.1975,2.0,2889,1010,meters,jsons/v1_VE1000_randls_47_rotated.json,684297,903372,28,Man
34,860430,DepthScenes,duration_manipulation_targetAtFixation,jsons/v1_VE1000_randls_47_rotated.json,http://54.235.29.9/FacialAge/BNav_EC2/DepthDuration/v2_depth_duration_MTurk/v2_DepthDuration_HTML.html#229,229,1280,720,1280,720,8-29-2022,21-24-52,35,depth_duration_stimuli/002805_2014-06-22_19-54-03_094959634447_rgbf000079-resize_1/002805_2014-06-22_19-54-03_094959634447_rgbf000079-resize_1-target.png,1000,3.1439999999999997,1.0,2980,992,meters,jsons/v1_VE1000_randls_47_rotated.json,684297,903372,28,Man
35,860430,DepthScenes,duration_manipulation_targetAtFixation,jsons/v1_VE1000_randls_47_rotated.json,http://54.235.29.9/FacialAge/BNav_EC2/DepthDuration/v2_depth_duration_MTurk/v2_DepthDuration_HTML.html#229,229,1280,720,1280,720,8-29-2022,21-24-52,36,depth_duration_stimuli/000906_2014-06-08_13-35-43_260595134347_rgbf000155-resize_1/000906_2014-06-08_13-35-43_260595134347_rgbf000155-resize_1-target.png,1000,2.8489999999999998,1.5,4373,998,meters,jsons/v1_VE1000_randls_47_rotated.json,684297,903372,28,Man
36,860430,DepthScenes,duration_manipulation_targetAtFixation,jsons/v1_VE1000_randls_47_rotated.json,http://54.235.29.9/FacialAge/BNav_EC2/DepthDuration/v2_depth_duration_MTurk/v2_DepthDuration_HTML.html#229,229,1280,720,1280,720,8-29-2022,21-24-52,37,depth_duration_stimuli/002568_2014-06-24_13-59-21_094959634447_rgbf000062-resize_4/002568_2014-06-24_13-59-21_094959634447_rgbf000062-resize_4-target.png,1000,3.015,1.0,3103,1000,meters,jsons/v1_VE1000_randls_47_rotated.json,684297,903372,28,Man
37,860430,DepthScenes,duration_manipulation_targetAtFixation,jsons/v1_VE1000_randls_47_rotated.json,http://54.235.29.9/FacialAge/BNav_EC2/DepthDuration/v2_depth_duration_MTurk/v2_DepthDuration_HTML.html#229,229,1280,720,1280,720,8-29-2022,21-24-52,38,depth_duration_stimuli/003492_2014-05-21_15-50-55_094959634447_rgbf000828-resize_1/003492_2014-05-21_15-50-55_094959634447_rgbf000828-resize_1-target.png,1000,4.06875,1.0,2520,988,meters,jsons/v1_VE1000_randls_47_rotated.json,684297,903372,28,Man
38,860430,DepthScenes,duration_manipulation_targetAtFixation,jsons/v1_VE1000_randls_47_rotated.json,http://54.235.29.9/FacialAge/BNav_EC2/DepthDuration/v2_depth_duration_MTurk/v2_DepthDuration_HTML.html#229,229,1280,720,1280,720,8-29-2022,21-24-52,39,depth_duration_stimuli/003081_2014-06-15_15-19-16_094959634447_rgbf000150-resize_1/003081_2014-06-15_15-19-16_094959634447_rgbf000150-resize_1-target.png,1000,3.9125,1.0,2922,996,meters,jsons/v1_VE1000_randls_47_rotated.json,684297,903372,28,Man
39,860430,DepthScenes,duration_manipulation_targetAtFixation,jsons/v1_VE1000_randls_47_rotated.json,http://54.235.29.9/FacialAge/BNav_EC2/DepthDuration/v2_depth_duration_MTurk/v2_DepthDuration_HTML.html#229,229,1280,720,1280,720,8-29-2022,21-24-52,40,depth_duration_stimuli/001417_2014-06-19_16-25-36_260595134347_rgbf000115-resize_5/001417_2014-06-19_16-25-36_260595134347_rgbf000115-resize_5-target.png,1000,4.6255,1.0,3139,997,meters,jsons/v1_VE1000_randls_47_rotated.json,684297,903372,28,Man
40,860430,DepthScenes,duration_manipulation_targetAtFixation,jsons/v1_VE1000_randls_47_rotated.json,http://54.235.29.9/FacialAge/BNav_EC2/DepthDuration/v2_depth_duration_MTurk/v2_DepthDuration_HTML.html#229,229,1280,720,1280,720,8-29-2022,21-24-52,41,depth_duration_stimuli/001447_2014-06-19_17-00-32_260595134347_rgbf000082-resize_5/001447_2014-06-19_17-00-32_260595134347_rgbf000082-resize_5-target.png,1000,4.13775,1.0,2783,1011,meters,jsons/v1_VE1000_randls_47_rotated.json,684297,903372,28,Man
41,860430,DepthScenes,duration_manipulation_targetAtFixation,jsons/v1_VE1000_randls_47_rotated.json,http://54.235.29.9/FacialAge/BNav_EC2/DepthDuration/v2_depth_duration_MTurk/v2_DepthDuration_HTML.html#229,229,1280,720,1280,720,8-29-2022,21-24-52,42,depth_duration_stimuli/000447_2014-06-08_16-15-46_260595134347_rgbf000130-resize_1/000447_2014-06-08_16-15-46_260595134347_rgbf000130-resize_1-target.png,1000,4.479,1.5,5102,999,meters,jsons/v1_VE1000_randls_47_rotated.json,684297,903372,28,Man
42,860430,DepthScenes,duration_manipulation_targetAtFixation,jsons/v1_VE1000_randls_47_rotated.json,http://54.235.29.9/FacialAge/BNav_EC2/DepthDuration/v2_depth_duration_MTurk/v2_DepthDuration_HTML.html#229,229,1280,720,1280,720,8-29-2022,21-24-52,43,depth_duration_stimuli/000191_2014-05-12_17-07-38_260595134347_rgbf000199-resize_0/000191_2014-05-12_17-07-38_260595134347_rgbf000199-resize_0-target.png,1000,3.7995,2.0,3414,999,meters,jsons/v1_VE1000_randls_47_rotated.json,684297,903372,28,Man
43,860430,DepthScenes,duration_manipulation_targetAtFixation,jsons/v1_VE1000_randls_47_rotated.json,http://54.235.29.9/FacialAge/BNav_EC2/DepthDuration/v2_depth_duration_MTurk/v2_DepthDuration_HTML.html#229,229,1280,720,1280,720,8-29-2022,21-24-52,44,depth_duration_stimuli/000493_2014-06-09_21-01-18_260595134347_rgbf000196-resize_3/000493_2014-06-09_21-01-18_260595134347_rgbf000196-resize_3-target.png,1000,3.44,1.0,2987,1007,meters,jsons/v1_VE1000_randls_47_rotated.json,684297,903372,28,Man
44,860430,DepthScenes,duration_manipulation_targetAtFixation,jsons/v1_VE1000_randls_47_rotated.json,http://54.235.29.9/FacialAge/BNav_EC2/DepthDuration/v2_depth_duration_MTurk/v2_DepthDuration_HTML.html#229,229,1280,720,1280,720,8-29-2022,21-24-52,45,depth_duration_stimuli/002875_2014-06-01_15-19-00_094959634447_rgbf000151-resize_1/002875_2014-06-01_15-19-00_094959634447_rgbf000151-resize_1-target.png,1000,1.9675,1.5,4666,993,meters,jsons/v1_VE1000_randls_47_rotated.json,684297,903372,28,Man
45,860430,DepthScenes,duration_manipulation_targetAtFixation,jsons/v1_VE1000_randls_47_rotated.json,http://54.235.29.9/FacialAge/BNav_EC2/DepthDuration/v2_depth_duration_MTurk/v2_DepthDuration_HTML.html#229,229,1280,720,1280,720,8-29-2022,21-24-52,46,depth_duration_stimuli/001011_2014-06-08_23-18-54_260595134347_rgbf000044-resize_4/001011_2014-06-08_23-18-54_260595134347_rgbf000044-resize_4-target.png,1000,2.4730000000000003,1.0,2926,991,meters,jsons/v1_VE1000_randls_47_rotated.json,684297,903372,28,Man
46,860430,DepthScenes,duration_manipulation_targetAtFixation,jsons/v1_VE1000_randls_47_rotated.json,http://54.235.29.9/FacialAge/BNav_EC2/DepthDuration/v2_depth_duration_MTurk/v2_DepthDuration_HTML.html#229,229,1280,720,1280,720,8-29-2022,21-24-52,47,depth_duration_stimuli/000457_2014-06-08_16-52-43_260595134347_rgbf000199-resize_1/000457_2014-06-08_16-52-43_260595134347_rgbf000199-resize_1-target.png,1000,3.6489999999999996,1.5,5315,990,meters,jsons/v1_VE1000_randls_47_rotated.json,684297,903372,28,Man
47,860430,DepthScenes,duration_manipulation_targetAtFixation,jsons/v1_VE1000_randls_47_rotated.json,http://54.235.29.9/FacialAge/BNav_EC2/DepthDuration/v2_depth_duration_MTurk/v2_DepthDuration_HTML.html#229,229,1280,720,1280,720,8-29-2022,21-24-52,48,depth_duration_stimuli/000929_2014-06-09_16-33-19_260595134347_rgbf000139-resize_0/000929_2014-06-09_16-33-19_260595134347_rgbf000139-resize_0-target.png,1000,2.8680000000000003,0.5,5441,995,meters,jsons/v1_VE1000_randls_47_rotated.json,684297,903372,28,Man
48,860430,DepthScenes,duration_manipulation_targetAtFixation,jsons/v1_VE1000_randls_47_rotated.json,http://54.235.29.9/FacialAge/BNav_EC2/DepthDuration/v2_depth_duration_MTurk/v2_DepthDuration_HTML.html#229,229,1280,720,1280,720,8-29-2022,21-24-52,49,depth_duration_stimuli/001170_2014-06-17_15-43-44_260595134347_rgbf000096-resize_6/001170_2014-06-17_15-43-44_260595134347_rgbf000096-resize-original.jpg,1000,1.1909999999999998,0.0,3973,990,meters,jsons/v1_VE1000_randls_47_rotated.json,684297,903372,28,Man
49,860430,DepthScenes,duration_manipulation_targetAtFixation,jsons/v1_VE1000_randls_47_rotated.json,http://54.235.29.9/FacialAge/BNav_EC2/DepthDuration/v2_depth_duration_MTurk/v2_DepthDuration_HTML.html#229,229,1280,720,1280,720,8-29-2022,21-24-52,50,depth_duration_stimuli/002344_2014-06-28_20-06-29_260595134347_rgbf000030-resize_1/002344_2014-06-28_20-06-29_260595134347_rgbf000030-resize_1-target.png,1000,1.5795,0.5,4443,993,meters,jsons/v1_VE1000_randls_47_rotated.json,684297,903372,28,Man
50,860430,DepthScenes,duration_manipulation_targetAtFixation,jsons/v1_VE1000_randls_47_rotated.json,http://54.235.29.9/FacialAge/BNav_EC2/DepthDuration/v2_depth_duration_MTurk/v2_DepthDuration_HTML.html#229,229,1280,720,1280,720,8-29-2022,21-24-52,51,depth_duration_stimuli/002725_2014-06-22_11-47-51_094959634447_rgbf000070-resize_1/002725_2014-06-22_11-47-51_094959634447_rgbf000070-resize_1-target.png,1000,2.195,1.0,3404,990,meters,jsons/v1_VE1000_randls_47_rotated.json,684297,903372,28,Man
51,860430,DepthScenes,duration_manipulation_targetAtFixation,jsons/v1_VE1000_randls_47_rotated.json,http://54.235.29.9/FacialAge/BNav_EC2/DepthDuration/v2_depth_duration_MTurk/v2_DepthDuration_HTML.html#229,229,1280,720,1280,720,8-29-2022,21-24-52,52,depth_duration_stimuli/003228_2014-05-14_13-42-35_094959634447_rgbf000101-resize_1/003228_2014-05-14_13-42-35_094959634447_rgbf000101-resize_1-target.png,1000,1.9680000000000002,1.0,2593,995,meters,jsons/v1_VE1000_randls_47_rotated.json,684297,903372,28,Man
52,860430,DepthScenes,duration_manipulation_targetAtFixation,jsons/v1_VE1000_randls_47_rotated.json,http://54.235.29.9/FacialAge/BNav_EC2/DepthDuration/v2_depth_duration_MTurk/v2_DepthDuration_HTML.html#229,229,1280,720,1280,720,8-29-2022,21-24-52,53,depth_duration_stimuli/002600_2014-06-24_14-27-04_094959634447_rgbf000074-resize_2/002600_2014-06-24_14-27-04_094959634447_rgbf000074-resize_2-target.png,1000,2.7575,0.5,4422,995,meters,jsons/v1_VE1000_randls_47_rotated.json,684297,903372,28,Man
53,860430,DepthScenes,duration_manipulation_targetAtFixation,jsons/v1_VE1000_randls_47_rotated.json,http://54.235.29.9/FacialAge/BNav_EC2/DepthDuration/v2_depth_duration_MTurk/v2_DepthDuration_HTML.html#229,229,1280,720,1280,720,8-29-2022,21-24-52,54,depth_duration_stimuli/003129_2014-05-12_10-48-10_094959634447_rgbf000100-resize_0/003129_2014-05-12_10-48-10_094959634447_rgbf000100-resize_0-target.png,1000,4.9305,0.5,4539,1000,meters,jsons/v1_VE1000_randls_47_rotated.json,684297,903372,28,Man
54,860430,DepthScenes,duration_manipulation_targetAtFixation,jsons/v1_VE1000_randls_47_rotated.json,http://54.235.29.9/FacialAge/BNav_EC2/DepthDuration/v2_depth_duration_MTurk/v2_DepthDuration_HTML.html#229,229,1280,720,1280,720,8-29-2022,21-24-52,55,depth_duration_stimuli/000414_2014-06-04_19-49-13_260595134347_rgbf000044-resize_0/000414_2014-06-04_19-49-13_260595134347_rgbf000044-resize_0-target.png,1000,4.329,2.0,3601,1009,meters,jsons/v1_VE1000_randls_47_rotated.json,684297,903372,28,Man
55,860430,DepthScenes,duration_manipulation_targetAtFixation,jsons/v1_VE1000_randls_47_rotated.json,http://54.235.29.9/FacialAge/BNav_EC2/DepthDuration/v2_depth_duration_MTurk/v2_DepthDuration_HTML.html#229,229,1280,720,1280,720,8-29-2022,21-24-52,56,depth_duration_stimuli/001450_2014-06-19_17-02-03_260595134347_rgbf000203-resize_4/001450_2014-06-19_17-02-03_260595134347_rgbf000203-resize_4-target.png,1000,4.0106666666667,1.0,4093,996,meters,jsons/v1_VE1000_randls_47_rotated.json,684297,903372,28,Man
56,860430,DepthScenes,duration_manipulation_targetAtFixation,jsons/v1_VE1000_randls_47_rotated.json,http://54.235.29.9/FacialAge/BNav_EC2/DepthDuration/v2_depth_duration_MTurk/v2_DepthDuration_HTML.html#229,229,1280,720,1280,720,8-29-2022,21-24-52,57,depth_duration_stimuli/001449_2014-06-19_17-01-27_260595134347_rgbf000116-resize_2/001449_2014-06-19_17-01-27_260595134347_rgbf000116-resize_2-target.png,1000,3.452,1.0,4092,1005,meters,jsons/v1_VE1000_randls_47_rotated.json,684297,903372,28,Man
57,860430,DepthScenes,duration_manipulation_targetAtFixation,jsons/v1_VE1000_randls_47_rotated.json,http://54.235.29.9/FacialAge/BNav_EC2/DepthDuration/v2_depth_duration_MTurk/v2_DepthDuration_HTML.html#229,229,1280,720,1280,720,8-29-2022,21-24-52,58,depth_duration_stimuli/000677_2014-06-08_23-10-32_260595134347_rgbf000158-resize_6/000677_2014-06-08_23-10-32_260595134347_rgbf000158-resize_6-target.png,1000,3.556,1.0,3848,1011,meters,jsons/v1_VE1000_randls_47_rotated.json,684297,903372,28,Man
58,860430,DepthScenes,duration_manipulation_targetAtFixation,jsons/v1_VE1000_randls_47_rotated.json,http://54.235.29.9/FacialAge/BNav_EC2/DepthDuration/v2_depth_duration_MTurk/v2_DepthDuration_HTML.html#229,229,1280,720,1280,720,8-29-2022,21-24-52,59,depth_duration_stimuli/001029_2014-06-08_13-17-57_260595134347_rgbf000065-resize_1/001029_2014-06-08_13-17-57_260595134347_rgbf000065-resize_1-target.png,1000,3.0835,1.0,3018,987,meters,jsons/v1_VE1000_randls_47_rotated.json,684297,903372,28,Man
59,860430,DepthScenes,duration_manipulation_targetAtFixation,jsons/v1_VE1000_randls_47_rotated.json,http://54.235.29.9/FacialAge/BNav_EC2/DepthDuration/v2_depth_duration_MTurk/v2_DepthDuration_HTML.html#229,229,1280,720,1280,720,8-29-2022,21-24-52,60,depth_duration_stimuli/000691_2014-06-08_13-08-50_260595134347_rgbf000132-resize_3/000691_2014-06-08_13-08-50_260595134347_rgbf000132-resize_3-target.png,1000,4.1530000000000005,0.5,4952,993,meters,jsons/v1_VE1000_randls_47_rotated.json,684297,903372,28,Man
60,860430,DepthScenes,duration_manipulation_targetAtFixation,jsons/v1_VE1000_randls_47_rotated.json,http://54.235.29.9/FacialAge/BNav_EC2/DepthDuration/v2_depth_duration_MTurk/v2_DepthDuration_HTML.html#229,229,1280,720,1280,720,8-29-2022,21-24-52,61,depth_duration_stimuli/002213_2014-06-28_18-37-58_260595134347_rgbf000055-resize_1/002213_2014-06-28_18-37-58_260595134347_rgbf000055-resize_1-target.png,1000,3.62,2.0,3058,1010,meters,jsons/v1_VE1000_randls_47_rotated.json,684297,903372,28,Man
61,860430,DepthScenes,duration_manipulation_targetAtFixation,jsons/v1_VE1000_randls_47_rotated.json,http://54.235.29.9/FacialAge/BNav_EC2/DepthDuration/v2_depth_duration_MTurk/v2_DepthDuration_HTML.html#229,229,1280,720,1280,720,8-29-2022,21-24-52,62,depth_duration_stimuli/003083_2014-06-15_15-21-03_094959634447_rgbf000063-resize_1/003083_2014-06-15_15-21-03_094959634447_rgbf000063-resize_1-target.png,1000,4.1405,2.0,3747,997,meters,jsons/v1_VE1000_randls_47_rotated.json,684297,903372,28,Man
62,860430,DepthScenes,duration_manipulation_targetAtFixation,jsons/v1_VE1000_randls_47_rotated.json,http://54.235.29.9/FacialAge/BNav_EC2/DepthDuration/v2_depth_duration_MTurk/v2_DepthDuration_HTML.html#229,229,1280,720,1280,720,8-29-2022,21-24-52,63,depth_duration_stimuli/000486_2014-06-09_20-47-20_260595134347_rgbf000143-resize_2/000486_2014-06-09_20-47-20_260595134347_rgbf000143-resize_2-target.png,1000,4.8325,1.0,2787,997,meters,jsons/v1_VE1000_randls_47_rotated.json,684297,903372,28,Man
63,860430,DepthScenes,duration_manipulation_targetAtFixation,jsons/v1_VE1000_randls_47_rotated.json,http://54.235.29.9/FacialAge/BNav_EC2/DepthDuration/v2_depth_duration_MTurk/v2_DepthDuration_HTML.html#229,229,1280,720,1280,720,8-29-2022,21-24-52,64,depth_duration_stimuli/001617_2014-06-20_11-35-32_260595134347_rgbf000066-resize_1/001617_2014-06-20_11-35-32_260595134347_rgbf000066-resize_1-target.png,1000,3.7910000000000004,1.0,2628,985,meters,jsons/v1_VE1000_randls_47_rotated.json,684297,903372,28,Man
64,860430,DepthScenes,duration_manipulation_targetAtFixation,jsons/v1_VE1000_randls_47_rotated.json,http://54.235.29.9/FacialAge/BNav_EC2/DepthDuration/v2_depth_duration_MTurk/v2_DepthDuration_HTML.html#229,229,1280,720,1280,720,8-29-2022,21-24-52,65,depth_duration_stimuli/001806_2014-06-26_20-50-20_260595134347_rgbf000091-resize_1/001806_2014-06-26_20-50-20_260595134347_rgbf000091-resize_1-target.png,1000,2.7305,0.7,4817,989,meters,jsons/v1_VE1000_randls_47_rotated.json,684297,903372,28,Man
65,860430,DepthScenes,duration_manipulation_targetAtFixation,jsons/v1_VE1000_randls_47_rotated.json,http://54.235.29.9/FacialAge/BNav_EC2/DepthDuration/v2_depth_duration_MTurk/v2_DepthDuration_HTML.html#229,229,1280,720,1280,720,8-29-2022,21-24-52,66,depth_duration_stimuli/001540_2014-06-20_17-01-05_260595134347_rgbf000086-resize_2/001540_2014-06-20_17-01-05_260595134347_rgbf000086-resize-original.jpg,1000,1.459,0.0,4854,997,meters,jsons/v1_VE1000_randls_47_rotated.json,684297,903372,28,Man
66,860430,DepthScenes,duration_manipulation_targetAtFixation,jsons/v1_VE1000_randls_47_rotated.json,http://54.235.29.9/FacialAge/BNav_EC2/DepthDuration/v2_depth_duration_MTurk/v2_DepthDuration_HTML.html#229,229,1280,720,1280,720,8-29-2022,21-24-52,67,depth_duration_stimuli/001094_2014-06-15_17-36-00_260595134347_rgbf000205-resize_0/001094_2014-06-15_17-36-00_260595134347_rgbf000205-resize_0-target.png,1000,4.2175,1.0,3705,996,meters,jsons/v1_VE1000_randls_47_rotated.json,684297,903372,28,Man
67,860430,DepthScenes,duration_manipulation_targetAtFixation,jsons/v1_VE1000_randls_47_rotated.json,http://54.235.29.9/FacialAge/BNav_EC2/DepthDuration/v2_depth_duration_MTurk/v2_DepthDuration_HTML.html#229,229,1280,720,1280,720,8-29-2022,21-24-52,68,depth_duration_stimuli/000692_2014-06-08_13-09-42_260595134347_rgbf000199-resize_2/000692_2014-06-08_13-09-42_260595134347_rgbf000199-resize_2-target.png,1000,3.661,1.0,2980,998,meters,jsons/v1_VE1000_randls_47_rotated.json,684297,903372,28,Man
68,860430,DepthScenes,duration_manipulation_targetAtFixation,jsons/v1_VE1000_randls_47_rotated.json,http://54.235.29.9/FacialAge/BNav_EC2/DepthDuration/v2_depth_duration_MTurk/v2_DepthDuration_HTML.html#229,229,1280,720,1280,720,8-29-2022,21-24-52,69,depth_duration_stimuli/000502_2014-06-08_23-02-32_260595134347_rgbf000063-resize_4/000502_2014-06-08_23-02-32_260595134347_rgbf000063-resize_4-target.png,1000,2.431,0.5,5550,998,meters,jsons/v1_VE1000_randls_47_rotated.json,684297,903372,28,Man
69,860430,DepthScenes,duration_manipulation_targetAtFixation,jsons/v1_VE1000_randls_47_rotated.json,http://54.235.29.9/FacialAge/BNav_EC2/DepthDuration/v2_depth_duration_MTurk/v2_DepthDuration_HTML.html#229,229,1280,720,1280,720,8-29-2022,21-24-52,70,depth_duration_stimuli/001199_2014-06-17_16-03-48_260595134347_rgbf000077-resize_0/001199_2014-06-17_16-03-48_260595134347_rgbf000077-resize_0-target.png,1000,3.4375,1.0,2867,996,meters,jsons/v1_VE1000_randls_47_rotated.json,684297,903372,28,Man
70,860430,DepthScenes,duration_manipulation_targetAtFixation,jsons/v1_VE1000_randls_47_rotated.json,http://54.235.29.9/FacialAge/BNav_EC2/DepthDuration/v2_depth_duration_MTurk/v2_DepthDuration_HTML.html#229,229,1280,720,1280,720,8-29-2022,21-24-52,71,depth_duration_stimuli/002340_2014-06-28_20-05-46_260595134347_rgbf000113-resize_0/002340_2014-06-28_20-05-46_260595134347_rgbf000113-resize_0-target.png,1000,2.4735,1.0,2781,998,meters,jsons/v1_VE1000_randls_47_rotated.json,684297,903372,28,Man
71,860430,DepthScenes,duration_manipulation_targetAtFixation,jsons/v1_VE1000_randls_47_rotated.json,http://54.235.29.9/FacialAge/BNav_EC2/DepthDuration/v2_depth_duration_MTurk/v2_DepthDuration_HTML.html#229,229,1280,720,1280,720,8-29-2022,21-24-52,72,depth_duration_stimuli/001016_2014-06-09_16-16-10_260595134347_rgbf000112-resize_5/001016_2014-06-09_16-16-10_260595134347_rgbf000112-resize_5-target.png,1000,1.6565,1.0,2894,997,meters,jsons/v1_VE1000_randls_47_rotated.json,684297,903372,28,Man
72,860430,DepthScenes,duration_manipulation_targetAtFixation,jsons/v1_VE1000_randls_47_rotated.json,http://54.235.29.9/FacialAge/BNav_EC2/DepthDuration/v2_depth_duration_MTurk/v2_DepthDuration_HTML.html#229,229,1280,720,1280,720,8-29-2022,21-24-52,73,depth_duration_stimuli/002949_2014-06-26_15-57-42_094959634447_rgbf000079-resize_1/002949_2014-06-26_15-57-42_094959634447_rgbf000079-resize_1-target.png,1000,1.8915,0.5,4849,994,meters,jsons/v1_VE1000_randls_47_rotated.json,684297,903372,28,Man
73,860430,DepthScenes,duration_manipulation_targetAtFixation,jsons/v1_VE1000_randls_47_rotated.json,http://54.235.29.9/FacialAge/BNav_EC2/DepthDuration/v2_depth_duration_MTurk/v2_DepthDuration_HTML.html#229,229,1280,720,1280,720,8-29-2022,21-24-52,74,depth_duration_stimuli/000522_2014-06-08_13-35-06_260595134347_rgbf000244-resize_1/000522_2014-06-08_13-35-06_260595134347_rgbf000244-resize_1-target.png,1000,2.3715,1.0,3007,1009,meters,jsons/v1_VE1000_randls_47_rotated.json,684297,903372,28,Man
74,860430,DepthScenes,duration_manipulation_targetAtFixation,jsons/v1_VE1000_randls_47_rotated.json,http://54.235.29.9/FacialAge/BNav_EC2/DepthDuration/v2_depth_duration_MTurk/v2_DepthDuration_HTML.html#229,229,1280,720,1280,720,8-29-2022,21-24-52,75,depth_duration_stimuli/001052_2014-06-08_18-24-54_260595134347_rgbf000130-resize_1/001052_2014-06-08_18-24-54_260595134347_rgbf000130-resize_1-target.png,1000,4.1045,2.0,3398,1010,meters,jsons/v1_VE1000_randls_47_rotated.json,684297,903372,28,Man
75,860430,DepthScenes,duration_manipulation_targetAtFixation,jsons/v1_VE1000_randls_47_rotated.json,http://54.235.29.9/FacialAge/BNav_EC2/DepthDuration/v2_depth_duration_MTurk/v2_DepthDuration_HTML.html#229,229,1280,720,1280,720,8-29-2022,21-24-52,76,depth_duration_stimuli/002988_2014-06-15_12-24-20_094959634447_rgbf000150-resize_1/002988_2014-06-15_12-24-20_094959634447_rgbf000150-resize_1-target.png,1000,4.7669999999999995,2.0,2849,988,meters,jsons/v1_VE1000_randls_47_rotated.json,684297,903372,28,Man
76,860430,DepthScenes,duration_manipulation_targetAtFixation,jsons/v1_VE1000_randls_47_rotated.json,http://54.235.29.9/FacialAge/BNav_EC2/DepthDuration/v2_depth_duration_MTurk/v2_DepthDuration_HTML.html#229,229,1280,720,1280,720,8-29-2022,21-24-52,77,depth_duration_stimuli/002425_2014-06-28_20-27-29_260595134347_rgbf000031-resize_8/002425_2014-06-28_20-27-29_260595134347_rgbf000031-resize_8-target.png,1000,3.8960000000000004,2.0,3844,997,meters,jsons/v1_VE1000_randls_47_rotated.json,684297,903372,28,Man
77,860430,DepthScenes,duration_manipulation_targetAtFixation,jsons/v1_VE1000_randls_47_rotated.json,http://54.235.29.9/FacialAge/BNav_EC2/DepthDuration/v2_depth_duration_MTurk/v2_DepthDuration_HTML.html#229,229,1280,720,1280,720,8-29-2022,21-24-52,78,depth_duration_stimuli/000642_2014-06-08_16-59-25_260595134347_rgbf000098-resize_2/000642_2014-06-08_16-59-25_260595134347_rgbf000098-resize_2-target.png,1000,2.8815,1.0,2900,991,meters,jsons/v1_VE1000_randls_47_rotated.json,684297,903372,28,Man
78,860430,DepthScenes,duration_manipulation_targetAtFixation,jsons/v1_VE1000_randls_47_rotated.json,http://54.235.29.9/FacialAge/BNav_EC2/DepthDuration/v2_depth_duration_MTurk/v2_DepthDuration_HTML.html#229,229,1280,720,1280,720,8-29-2022,21-24-52,79,depth_duration_stimuli/002545_2014-06-24_13-38-53_094959634447_rgbf000080-resize_4/002545_2014-06-24_13-38-53_094959634447_rgbf000080-resize_4-target.png,1000,1.9205,1.0,2795,996,meters,jsons/v1_VE1000_randls_47_rotated.json,684297,903372,28,Man
79,860430,DepthScenes,duration_manipulation_targetAtFixation,jsons/v1_VE1000_randls_47_rotated.json,http://54.235.29.9/FacialAge/BNav_EC2/DepthDuration/v2_depth_duration_MTurk/v2_DepthDuration_HTML.html#229,229,1280,720,1280,720,8-29-2022,21-24-52,80,depth_duration_stimuli/001092_2014-06-15_17-34-58_260595134347_rgbf000171-resize_3/001092_2014-06-15_17-34-58_260595134347_rgbf000171-resize_3-target.png,1000,2.6935,0.7,5135,992,meters,jsons/v1_VE1000_randls_47_rotated.json,684297,903372,28,Man
80,860430,DepthScenes,duration_manipulation_targetAtFixation,jsons/v1_VE1000_randls_47_rotated.json,http://54.235.29.9/FacialAge/BNav_EC2/DepthDuration/v2_depth_duration_MTurk/v2_DepthDuration_HTML.html#229,229,1280,720,1280,720,8-29-2022,21-24-52,81,depth_duration_stimuli/001815_2014-06-26_20-52-55_260595134347_rgbf000020-resize_0/001815_2014-06-26_20-52-55_260595134347_rgbf000020-resize_0-target.png,1000,3.3865,2.0,3236,1011,meters,jsons/v1_VE1000_randls_47_rotated.json,684297,903372,28,Man
81,860430,DepthScenes,duration_manipulation_targetAtFixation,jsons/v1_VE1000_randls_47_rotated.json,http://54.235.29.9/FacialAge/BNav_EC2/DepthDuration/v2_depth_duration_MTurk/v2_DepthDuration_HTML.html#229,229,1280,720,1280,720,8-29-2022,21-24-52,82,depth_duration_stimuli/001808_2014-06-26_20-50-58_260595134347_rgbf000029-resize_1/001808_2014-06-26_20-50-58_260595134347_rgbf000029-resize_1-target.png,1000,4.249,2.0,2881,989,meters,jsons/v1_VE1000_randls_47_rotated.json,684297,903372,28,Man
82,860430,DepthScenes,duration_manipulation_targetAtFixation,jsons/v1_VE1000_randls_47_rotated.json,http://54.235.29.9/FacialAge/BNav_EC2/DepthDuration/v2_depth_duration_MTurk/v2_DepthDuration_HTML.html#229,229,1280,720,1280,720,8-29-2022,21-24-52,83,depth_duration_stimuli/001032_2014-06-08_13-23-17_260595134347_rgbf000021-resize_3/001032_2014-06-08_13-23-17_260595134347_rgbf000021-resize_3-target.png,1000,3.2725,0.4,5111,994,meters,jsons/v1_VE1000_randls_47_rotated.json,684297,903372,28,Man
83,860430,DepthScenes,duration_manipulation_targetAtFixation,jsons/v1_VE1000_randls_47_rotated.json,http://54.235.29.9/FacialAge/BNav_EC2/DepthDuration/v2_depth_duration_MTurk/v2_DepthDuration_HTML.html#229,229,1280,720,1280,720,8-29-2022,21-24-52,84,depth_duration_stimuli/001059_2014-06-08_21-53-27_260595134347_rgbf000061-resize_4/001059_2014-06-08_21-53-27_260595134347_rgbf000061-resize_4-target.png,1000,2.4185,1.0,3298,998,meters,jsons/v1_VE1000_randls_47_rotated.json,684297,903372,28,Man
84,860430,DepthScenes,duration_manipulation_targetAtFixation,jsons/v1_VE1000_randls_47_rotated.json,http://54.235.29.9/FacialAge/BNav_EC2/DepthDuration/v2_depth_duration_MTurk/v2_DepthDuration_HTML.html#229,229,1280,720,1280,720,8-29-2022,21-24-52,85,depth_duration_stimuli/002660_2014-06-13_15-44-18_094959634447_rgbf001878-resize_2/002660_2014-06-13_15-44-18_094959634447_rgbf001878-resize_2-target.png,1000,3.576,1.0,2786,1013,meters,jsons/v1_VE1000_randls_47_rotated.json,684297,903372,28,Man
85,860430,DepthScenes,duration_manipulation_targetAtFixation,jsons/v1_VE1000_randls_47_rotated.json,http://54.235.29.9/FacialAge/BNav_EC2/DepthDuration/v2_depth_duration_MTurk/v2_DepthDuration_HTML.html#229,229,1280,720,1280,720,8-29-2022,21-24-52,86,depth_duration_stimuli/002153_2014-06-25_21-27-18_260595134347_rgbf000038-resize_5/002153_2014-06-25_21-27-18_260595134347_rgbf000038-resize_5-target.png,1000,2.505,0.7,5656,1000,meters,jsons/v1_VE1000_randls_47_rotated.json,684297,903372,28,Man
86,860430,DepthScenes,duration_manipulation_targetAtFixation,jsons/v1_VE1000_randls_47_rotated.json,http://54.235.29.9/FacialAge/BNav_EC2/DepthDuration/v2_depth_duration_MTurk/v2_DepthDuration_HTML.html#229,229,1280,720,1280,720,8-29-2022,21-24-52,87,depth_duration_stimuli/003079_2014-06-15_15-18-20_094959634447_rgbf000152-resize_8/003079_2014-06-15_15-18-20_094959634447_rgbf000152-resize_8-target.png,1000,2.8775,2.0,4186,993,meters,jsons/v1_VE1000_randls_47_rotated.json,684297,903372,28,Man
87,860430,DepthScenes,duration_manipulation_targetAtFixation,jsons/v1_VE1000_randls_47_rotated.json,http://54.235.29.9/FacialAge/BNav_EC2/DepthDuration/v2_depth_duration_MTurk/v2_DepthDuration_HTML.html#229,229,1280,720,1280,720,8-29-2022,21-24-52,88,depth_duration_stimuli/000506_2014-06-08_23-21-00_260595134347_rgbf000070-resize_7/000506_2014-06-08_23-21-00_260595134347_rgbf000070-resize_7-target.png,1000,4.0585,1.0,3071,1001,meters,jsons/v1_VE1000_randls_47_rotated.json,684297,903372,28,Man
88,860430,DepthScenes,duration_manipulation_targetAtFixation,jsons/v1_VE1000_randls_47_rotated.json,http://54.235.29.9/FacialAge/BNav_EC2/DepthDuration/v2_depth_duration_MTurk/v2_DepthDuration_HTML.html#229,229,1280,720,1280,720,8-29-2022,21-24-52,89,depth_duration_stimuli/003423_2014-05-21_10-23-26_094959634447_rgbf002665-resize_2/003423_2014-05-21_10-23-26_094959634447_rgbf002665-resize_2-target.png,1000,3.2575,0.3,4855,999,meters,jsons/v1_VE1000_randls_47_rotated.json,684297,903372,28,Man
89,860430,DepthScenes,duration_manipulation_targetAtFixation,jsons/v1_VE1000_randls_47_rotated.json,http://54.235.29.9/FacialAge/BNav_EC2/DepthDuration/v2_depth_duration_MTurk/v2_DepthDuration_HTML.html#229,229,1280,720,1280,720,8-29-2022,21-24-52,90,depth_duration_stimuli/002905_2014-06-03_18-04-43_094959634447_rgbf000151-resize_2/002905_2014-06-03_18-04-43_094959634447_rgbf000151-resize_2-target.png,1000,2.0295,0.5,4751,984,meters,jsons/v1_VE1000_randls_47_rotated.json,684297,903372,28,Man
90,860430,DepthScenes,duration_manipulation_targetAtFixation,jsons/v1_VE1000_randls_47_rotated.json,http://54.235.29.9/FacialAge/BNav_EC2/DepthDuration/v2_depth_duration_MTurk/v2_DepthDuration_HTML.html#229,229,1280,720,1280,720,8-29-2022,21-24-52,91,depth_duration_stimuli/002639_2014-06-24_14-51-37_094959634447_rgbf000074-resize_4/002639_2014-06-24_14-51-37_094959634447_rgbf000074-resize_4-target.png,1000,4.0375,1.0,3233,1010,meters,jsons/v1_VE1000_randls_47_rotated.json,684297,903372,28,Man
91,860430,DepthScenes,duration_manipulation_targetAtFixation,jsons/v1_VE1000_randls_47_rotated.json,http://54.235.29.9/FacialAge/BNav_EC2/DepthDuration/v2_depth_duration_MTurk/v2_DepthDuration_HTML.html#229,229,1280,720,1280,720,8-29-2022,21-24-52,92,depth_duration_stimuli/003292_2014-05-14_21-53-49_094959634447_rgbf000100-resize_2/003292_2014-05-14_21-53-49_094959634447_rgbf000100-resize_2-target.png,1000,3.4815,1.0,3140,1005,meters,jsons/v1_VE1000_randls_47_rotated.json,684297,903372,28,Man
92,860430,DepthScenes,duration_manipulation_targetAtFixation,jsons/v1_VE1000_randls_47_rotated.json,http://54.235.29.9/FacialAge/BNav_EC2/DepthDuration/v2_depth_duration_MTurk/v2_DepthDuration_HTML.html#229,229,1280,720,1280,720,8-29-2022,21-24-52,93,depth_duration_stimuli/001136_2014-06-17_15-19-41_260595134347_rgbf000076-resize_3/001136_2014-06-17_15-19-41_260595134347_rgbf000076-resize_3-target.png,1000,1.8655,1.0,2969,1014,meters,jsons/v1_VE1000_randls_47_rotated.json,684297,903372,28,Man
93,860430,DepthScenes,duration_manipulation_targetAtFixation,jsons/v1_VE1000_randls_47_rotated.json,http://54.235.29.9/FacialAge/BNav_EC2/DepthDuration/v2_depth_duration_MTurk/v2_DepthDuration_HTML.html#229,229,1280,720,1280,720,8-29-2022,21-24-52,94,depth_duration_stimuli/001164_2014-06-17_15-35-46_260595134347_rgbf000085-resize_3/001164_2014-06-17_15-35-46_260595134347_rgbf000085-resize_3-target.png,1000,2.354,1.5,4619,989,meters,jsons/v1_VE1000_randls_47_rotated.json,684297,903372,28,Man
94,860430,DepthScenes,duration_manipulation_targetAtFixation,jsons/v1_VE1000_randls_47_rotated.json,http://54.235.29.9/FacialAge/BNav_EC2/DepthDuration/v2_depth_duration_MTurk/v2_DepthDuration_HTML.html#229,229,1280,720,1280,720,8-29-2022,21-24-52,95,depth_duration_stimuli/000103_2014-05-14_22-01-17_260595134347_rgbf000152-resize_5/000103_2014-05-14_22-01-17_260595134347_rgbf000152-resize_5-target.png,1000,1.993,1.0,2850,995,meters,jsons/v1_VE1000_randls_47_rotated.json,684297,903372,28,Man
95,860430,DepthScenes,duration_manipulation_targetAtFixation,jsons/v1_VE1000_randls_47_rotated.json,http://54.235.29.9/FacialAge/BNav_EC2/DepthDuration/v2_depth_duration_MTurk/v2_DepthDuration_HTML.html#229,229,1280,720,1280,720,8-29-2022,21-24-52,96,depth_duration_stimuli/001555_2014-06-20_17-12-10_260595134347_rgbf000065-resize_4/001555_2014-06-20_17-12-10_260595134347_rgbf000065-resize_4-target.png,1000,1.633,0.5,4553,996,meters,jsons/v1_VE1000_randls_47_rotated.json,684297,903372,28,Man
96,860430,DepthScenes,duration_manipulation_targetAtFixation,jsons/v1_VE1000_randls_47_rotated.json,http://54.235.29.9/FacialAge/BNav_EC2/DepthDuration/v2_depth_duration_MTurk/v2_DepthDuration_HTML.html#229,229,1280,720,1280,720,8-29-2022,21-24-52,97,depth_duration_stimuli/000709_2014-06-08_13-51-55_260595134347_rgbf000068-resize_3/000709_2014-06-08_13-51-55_260595134347_rgbf000068-resize_3-target.png,1000,1.8030000000000002,1.5,4547,1009,meters,jsons/v1_VE1000_randls_47_rotated.json,684297,903372,28,Man
97,860430,DepthScenes,duration_manipulation_targetAtFixation,jsons/v1_VE1000_randls_47_rotated.json,http://54.235.29.9/FacialAge/BNav_EC2/DepthDuration/v2_depth_duration_MTurk/v2_DepthDuration_HTML.html#229,229,1280,720,1280,720,8-29-2022,21-24-52,98,depth_duration_stimuli/002057_2014-06-24_21-00-13_260595134347_rgbf000120-resize_1/002057_2014-06-24_21-00-13_260595134347_rgbf000120-resize_1-target.png,1000,2.967,1.5,4441,993,meters,jsons/v1_VE1000_randls_47_rotated.json,684297,903372,28,Man
98,860430,DepthScenes,duration_manipulation_targetAtFixation,jsons/v1_VE1000_randls_47_rotated.json,http://54.235.29.9/FacialAge/BNav_EC2/DepthDuration/v2_depth_duration_MTurk/v2_DepthDuration_HTML.html#229,229,1280,720,1280,720,8-29-2022,21-24-52,99,depth_duration_stimuli/001222_2014-06-17_16-24-06_260595134347_rgbf000073-resize_0/001222_2014-06-17_16-24-06_260595134347_rgbf000073-resize-original.jpg,1000,1.4385,0.0,3496,997,meters,jsons/v1_VE1000_randls_47_rotated.json,684297,903372,28,Man
99,860430,DepthScenes,duration_manipulation_targetAtFixation,jsons/v1_VE1000_randls_47_rotated.json,http://54.235.29.9/FacialAge/BNav_EC2/DepthDuration/v2_depth_duration_MTurk/v2_DepthDuration_HTML.html#229,229,1280,720,1280,720,8-29-2022,21-24-52,100,depth_duration_stimuli/002637_2014-06-24_14-51-13_094959634447_rgbf000066-resize_4/002637_2014-06-24_14-51-13_094959634447_rgbf000066-resize_4-target.png,1000,1.9955,1.0,3060,999,meters,jsons/v1_VE1000_randls_47_rotated.json,684297,903372,28,Man
100,860430,DepthScenes,duration_manipulation_targetAtFixation,jsons/v1_VE1000_randls_47_rotated.json,http://54.235.29.9/FacialAge/BNav_EC2/DepthDuration/v2_depth_duration_MTurk/v2_DepthDuration_HTML.html#229,229,1280,720,1280,720,8-29-2022,21-24-52,101,depth_duration_stimuli/003534_2014-05-22_15-06-10_094959634447_rgbf000102-resize_4/003534_2014-05-22_15-06-10_094959634447_rgbf000102-resize_4-target.png,1000,1.426,0.3,4664,995,meters,jsons/v1_VE1000_randls_47_rotated.json,684297,903372,28,Man
101,860430,DepthScenes,duration_manipulation_targetAtFixation,jsons/v1_VE1000_randls_47_rotated.json,http://54.235.29.9/FacialAge/BNav_EC2/DepthDuration/v2_depth_duration_MTurk/v2_DepthDuration_HTML.html#229,229,1280,720,1280,720,8-29-2022,21-24-52,102,depth_duration_stimuli/000409_2014-06-04_19-23-33_260595134347_rgbf000067-resize_0/000409_2014-06-04_19-23-33_260595134347_rgbf000067-resize_0-target.png,1000,3.7335,0.7,4730,992,meters,jsons/v1_VE1000_randls_47_rotated.json,684297,903372,28,Man
102,860430,DepthScenes,duration_manipulation_targetAtFixation,jsons/v1_VE1000_randls_47_rotated.json,http://54.235.29.9/FacialAge/BNav_EC2/DepthDuration/v2_depth_duration_MTurk/v2_DepthDuration_HTML.html#229,229,1280,720,1280,720,8-29-2022,21-24-52,103,depth_duration_stimuli/002663_2014-06-13_15-50-26_094959634447_rgbf000075-resize_1/002663_2014-06-13_15-50-26_094959634447_rgbf000075-resize_1-target.png,1000,4.7495,1.0,3281,993,meters,jsons/v1_VE1000_randls_47_rotated.json,684297,903372,28,Man
103,860430,DepthScenes,duration_manipulation_targetAtFixation,jsons/v1_VE1000_randls_47_rotated.json,http://54.235.29.9/FacialAge/BNav_EC2/DepthDuration/v2_depth_duration_MTurk/v2_DepthDuration_HTML.html#229,229,1280,720,1280,720,8-29-2022,21-24-52,104,depth_duration_stimuli/002678_2014-06-13_16-15-32_094959634447_rgbf000151-resize_6/002678_2014-06-13_16-15-32_094959634447_rgbf000151-resize_6-target.png,1000,2.1830000000000003,1.5,4489,1009,meters,jsons/v1_VE1000_randls_47_rotated.json,684297,903372,28,Man
104,860430,DepthScenes,duration_manipulation_targetAtFixation,jsons/v1_VE1000_randls_47_rotated.json,http://54.235.29.9/FacialAge/BNav_EC2/DepthDuration/v2_depth_duration_MTurk/v2_DepthDuration_HTML.html#229,229,1280,720,1280,720,8-29-2022,21-24-52,105,depth_duration_stimuli/000368_2014-06-09_15-53-01_260595134347_rgbf000155-resize_2/000368_2014-06-09_15-53-01_260595134347_rgbf000155-resize_2-target.png,1000,2.4859999999999998,0.5,4613,993,meters,jsons/v1_VE1000_randls_47_rotated.json,684297,903372,28,Man
105,860430,DepthScenes,duration_manipulation_targetAtFixation,jsons/v1_VE1000_randls_47_rotated.json,http://54.235.29.9/FacialAge/BNav_EC2/DepthDuration/v2_depth_duration_MTurk/v2_DepthDuration_HTML.html#229,229,1280,720,1280,720,8-29-2022,21-24-52,106,depth_duration_stimuli/002414_2014-06-28_20-24-58_260595134347_rgbf000067-resize_4/002414_2014-06-28_20-24-58_260595134347_rgbf000067-resize_4-target.png,1000,4.363,1.0,3883,1001,meters,jsons/v1_VE1000_randls_47_rotated.json,684297,903372,28,Man
106,860430,DepthScenes,duration_manipulation_targetAtFixation,jsons/v1_VE1000_randls_47_rotated.json,http://54.235.29.9/FacialAge/BNav_EC2/DepthDuration/v2_depth_duration_MTurk/v2_DepthDuration_HTML.html#229,229,1280,720,1280,720,8-29-2022,21-24-52,107,depth_duration_stimuli/000773_2014-06-08_22-24-54_260595134347_rgbf000093-resize_1/000773_2014-06-08_22-24-54_260595134347_rgbf000093-resize_1-target.png,1000,4.973,1.0,2567,994,meters,jsons/v1_VE1000_randls_47_rotated.json,684297,903372,28,Man
107,860430,DepthScenes,duration_manipulation_targetAtFixation,jsons/v1_VE1000_randls_47_rotated.json,http://54.235.29.9/FacialAge/BNav_EC2/DepthDuration/v2_depth_duration_MTurk/v2_DepthDuration_HTML.html#229,229,1280,720,1280,720,8-29-2022,21-24-52,108,depth_duration_stimuli/000780_2014-06-08_22-28-29_260595134347_rgbf000126-resize_1/000780_2014-06-08_22-28-29_260595134347_rgbf000126-resize_1-target.png,1000,3.3825,1.5,4646,989,meters,jsons/v1_VE1000_randls_47_rotated.json,684297,903372,28,Man
108,860430,DepthScenes,duration_manipulation_targetAtFixation,jsons/v1_VE1000_randls_47_rotated.json,http://54.235.29.9/FacialAge/BNav_EC2/DepthDuration/v2_depth_duration_MTurk/v2_DepthDuration_HTML.html#229,229,1280,720,1280,720,8-29-2022,21-24-52,109,depth_duration_stimuli/002445_2014-06-28_20-32-16_260595134347_rgbf000029-resize_4/002445_2014-06-28_20-32-16_260595134347_rgbf000029-resize_4-target.png,1000,2.5315,0.5,4747,998,meters,jsons/v1_VE1000_randls_47_rotated.json,684297,903372,28,Man
109,860430,DepthScenes,duration_manipulation_targetAtFixation,jsons/v1_VE1000_randls_47_rotated.json,http://54.235.29.9/FacialAge/BNav_EC2/DepthDuration/v2_depth_duration_MTurk/v2_DepthDuration_HTML.html#229,229,1280,720,1280,720,8-29-2022,21-24-52,110,depth_duration_stimuli/000742_2014-06-08_18-48-09_260595134347_rgbf000164-resize_4/000742_2014-06-08_18-48-09_260595134347_rgbf000164-resize_4-target.png,1000,4.632,1.0,3243,1000,meters,jsons/v1_VE1000_randls_47_rotated.json,684297,903372,28,Man
110,860430,DepthScenes,duration_manipulation_targetAtFixation,jsons/v1_VE1000_randls_47_rotated.json,http://54.235.29.9/FacialAge/BNav_EC2/DepthDuration/v2_depth_duration_MTurk/v2_DepthDuration_HTML.html#229,229,1280,720,1280,720,8-29-2022,21-24-52,111,depth_duration_stimuli/001066_2014-06-08_22-03-20_260595134347_rgbf000066-resize_4/001066_2014-06-08_22-03-20_260595134347_rgbf000066-resize_4-target.png,1000,4.2330000000000005,2.0,3007,1008,meters,jsons/v1_VE1000_randls_47_rotated.json,684297,903372,28,Man
111,860430,DepthScenes,duration_manipulation_targetAtFixation,jsons/v1_VE1000_randls_47_rotated.json,http://54.235.29.9/FacialAge/BNav_EC2/DepthDuration/v2_depth_duration_MTurk/v2_DepthDuration_HTML.html#229,229,1280,720,1280,720,8-29-2022,21-24-52,112,depth_duration_stimuli/001392_2014-06-19_16-07-59_260595134347_rgbf000046-resize_1/001392_2014-06-19_16-07-59_260595134347_rgbf000046-resize_1-target.png,1000,4.135,2.0,3228,1000,meters,jsons/v1_VE1000_randls_47_rotated.json,684297,903372,28,Man
112,860430,DepthScenes,duration_manipulation_targetAtFixation,jsons/v1_VE1000_randls_47_rotated.json,http://54.235.29.9/FacialAge/BNav_EC2/DepthDuration/v2_depth_duration_MTurk/v2_DepthDuration_HTML.html#229,229,1280,720,1280,720,8-29-2022,21-24-52,113,depth_duration_stimuli/001570_2014-06-20_17-21-09_260595134347_rgbf000135-resize_4/001570_2014-06-20_17-21-09_260595134347_rgbf000135-resize_4-target.png,1000,4.467,1.0,2813,1009,meters,jsons/v1_VE1000_randls_47_rotated.json,684297,903372,28,Man
113,860430,DepthScenes,duration_manipulation_targetAtFixation,jsons/v1_VE1000_randls_47_rotated.json,http://54.235.29.9/FacialAge/BNav_EC2/DepthDuration/v2_depth_duration_MTurk/v2_DepthDuration_HTML.html#229,229,1280,720,1280,720,8-29-2022,21-24-52,114,depth_duration_stimuli/000854_2014-06-09_19-43-13_260595134347_rgbf000066-resize_0/000854_2014-06-09_19-43-13_260595134347_rgbf000066-resize_0-target.png,1000,3.068,1.0,2933,992,meters,jsons/v1_VE1000_randls_47_rotated.json,684297,903372,28,Man
114,860430,DepthScenes,duration_manipulation_targetAtFixation,jsons/v1_VE1000_randls_47_rotated.json,http://54.235.29.9/FacialAge/BNav_EC2/DepthDuration/v2_depth_duration_MTurk/v2_DepthDuration_HTML.html#229,229,1280,720,1280,720,8-29-2022,21-24-52,115,depth_duration_stimuli/000758_2014-06-08_22-05-08_260595134347_rgbf000085-resize_0/000758_2014-06-08_22-05-08_260595134347_rgbf000085-resize_0-target.png,1000,3.3810000000000002,1.0,2730,992,meters,jsons/v1_VE1000_randls_47_rotated.json,684297,903372,28,Man
115,860430,DepthScenes,duration_manipulation_targetAtFixation,jsons/v1_VE1000_randls_47_rotated.json,http://54.235.29.9/FacialAge/BNav_EC2/DepthDuration/v2_depth_duration_MTurk/v2_DepthDuration_HTML.html#229,229,1280,720,1280,720,8-29-2022,21-24-52,116,depth_duration_stimuli/000635_2014-06-08_16-38-42_260595134347_rgbf000106-resize_1/000635_2014-06-08_16-38-42_260595134347_rgbf000106-resize_1-target.png,1000,2.074,1.0,2717,998,meters,jsons/v1_VE1000_randls_47_rotated.json,684297,903372,28,Man
116,860430,DepthScenes,duration_manipulation_targetAtFixation,jsons/v1_VE1000_randls_47_rotated.json,http://54.235.29.9/FacialAge/BNav_EC2/DepthDuration/v2_depth_duration_MTurk/v2_DepthDuration_HTML.html#229,229,1280,720,1280,720,8-29-2022,21-24-52,117,depth_duration_stimuli/002279_2014-06-28_18-55-32_260595134347_rgbf000040-resize_5/002279_2014-06-28_18-55-32_260595134347_rgbf000040-resize_5-target.png,1000,1.5043333333333,1.0,2931,998,meters,jsons/v1_VE1000_randls_47_rotated.json,684297,903372,28,Man
117,860430,DepthScenes,duration_manipulation_targetAtFixation,jsons/v1_VE1000_randls_47_rotated.json,http://54.235.29.9/FacialAge/BNav_EC2/DepthDuration/v2_depth_duration_MTurk/v2_DepthDuration_HTML.html#229,229,1280,720,1280,720,8-29-2022,21-24-52,118,depth_duration_stimuli/002136_2014-06-25_21-18-03_260595134347_rgbf000109-resize_3/002136_2014-06-25_21-18-03_260595134347_rgbf000109-resize_3-target.png,1000,1.9569999999999999,1.0,2628,1000,meters,jsons/v1_VE1000_randls_47_rotated.json,684297,903372,28,Man
118,860430,DepthScenes,duration_manipulation_targetAtFixation,jsons/v1_VE1000_randls_47_rotated.json,http://54.235.29.9/FacialAge/BNav_EC2/DepthDuration/v2_depth_duration_MTurk/v2_DepthDuration_HTML.html#229,229,1280,720,1280,720,8-29-2022,21-24-52,119,depth_duration_stimuli/002964_2014-06-08_17-46-11_094959634447_rgbf000091-resize_4/002964_2014-06-08_17-46-11_094959634447_rgbf000091-resize_4-target.png,1000,1.6909999999999998,1.0,2574,1007,meters,jsons/v1_VE1000_randls_47_rotated.json,684297,903372,28,Man
119,860430,DepthScenes,duration_manipulation_targetAtFixation,jsons/v1_VE1000_randls_47_rotated.json,http://54.235.29.9/FacialAge/BNav_EC2/DepthDuration/v2_depth_duration_MTurk/v2_DepthDuration_HTML.html#229,229,1280,720,1280,720,8-29-2022,21-24-52,120,depth_duration_stimuli/000787_2014-06-08_22-33-53_260595134347_rgbf000175-resize_1/000787_2014-06-08_22-33-53_260595134347_rgbf000175-resize-original.jpg,1000,4.784,0.0,3506,990,meters,jsons/v1_VE1000_randls_47_rotated.json,684297,903372,28,Man
120,860430,DepthScenes,duration_manipulation_targetAtFixation,jsons/v1_VE1000_randls_47_rotated.json,http://54.235.29.9/FacialAge/BNav_EC2/DepthDuration/v2_depth_duration_MTurk/v2_DepthDuration_HTML.html#229,229,1280,720,1280,720,8-29-2022,21-24-52,121,depth_duration_stimuli/000734_2014-06-08_17-39-11_260595134347_rgbf000128-resize_2/000734_2014-06-08_17-39-11_260595134347_rgbf000128-resize_2-target.png,1000,4.098,1.0,3027,997,meters,jsons/v1_VE1000_randls_47_rotated.json,684297,903372,28,Man
121,860430,DepthScenes,duration_manipulation_targetAtFixation,jsons/v1_VE1000_randls_47_rotated.json,http://54.235.29.9/FacialAge/BNav_EC2/DepthDuration/v2_depth_duration_MTurk/v2_DepthDuration_HTML.html#229,229,1280,720,1280,720,8-29-2022,21-24-52,122,depth_duration_stimuli/000739_2014-06-08_18-45-58_260595134347_rgbf000068-resize_1/000739_2014-06-08_18-45-58_260595134347_rgbf000068-resize_1-target.png,1000,3.534,1.0,5000,1006,meters,jsons/v1_VE1000_randls_47_rotated.json,684297,903372,28,Man
122,860430,DepthScenes,duration_manipulation_targetAtFixation,jsons/v1_VE1000_randls_47_rotated.json,http://54.235.29.9/FacialAge/BNav_EC2/DepthDuration/v2_depth_duration_MTurk/v2_DepthDuration_HTML.html#229,229,1280,720,1280,720,8-29-2022,21-24-52,123,depth_duration_stimuli/000927_2014-06-09_16-32-30_260595134347_rgbf000123-resize_3/000927_2014-06-09_16-32-30_260595134347_rgbf000123-resize_3-target.png,1000,2.6785,1.0,2535,994,meters,jsons/v1_VE1000_randls_47_rotated.json,684297,903372,28,Man
123,860430,DepthScenes,duration_manipulation_targetAtFixation,jsons/v1_VE1000_randls_47_rotated.json,http://54.235.29.9/FacialAge/BNav_EC2/DepthDuration/v2_depth_duration_MTurk/v2_DepthDuration_HTML.html#229,229,1280,720,1280,720,8-29-2022,21-24-52,124,depth_duration_stimuli/001110_2014-06-15_17-25-28_260595134347_rgbf000150-resize_1/001110_2014-06-15_17-25-28_260595134347_rgbf000150-resize_1-target.png,1000,1.7115,1.0,2649,994,meters,jsons/v1_VE1000_randls_47_rotated.json,684297,903372,28,Man
124,860430,DepthScenes,duration_manipulation_targetAtFixation,jsons/v1_VE1000_randls_47_rotated.json,http://54.235.29.9/FacialAge/BNav_EC2/DepthDuration/v2_depth_duration_MTurk/v2_DepthDuration_HTML.html#229,229,1280,720,1280,720,8-29-2022,21-24-52,125,depth_duration_stimuli/001235_2014-06-17_16-37-36_260595134347_rgbf000084-resize_4/001235_2014-06-17_16-37-36_260595134347_rgbf000084-resize_4-target.png,1000,3.6605,1.0,3159,985,meters,jsons/v1_VE1000_randls_47_rotated.json,684297,903372,28,Man
125,860430,DepthScenes,duration_manipulation_targetAtFixation,jsons/v1_VE1000_randls_47_rotated.json,http://54.235.29.9/FacialAge/BNav_EC2/DepthDuration/v2_depth_duration_MTurk/v2_DepthDuration_HTML.html#229,229,1280,720,1280,720,8-29-2022,21-24-52,126,depth_duration_stimuli/000788_2014-06-08_22-34-36_260595134347_rgbf000131-resize_1/000788_2014-06-08_22-34-36_260595134347_rgbf000131-resize_1-target.png,1000,3.359,0.5,4630,1001,meters,jsons/v1_VE1000_randls_47_rotated.json,684297,903372,28,Man
126,860430,DepthScenes,duration_manipulation_targetAtFixation,jsons/v1_VE1000_randls_47_rotated.json,http://54.235.29.9/FacialAge/BNav_EC2/DepthDuration/v2_depth_duration_MTurk/v2_DepthDuration_HTML.html#229,229,1280,720,1280,720,8-29-2022,21-24-52,127,depth_duration_stimuli/000749_2014-06-08_21-55-06_260595134347_rgbf000070-resize_2/000749_2014-06-08_21-55-06_260595134347_rgbf000070-resize_2-target.png,1000,2.331,1.0,2819,991,meters,jsons/v1_VE1000_randls_47_rotated.json,684297,903372,28,Man
127,860430,DepthScenes,duration_manipulation_targetAtFixation,jsons/v1_VE1000_randls_47_rotated.json,http://54.235.29.9/FacialAge/BNav_EC2/DepthDuration/v2_depth_duration_MTurk/v2_DepthDuration_HTML.html#229,229,1280,720,1280,720,8-29-2022,21-24-52,128,depth_duration_stimuli/002788_2014-06-22_19-36-03_094959634447_rgbf000088-resize_2/002788_2014-06-22_19-36-03_094959634447_rgbf000088-resize_2-target.png,1000,1.6465,1.0,3329,996,meters,jsons/v1_VE1000_randls_47_rotated.json,684297,903372,28,Man
128,860430,DepthScenes,duration_manipulation_targetAtFixation,jsons/v1_VE1000_randls_47_rotated.json,http://54.235.29.9/FacialAge/BNav_EC2/DepthDuration/v2_depth_duration_MTurk/v2_DepthDuration_HTML.html#229,229,1280,720,1280,720,8-29-2022,21-24-52,129,depth_duration_stimuli/002323_2014-06-28_20-01-54_260595134347_rgbf000051-resize_4/002323_2014-06-28_20-01-54_260595134347_rgbf000051-resize_4-target.png,1000,3.7310000000000003,1.0,2636,991,meters,jsons/v1_VE1000_randls_47_rotated.json,684297,903372,28,Man
129,860430,DepthScenes,duration_manipulation_targetAtFixation,jsons/v1_VE1000_randls_47_rotated.json,http://54.235.29.9/FacialAge/BNav_EC2/DepthDuration/v2_depth_duration_MTurk/v2_DepthDuration_HTML.html#229,229,1280,720,1280,720,8-29-2022,21-24-52,130,depth_duration_stimuli/000917_2014-06-09_22-45-29_260595134347_rgbf000149-resize_3/000917_2014-06-09_22-45-29_260595134347_rgbf000149-resize_3-target.png,1000,4.1865,1.0,2865,998,meters,jsons/v1_VE1000_randls_47_rotated.json,684297,903372,28,Man
130,860430,DepthScenes,duration_manipulation_targetAtFixation,jsons/v1_VE1000_randls_47_rotated.json,http://54.235.29.9/FacialAge/BNav_EC2/DepthDuration/v2_depth_duration_MTurk/v2_DepthDuration_HTML.html#229,229,1280,720,1280,720,8-29-2022,21-24-52,131,depth_duration_stimuli/003587_2014-05-23_16-48-02_094959634447_rgbf002384-resize_2/003587_2014-05-23_16-48-02_094959634447_rgbf002384-resize_2-target.png,1000,1.357,0.5,4667,990,meters,jsons/v1_VE1000_randls_47_rotated.json,684297,903372,28,Man
131,860430,DepthScenes,duration_manipulation_targetAtFixation,jsons/v1_VE1000_randls_47_rotated.json,http://54.235.29.9/FacialAge/BNav_EC2/DepthDuration/v2_depth_duration_MTurk/v2_DepthDuration_HTML.html#229,229,1280,720,1280,720,8-29-2022,21-24-52,132,depth_duration_stimuli/001167_2014-06-17_15-38-07_260595134347_rgbf000108-resize_0/001167_2014-06-17_15-38-07_260595134347_rgbf000108-resize_0-target.png,1000,1.8505,1.0,4392,985,meters,jsons/v1_VE1000_randls_47_rotated.json,684297,903372,28,Man
132,860430,DepthScenes,duration_manipulation_targetAtFixation,jsons/v1_VE1000_randls_47_rotated.json,http://54.235.29.9/FacialAge/BNav_EC2/DepthDuration/v2_depth_duration_MTurk/v2_DepthDuration_HTML.html#229,229,1280,720,1280,720,8-29-2022,21-24-52,133,depth_duration_stimuli/001132_2014-06-17_14-48-54_260595134347_rgbf000100-resize_2/001132_2014-06-17_14-48-54_260595134347_rgbf000100-resize_2-target.png,1000,3.753,1.0,2976,1011,meters,jsons/v1_VE1000_randls_47_rotated.json,684297,903372,28,Man
133,860430,DepthScenes,duration_manipulation_targetAtFixation,jsons/v1_VE1000_randls_47_rotated.json,http://54.235.29.9/FacialAge/BNav_EC2/DepthDuration/v2_depth_duration_MTurk/v2_DepthDuration_HTML.html#229,229,1280,720,1280,720,8-29-2022,21-24-52,134,depth_duration_stimuli/001133_2014-06-17_14-49-16_260595134347_rgbf000100-resize_0/001133_2014-06-17_14-49-16_260595134347_rgbf000100-resize_0-target.png,1000,4.2115,0.7,4482,996,meters,jsons/v1_VE1000_randls_47_rotated.json,684297,903372,28,Man
134,860430,DepthScenes,duration_manipulation_targetAtFixation,jsons/v1_VE1000_randls_47_rotated.json,http://54.235.29.9/FacialAge/BNav_EC2/DepthDuration/v2_depth_duration_MTurk/v2_DepthDuration_HTML.html#229,229,1280,720,1280,720,8-29-2022,21-24-52,135,depth_duration_stimuli/000375_2014-06-08_11-17-29_260595134347_rgbf000133-resize_2/000375_2014-06-08_11-17-29_260595134347_rgbf000133-resize-original.jpg,1000,4.718,0.0,3557,994,meters,jsons/v1_VE1000_randls_47_rotated.json,684297,903372,28,Man
135,860430,DepthScenes,duration_manipulation_targetAtFixation,jsons/v1_VE1000_randls_47_rotated.json,http://54.235.29.9/FacialAge/BNav_EC2/DepthDuration/v2_depth_duration_MTurk/v2_DepthDuration_HTML.html#229,229,1280,720,1280,720,8-29-2022,21-24-52,136,depth_duration_stimuli/002953_2014-06-08_17-32-18_094959634447_rgbf000059-resize_5/002953_2014-06-08_17-32-18_094959634447_rgbf000059-resize_5-target.png,1000,1.551,1.0,3297,1001,meters,jsons/v1_VE1000_randls_47_rotated.json,684297,903372,28,Man
136,860430,DepthScenes,duration_manipulation_targetAtFixation,jsons/v1_VE1000_randls_47_rotated.json,http://54.235.29.9/FacialAge/BNav_EC2/DepthDuration/v2_depth_duration_MTurk/v2_DepthDuration_HTML.html#229,229,1280,720,1280,720,8-29-2022,21-24-52,137,depth_duration_stimuli/000878_2014-06-08_22-52-45_260595134347_rgbf000045-resize_2/000878_2014-06-08_22-52-45_260595134347_rgbf000045-resize_2-target.png,1000,2.092,1.5,4074,985,meters,jsons/v1_VE1000_randls_47_rotated.json,684297,903372,28,Man
137,860430,DepthScenes,duration_manipulation_targetAtFixation,jsons/v1_VE1000_randls_47_rotated.json,http://54.235.29.9/FacialAge/BNav_EC2/DepthDuration/v2_depth_duration_MTurk/v2_DepthDuration_HTML.html#229,229,1280,720,1280,720,8-29-2022,21-24-52,138,depth_duration_stimuli/001584_2014-06-20_11-07-43_260595134347_rgbf000002-resize_1/001584_2014-06-20_11-07-43_260595134347_rgbf000002-resize_1-target.png,1000,3.53,1.0,2822,1006,meters,jsons/v1_VE1000_randls_47_rotated.json,684297,903372,28,Man
138,860430,DepthScenes,duration_manipulation_targetAtFixation,jsons/v1_VE1000_randls_47_rotated.json,http://54.235.29.9/FacialAge/BNav_EC2/DepthDuration/v2_depth_duration_MTurk/v2_DepthDuration_HTML.html#229,229,1280,720,1280,720,8-29-2022,21-24-52,139,depth_duration_stimuli/003621_2014-05-23_18-06-08_094959634447_rgbf000101-resize_1/003621_2014-05-23_18-06-08_094959634447_rgbf000101-resize_1-target.png,1000,3.9835,1.0,2787,989,meters,jsons/v1_VE1000_randls_47_rotated.json,684297,903372,28,Man
139,860430,DepthScenes,duration_manipulation_targetAtFixation,jsons/v1_VE1000_randls_47_rotated.json,http://54.235.29.9/FacialAge/BNav_EC2/DepthDuration/v2_depth_duration_MTurk/v2_DepthDuration_HTML.html#229,229,1280,720,1280,720,8-29-2022,21-24-52,140,depth_duration_stimuli/002995_2014-06-15_12-31-26_094959634447_rgbf000150-resize_1/002995_2014-06-15_12-31-26_094959634447_rgbf000150-resize_1-target.png,1000,3.8360000000000003,1.0,2695,996,meters,jsons/v1_VE1000_randls_47_rotated.json,684297,903372,28,Man
140,860430,DepthScenes,duration_manipulation_targetAtFixation,jsons/v1_VE1000_randls_47_rotated.json,http://54.235.29.9/FacialAge/BNav_EC2/DepthDuration/v2_depth_duration_MTurk/v2_DepthDuration_HTML.html#229,229,1280,720,1280,720,8-29-2022,21-24-52,141,depth_duration_stimuli/002748_2014-06-22_19-07-22_094959634447_rgbf000078-resize_1/002748_2014-06-22_19-07-22_094959634447_rgbf000078-resize_1-target.png,1000,4.6705,1.0,2953,988,meters,jsons/v1_VE1000_randls_47_rotated.json,684297,903372,28,Man
141,860430,DepthScenes,duration_manipulation_targetAtFixation,jsons/v1_VE1000_randls_47_rotated.json,http://54.235.29.9/FacialAge/BNav_EC2/DepthDuration/v2_depth_duration_MTurk/v2_DepthDuration_HTML.html#229,229,1280,720,1280,720,8-29-2022,21-24-52,142,depth_duration_stimuli/000556_2014-06-09_22-42-56_260595134347_rgbf000214-resize_1/000556_2014-06-09_22-42-56_260595134347_rgbf000214-resize_1-target.png,1000,4.8415,0.5,4581,992,meters,jsons/v1_VE1000_randls_47_rotated.json,684297,903372,28,Man
142,860430,DepthScenes,duration_manipulation_targetAtFixation,jsons/v1_VE1000_randls_47_rotated.json,http://54.235.29.9/FacialAge/BNav_EC2/DepthDuration/v2_depth_duration_MTurk/v2_DepthDuration_HTML.html#229,229,1280,720,1280,720,8-29-2022,21-24-52,143,depth_duration_stimuli/001158_2014-06-17_15-32-16_260595134347_rgbf000138-resize_2/001158_2014-06-17_15-32-16_260595134347_rgbf000138-resize_2-target.png,1000,4.5315,1.0,3497,1008,meters,jsons/v1_VE1000_randls_47_rotated.json,684297,903372,28,Man
143,860430,DepthScenes,duration_manipulation_targetAtFixation,jsons/v1_VE1000_randls_47_rotated.json,http://54.235.29.9/FacialAge/BNav_EC2/DepthDuration/v2_depth_duration_MTurk/v2_DepthDuration_HTML.html#229,229,1280,720,1280,720,8-29-2022,21-24-52,144,depth_duration_stimuli/001650_2014-06-20_12-09-00_260595134347_rgbf000087-resize_3/001650_2014-06-20_12-09-00_260595134347_rgbf000087-resize_3-target.png,1000,1.9505,0.5,4203,995,meters,jsons/v1_VE1000_randls_47_rotated.json,684297,903372,28,Man
144,860430,DepthScenes,duration_manipulation_targetAtFixation,jsons/v1_VE1000_randls_47_rotated.json,http://54.235.29.9/FacialAge/BNav_EC2/DepthDuration/v2_depth_duration_MTurk/v2_DepthDuration_HTML.html#229,229,1280,720,1280,720,8-29-2022,21-24-52,145,depth_duration_stimuli/000682_2014-06-08_23-14-58_260595134347_rgbf000041-resize_5/000682_2014-06-08_23-14-58_260595134347_rgbf000041-resize_5-target.png,1000,2.7239999999999998,0.7,4987,996,meters,jsons/v1_VE1000_randls_47_rotated.json,684297,903372,28,Man
145,860430,DepthScenes,duration_manipulation_targetAtFixation,jsons/v1_VE1000_randls_47_rotated.json,http://54.235.29.9/FacialAge/BNav_EC2/DepthDuration/v2_depth_duration_MTurk/v2_DepthDuration_HTML.html#229,229,1280,720,1280,720,8-29-2022,21-24-52,146,depth_duration_stimuli/002750_2014-06-22_19-08-03_094959634447_rgbf000094-resize_4/002750_2014-06-22_19-08-03_094959634447_rgbf000094-resize_4-target.png,1000,2.354,1.0,2689,1004,meters,jsons/v1_VE1000_randls_47_rotated.json,684297,903372,28,Man
146,860430,DepthScenes,duration_manipulation_targetAtFixation,jsons/v1_VE1000_randls_47_rotated.json,http://54.235.29.9/FacialAge/BNav_EC2/DepthDuration/v2_depth_duration_MTurk/v2_DepthDuration_HTML.html#229,229,1280,720,1280,720,8-29-2022,21-24-52,147,depth_duration_stimuli/002549_2014-06-24_13-41-39_094959634447_rgbf000022-resize_3/002549_2014-06-24_13-41-39_094959634447_rgbf000022-resize_3-target.png,1000,1.476,1.0,2559,989,meters,jsons/v1_VE1000_randls_47_rotated.json,684297,903372,28,Man
147,860430,DepthScenes,duration_manipulation_targetAtFixation,jsons/v1_VE1000_randls_47_rotated.json,http://54.235.29.9/FacialAge/BNav_EC2/DepthDuration/v2_depth_duration_MTurk/v2_DepthDuration_HTML.html#229,229,1280,720,1280,720,8-29-2022,21-24-52,148,depth_duration_stimuli/001516_2014-06-20_16-25-09_260595134347_rgbf000076-resize_2/001516_2014-06-20_16-25-09_260595134347_rgbf000076-resize_2-target.png,1000,1.7445,1.0,3010,999,meters,jsons/v1_VE1000_randls_47_rotated.json,684297,903372,28,Man
148,860430,DepthScenes,duration_manipulation_targetAtFixation,jsons/v1_VE1000_randls_47_rotated.json,http://54.235.29.9/FacialAge/BNav_EC2/DepthDuration/v2_depth_duration_MTurk/v2_DepthDuration_HTML.html#229,229,1280,720,1280,720,8-29-2022,21-24-52,149,depth_duration_stimuli/002118_2014-06-25_20-32-08_260595134347_rgbf000078-resize_1/002118_2014-06-25_20-32-08_260595134347_rgbf000078-resize_1-target.png,1000,2.6460000000000004,0.5,4659,1009,meters,jsons/v1_VE1000_randls_47_rotated.json,684297,903372,28,Man
149,860430,DepthScenes,duration_manipulation_targetAtFixation,jsons/v1_VE1000_randls_47_rotated.json,http://54.235.29.9/FacialAge/BNav_EC2/DepthDuration/v2_depth_duration_MTurk/v2_DepthDuration_HTML.html#229,229,1280,720,1280,720,8-29-2022,21-24-52,150,depth_duration_stimuli/001571_2014-06-20_17-21-32_260595134347_rgbf000089-resize_1/001571_2014-06-20_17-21-32_260595134347_rgbf000089-resize_1-target.png,1000,1.86,0.7,5196,986,meters,jsons/v1_VE1000_randls_47_rotated.json,684297,903372,28,Man
150,860430,DepthScenes,duration_manipulation_targetAtFixation,jsons/v1_VE1000_randls_47_rotated.json,http://54.235.29.9/FacialAge/BNav_EC2/DepthDuration/v2_depth_duration_MTurk/v2_DepthDuration_HTML.html#229,229,1280,720,1280,720,8-29-2022,21-24-52,151,depth_duration_stimuli/002272_2014-06-28_18-53-56_260595134347_rgbf000067-resize_2/002272_2014-06-28_18-53-56_260595134347_rgbf000067-resize_2-target.png,1000,1.138,1.0,2934,1009,meters,jsons/v1_VE1000_randls_47_rotated.json,684297,903372,28,Man
151,860430,DepthScenes,duration_manipulation_targetAtFixation,jsons/v1_VE1000_randls_47_rotated.json,http://54.235.29.9/FacialAge/BNav_EC2/DepthDuration/v2_depth_duration_MTurk/v2_DepthDuration_HTML.html#229,229,1280,720,1280,720,8-29-2022,21-24-52,152,depth_duration_stimuli/000569_2014-06-09_22-51-47_260595134347_rgbf000141-resize_3/000569_2014-06-09_22-51-47_260595134347_rgbf000141-resize-original.jpg,1000,4.512,0.0,3307,998,meters,jsons/v1_VE1000_randls_47_rotated.json,684297,903372,28,Man
152,860430,DepthScenes,duration_manipulation_targetAtFixation,jsons/v1_VE1000_randls_47_rotated.json,http://54.235.29.9/FacialAge/BNav_EC2/DepthDuration/v2_depth_duration_MTurk/v2_DepthDuration_HTML.html#229,229,1280,720,1280,720,8-29-2022,21-24-52,153,depth_duration_stimuli/003338_2014-05-20_11-01-23_094959634447_rgbf000051-resize_6/003338_2014-05-20_11-01-23_094959634447_rgbf000051-resize_6-target.png,1000,1.693,0.5,4572,998,meters,jsons/v1_VE1000_randls_47_rotated.json,684297,903372,28,Man
153,860430,DepthScenes,duration_manipulation_targetAtFixation,jsons/v1_VE1000_randls_47_rotated.json,http://54.235.29.9/FacialAge/BNav_EC2/DepthDuration/v2_depth_duration_MTurk/v2_DepthDuration_HTML.html#229,229,1280,720,1280,720,8-29-2022,21-24-52,154,depth_duration_stimuli/002509_2014-06-24_13-19-22_094959634447_rgbf000077-resize_0/002509_2014-06-24_13-19-22_094959634447_rgbf000077-resize_0-target.png,1000,1.3065,1.0,2893,992,meters,jsons/v1_VE1000_randls_47_rotated.json,684297,903372,28,Man
154,860430,DepthScenes,duration_manipulation_targetAtFixation,jsons/v1_VE1000_randls_47_rotated.json,http://54.235.29.9/FacialAge/BNav_EC2/DepthDuration/v2_depth_duration_MTurk/v2_DepthDuration_HTML.html#229,229,1280,720,1280,720,8-29-2022,21-24-52,155,depth_duration_stimuli/002103_2014-06-25_20-00-40_260595134347_rgbf000049-resize_0/002103_2014-06-25_20-00-40_260595134347_rgbf000049-resize_0-target.png,1000,4.105,1.0,2510,996,meters,jsons/v1_VE1000_randls_47_rotated.json,684297,903372,28,Man
155,860430,DepthScenes,duration_manipulation_targetAtFixation,jsons/v1_VE1000_randls_47_rotated.json,http://54.235.29.9/FacialAge/BNav_EC2/DepthDuration/v2_depth_duration_MTurk/v2_DepthDuration_HTML.html#229,229,1280,720,1280,720,8-29-2022,21-24-52,156,depth_duration_stimuli/002039_2014-06-24_20-22-38_260595134347_rgbf000084-resize_1/002039_2014-06-24_20-22-38_260595134347_rgbf000084-resize_1-target.png,1000,4.408,0.5,5962,1013,meters,jsons/v1_VE1000_randls_47_rotated.json,684297,903372,28,Man
156,860430,DepthScenes,duration_manipulation_targetAtFixation,jsons/v1_VE1000_randls_47_rotated.json,http://54.235.29.9/FacialAge/BNav_EC2/DepthDuration/v2_depth_duration_MTurk/v2_DepthDuration_HTML.html#229,229,1280,720,1280,720,8-29-2022,21-24-52,157,depth_duration_stimuli/000137_2014-05-20_17-04-49_260595134347_rgbf000120-resize_1/000137_2014-05-20_17-04-49_260595134347_rgbf000120-resize_1-target.png,1000,3.786,1.0,3859,992,meters,jsons/v1_VE1000_randls_47_rotated.json,684297,903372,28,Man
157,860430,DepthScenes,duration_manipulation_targetAtFixation,jsons/v1_VE1000_randls_47_rotated.json,http://54.235.29.9/FacialAge/BNav_EC2/DepthDuration/v2_depth_duration_MTurk/v2_DepthDuration_HTML.html#229,229,1280,720,1280,720,8-29-2022,21-24-52,158,depth_duration_stimuli/000736_2014-06-08_18-24-15_260595134347_rgbf000206-resize_3/000736_2014-06-08_18-24-15_260595134347_rgbf000206-resize_3-target.png,1000,3.515,1.0,3831,995,meters,jsons/v1_VE1000_randls_47_rotated.json,684297,903372,28,Man
158,860430,DepthScenes,duration_manipulation_targetAtFixation,jsons/v1_VE1000_randls_47_rotated.json,http://54.235.29.9/FacialAge/BNav_EC2/DepthDuration/v2_depth_duration_MTurk/v2_DepthDuration_HTML.html#229,229,1280,720,1280,720,8-29-2022,21-24-52,159,depth_duration_stimuli/002444_2014-06-28_20-32-08_260595134347_rgbf000027-resize_0/002444_2014-06-28_20-32-08_260595134347_rgbf000027-resize_0-target.png,1000,4.388999999999999,1.0,3316,992,meters,jsons/v1_VE1000_randls_47_rotated.json,684297,903372,28,Man
159,860430,DepthScenes,duration_manipulation_targetAtFixation,jsons/v1_VE1000_randls_47_rotated.json,http://54.235.29.9/FacialAge/BNav_EC2/DepthDuration/v2_depth_duration_MTurk/v2_DepthDuration_HTML.html#229,229,1280,720,1280,720,8-29-2022,21-24-52,160,depth_duration_stimuli/000436_2014-06-09_22-25-11_260595134347_rgbf000137-resize_1/000436_2014-06-09_22-25-11_260595134347_rgbf000137-resize_1-target.png,1000,4.0705,1.0,3018,997,meters,jsons/v1_VE1000_randls_47_rotated.json,684297,903372,28,Man
160,860430,DepthScenes,duration_manipulation_targetAtFixation,jsons/v1_VE1000_randls_47_rotated.json,http://54.235.29.9/FacialAge/BNav_EC2/DepthDuration/v2_depth_duration_MTurk/v2_DepthDuration_HTML.html#229,229,1280,720,1280,720,8-29-2022,21-24-52,161,depth_duration_stimuli/002758_2014-06-22_19-11-20_094959634447_rgbf000128-resize_1/002758_2014-06-22_19-11-20_094959634447_rgbf000128-resize_1-target.png,1000,2.555,0.6,4992,993,meters,jsons/v1_VE1000_randls_47_rotated.json,684297,903372,28,Man
161,860430,DepthScenes,duration_manipulation_targetAtFixation,jsons/v1_VE1000_randls_47_rotated.json,http://54.235.29.9/FacialAge/BNav_EC2/DepthDuration/v2_depth_duration_MTurk/v2_DepthDuration_HTML.html#229,229,1280,720,1280,720,8-29-2022,21-24-52,162,depth_duration_stimuli/002630_2014-06-24_14-47-50_094959634447_rgbf000055-resize_1/002630_2014-06-24_14-47-50_094959634447_rgbf000055-resize_1-target.png,1000,3.0095,1.0,2636,1009,meters,jsons/v1_VE1000_randls_47_rotated.json,684297,903372,28,Man
162,860430,DepthScenes,duration_manipulation_targetAtFixation,jsons/v1_VE1000_randls_47_rotated.json,http://54.235.29.9/FacialAge/BNav_EC2/DepthDuration/v2_depth_duration_MTurk/v2_DepthDuration_HTML.html#229,229,1280,720,1280,720,8-29-2022,21-24-52,163,depth_duration_stimuli/000943_2014-06-09_19-31-07_260595134347_rgbf000128-resize_1/000943_2014-06-09_19-31-07_260595134347_rgbf000128-resize_1-target.png,1000,1.9765,1.0,2777,995,meters,jsons/v1_VE1000_randls_47_rotated.json,684297,903372,28,Man
163,860430,DepthScenes,duration_manipulation_targetAtFixation,jsons/v1_VE1000_randls_47_rotated.json,http://54.235.29.9/FacialAge/BNav_EC2/DepthDuration/v2_depth_duration_MTurk/v2_DepthDuration_HTML.html#229,229,1280,720,1280,720,8-29-2022,21-24-52,164,depth_duration_stimuli/003070_2014-06-15_14-58-27_094959634447_rgbf000150-resize_3/003070_2014-06-15_14-58-27_094959634447_rgbf000150-resize_3-target.png,1000,2.9415,0.6,4989,994,meters,jsons/v1_VE1000_randls_47_rotated.json,684297,903372,28,Man
