,subjID,experimentName,versionName,sequenceName,url,selected_row,windowWidth,windowHeight,screenWidth,screenHeight,startDate,startTime,trial,stimulus,duration,actual_depth,depth_estimate,trial_RT,log_sceneDuration,unitSelection,seq_filepath,experimentTime,totalTime,age,gender
0,861643,DepthScenes,duration_manipulation_targetAtFixation,jsons/VE125_randls_76_rotated.json,http://54.235.29.9/FacialAge/BNav_EC2/DepthDuration/v2_depth_duration_MTurk/v2_DepthDuration_HTML.html#72,72,1920,933,1920,1080,8-21-2022,9-35-9,1,depth_duration_stimuli/001100_2014-06-15_17-46-26_260595134347_rgbf000225-resize_2/001100_2014-06-15_17-46-26_260595134347_rgbf000225-resize_2-target.png,125,2.24,3,4766,126,feet,jsons/VE125_randls_76_rotated.json,433459,616982,36,Man
1,861643,DepthScenes,duration_manipulation_targetAtFixation,jsons/VE125_randls_76_rotated.json,http://54.235.29.9/FacialAge/BNav_EC2/DepthDuration/v2_depth_duration_MTurk/v2_DepthDuration_HTML.html#72,72,1920,933,1920,1080,8-21-2022,9-35-9,2,depth_duration_stimuli/002784_2014-06-22_19-26-30_094959634447_rgbf000083-resize_3/002784_2014-06-22_19-26-30_094959634447_rgbf000083-resize_3-target.png,125,1.8046666666667,1,3239,123,feet,jsons/VE125_randls_76_rotated.json,433459,616982,36,Man
2,861643,DepthScenes,duration_manipulation_targetAtFixation,jsons/VE125_randls_76_rotated.json,http://54.235.29.9/FacialAge/BNav_EC2/DepthDuration/v2_depth_duration_MTurk/v2_DepthDuration_HTML.html#72,72,1920,933,1920,1080,8-21-2022,9-35-9,3,depth_duration_stimuli/002467_2014-06-28_20-38-07_260595134347_rgbf000026-resize_2/002467_2014-06-28_20-38-07_260595134347_rgbf000026-resize_2-target.png,125,4.742,4,2855,125,feet,jsons/VE125_randls_76_rotated.json,433459,616982,36,Man
3,861643,DepthScenes,duration_manipulation_targetAtFixation,jsons/VE125_randls_76_rotated.json,http://54.235.29.9/FacialAge/BNav_EC2/DepthDuration/v2_depth_duration_MTurk/v2_DepthDuration_HTML.html#72,72,1920,933,1920,1080,8-21-2022,9-35-9,4,depth_duration_stimuli/002570_2014-06-24_13-59-54_094959634447_rgbf000059-resize_0/002570_2014-06-24_13-59-54_094959634447_rgbf000059-resize_0-target.png,125,4.037,6,2189,124,feet,jsons/VE125_randls_76_rotated.json,433459,616982,36,Man
4,861643,DepthScenes,duration_manipulation_targetAtFixation,jsons/VE125_randls_76_rotated.json,http://54.235.29.9/FacialAge/BNav_EC2/DepthDuration/v2_depth_duration_MTurk/v2_DepthDuration_HTML.html#72,72,1920,933,1920,1080,8-21-2022,9-35-9,5,depth_duration_stimuli/003079_2014-06-15_15-18-20_094959634447_rgbf000152-resize_8/003079_2014-06-15_15-18-20_094959634447_rgbf000152-resize_8-target.png,125,2.8775,5,3227,123,feet,jsons/VE125_randls_76_rotated.json,433459,616982,36,Man
5,861643,DepthScenes,duration_manipulation_targetAtFixation,jsons/VE125_randls_76_rotated.json,http://54.235.29.9/FacialAge/BNav_EC2/DepthDuration/v2_depth_duration_MTurk/v2_DepthDuration_HTML.html#72,72,1920,933,1920,1080,8-21-2022,9-35-9,6,depth_duration_stimuli/000506_2014-06-08_23-21-00_260595134347_rgbf000070-resize_7/000506_2014-06-08_23-21-00_260595134347_rgbf000070-resize_7-target.png,125,4.0585,4,1795,124,feet,jsons/VE125_randls_76_rotated.json,433459,616982,36,Man
6,861643,DepthScenes,duration_manipulation_targetAtFixation,jsons/VE125_randls_76_rotated.json,http://54.235.29.9/FacialAge/BNav_EC2/DepthDuration/v2_depth_duration_MTurk/v2_DepthDuration_HTML.html#72,72,1920,933,1920,1080,8-21-2022,9-35-9,7,depth_duration_stimuli/000749_2014-06-08_21-55-06_260595134347_rgbf000070-resize_2/000749_2014-06-08_21-55-06_260595134347_rgbf000070-resize_2-target.png,125,2.331,3,1765,122,feet,jsons/VE125_randls_76_rotated.json,433459,616982,36,Man
7,861643,DepthScenes,duration_manipulation_targetAtFixation,jsons/VE125_randls_76_rotated.json,http://54.235.29.9/FacialAge/BNav_EC2/DepthDuration/v2_depth_duration_MTurk/v2_DepthDuration_HTML.html#72,72,1920,933,1920,1080,8-21-2022,9-35-9,8,depth_duration_stimuli/002788_2014-06-22_19-36-03_094959634447_rgbf000088-resize_2/002788_2014-06-22_19-36-03_094959634447_rgbf000088-resize_2-target.png,125,1.6465,2,1743,124,feet,jsons/VE125_randls_76_rotated.json,433459,616982,36,Man
8,861643,DepthScenes,duration_manipulation_targetAtFixation,jsons/VE125_randls_76_rotated.json,http://54.235.29.9/FacialAge/BNav_EC2/DepthDuration/v2_depth_duration_MTurk/v2_DepthDuration_HTML.html#72,72,1920,933,1920,1080,8-21-2022,9-35-9,9,depth_duration_stimuli/002995_2014-06-15_12-31-26_094959634447_rgbf000150-resize_1/002995_2014-06-15_12-31-26_094959634447_rgbf000150-resize_1-target.png,125,3.8360000000000003,1,1667,124,feet,jsons/VE125_randls_76_rotated.json,433459,616982,36,Man
9,861643,DepthScenes,duration_manipulation_targetAtFixation,jsons/VE125_randls_76_rotated.json,http://54.235.29.9/FacialAge/BNav_EC2/DepthDuration/v2_depth_duration_MTurk/v2_DepthDuration_HTML.html#72,72,1920,933,1920,1080,8-21-2022,9-35-9,10,depth_duration_stimuli/002748_2014-06-22_19-07-22_094959634447_rgbf000078-resize_1/002748_2014-06-22_19-07-22_094959634447_rgbf000078-resize_1-target.png,125,4.6705,5,1844,124,feet,jsons/VE125_randls_76_rotated.json,433459,616982,36,Man
10,861643,DepthScenes,duration_manipulation_targetAtFixation,jsons/VE125_randls_76_rotated.json,http://54.235.29.9/FacialAge/BNav_EC2/DepthDuration/v2_depth_duration_MTurk/v2_DepthDuration_HTML.html#72,72,1920,933,1920,1080,8-21-2022,9-35-9,11,depth_duration_stimuli/002568_2014-06-24_13-59-21_094959634447_rgbf000062-resize_4/002568_2014-06-24_13-59-21_094959634447_rgbf000062-resize_4-target.png,125,3.015,4,1904,124,feet,jsons/VE125_randls_76_rotated.json,433459,616982,36,Man
11,861643,DepthScenes,duration_manipulation_targetAtFixation,jsons/VE125_randls_76_rotated.json,http://54.235.29.9/FacialAge/BNav_EC2/DepthDuration/v2_depth_duration_MTurk/v2_DepthDuration_HTML.html#72,72,1920,933,1920,1080,8-21-2022,9-35-9,12,depth_duration_stimuli/003492_2014-05-21_15-50-55_094959634447_rgbf000828-resize_1/003492_2014-05-21_15-50-55_094959634447_rgbf000828-resize_1-target.png,125,4.06875,3,2100,129,feet,jsons/VE125_randls_76_rotated.json,433459,616982,36,Man
12,861643,DepthScenes,duration_manipulation_targetAtFixation,jsons/VE125_randls_76_rotated.json,http://54.235.29.9/FacialAge/BNav_EC2/DepthDuration/v2_depth_duration_MTurk/v2_DepthDuration_HTML.html#72,72,1920,933,1920,1080,8-21-2022,9-35-9,13,depth_duration_stimuli/001235_2014-06-17_16-37-36_260595134347_rgbf000084-resize_4/001235_2014-06-17_16-37-36_260595134347_rgbf000084-resize_4-target.png,125,3.6605,4,2511,125,feet,jsons/VE125_randls_76_rotated.json,433459,616982,36,Man
13,861643,DepthScenes,duration_manipulation_targetAtFixation,jsons/VE125_randls_76_rotated.json,http://54.235.29.9/FacialAge/BNav_EC2/DepthDuration/v2_depth_duration_MTurk/v2_DepthDuration_HTML.html#72,72,1920,933,1920,1080,8-21-2022,9-35-9,14,depth_duration_stimuli/000788_2014-06-08_22-34-36_260595134347_rgbf000131-resize_1/000788_2014-06-08_22-34-36_260595134347_rgbf000131-resize_1-target.png,125,3.359,2,2800,123,feet,jsons/VE125_randls_76_rotated.json,433459,616982,36,Man
14,861643,DepthScenes,duration_manipulation_targetAtFixation,jsons/VE125_randls_76_rotated.json,http://54.235.29.9/FacialAge/BNav_EC2/DepthDuration/v2_depth_duration_MTurk/v2_DepthDuration_HTML.html#72,72,1920,933,1920,1080,8-21-2022,9-35-9,15,depth_duration_stimuli/003129_2014-05-12_10-48-10_094959634447_rgbf000100-resize_0/003129_2014-05-12_10-48-10_094959634447_rgbf000100-resize_0-target.png,125,4.9305,4,2560,125,feet,jsons/VE125_randls_76_rotated.json,433459,616982,36,Man
15,861643,DepthScenes,duration_manipulation_targetAtFixation,jsons/VE125_randls_76_rotated.json,http://54.235.29.9/FacialAge/BNav_EC2/DepthDuration/v2_depth_duration_MTurk/v2_DepthDuration_HTML.html#72,72,1920,933,1920,1080,8-21-2022,9-35-9,16,depth_duration_stimuli/000414_2014-06-04_19-49-13_260595134347_rgbf000044-resize_0/000414_2014-06-04_19-49-13_260595134347_rgbf000044-resize_0-target.png,125,4.329,5,1968,125,feet,jsons/VE125_randls_76_rotated.json,433459,616982,36,Man
16,861643,DepthScenes,duration_manipulation_targetAtFixation,jsons/VE125_randls_76_rotated.json,http://54.235.29.9/FacialAge/BNav_EC2/DepthDuration/v2_depth_duration_MTurk/v2_DepthDuration_HTML.html#72,72,1920,933,1920,1080,8-21-2022,9-35-9,17,depth_duration_stimuli/001132_2014-06-17_14-48-54_260595134347_rgbf000100-resize_2/001132_2014-06-17_14-48-54_260595134347_rgbf000100-resize_2-target.png,125,3.753,4,2089,124,feet,jsons/VE125_randls_76_rotated.json,433459,616982,36,Man
17,861643,DepthScenes,duration_manipulation_targetAtFixation,jsons/VE125_randls_76_rotated.json,http://54.235.29.9/FacialAge/BNav_EC2/DepthDuration/v2_depth_duration_MTurk/v2_DepthDuration_HTML.html#72,72,1920,933,1920,1080,8-21-2022,9-35-9,18,depth_duration_stimuli/001133_2014-06-17_14-49-16_260595134347_rgbf000100-resize_0/001133_2014-06-17_14-49-16_260595134347_rgbf000100-resize_0-target.png,125,4.2115,3,1566,127,feet,jsons/VE125_randls_76_rotated.json,433459,616982,36,Man
18,861643,DepthScenes,duration_manipulation_targetAtFixation,jsons/VE125_randls_76_rotated.json,http://54.235.29.9/FacialAge/BNav_EC2/DepthDuration/v2_depth_duration_MTurk/v2_DepthDuration_HTML.html#72,72,1920,933,1920,1080,8-21-2022,9-35-9,19,depth_duration_stimuli/001498_2014-06-19_17-45-14_260595134347_rgbf000129-resize_4/001498_2014-06-19_17-45-14_260595134347_rgbf000129-resize-original.jpg,125,1.4075,0,2473,125,feet,jsons/VE125_randls_76_rotated.json,433459,616982,36,Man
19,861643,DepthScenes,duration_manipulation_targetAtFixation,jsons/VE125_randls_76_rotated.json,http://54.235.29.9/FacialAge/BNav_EC2/DepthDuration/v2_depth_duration_MTurk/v2_DepthDuration_HTML.html#72,72,1920,933,1920,1080,8-21-2022,9-35-9,20,depth_duration_stimuli/000665_2014-06-09_20-42-35_260595134347_rgbf000110-resize_1/000665_2014-06-09_20-42-35_260595134347_rgbf000110-resize_1-target.png,125,3.057,4,2211,125,feet,jsons/VE125_randls_76_rotated.json,433459,616982,36,Man
20,861643,DepthScenes,duration_manipulation_targetAtFixation,jsons/VE125_randls_76_rotated.json,http://54.235.29.9/FacialAge/BNav_EC2/DepthDuration/v2_depth_duration_MTurk/v2_DepthDuration_HTML.html#72,72,1920,933,1920,1080,8-21-2022,9-35-9,21,depth_duration_stimuli/001150_2014-06-17_15-27-34_260595134347_rgbf000108-resize_2/001150_2014-06-17_15-27-34_260595134347_rgbf000108-resize_2-target.png,125,4.0325,6,1875,124,feet,jsons/VE125_randls_76_rotated.json,433459,616982,36,Man
21,861643,DepthScenes,duration_manipulation_targetAtFixation,jsons/VE125_randls_76_rotated.json,http://54.235.29.9/FacialAge/BNav_EC2/DepthDuration/v2_depth_duration_MTurk/v2_DepthDuration_HTML.html#72,72,1920,933,1920,1080,8-21-2022,9-35-9,22,depth_duration_stimuli/003495_2014-05-21_16-01-51_094959634447_rgbf000100-resize_3/003495_2014-05-21_16-01-51_094959634447_rgbf000100-resize_3-target.png,125,1.6255,5,1985,129,feet,jsons/VE125_randls_76_rotated.json,433459,616982,36,Man
22,861643,DepthScenes,duration_manipulation_targetAtFixation,jsons/VE125_randls_76_rotated.json,http://54.235.29.9/FacialAge/BNav_EC2/DepthDuration/v2_depth_duration_MTurk/v2_DepthDuration_HTML.html#72,72,1920,933,1920,1080,8-21-2022,9-35-9,23,depth_duration_stimuli/001244_2014-06-17_16-47-45_260595134347_rgbf000030-resize_4/001244_2014-06-17_16-47-45_260595134347_rgbf000030-resize_4-target.png,125,2.0425,4,2143,129,feet,jsons/VE125_randls_76_rotated.json,433459,616982,36,Man
23,861643,DepthScenes,duration_manipulation_targetAtFixation,jsons/VE125_randls_76_rotated.json,http://54.235.29.9/FacialAge/BNav_EC2/DepthDuration/v2_depth_duration_MTurk/v2_DepthDuration_HTML.html#72,72,1920,933,1920,1080,8-21-2022,9-35-9,24,depth_duration_stimuli/000734_2014-06-08_17-39-11_260595134347_rgbf000128-resize_2/000734_2014-06-08_17-39-11_260595134347_rgbf000128-resize_2-target.png,125,4.098,3,2223,125,feet,jsons/VE125_randls_76_rotated.json,433459,616982,36,Man
24,861643,DepthScenes,duration_manipulation_targetAtFixation,jsons/VE125_randls_76_rotated.json,http://54.235.29.9/FacialAge/BNav_EC2/DepthDuration/v2_depth_duration_MTurk/v2_DepthDuration_HTML.html#72,72,1920,933,1920,1080,8-21-2022,9-35-9,25,depth_duration_stimuli/000739_2014-06-08_18-45-58_260595134347_rgbf000068-resize_1/000739_2014-06-08_18-45-58_260595134347_rgbf000068-resize_1-target.png,125,3.534,2,1811,126,feet,jsons/VE125_randls_76_rotated.json,433459,616982,36,Man
25,861643,DepthScenes,duration_manipulation_targetAtFixation,jsons/VE125_randls_76_rotated.json,http://54.235.29.9/FacialAge/BNav_EC2/DepthDuration/v2_depth_duration_MTurk/v2_DepthDuration_HTML.html#72,72,1920,933,1920,1080,8-21-2022,9-35-9,26,depth_duration_stimuli/000137_2014-05-20_17-04-49_260595134347_rgbf000120-resize_1/000137_2014-05-20_17-04-49_260595134347_rgbf000120-resize_1-target.png,125,3.786,4,2064,125,feet,jsons/VE125_randls_76_rotated.json,433459,616982,36,Man
26,861643,DepthScenes,duration_manipulation_targetAtFixation,jsons/VE125_randls_76_rotated.json,http://54.235.29.9/FacialAge/BNav_EC2/DepthDuration/v2_depth_duration_MTurk/v2_DepthDuration_HTML.html#72,72,1920,933,1920,1080,8-21-2022,9-35-9,27,depth_duration_stimuli/000736_2014-06-08_18-24-15_260595134347_rgbf000206-resize_3/000736_2014-06-08_18-24-15_260595134347_rgbf000206-resize_3-target.png,125,3.515,3,4034,125,feet,jsons/VE125_randls_76_rotated.json,433459,616982,36,Man
27,861643,DepthScenes,duration_manipulation_targetAtFixation,jsons/VE125_randls_76_rotated.json,http://54.235.29.9/FacialAge/BNav_EC2/DepthDuration/v2_depth_duration_MTurk/v2_DepthDuration_HTML.html#72,72,1920,933,1920,1080,8-21-2022,9-35-9,28,depth_duration_stimuli/001450_2014-06-19_17-02-03_260595134347_rgbf000203-resize_4/001450_2014-06-19_17-02-03_260595134347_rgbf000203-resize_4-target.png,125,4.0106666666667,5,1777,124,feet,jsons/VE125_randls_76_rotated.json,433459,616982,36,Man
28,861643,DepthScenes,duration_manipulation_targetAtFixation,jsons/VE125_randls_76_rotated.json,http://54.235.29.9/FacialAge/BNav_EC2/DepthDuration/v2_depth_duration_MTurk/v2_DepthDuration_HTML.html#72,72,1920,933,1920,1080,8-21-2022,9-35-9,29,depth_duration_stimuli/001449_2014-06-19_17-01-27_260595134347_rgbf000116-resize_2/001449_2014-06-19_17-01-27_260595134347_rgbf000116-resize_2-target.png,125,3.452,5,2255,124,feet,jsons/VE125_randls_76_rotated.json,433459,616982,36,Man
29,861643,DepthScenes,duration_manipulation_targetAtFixation,jsons/VE125_randls_76_rotated.json,http://54.235.29.9/FacialAge/BNav_EC2/DepthDuration/v2_depth_duration_MTurk/v2_DepthDuration_HTML.html#72,72,1920,933,1920,1080,8-21-2022,9-35-9,30,depth_duration_stimuli/002072_2014-06-24_21-48-06_260595134347_rgbf000115-resize_0/002072_2014-06-24_21-48-06_260595134347_rgbf000115-resize-original.jpg,125,4.702,0,2454,130,feet,jsons/VE125_randls_76_rotated.json,433459,616982,36,Man
30,861643,DepthScenes,duration_manipulation_targetAtFixation,jsons/VE125_randls_76_rotated.json,http://54.235.29.9/FacialAge/BNav_EC2/DepthDuration/v2_depth_duration_MTurk/v2_DepthDuration_HTML.html#72,72,1920,933,1920,1080,8-21-2022,9-35-9,31,depth_duration_stimuli/000483_2014-06-09_20-41-45_260595134347_rgbf000116-resize_4/000483_2014-06-09_20-41-45_260595134347_rgbf000116-resize_4-target.png,125,1.337,5,2283,126,feet,jsons/VE125_randls_76_rotated.json,433459,616982,36,Man
31,861643,DepthScenes,duration_manipulation_targetAtFixation,jsons/VE125_randls_76_rotated.json,http://54.235.29.9/FacialAge/BNav_EC2/DepthDuration/v2_depth_duration_MTurk/v2_DepthDuration_HTML.html#72,72,1920,933,1920,1080,8-21-2022,9-35-9,32,depth_duration_stimuli/000469_2014-06-09_19-42-10_260595134347_rgbf000081-resize_1/000469_2014-06-09_19-42-10_260595134347_rgbf000081-resize_1-target.png,125,1.652,2,2779,125,feet,jsons/VE125_randls_76_rotated.json,433459,616982,36,Man
32,861643,DepthScenes,duration_manipulation_targetAtFixation,jsons/VE125_randls_76_rotated.json,http://54.235.29.9/FacialAge/BNav_EC2/DepthDuration/v2_depth_duration_MTurk/v2_DepthDuration_HTML.html#72,72,1920,933,1920,1080,8-21-2022,9-35-9,33,depth_duration_stimuli/002545_2014-06-24_13-38-53_094959634447_rgbf000080-resize_4/002545_2014-06-24_13-38-53_094959634447_rgbf000080-resize_4-target.png,125,1.9205,1,1673,123,feet,jsons/VE125_randls_76_rotated.json,433459,616982,36,Man
33,861643,DepthScenes,duration_manipulation_targetAtFixation,jsons/VE125_randls_76_rotated.json,http://54.235.29.9/FacialAge/BNav_EC2/DepthDuration/v2_depth_duration_MTurk/v2_DepthDuration_HTML.html#72,72,1920,933,1920,1080,8-21-2022,9-35-9,34,depth_duration_stimuli/001092_2014-06-15_17-34-58_260595134347_rgbf000171-resize_3/001092_2014-06-15_17-34-58_260595134347_rgbf000171-resize_3-target.png,125,2.6935,1,1549,139,feet,jsons/VE125_randls_76_rotated.json,433459,616982,36,Man
34,861643,DepthScenes,duration_manipulation_targetAtFixation,jsons/VE125_randls_76_rotated.json,http://54.235.29.9/FacialAge/BNav_EC2/DepthDuration/v2_depth_duration_MTurk/v2_DepthDuration_HTML.html#72,72,1920,933,1920,1080,8-21-2022,9-35-9,35,depth_duration_stimuli/000635_2014-06-08_16-38-42_260595134347_rgbf000106-resize_1/000635_2014-06-08_16-38-42_260595134347_rgbf000106-resize_1-target.png,125,2.074,2,1709,138,feet,jsons/VE125_randls_76_rotated.json,433459,616982,36,Man
35,861643,DepthScenes,duration_manipulation_targetAtFixation,jsons/VE125_randls_76_rotated.json,http://54.235.29.9/FacialAge/BNav_EC2/DepthDuration/v2_depth_duration_MTurk/v2_DepthDuration_HTML.html#72,72,1920,933,1920,1080,8-21-2022,9-35-9,36,depth_duration_stimuli/002279_2014-06-28_18-55-32_260595134347_rgbf000040-resize_5/002279_2014-06-28_18-55-32_260595134347_rgbf000040-resize_5-target.png,125,1.5043333333333,3,1502,125,feet,jsons/VE125_randls_76_rotated.json,433459,616982,36,Man
36,861643,DepthScenes,duration_manipulation_targetAtFixation,jsons/VE125_randls_76_rotated.json,http://54.235.29.9/FacialAge/BNav_EC2/DepthDuration/v2_depth_duration_MTurk/v2_DepthDuration_HTML.html#72,72,1920,933,1920,1080,8-21-2022,9-35-9,37,depth_duration_stimuli/000191_2014-05-12_17-07-38_260595134347_rgbf000199-resize_0/000191_2014-05-12_17-07-38_260595134347_rgbf000199-resize_0-target.png,125,3.7995,7,2210,123,feet,jsons/VE125_randls_76_rotated.json,433459,616982,36,Man
37,861643,DepthScenes,duration_manipulation_targetAtFixation,jsons/VE125_randls_76_rotated.json,http://54.235.29.9/FacialAge/BNav_EC2/DepthDuration/v2_depth_duration_MTurk/v2_DepthDuration_HTML.html#72,72,1920,933,1920,1080,8-21-2022,9-35-9,38,depth_duration_stimuli/000493_2014-06-09_21-01-18_260595134347_rgbf000196-resize_3/000493_2014-06-09_21-01-18_260595134347_rgbf000196-resize_3-target.png,125,3.44,3,5079,125,feet,jsons/VE125_randls_76_rotated.json,433459,616982,36,Man
38,861643,DepthScenes,duration_manipulation_targetAtFixation,jsons/VE125_randls_76_rotated.json,http://54.235.29.9/FacialAge/BNav_EC2/DepthDuration/v2_depth_duration_MTurk/v2_DepthDuration_HTML.html#72,72,1920,933,1920,1080,8-21-2022,9-35-9,39,depth_duration_stimuli/003490_2014-05-21_15-50-11_094959634447_rgbf000101-resize_3/003490_2014-05-21_15-50-11_094959634447_rgbf000101-resize_3-target.png,125,3.6445,5,2106,126,feet,jsons/VE125_randls_76_rotated.json,433459,616982,36,Man
39,861643,DepthScenes,duration_manipulation_targetAtFixation,jsons/VE125_randls_76_rotated.json,http://54.235.29.9/FacialAge/BNav_EC2/DepthDuration/v2_depth_duration_MTurk/v2_DepthDuration_HTML.html#72,72,1920,933,1920,1080,8-21-2022,9-35-9,40,depth_duration_stimuli/001175_2014-06-17_15-45-55_260595134347_rgbf000129-resize_4/001175_2014-06-17_15-45-55_260595134347_rgbf000129-resize_4-target.png,125,4.255,4,2070,122,feet,jsons/VE125_randls_76_rotated.json,433459,616982,36,Man
40,861643,DepthScenes,duration_manipulation_targetAtFixation,jsons/VE125_randls_76_rotated.json,http://54.235.29.9/FacialAge/BNav_EC2/DepthDuration/v2_depth_duration_MTurk/v2_DepthDuration_HTML.html#72,72,1920,933,1920,1080,8-21-2022,9-35-9,41,depth_duration_stimuli/003010_2014-06-15_12-54-35_094959634447_rgbf000112-resize_0/003010_2014-06-15_12-54-35_094959634447_rgbf000112-resize_0-target.png,125,3.1185,5,2805,136,feet,jsons/VE125_randls_76_rotated.json,433459,616982,36,Man
41,861643,DepthScenes,duration_manipulation_targetAtFixation,jsons/VE125_randls_76_rotated.json,http://54.235.29.9/FacialAge/BNav_EC2/DepthDuration/v2_depth_duration_MTurk/v2_DepthDuration_HTML.html#72,72,1920,933,1920,1080,8-21-2022,9-35-9,42,depth_duration_stimuli/001810_2014-06-26_20-51-35_260595134347_rgbf000040-resize_3/001810_2014-06-26_20-51-35_260595134347_rgbf000040-resize_3-target.png,125,2.2525,3,1824,126,feet,jsons/VE125_randls_76_rotated.json,433459,616982,36,Man
42,861643,DepthScenes,duration_manipulation_targetAtFixation,jsons/VE125_randls_76_rotated.json,http://54.235.29.9/FacialAge/BNav_EC2/DepthDuration/v2_depth_duration_MTurk/v2_DepthDuration_HTML.html#72,72,1920,933,1920,1080,8-21-2022,9-35-9,43,depth_duration_stimuli/001815_2014-06-26_20-52-55_260595134347_rgbf000020-resize_0/001815_2014-06-26_20-52-55_260595134347_rgbf000020-resize_0-target.png,125,3.3865,6,2391,122,feet,jsons/VE125_randls_76_rotated.json,433459,616982,36,Man
43,861643,DepthScenes,duration_manipulation_targetAtFixation,jsons/VE125_randls_76_rotated.json,http://54.235.29.9/FacialAge/BNav_EC2/DepthDuration/v2_depth_duration_MTurk/v2_DepthDuration_HTML.html#72,72,1920,933,1920,1080,8-21-2022,9-35-9,44,depth_duration_stimuli/001808_2014-06-26_20-50-58_260595134347_rgbf000029-resize_1/001808_2014-06-26_20-50-58_260595134347_rgbf000029-resize_1-target.png,125,4.249,5,2072,125,feet,jsons/VE125_randls_76_rotated.json,433459,616982,36,Man
44,861643,DepthScenes,duration_manipulation_targetAtFixation,jsons/VE125_randls_76_rotated.json,http://54.235.29.9/FacialAge/BNav_EC2/DepthDuration/v2_depth_duration_MTurk/v2_DepthDuration_HTML.html#72,72,1920,933,1920,1080,8-21-2022,9-35-9,45,depth_duration_stimuli/000780_2014-06-08_22-28-29_260595134347_rgbf000126-resize_1/000780_2014-06-08_22-28-29_260595134347_rgbf000126-resize_1-target.png,125,3.3825,6,1704,125,feet,jsons/VE125_randls_76_rotated.json,433459,616982,36,Man
45,861643,DepthScenes,duration_manipulation_targetAtFixation,jsons/VE125_randls_76_rotated.json,http://54.235.29.9/FacialAge/BNav_EC2/DepthDuration/v2_depth_duration_MTurk/v2_DepthDuration_HTML.html#72,72,1920,933,1920,1080,8-21-2022,9-35-9,46,depth_duration_stimuli/002445_2014-06-28_20-32-16_260595134347_rgbf000029-resize_4/002445_2014-06-28_20-32-16_260595134347_rgbf000029-resize_4-target.png,125,2.5315,4,2889,121,feet,jsons/VE125_randls_76_rotated.json,433459,616982,36,Man
46,861643,DepthScenes,duration_manipulation_targetAtFixation,jsons/VE125_randls_76_rotated.json,http://54.235.29.9/FacialAge/BNav_EC2/DepthDuration/v2_depth_duration_MTurk/v2_DepthDuration_HTML.html#72,72,1920,933,1920,1080,8-21-2022,9-35-9,47,depth_duration_stimuli/001617_2014-06-20_11-35-32_260595134347_rgbf000066-resize_1/001617_2014-06-20_11-35-32_260595134347_rgbf000066-resize_1-target.png,125,3.7910000000000004,6,1732,123,feet,jsons/VE125_randls_76_rotated.json,433459,616982,36,Man
47,861643,DepthScenes,duration_manipulation_targetAtFixation,jsons/VE125_randls_76_rotated.json,http://54.235.29.9/FacialAge/BNav_EC2/DepthDuration/v2_depth_duration_MTurk/v2_DepthDuration_HTML.html#72,72,1920,933,1920,1080,8-21-2022,9-35-9,48,depth_duration_stimuli/001806_2014-06-26_20-50-20_260595134347_rgbf000091-resize_1/001806_2014-06-26_20-50-20_260595134347_rgbf000091-resize_1-target.png,125,2.7305,4,2440,124,feet,jsons/VE125_randls_76_rotated.json,433459,616982,36,Man
48,861643,DepthScenes,duration_manipulation_targetAtFixation,jsons/VE125_randls_76_rotated.json,http://54.235.29.9/FacialAge/BNav_EC2/DepthDuration/v2_depth_duration_MTurk/v2_DepthDuration_HTML.html#72,72,1920,933,1920,1080,8-21-2022,9-35-9,49,depth_duration_stimuli/001170_2014-06-17_15-43-44_260595134347_rgbf000096-resize_6/001170_2014-06-17_15-43-44_260595134347_rgbf000096-resize-original.jpg,125,1.1909999999999998,3,3630,124,feet,jsons/VE125_randls_76_rotated.json,433459,616982,36,Man
49,861643,DepthScenes,duration_manipulation_targetAtFixation,jsons/VE125_randls_76_rotated.json,http://54.235.29.9/FacialAge/BNav_EC2/DepthDuration/v2_depth_duration_MTurk/v2_DepthDuration_HTML.html#72,72,1920,933,1920,1080,8-21-2022,9-35-9,50,depth_duration_stimuli/000927_2014-06-09_16-32-30_260595134347_rgbf000123-resize_3/000927_2014-06-09_16-32-30_260595134347_rgbf000123-resize_3-target.png,125,2.6785,3,1596,125,feet,jsons/VE125_randls_76_rotated.json,433459,616982,36,Man
50,861643,DepthScenes,duration_manipulation_targetAtFixation,jsons/VE125_randls_76_rotated.json,http://54.235.29.9/FacialAge/BNav_EC2/DepthDuration/v2_depth_duration_MTurk/v2_DepthDuration_HTML.html#72,72,1920,933,1920,1080,8-21-2022,9-35-9,51,depth_duration_stimuli/001110_2014-06-15_17-25-28_260595134347_rgbf000150-resize_1/001110_2014-06-15_17-25-28_260595134347_rgbf000150-resize_1-target.png,125,1.7115,4,1707,125,feet,jsons/VE125_randls_76_rotated.json,433459,616982,36,Man
51,861643,DepthScenes,duration_manipulation_targetAtFixation,jsons/VE125_randls_76_rotated.json,http://54.235.29.9/FacialAge/BNav_EC2/DepthDuration/v2_depth_duration_MTurk/v2_DepthDuration_HTML.html#72,72,1920,933,1920,1080,8-21-2022,9-35-9,52,depth_duration_stimuli/002758_2014-06-22_19-11-20_094959634447_rgbf000128-resize_1/002758_2014-06-22_19-11-20_094959634447_rgbf000128-resize_1-target.png,125,2.555,5,1547,125,feet,jsons/VE125_randls_76_rotated.json,433459,616982,36,Man
52,861643,DepthScenes,duration_manipulation_targetAtFixation,jsons/VE125_randls_76_rotated.json,http://54.235.29.9/FacialAge/BNav_EC2/DepthDuration/v2_depth_duration_MTurk/v2_DepthDuration_HTML.html#72,72,1920,933,1920,1080,8-21-2022,9-35-9,53,depth_duration_stimuli/002630_2014-06-24_14-47-50_094959634447_rgbf000055-resize_1/002630_2014-06-24_14-47-50_094959634447_rgbf000055-resize_1-target.png,125,3.0095,1,1826,128,feet,jsons/VE125_randls_76_rotated.json,433459,616982,36,Man
53,861643,DepthScenes,duration_manipulation_targetAtFixation,jsons/VE125_randls_76_rotated.json,http://54.235.29.9/FacialAge/BNav_EC2/DepthDuration/v2_depth_duration_MTurk/v2_DepthDuration_HTML.html#72,72,1920,933,1920,1080,8-21-2022,9-35-9,54,depth_duration_stimuli/002875_2014-06-01_15-19-00_094959634447_rgbf000151-resize_1/002875_2014-06-01_15-19-00_094959634447_rgbf000151-resize_1-target.png,125,1.9675,6,2551,137,feet,jsons/VE125_randls_76_rotated.json,433459,616982,36,Man
54,861643,DepthScenes,duration_manipulation_targetAtFixation,jsons/VE125_randls_76_rotated.json,http://54.235.29.9/FacialAge/BNav_EC2/DepthDuration/v2_depth_duration_MTurk/v2_DepthDuration_HTML.html#72,72,1920,933,1920,1080,8-21-2022,9-35-9,55,depth_duration_stimuli/001011_2014-06-08_23-18-54_260595134347_rgbf000044-resize_4/001011_2014-06-08_23-18-54_260595134347_rgbf000044-resize_4-target.png,125,2.4730000000000003,4,3699,122,feet,jsons/VE125_randls_76_rotated.json,433459,616982,36,Man
55,861643,DepthScenes,duration_manipulation_targetAtFixation,jsons/VE125_randls_76_rotated.json,http://54.235.29.9/FacialAge/BNav_EC2/DepthDuration/v2_depth_duration_MTurk/v2_DepthDuration_HTML.html#72,72,1920,933,1920,1080,8-21-2022,9-35-9,56,depth_duration_stimuli/000691_2014-06-08_13-08-50_260595134347_rgbf000132-resize_3/000691_2014-06-08_13-08-50_260595134347_rgbf000132-resize_3-target.png,125,4.1530000000000005,1,1782,123,feet,jsons/VE125_randls_76_rotated.json,433459,616982,36,Man
56,861643,DepthScenes,duration_manipulation_targetAtFixation,jsons/VE125_randls_76_rotated.json,http://54.235.29.9/FacialAge/BNav_EC2/DepthDuration/v2_depth_duration_MTurk/v2_DepthDuration_HTML.html#72,72,1920,933,1920,1080,8-21-2022,9-35-9,57,depth_duration_stimuli/002213_2014-06-28_18-37-58_260595134347_rgbf000055-resize_1/002213_2014-06-28_18-37-58_260595134347_rgbf000055-resize_1-target.png,125,3.62,2,3018,123,feet,jsons/VE125_randls_76_rotated.json,433459,616982,36,Man
57,861643,DepthScenes,duration_manipulation_targetAtFixation,jsons/VE125_randls_76_rotated.json,http://54.235.29.9/FacialAge/BNav_EC2/DepthDuration/v2_depth_duration_MTurk/v2_DepthDuration_HTML.html#72,72,1920,933,1920,1080,8-21-2022,9-35-9,58,depth_duration_stimuli/002805_2014-06-22_19-54-03_094959634447_rgbf000079-resize_1/002805_2014-06-22_19-54-03_094959634447_rgbf000079-resize_1-target.png,125,3.1439999999999997,3,1884,131,feet,jsons/VE125_randls_76_rotated.json,433459,616982,36,Man
58,861643,DepthScenes,duration_manipulation_targetAtFixation,jsons/VE125_randls_76_rotated.json,http://54.235.29.9/FacialAge/BNav_EC2/DepthDuration/v2_depth_duration_MTurk/v2_DepthDuration_HTML.html#72,72,1920,933,1920,1080,8-21-2022,9-35-9,59,depth_duration_stimuli/000906_2014-06-08_13-35-43_260595134347_rgbf000155-resize_1/000906_2014-06-08_13-35-43_260595134347_rgbf000155-resize_1-target.png,125,2.8489999999999998,4,1579,111,feet,jsons/VE125_randls_76_rotated.json,433459,616982,36,Man
59,861643,DepthScenes,duration_manipulation_targetAtFixation,jsons/VE125_randls_76_rotated.json,http://54.235.29.9/FacialAge/BNav_EC2/DepthDuration/v2_depth_duration_MTurk/v2_DepthDuration_HTML.html#72,72,1920,933,1920,1080,8-21-2022,9-35-9,60,depth_duration_stimuli/001032_2014-06-08_13-23-17_260595134347_rgbf000021-resize_3/001032_2014-06-08_13-23-17_260595134347_rgbf000021-resize_3-target.png,125,3.2725,2,1649,124,feet,jsons/VE125_randls_76_rotated.json,433459,616982,36,Man
60,861643,DepthScenes,duration_manipulation_targetAtFixation,jsons/VE125_randls_76_rotated.json,http://54.235.29.9/FacialAge/BNav_EC2/DepthDuration/v2_depth_duration_MTurk/v2_DepthDuration_HTML.html#72,72,1920,933,1920,1080,8-21-2022,9-35-9,61,depth_duration_stimuli/001059_2014-06-08_21-53-27_260595134347_rgbf000061-resize_4/001059_2014-06-08_21-53-27_260595134347_rgbf000061-resize_4-target.png,125,2.4185,3,1563,125,feet,jsons/VE125_randls_76_rotated.json,433459,616982,36,Man
61,861643,DepthScenes,duration_manipulation_targetAtFixation,jsons/VE125_randls_76_rotated.json,http://54.235.29.9/FacialAge/BNav_EC2/DepthDuration/v2_depth_duration_MTurk/v2_DepthDuration_HTML.html#72,72,1920,933,1920,1080,8-21-2022,9-35-9,62,depth_duration_stimuli/002639_2014-06-24_14-51-37_094959634447_rgbf000074-resize_4/002639_2014-06-24_14-51-37_094959634447_rgbf000074-resize_4-target.png,125,4.0375,3,1558,129,feet,jsons/VE125_randls_76_rotated.json,433459,616982,36,Man
62,861643,DepthScenes,duration_manipulation_targetAtFixation,jsons/VE125_randls_76_rotated.json,http://54.235.29.9/FacialAge/BNav_EC2/DepthDuration/v2_depth_duration_MTurk/v2_DepthDuration_HTML.html#72,72,1920,933,1920,1080,8-21-2022,9-35-9,63,depth_duration_stimuli/003292_2014-05-14_21-53-49_094959634447_rgbf000100-resize_2/003292_2014-05-14_21-53-49_094959634447_rgbf000100-resize_2-target.png,125,3.4815,4,3243,116,feet,jsons/VE125_randls_76_rotated.json,433459,616982,36,Man
63,861643,DepthScenes,duration_manipulation_targetAtFixation,jsons/VE125_randls_76_rotated.json,http://54.235.29.9/FacialAge/BNav_EC2/DepthDuration/v2_depth_duration_MTurk/v2_DepthDuration_HTML.html#72,72,1920,933,1920,1080,8-21-2022,9-35-9,64,depth_duration_stimuli/000103_2014-05-14_22-01-17_260595134347_rgbf000152-resize_5/000103_2014-05-14_22-01-17_260595134347_rgbf000152-resize_5-target.png,125,1.993,3,1944,121,feet,jsons/VE125_randls_76_rotated.json,433459,616982,36,Man
64,861643,DepthScenes,duration_manipulation_targetAtFixation,jsons/VE125_randls_76_rotated.json,http://54.235.29.9/FacialAge/BNav_EC2/DepthDuration/v2_depth_duration_MTurk/v2_DepthDuration_HTML.html#72,72,1920,933,1920,1080,8-21-2022,9-35-9,65,depth_duration_stimuli/001555_2014-06-20_17-12-10_260595134347_rgbf000065-resize_4/001555_2014-06-20_17-12-10_260595134347_rgbf000065-resize_4-target.png,125,1.633,5,1835,124,feet,jsons/VE125_randls_76_rotated.json,433459,616982,36,Man
65,861643,DepthScenes,duration_manipulation_targetAtFixation,jsons/VE125_randls_76_rotated.json,http://54.235.29.9/FacialAge/BNav_EC2/DepthDuration/v2_depth_duration_MTurk/v2_DepthDuration_HTML.html#72,72,1920,933,1920,1080,8-21-2022,9-35-9,66,depth_duration_stimuli/001540_2014-06-20_17-01-05_260595134347_rgbf000086-resize_2/001540_2014-06-20_17-01-05_260595134347_rgbf000086-resize-original.jpg,125,1.459,0,2879,122,feet,jsons/VE125_randls_76_rotated.json,433459,616982,36,Man
66,861643,DepthScenes,duration_manipulation_targetAtFixation,jsons/VE125_randls_76_rotated.json,http://54.235.29.9/FacialAge/BNav_EC2/DepthDuration/v2_depth_duration_MTurk/v2_DepthDuration_HTML.html#72,72,1920,933,1920,1080,8-21-2022,9-35-9,67,depth_duration_stimuli/000709_2014-06-08_13-51-55_260595134347_rgbf000068-resize_3/000709_2014-06-08_13-51-55_260595134347_rgbf000068-resize_3-target.png,125,1.8030000000000002,6,4057,132,feet,jsons/VE125_randls_76_rotated.json,433459,616982,36,Man
67,861643,DepthScenes,duration_manipulation_targetAtFixation,jsons/VE125_randls_76_rotated.json,http://54.235.29.9/FacialAge/BNav_EC2/DepthDuration/v2_depth_duration_MTurk/v2_DepthDuration_HTML.html#72,72,1920,933,1920,1080,8-21-2022,9-35-9,68,depth_duration_stimuli/002057_2014-06-24_21-00-13_260595134347_rgbf000120-resize_1/002057_2014-06-24_21-00-13_260595134347_rgbf000120-resize_1-target.png,125,2.967,5,1898,123,feet,jsons/VE125_randls_76_rotated.json,433459,616982,36,Man
68,861643,DepthScenes,duration_manipulation_targetAtFixation,jsons/VE125_randls_76_rotated.json,http://54.235.29.9/FacialAge/BNav_EC2/DepthDuration/v2_depth_duration_MTurk/v2_DepthDuration_HTML.html#72,72,1920,933,1920,1080,8-21-2022,9-35-9,69,depth_duration_stimuli/001136_2014-06-17_15-19-41_260595134347_rgbf000076-resize_3/001136_2014-06-17_15-19-41_260595134347_rgbf000076-resize_3-target.png,125,1.8655,5,1853,134,feet,jsons/VE125_randls_76_rotated.json,433459,616982,36,Man
69,861643,DepthScenes,duration_manipulation_targetAtFixation,jsons/VE125_randls_76_rotated.json,http://54.235.29.9/FacialAge/BNav_EC2/DepthDuration/v2_depth_duration_MTurk/v2_DepthDuration_HTML.html#72,72,1920,933,1920,1080,8-21-2022,9-35-9,70,depth_duration_stimuli/001164_2014-06-17_15-35-46_260595134347_rgbf000085-resize_3/001164_2014-06-17_15-35-46_260595134347_rgbf000085-resize_3-target.png,125,2.354,4,1648,125,feet,jsons/VE125_randls_76_rotated.json,433459,616982,36,Man
70,861643,DepthScenes,duration_manipulation_targetAtFixation,jsons/VE125_randls_76_rotated.json,http://54.235.29.9/FacialAge/BNav_EC2/DepthDuration/v2_depth_duration_MTurk/v2_DepthDuration_HTML.html#72,72,1920,933,1920,1080,8-21-2022,9-35-9,71,depth_duration_stimuli/002637_2014-06-24_14-51-13_094959634447_rgbf000066-resize_4/002637_2014-06-24_14-51-13_094959634447_rgbf000066-resize_4-target.png,125,1.9955,3,2138,134,feet,jsons/VE125_randls_76_rotated.json,433459,616982,36,Man
71,861643,DepthScenes,duration_manipulation_targetAtFixation,jsons/VE125_randls_76_rotated.json,http://54.235.29.9/FacialAge/BNav_EC2/DepthDuration/v2_depth_duration_MTurk/v2_DepthDuration_HTML.html#72,72,1920,933,1920,1080,8-21-2022,9-35-9,72,depth_duration_stimuli/003534_2014-05-22_15-06-10_094959634447_rgbf000102-resize_4/003534_2014-05-22_15-06-10_094959634447_rgbf000102-resize_4-target.png,125,1.426,6,2066,124,feet,jsons/VE125_randls_76_rotated.json,433459,616982,36,Man
72,861643,DepthScenes,duration_manipulation_targetAtFixation,jsons/VE125_randls_76_rotated.json,http://54.235.29.9/FacialAge/BNav_EC2/DepthDuration/v2_depth_duration_MTurk/v2_DepthDuration_HTML.html#72,72,1920,933,1920,1080,8-21-2022,9-35-9,73,depth_duration_stimuli/002136_2014-06-25_21-18-03_260595134347_rgbf000109-resize_3/002136_2014-06-25_21-18-03_260595134347_rgbf000109-resize_3-target.png,125,1.9569999999999999,5,2690,124,feet,jsons/VE125_randls_76_rotated.json,433459,616982,36,Man
73,861643,DepthScenes,duration_manipulation_targetAtFixation,jsons/VE125_randls_76_rotated.json,http://54.235.29.9/FacialAge/BNav_EC2/DepthDuration/v2_depth_duration_MTurk/v2_DepthDuration_HTML.html#72,72,1920,933,1920,1080,8-21-2022,9-35-9,74,depth_duration_stimuli/002964_2014-06-08_17-46-11_094959634447_rgbf000091-resize_4/002964_2014-06-08_17-46-11_094959634447_rgbf000091-resize_4-target.png,125,1.6909999999999998,6,1905,126,feet,jsons/VE125_randls_76_rotated.json,433459,616982,36,Man
74,861643,DepthScenes,duration_manipulation_targetAtFixation,jsons/VE125_randls_76_rotated.json,http://54.235.29.9/FacialAge/BNav_EC2/DepthDuration/v2_depth_duration_MTurk/v2_DepthDuration_HTML.html#72,72,1920,933,1920,1080,8-21-2022,9-35-9,75,depth_duration_stimuli/000854_2014-06-09_19-43-13_260595134347_rgbf000066-resize_0/000854_2014-06-09_19-43-13_260595134347_rgbf000066-resize_0-target.png,125,3.068,5,1635,131,feet,jsons/VE125_randls_76_rotated.json,433459,616982,36,Man
75,861643,DepthScenes,duration_manipulation_targetAtFixation,jsons/VE125_randls_76_rotated.json,http://54.235.29.9/FacialAge/BNav_EC2/DepthDuration/v2_depth_duration_MTurk/v2_DepthDuration_HTML.html#72,72,1920,933,1920,1080,8-21-2022,9-35-9,76,depth_duration_stimuli/000758_2014-06-08_22-05-08_260595134347_rgbf000085-resize_0/000758_2014-06-08_22-05-08_260595134347_rgbf000085-resize_0-target.png,125,3.3810000000000002,4,3015,122,feet,jsons/VE125_randls_76_rotated.json,433459,616982,36,Man
76,861643,DepthScenes,duration_manipulation_targetAtFixation,jsons/VE125_randls_76_rotated.json,http://54.235.29.9/FacialAge/BNav_EC2/DepthDuration/v2_depth_duration_MTurk/v2_DepthDuration_HTML.html#72,72,1920,933,1920,1080,8-21-2022,9-35-9,77,depth_duration_stimuli/003081_2014-06-15_15-19-16_094959634447_rgbf000150-resize_1/003081_2014-06-15_15-19-16_094959634447_rgbf000150-resize_1-target.png,125,3.9125,3,1705,124,feet,jsons/VE125_randls_76_rotated.json,433459,616982,36,Man
77,861643,DepthScenes,duration_manipulation_targetAtFixation,jsons/VE125_randls_76_rotated.json,http://54.235.29.9/FacialAge/BNav_EC2/DepthDuration/v2_depth_duration_MTurk/v2_DepthDuration_HTML.html#72,72,1920,933,1920,1080,8-21-2022,9-35-9,78,depth_duration_stimuli/001417_2014-06-19_16-25-36_260595134347_rgbf000115-resize_5/001417_2014-06-19_16-25-36_260595134347_rgbf000115-resize_5-target.png,125,4.6255,4,1810,131,feet,jsons/VE125_randls_76_rotated.json,433459,616982,36,Man
78,861643,DepthScenes,duration_manipulation_targetAtFixation,jsons/VE125_randls_76_rotated.json,http://54.235.29.9/FacialAge/BNav_EC2/DepthDuration/v2_depth_duration_MTurk/v2_DepthDuration_HTML.html#72,72,1920,933,1920,1080,8-21-2022,9-35-9,79,depth_duration_stimuli/001094_2014-06-15_17-36-00_260595134347_rgbf000205-resize_0/001094_2014-06-15_17-36-00_260595134347_rgbf000205-resize_0-target.png,125,4.2175,5,1654,123,feet,jsons/VE125_randls_76_rotated.json,433459,616982,36,Man
79,861643,DepthScenes,duration_manipulation_targetAtFixation,jsons/VE125_randls_76_rotated.json,http://54.235.29.9/FacialAge/BNav_EC2/DepthDuration/v2_depth_duration_MTurk/v2_DepthDuration_HTML.html#72,72,1920,933,1920,1080,8-21-2022,9-35-9,80,depth_duration_stimuli/000692_2014-06-08_13-09-42_260595134347_rgbf000199-resize_2/000692_2014-06-08_13-09-42_260595134347_rgbf000199-resize_2-target.png,125,3.661,4,1682,123,feet,jsons/VE125_randls_76_rotated.json,433459,616982,36,Man
80,861643,DepthScenes,duration_manipulation_targetAtFixation,jsons/VE125_randls_76_rotated.json,http://54.235.29.9/FacialAge/BNav_EC2/DepthDuration/v2_depth_duration_MTurk/v2_DepthDuration_HTML.html#72,72,1920,933,1920,1080,8-21-2022,9-35-9,81,depth_duration_stimuli/001516_2014-06-20_16-25-09_260595134347_rgbf000076-resize_2/001516_2014-06-20_16-25-09_260595134347_rgbf000076-resize_2-target.png,125,1.7445,3,1697,126,feet,jsons/VE125_randls_76_rotated.json,433459,616982,36,Man
81,861643,DepthScenes,duration_manipulation_targetAtFixation,jsons/VE125_randls_76_rotated.json,http://54.235.29.9/FacialAge/BNav_EC2/DepthDuration/v2_depth_duration_MTurk/v2_DepthDuration_HTML.html#72,72,1920,933,1920,1080,8-21-2022,9-35-9,82,depth_duration_stimuli/002118_2014-06-25_20-32-08_260595134347_rgbf000078-resize_1/002118_2014-06-25_20-32-08_260595134347_rgbf000078-resize_1-target.png,125,2.6460000000000004,2,1658,125,feet,jsons/VE125_randls_76_rotated.json,433459,616982,36,Man
82,861643,DepthScenes,duration_manipulation_targetAtFixation,jsons/VE125_randls_76_rotated.json,http://54.235.29.9/FacialAge/BNav_EC2/DepthDuration/v2_depth_duration_MTurk/v2_DepthDuration_HTML.html#72,72,1920,933,1920,1080,8-21-2022,9-35-9,83,depth_duration_stimuli/001392_2014-06-19_16-07-59_260595134347_rgbf000046-resize_1/001392_2014-06-19_16-07-59_260595134347_rgbf000046-resize_1-target.png,125,4.135,6,1923,132,feet,jsons/VE125_randls_76_rotated.json,433459,616982,36,Man
83,861643,DepthScenes,duration_manipulation_targetAtFixation,jsons/VE125_randls_76_rotated.json,http://54.235.29.9/FacialAge/BNav_EC2/DepthDuration/v2_depth_duration_MTurk/v2_DepthDuration_HTML.html#72,72,1920,933,1920,1080,8-21-2022,9-35-9,84,depth_duration_stimuli/001570_2014-06-20_17-21-09_260595134347_rgbf000135-resize_4/001570_2014-06-20_17-21-09_260595134347_rgbf000135-resize_4-target.png,125,4.467,6,2067,122,feet,jsons/VE125_randls_76_rotated.json,433459,616982,36,Man
84,861643,DepthScenes,duration_manipulation_targetAtFixation,jsons/VE125_randls_76_rotated.json,http://54.235.29.9/FacialAge/BNav_EC2/DepthDuration/v2_depth_duration_MTurk/v2_DepthDuration_HTML.html#72,72,1920,933,1920,1080,8-21-2022,9-35-9,85,depth_duration_stimuli/001828_2014-06-26_21-40-03_260595134347_rgbf000024-resize_0/001828_2014-06-26_21-40-03_260595134347_rgbf000024-resize_0-target.png,125,4.8260000000000005,4,1782,140,feet,jsons/VE125_randls_76_rotated.json,433459,616982,36,Man
85,861643,DepthScenes,duration_manipulation_targetAtFixation,jsons/VE125_randls_76_rotated.json,http://54.235.29.9/FacialAge/BNav_EC2/DepthDuration/v2_depth_duration_MTurk/v2_DepthDuration_HTML.html#72,72,1920,933,1920,1080,8-21-2022,9-35-9,86,depth_duration_stimuli/000009_2014-05-26_14-32-05_260595134347_rgbf000034-resize_3/000009_2014-05-26_14-32-05_260595134347_rgbf000034-resize_3-target.png,125,3.8715,5,1736,120,feet,jsons/VE125_randls_76_rotated.json,433459,616982,36,Man
86,861643,DepthScenes,duration_manipulation_targetAtFixation,jsons/VE125_randls_76_rotated.json,http://54.235.29.9/FacialAge/BNav_EC2/DepthDuration/v2_depth_duration_MTurk/v2_DepthDuration_HTML.html#72,72,1920,933,1920,1080,8-21-2022,9-35-9,87,depth_duration_stimuli/002340_2014-06-28_20-05-46_260595134347_rgbf000113-resize_0/002340_2014-06-28_20-05-46_260595134347_rgbf000113-resize_0-target.png,125,2.4735,6,1758,125,feet,jsons/VE125_randls_76_rotated.json,433459,616982,36,Man
87,861643,DepthScenes,duration_manipulation_targetAtFixation,jsons/VE125_randls_76_rotated.json,http://54.235.29.9/FacialAge/BNav_EC2/DepthDuration/v2_depth_duration_MTurk/v2_DepthDuration_HTML.html#72,72,1920,933,1920,1080,8-21-2022,9-35-9,88,depth_duration_stimuli/001016_2014-06-09_16-16-10_260595134347_rgbf000112-resize_5/001016_2014-06-09_16-16-10_260595134347_rgbf000112-resize_5-target.png,125,1.6565,6,2120,126,feet,jsons/VE125_randls_76_rotated.json,433459,616982,36,Man
88,861643,DepthScenes,duration_manipulation_targetAtFixation,jsons/VE125_randls_76_rotated.json,http://54.235.29.9/FacialAge/BNav_EC2/DepthDuration/v2_depth_duration_MTurk/v2_DepthDuration_HTML.html#72,72,1920,933,1920,1080,8-21-2022,9-35-9,89,depth_duration_stimuli/002660_2014-06-13_15-44-18_094959634447_rgbf001878-resize_2/002660_2014-06-13_15-44-18_094959634447_rgbf001878-resize_2-target.png,125,3.576,3,2133,111,feet,jsons/VE125_randls_76_rotated.json,433459,616982,36,Man
89,861643,DepthScenes,duration_manipulation_targetAtFixation,jsons/VE125_randls_76_rotated.json,http://54.235.29.9/FacialAge/BNav_EC2/DepthDuration/v2_depth_duration_MTurk/v2_DepthDuration_HTML.html#72,72,1920,933,1920,1080,8-21-2022,9-35-9,90,depth_duration_stimuli/002153_2014-06-25_21-27-18_260595134347_rgbf000038-resize_5/002153_2014-06-25_21-27-18_260595134347_rgbf000038-resize_5-target.png,125,2.505,2,1863,127,feet,jsons/VE125_randls_76_rotated.json,433459,616982,36,Man
90,861643,DepthScenes,duration_manipulation_targetAtFixation,jsons/VE125_randls_76_rotated.json,http://54.235.29.9/FacialAge/BNav_EC2/DepthDuration/v2_depth_duration_MTurk/v2_DepthDuration_HTML.html#72,72,1920,933,1920,1080,8-21-2022,9-35-9,91,depth_duration_stimuli/000409_2014-06-04_19-23-33_260595134347_rgbf000067-resize_0/000409_2014-06-04_19-23-33_260595134347_rgbf000067-resize_0-target.png,125,3.7335,0,3271,126,feet,jsons/VE125_randls_76_rotated.json,433459,616982,36,Man
91,861643,DepthScenes,duration_manipulation_targetAtFixation,jsons/VE125_randls_76_rotated.json,http://54.235.29.9/FacialAge/BNav_EC2/DepthDuration/v2_depth_duration_MTurk/v2_DepthDuration_HTML.html#72,72,1920,933,1920,1080,8-21-2022,9-35-9,92,depth_duration_stimuli/002663_2014-06-13_15-50-26_094959634447_rgbf000075-resize_1/002663_2014-06-13_15-50-26_094959634447_rgbf000075-resize_1-target.png,125,4.7495,5,1900,125,feet,jsons/VE125_randls_76_rotated.json,433459,616982,36,Man
92,861643,DepthScenes,duration_manipulation_targetAtFixation,jsons/VE125_randls_76_rotated.json,http://54.235.29.9/FacialAge/BNav_EC2/DepthDuration/v2_depth_duration_MTurk/v2_DepthDuration_HTML.html#72,72,1920,933,1920,1080,8-21-2022,9-35-9,93,depth_duration_stimuli/002657_2014-06-13_15-29-54_094959634447_rgbf000150-resize_1/002657_2014-06-13_15-29-54_094959634447_rgbf000150-resize_1-target.png,125,4.919,6,1705,124,feet,jsons/VE125_randls_76_rotated.json,433459,616982,36,Man
93,861643,DepthScenes,duration_manipulation_targetAtFixation,jsons/VE125_randls_76_rotated.json,http://54.235.29.9/FacialAge/BNav_EC2/DepthDuration/v2_depth_duration_MTurk/v2_DepthDuration_HTML.html#72,72,1920,933,1920,1080,8-21-2022,9-35-9,94,depth_duration_stimuli/002375_2014-06-28_20-13-44_260595134347_rgbf000032-resize_1/002375_2014-06-28_20-13-44_260595134347_rgbf000032-resize_1-target.png,125,4.0175,3,1809,124,feet,jsons/VE125_randls_76_rotated.json,433459,616982,36,Man
94,861643,DepthScenes,duration_manipulation_targetAtFixation,jsons/VE125_randls_76_rotated.json,http://54.235.29.9/FacialAge/BNav_EC2/DepthDuration/v2_depth_duration_MTurk/v2_DepthDuration_HTML.html#72,72,1920,933,1920,1080,8-21-2022,9-35-9,95,depth_duration_stimuli/002103_2014-06-25_20-00-40_260595134347_rgbf000049-resize_0/002103_2014-06-25_20-00-40_260595134347_rgbf000049-resize_0-target.png,125,4.105,4,1583,125,feet,jsons/VE125_randls_76_rotated.json,433459,616982,36,Man
95,861643,DepthScenes,duration_manipulation_targetAtFixation,jsons/VE125_randls_76_rotated.json,http://54.235.29.9/FacialAge/BNav_EC2/DepthDuration/v2_depth_duration_MTurk/v2_DepthDuration_HTML.html#72,72,1920,933,1920,1080,8-21-2022,9-35-9,96,depth_duration_stimuli/002039_2014-06-24_20-22-38_260595134347_rgbf000084-resize_1/002039_2014-06-24_20-22-38_260595134347_rgbf000084-resize_1-target.png,125,4.408,6,1835,130,feet,jsons/VE125_randls_76_rotated.json,433459,616982,36,Man
96,861643,DepthScenes,duration_manipulation_targetAtFixation,jsons/VE125_randls_76_rotated.json,http://54.235.29.9/FacialAge/BNav_EC2/DepthDuration/v2_depth_duration_MTurk/v2_DepthDuration_HTML.html#72,72,1920,933,1920,1080,8-21-2022,9-35-9,97,depth_duration_stimuli/001214_2014-06-17_16-13-55_260595134347_rgbf000111-resize_0/001214_2014-06-17_16-13-55_260595134347_rgbf000111-resize_0-target.png,125,2.6505,3,1725,125,feet,jsons/VE125_randls_76_rotated.json,433459,616982,36,Man
97,861643,DepthScenes,duration_manipulation_targetAtFixation,jsons/VE125_randls_76_rotated.json,http://54.235.29.9/FacialAge/BNav_EC2/DepthDuration/v2_depth_duration_MTurk/v2_DepthDuration_HTML.html#72,72,1920,933,1920,1080,8-21-2022,9-35-9,98,depth_duration_stimuli/000810_2014-06-08_17-20-01_260595134347_rgbf000105-resize_0/000810_2014-06-08_17-20-01_260595134347_rgbf000105-resize_0-target.png,125,1.4865,2,1705,139,feet,jsons/VE125_randls_76_rotated.json,433459,616982,36,Man
98,861643,DepthScenes,duration_manipulation_targetAtFixation,jsons/VE125_randls_76_rotated.json,http://54.235.29.9/FacialAge/BNav_EC2/DepthDuration/v2_depth_duration_MTurk/v2_DepthDuration_HTML.html#72,72,1920,933,1920,1080,8-21-2022,9-35-9,99,depth_duration_stimuli/001222_2014-06-17_16-24-06_260595134347_rgbf000073-resize_0/001222_2014-06-17_16-24-06_260595134347_rgbf000073-resize-original.jpg,125,1.4385,0,2466,121,feet,jsons/VE125_randls_76_rotated.json,433459,616982,36,Man
99,861643,DepthScenes,duration_manipulation_targetAtFixation,jsons/VE125_randls_76_rotated.json,http://54.235.29.9/FacialAge/BNav_EC2/DepthDuration/v2_depth_duration_MTurk/v2_DepthDuration_HTML.html#72,72,1920,933,1920,1080,8-21-2022,9-35-9,100,depth_duration_stimuli/000549_2014-06-08_22-10-24_260595134347_rgbf000247-resize_3/000549_2014-06-08_22-10-24_260595134347_rgbf000247-resize_3-target.png,125,1.841,4,1760,125,feet,jsons/VE125_randls_76_rotated.json,433459,616982,36,Man
100,861643,DepthScenes,duration_manipulation_targetAtFixation,jsons/VE125_randls_76_rotated.json,http://54.235.29.9/FacialAge/BNav_EC2/DepthDuration/v2_depth_duration_MTurk/v2_DepthDuration_HTML.html#72,72,1920,933,1920,1080,8-21-2022,9-35-9,101,depth_duration_stimuli/001055_2014-06-08_18-45-35_260595134347_rgbf000111-resize_4/001055_2014-06-08_18-45-35_260595134347_rgbf000111-resize_4-target.png,125,2.4290000000000003,6,1703,125,feet,jsons/VE125_randls_76_rotated.json,433459,616982,36,Man
101,861643,DepthScenes,duration_manipulation_targetAtFixation,jsons/VE125_randls_76_rotated.json,http://54.235.29.9/FacialAge/BNav_EC2/DepthDuration/v2_depth_duration_MTurk/v2_DepthDuration_HTML.html#72,72,1920,933,1920,1080,8-21-2022,9-35-9,102,depth_duration_stimuli/001584_2014-06-20_11-07-43_260595134347_rgbf000002-resize_1/001584_2014-06-20_11-07-43_260595134347_rgbf000002-resize_1-target.png,125,3.53,4,1685,139,feet,jsons/VE125_randls_76_rotated.json,433459,616982,36,Man
102,861643,DepthScenes,duration_manipulation_targetAtFixation,jsons/VE125_randls_76_rotated.json,http://54.235.29.9/FacialAge/BNav_EC2/DepthDuration/v2_depth_duration_MTurk/v2_DepthDuration_HTML.html#72,72,1920,933,1920,1080,8-21-2022,9-35-9,103,depth_duration_stimuli/003621_2014-05-23_18-06-08_094959634447_rgbf000101-resize_1/003621_2014-05-23_18-06-08_094959634447_rgbf000101-resize_1-target.png,125,3.9835,5,1692,126,feet,jsons/VE125_randls_76_rotated.json,433459,616982,36,Man
103,861643,DepthScenes,duration_manipulation_targetAtFixation,jsons/VE125_randls_76_rotated.json,http://54.235.29.9/FacialAge/BNav_EC2/DepthDuration/v2_depth_duration_MTurk/v2_DepthDuration_HTML.html#72,72,1920,933,1920,1080,8-21-2022,9-35-9,104,depth_duration_stimuli/002444_2014-06-28_20-32-08_260595134347_rgbf000027-resize_0/002444_2014-06-28_20-32-08_260595134347_rgbf000027-resize_0-target.png,125,4.388999999999999,4,3537,122,feet,jsons/VE125_randls_76_rotated.json,433459,616982,36,Man
104,861643,DepthScenes,duration_manipulation_targetAtFixation,jsons/VE125_randls_76_rotated.json,http://54.235.29.9/FacialAge/BNav_EC2/DepthDuration/v2_depth_duration_MTurk/v2_DepthDuration_HTML.html#72,72,1920,933,1920,1080,8-21-2022,9-35-9,105,depth_duration_stimuli/000436_2014-06-09_22-25-11_260595134347_rgbf000137-resize_1/000436_2014-06-09_22-25-11_260595134347_rgbf000137-resize_1-target.png,125,4.0705,5,3833,119,feet,jsons/VE125_randls_76_rotated.json,433459,616982,36,Man
105,861643,DepthScenes,duration_manipulation_targetAtFixation,jsons/VE125_randls_76_rotated.json,http://54.235.29.9/FacialAge/BNav_EC2/DepthDuration/v2_depth_duration_MTurk/v2_DepthDuration_HTML.html#72,72,1920,933,1920,1080,8-21-2022,9-35-9,106,depth_duration_stimuli/003338_2014-05-20_11-01-23_094959634447_rgbf000051-resize_6/003338_2014-05-20_11-01-23_094959634447_rgbf000051-resize_6-target.png,125,1.693,3,1530,133,feet,jsons/VE125_randls_76_rotated.json,433459,616982,36,Man
106,861643,DepthScenes,duration_manipulation_targetAtFixation,jsons/VE125_randls_76_rotated.json,http://54.235.29.9/FacialAge/BNav_EC2/DepthDuration/v2_depth_duration_MTurk/v2_DepthDuration_HTML.html#72,72,1920,933,1920,1080,8-21-2022,9-35-9,107,depth_duration_stimuli/002509_2014-06-24_13-19-22_094959634447_rgbf000077-resize_0/002509_2014-06-24_13-19-22_094959634447_rgbf000077-resize_0-target.png,125,1.3065,1,3919,124,feet,jsons/VE125_randls_76_rotated.json,433459,616982,36,Man
107,861643,DepthScenes,duration_manipulation_targetAtFixation,jsons/VE125_randls_76_rotated.json,http://54.235.29.9/FacialAge/BNav_EC2/DepthDuration/v2_depth_duration_MTurk/v2_DepthDuration_HTML.html#72,72,1920,933,1920,1080,8-21-2022,9-35-9,108,depth_duration_stimuli/002949_2014-06-26_15-57-42_094959634447_rgbf000079-resize_1/002949_2014-06-26_15-57-42_094959634447_rgbf000079-resize_1-target.png,125,1.8915,2,2117,125,feet,jsons/VE125_randls_76_rotated.json,433459,616982,36,Man
108,861643,DepthScenes,duration_manipulation_targetAtFixation,jsons/VE125_randls_76_rotated.json,http://54.235.29.9/FacialAge/BNav_EC2/DepthDuration/v2_depth_duration_MTurk/v2_DepthDuration_HTML.html#72,72,1920,933,1920,1080,8-21-2022,9-35-9,109,depth_duration_stimuli/000522_2014-06-08_13-35-06_260595134347_rgbf000244-resize_1/000522_2014-06-08_13-35-06_260595134347_rgbf000244-resize_1-target.png,125,2.3715,2,1441,118,feet,jsons/VE125_randls_76_rotated.json,433459,616982,36,Man
109,861643,DepthScenes,duration_manipulation_targetAtFixation,jsons/VE125_randls_76_rotated.json,http://54.235.29.9/FacialAge/BNav_EC2/DepthDuration/v2_depth_duration_MTurk/v2_DepthDuration_HTML.html#72,72,1920,933,1920,1080,8-21-2022,9-35-9,110,depth_duration_stimuli/001052_2014-06-08_18-24-54_260595134347_rgbf000130-resize_1/001052_2014-06-08_18-24-54_260595134347_rgbf000130-resize_1-target.png,125,4.1045,5,2561,114,feet,jsons/VE125_randls_76_rotated.json,433459,616982,36,Man
110,861643,DepthScenes,duration_manipulation_targetAtFixation,jsons/VE125_randls_76_rotated.json,http://54.235.29.9/FacialAge/BNav_EC2/DepthDuration/v2_depth_duration_MTurk/v2_DepthDuration_HTML.html#72,72,1920,933,1920,1080,8-21-2022,9-35-9,111,depth_duration_stimuli/002988_2014-06-15_12-24-20_094959634447_rgbf000150-resize_1/002988_2014-06-15_12-24-20_094959634447_rgbf000150-resize_1-target.png,125,4.7669999999999995,5,1749,124,feet,jsons/VE125_randls_76_rotated.json,433459,616982,36,Man
111,861643,DepthScenes,duration_manipulation_targetAtFixation,jsons/VE125_randls_76_rotated.json,http://54.235.29.9/FacialAge/BNav_EC2/DepthDuration/v2_depth_duration_MTurk/v2_DepthDuration_HTML.html#72,72,1920,933,1920,1080,8-21-2022,9-35-9,112,depth_duration_stimuli/000109_2014-05-14_23-41-52_260595134347_rgbf000035-resize_9/000109_2014-05-14_23-41-52_260595134347_rgbf000035-resize_9-target.png,125,1.3545,6,2018,124,feet,jsons/VE125_randls_76_rotated.json,433459,616982,36,Man
112,861643,DepthScenes,duration_manipulation_targetAtFixation,jsons/VE125_randls_76_rotated.json,http://54.235.29.9/FacialAge/BNav_EC2/DepthDuration/v2_depth_duration_MTurk/v2_DepthDuration_HTML.html#72,72,1920,933,1920,1080,8-21-2022,9-35-9,113,depth_duration_stimuli/000470_2014-06-09_19-42-40_260595134347_rgbf000094-resize_1/000470_2014-06-09_19-42-40_260595134347_rgbf000094-resize_1-target.png,125,1.831,4,2783,128,feet,jsons/VE125_randls_76_rotated.json,433459,616982,36,Man
113,861643,DepthScenes,duration_manipulation_targetAtFixation,jsons/VE125_randls_76_rotated.json,http://54.235.29.9/FacialAge/BNav_EC2/DepthDuration/v2_depth_duration_MTurk/v2_DepthDuration_HTML.html#72,72,1920,933,1920,1080,8-21-2022,9-35-9,114,depth_duration_stimuli/002209_2014-06-28_18-36-10_260595134347_rgbf000051-resize_1/002209_2014-06-28_18-36-10_260595134347_rgbf000051-resize_1-target.png,125,2.057,3,1706,123,feet,jsons/VE125_randls_76_rotated.json,433459,616982,36,Man
114,861643,DepthScenes,duration_manipulation_targetAtFixation,jsons/VE125_randls_76_rotated.json,http://54.235.29.9/FacialAge/BNav_EC2/DepthDuration/v2_depth_duration_MTurk/v2_DepthDuration_HTML.html#72,72,1920,933,1920,1080,8-21-2022,9-35-9,115,depth_duration_stimuli/002763_2014-06-22_19-13-10_094959634447_rgbf000075-resize_4/002763_2014-06-22_19-13-10_094959634447_rgbf000075-resize_4-target.png,125,1.68375,2,1718,125,feet,jsons/VE125_randls_76_rotated.json,433459,616982,36,Man
115,861643,DepthScenes,duration_manipulation_targetAtFixation,jsons/VE125_randls_76_rotated.json,http://54.235.29.9/FacialAge/BNav_EC2/DepthDuration/v2_depth_duration_MTurk/v2_DepthDuration_HTML.html#72,72,1920,933,1920,1080,8-21-2022,9-35-9,116,depth_duration_stimuli/001650_2014-06-20_12-09-00_260595134347_rgbf000087-resize_3/001650_2014-06-20_12-09-00_260595134347_rgbf000087-resize_3-target.png,125,1.9505,6,1622,122,feet,jsons/VE125_randls_76_rotated.json,433459,616982,36,Man
116,861643,DepthScenes,duration_manipulation_targetAtFixation,jsons/VE125_randls_76_rotated.json,http://54.235.29.9/FacialAge/BNav_EC2/DepthDuration/v2_depth_duration_MTurk/v2_DepthDuration_HTML.html#72,72,1920,933,1920,1080,8-21-2022,9-35-9,117,depth_duration_stimuli/000682_2014-06-08_23-14-58_260595134347_rgbf000041-resize_5/000682_2014-06-08_23-14-58_260595134347_rgbf000041-resize_5-target.png,125,2.7239999999999998,5,1475,129,feet,jsons/VE125_randls_76_rotated.json,433459,616982,36,Man
117,861643,DepthScenes,duration_manipulation_targetAtFixation,jsons/VE125_randls_76_rotated.json,http://54.235.29.9/FacialAge/BNav_EC2/DepthDuration/v2_depth_duration_MTurk/v2_DepthDuration_HTML.html#72,72,1920,933,1920,1080,8-21-2022,9-35-9,118,depth_duration_stimuli/002425_2014-06-28_20-27-29_260595134347_rgbf000031-resize_8/002425_2014-06-28_20-27-29_260595134347_rgbf000031-resize_8-target.png,125,3.8960000000000004,5,1557,111,feet,jsons/VE125_randls_76_rotated.json,433459,616982,36,Man
118,861643,DepthScenes,duration_manipulation_targetAtFixation,jsons/VE125_randls_76_rotated.json,http://54.235.29.9/FacialAge/BNav_EC2/DepthDuration/v2_depth_duration_MTurk/v2_DepthDuration_HTML.html#72,72,1920,933,1920,1080,8-21-2022,9-35-9,119,depth_duration_stimuli/000642_2014-06-08_16-59-25_260595134347_rgbf000098-resize_2/000642_2014-06-08_16-59-25_260595134347_rgbf000098-resize_2-target.png,125,2.8815,4,1609,125,feet,jsons/VE125_randls_76_rotated.json,433459,616982,36,Man
119,861643,DepthScenes,duration_manipulation_targetAtFixation,jsons/VE125_randls_76_rotated.json,http://54.235.29.9/FacialAge/BNav_EC2/DepthDuration/v2_depth_duration_MTurk/v2_DepthDuration_HTML.html#72,72,1920,933,1920,1080,8-21-2022,9-35-9,120,depth_duration_stimuli/000787_2014-06-08_22-33-53_260595134347_rgbf000175-resize_1/000787_2014-06-08_22-33-53_260595134347_rgbf000175-resize-original.jpg,125,4.784,0,3656,123,feet,jsons/VE125_randls_76_rotated.json,433459,616982,36,Man
120,861643,DepthScenes,duration_manipulation_targetAtFixation,jsons/VE125_randls_76_rotated.json,http://54.235.29.9/FacialAge/BNav_EC2/DepthDuration/v2_depth_duration_MTurk/v2_DepthDuration_HTML.html#72,72,1920,933,1920,1080,8-21-2022,9-35-9,121,depth_duration_stimuli/002199_2014-06-28_18-33-56_260595134347_rgbf000074-resize_0/002199_2014-06-28_18-33-56_260595134347_rgbf000074-resize_0-target.png,125,1.996,5,1862,123,feet,jsons/VE125_randls_76_rotated.json,433459,616982,36,Man
121,861643,DepthScenes,duration_manipulation_targetAtFixation,jsons/VE125_randls_76_rotated.json,http://54.235.29.9/FacialAge/BNav_EC2/DepthDuration/v2_depth_duration_MTurk/v2_DepthDuration_HTML.html#72,72,1920,933,1920,1080,8-21-2022,9-35-9,122,depth_duration_stimuli/001056_2014-06-08_18-46-44_260595134347_rgbf000068-resize_0/001056_2014-06-08_18-46-44_260595134347_rgbf000068-resize_0-target.png,125,2.6625,2,2259,137,feet,jsons/VE125_randls_76_rotated.json,433459,616982,36,Man
122,861643,DepthScenes,duration_manipulation_targetAtFixation,jsons/VE125_randls_76_rotated.json,http://54.235.29.9/FacialAge/BNav_EC2/DepthDuration/v2_depth_duration_MTurk/v2_DepthDuration_HTML.html#72,72,1920,933,1920,1080,8-21-2022,9-35-9,123,depth_duration_stimuli/001571_2014-06-20_17-21-32_260595134347_rgbf000089-resize_1/001571_2014-06-20_17-21-32_260595134347_rgbf000089-resize_1-target.png,125,1.86,3,1832,124,feet,jsons/VE125_randls_76_rotated.json,433459,616982,36,Man
123,861643,DepthScenes,duration_manipulation_targetAtFixation,jsons/VE125_randls_76_rotated.json,http://54.235.29.9/FacialAge/BNav_EC2/DepthDuration/v2_depth_duration_MTurk/v2_DepthDuration_HTML.html#72,72,1920,933,1920,1080,8-21-2022,9-35-9,124,depth_duration_stimuli/002272_2014-06-28_18-53-56_260595134347_rgbf000067-resize_2/002272_2014-06-28_18-53-56_260595134347_rgbf000067-resize_2-target.png,125,1.138,4,1648,123,feet,jsons/VE125_randls_76_rotated.json,433459,616982,36,Man
124,861643,DepthScenes,duration_manipulation_targetAtFixation,jsons/VE125_randls_76_rotated.json,http://54.235.29.9/FacialAge/BNav_EC2/DepthDuration/v2_depth_duration_MTurk/v2_DepthDuration_HTML.html#72,72,1920,933,1920,1080,8-21-2022,9-35-9,125,depth_duration_stimuli/001447_2014-06-19_17-00-32_260595134347_rgbf000082-resize_5/001447_2014-06-19_17-00-32_260595134347_rgbf000082-resize_5-target.png,125,4.13775,5,1686,125,feet,jsons/VE125_randls_76_rotated.json,433459,616982,36,Man
125,861643,DepthScenes,duration_manipulation_targetAtFixation,jsons/VE125_randls_76_rotated.json,http://54.235.29.9/FacialAge/BNav_EC2/DepthDuration/v2_depth_duration_MTurk/v2_DepthDuration_HTML.html#72,72,1920,933,1920,1080,8-21-2022,9-35-9,126,depth_duration_stimuli/000447_2014-06-08_16-15-46_260595134347_rgbf000130-resize_1/000447_2014-06-08_16-15-46_260595134347_rgbf000130-resize_1-target.png,125,4.479,4,2342,124,feet,jsons/VE125_randls_76_rotated.json,433459,616982,36,Man
126,861643,DepthScenes,duration_manipulation_targetAtFixation,jsons/VE125_randls_76_rotated.json,http://54.235.29.9/FacialAge/BNav_EC2/DepthDuration/v2_depth_duration_MTurk/v2_DepthDuration_HTML.html#72,72,1920,933,1920,1080,8-21-2022,9-35-9,127,depth_duration_stimuli/002414_2014-06-28_20-24-58_260595134347_rgbf000067-resize_4/002414_2014-06-28_20-24-58_260595134347_rgbf000067-resize_4-target.png,125,4.363,3,1721,127,feet,jsons/VE125_randls_76_rotated.json,433459,616982,36,Man
127,861643,DepthScenes,duration_manipulation_targetAtFixation,jsons/VE125_randls_76_rotated.json,http://54.235.29.9/FacialAge/BNav_EC2/DepthDuration/v2_depth_duration_MTurk/v2_DepthDuration_HTML.html#72,72,1920,933,1920,1080,8-21-2022,9-35-9,128,depth_duration_stimuli/000773_2014-06-08_22-24-54_260595134347_rgbf000093-resize_1/000773_2014-06-08_22-24-54_260595134347_rgbf000093-resize_1-target.png,125,4.973,3,1694,129,feet,jsons/VE125_randls_76_rotated.json,433459,616982,36,Man
128,861643,DepthScenes,duration_manipulation_targetAtFixation,jsons/VE125_randls_76_rotated.json,http://54.235.29.9/FacialAge/BNav_EC2/DepthDuration/v2_depth_duration_MTurk/v2_DepthDuration_HTML.html#72,72,1920,933,1920,1080,8-21-2022,9-35-9,129,depth_duration_stimuli/003587_2014-05-23_16-48-02_094959634447_rgbf002384-resize_2/003587_2014-05-23_16-48-02_094959634447_rgbf002384-resize_2-target.png,125,1.357,5,2049,113,feet,jsons/VE125_randls_76_rotated.json,433459,616982,36,Man
129,861643,DepthScenes,duration_manipulation_targetAtFixation,jsons/VE125_randls_76_rotated.json,http://54.235.29.9/FacialAge/BNav_EC2/DepthDuration/v2_depth_duration_MTurk/v2_DepthDuration_HTML.html#72,72,1920,933,1920,1080,8-21-2022,9-35-9,130,depth_duration_stimuli/001167_2014-06-17_15-38-07_260595134347_rgbf000108-resize_0/001167_2014-06-17_15-38-07_260595134347_rgbf000108-resize_0-target.png,125,1.8505,5,2248,131,feet,jsons/VE125_randls_76_rotated.json,433459,616982,36,Man
130,861643,DepthScenes,duration_manipulation_targetAtFixation,jsons/VE125_randls_76_rotated.json,http://54.235.29.9/FacialAge/BNav_EC2/DepthDuration/v2_depth_duration_MTurk/v2_DepthDuration_HTML.html#72,72,1920,933,1920,1080,8-21-2022,9-35-9,131,depth_duration_stimuli/003083_2014-06-15_15-21-03_094959634447_rgbf000063-resize_1/003083_2014-06-15_15-21-03_094959634447_rgbf000063-resize_1-target.png,125,4.1405,4,2571,123,feet,jsons/VE125_randls_76_rotated.json,433459,616982,36,Man
131,861643,DepthScenes,duration_manipulation_targetAtFixation,jsons/VE125_randls_76_rotated.json,http://54.235.29.9/FacialAge/BNav_EC2/DepthDuration/v2_depth_duration_MTurk/v2_DepthDuration_HTML.html#72,72,1920,933,1920,1080,8-21-2022,9-35-9,132,depth_duration_stimuli/000486_2014-06-09_20-47-20_260595134347_rgbf000143-resize_2/000486_2014-06-09_20-47-20_260595134347_rgbf000143-resize_2-target.png,125,4.8325,5,1714,112,feet,jsons/VE125_randls_76_rotated.json,433459,616982,36,Man
132,861643,DepthScenes,duration_manipulation_targetAtFixation,jsons/VE125_randls_76_rotated.json,http://54.235.29.9/FacialAge/BNav_EC2/DepthDuration/v2_depth_duration_MTurk/v2_DepthDuration_HTML.html#72,72,1920,933,1920,1080,8-21-2022,9-35-9,133,depth_duration_stimuli/000502_2014-06-08_23-02-32_260595134347_rgbf000063-resize_4/000502_2014-06-08_23-02-32_260595134347_rgbf000063-resize_4-target.png,125,2.431,3,1996,131,feet,jsons/VE125_randls_76_rotated.json,433459,616982,36,Man
133,861643,DepthScenes,duration_manipulation_targetAtFixation,jsons/VE125_randls_76_rotated.json,http://54.235.29.9/FacialAge/BNav_EC2/DepthDuration/v2_depth_duration_MTurk/v2_DepthDuration_HTML.html#72,72,1920,933,1920,1080,8-21-2022,9-35-9,134,depth_duration_stimuli/001199_2014-06-17_16-03-48_260595134347_rgbf000077-resize_0/001199_2014-06-17_16-03-48_260595134347_rgbf000077-resize_0-target.png,125,3.4375,5,1739,131,feet,jsons/VE125_randls_76_rotated.json,433459,616982,36,Man
134,861643,DepthScenes,duration_manipulation_targetAtFixation,jsons/VE125_randls_76_rotated.json,http://54.235.29.9/FacialAge/BNav_EC2/DepthDuration/v2_depth_duration_MTurk/v2_DepthDuration_HTML.html#72,72,1920,933,1920,1080,8-21-2022,9-35-9,135,depth_duration_stimuli/000375_2014-06-08_11-17-29_260595134347_rgbf000133-resize_2/000375_2014-06-08_11-17-29_260595134347_rgbf000133-resize-original.jpg,125,4.718,0,2523,123,feet,jsons/VE125_randls_76_rotated.json,433459,616982,36,Man
135,861643,DepthScenes,duration_manipulation_targetAtFixation,jsons/VE125_randls_76_rotated.json,http://54.235.29.9/FacialAge/BNav_EC2/DepthDuration/v2_depth_duration_MTurk/v2_DepthDuration_HTML.html#72,72,1920,933,1920,1080,8-21-2022,9-35-9,136,depth_duration_stimuli/003228_2014-05-14_13-42-35_094959634447_rgbf000101-resize_1/003228_2014-05-14_13-42-35_094959634447_rgbf000101-resize_1-target.png,125,1.9680000000000002,4,1638,139,feet,jsons/VE125_randls_76_rotated.json,433459,616982,36,Man
136,861643,DepthScenes,duration_manipulation_targetAtFixation,jsons/VE125_randls_76_rotated.json,http://54.235.29.9/FacialAge/BNav_EC2/DepthDuration/v2_depth_duration_MTurk/v2_DepthDuration_HTML.html#72,72,1920,933,1920,1080,8-21-2022,9-35-9,137,depth_duration_stimuli/002600_2014-06-24_14-27-04_094959634447_rgbf000074-resize_2/002600_2014-06-24_14-27-04_094959634447_rgbf000074-resize_2-target.png,125,2.7575,3,1525,131,feet,jsons/VE125_randls_76_rotated.json,433459,616982,36,Man
137,861643,DepthScenes,duration_manipulation_targetAtFixation,jsons/VE125_randls_76_rotated.json,http://54.235.29.9/FacialAge/BNav_EC2/DepthDuration/v2_depth_duration_MTurk/v2_DepthDuration_HTML.html#72,72,1920,933,1920,1080,8-21-2022,9-35-9,138,depth_duration_stimuli/000457_2014-06-08_16-52-43_260595134347_rgbf000199-resize_1/000457_2014-06-08_16-52-43_260595134347_rgbf000199-resize_1-target.png,125,3.6489999999999996,3,2721,131,feet,jsons/VE125_randls_76_rotated.json,433459,616982,36,Man
138,861643,DepthScenes,duration_manipulation_targetAtFixation,jsons/VE125_randls_76_rotated.json,http://54.235.29.9/FacialAge/BNav_EC2/DepthDuration/v2_depth_duration_MTurk/v2_DepthDuration_HTML.html#72,72,1920,933,1920,1080,8-21-2022,9-35-9,139,depth_duration_stimuli/000929_2014-06-09_16-33-19_260595134347_rgbf000139-resize_0/000929_2014-06-09_16-33-19_260595134347_rgbf000139-resize_0-target.png,125,2.8680000000000003,4,8237,140,feet,jsons/VE125_randls_76_rotated.json,433459,616982,36,Man
139,861643,DepthScenes,duration_manipulation_targetAtFixation,jsons/VE125_randls_76_rotated.json,http://54.235.29.9/FacialAge/BNav_EC2/DepthDuration/v2_depth_duration_MTurk/v2_DepthDuration_HTML.html#72,72,1920,933,1920,1080,8-21-2022,9-35-9,140,depth_duration_stimuli/000943_2014-06-09_19-31-07_260595134347_rgbf000128-resize_1/000943_2014-06-09_19-31-07_260595134347_rgbf000128-resize_1-target.png,125,1.9765,2,1562,111,feet,jsons/VE125_randls_76_rotated.json,433459,616982,36,Man
140,861643,DepthScenes,duration_manipulation_targetAtFixation,jsons/VE125_randls_76_rotated.json,http://54.235.29.9/FacialAge/BNav_EC2/DepthDuration/v2_depth_duration_MTurk/v2_DepthDuration_HTML.html#72,72,1920,933,1920,1080,8-21-2022,9-35-9,141,depth_duration_stimuli/003070_2014-06-15_14-58-27_094959634447_rgbf000150-resize_3/003070_2014-06-15_14-58-27_094959634447_rgbf000150-resize_3-target.png,125,2.9415,3,1359,125,feet,jsons/VE125_randls_76_rotated.json,433459,616982,36,Man
141,861643,DepthScenes,duration_manipulation_targetAtFixation,jsons/VE125_randls_76_rotated.json,http://54.235.29.9/FacialAge/BNav_EC2/DepthDuration/v2_depth_duration_MTurk/v2_DepthDuration_HTML.html#72,72,1920,933,1920,1080,8-21-2022,9-35-9,142,depth_duration_stimuli/002750_2014-06-22_19-08-03_094959634447_rgbf000094-resize_4/002750_2014-06-22_19-08-03_094959634447_rgbf000094-resize_4-target.png,125,2.354,2,1442,125,feet,jsons/VE125_randls_76_rotated.json,433459,616982,36,Man
142,861643,DepthScenes,duration_manipulation_targetAtFixation,jsons/VE125_randls_76_rotated.json,http://54.235.29.9/FacialAge/BNav_EC2/DepthDuration/v2_depth_duration_MTurk/v2_DepthDuration_HTML.html#72,72,1920,933,1920,1080,8-21-2022,9-35-9,143,depth_duration_stimuli/002549_2014-06-24_13-41-39_094959634447_rgbf000022-resize_3/002549_2014-06-24_13-41-39_094959634447_rgbf000022-resize_3-target.png,125,1.476,2,1578,133,feet,jsons/VE125_randls_76_rotated.json,433459,616982,36,Man
143,861643,DepthScenes,duration_manipulation_targetAtFixation,jsons/VE125_randls_76_rotated.json,http://54.235.29.9/FacialAge/BNav_EC2/DepthDuration/v2_depth_duration_MTurk/v2_DepthDuration_HTML.html#72,72,1920,933,1920,1080,8-21-2022,9-35-9,144,depth_duration_stimuli/002678_2014-06-13_16-15-32_094959634447_rgbf000151-resize_6/002678_2014-06-13_16-15-32_094959634447_rgbf000151-resize_6-target.png,125,2.1830000000000003,4,1441,124,feet,jsons/VE125_randls_76_rotated.json,433459,616982,36,Man
144,861643,DepthScenes,duration_manipulation_targetAtFixation,jsons/VE125_randls_76_rotated.json,http://54.235.29.9/FacialAge/BNav_EC2/DepthDuration/v2_depth_duration_MTurk/v2_DepthDuration_HTML.html#72,72,1920,933,1920,1080,8-21-2022,9-35-9,145,depth_duration_stimuli/000368_2014-06-09_15-53-01_260595134347_rgbf000155-resize_2/000368_2014-06-09_15-53-01_260595134347_rgbf000155-resize_2-target.png,125,2.4859999999999998,5,1552,120,feet,jsons/VE125_randls_76_rotated.json,433459,616982,36,Man
145,861643,DepthScenes,duration_manipulation_targetAtFixation,jsons/VE125_randls_76_rotated.json,http://54.235.29.9/FacialAge/BNav_EC2/DepthDuration/v2_depth_duration_MTurk/v2_DepthDuration_HTML.html#72,72,1920,933,1920,1080,8-21-2022,9-35-9,146,depth_duration_stimuli/000742_2014-06-08_18-48-09_260595134347_rgbf000164-resize_4/000742_2014-06-08_18-48-09_260595134347_rgbf000164-resize_4-target.png,125,4.632,4,1509,124,feet,jsons/VE125_randls_76_rotated.json,433459,616982,36,Man
146,861643,DepthScenes,duration_manipulation_targetAtFixation,jsons/VE125_randls_76_rotated.json,http://54.235.29.9/FacialAge/BNav_EC2/DepthDuration/v2_depth_duration_MTurk/v2_DepthDuration_HTML.html#72,72,1920,933,1920,1080,8-21-2022,9-35-9,147,depth_duration_stimuli/001066_2014-06-08_22-03-20_260595134347_rgbf000066-resize_4/001066_2014-06-08_22-03-20_260595134347_rgbf000066-resize_4-target.png,125,4.2330000000000005,5,2541,120,feet,jsons/VE125_randls_76_rotated.json,433459,616982,36,Man
147,861643,DepthScenes,duration_manipulation_targetAtFixation,jsons/VE125_randls_76_rotated.json,http://54.235.29.9/FacialAge/BNav_EC2/DepthDuration/v2_depth_duration_MTurk/v2_DepthDuration_HTML.html#72,72,1920,933,1920,1080,8-21-2022,9-35-9,148,depth_duration_stimuli/003048_2014-06-15_13-49-43_094959634447_rgbf000150-resize_1/003048_2014-06-15_13-49-43_094959634447_rgbf000150-resize_1-target.png,125,4.0035,4,2613,117,feet,jsons/VE125_randls_76_rotated.json,433459,616982,36,Man
148,861643,DepthScenes,duration_manipulation_targetAtFixation,jsons/VE125_randls_76_rotated.json,http://54.235.29.9/FacialAge/BNav_EC2/DepthDuration/v2_depth_duration_MTurk/v2_DepthDuration_HTML.html#72,72,1920,933,1920,1080,8-21-2022,9-35-9,149,depth_duration_stimuli/002043_2014-06-24_20-29-38_260595134347_rgbf000039-resize_4/002043_2014-06-24_20-29-38_260595134347_rgbf000039-resize_4-target.png,125,2.8435,3,2626,124,feet,jsons/VE125_randls_76_rotated.json,433459,616982,36,Man
149,861643,DepthScenes,duration_manipulation_targetAtFixation,jsons/VE125_randls_76_rotated.json,http://54.235.29.9/FacialAge/BNav_EC2/DepthDuration/v2_depth_duration_MTurk/v2_DepthDuration_HTML.html#72,72,1920,933,1920,1080,8-21-2022,9-35-9,150,depth_duration_stimuli/000677_2014-06-08_23-10-32_260595134347_rgbf000158-resize_6/000677_2014-06-08_23-10-32_260595134347_rgbf000158-resize_6-target.png,125,3.556,2,1428,123,feet,jsons/VE125_randls_76_rotated.json,433459,616982,36,Man
150,861643,DepthScenes,duration_manipulation_targetAtFixation,jsons/VE125_randls_76_rotated.json,http://54.235.29.9/FacialAge/BNav_EC2/DepthDuration/v2_depth_duration_MTurk/v2_DepthDuration_HTML.html#72,72,1920,933,1920,1080,8-21-2022,9-35-9,151,depth_duration_stimuli/001029_2014-06-08_13-17-57_260595134347_rgbf000065-resize_1/001029_2014-06-08_13-17-57_260595134347_rgbf000065-resize_1-target.png,125,3.0835,2,1465,125,feet,jsons/VE125_randls_76_rotated.json,433459,616982,36,Man
151,861643,DepthScenes,duration_manipulation_targetAtFixation,jsons/VE125_randls_76_rotated.json,http://54.235.29.9/FacialAge/BNav_EC2/DepthDuration/v2_depth_duration_MTurk/v2_DepthDuration_HTML.html#72,72,1920,933,1920,1080,8-21-2022,9-35-9,152,depth_duration_stimuli/000569_2014-06-09_22-51-47_260595134347_rgbf000141-resize_3/000569_2014-06-09_22-51-47_260595134347_rgbf000141-resize-original.jpg,125,4.512,0,2691,139,feet,jsons/VE125_randls_76_rotated.json,433459,616982,36,Man
152,861643,DepthScenes,duration_manipulation_targetAtFixation,jsons/VE125_randls_76_rotated.json,http://54.235.29.9/FacialAge/BNav_EC2/DepthDuration/v2_depth_duration_MTurk/v2_DepthDuration_HTML.html#72,72,1920,933,1920,1080,8-21-2022,9-35-9,153,depth_duration_stimuli/002953_2014-06-08_17-32-18_094959634447_rgbf000059-resize_5/002953_2014-06-08_17-32-18_094959634447_rgbf000059-resize_5-target.png,125,1.551,5,1876,124,feet,jsons/VE125_randls_76_rotated.json,433459,616982,36,Man
153,861643,DepthScenes,duration_manipulation_targetAtFixation,jsons/VE125_randls_76_rotated.json,http://54.235.29.9/FacialAge/BNav_EC2/DepthDuration/v2_depth_duration_MTurk/v2_DepthDuration_HTML.html#72,72,1920,933,1920,1080,8-21-2022,9-35-9,154,depth_duration_stimuli/000878_2014-06-08_22-52-45_260595134347_rgbf000045-resize_2/000878_2014-06-08_22-52-45_260595134347_rgbf000045-resize_2-target.png,125,2.092,5,1706,111,feet,jsons/VE125_randls_76_rotated.json,433459,616982,36,Man
154,861643,DepthScenes,duration_manipulation_targetAtFixation,jsons/VE125_randls_76_rotated.json,http://54.235.29.9/FacialAge/BNav_EC2/DepthDuration/v2_depth_duration_MTurk/v2_DepthDuration_HTML.html#72,72,1920,933,1920,1080,8-21-2022,9-35-9,155,depth_duration_stimuli/002323_2014-06-28_20-01-54_260595134347_rgbf000051-resize_4/002323_2014-06-28_20-01-54_260595134347_rgbf000051-resize_4-target.png,125,3.7310000000000003,4,1443,124,feet,jsons/VE125_randls_76_rotated.json,433459,616982,36,Man
155,861643,DepthScenes,duration_manipulation_targetAtFixation,jsons/VE125_randls_76_rotated.json,http://54.235.29.9/FacialAge/BNav_EC2/DepthDuration/v2_depth_duration_MTurk/v2_DepthDuration_HTML.html#72,72,1920,933,1920,1080,8-21-2022,9-35-9,156,depth_duration_stimuli/000917_2014-06-09_22-45-29_260595134347_rgbf000149-resize_3/000917_2014-06-09_22-45-29_260595134347_rgbf000149-resize_3-target.png,125,4.1865,6,1632,124,feet,jsons/VE125_randls_76_rotated.json,433459,616982,36,Man
156,861643,DepthScenes,duration_manipulation_targetAtFixation,jsons/VE125_randls_76_rotated.json,http://54.235.29.9/FacialAge/BNav_EC2/DepthDuration/v2_depth_duration_MTurk/v2_DepthDuration_HTML.html#72,72,1920,933,1920,1080,8-21-2022,9-35-9,157,depth_duration_stimuli/000556_2014-06-09_22-42-56_260595134347_rgbf000214-resize_1/000556_2014-06-09_22-42-56_260595134347_rgbf000214-resize_1-target.png,125,4.8415,4,2534,125,feet,jsons/VE125_randls_76_rotated.json,433459,616982,36,Man
157,861643,DepthScenes,duration_manipulation_targetAtFixation,jsons/VE125_randls_76_rotated.json,http://54.235.29.9/FacialAge/BNav_EC2/DepthDuration/v2_depth_duration_MTurk/v2_DepthDuration_HTML.html#72,72,1920,933,1920,1080,8-21-2022,9-35-9,158,depth_duration_stimuli/001158_2014-06-17_15-32-16_260595134347_rgbf000138-resize_2/001158_2014-06-17_15-32-16_260595134347_rgbf000138-resize_2-target.png,125,4.5315,3,1550,138,feet,jsons/VE125_randls_76_rotated.json,433459,616982,36,Man
158,861643,DepthScenes,duration_manipulation_targetAtFixation,jsons/VE125_randls_76_rotated.json,http://54.235.29.9/FacialAge/BNav_EC2/DepthDuration/v2_depth_duration_MTurk/v2_DepthDuration_HTML.html#72,72,1920,933,1920,1080,8-21-2022,9-35-9,159,depth_duration_stimuli/002344_2014-06-28_20-06-29_260595134347_rgbf000030-resize_1/002344_2014-06-28_20-06-29_260595134347_rgbf000030-resize_1-target.png,125,1.5795,6,1800,124,feet,jsons/VE125_randls_76_rotated.json,433459,616982,36,Man
159,861643,DepthScenes,duration_manipulation_targetAtFixation,jsons/VE125_randls_76_rotated.json,http://54.235.29.9/FacialAge/BNav_EC2/DepthDuration/v2_depth_duration_MTurk/v2_DepthDuration_HTML.html#72,72,1920,933,1920,1080,8-21-2022,9-35-9,160,depth_duration_stimuli/002725_2014-06-22_11-47-51_094959634447_rgbf000070-resize_1/002725_2014-06-22_11-47-51_094959634447_rgbf000070-resize_1-target.png,125,2.195,5,1592,126,feet,jsons/VE125_randls_76_rotated.json,433459,616982,36,Man
160,861643,DepthScenes,duration_manipulation_targetAtFixation,jsons/VE125_randls_76_rotated.json,http://54.235.29.9/FacialAge/BNav_EC2/DepthDuration/v2_depth_duration_MTurk/v2_DepthDuration_HTML.html#72,72,1920,933,1920,1080,8-21-2022,9-35-9,161,depth_duration_stimuli/000866_2014-06-09_20-45-42_260595134347_rgbf000139-resize_1/000866_2014-06-09_20-45-42_260595134347_rgbf000139-resize_1-target.png,125,3.2155,4,1557,124,feet,jsons/VE125_randls_76_rotated.json,433459,616982,36,Man
161,861643,DepthScenes,duration_manipulation_targetAtFixation,jsons/VE125_randls_76_rotated.json,http://54.235.29.9/FacialAge/BNav_EC2/DepthDuration/v2_depth_duration_MTurk/v2_DepthDuration_HTML.html#72,72,1920,933,1920,1080,8-21-2022,9-35-9,162,depth_duration_stimuli/002989_2014-06-15_12-25-03_094959634447_rgbf000150-resize_3/002989_2014-06-15_12-25-03_094959634447_rgbf000150-resize_3-target.png,125,4.1975,6,1705,125,feet,jsons/VE125_randls_76_rotated.json,433459,616982,36,Man
162,861643,DepthScenes,duration_manipulation_targetAtFixation,jsons/VE125_randls_76_rotated.json,http://54.235.29.9/FacialAge/BNav_EC2/DepthDuration/v2_depth_duration_MTurk/v2_DepthDuration_HTML.html#72,72,1920,933,1920,1080,8-21-2022,9-35-9,163,depth_duration_stimuli/003423_2014-05-21_10-23-26_094959634447_rgbf002665-resize_2/003423_2014-05-21_10-23-26_094959634447_rgbf002665-resize_2-target.png,125,3.2575,4,1584,125,feet,jsons/VE125_randls_76_rotated.json,433459,616982,36,Man
163,861643,DepthScenes,duration_manipulation_targetAtFixation,jsons/VE125_randls_76_rotated.json,http://54.235.29.9/FacialAge/BNav_EC2/DepthDuration/v2_depth_duration_MTurk/v2_DepthDuration_HTML.html#72,72,1920,933,1920,1080,8-21-2022,9-35-9,164,depth_duration_stimuli/002905_2014-06-03_18-04-43_094959634447_rgbf000151-resize_2/002905_2014-06-03_18-04-43_094959634447_rgbf000151-resize_2-target.png,125,2.0295,3,1431,118,feet,jsons/VE125_randls_76_rotated.json,433459,616982,36,Man
