,subjID,experimentName,versionName,sequenceName,url,selected_row,windowWidth,windowHeight,screenWidth,screenHeight,startDate,startTime,trial,stimulus,duration,actual_depth,depth_estimate,trial_RT,log_sceneDuration,unitSelection,seq_filepath,experimentTime,totalTime,age,gender
0,865285,DepthScenes,duration_manipulation_targetAtFixation,jsons/v1_VE1000_randls_65_rotated.json,http://54.235.29.9/FacialAge/BNav_EC2/DepthDuration/v2_depth_duration_MTurk/v2_DepthDuration_HTML.html#39,39,1366,625,1366,768,8-22-2022,8-0-26,1,depth_duration_stimuli/002568_2014-06-24_13-59-21_094959634447_rgbf000062-resize_4/002568_2014-06-24_13-59-21_094959634447_rgbf000062-resize_4-target.png,1000,3.015,1,4099,999,meters,jsons/v1_VE1000_randls_65_rotated.json,796149,1006037,27,Man
1,865285,DepthScenes,duration_manipulation_targetAtFixation,jsons/v1_VE1000_randls_65_rotated.json,http://54.235.29.9/FacialAge/BNav_EC2/DepthDuration/v2_depth_duration_MTurk/v2_DepthDuration_HTML.html#39,39,1366,625,1366,768,8-22-2022,8-0-26,2,depth_duration_stimuli/003492_2014-05-21_15-50-55_094959634447_rgbf000828-resize_1/003492_2014-05-21_15-50-55_094959634447_rgbf000828-resize_1-target.png,1000,4.06875,2,5202,1000,meters,jsons/v1_VE1000_randls_65_rotated.json,796149,1006037,27,Man
2,865285,DepthScenes,duration_manipulation_targetAtFixation,jsons/v1_VE1000_randls_65_rotated.json,http://54.235.29.9/FacialAge/BNav_EC2/DepthDuration/v2_depth_duration_MTurk/v2_DepthDuration_HTML.html#39,39,1366,625,1366,768,8-22-2022,8-0-26,3,depth_duration_stimuli/002657_2014-06-13_15-29-54_094959634447_rgbf000150-resize_1/002657_2014-06-13_15-29-54_094959634447_rgbf000150-resize_1-target.png,1000,4.919,2,4290,1000,meters,jsons/v1_VE1000_randls_65_rotated.json,796149,1006037,27,Man
3,865285,DepthScenes,duration_manipulation_targetAtFixation,jsons/v1_VE1000_randls_65_rotated.json,http://54.235.29.9/FacialAge/BNav_EC2/DepthDuration/v2_depth_duration_MTurk/v2_DepthDuration_HTML.html#39,39,1366,625,1366,768,8-22-2022,8-0-26,4,depth_duration_stimuli/002375_2014-06-28_20-13-44_260595134347_rgbf000032-resize_1/002375_2014-06-28_20-13-44_260595134347_rgbf000032-resize_1-target.png,1000,4.0175,3,3842,1000,meters,jsons/v1_VE1000_randls_65_rotated.json,796149,1006037,27,Man
4,865285,DepthScenes,duration_manipulation_targetAtFixation,jsons/v1_VE1000_randls_65_rotated.json,http://54.235.29.9/FacialAge/BNav_EC2/DepthDuration/v2_depth_duration_MTurk/v2_DepthDuration_HTML.html#39,39,1366,625,1366,768,8-22-2022,8-0-26,5,depth_duration_stimuli/002949_2014-06-26_15-57-42_094959634447_rgbf000079-resize_1/002949_2014-06-26_15-57-42_094959634447_rgbf000079-resize_1-target.png,1000,1.8915,2,5183,999,meters,jsons/v1_VE1000_randls_65_rotated.json,796149,1006037,27,Man
5,865285,DepthScenes,duration_manipulation_targetAtFixation,jsons/v1_VE1000_randls_65_rotated.json,http://54.235.29.9/FacialAge/BNav_EC2/DepthDuration/v2_depth_duration_MTurk/v2_DepthDuration_HTML.html#39,39,1366,625,1366,768,8-22-2022,8-0-26,6,depth_duration_stimuli/000522_2014-06-08_13-35-06_260595134347_rgbf000244-resize_1/000522_2014-06-08_13-35-06_260595134347_rgbf000244-resize_1-target.png,1000,2.3715,3,4202,1004,meters,jsons/v1_VE1000_randls_65_rotated.json,796149,1006037,27,Man
6,865285,DepthScenes,duration_manipulation_targetAtFixation,jsons/v1_VE1000_randls_65_rotated.json,http://54.235.29.9/FacialAge/BNav_EC2/DepthDuration/v2_depth_duration_MTurk/v2_DepthDuration_HTML.html#39,39,1366,625,1366,768,8-22-2022,8-0-26,7,depth_duration_stimuli/001650_2014-06-20_12-09-00_260595134347_rgbf000087-resize_3/001650_2014-06-20_12-09-00_260595134347_rgbf000087-resize_3-target.png,1000,1.9505,2,4309,973,meters,jsons/v1_VE1000_randls_65_rotated.json,796149,1006037,27,Man
7,865285,DepthScenes,duration_manipulation_targetAtFixation,jsons/v1_VE1000_randls_65_rotated.json,http://54.235.29.9/FacialAge/BNav_EC2/DepthDuration/v2_depth_duration_MTurk/v2_DepthDuration_HTML.html#39,39,1366,625,1366,768,8-22-2022,8-0-26,8,depth_duration_stimuli/000682_2014-06-08_23-14-58_260595134347_rgbf000041-resize_5/000682_2014-06-08_23-14-58_260595134347_rgbf000041-resize_5-target.png,1000,2.7239999999999998,3,4086,999,meters,jsons/v1_VE1000_randls_65_rotated.json,796149,1006037,27,Man
8,865285,DepthScenes,duration_manipulation_targetAtFixation,jsons/v1_VE1000_randls_65_rotated.json,http://54.235.29.9/FacialAge/BNav_EC2/DepthDuration/v2_depth_duration_MTurk/v2_DepthDuration_HTML.html#39,39,1366,625,1366,768,8-22-2022,8-0-26,9,depth_duration_stimuli/002344_2014-06-28_20-06-29_260595134347_rgbf000030-resize_1/002344_2014-06-28_20-06-29_260595134347_rgbf000030-resize_1-target.png,1000,1.5795,2,5152,998,meters,jsons/v1_VE1000_randls_65_rotated.json,796149,1006037,27,Man
9,865285,DepthScenes,duration_manipulation_targetAtFixation,jsons/v1_VE1000_randls_65_rotated.json,http://54.235.29.9/FacialAge/BNav_EC2/DepthDuration/v2_depth_duration_MTurk/v2_DepthDuration_HTML.html#39,39,1366,625,1366,768,8-22-2022,8-0-26,10,depth_duration_stimuli/002725_2014-06-22_11-47-51_094959634447_rgbf000070-resize_1/002725_2014-06-22_11-47-51_094959634447_rgbf000070-resize_1-target.png,1000,2.195,2,6568,996,meters,jsons/v1_VE1000_randls_65_rotated.json,796149,1006037,27,Man
10,865285,DepthScenes,duration_manipulation_targetAtFixation,jsons/v1_VE1000_randls_65_rotated.json,http://54.235.29.9/FacialAge/BNav_EC2/DepthDuration/v2_depth_duration_MTurk/v2_DepthDuration_HTML.html#39,39,1366,625,1366,768,8-22-2022,8-0-26,11,depth_duration_stimuli/002209_2014-06-28_18-36-10_260595134347_rgbf000051-resize_1/002209_2014-06-28_18-36-10_260595134347_rgbf000051-resize_1-target.png,1000,2.057,2,5403,1012,meters,jsons/v1_VE1000_randls_65_rotated.json,796149,1006037,27,Man
11,865285,DepthScenes,duration_manipulation_targetAtFixation,jsons/v1_VE1000_randls_65_rotated.json,http://54.235.29.9/FacialAge/BNav_EC2/DepthDuration/v2_depth_duration_MTurk/v2_DepthDuration_HTML.html#39,39,1366,625,1366,768,8-22-2022,8-0-26,12,depth_duration_stimuli/002763_2014-06-22_19-13-10_094959634447_rgbf000075-resize_4/002763_2014-06-22_19-13-10_094959634447_rgbf000075-resize_4-target.png,1000,1.68375,3,4086,989,meters,jsons/v1_VE1000_randls_65_rotated.json,796149,1006037,27,Man
12,865285,DepthScenes,duration_manipulation_targetAtFixation,jsons/v1_VE1000_randls_65_rotated.json,http://54.235.29.9/FacialAge/BNav_EC2/DepthDuration/v2_depth_duration_MTurk/v2_DepthDuration_HTML.html#39,39,1366,625,1366,768,8-22-2022,8-0-26,13,depth_duration_stimuli/001815_2014-06-26_20-52-55_260595134347_rgbf000020-resize_0/001815_2014-06-26_20-52-55_260595134347_rgbf000020-resize_0-target.png,1000,3.3865,4,4372,999,meters,jsons/v1_VE1000_randls_65_rotated.json,796149,1006037,27,Man
13,865285,DepthScenes,duration_manipulation_targetAtFixation,jsons/v1_VE1000_randls_65_rotated.json,http://54.235.29.9/FacialAge/BNav_EC2/DepthDuration/v2_depth_duration_MTurk/v2_DepthDuration_HTML.html#39,39,1366,625,1366,768,8-22-2022,8-0-26,14,depth_duration_stimuli/001808_2014-06-26_20-50-58_260595134347_rgbf000029-resize_1/001808_2014-06-26_20-50-58_260595134347_rgbf000029-resize_1-target.png,1000,4.249,3,3787,991,meters,jsons/v1_VE1000_randls_65_rotated.json,796149,1006037,27,Man
14,865285,DepthScenes,duration_manipulation_targetAtFixation,jsons/v1_VE1000_randls_65_rotated.json,http://54.235.29.9/FacialAge/BNav_EC2/DepthDuration/v2_depth_duration_MTurk/v2_DepthDuration_HTML.html#39,39,1366,625,1366,768,8-22-2022,8-0-26,15,depth_duration_stimuli/000109_2014-05-14_23-41-52_260595134347_rgbf000035-resize_9/000109_2014-05-14_23-41-52_260595134347_rgbf000035-resize_9-target.png,1000,1.3545,4,6179,997,meters,jsons/v1_VE1000_randls_65_rotated.json,796149,1006037,27,Man
15,865285,DepthScenes,duration_manipulation_targetAtFixation,jsons/v1_VE1000_randls_65_rotated.json,http://54.235.29.9/FacialAge/BNav_EC2/DepthDuration/v2_depth_duration_MTurk/v2_DepthDuration_HTML.html#39,39,1366,625,1366,768,8-22-2022,8-0-26,16,depth_duration_stimuli/000470_2014-06-09_19-42-40_260595134347_rgbf000094-resize_1/000470_2014-06-09_19-42-40_260595134347_rgbf000094-resize_1-target.png,1000,1.831,2,3878,1012,meters,jsons/v1_VE1000_randls_65_rotated.json,796149,1006037,27,Man
16,865285,DepthScenes,duration_manipulation_targetAtFixation,jsons/v1_VE1000_randls_65_rotated.json,http://54.235.29.9/FacialAge/BNav_EC2/DepthDuration/v2_depth_duration_MTurk/v2_DepthDuration_HTML.html#39,39,1366,625,1366,768,8-22-2022,8-0-26,17,depth_duration_stimuli/000927_2014-06-09_16-32-30_260595134347_rgbf000123-resize_3/000927_2014-06-09_16-32-30_260595134347_rgbf000123-resize_3-target.png,1000,2.6785,2,4498,993,meters,jsons/v1_VE1000_randls_65_rotated.json,796149,1006037,27,Man
17,865285,DepthScenes,duration_manipulation_targetAtFixation,jsons/v1_VE1000_randls_65_rotated.json,http://54.235.29.9/FacialAge/BNav_EC2/DepthDuration/v2_depth_duration_MTurk/v2_DepthDuration_HTML.html#39,39,1366,625,1366,768,8-22-2022,8-0-26,18,depth_duration_stimuli/001110_2014-06-15_17-25-28_260595134347_rgbf000150-resize_1/001110_2014-06-15_17-25-28_260595134347_rgbf000150-resize_1-target.png,1000,1.7115,3,3711,951,meters,jsons/v1_VE1000_randls_65_rotated.json,796149,1006037,27,Man
18,865285,DepthScenes,duration_manipulation_targetAtFixation,jsons/v1_VE1000_randls_65_rotated.json,http://54.235.29.9/FacialAge/BNav_EC2/DepthDuration/v2_depth_duration_MTurk/v2_DepthDuration_HTML.html#39,39,1366,625,1366,768,8-22-2022,8-0-26,19,depth_duration_stimuli/001498_2014-06-19_17-45-14_260595134347_rgbf000129-resize_4/001498_2014-06-19_17-45-14_260595134347_rgbf000129-resize-original.jpg,1000,1.4075,0,5557,1001,meters,jsons/v1_VE1000_randls_65_rotated.json,796149,1006037,27,Man
19,865285,DepthScenes,duration_manipulation_targetAtFixation,jsons/v1_VE1000_randls_65_rotated.json,http://54.235.29.9/FacialAge/BNav_EC2/DepthDuration/v2_depth_duration_MTurk/v2_DepthDuration_HTML.html#39,39,1366,625,1366,768,8-22-2022,8-0-26,20,depth_duration_stimuli/000483_2014-06-09_20-41-45_260595134347_rgbf000116-resize_4/000483_2014-06-09_20-41-45_260595134347_rgbf000116-resize_4-target.png,1000,1.337,2,4931,999,meters,jsons/v1_VE1000_randls_65_rotated.json,796149,1006037,27,Man
20,865285,DepthScenes,duration_manipulation_targetAtFixation,jsons/v1_VE1000_randls_65_rotated.json,http://54.235.29.9/FacialAge/BNav_EC2/DepthDuration/v2_depth_duration_MTurk/v2_DepthDuration_HTML.html#39,39,1366,625,1366,768,8-22-2022,8-0-26,21,depth_duration_stimuli/000469_2014-06-09_19-42-10_260595134347_rgbf000081-resize_1/000469_2014-06-09_19-42-10_260595134347_rgbf000081-resize_1-target.png,1000,1.652,2,4087,993,meters,jsons/v1_VE1000_randls_65_rotated.json,796149,1006037,27,Man
21,865285,DepthScenes,duration_manipulation_targetAtFixation,jsons/v1_VE1000_randls_65_rotated.json,http://54.235.29.9/FacialAge/BNav_EC2/DepthDuration/v2_depth_duration_MTurk/v2_DepthDuration_HTML.html#39,39,1366,625,1366,768,8-22-2022,8-0-26,22,depth_duration_stimuli/003423_2014-05-21_10-23-26_094959634447_rgbf002665-resize_2/003423_2014-05-21_10-23-26_094959634447_rgbf002665-resize_2-target.png,1000,3.2575,1,5397,993,meters,jsons/v1_VE1000_randls_65_rotated.json,796149,1006037,27,Man
22,865285,DepthScenes,duration_manipulation_targetAtFixation,jsons/v1_VE1000_randls_65_rotated.json,http://54.235.29.9/FacialAge/BNav_EC2/DepthDuration/v2_depth_duration_MTurk/v2_DepthDuration_HTML.html#39,39,1366,625,1366,768,8-22-2022,8-0-26,23,depth_duration_stimuli/002905_2014-06-03_18-04-43_094959634447_rgbf000151-resize_2/002905_2014-06-03_18-04-43_094959634447_rgbf000151-resize_2-target.png,1000,2.0295,2,3995,995,meters,jsons/v1_VE1000_randls_65_rotated.json,796149,1006037,27,Man
23,865285,DepthScenes,duration_manipulation_targetAtFixation,jsons/v1_VE1000_randls_65_rotated.json,http://54.235.29.9/FacialAge/BNav_EC2/DepthDuration/v2_depth_duration_MTurk/v2_DepthDuration_HTML.html#39,39,1366,625,1366,768,8-22-2022,8-0-26,24,depth_duration_stimuli/000780_2014-06-08_22-28-29_260595134347_rgbf000126-resize_1/000780_2014-06-08_22-28-29_260595134347_rgbf000126-resize_1-target.png,1000,3.3825,2,4655,994,meters,jsons/v1_VE1000_randls_65_rotated.json,796149,1006037,27,Man
24,865285,DepthScenes,duration_manipulation_targetAtFixation,jsons/v1_VE1000_randls_65_rotated.json,http://54.235.29.9/FacialAge/BNav_EC2/DepthDuration/v2_depth_duration_MTurk/v2_DepthDuration_HTML.html#39,39,1366,625,1366,768,8-22-2022,8-0-26,25,depth_duration_stimuli/002445_2014-06-28_20-32-16_260595134347_rgbf000029-resize_4/002445_2014-06-28_20-32-16_260595134347_rgbf000029-resize_4-target.png,1000,2.5315,3,4251,1006,meters,jsons/v1_VE1000_randls_65_rotated.json,796149,1006037,27,Man
25,865285,DepthScenes,duration_manipulation_targetAtFixation,jsons/v1_VE1000_randls_65_rotated.json,http://54.235.29.9/FacialAge/BNav_EC2/DepthDuration/v2_depth_duration_MTurk/v2_DepthDuration_HTML.html#39,39,1366,625,1366,768,8-22-2022,8-0-26,26,depth_duration_stimuli/001235_2014-06-17_16-37-36_260595134347_rgbf000084-resize_4/001235_2014-06-17_16-37-36_260595134347_rgbf000084-resize_4-target.png,1000,3.6605,2,4453,989,meters,jsons/v1_VE1000_randls_65_rotated.json,796149,1006037,27,Man
26,865285,DepthScenes,duration_manipulation_targetAtFixation,jsons/v1_VE1000_randls_65_rotated.json,http://54.235.29.9/FacialAge/BNav_EC2/DepthDuration/v2_depth_duration_MTurk/v2_DepthDuration_HTML.html#39,39,1366,625,1366,768,8-22-2022,8-0-26,27,depth_duration_stimuli/000788_2014-06-08_22-34-36_260595134347_rgbf000131-resize_1/000788_2014-06-08_22-34-36_260595134347_rgbf000131-resize_1-target.png,1000,3.359,2,4193,990,meters,jsons/v1_VE1000_randls_65_rotated.json,796149,1006037,27,Man
27,865285,DepthScenes,duration_manipulation_targetAtFixation,jsons/v1_VE1000_randls_65_rotated.json,http://54.235.29.9/FacialAge/BNav_EC2/DepthDuration/v2_depth_duration_MTurk/v2_DepthDuration_HTML.html#39,39,1366,625,1366,768,8-22-2022,8-0-26,28,depth_duration_stimuli/000866_2014-06-09_20-45-42_260595134347_rgbf000139-resize_1/000866_2014-06-09_20-45-42_260595134347_rgbf000139-resize_1-target.png,1000,3.2155,2,4112,971,meters,jsons/v1_VE1000_randls_65_rotated.json,796149,1006037,27,Man
28,865285,DepthScenes,duration_manipulation_targetAtFixation,jsons/v1_VE1000_randls_65_rotated.json,http://54.235.29.9/FacialAge/BNav_EC2/DepthDuration/v2_depth_duration_MTurk/v2_DepthDuration_HTML.html#39,39,1366,625,1366,768,8-22-2022,8-0-26,29,depth_duration_stimuli/002989_2014-06-15_12-25-03_094959634447_rgbf000150-resize_3/002989_2014-06-15_12-25-03_094959634447_rgbf000150-resize_3-target.png,1000,4.1975,2,4884,1008,meters,jsons/v1_VE1000_randls_65_rotated.json,796149,1006037,27,Man
29,865285,DepthScenes,duration_manipulation_targetAtFixation,jsons/v1_VE1000_randls_65_rotated.json,http://54.235.29.9/FacialAge/BNav_EC2/DepthDuration/v2_depth_duration_MTurk/v2_DepthDuration_HTML.html#39,39,1366,625,1366,768,8-22-2022,8-0-26,30,depth_duration_stimuli/002072_2014-06-24_21-48-06_260595134347_rgbf000115-resize_0/002072_2014-06-24_21-48-06_260595134347_rgbf000115-resize-original.jpg,1000,4.702,2,4463,993,meters,jsons/v1_VE1000_randls_65_rotated.json,796149,1006037,27,Man
30,865285,DepthScenes,duration_manipulation_targetAtFixation,jsons/v1_VE1000_randls_65_rotated.json,http://54.235.29.9/FacialAge/BNav_EC2/DepthDuration/v2_depth_duration_MTurk/v2_DepthDuration_HTML.html#39,39,1366,625,1366,768,8-22-2022,8-0-26,31,depth_duration_stimuli/002750_2014-06-22_19-08-03_094959634447_rgbf000094-resize_4/002750_2014-06-22_19-08-03_094959634447_rgbf000094-resize_4-target.png,1000,2.354,1,4251,1003,meters,jsons/v1_VE1000_randls_65_rotated.json,796149,1006037,27,Man
31,865285,DepthScenes,duration_manipulation_targetAtFixation,jsons/v1_VE1000_randls_65_rotated.json,http://54.235.29.9/FacialAge/BNav_EC2/DepthDuration/v2_depth_duration_MTurk/v2_DepthDuration_HTML.html#39,39,1366,625,1366,768,8-22-2022,8-0-26,32,depth_duration_stimuli/002549_2014-06-24_13-41-39_094959634447_rgbf000022-resize_3/002549_2014-06-24_13-41-39_094959634447_rgbf000022-resize_3-target.png,1000,1.476,1,4056,985,meters,jsons/v1_VE1000_randls_65_rotated.json,796149,1006037,27,Man
32,865285,DepthScenes,duration_manipulation_targetAtFixation,jsons/v1_VE1000_randls_65_rotated.json,http://54.235.29.9/FacialAge/BNav_EC2/DepthDuration/v2_depth_duration_MTurk/v2_DepthDuration_HTML.html#39,39,1366,625,1366,768,8-22-2022,8-0-26,33,depth_duration_stimuli/003083_2014-06-15_15-21-03_094959634447_rgbf000063-resize_1/003083_2014-06-15_15-21-03_094959634447_rgbf000063-resize_1-target.png,1000,4.1405,2,5862,998,meters,jsons/v1_VE1000_randls_65_rotated.json,796149,1006037,27,Man
33,865285,DepthScenes,duration_manipulation_targetAtFixation,jsons/v1_VE1000_randls_65_rotated.json,http://54.235.29.9/FacialAge/BNav_EC2/DepthDuration/v2_depth_duration_MTurk/v2_DepthDuration_HTML.html#39,39,1366,625,1366,768,8-22-2022,8-0-26,34,depth_duration_stimuli/000486_2014-06-09_20-47-20_260595134347_rgbf000143-resize_2/000486_2014-06-09_20-47-20_260595134347_rgbf000143-resize_2-target.png,1000,4.8325,2,9665,995,meters,jsons/v1_VE1000_randls_65_rotated.json,796149,1006037,27,Man
34,865285,DepthScenes,duration_manipulation_targetAtFixation,jsons/v1_VE1000_randls_65_rotated.json,http://54.235.29.9/FacialAge/BNav_EC2/DepthDuration/v2_depth_duration_MTurk/v2_DepthDuration_HTML.html#39,39,1366,625,1366,768,8-22-2022,8-0-26,35,depth_duration_stimuli/002444_2014-06-28_20-32-08_260595134347_rgbf000027-resize_0/002444_2014-06-28_20-32-08_260595134347_rgbf000027-resize_0-target.png,1000,4.388999999999999,3,3879,987,meters,jsons/v1_VE1000_randls_65_rotated.json,796149,1006037,27,Man
35,865285,DepthScenes,duration_manipulation_targetAtFixation,jsons/v1_VE1000_randls_65_rotated.json,http://54.235.29.9/FacialAge/BNav_EC2/DepthDuration/v2_depth_duration_MTurk/v2_DepthDuration_HTML.html#39,39,1366,625,1366,768,8-22-2022,8-0-26,36,depth_duration_stimuli/000436_2014-06-09_22-25-11_260595134347_rgbf000137-resize_1/000436_2014-06-09_22-25-11_260595134347_rgbf000137-resize_1-target.png,1000,4.0705,3,4169,991,meters,jsons/v1_VE1000_randls_65_rotated.json,796149,1006037,27,Man
36,865285,DepthScenes,duration_manipulation_targetAtFixation,jsons/v1_VE1000_randls_65_rotated.json,http://54.235.29.9/FacialAge/BNav_EC2/DepthDuration/v2_depth_duration_MTurk/v2_DepthDuration_HTML.html#39,39,1366,625,1366,768,8-22-2022,8-0-26,37,depth_duration_stimuli/001094_2014-06-15_17-36-00_260595134347_rgbf000205-resize_0/001094_2014-06-15_17-36-00_260595134347_rgbf000205-resize_0-target.png,1000,4.2175,2,4118,999,meters,jsons/v1_VE1000_randls_65_rotated.json,796149,1006037,27,Man
37,865285,DepthScenes,duration_manipulation_targetAtFixation,jsons/v1_VE1000_randls_65_rotated.json,http://54.235.29.9/FacialAge/BNav_EC2/DepthDuration/v2_depth_duration_MTurk/v2_DepthDuration_HTML.html#39,39,1366,625,1366,768,8-22-2022,8-0-26,38,depth_duration_stimuli/000692_2014-06-08_13-09-42_260595134347_rgbf000199-resize_2/000692_2014-06-08_13-09-42_260595134347_rgbf000199-resize_2-target.png,1000,3.661,2,4169,986,meters,jsons/v1_VE1000_randls_65_rotated.json,796149,1006037,27,Man
38,865285,DepthScenes,duration_manipulation_targetAtFixation,jsons/v1_VE1000_randls_65_rotated.json,http://54.235.29.9/FacialAge/BNav_EC2/DepthDuration/v2_depth_duration_MTurk/v2_DepthDuration_HTML.html#39,39,1366,625,1366,768,8-22-2022,8-0-26,39,depth_duration_stimuli/000734_2014-06-08_17-39-11_260595134347_rgbf000128-resize_2/000734_2014-06-08_17-39-11_260595134347_rgbf000128-resize_2-target.png,1000,4.098,2,3951,982,meters,jsons/v1_VE1000_randls_65_rotated.json,796149,1006037,27,Man
39,865285,DepthScenes,duration_manipulation_targetAtFixation,jsons/v1_VE1000_randls_65_rotated.json,http://54.235.29.9/FacialAge/BNav_EC2/DepthDuration/v2_depth_duration_MTurk/v2_DepthDuration_HTML.html#39,39,1366,625,1366,768,8-22-2022,8-0-26,40,depth_duration_stimuli/000739_2014-06-08_18-45-58_260595134347_rgbf000068-resize_1/000739_2014-06-08_18-45-58_260595134347_rgbf000068-resize_1-target.png,1000,3.534,2,3985,988,meters,jsons/v1_VE1000_randls_65_rotated.json,796149,1006037,27,Man
40,865285,DepthScenes,duration_manipulation_targetAtFixation,jsons/v1_VE1000_randls_65_rotated.json,http://54.235.29.9/FacialAge/BNav_EC2/DepthDuration/v2_depth_duration_MTurk/v2_DepthDuration_HTML.html#39,39,1366,625,1366,768,8-22-2022,8-0-26,41,depth_duration_stimuli/001516_2014-06-20_16-25-09_260595134347_rgbf000076-resize_2/001516_2014-06-20_16-25-09_260595134347_rgbf000076-resize_2-target.png,1000,1.7445,1,4267,1006,meters,jsons/v1_VE1000_randls_65_rotated.json,796149,1006037,27,Man
41,865285,DepthScenes,duration_manipulation_targetAtFixation,jsons/v1_VE1000_randls_65_rotated.json,http://54.235.29.9/FacialAge/BNav_EC2/DepthDuration/v2_depth_duration_MTurk/v2_DepthDuration_HTML.html#39,39,1366,625,1366,768,8-22-2022,8-0-26,42,depth_duration_stimuli/002118_2014-06-25_20-32-08_260595134347_rgbf000078-resize_1/002118_2014-06-25_20-32-08_260595134347_rgbf000078-resize_1-target.png,1000,2.6460000000000004,1,4126,1016,meters,jsons/v1_VE1000_randls_65_rotated.json,796149,1006037,27,Man
42,865285,DepthScenes,duration_manipulation_targetAtFixation,jsons/v1_VE1000_randls_65_rotated.json,http://54.235.29.9/FacialAge/BNav_EC2/DepthDuration/v2_depth_duration_MTurk/v2_DepthDuration_HTML.html#39,39,1366,625,1366,768,8-22-2022,8-0-26,43,depth_duration_stimuli/002758_2014-06-22_19-11-20_094959634447_rgbf000128-resize_1/002758_2014-06-22_19-11-20_094959634447_rgbf000128-resize_1-target.png,1000,2.555,2,4074,1000,meters,jsons/v1_VE1000_randls_65_rotated.json,796149,1006037,27,Man
43,865285,DepthScenes,duration_manipulation_targetAtFixation,jsons/v1_VE1000_randls_65_rotated.json,http://54.235.29.9/FacialAge/BNav_EC2/DepthDuration/v2_depth_duration_MTurk/v2_DepthDuration_HTML.html#39,39,1366,625,1366,768,8-22-2022,8-0-26,44,depth_duration_stimuli/002630_2014-06-24_14-47-50_094959634447_rgbf000055-resize_1/002630_2014-06-24_14-47-50_094959634447_rgbf000055-resize_1-target.png,1000,3.0095,2,4162,1001,meters,jsons/v1_VE1000_randls_65_rotated.json,796149,1006037,27,Man
44,865285,DepthScenes,duration_manipulation_targetAtFixation,jsons/v1_VE1000_randls_65_rotated.json,http://54.235.29.9/FacialAge/BNav_EC2/DepthDuration/v2_depth_duration_MTurk/v2_DepthDuration_HTML.html#39,39,1366,625,1366,768,8-22-2022,8-0-26,45,depth_duration_stimuli/002637_2014-06-24_14-51-13_094959634447_rgbf000066-resize_4/002637_2014-06-24_14-51-13_094959634447_rgbf000066-resize_4-target.png,1000,1.9955,1,4465,996,meters,jsons/v1_VE1000_randls_65_rotated.json,796149,1006037,27,Man
45,865285,DepthScenes,duration_manipulation_targetAtFixation,jsons/v1_VE1000_randls_65_rotated.json,http://54.235.29.9/FacialAge/BNav_EC2/DepthDuration/v2_depth_duration_MTurk/v2_DepthDuration_HTML.html#39,39,1366,625,1366,768,8-22-2022,8-0-26,46,depth_duration_stimuli/003534_2014-05-22_15-06-10_094959634447_rgbf000102-resize_4/003534_2014-05-22_15-06-10_094959634447_rgbf000102-resize_4-target.png,1000,1.426,2,3827,986,meters,jsons/v1_VE1000_randls_65_rotated.json,796149,1006037,27,Man
46,865285,DepthScenes,duration_manipulation_targetAtFixation,jsons/v1_VE1000_randls_65_rotated.json,http://54.235.29.9/FacialAge/BNav_EC2/DepthDuration/v2_depth_duration_MTurk/v2_DepthDuration_HTML.html#39,39,1366,625,1366,768,8-22-2022,8-0-26,47,depth_duration_stimuli/002414_2014-06-28_20-24-58_260595134347_rgbf000067-resize_4/002414_2014-06-28_20-24-58_260595134347_rgbf000067-resize_4-target.png,1000,4.363,2,4268,990,meters,jsons/v1_VE1000_randls_65_rotated.json,796149,1006037,27,Man
47,865285,DepthScenes,duration_manipulation_targetAtFixation,jsons/v1_VE1000_randls_65_rotated.json,http://54.235.29.9/FacialAge/BNav_EC2/DepthDuration/v2_depth_duration_MTurk/v2_DepthDuration_HTML.html#39,39,1366,625,1366,768,8-22-2022,8-0-26,48,depth_duration_stimuli/000773_2014-06-08_22-24-54_260595134347_rgbf000093-resize_1/000773_2014-06-08_22-24-54_260595134347_rgbf000093-resize_1-target.png,1000,4.973,2,4481,1005,meters,jsons/v1_VE1000_randls_65_rotated.json,796149,1006037,27,Man
48,865285,DepthScenes,duration_manipulation_targetAtFixation,jsons/v1_VE1000_randls_65_rotated.json,http://54.235.29.9/FacialAge/BNav_EC2/DepthDuration/v2_depth_duration_MTurk/v2_DepthDuration_HTML.html#39,39,1366,625,1366,768,8-22-2022,8-0-26,49,depth_duration_stimuli/001170_2014-06-17_15-43-44_260595134347_rgbf000096-resize_6/001170_2014-06-17_15-43-44_260595134347_rgbf000096-resize-original.jpg,1000,1.1909999999999998,2,10260,1833,meters,jsons/v1_VE1000_randls_65_rotated.json,796149,1006037,27,Man
49,865285,DepthScenes,duration_manipulation_targetAtFixation,jsons/v1_VE1000_randls_65_rotated.json,http://54.235.29.9/FacialAge/BNav_EC2/DepthDuration/v2_depth_duration_MTurk/v2_DepthDuration_HTML.html#39,39,1366,625,1366,768,8-22-2022,8-0-26,50,depth_duration_stimuli/000556_2014-06-09_22-42-56_260595134347_rgbf000214-resize_1/000556_2014-06-09_22-42-56_260595134347_rgbf000214-resize_1-target.png,1000,4.8415,2,4889,998,meters,jsons/v1_VE1000_randls_65_rotated.json,796149,1006037,27,Man
50,865285,DepthScenes,duration_manipulation_targetAtFixation,jsons/v1_VE1000_randls_65_rotated.json,http://54.235.29.9/FacialAge/BNav_EC2/DepthDuration/v2_depth_duration_MTurk/v2_DepthDuration_HTML.html#39,39,1366,625,1366,768,8-22-2022,8-0-26,51,depth_duration_stimuli/001158_2014-06-17_15-32-16_260595134347_rgbf000138-resize_2/001158_2014-06-17_15-32-16_260595134347_rgbf000138-resize_2-target.png,1000,4.5315,2,4348,971,meters,jsons/v1_VE1000_randls_65_rotated.json,796149,1006037,27,Man
51,865285,DepthScenes,duration_manipulation_targetAtFixation,jsons/v1_VE1000_randls_65_rotated.json,http://54.235.29.9/FacialAge/BNav_EC2/DepthDuration/v2_depth_duration_MTurk/v2_DepthDuration_HTML.html#39,39,1366,625,1366,768,8-22-2022,8-0-26,52,depth_duration_stimuli/001052_2014-06-08_18-24-54_260595134347_rgbf000130-resize_1/001052_2014-06-08_18-24-54_260595134347_rgbf000130-resize_1-target.png,1000,4.1045,2,4735,1026,meters,jsons/v1_VE1000_randls_65_rotated.json,796149,1006037,27,Man
52,865285,DepthScenes,duration_manipulation_targetAtFixation,jsons/v1_VE1000_randls_65_rotated.json,http://54.235.29.9/FacialAge/BNav_EC2/DepthDuration/v2_depth_duration_MTurk/v2_DepthDuration_HTML.html#39,39,1366,625,1366,768,8-22-2022,8-0-26,53,depth_duration_stimuli/002988_2014-06-15_12-24-20_094959634447_rgbf000150-resize_1/002988_2014-06-15_12-24-20_094959634447_rgbf000150-resize_1-target.png,1000,4.7669999999999995,2,4882,998,meters,jsons/v1_VE1000_randls_65_rotated.json,796149,1006037,27,Man
53,865285,DepthScenes,duration_manipulation_targetAtFixation,jsons/v1_VE1000_randls_65_rotated.json,http://54.235.29.9/FacialAge/BNav_EC2/DepthDuration/v2_depth_duration_MTurk/v2_DepthDuration_HTML.html#39,39,1366,625,1366,768,8-22-2022,8-0-26,54,depth_duration_stimuli/001447_2014-06-19_17-00-32_260595134347_rgbf000082-resize_5/001447_2014-06-19_17-00-32_260595134347_rgbf000082-resize_5-target.png,1000,4.13775,1,8125,999,meters,jsons/v1_VE1000_randls_65_rotated.json,796149,1006037,27,Man
54,865285,DepthScenes,duration_manipulation_targetAtFixation,jsons/v1_VE1000_randls_65_rotated.json,http://54.235.29.9/FacialAge/BNav_EC2/DepthDuration/v2_depth_duration_MTurk/v2_DepthDuration_HTML.html#39,39,1366,625,1366,768,8-22-2022,8-0-26,55,depth_duration_stimuli/000447_2014-06-08_16-15-46_260595134347_rgbf000130-resize_1/000447_2014-06-08_16-15-46_260595134347_rgbf000130-resize_1-target.png,1000,4.479,2,4124,989,meters,jsons/v1_VE1000_randls_65_rotated.json,796149,1006037,27,Man
55,865285,DepthScenes,duration_manipulation_targetAtFixation,jsons/v1_VE1000_randls_65_rotated.json,http://54.235.29.9/FacialAge/BNav_EC2/DepthDuration/v2_depth_duration_MTurk/v2_DepthDuration_HTML.html#39,39,1366,625,1366,768,8-22-2022,8-0-26,56,depth_duration_stimuli/001584_2014-06-20_11-07-43_260595134347_rgbf000002-resize_1/001584_2014-06-20_11-07-43_260595134347_rgbf000002-resize_1-target.png,1000,3.53,2,4187,1011,meters,jsons/v1_VE1000_randls_65_rotated.json,796149,1006037,27,Man
56,865285,DepthScenes,duration_manipulation_targetAtFixation,jsons/v1_VE1000_randls_65_rotated.json,http://54.235.29.9/FacialAge/BNav_EC2/DepthDuration/v2_depth_duration_MTurk/v2_DepthDuration_HTML.html#39,39,1366,625,1366,768,8-22-2022,8-0-26,57,depth_duration_stimuli/003621_2014-05-23_18-06-08_094959634447_rgbf000101-resize_1/003621_2014-05-23_18-06-08_094959634447_rgbf000101-resize_1-target.png,1000,3.9835,3,3858,998,meters,jsons/v1_VE1000_randls_65_rotated.json,796149,1006037,27,Man
57,865285,DepthScenes,duration_manipulation_targetAtFixation,jsons/v1_VE1000_randls_65_rotated.json,http://54.235.29.9/FacialAge/BNav_EC2/DepthDuration/v2_depth_duration_MTurk/v2_DepthDuration_HTML.html#39,39,1366,625,1366,768,8-22-2022,8-0-26,58,depth_duration_stimuli/001617_2014-06-20_11-35-32_260595134347_rgbf000066-resize_1/001617_2014-06-20_11-35-32_260595134347_rgbf000066-resize_1-target.png,1000,3.7910000000000004,2,3984,1002,meters,jsons/v1_VE1000_randls_65_rotated.json,796149,1006037,27,Man
58,865285,DepthScenes,duration_manipulation_targetAtFixation,jsons/v1_VE1000_randls_65_rotated.json,http://54.235.29.9/FacialAge/BNav_EC2/DepthDuration/v2_depth_duration_MTurk/v2_DepthDuration_HTML.html#39,39,1366,625,1366,768,8-22-2022,8-0-26,59,depth_duration_stimuli/001806_2014-06-26_20-50-20_260595134347_rgbf000091-resize_1/001806_2014-06-26_20-50-20_260595134347_rgbf000091-resize_1-target.png,1000,2.7305,2,3702,988,meters,jsons/v1_VE1000_randls_65_rotated.json,796149,1006037,27,Man
59,865285,DepthScenes,duration_manipulation_targetAtFixation,jsons/v1_VE1000_randls_65_rotated.json,http://54.235.29.9/FacialAge/BNav_EC2/DepthDuration/v2_depth_duration_MTurk/v2_DepthDuration_HTML.html#39,39,1366,625,1366,768,8-22-2022,8-0-26,60,depth_duration_stimuli/002805_2014-06-22_19-54-03_094959634447_rgbf000079-resize_1/002805_2014-06-22_19-54-03_094959634447_rgbf000079-resize_1-target.png,1000,3.1439999999999997,2,4551,995,meters,jsons/v1_VE1000_randls_65_rotated.json,796149,1006037,27,Man
60,865285,DepthScenes,duration_manipulation_targetAtFixation,jsons/v1_VE1000_randls_65_rotated.json,http://54.235.29.9/FacialAge/BNav_EC2/DepthDuration/v2_depth_duration_MTurk/v2_DepthDuration_HTML.html#39,39,1366,625,1366,768,8-22-2022,8-0-26,61,depth_duration_stimuli/000906_2014-06-08_13-35-43_260595134347_rgbf000155-resize_1/000906_2014-06-08_13-35-43_260595134347_rgbf000155-resize_1-target.png,1000,2.8489999999999998,2,4129,1009,meters,jsons/v1_VE1000_randls_65_rotated.json,796149,1006037,27,Man
61,865285,DepthScenes,duration_manipulation_targetAtFixation,jsons/v1_VE1000_randls_65_rotated.json,http://54.235.29.9/FacialAge/BNav_EC2/DepthDuration/v2_depth_duration_MTurk/v2_DepthDuration_HTML.html#39,39,1366,625,1366,768,8-22-2022,8-0-26,62,depth_duration_stimuli/001032_2014-06-08_13-23-17_260595134347_rgbf000021-resize_3/001032_2014-06-08_13-23-17_260595134347_rgbf000021-resize_3-target.png,1000,3.2725,1,4992,971,meters,jsons/v1_VE1000_randls_65_rotated.json,796149,1006037,27,Man
62,865285,DepthScenes,duration_manipulation_targetAtFixation,jsons/v1_VE1000_randls_65_rotated.json,http://54.235.29.9/FacialAge/BNav_EC2/DepthDuration/v2_depth_duration_MTurk/v2_DepthDuration_HTML.html#39,39,1366,625,1366,768,8-22-2022,8-0-26,63,depth_duration_stimuli/001059_2014-06-08_21-53-27_260595134347_rgbf000061-resize_4/001059_2014-06-08_21-53-27_260595134347_rgbf000061-resize_4-target.png,1000,2.4185,2,4646,1027,meters,jsons/v1_VE1000_randls_65_rotated.json,796149,1006037,27,Man
63,865285,DepthScenes,duration_manipulation_targetAtFixation,jsons/v1_VE1000_randls_65_rotated.json,http://54.235.29.9/FacialAge/BNav_EC2/DepthDuration/v2_depth_duration_MTurk/v2_DepthDuration_HTML.html#39,39,1366,625,1366,768,8-22-2022,8-0-26,64,depth_duration_stimuli/001214_2014-06-17_16-13-55_260595134347_rgbf000111-resize_0/001214_2014-06-17_16-13-55_260595134347_rgbf000111-resize_0-target.png,1000,2.6505,2,4446,1001,meters,jsons/v1_VE1000_randls_65_rotated.json,796149,1006037,27,Man
64,865285,DepthScenes,duration_manipulation_targetAtFixation,jsons/v1_VE1000_randls_65_rotated.json,http://54.235.29.9/FacialAge/BNav_EC2/DepthDuration/v2_depth_duration_MTurk/v2_DepthDuration_HTML.html#39,39,1366,625,1366,768,8-22-2022,8-0-26,65,depth_duration_stimuli/000810_2014-06-08_17-20-01_260595134347_rgbf000105-resize_0/000810_2014-06-08_17-20-01_260595134347_rgbf000105-resize_0-target.png,1000,1.4865,3,4907,995,meters,jsons/v1_VE1000_randls_65_rotated.json,796149,1006037,27,Man
65,865285,DepthScenes,duration_manipulation_targetAtFixation,jsons/v1_VE1000_randls_65_rotated.json,http://54.235.29.9/FacialAge/BNav_EC2/DepthDuration/v2_depth_duration_MTurk/v2_DepthDuration_HTML.html#39,39,1366,625,1366,768,8-22-2022,8-0-26,66,depth_duration_stimuli/001540_2014-06-20_17-01-05_260595134347_rgbf000086-resize_2/001540_2014-06-20_17-01-05_260595134347_rgbf000086-resize-original.jpg,1000,1.459,0,6713,1010,meters,jsons/v1_VE1000_randls_65_rotated.json,796149,1006037,27,Man
66,865285,DepthScenes,duration_manipulation_targetAtFixation,jsons/v1_VE1000_randls_65_rotated.json,http://54.235.29.9/FacialAge/BNav_EC2/DepthDuration/v2_depth_duration_MTurk/v2_DepthDuration_HTML.html#39,39,1366,625,1366,768,8-22-2022,8-0-26,67,depth_duration_stimuli/002953_2014-06-08_17-32-18_094959634447_rgbf000059-resize_5/002953_2014-06-08_17-32-18_094959634447_rgbf000059-resize_5-target.png,1000,1.551,2,6585,986,meters,jsons/v1_VE1000_randls_65_rotated.json,796149,1006037,27,Man
67,865285,DepthScenes,duration_manipulation_targetAtFixation,jsons/v1_VE1000_randls_65_rotated.json,http://54.235.29.9/FacialAge/BNav_EC2/DepthDuration/v2_depth_duration_MTurk/v2_DepthDuration_HTML.html#39,39,1366,625,1366,768,8-22-2022,8-0-26,68,depth_duration_stimuli/000878_2014-06-08_22-52-45_260595134347_rgbf000045-resize_2/000878_2014-06-08_22-52-45_260595134347_rgbf000045-resize_2-target.png,1000,2.092,3,3907,993,meters,jsons/v1_VE1000_randls_65_rotated.json,796149,1006037,27,Man
68,865285,DepthScenes,duration_manipulation_targetAtFixation,jsons/v1_VE1000_randls_65_rotated.json,http://54.235.29.9/FacialAge/BNav_EC2/DepthDuration/v2_depth_duration_MTurk/v2_DepthDuration_HTML.html#39,39,1366,625,1366,768,8-22-2022,8-0-26,69,depth_duration_stimuli/001132_2014-06-17_14-48-54_260595134347_rgbf000100-resize_2/001132_2014-06-17_14-48-54_260595134347_rgbf000100-resize_2-target.png,1000,3.753,2,4807,990,meters,jsons/v1_VE1000_randls_65_rotated.json,796149,1006037,27,Man
69,865285,DepthScenes,duration_manipulation_targetAtFixation,jsons/v1_VE1000_randls_65_rotated.json,http://54.235.29.9/FacialAge/BNav_EC2/DepthDuration/v2_depth_duration_MTurk/v2_DepthDuration_HTML.html#39,39,1366,625,1366,768,8-22-2022,8-0-26,70,depth_duration_stimuli/001133_2014-06-17_14-49-16_260595134347_rgbf000100-resize_0/001133_2014-06-17_14-49-16_260595134347_rgbf000100-resize_0-target.png,1000,4.2115,2,4186,991,meters,jsons/v1_VE1000_randls_65_rotated.json,796149,1006037,27,Man
70,865285,DepthScenes,duration_manipulation_targetAtFixation,jsons/v1_VE1000_randls_65_rotated.json,http://54.235.29.9/FacialAge/BNav_EC2/DepthDuration/v2_depth_duration_MTurk/v2_DepthDuration_HTML.html#39,39,1366,625,1366,768,8-22-2022,8-0-26,71,depth_duration_stimuli/000854_2014-06-09_19-43-13_260595134347_rgbf000066-resize_0/000854_2014-06-09_19-43-13_260595134347_rgbf000066-resize_0-target.png,1000,3.068,2,4048,1000,meters,jsons/v1_VE1000_randls_65_rotated.json,796149,1006037,27,Man
71,865285,DepthScenes,duration_manipulation_targetAtFixation,jsons/v1_VE1000_randls_65_rotated.json,http://54.235.29.9/FacialAge/BNav_EC2/DepthDuration/v2_depth_duration_MTurk/v2_DepthDuration_HTML.html#39,39,1366,625,1366,768,8-22-2022,8-0-26,72,depth_duration_stimuli/000758_2014-06-08_22-05-08_260595134347_rgbf000085-resize_0/000758_2014-06-08_22-05-08_260595134347_rgbf000085-resize_0-target.png,1000,3.3810000000000002,32,3736,963,meters,jsons/v1_VE1000_randls_65_rotated.json,796149,1006037,27,Man
72,865285,DepthScenes,duration_manipulation_targetAtFixation,jsons/v1_VE1000_randls_65_rotated.json,http://54.235.29.9/FacialAge/BNav_EC2/DepthDuration/v2_depth_duration_MTurk/v2_DepthDuration_HTML.html#39,39,1366,625,1366,768,8-22-2022,8-0-26,73,depth_duration_stimuli/000665_2014-06-09_20-42-35_260595134347_rgbf000110-resize_1/000665_2014-06-09_20-42-35_260595134347_rgbf000110-resize_1-target.png,1000,3.057,2,3708,1010,meters,jsons/v1_VE1000_randls_65_rotated.json,796149,1006037,27,Man
73,865285,DepthScenes,duration_manipulation_targetAtFixation,jsons/v1_VE1000_randls_65_rotated.json,http://54.235.29.9/FacialAge/BNav_EC2/DepthDuration/v2_depth_duration_MTurk/v2_DepthDuration_HTML.html#39,39,1366,625,1366,768,8-22-2022,8-0-26,74,depth_duration_stimuli/001150_2014-06-17_15-27-34_260595134347_rgbf000108-resize_2/001150_2014-06-17_15-27-34_260595134347_rgbf000108-resize_2-target.png,1000,4.0325,2,3656,991,meters,jsons/v1_VE1000_randls_65_rotated.json,796149,1006037,27,Man
74,865285,DepthScenes,duration_manipulation_targetAtFixation,jsons/v1_VE1000_randls_65_rotated.json,http://54.235.29.9/FacialAge/BNav_EC2/DepthDuration/v2_depth_duration_MTurk/v2_DepthDuration_HTML.html#39,39,1366,625,1366,768,8-22-2022,8-0-26,75,depth_duration_stimuli/000677_2014-06-08_23-10-32_260595134347_rgbf000158-resize_6/000677_2014-06-08_23-10-32_260595134347_rgbf000158-resize_6-target.png,1000,3.556,3,3931,994,meters,jsons/v1_VE1000_randls_65_rotated.json,796149,1006037,27,Man
75,865285,DepthScenes,duration_manipulation_targetAtFixation,jsons/v1_VE1000_randls_65_rotated.json,http://54.235.29.9/FacialAge/BNav_EC2/DepthDuration/v2_depth_duration_MTurk/v2_DepthDuration_HTML.html#39,39,1366,625,1366,768,8-22-2022,8-0-26,76,depth_duration_stimuli/001029_2014-06-08_13-17-57_260595134347_rgbf000065-resize_1/001029_2014-06-08_13-17-57_260595134347_rgbf000065-resize_1-target.png,1000,3.0835,2,3697,1007,meters,jsons/v1_VE1000_randls_65_rotated.json,796149,1006037,27,Man
76,865285,DepthScenes,duration_manipulation_targetAtFixation,jsons/v1_VE1000_randls_65_rotated.json,http://54.235.29.9/FacialAge/BNav_EC2/DepthDuration/v2_depth_duration_MTurk/v2_DepthDuration_HTML.html#39,39,1366,625,1366,768,8-22-2022,8-0-26,77,depth_duration_stimuli/000749_2014-06-08_21-55-06_260595134347_rgbf000070-resize_2/000749_2014-06-08_21-55-06_260595134347_rgbf000070-resize_2-target.png,1000,2.331,1,4064,1000,meters,jsons/v1_VE1000_randls_65_rotated.json,796149,1006037,27,Man
77,865285,DepthScenes,duration_manipulation_targetAtFixation,jsons/v1_VE1000_randls_65_rotated.json,http://54.235.29.9/FacialAge/BNav_EC2/DepthDuration/v2_depth_duration_MTurk/v2_DepthDuration_HTML.html#39,39,1366,625,1366,768,8-22-2022,8-0-26,78,depth_duration_stimuli/002788_2014-06-22_19-36-03_094959634447_rgbf000088-resize_2/002788_2014-06-22_19-36-03_094959634447_rgbf000088-resize_2-target.png,1000,1.6465,2,3544,1000,meters,jsons/v1_VE1000_randls_65_rotated.json,796149,1006037,27,Man
78,865285,DepthScenes,duration_manipulation_targetAtFixation,jsons/v1_VE1000_randls_65_rotated.json,http://54.235.29.9/FacialAge/BNav_EC2/DepthDuration/v2_depth_duration_MTurk/v2_DepthDuration_HTML.html#39,39,1366,625,1366,768,8-22-2022,8-0-26,79,depth_duration_stimuli/000103_2014-05-14_22-01-17_260595134347_rgbf000152-resize_5/000103_2014-05-14_22-01-17_260595134347_rgbf000152-resize_5-target.png,1000,1.993,2,3896,987,meters,jsons/v1_VE1000_randls_65_rotated.json,796149,1006037,27,Man
79,865285,DepthScenes,duration_manipulation_targetAtFixation,jsons/v1_VE1000_randls_65_rotated.json,http://54.235.29.9/FacialAge/BNav_EC2/DepthDuration/v2_depth_duration_MTurk/v2_DepthDuration_HTML.html#39,39,1366,625,1366,768,8-22-2022,8-0-26,80,depth_duration_stimuli/001555_2014-06-20_17-12-10_260595134347_rgbf000065-resize_4/001555_2014-06-20_17-12-10_260595134347_rgbf000065-resize_4-target.png,1000,1.633,3,4209,996,meters,jsons/v1_VE1000_randls_65_rotated.json,796149,1006037,27,Man
80,865285,DepthScenes,duration_manipulation_targetAtFixation,jsons/v1_VE1000_randls_65_rotated.json,http://54.235.29.9/FacialAge/BNav_EC2/DepthDuration/v2_depth_duration_MTurk/v2_DepthDuration_HTML.html#39,39,1366,625,1366,768,8-22-2022,8-0-26,81,depth_duration_stimuli/000742_2014-06-08_18-48-09_260595134347_rgbf000164-resize_4/000742_2014-06-08_18-48-09_260595134347_rgbf000164-resize_4-target.png,1000,4.632,2,4329,994,meters,jsons/v1_VE1000_randls_65_rotated.json,796149,1006037,27,Man
81,865285,DepthScenes,duration_manipulation_targetAtFixation,jsons/v1_VE1000_randls_65_rotated.json,http://54.235.29.9/FacialAge/BNav_EC2/DepthDuration/v2_depth_duration_MTurk/v2_DepthDuration_HTML.html#39,39,1366,625,1366,768,8-22-2022,8-0-26,82,depth_duration_stimuli/001066_2014-06-08_22-03-20_260595134347_rgbf000066-resize_4/001066_2014-06-08_22-03-20_260595134347_rgbf000066-resize_4-target.png,1000,4.2330000000000005,3,4112,995,meters,jsons/v1_VE1000_randls_65_rotated.json,796149,1006037,27,Man
82,865285,DepthScenes,duration_manipulation_targetAtFixation,jsons/v1_VE1000_randls_65_rotated.json,http://54.235.29.9/FacialAge/BNav_EC2/DepthDuration/v2_depth_duration_MTurk/v2_DepthDuration_HTML.html#39,39,1366,625,1366,768,8-22-2022,8-0-26,83,depth_duration_stimuli/000457_2014-06-08_16-52-43_260595134347_rgbf000199-resize_1/000457_2014-06-08_16-52-43_260595134347_rgbf000199-resize_1-target.png,1000,3.6489999999999996,2,4789,1000,meters,jsons/v1_VE1000_randls_65_rotated.json,796149,1006037,27,Man
83,865285,DepthScenes,duration_manipulation_targetAtFixation,jsons/v1_VE1000_randls_65_rotated.json,http://54.235.29.9/FacialAge/BNav_EC2/DepthDuration/v2_depth_duration_MTurk/v2_DepthDuration_HTML.html#39,39,1366,625,1366,768,8-22-2022,8-0-26,84,depth_duration_stimuli/000929_2014-06-09_16-33-19_260595134347_rgbf000139-resize_0/000929_2014-06-09_16-33-19_260595134347_rgbf000139-resize_0-target.png,1000,2.8680000000000003,3,4010,996,meters,jsons/v1_VE1000_randls_65_rotated.json,796149,1006037,27,Man
84,865285,DepthScenes,duration_manipulation_targetAtFixation,jsons/v1_VE1000_randls_65_rotated.json,http://54.235.29.9/FacialAge/BNav_EC2/DepthDuration/v2_depth_duration_MTurk/v2_DepthDuration_HTML.html#39,39,1366,625,1366,768,8-22-2022,8-0-26,85,depth_duration_stimuli/002340_2014-06-28_20-05-46_260595134347_rgbf000113-resize_0/002340_2014-06-28_20-05-46_260595134347_rgbf000113-resize_0-target.png,1000,2.4735,3,3900,1009,meters,jsons/v1_VE1000_randls_65_rotated.json,796149,1006037,27,Man
85,865285,DepthScenes,duration_manipulation_targetAtFixation,jsons/v1_VE1000_randls_65_rotated.json,http://54.235.29.9/FacialAge/BNav_EC2/DepthDuration/v2_depth_duration_MTurk/v2_DepthDuration_HTML.html#39,39,1366,625,1366,768,8-22-2022,8-0-26,86,depth_duration_stimuli/001016_2014-06-09_16-16-10_260595134347_rgbf000112-resize_5/001016_2014-06-09_16-16-10_260595134347_rgbf000112-resize_5-target.png,1000,1.6565,2,4121,992,meters,jsons/v1_VE1000_randls_65_rotated.json,796149,1006037,27,Man
86,865285,DepthScenes,duration_manipulation_targetAtFixation,jsons/v1_VE1000_randls_65_rotated.json,http://54.235.29.9/FacialAge/BNav_EC2/DepthDuration/v2_depth_duration_MTurk/v2_DepthDuration_HTML.html#39,39,1366,625,1366,768,8-22-2022,8-0-26,87,depth_duration_stimuli/002323_2014-06-28_20-01-54_260595134347_rgbf000051-resize_4/002323_2014-06-28_20-01-54_260595134347_rgbf000051-resize_4-target.png,1000,3.7310000000000003,3,3948,987,meters,jsons/v1_VE1000_randls_65_rotated.json,796149,1006037,27,Man
87,865285,DepthScenes,duration_manipulation_targetAtFixation,jsons/v1_VE1000_randls_65_rotated.json,http://54.235.29.9/FacialAge/BNav_EC2/DepthDuration/v2_depth_duration_MTurk/v2_DepthDuration_HTML.html#39,39,1366,625,1366,768,8-22-2022,8-0-26,88,depth_duration_stimuli/000917_2014-06-09_22-45-29_260595134347_rgbf000149-resize_3/000917_2014-06-09_22-45-29_260595134347_rgbf000149-resize_3-target.png,1000,4.1865,2,4567,992,meters,jsons/v1_VE1000_randls_65_rotated.json,796149,1006037,27,Man
88,865285,DepthScenes,duration_manipulation_targetAtFixation,jsons/v1_VE1000_randls_65_rotated.json,http://54.235.29.9/FacialAge/BNav_EC2/DepthDuration/v2_depth_duration_MTurk/v2_DepthDuration_HTML.html#39,39,1366,625,1366,768,8-22-2022,8-0-26,89,depth_duration_stimuli/002875_2014-06-01_15-19-00_094959634447_rgbf000151-resize_1/002875_2014-06-01_15-19-00_094959634447_rgbf000151-resize_1-target.png,1000,1.9675,1,3828,1001,meters,jsons/v1_VE1000_randls_65_rotated.json,796149,1006037,27,Man
89,865285,DepthScenes,duration_manipulation_targetAtFixation,jsons/v1_VE1000_randls_65_rotated.json,http://54.235.29.9/FacialAge/BNav_EC2/DepthDuration/v2_depth_duration_MTurk/v2_DepthDuration_HTML.html#39,39,1366,625,1366,768,8-22-2022,8-0-26,90,depth_duration_stimuli/001011_2014-06-08_23-18-54_260595134347_rgbf000044-resize_4/001011_2014-06-08_23-18-54_260595134347_rgbf000044-resize_4-target.png,1000,2.4730000000000003,2,4236,985,meters,jsons/v1_VE1000_randls_65_rotated.json,796149,1006037,27,Man
90,865285,DepthScenes,duration_manipulation_targetAtFixation,jsons/v1_VE1000_randls_65_rotated.json,http://54.235.29.9/FacialAge/BNav_EC2/DepthDuration/v2_depth_duration_MTurk/v2_DepthDuration_HTML.html#39,39,1366,625,1366,768,8-22-2022,8-0-26,91,depth_duration_stimuli/003228_2014-05-14_13-42-35_094959634447_rgbf000101-resize_1/003228_2014-05-14_13-42-35_094959634447_rgbf000101-resize_1-target.png,1000,1.9680000000000002,2,5268,990,meters,jsons/v1_VE1000_randls_65_rotated.json,796149,1006037,27,Man
91,865285,DepthScenes,duration_manipulation_targetAtFixation,jsons/v1_VE1000_randls_65_rotated.json,http://54.235.29.9/FacialAge/BNav_EC2/DepthDuration/v2_depth_duration_MTurk/v2_DepthDuration_HTML.html#39,39,1366,625,1366,768,8-22-2022,8-0-26,92,depth_duration_stimuli/002600_2014-06-24_14-27-04_094959634447_rgbf000074-resize_2/002600_2014-06-24_14-27-04_094959634447_rgbf000074-resize_2-target.png,1000,2.7575,1,4438,1001,meters,jsons/v1_VE1000_randls_65_rotated.json,796149,1006037,27,Man
92,865285,DepthScenes,duration_manipulation_targetAtFixation,jsons/v1_VE1000_randls_65_rotated.json,http://54.235.29.9/FacialAge/BNav_EC2/DepthDuration/v2_depth_duration_MTurk/v2_DepthDuration_HTML.html#39,39,1366,625,1366,768,8-22-2022,8-0-26,93,depth_duration_stimuli/003010_2014-06-15_12-54-35_094959634447_rgbf000112-resize_0/003010_2014-06-15_12-54-35_094959634447_rgbf000112-resize_0-target.png,1000,3.1185,2,5774,995,meters,jsons/v1_VE1000_randls_65_rotated.json,796149,1006037,27,Man
93,865285,DepthScenes,duration_manipulation_targetAtFixation,jsons/v1_VE1000_randls_65_rotated.json,http://54.235.29.9/FacialAge/BNav_EC2/DepthDuration/v2_depth_duration_MTurk/v2_DepthDuration_HTML.html#39,39,1366,625,1366,768,8-22-2022,8-0-26,94,depth_duration_stimuli/001810_2014-06-26_20-51-35_260595134347_rgbf000040-resize_3/001810_2014-06-26_20-51-35_260595134347_rgbf000040-resize_3-target.png,1000,2.2525,3,5129,994,meters,jsons/v1_VE1000_randls_65_rotated.json,796149,1006037,27,Man
94,865285,DepthScenes,duration_manipulation_targetAtFixation,jsons/v1_VE1000_randls_65_rotated.json,http://54.235.29.9/FacialAge/BNav_EC2/DepthDuration/v2_depth_duration_MTurk/v2_DepthDuration_HTML.html#39,39,1366,625,1366,768,8-22-2022,8-0-26,95,depth_duration_stimuli/002995_2014-06-15_12-31-26_094959634447_rgbf000150-resize_1/002995_2014-06-15_12-31-26_094959634447_rgbf000150-resize_1-target.png,1000,3.8360000000000003,3,3692,1002,meters,jsons/v1_VE1000_randls_65_rotated.json,796149,1006037,27,Man
95,865285,DepthScenes,duration_manipulation_targetAtFixation,jsons/v1_VE1000_randls_65_rotated.json,http://54.235.29.9/FacialAge/BNav_EC2/DepthDuration/v2_depth_duration_MTurk/v2_DepthDuration_HTML.html#39,39,1366,625,1366,768,8-22-2022,8-0-26,96,depth_duration_stimuli/002748_2014-06-22_19-07-22_094959634447_rgbf000078-resize_1/002748_2014-06-22_19-07-22_094959634447_rgbf000078-resize_1-target.png,1000,4.6705,2,7630,999,meters,jsons/v1_VE1000_randls_65_rotated.json,796149,1006037,27,Man
96,865285,DepthScenes,duration_manipulation_targetAtFixation,jsons/v1_VE1000_randls_65_rotated.json,http://54.235.29.9/FacialAge/BNav_EC2/DepthDuration/v2_depth_duration_MTurk/v2_DepthDuration_HTML.html#39,39,1366,625,1366,768,8-22-2022,8-0-26,97,depth_duration_stimuli/002467_2014-06-28_20-38-07_260595134347_rgbf000026-resize_2/002467_2014-06-28_20-38-07_260595134347_rgbf000026-resize_2-target.png,1000,4.742,2,4365,991,meters,jsons/v1_VE1000_randls_65_rotated.json,796149,1006037,27,Man
97,865285,DepthScenes,duration_manipulation_targetAtFixation,jsons/v1_VE1000_randls_65_rotated.json,http://54.235.29.9/FacialAge/BNav_EC2/DepthDuration/v2_depth_duration_MTurk/v2_DepthDuration_HTML.html#39,39,1366,625,1366,768,8-22-2022,8-0-26,98,depth_duration_stimuli/002570_2014-06-24_13-59-54_094959634447_rgbf000059-resize_0/002570_2014-06-24_13-59-54_094959634447_rgbf000059-resize_0-target.png,1000,4.037,1,4252,985,meters,jsons/v1_VE1000_randls_65_rotated.json,796149,1006037,27,Man
98,865285,DepthScenes,duration_manipulation_targetAtFixation,jsons/v1_VE1000_randls_65_rotated.json,http://54.235.29.9/FacialAge/BNav_EC2/DepthDuration/v2_depth_duration_MTurk/v2_DepthDuration_HTML.html#39,39,1366,625,1366,768,8-22-2022,8-0-26,99,depth_duration_stimuli/001222_2014-06-17_16-24-06_260595134347_rgbf000073-resize_0/001222_2014-06-17_16-24-06_260595134347_rgbf000073-resize-original.jpg,1000,1.4385,0,4063,998,meters,jsons/v1_VE1000_randls_65_rotated.json,796149,1006037,27,Man
99,865285,DepthScenes,duration_manipulation_targetAtFixation,jsons/v1_VE1000_randls_65_rotated.json,http://54.235.29.9/FacialAge/BNav_EC2/DepthDuration/v2_depth_duration_MTurk/v2_DepthDuration_HTML.html#39,39,1366,625,1366,768,8-22-2022,8-0-26,100,depth_duration_stimuli/003495_2014-05-21_16-01-51_094959634447_rgbf000100-resize_3/003495_2014-05-21_16-01-51_094959634447_rgbf000100-resize_3-target.png,1000,1.6255,2,3779,984,meters,jsons/v1_VE1000_randls_65_rotated.json,796149,1006037,27,Man
100,865285,DepthScenes,duration_manipulation_targetAtFixation,jsons/v1_VE1000_randls_65_rotated.json,http://54.235.29.9/FacialAge/BNav_EC2/DepthDuration/v2_depth_duration_MTurk/v2_DepthDuration_HTML.html#39,39,1366,625,1366,768,8-22-2022,8-0-26,101,depth_duration_stimuli/001244_2014-06-17_16-47-45_260595134347_rgbf000030-resize_4/001244_2014-06-17_16-47-45_260595134347_rgbf000030-resize_4-target.png,1000,2.0425,3,4674,1014,meters,jsons/v1_VE1000_randls_65_rotated.json,796149,1006037,27,Man
101,865285,DepthScenes,duration_manipulation_targetAtFixation,jsons/v1_VE1000_randls_65_rotated.json,http://54.235.29.9/FacialAge/BNav_EC2/DepthDuration/v2_depth_duration_MTurk/v2_DepthDuration_HTML.html#39,39,1366,625,1366,768,8-22-2022,8-0-26,102,depth_duration_stimuli/000137_2014-05-20_17-04-49_260595134347_rgbf000120-resize_1/000137_2014-05-20_17-04-49_260595134347_rgbf000120-resize_1-target.png,1000,3.786,2,3780,981,meters,jsons/v1_VE1000_randls_65_rotated.json,796149,1006037,27,Man
102,865285,DepthScenes,duration_manipulation_targetAtFixation,jsons/v1_VE1000_randls_65_rotated.json,http://54.235.29.9/FacialAge/BNav_EC2/DepthDuration/v2_depth_duration_MTurk/v2_DepthDuration_HTML.html#39,39,1366,625,1366,768,8-22-2022,8-0-26,103,depth_duration_stimuli/000736_2014-06-08_18-24-15_260595134347_rgbf000206-resize_3/000736_2014-06-08_18-24-15_260595134347_rgbf000206-resize_3-target.png,1000,3.515,2,3563,985,meters,jsons/v1_VE1000_randls_65_rotated.json,796149,1006037,27,Man
103,865285,DepthScenes,duration_manipulation_targetAtFixation,jsons/v1_VE1000_randls_65_rotated.json,http://54.235.29.9/FacialAge/BNav_EC2/DepthDuration/v2_depth_duration_MTurk/v2_DepthDuration_HTML.html#39,39,1366,625,1366,768,8-22-2022,8-0-26,104,depth_duration_stimuli/001828_2014-06-26_21-40-03_260595134347_rgbf000024-resize_0/001828_2014-06-26_21-40-03_260595134347_rgbf000024-resize_0-target.png,1000,4.8260000000000005,3,3909,989,meters,jsons/v1_VE1000_randls_65_rotated.json,796149,1006037,27,Man
104,865285,DepthScenes,duration_manipulation_targetAtFixation,jsons/v1_VE1000_randls_65_rotated.json,http://54.235.29.9/FacialAge/BNav_EC2/DepthDuration/v2_depth_duration_MTurk/v2_DepthDuration_HTML.html#39,39,1366,625,1366,768,8-22-2022,8-0-26,105,depth_duration_stimuli/000009_2014-05-26_14-32-05_260595134347_rgbf000034-resize_3/000009_2014-05-26_14-32-05_260595134347_rgbf000034-resize_3-target.png,1000,3.8715,3,3936,1003,meters,jsons/v1_VE1000_randls_65_rotated.json,796149,1006037,27,Man
105,865285,DepthScenes,duration_manipulation_targetAtFixation,jsons/v1_VE1000_randls_65_rotated.json,http://54.235.29.9/FacialAge/BNav_EC2/DepthDuration/v2_depth_duration_MTurk/v2_DepthDuration_HTML.html#39,39,1366,625,1366,768,8-22-2022,8-0-26,106,depth_duration_stimuli/002136_2014-06-25_21-18-03_260595134347_rgbf000109-resize_3/002136_2014-06-25_21-18-03_260595134347_rgbf000109-resize_3-target.png,1000,1.9569999999999999,2,4404,1005,meters,jsons/v1_VE1000_randls_65_rotated.json,796149,1006037,27,Man
106,865285,DepthScenes,duration_manipulation_targetAtFixation,jsons/v1_VE1000_randls_65_rotated.json,http://54.235.29.9/FacialAge/BNav_EC2/DepthDuration/v2_depth_duration_MTurk/v2_DepthDuration_HTML.html#39,39,1366,625,1366,768,8-22-2022,8-0-26,107,depth_duration_stimuli/002964_2014-06-08_17-46-11_094959634447_rgbf000091-resize_4/002964_2014-06-08_17-46-11_094959634447_rgbf000091-resize_4-target.png,1000,1.6909999999999998,2,4279,1012,meters,jsons/v1_VE1000_randls_65_rotated.json,796149,1006037,27,Man
107,865285,DepthScenes,duration_manipulation_targetAtFixation,jsons/v1_VE1000_randls_65_rotated.json,http://54.235.29.9/FacialAge/BNav_EC2/DepthDuration/v2_depth_duration_MTurk/v2_DepthDuration_HTML.html#39,39,1366,625,1366,768,8-22-2022,8-0-26,108,depth_duration_stimuli/000191_2014-05-12_17-07-38_260595134347_rgbf000199-resize_0/000191_2014-05-12_17-07-38_260595134347_rgbf000199-resize_0-target.png,1000,3.7995,3,3638,983,meters,jsons/v1_VE1000_randls_65_rotated.json,796149,1006037,27,Man
108,865285,DepthScenes,duration_manipulation_targetAtFixation,jsons/v1_VE1000_randls_65_rotated.json,http://54.235.29.9/FacialAge/BNav_EC2/DepthDuration/v2_depth_duration_MTurk/v2_DepthDuration_HTML.html#39,39,1366,625,1366,768,8-22-2022,8-0-26,109,depth_duration_stimuli/000493_2014-06-09_21-01-18_260595134347_rgbf000196-resize_3/000493_2014-06-09_21-01-18_260595134347_rgbf000196-resize_3-target.png,1000,3.44,2,3822,978,meters,jsons/v1_VE1000_randls_65_rotated.json,796149,1006037,27,Man
109,865285,DepthScenes,duration_manipulation_targetAtFixation,jsons/v1_VE1000_randls_65_rotated.json,http://54.235.29.9/FacialAge/BNav_EC2/DepthDuration/v2_depth_duration_MTurk/v2_DepthDuration_HTML.html#39,39,1366,625,1366,768,8-22-2022,8-0-26,110,depth_duration_stimuli/001100_2014-06-15_17-46-26_260595134347_rgbf000225-resize_2/001100_2014-06-15_17-46-26_260595134347_rgbf000225-resize_2-target.png,1000,2.24,1,3759,998,meters,jsons/v1_VE1000_randls_65_rotated.json,796149,1006037,27,Man
110,865285,DepthScenes,duration_manipulation_targetAtFixation,jsons/v1_VE1000_randls_65_rotated.json,http://54.235.29.9/FacialAge/BNav_EC2/DepthDuration/v2_depth_duration_MTurk/v2_DepthDuration_HTML.html#39,39,1366,625,1366,768,8-22-2022,8-0-26,111,depth_duration_stimuli/002784_2014-06-22_19-26-30_094959634447_rgbf000083-resize_3/002784_2014-06-22_19-26-30_094959634447_rgbf000083-resize_3-target.png,1000,1.8046666666667,2,3925,987,meters,jsons/v1_VE1000_randls_65_rotated.json,796149,1006037,27,Man
111,865285,DepthScenes,duration_manipulation_targetAtFixation,jsons/v1_VE1000_randls_65_rotated.json,http://54.235.29.9/FacialAge/BNav_EC2/DepthDuration/v2_depth_duration_MTurk/v2_DepthDuration_HTML.html#39,39,1366,625,1366,768,8-22-2022,8-0-26,112,depth_duration_stimuli/002545_2014-06-24_13-38-53_094959634447_rgbf000080-resize_4/002545_2014-06-24_13-38-53_094959634447_rgbf000080-resize_4-target.png,1000,1.9205,2,4035,994,meters,jsons/v1_VE1000_randls_65_rotated.json,796149,1006037,27,Man
112,865285,DepthScenes,duration_manipulation_targetAtFixation,jsons/v1_VE1000_randls_65_rotated.json,http://54.235.29.9/FacialAge/BNav_EC2/DepthDuration/v2_depth_duration_MTurk/v2_DepthDuration_HTML.html#39,39,1366,625,1366,768,8-22-2022,8-0-26,113,depth_duration_stimuli/001092_2014-06-15_17-34-58_260595134347_rgbf000171-resize_3/001092_2014-06-15_17-34-58_260595134347_rgbf000171-resize_3-target.png,1000,2.6935,2,3983,1043,meters,jsons/v1_VE1000_randls_65_rotated.json,796149,1006037,27,Man
113,865285,DepthScenes,duration_manipulation_targetAtFixation,jsons/v1_VE1000_randls_65_rotated.json,http://54.235.29.9/FacialAge/BNav_EC2/DepthDuration/v2_depth_duration_MTurk/v2_DepthDuration_HTML.html#39,39,1366,625,1366,768,8-22-2022,8-0-26,114,depth_duration_stimuli/003048_2014-06-15_13-49-43_094959634447_rgbf000150-resize_1/003048_2014-06-15_13-49-43_094959634447_rgbf000150-resize_1-target.png,1000,4.0035,3,4363,1000,meters,jsons/v1_VE1000_randls_65_rotated.json,796149,1006037,27,Man
114,865285,DepthScenes,duration_manipulation_targetAtFixation,jsons/v1_VE1000_randls_65_rotated.json,http://54.235.29.9/FacialAge/BNav_EC2/DepthDuration/v2_depth_duration_MTurk/v2_DepthDuration_HTML.html#39,39,1366,625,1366,768,8-22-2022,8-0-26,115,depth_duration_stimuli/002043_2014-06-24_20-29-38_260595134347_rgbf000039-resize_4/002043_2014-06-24_20-29-38_260595134347_rgbf000039-resize_4-target.png,1000,2.8435,2,4564,1014,meters,jsons/v1_VE1000_randls_65_rotated.json,796149,1006037,27,Man
115,865285,DepthScenes,duration_manipulation_targetAtFixation,jsons/v1_VE1000_randls_65_rotated.json,http://54.235.29.9/FacialAge/BNav_EC2/DepthDuration/v2_depth_duration_MTurk/v2_DepthDuration_HTML.html#39,39,1366,625,1366,768,8-22-2022,8-0-26,116,depth_duration_stimuli/000691_2014-06-08_13-08-50_260595134347_rgbf000132-resize_3/000691_2014-06-08_13-08-50_260595134347_rgbf000132-resize_3-target.png,1000,4.1530000000000005,2,4030,991,meters,jsons/v1_VE1000_randls_65_rotated.json,796149,1006037,27,Man
116,865285,DepthScenes,duration_manipulation_targetAtFixation,jsons/v1_VE1000_randls_65_rotated.json,http://54.235.29.9/FacialAge/BNav_EC2/DepthDuration/v2_depth_duration_MTurk/v2_DepthDuration_HTML.html#39,39,1366,625,1366,768,8-22-2022,8-0-26,117,depth_duration_stimuli/002213_2014-06-28_18-37-58_260595134347_rgbf000055-resize_1/002213_2014-06-28_18-37-58_260595134347_rgbf000055-resize_1-target.png,1000,3.62,3,3761,988,meters,jsons/v1_VE1000_randls_65_rotated.json,796149,1006037,27,Man
117,865285,DepthScenes,duration_manipulation_targetAtFixation,jsons/v1_VE1000_randls_65_rotated.json,http://54.235.29.9/FacialAge/BNav_EC2/DepthDuration/v2_depth_duration_MTurk/v2_DepthDuration_HTML.html#39,39,1366,625,1366,768,8-22-2022,8-0-26,118,depth_duration_stimuli/002678_2014-06-13_16-15-32_094959634447_rgbf000151-resize_6/002678_2014-06-13_16-15-32_094959634447_rgbf000151-resize_6-target.png,1000,2.1830000000000003,2,3863,999,meters,jsons/v1_VE1000_randls_65_rotated.json,796149,1006037,27,Man
118,865285,DepthScenes,duration_manipulation_targetAtFixation,jsons/v1_VE1000_randls_65_rotated.json,http://54.235.29.9/FacialAge/BNav_EC2/DepthDuration/v2_depth_duration_MTurk/v2_DepthDuration_HTML.html#39,39,1366,625,1366,768,8-22-2022,8-0-26,119,depth_duration_stimuli/000368_2014-06-09_15-53-01_260595134347_rgbf000155-resize_2/000368_2014-06-09_15-53-01_260595134347_rgbf000155-resize_2-target.png,1000,2.4859999999999998,3,4204,1003,meters,jsons/v1_VE1000_randls_65_rotated.json,796149,1006037,27,Man
119,865285,DepthScenes,duration_manipulation_targetAtFixation,jsons/v1_VE1000_randls_65_rotated.json,http://54.235.29.9/FacialAge/BNav_EC2/DepthDuration/v2_depth_duration_MTurk/v2_DepthDuration_HTML.html#39,39,1366,625,1366,768,8-22-2022,8-0-26,120,depth_duration_stimuli/000787_2014-06-08_22-33-53_260595134347_rgbf000175-resize_1/000787_2014-06-08_22-33-53_260595134347_rgbf000175-resize-original.jpg,1000,4.784,0,3772,1009,meters,jsons/v1_VE1000_randls_65_rotated.json,796149,1006037,27,Man
120,865285,DepthScenes,duration_manipulation_targetAtFixation,jsons/v1_VE1000_randls_65_rotated.json,http://54.235.29.9/FacialAge/BNav_EC2/DepthDuration/v2_depth_duration_MTurk/v2_DepthDuration_HTML.html#39,39,1366,625,1366,768,8-22-2022,8-0-26,121,depth_duration_stimuli/001450_2014-06-19_17-02-03_260595134347_rgbf000203-resize_4/001450_2014-06-19_17-02-03_260595134347_rgbf000203-resize_4-target.png,1000,4.0106666666667,2,3551,995,meters,jsons/v1_VE1000_randls_65_rotated.json,796149,1006037,27,Man
121,865285,DepthScenes,duration_manipulation_targetAtFixation,jsons/v1_VE1000_randls_65_rotated.json,http://54.235.29.9/FacialAge/BNav_EC2/DepthDuration/v2_depth_duration_MTurk/v2_DepthDuration_HTML.html#39,39,1366,625,1366,768,8-22-2022,8-0-26,122,depth_duration_stimuli/001449_2014-06-19_17-01-27_260595134347_rgbf000116-resize_2/001449_2014-06-19_17-01-27_260595134347_rgbf000116-resize_2-target.png,1000,3.452,3,3763,1003,meters,jsons/v1_VE1000_randls_65_rotated.json,796149,1006037,27,Man
122,865285,DepthScenes,duration_manipulation_targetAtFixation,jsons/v1_VE1000_randls_65_rotated.json,http://54.235.29.9/FacialAge/BNav_EC2/DepthDuration/v2_depth_duration_MTurk/v2_DepthDuration_HTML.html#39,39,1366,625,1366,768,8-22-2022,8-0-26,123,depth_duration_stimuli/002639_2014-06-24_14-51-37_094959634447_rgbf000074-resize_4/002639_2014-06-24_14-51-37_094959634447_rgbf000074-resize_4-target.png,1000,4.0375,2,3670,997,meters,jsons/v1_VE1000_randls_65_rotated.json,796149,1006037,27,Man
123,865285,DepthScenes,duration_manipulation_targetAtFixation,jsons/v1_VE1000_randls_65_rotated.json,http://54.235.29.9/FacialAge/BNav_EC2/DepthDuration/v2_depth_duration_MTurk/v2_DepthDuration_HTML.html#39,39,1366,625,1366,768,8-22-2022,8-0-26,124,depth_duration_stimuli/003292_2014-05-14_21-53-49_094959634447_rgbf000100-resize_2/003292_2014-05-14_21-53-49_094959634447_rgbf000100-resize_2-target.png,1000,3.4815,2,3538,985,meters,jsons/v1_VE1000_randls_65_rotated.json,796149,1006037,27,Man
124,865285,DepthScenes,duration_manipulation_targetAtFixation,jsons/v1_VE1000_randls_65_rotated.json,http://54.235.29.9/FacialAge/BNav_EC2/DepthDuration/v2_depth_duration_MTurk/v2_DepthDuration_HTML.html#39,39,1366,625,1366,768,8-22-2022,8-0-26,125,depth_duration_stimuli/000943_2014-06-09_19-31-07_260595134347_rgbf000128-resize_1/000943_2014-06-09_19-31-07_260595134347_rgbf000128-resize_1-target.png,1000,1.9765,1,3899,1013,meters,jsons/v1_VE1000_randls_65_rotated.json,796149,1006037,27,Man
125,865285,DepthScenes,duration_manipulation_targetAtFixation,jsons/v1_VE1000_randls_65_rotated.json,http://54.235.29.9/FacialAge/BNav_EC2/DepthDuration/v2_depth_duration_MTurk/v2_DepthDuration_HTML.html#39,39,1366,625,1366,768,8-22-2022,8-0-26,126,depth_duration_stimuli/003070_2014-06-15_14-58-27_094959634447_rgbf000150-resize_3/003070_2014-06-15_14-58-27_094959634447_rgbf000150-resize_3-target.png,1000,2.9415,2,3500,1004,meters,jsons/v1_VE1000_randls_65_rotated.json,796149,1006037,27,Man
126,865285,DepthScenes,duration_manipulation_targetAtFixation,jsons/v1_VE1000_randls_65_rotated.json,http://54.235.29.9/FacialAge/BNav_EC2/DepthDuration/v2_depth_duration_MTurk/v2_DepthDuration_HTML.html#39,39,1366,625,1366,768,8-22-2022,8-0-26,127,depth_duration_stimuli/003338_2014-05-20_11-01-23_094959634447_rgbf000051-resize_6/003338_2014-05-20_11-01-23_094959634447_rgbf000051-resize_6-target.png,1000,1.693,3,3903,1008,meters,jsons/v1_VE1000_randls_65_rotated.json,796149,1006037,27,Man
127,865285,DepthScenes,duration_manipulation_targetAtFixation,jsons/v1_VE1000_randls_65_rotated.json,http://54.235.29.9/FacialAge/BNav_EC2/DepthDuration/v2_depth_duration_MTurk/v2_DepthDuration_HTML.html#39,39,1366,625,1366,768,8-22-2022,8-0-26,128,depth_duration_stimuli/002509_2014-06-24_13-19-22_094959634447_rgbf000077-resize_0/002509_2014-06-24_13-19-22_094959634447_rgbf000077-resize_0-target.png,1000,1.3065,2,4149,1007,meters,jsons/v1_VE1000_randls_65_rotated.json,796149,1006037,27,Man
128,865285,DepthScenes,duration_manipulation_targetAtFixation,jsons/v1_VE1000_randls_65_rotated.json,http://54.235.29.9/FacialAge/BNav_EC2/DepthDuration/v2_depth_duration_MTurk/v2_DepthDuration_HTML.html#39,39,1366,625,1366,768,8-22-2022,8-0-26,129,depth_duration_stimuli/001136_2014-06-17_15-19-41_260595134347_rgbf000076-resize_3/001136_2014-06-17_15-19-41_260595134347_rgbf000076-resize_3-target.png,1000,1.8655,2,4086,988,meters,jsons/v1_VE1000_randls_65_rotated.json,796149,1006037,27,Man
129,865285,DepthScenes,duration_manipulation_targetAtFixation,jsons/v1_VE1000_randls_65_rotated.json,http://54.235.29.9/FacialAge/BNav_EC2/DepthDuration/v2_depth_duration_MTurk/v2_DepthDuration_HTML.html#39,39,1366,625,1366,768,8-22-2022,8-0-26,130,depth_duration_stimuli/001164_2014-06-17_15-35-46_260595134347_rgbf000085-resize_3/001164_2014-06-17_15-35-46_260595134347_rgbf000085-resize_3-target.png,1000,2.354,3,4194,1014,meters,jsons/v1_VE1000_randls_65_rotated.json,796149,1006037,27,Man
130,865285,DepthScenes,duration_manipulation_targetAtFixation,jsons/v1_VE1000_randls_65_rotated.json,http://54.235.29.9/FacialAge/BNav_EC2/DepthDuration/v2_depth_duration_MTurk/v2_DepthDuration_HTML.html#39,39,1366,625,1366,768,8-22-2022,8-0-26,131,depth_duration_stimuli/000635_2014-06-08_16-38-42_260595134347_rgbf000106-resize_1/000635_2014-06-08_16-38-42_260595134347_rgbf000106-resize_1-target.png,1000,2.074,2,3580,990,meters,jsons/v1_VE1000_randls_65_rotated.json,796149,1006037,27,Man
131,865285,DepthScenes,duration_manipulation_targetAtFixation,jsons/v1_VE1000_randls_65_rotated.json,http://54.235.29.9/FacialAge/BNav_EC2/DepthDuration/v2_depth_duration_MTurk/v2_DepthDuration_HTML.html#39,39,1366,625,1366,768,8-22-2022,8-0-26,132,depth_duration_stimuli/002279_2014-06-28_18-55-32_260595134347_rgbf000040-resize_5/002279_2014-06-28_18-55-32_260595134347_rgbf000040-resize_5-target.png,1000,1.5043333333333,3,3990,1004,meters,jsons/v1_VE1000_randls_65_rotated.json,796149,1006037,27,Man
132,865285,DepthScenes,duration_manipulation_targetAtFixation,jsons/v1_VE1000_randls_65_rotated.json,http://54.235.29.9/FacialAge/BNav_EC2/DepthDuration/v2_depth_duration_MTurk/v2_DepthDuration_HTML.html#39,39,1366,625,1366,768,8-22-2022,8-0-26,133,depth_duration_stimuli/003587_2014-05-23_16-48-02_094959634447_rgbf002384-resize_2/003587_2014-05-23_16-48-02_094959634447_rgbf002384-resize_2-target.png,1000,1.357,2,4100,986,meters,jsons/v1_VE1000_randls_65_rotated.json,796149,1006037,27,Man
133,865285,DepthScenes,duration_manipulation_targetAtFixation,jsons/v1_VE1000_randls_65_rotated.json,http://54.235.29.9/FacialAge/BNav_EC2/DepthDuration/v2_depth_duration_MTurk/v2_DepthDuration_HTML.html#39,39,1366,625,1366,768,8-22-2022,8-0-26,134,depth_duration_stimuli/001167_2014-06-17_15-38-07_260595134347_rgbf000108-resize_0/001167_2014-06-17_15-38-07_260595134347_rgbf000108-resize_0-target.png,1000,1.8505,3,4031,993,meters,jsons/v1_VE1000_randls_65_rotated.json,796149,1006037,27,Man
134,865285,DepthScenes,duration_manipulation_targetAtFixation,jsons/v1_VE1000_randls_65_rotated.json,http://54.235.29.9/FacialAge/BNav_EC2/DepthDuration/v2_depth_duration_MTurk/v2_DepthDuration_HTML.html#39,39,1366,625,1366,768,8-22-2022,8-0-26,135,depth_duration_stimuli/000375_2014-06-08_11-17-29_260595134347_rgbf000133-resize_2/000375_2014-06-08_11-17-29_260595134347_rgbf000133-resize-original.jpg,1000,4.718,0,3760,1007,meters,jsons/v1_VE1000_randls_65_rotated.json,796149,1006037,27,Man
135,865285,DepthScenes,duration_manipulation_targetAtFixation,jsons/v1_VE1000_randls_65_rotated.json,http://54.235.29.9/FacialAge/BNav_EC2/DepthDuration/v2_depth_duration_MTurk/v2_DepthDuration_HTML.html#39,39,1366,625,1366,768,8-22-2022,8-0-26,136,depth_duration_stimuli/002425_2014-06-28_20-27-29_260595134347_rgbf000031-resize_8/002425_2014-06-28_20-27-29_260595134347_rgbf000031-resize_8-target.png,1000,3.8960000000000004,2,4097,1007,meters,jsons/v1_VE1000_randls_65_rotated.json,796149,1006037,27,Man
136,865285,DepthScenes,duration_manipulation_targetAtFixation,jsons/v1_VE1000_randls_65_rotated.json,http://54.235.29.9/FacialAge/BNav_EC2/DepthDuration/v2_depth_duration_MTurk/v2_DepthDuration_HTML.html#39,39,1366,625,1366,768,8-22-2022,8-0-26,137,depth_duration_stimuli/000642_2014-06-08_16-59-25_260595134347_rgbf000098-resize_2/000642_2014-06-08_16-59-25_260595134347_rgbf000098-resize_2-target.png,1000,2.8815,3,4295,985,meters,jsons/v1_VE1000_randls_65_rotated.json,796149,1006037,27,Man
137,865285,DepthScenes,duration_manipulation_targetAtFixation,jsons/v1_VE1000_randls_65_rotated.json,http://54.235.29.9/FacialAge/BNav_EC2/DepthDuration/v2_depth_duration_MTurk/v2_DepthDuration_HTML.html#39,39,1366,625,1366,768,8-22-2022,8-0-26,138,depth_duration_stimuli/000409_2014-06-04_19-23-33_260595134347_rgbf000067-resize_0/000409_2014-06-04_19-23-33_260595134347_rgbf000067-resize_0-target.png,1000,3.7335,2,3960,996,meters,jsons/v1_VE1000_randls_65_rotated.json,796149,1006037,27,Man
138,865285,DepthScenes,duration_manipulation_targetAtFixation,jsons/v1_VE1000_randls_65_rotated.json,http://54.235.29.9/FacialAge/BNav_EC2/DepthDuration/v2_depth_duration_MTurk/v2_DepthDuration_HTML.html#39,39,1366,625,1366,768,8-22-2022,8-0-26,139,depth_duration_stimuli/002663_2014-06-13_15-50-26_094959634447_rgbf000075-resize_1/002663_2014-06-13_15-50-26_094959634447_rgbf000075-resize_1-target.png,1000,4.7495,3,4000,999,meters,jsons/v1_VE1000_randls_65_rotated.json,796149,1006037,27,Man
139,865285,DepthScenes,duration_manipulation_targetAtFixation,jsons/v1_VE1000_randls_65_rotated.json,http://54.235.29.9/FacialAge/BNav_EC2/DepthDuration/v2_depth_duration_MTurk/v2_DepthDuration_HTML.html#39,39,1366,625,1366,768,8-22-2022,8-0-26,140,depth_duration_stimuli/003490_2014-05-21_15-50-11_094959634447_rgbf000101-resize_3/003490_2014-05-21_15-50-11_094959634447_rgbf000101-resize_3-target.png,1000,3.6445,2,3784,1013,meters,jsons/v1_VE1000_randls_65_rotated.json,796149,1006037,27,Man
140,865285,DepthScenes,duration_manipulation_targetAtFixation,jsons/v1_VE1000_randls_65_rotated.json,http://54.235.29.9/FacialAge/BNav_EC2/DepthDuration/v2_depth_duration_MTurk/v2_DepthDuration_HTML.html#39,39,1366,625,1366,768,8-22-2022,8-0-26,141,depth_duration_stimuli/001175_2014-06-17_15-45-55_260595134347_rgbf000129-resize_4/001175_2014-06-17_15-45-55_260595134347_rgbf000129-resize_4-target.png,1000,4.255,2,3945,995,meters,jsons/v1_VE1000_randls_65_rotated.json,796149,1006037,27,Man
141,865285,DepthScenes,duration_manipulation_targetAtFixation,jsons/v1_VE1000_randls_65_rotated.json,http://54.235.29.9/FacialAge/BNav_EC2/DepthDuration/v2_depth_duration_MTurk/v2_DepthDuration_HTML.html#39,39,1366,625,1366,768,8-22-2022,8-0-26,142,depth_duration_stimuli/000502_2014-06-08_23-02-32_260595134347_rgbf000063-resize_4/000502_2014-06-08_23-02-32_260595134347_rgbf000063-resize_4-target.png,1000,2.431,3,3862,994,meters,jsons/v1_VE1000_randls_65_rotated.json,796149,1006037,27,Man
142,865285,DepthScenes,duration_manipulation_targetAtFixation,jsons/v1_VE1000_randls_65_rotated.json,http://54.235.29.9/FacialAge/BNav_EC2/DepthDuration/v2_depth_duration_MTurk/v2_DepthDuration_HTML.html#39,39,1366,625,1366,768,8-22-2022,8-0-26,143,depth_duration_stimuli/001199_2014-06-17_16-03-48_260595134347_rgbf000077-resize_0/001199_2014-06-17_16-03-48_260595134347_rgbf000077-resize_0-target.png,1000,3.4375,3,3629,1007,meters,jsons/v1_VE1000_randls_65_rotated.json,796149,1006037,27,Man
143,865285,DepthScenes,duration_manipulation_targetAtFixation,jsons/v1_VE1000_randls_65_rotated.json,http://54.235.29.9/FacialAge/BNav_EC2/DepthDuration/v2_depth_duration_MTurk/v2_DepthDuration_HTML.html#39,39,1366,625,1366,768,8-22-2022,8-0-26,144,depth_duration_stimuli/003081_2014-06-15_15-19-16_094959634447_rgbf000150-resize_1/003081_2014-06-15_15-19-16_094959634447_rgbf000150-resize_1-target.png,1000,3.9125,2,5164,999,meters,jsons/v1_VE1000_randls_65_rotated.json,796149,1006037,27,Man
144,865285,DepthScenes,duration_manipulation_targetAtFixation,jsons/v1_VE1000_randls_65_rotated.json,http://54.235.29.9/FacialAge/BNav_EC2/DepthDuration/v2_depth_duration_MTurk/v2_DepthDuration_HTML.html#39,39,1366,625,1366,768,8-22-2022,8-0-26,145,depth_duration_stimuli/001417_2014-06-19_16-25-36_260595134347_rgbf000115-resize_5/001417_2014-06-19_16-25-36_260595134347_rgbf000115-resize_5-target.png,1000,4.6255,3,3857,994,meters,jsons/v1_VE1000_randls_65_rotated.json,796149,1006037,27,Man
145,865285,DepthScenes,duration_manipulation_targetAtFixation,jsons/v1_VE1000_randls_65_rotated.json,http://54.235.29.9/FacialAge/BNav_EC2/DepthDuration/v2_depth_duration_MTurk/v2_DepthDuration_HTML.html#39,39,1366,625,1366,768,8-22-2022,8-0-26,146,depth_duration_stimuli/003079_2014-06-15_15-18-20_094959634447_rgbf000152-resize_8/003079_2014-06-15_15-18-20_094959634447_rgbf000152-resize_8-target.png,1000,2.8775,4,3922,1010,meters,jsons/v1_VE1000_randls_65_rotated.json,796149,1006037,27,Man
146,865285,DepthScenes,duration_manipulation_targetAtFixation,jsons/v1_VE1000_randls_65_rotated.json,http://54.235.29.9/FacialAge/BNav_EC2/DepthDuration/v2_depth_duration_MTurk/v2_DepthDuration_HTML.html#39,39,1366,625,1366,768,8-22-2022,8-0-26,147,depth_duration_stimuli/000506_2014-06-08_23-21-00_260595134347_rgbf000070-resize_7/000506_2014-06-08_23-21-00_260595134347_rgbf000070-resize_7-target.png,1000,4.0585,3,3869,1000,meters,jsons/v1_VE1000_randls_65_rotated.json,796149,1006037,27,Man
147,865285,DepthScenes,duration_manipulation_targetAtFixation,jsons/v1_VE1000_randls_65_rotated.json,http://54.235.29.9/FacialAge/BNav_EC2/DepthDuration/v2_depth_duration_MTurk/v2_DepthDuration_HTML.html#39,39,1366,625,1366,768,8-22-2022,8-0-26,148,depth_duration_stimuli/002199_2014-06-28_18-33-56_260595134347_rgbf000074-resize_0/002199_2014-06-28_18-33-56_260595134347_rgbf000074-resize_0-target.png,1000,1.996,2,3474,984,meters,jsons/v1_VE1000_randls_65_rotated.json,796149,1006037,27,Man
148,865285,DepthScenes,duration_manipulation_targetAtFixation,jsons/v1_VE1000_randls_65_rotated.json,http://54.235.29.9/FacialAge/BNav_EC2/DepthDuration/v2_depth_duration_MTurk/v2_DepthDuration_HTML.html#39,39,1366,625,1366,768,8-22-2022,8-0-26,149,depth_duration_stimuli/001056_2014-06-08_18-46-44_260595134347_rgbf000068-resize_0/001056_2014-06-08_18-46-44_260595134347_rgbf000068-resize_0-target.png,1000,2.6625,2,3621,1009,meters,jsons/v1_VE1000_randls_65_rotated.json,796149,1006037,27,Man
149,865285,DepthScenes,duration_manipulation_targetAtFixation,jsons/v1_VE1000_randls_65_rotated.json,http://54.235.29.9/FacialAge/BNav_EC2/DepthDuration/v2_depth_duration_MTurk/v2_DepthDuration_HTML.html#39,39,1366,625,1366,768,8-22-2022,8-0-26,150,depth_duration_stimuli/002660_2014-06-13_15-44-18_094959634447_rgbf001878-resize_2/002660_2014-06-13_15-44-18_094959634447_rgbf001878-resize_2-target.png,1000,3.576,3,3971,999,meters,jsons/v1_VE1000_randls_65_rotated.json,796149,1006037,27,Man
150,865285,DepthScenes,duration_manipulation_targetAtFixation,jsons/v1_VE1000_randls_65_rotated.json,http://54.235.29.9/FacialAge/BNav_EC2/DepthDuration/v2_depth_duration_MTurk/v2_DepthDuration_HTML.html#39,39,1366,625,1366,768,8-22-2022,8-0-26,151,depth_duration_stimuli/002153_2014-06-25_21-27-18_260595134347_rgbf000038-resize_5/002153_2014-06-25_21-27-18_260595134347_rgbf000038-resize_5-target.png,1000,2.505,2,4454,1001,meters,jsons/v1_VE1000_randls_65_rotated.json,796149,1006037,27,Man
151,865285,DepthScenes,duration_manipulation_targetAtFixation,jsons/v1_VE1000_randls_65_rotated.json,http://54.235.29.9/FacialAge/BNav_EC2/DepthDuration/v2_depth_duration_MTurk/v2_DepthDuration_HTML.html#39,39,1366,625,1366,768,8-22-2022,8-0-26,152,depth_duration_stimuli/000569_2014-06-09_22-51-47_260595134347_rgbf000141-resize_3/000569_2014-06-09_22-51-47_260595134347_rgbf000141-resize-original.jpg,1000,4.512,0,3714,1000,meters,jsons/v1_VE1000_randls_65_rotated.json,796149,1006037,27,Man
152,865285,DepthScenes,duration_manipulation_targetAtFixation,jsons/v1_VE1000_randls_65_rotated.json,http://54.235.29.9/FacialAge/BNav_EC2/DepthDuration/v2_depth_duration_MTurk/v2_DepthDuration_HTML.html#39,39,1366,625,1366,768,8-22-2022,8-0-26,153,depth_duration_stimuli/001571_2014-06-20_17-21-32_260595134347_rgbf000089-resize_1/001571_2014-06-20_17-21-32_260595134347_rgbf000089-resize_1-target.png,1000,1.86,2,3718,1025,meters,jsons/v1_VE1000_randls_65_rotated.json,796149,1006037,27,Man
153,865285,DepthScenes,duration_manipulation_targetAtFixation,jsons/v1_VE1000_randls_65_rotated.json,http://54.235.29.9/FacialAge/BNav_EC2/DepthDuration/v2_depth_duration_MTurk/v2_DepthDuration_HTML.html#39,39,1366,625,1366,768,8-22-2022,8-0-26,154,depth_duration_stimuli/002272_2014-06-28_18-53-56_260595134347_rgbf000067-resize_2/002272_2014-06-28_18-53-56_260595134347_rgbf000067-resize_2-target.png,1000,1.138,3,3810,1012,meters,jsons/v1_VE1000_randls_65_rotated.json,796149,1006037,27,Man
154,865285,DepthScenes,duration_manipulation_targetAtFixation,jsons/v1_VE1000_randls_65_rotated.json,http://54.235.29.9/FacialAge/BNav_EC2/DepthDuration/v2_depth_duration_MTurk/v2_DepthDuration_HTML.html#39,39,1366,625,1366,768,8-22-2022,8-0-26,155,depth_duration_stimuli/003129_2014-05-12_10-48-10_094959634447_rgbf000100-resize_0/003129_2014-05-12_10-48-10_094959634447_rgbf000100-resize_0-target.png,1000,4.9305,2,4314,1001,meters,jsons/v1_VE1000_randls_65_rotated.json,796149,1006037,27,Man
155,865285,DepthScenes,duration_manipulation_targetAtFixation,jsons/v1_VE1000_randls_65_rotated.json,http://54.235.29.9/FacialAge/BNav_EC2/DepthDuration/v2_depth_duration_MTurk/v2_DepthDuration_HTML.html#39,39,1366,625,1366,768,8-22-2022,8-0-26,156,depth_duration_stimuli/000414_2014-06-04_19-49-13_260595134347_rgbf000044-resize_0/000414_2014-06-04_19-49-13_260595134347_rgbf000044-resize_0-target.png,1000,4.329,3,3911,992,meters,jsons/v1_VE1000_randls_65_rotated.json,796149,1006037,27,Man
156,865285,DepthScenes,duration_manipulation_targetAtFixation,jsons/v1_VE1000_randls_65_rotated.json,http://54.235.29.9/FacialAge/BNav_EC2/DepthDuration/v2_depth_duration_MTurk/v2_DepthDuration_HTML.html#39,39,1366,625,1366,768,8-22-2022,8-0-26,157,depth_duration_stimuli/001392_2014-06-19_16-07-59_260595134347_rgbf000046-resize_1/001392_2014-06-19_16-07-59_260595134347_rgbf000046-resize_1-target.png,1000,4.135,4,3776,997,meters,jsons/v1_VE1000_randls_65_rotated.json,796149,1006037,27,Man
157,865285,DepthScenes,duration_manipulation_targetAtFixation,jsons/v1_VE1000_randls_65_rotated.json,http://54.235.29.9/FacialAge/BNav_EC2/DepthDuration/v2_depth_duration_MTurk/v2_DepthDuration_HTML.html#39,39,1366,625,1366,768,8-22-2022,8-0-26,158,depth_duration_stimuli/001570_2014-06-20_17-21-09_260595134347_rgbf000135-resize_4/001570_2014-06-20_17-21-09_260595134347_rgbf000135-resize_4-target.png,1000,4.467,3,4591,1006,meters,jsons/v1_VE1000_randls_65_rotated.json,796149,1006037,27,Man
158,865285,DepthScenes,duration_manipulation_targetAtFixation,jsons/v1_VE1000_randls_65_rotated.json,http://54.235.29.9/FacialAge/BNav_EC2/DepthDuration/v2_depth_duration_MTurk/v2_DepthDuration_HTML.html#39,39,1366,625,1366,768,8-22-2022,8-0-26,159,depth_duration_stimuli/002103_2014-06-25_20-00-40_260595134347_rgbf000049-resize_0/002103_2014-06-25_20-00-40_260595134347_rgbf000049-resize_0-target.png,1000,4.105,2,3752,990,meters,jsons/v1_VE1000_randls_65_rotated.json,796149,1006037,27,Man
159,865285,DepthScenes,duration_manipulation_targetAtFixation,jsons/v1_VE1000_randls_65_rotated.json,http://54.235.29.9/FacialAge/BNav_EC2/DepthDuration/v2_depth_duration_MTurk/v2_DepthDuration_HTML.html#39,39,1366,625,1366,768,8-22-2022,8-0-26,160,depth_duration_stimuli/002039_2014-06-24_20-22-38_260595134347_rgbf000084-resize_1/002039_2014-06-24_20-22-38_260595134347_rgbf000084-resize_1-target.png,1000,4.408,2,3983,997,meters,jsons/v1_VE1000_randls_65_rotated.json,796149,1006037,27,Man
160,865285,DepthScenes,duration_manipulation_targetAtFixation,jsons/v1_VE1000_randls_65_rotated.json,http://54.235.29.9/FacialAge/BNav_EC2/DepthDuration/v2_depth_duration_MTurk/v2_DepthDuration_HTML.html#39,39,1366,625,1366,768,8-22-2022,8-0-26,161,depth_duration_stimuli/000709_2014-06-08_13-51-55_260595134347_rgbf000068-resize_3/000709_2014-06-08_13-51-55_260595134347_rgbf000068-resize_3-target.png,1000,1.8030000000000002,1,4417,1014,meters,jsons/v1_VE1000_randls_65_rotated.json,796149,1006037,27,Man
161,865285,DepthScenes,duration_manipulation_targetAtFixation,jsons/v1_VE1000_randls_65_rotated.json,http://54.235.29.9/FacialAge/BNav_EC2/DepthDuration/v2_depth_duration_MTurk/v2_DepthDuration_HTML.html#39,39,1366,625,1366,768,8-22-2022,8-0-26,162,depth_duration_stimuli/002057_2014-06-24_21-00-13_260595134347_rgbf000120-resize_1/002057_2014-06-24_21-00-13_260595134347_rgbf000120-resize_1-target.png,1000,2.967,3,4196,1003,meters,jsons/v1_VE1000_randls_65_rotated.json,796149,1006037,27,Man
162,865285,DepthScenes,duration_manipulation_targetAtFixation,jsons/v1_VE1000_randls_65_rotated.json,http://54.235.29.9/FacialAge/BNav_EC2/DepthDuration/v2_depth_duration_MTurk/v2_DepthDuration_HTML.html#39,39,1366,625,1366,768,8-22-2022,8-0-26,163,depth_duration_stimuli/000549_2014-06-08_22-10-24_260595134347_rgbf000247-resize_3/000549_2014-06-08_22-10-24_260595134347_rgbf000247-resize_3-target.png,1000,1.841,2,3560,1005,meters,jsons/v1_VE1000_randls_65_rotated.json,796149,1006037,27,Man
163,865285,DepthScenes,duration_manipulation_targetAtFixation,jsons/v1_VE1000_randls_65_rotated.json,http://54.235.29.9/FacialAge/BNav_EC2/DepthDuration/v2_depth_duration_MTurk/v2_DepthDuration_HTML.html#39,39,1366,625,1366,768,8-22-2022,8-0-26,164,depth_duration_stimuli/001055_2014-06-08_18-45-35_260595134347_rgbf000111-resize_4/001055_2014-06-08_18-45-35_260595134347_rgbf000111-resize_4-target.png,1000,2.4290000000000003,3,3848,1026,meters,jsons/v1_VE1000_randls_65_rotated.json,796149,1006037,27,Man
