,subjID,experimentName,versionName,sequenceName,url,selected_row,windowWidth,windowHeight,screenWidth,screenHeight,startDate,startTime,trial,stimulus,duration,actual_depth,depth_estimate,trial_RT,log_sceneDuration,unitSelection,seq_filepath,experimentTime,totalTime,age,gender
0,865328,DepthScenes,duration_manipulation_targetAtFixation,jsons/v1_VE250_randls_24_rotated.json,http://54.235.29.9/FacialAge/BNav_EC2/DepthDuration/v2_depth_duration_MTurk/v2_DepthDuration_HTML.html#10,10,1920,929,1920,1080,8-20-2022,10-57-8,1,depth_duration_stimuli/000457_2014-06-08_16-52-43_260595134347_rgbf000199-resize_1/000457_2014-06-08_16-52-43_260595134347_rgbf000199-resize_1-target.png,250,3.6489999999999996,9,4334,248,feet,jsons/v1_VE250_randls_24_rotated.json,637602,907602,40,Woman
1,865328,DepthScenes,duration_manipulation_targetAtFixation,jsons/v1_VE250_randls_24_rotated.json,http://54.235.29.9/FacialAge/BNav_EC2/DepthDuration/v2_depth_duration_MTurk/v2_DepthDuration_HTML.html#10,10,1920,929,1920,1080,8-20-2022,10-57-8,2,depth_duration_stimuli/000929_2014-06-09_16-33-19_260595134347_rgbf000139-resize_0/000929_2014-06-09_16-33-19_260595134347_rgbf000139-resize_0-target.png,250,2.8680000000000003,7,2864,249,feet,jsons/v1_VE250_randls_24_rotated.json,637602,907602,40,Woman
2,865328,DepthScenes,duration_manipulation_targetAtFixation,jsons/v1_VE250_randls_24_rotated.json,http://54.235.29.9/FacialAge/BNav_EC2/DepthDuration/v2_depth_duration_MTurk/v2_DepthDuration_HTML.html#10,10,1920,929,1920,1080,8-20-2022,10-57-8,3,depth_duration_stimuli/003587_2014-05-23_16-48-02_094959634447_rgbf002384-resize_2/003587_2014-05-23_16-48-02_094959634447_rgbf002384-resize_2-target.png,250,1.357,3,3094,247,feet,jsons/v1_VE250_randls_24_rotated.json,637602,907602,40,Woman
3,865328,DepthScenes,duration_manipulation_targetAtFixation,jsons/v1_VE250_randls_24_rotated.json,http://54.235.29.9/FacialAge/BNav_EC2/DepthDuration/v2_depth_duration_MTurk/v2_DepthDuration_HTML.html#10,10,1920,929,1920,1080,8-20-2022,10-57-8,4,depth_duration_stimuli/001167_2014-06-17_15-38-07_260595134347_rgbf000108-resize_0/001167_2014-06-17_15-38-07_260595134347_rgbf000108-resize_0-target.png,250,1.8505,5,3492,249,feet,jsons/v1_VE250_randls_24_rotated.json,637602,907602,40,Woman
4,865328,DepthScenes,duration_manipulation_targetAtFixation,jsons/v1_VE250_randls_24_rotated.json,http://54.235.29.9/FacialAge/BNav_EC2/DepthDuration/v2_depth_duration_MTurk/v2_DepthDuration_HTML.html#10,10,1920,929,1920,1080,8-20-2022,10-57-8,5,depth_duration_stimuli/000137_2014-05-20_17-04-49_260595134347_rgbf000120-resize_1/000137_2014-05-20_17-04-49_260595134347_rgbf000120-resize_1-target.png,250,3.786,6,3516,245,feet,jsons/v1_VE250_randls_24_rotated.json,637602,907602,40,Woman
5,865328,DepthScenes,duration_manipulation_targetAtFixation,jsons/v1_VE250_randls_24_rotated.json,http://54.235.29.9/FacialAge/BNav_EC2/DepthDuration/v2_depth_duration_MTurk/v2_DepthDuration_HTML.html#10,10,1920,929,1920,1080,8-20-2022,10-57-8,6,depth_duration_stimuli/000736_2014-06-08_18-24-15_260595134347_rgbf000206-resize_3/000736_2014-06-08_18-24-15_260595134347_rgbf000206-resize_3-target.png,250,3.515,11,5572,249,feet,jsons/v1_VE250_randls_24_rotated.json,637602,907602,40,Woman
6,865328,DepthScenes,duration_manipulation_targetAtFixation,jsons/v1_VE250_randls_24_rotated.json,http://54.235.29.9/FacialAge/BNav_EC2/DepthDuration/v2_depth_duration_MTurk/v2_DepthDuration_HTML.html#10,10,1920,929,1920,1080,8-20-2022,10-57-8,7,depth_duration_stimuli/000927_2014-06-09_16-32-30_260595134347_rgbf000123-resize_3/000927_2014-06-09_16-32-30_260595134347_rgbf000123-resize_3-target.png,250,2.6785,8,3783,244,feet,jsons/v1_VE250_randls_24_rotated.json,637602,907602,40,Woman
7,865328,DepthScenes,duration_manipulation_targetAtFixation,jsons/v1_VE250_randls_24_rotated.json,http://54.235.29.9/FacialAge/BNav_EC2/DepthDuration/v2_depth_duration_MTurk/v2_DepthDuration_HTML.html#10,10,1920,929,1920,1080,8-20-2022,10-57-8,8,depth_duration_stimuli/001110_2014-06-15_17-25-28_260595134347_rgbf000150-resize_1/001110_2014-06-15_17-25-28_260595134347_rgbf000150-resize_1-target.png,250,1.7115,5,2591,247,feet,jsons/v1_VE250_randls_24_rotated.json,637602,907602,40,Woman
8,865328,DepthScenes,duration_manipulation_targetAtFixation,jsons/v1_VE250_randls_24_rotated.json,http://54.235.29.9/FacialAge/BNav_EC2/DepthDuration/v2_depth_duration_MTurk/v2_DepthDuration_HTML.html#10,10,1920,929,1920,1080,8-20-2022,10-57-8,9,depth_duration_stimuli/002657_2014-06-13_15-29-54_094959634447_rgbf000150-resize_1/002657_2014-06-13_15-29-54_094959634447_rgbf000150-resize_1-target.png,250,4.919,12,3303,251,feet,jsons/v1_VE250_randls_24_rotated.json,637602,907602,40,Woman
9,865328,DepthScenes,duration_manipulation_targetAtFixation,jsons/v1_VE250_randls_24_rotated.json,http://54.235.29.9/FacialAge/BNav_EC2/DepthDuration/v2_depth_duration_MTurk/v2_DepthDuration_HTML.html#10,10,1920,929,1920,1080,8-20-2022,10-57-8,10,depth_duration_stimuli/002375_2014-06-28_20-13-44_260595134347_rgbf000032-resize_1/002375_2014-06-28_20-13-44_260595134347_rgbf000032-resize_1-target.png,250,4.0175,8,2953,247,feet,jsons/v1_VE250_randls_24_rotated.json,637602,907602,40,Woman
10,865328,DepthScenes,duration_manipulation_targetAtFixation,jsons/v1_VE250_randls_24_rotated.json,http://54.235.29.9/FacialAge/BNav_EC2/DepthDuration/v2_depth_duration_MTurk/v2_DepthDuration_HTML.html#10,10,1920,929,1920,1080,8-20-2022,10-57-8,11,depth_duration_stimuli/000409_2014-06-04_19-23-33_260595134347_rgbf000067-resize_0/000409_2014-06-04_19-23-33_260595134347_rgbf000067-resize_0-target.png,250,3.7335,8,4295,245,feet,jsons/v1_VE250_randls_24_rotated.json,637602,907602,40,Woman
11,865328,DepthScenes,duration_manipulation_targetAtFixation,jsons/v1_VE250_randls_24_rotated.json,http://54.235.29.9/FacialAge/BNav_EC2/DepthDuration/v2_depth_duration_MTurk/v2_DepthDuration_HTML.html#10,10,1920,929,1920,1080,8-20-2022,10-57-8,12,depth_duration_stimuli/002663_2014-06-13_15-50-26_094959634447_rgbf000075-resize_1/002663_2014-06-13_15-50-26_094959634447_rgbf000075-resize_1-target.png,250,4.7495,14,5132,248,feet,jsons/v1_VE250_randls_24_rotated.json,637602,907602,40,Woman
12,865328,DepthScenes,duration_manipulation_targetAtFixation,jsons/v1_VE250_randls_24_rotated.json,http://54.235.29.9/FacialAge/BNav_EC2/DepthDuration/v2_depth_duration_MTurk/v2_DepthDuration_HTML.html#10,10,1920,929,1920,1080,8-20-2022,10-57-8,13,depth_duration_stimuli/000780_2014-06-08_22-28-29_260595134347_rgbf000126-resize_1/000780_2014-06-08_22-28-29_260595134347_rgbf000126-resize_1-target.png,250,3.3825,10,4480,245,feet,jsons/v1_VE250_randls_24_rotated.json,637602,907602,40,Woman
13,865328,DepthScenes,duration_manipulation_targetAtFixation,jsons/v1_VE250_randls_24_rotated.json,http://54.235.29.9/FacialAge/BNav_EC2/DepthDuration/v2_depth_duration_MTurk/v2_DepthDuration_HTML.html#10,10,1920,929,1920,1080,8-20-2022,10-57-8,14,depth_duration_stimuli/002445_2014-06-28_20-32-16_260595134347_rgbf000029-resize_4/002445_2014-06-28_20-32-16_260595134347_rgbf000029-resize_4-target.png,250,2.5315,7,3166,261,feet,jsons/v1_VE250_randls_24_rotated.json,637602,907602,40,Woman
14,865328,DepthScenes,duration_manipulation_targetAtFixation,jsons/v1_VE250_randls_24_rotated.json,http://54.235.29.9/FacialAge/BNav_EC2/DepthDuration/v2_depth_duration_MTurk/v2_DepthDuration_HTML.html#10,10,1920,929,1920,1080,8-20-2022,10-57-8,15,depth_duration_stimuli/001100_2014-06-15_17-46-26_260595134347_rgbf000225-resize_2/001100_2014-06-15_17-46-26_260595134347_rgbf000225-resize_2-target.png,250,2.24,4,3276,247,feet,jsons/v1_VE250_randls_24_rotated.json,637602,907602,40,Woman
15,865328,DepthScenes,duration_manipulation_targetAtFixation,jsons/v1_VE250_randls_24_rotated.json,http://54.235.29.9/FacialAge/BNav_EC2/DepthDuration/v2_depth_duration_MTurk/v2_DepthDuration_HTML.html#10,10,1920,929,1920,1080,8-20-2022,10-57-8,16,depth_duration_stimuli/002784_2014-06-22_19-26-30_094959634447_rgbf000083-resize_3/002784_2014-06-22_19-26-30_094959634447_rgbf000083-resize_3-target.png,250,1.8046666666667,3,4772,251,feet,jsons/v1_VE250_randls_24_rotated.json,637602,907602,40,Woman
16,865328,DepthScenes,duration_manipulation_targetAtFixation,jsons/v1_VE250_randls_24_rotated.json,http://54.235.29.9/FacialAge/BNav_EC2/DepthDuration/v2_depth_duration_MTurk/v2_DepthDuration_HTML.html#10,10,1920,929,1920,1080,8-20-2022,10-57-8,17,depth_duration_stimuli/000556_2014-06-09_22-42-56_260595134347_rgbf000214-resize_1/000556_2014-06-09_22-42-56_260595134347_rgbf000214-resize_1-target.png,250,4.8415,12,4083,247,feet,jsons/v1_VE250_randls_24_rotated.json,637602,907602,40,Woman
17,865328,DepthScenes,duration_manipulation_targetAtFixation,jsons/v1_VE250_randls_24_rotated.json,http://54.235.29.9/FacialAge/BNav_EC2/DepthDuration/v2_depth_duration_MTurk/v2_DepthDuration_HTML.html#10,10,1920,929,1920,1080,8-20-2022,10-57-8,18,depth_duration_stimuli/001158_2014-06-17_15-32-16_260595134347_rgbf000138-resize_2/001158_2014-06-17_15-32-16_260595134347_rgbf000138-resize_2-target.png,250,4.5315,15,4352,258,feet,jsons/v1_VE250_randls_24_rotated.json,637602,907602,40,Woman
18,865328,DepthScenes,duration_manipulation_targetAtFixation,jsons/v1_VE250_randls_24_rotated.json,http://54.235.29.9/FacialAge/BNav_EC2/DepthDuration/v2_depth_duration_MTurk/v2_DepthDuration_HTML.html#10,10,1920,929,1920,1080,8-20-2022,10-57-8,19,depth_duration_stimuli/001498_2014-06-19_17-45-14_260595134347_rgbf000129-resize_4/001498_2014-06-19_17-45-14_260595134347_rgbf000129-resize-original.jpg,250,1.4075,0,3217,249,feet,jsons/v1_VE250_randls_24_rotated.json,637602,907602,40,Woman
19,865328,DepthScenes,duration_manipulation_targetAtFixation,jsons/v1_VE250_randls_24_rotated.json,http://54.235.29.9/FacialAge/BNav_EC2/DepthDuration/v2_depth_duration_MTurk/v2_DepthDuration_HTML.html#10,10,1920,929,1920,1080,8-20-2022,10-57-8,20,depth_duration_stimuli/000709_2014-06-08_13-51-55_260595134347_rgbf000068-resize_3/000709_2014-06-08_13-51-55_260595134347_rgbf000068-resize_3-target.png,250,1.8030000000000002,4,3709,255,feet,jsons/v1_VE250_randls_24_rotated.json,637602,907602,40,Woman
20,865328,DepthScenes,duration_manipulation_targetAtFixation,jsons/v1_VE250_randls_24_rotated.json,http://54.235.29.9/FacialAge/BNav_EC2/DepthDuration/v2_depth_duration_MTurk/v2_DepthDuration_HTML.html#10,10,1920,929,1920,1080,8-20-2022,10-57-8,21,depth_duration_stimuli/002057_2014-06-24_21-00-13_260595134347_rgbf000120-resize_1/002057_2014-06-24_21-00-13_260595134347_rgbf000120-resize_1-target.png,250,2.967,8,3030,246,feet,jsons/v1_VE250_randls_24_rotated.json,637602,907602,40,Woman
21,865328,DepthScenes,duration_manipulation_targetAtFixation,jsons/v1_VE250_randls_24_rotated.json,http://54.235.29.9/FacialAge/BNav_EC2/DepthDuration/v2_depth_duration_MTurk/v2_DepthDuration_HTML.html#10,10,1920,929,1920,1080,8-20-2022,10-57-8,22,depth_duration_stimuli/002444_2014-06-28_20-32-08_260595134347_rgbf000027-resize_0/002444_2014-06-28_20-32-08_260595134347_rgbf000027-resize_0-target.png,250,4.388999999999999,15,4157,256,feet,jsons/v1_VE250_randls_24_rotated.json,637602,907602,40,Woman
22,865328,DepthScenes,duration_manipulation_targetAtFixation,jsons/v1_VE250_randls_24_rotated.json,http://54.235.29.9/FacialAge/BNav_EC2/DepthDuration/v2_depth_duration_MTurk/v2_DepthDuration_HTML.html#10,10,1920,929,1920,1080,8-20-2022,10-57-8,23,depth_duration_stimuli/000436_2014-06-09_22-25-11_260595134347_rgbf000137-resize_1/000436_2014-06-09_22-25-11_260595134347_rgbf000137-resize_1-target.png,250,4.0705,16,3488,246,feet,jsons/v1_VE250_randls_24_rotated.json,637602,907602,40,Woman
23,865328,DepthScenes,duration_manipulation_targetAtFixation,jsons/v1_VE250_randls_24_rotated.json,http://54.235.29.9/FacialAge/BNav_EC2/DepthDuration/v2_depth_duration_MTurk/v2_DepthDuration_HTML.html#10,10,1920,929,1920,1080,8-20-2022,10-57-8,24,depth_duration_stimuli/000854_2014-06-09_19-43-13_260595134347_rgbf000066-resize_0/000854_2014-06-09_19-43-13_260595134347_rgbf000066-resize_0-target.png,250,3.068,5,2472,247,feet,jsons/v1_VE250_randls_24_rotated.json,637602,907602,40,Woman
24,865328,DepthScenes,duration_manipulation_targetAtFixation,jsons/v1_VE250_randls_24_rotated.json,http://54.235.29.9/FacialAge/BNav_EC2/DepthDuration/v2_depth_duration_MTurk/v2_DepthDuration_HTML.html#10,10,1920,929,1920,1080,8-20-2022,10-57-8,25,depth_duration_stimuli/000758_2014-06-08_22-05-08_260595134347_rgbf000085-resize_0/000758_2014-06-08_22-05-08_260595134347_rgbf000085-resize_0-target.png,250,3.3810000000000002,15,3607,247,feet,jsons/v1_VE250_randls_24_rotated.json,637602,907602,40,Woman
25,865328,DepthScenes,duration_manipulation_targetAtFixation,jsons/v1_VE250_randls_24_rotated.json,http://54.235.29.9/FacialAge/BNav_EC2/DepthDuration/v2_depth_duration_MTurk/v2_DepthDuration_HTML.html#10,10,1920,929,1920,1080,8-20-2022,10-57-8,26,depth_duration_stimuli/001032_2014-06-08_13-23-17_260595134347_rgbf000021-resize_3/001032_2014-06-08_13-23-17_260595134347_rgbf000021-resize_3-target.png,250,3.2725,8,3804,254,feet,jsons/v1_VE250_randls_24_rotated.json,637602,907602,40,Woman
26,865328,DepthScenes,duration_manipulation_targetAtFixation,jsons/v1_VE250_randls_24_rotated.json,http://54.235.29.9/FacialAge/BNav_EC2/DepthDuration/v2_depth_duration_MTurk/v2_DepthDuration_HTML.html#10,10,1920,929,1920,1080,8-20-2022,10-57-8,27,depth_duration_stimuli/001059_2014-06-08_21-53-27_260595134347_rgbf000061-resize_4/001059_2014-06-08_21-53-27_260595134347_rgbf000061-resize_4-target.png,250,2.4185,6,4093,247,feet,jsons/v1_VE250_randls_24_rotated.json,637602,907602,40,Woman
27,865328,DepthScenes,duration_manipulation_targetAtFixation,jsons/v1_VE250_randls_24_rotated.json,http://54.235.29.9/FacialAge/BNav_EC2/DepthDuration/v2_depth_duration_MTurk/v2_DepthDuration_HTML.html#10,10,1920,929,1920,1080,8-20-2022,10-57-8,28,depth_duration_stimuli/003490_2014-05-21_15-50-11_094959634447_rgbf000101-resize_3/003490_2014-05-21_15-50-11_094959634447_rgbf000101-resize_3-target.png,250,3.6445,5,3405,251,feet,jsons/v1_VE250_randls_24_rotated.json,637602,907602,40,Woman
28,865328,DepthScenes,duration_manipulation_targetAtFixation,jsons/v1_VE250_randls_24_rotated.json,http://54.235.29.9/FacialAge/BNav_EC2/DepthDuration/v2_depth_duration_MTurk/v2_DepthDuration_HTML.html#10,10,1920,929,1920,1080,8-20-2022,10-57-8,29,depth_duration_stimuli/001175_2014-06-17_15-45-55_260595134347_rgbf000129-resize_4/001175_2014-06-17_15-45-55_260595134347_rgbf000129-resize_4-target.png,250,4.255,20,3708,250,feet,jsons/v1_VE250_randls_24_rotated.json,637602,907602,40,Woman
29,865328,DepthScenes,duration_manipulation_targetAtFixation,jsons/v1_VE250_randls_24_rotated.json,http://54.235.29.9/FacialAge/BNav_EC2/DepthDuration/v2_depth_duration_MTurk/v2_DepthDuration_HTML.html#10,10,1920,929,1920,1080,8-20-2022,10-57-8,30,depth_duration_stimuli/002072_2014-06-24_21-48-06_260595134347_rgbf000115-resize_0/002072_2014-06-24_21-48-06_260595134347_rgbf000115-resize-original.jpg,250,4.702,0,3355,247,feet,jsons/v1_VE250_randls_24_rotated.json,637602,907602,40,Woman
30,865328,DepthScenes,duration_manipulation_targetAtFixation,jsons/v1_VE250_randls_24_rotated.json,http://54.235.29.9/FacialAge/BNav_EC2/DepthDuration/v2_depth_duration_MTurk/v2_DepthDuration_HTML.html#10,10,1920,929,1920,1080,8-20-2022,10-57-8,31,depth_duration_stimuli/000103_2014-05-14_22-01-17_260595134347_rgbf000152-resize_5/000103_2014-05-14_22-01-17_260595134347_rgbf000152-resize_5-target.png,250,1.993,12,2839,248,feet,jsons/v1_VE250_randls_24_rotated.json,637602,907602,40,Woman
31,865328,DepthScenes,duration_manipulation_targetAtFixation,jsons/v1_VE250_randls_24_rotated.json,http://54.235.29.9/FacialAge/BNav_EC2/DepthDuration/v2_depth_duration_MTurk/v2_DepthDuration_HTML.html#10,10,1920,929,1920,1080,8-20-2022,10-57-8,32,depth_duration_stimuli/001555_2014-06-20_17-12-10_260595134347_rgbf000065-resize_4/001555_2014-06-20_17-12-10_260595134347_rgbf000065-resize_4-target.png,250,1.633,2,2827,246,feet,jsons/v1_VE250_randls_24_rotated.json,637602,907602,40,Woman
32,865328,DepthScenes,duration_manipulation_targetAtFixation,jsons/v1_VE250_randls_24_rotated.json,http://54.235.29.9/FacialAge/BNav_EC2/DepthDuration/v2_depth_duration_MTurk/v2_DepthDuration_HTML.html#10,10,1920,929,1920,1080,8-20-2022,10-57-8,33,depth_duration_stimuli/002875_2014-06-01_15-19-00_094959634447_rgbf000151-resize_1/002875_2014-06-01_15-19-00_094959634447_rgbf000151-resize_1-target.png,250,1.9675,4,2947,247,feet,jsons/v1_VE250_randls_24_rotated.json,637602,907602,40,Woman
33,865328,DepthScenes,duration_manipulation_targetAtFixation,jsons/v1_VE250_randls_24_rotated.json,http://54.235.29.9/FacialAge/BNav_EC2/DepthDuration/v2_depth_duration_MTurk/v2_DepthDuration_HTML.html#10,10,1920,929,1920,1080,8-20-2022,10-57-8,34,depth_duration_stimuli/001011_2014-06-08_23-18-54_260595134347_rgbf000044-resize_4/001011_2014-06-08_23-18-54_260595134347_rgbf000044-resize_4-target.png,250,2.4730000000000003,7,3112,248,feet,jsons/v1_VE250_randls_24_rotated.json,637602,907602,40,Woman
34,865328,DepthScenes,duration_manipulation_targetAtFixation,jsons/v1_VE250_randls_24_rotated.json,http://54.235.29.9/FacialAge/BNav_EC2/DepthDuration/v2_depth_duration_MTurk/v2_DepthDuration_HTML.html#10,10,1920,929,1920,1080,8-20-2022,10-57-8,35,depth_duration_stimuli/003129_2014-05-12_10-48-10_094959634447_rgbf000100-resize_0/003129_2014-05-12_10-48-10_094959634447_rgbf000100-resize_0-target.png,250,4.9305,11,4847,263,feet,jsons/v1_VE250_randls_24_rotated.json,637602,907602,40,Woman
35,865328,DepthScenes,duration_manipulation_targetAtFixation,jsons/v1_VE250_randls_24_rotated.json,http://54.235.29.9/FacialAge/BNav_EC2/DepthDuration/v2_depth_duration_MTurk/v2_DepthDuration_HTML.html#10,10,1920,929,1920,1080,8-20-2022,10-57-8,36,depth_duration_stimuli/000414_2014-06-04_19-49-13_260595134347_rgbf000044-resize_0/000414_2014-06-04_19-49-13_260595134347_rgbf000044-resize_0-target.png,250,4.329,17,4616,236,feet,jsons/v1_VE250_randls_24_rotated.json,637602,907602,40,Woman
36,865328,DepthScenes,duration_manipulation_targetAtFixation,jsons/v1_VE250_randls_24_rotated.json,http://54.235.29.9/FacialAge/BNav_EC2/DepthDuration/v2_depth_duration_MTurk/v2_DepthDuration_HTML.html#10,10,1920,929,1920,1080,8-20-2022,10-57-8,37,depth_duration_stimuli/000665_2014-06-09_20-42-35_260595134347_rgbf000110-resize_1/000665_2014-06-09_20-42-35_260595134347_rgbf000110-resize_1-target.png,250,3.057,10,4510,246,feet,jsons/v1_VE250_randls_24_rotated.json,637602,907602,40,Woman
37,865328,DepthScenes,duration_manipulation_targetAtFixation,jsons/v1_VE250_randls_24_rotated.json,http://54.235.29.9/FacialAge/BNav_EC2/DepthDuration/v2_depth_duration_MTurk/v2_DepthDuration_HTML.html#10,10,1920,929,1920,1080,8-20-2022,10-57-8,38,depth_duration_stimuli/001150_2014-06-17_15-27-34_260595134347_rgbf000108-resize_2/001150_2014-06-17_15-27-34_260595134347_rgbf000108-resize_2-target.png,250,4.0325,8,3182,243,feet,jsons/v1_VE250_randls_24_rotated.json,637602,907602,40,Woman
38,865328,DepthScenes,duration_manipulation_targetAtFixation,jsons/v1_VE250_randls_24_rotated.json,http://54.235.29.9/FacialAge/BNav_EC2/DepthDuration/v2_depth_duration_MTurk/v2_DepthDuration_HTML.html#10,10,1920,929,1920,1080,8-20-2022,10-57-8,39,depth_duration_stimuli/002639_2014-06-24_14-51-37_094959634447_rgbf000074-resize_4/002639_2014-06-24_14-51-37_094959634447_rgbf000074-resize_4-target.png,250,4.0375,9,2804,249,feet,jsons/v1_VE250_randls_24_rotated.json,637602,907602,40,Woman
39,865328,DepthScenes,duration_manipulation_targetAtFixation,jsons/v1_VE250_randls_24_rotated.json,http://54.235.29.9/FacialAge/BNav_EC2/DepthDuration/v2_depth_duration_MTurk/v2_DepthDuration_HTML.html#10,10,1920,929,1920,1080,8-20-2022,10-57-8,40,depth_duration_stimuli/003292_2014-05-14_21-53-49_094959634447_rgbf000100-resize_2/003292_2014-05-14_21-53-49_094959634447_rgbf000100-resize_2-target.png,250,3.4815,6,2603,261,feet,jsons/v1_VE250_randls_24_rotated.json,637602,907602,40,Woman
40,865328,DepthScenes,duration_manipulation_targetAtFixation,jsons/v1_VE250_randls_24_rotated.json,http://54.235.29.9/FacialAge/BNav_EC2/DepthDuration/v2_depth_duration_MTurk/v2_DepthDuration_HTML.html#10,10,1920,929,1920,1080,8-20-2022,10-57-8,41,depth_duration_stimuli/000749_2014-06-08_21-55-06_260595134347_rgbf000070-resize_2/000749_2014-06-08_21-55-06_260595134347_rgbf000070-resize_2-target.png,250,2.331,6,2669,251,feet,jsons/v1_VE250_randls_24_rotated.json,637602,907602,40,Woman
41,865328,DepthScenes,duration_manipulation_targetAtFixation,jsons/v1_VE250_randls_24_rotated.json,http://54.235.29.9/FacialAge/BNav_EC2/DepthDuration/v2_depth_duration_MTurk/v2_DepthDuration_HTML.html#10,10,1920,929,1920,1080,8-20-2022,10-57-8,42,depth_duration_stimuli/002788_2014-06-22_19-36-03_094959634447_rgbf000088-resize_2/002788_2014-06-22_19-36-03_094959634447_rgbf000088-resize_2-target.png,250,1.6465,7,3127,242,feet,jsons/v1_VE250_randls_24_rotated.json,637602,907602,40,Woman
42,865328,DepthScenes,duration_manipulation_targetAtFixation,jsons/v1_VE250_randls_24_rotated.json,http://54.235.29.9/FacialAge/BNav_EC2/DepthDuration/v2_depth_duration_MTurk/v2_DepthDuration_HTML.html#10,10,1920,929,1920,1080,8-20-2022,10-57-8,43,depth_duration_stimuli/000109_2014-05-14_23-41-52_260595134347_rgbf000035-resize_9/000109_2014-05-14_23-41-52_260595134347_rgbf000035-resize_9-target.png,250,1.3545,3,2456,242,feet,jsons/v1_VE250_randls_24_rotated.json,637602,907602,40,Woman
43,865328,DepthScenes,duration_manipulation_targetAtFixation,jsons/v1_VE250_randls_24_rotated.json,http://54.235.29.9/FacialAge/BNav_EC2/DepthDuration/v2_depth_duration_MTurk/v2_DepthDuration_HTML.html#10,10,1920,929,1920,1080,8-20-2022,10-57-8,44,depth_duration_stimuli/000470_2014-06-09_19-42-40_260595134347_rgbf000094-resize_1/000470_2014-06-09_19-42-40_260595134347_rgbf000094-resize_1-target.png,250,1.831,3,2064,264,feet,jsons/v1_VE250_randls_24_rotated.json,637602,907602,40,Woman
44,865328,DepthScenes,duration_manipulation_targetAtFixation,jsons/v1_VE250_randls_24_rotated.json,http://54.235.29.9/FacialAge/BNav_EC2/DepthDuration/v2_depth_duration_MTurk/v2_DepthDuration_HTML.html#10,10,1920,929,1920,1080,8-20-2022,10-57-8,45,depth_duration_stimuli/000691_2014-06-08_13-08-50_260595134347_rgbf000132-resize_3/000691_2014-06-08_13-08-50_260595134347_rgbf000132-resize_3-target.png,250,4.1530000000000005,8,3158,258,feet,jsons/v1_VE250_randls_24_rotated.json,637602,907602,40,Woman
45,865328,DepthScenes,duration_manipulation_targetAtFixation,jsons/v1_VE250_randls_24_rotated.json,http://54.235.29.9/FacialAge/BNav_EC2/DepthDuration/v2_depth_duration_MTurk/v2_DepthDuration_HTML.html#10,10,1920,929,1920,1080,8-20-2022,10-57-8,46,depth_duration_stimuli/002213_2014-06-28_18-37-58_260595134347_rgbf000055-resize_1/002213_2014-06-28_18-37-58_260595134347_rgbf000055-resize_1-target.png,250,3.62,13,3878,261,feet,jsons/v1_VE250_randls_24_rotated.json,637602,907602,40,Woman
46,865328,DepthScenes,duration_manipulation_targetAtFixation,jsons/v1_VE250_randls_24_rotated.json,http://54.235.29.9/FacialAge/BNav_EC2/DepthDuration/v2_depth_duration_MTurk/v2_DepthDuration_HTML.html#10,10,1920,929,1920,1080,8-20-2022,10-57-8,47,depth_duration_stimuli/002340_2014-06-28_20-05-46_260595134347_rgbf000113-resize_0/002340_2014-06-28_20-05-46_260595134347_rgbf000113-resize_0-target.png,250,2.4735,11,3564,246,feet,jsons/v1_VE250_randls_24_rotated.json,637602,907602,40,Woman
47,865328,DepthScenes,duration_manipulation_targetAtFixation,jsons/v1_VE250_randls_24_rotated.json,http://54.235.29.9/FacialAge/BNav_EC2/DepthDuration/v2_depth_duration_MTurk/v2_DepthDuration_HTML.html#10,10,1920,929,1920,1080,8-20-2022,10-57-8,48,depth_duration_stimuli/001016_2014-06-09_16-16-10_260595134347_rgbf000112-resize_5/001016_2014-06-09_16-16-10_260595134347_rgbf000112-resize_5-target.png,250,1.6565,7,2586,246,feet,jsons/v1_VE250_randls_24_rotated.json,637602,907602,40,Woman
48,865328,DepthScenes,duration_manipulation_targetAtFixation,jsons/v1_VE250_randls_24_rotated.json,http://54.235.29.9/FacialAge/BNav_EC2/DepthDuration/v2_depth_duration_MTurk/v2_DepthDuration_HTML.html#10,10,1920,929,1920,1080,8-20-2022,10-57-8,49,depth_duration_stimuli/001170_2014-06-17_15-43-44_260595134347_rgbf000096-resize_6/001170_2014-06-17_15-43-44_260595134347_rgbf000096-resize-original.jpg,250,1.1909999999999998,0,3300,258,feet,jsons/v1_VE250_randls_24_rotated.json,637602,907602,40,Woman
49,865328,DepthScenes,duration_manipulation_targetAtFixation,jsons/v1_VE250_randls_24_rotated.json,http://54.235.29.9/FacialAge/BNav_EC2/DepthDuration/v2_depth_duration_MTurk/v2_DepthDuration_HTML.html#10,10,1920,929,1920,1080,8-20-2022,10-57-8,50,depth_duration_stimuli/001815_2014-06-26_20-52-55_260595134347_rgbf000020-resize_0/001815_2014-06-26_20-52-55_260595134347_rgbf000020-resize_0-target.png,250,3.3865,10,3796,248,feet,jsons/v1_VE250_randls_24_rotated.json,637602,907602,40,Woman
50,865328,DepthScenes,duration_manipulation_targetAtFixation,jsons/v1_VE250_randls_24_rotated.json,http://54.235.29.9/FacialAge/BNav_EC2/DepthDuration/v2_depth_duration_MTurk/v2_DepthDuration_HTML.html#10,10,1920,929,1920,1080,8-20-2022,10-57-8,51,depth_duration_stimuli/001808_2014-06-26_20-50-58_260595134347_rgbf000029-resize_1/001808_2014-06-26_20-50-58_260595134347_rgbf000029-resize_1-target.png,250,4.249,16,10778,249,feet,jsons/v1_VE250_randls_24_rotated.json,637602,907602,40,Woman
51,865328,DepthScenes,duration_manipulation_targetAtFixation,jsons/v1_VE250_randls_24_rotated.json,http://54.235.29.9/FacialAge/BNav_EC2/DepthDuration/v2_depth_duration_MTurk/v2_DepthDuration_HTML.html#10,10,1920,929,1920,1080,8-20-2022,10-57-8,52,depth_duration_stimuli/003338_2014-05-20_11-01-23_094959634447_rgbf000051-resize_6/003338_2014-05-20_11-01-23_094959634447_rgbf000051-resize_6-target.png,250,1.693,4,2448,247,feet,jsons/v1_VE250_randls_24_rotated.json,637602,907602,40,Woman
52,865328,DepthScenes,duration_manipulation_targetAtFixation,jsons/v1_VE250_randls_24_rotated.json,http://54.235.29.9/FacialAge/BNav_EC2/DepthDuration/v2_depth_duration_MTurk/v2_DepthDuration_HTML.html#10,10,1920,929,1920,1080,8-20-2022,10-57-8,53,depth_duration_stimuli/002509_2014-06-24_13-19-22_094959634447_rgbf000077-resize_0/002509_2014-06-24_13-19-22_094959634447_rgbf000077-resize_0-target.png,250,1.3065,2,2667,247,feet,jsons/v1_VE250_randls_24_rotated.json,637602,907602,40,Woman
53,865328,DepthScenes,duration_manipulation_targetAtFixation,jsons/v1_VE250_randls_24_rotated.json,http://54.235.29.9/FacialAge/BNav_EC2/DepthDuration/v2_depth_duration_MTurk/v2_DepthDuration_HTML.html#10,10,1920,929,1920,1080,8-20-2022,10-57-8,54,depth_duration_stimuli/001828_2014-06-26_21-40-03_260595134347_rgbf000024-resize_0/001828_2014-06-26_21-40-03_260595134347_rgbf000024-resize_0-target.png,250,4.8260000000000005,5,2860,249,feet,jsons/v1_VE250_randls_24_rotated.json,637602,907602,40,Woman
54,865328,DepthScenes,duration_manipulation_targetAtFixation,jsons/v1_VE250_randls_24_rotated.json,http://54.235.29.9/FacialAge/BNav_EC2/DepthDuration/v2_depth_duration_MTurk/v2_DepthDuration_HTML.html#10,10,1920,929,1920,1080,8-20-2022,10-57-8,55,depth_duration_stimuli/000009_2014-05-26_14-32-05_260595134347_rgbf000034-resize_3/000009_2014-05-26_14-32-05_260595134347_rgbf000034-resize_3-target.png,250,3.8715,15,4266,249,feet,jsons/v1_VE250_randls_24_rotated.json,637602,907602,40,Woman
55,865328,DepthScenes,duration_manipulation_targetAtFixation,jsons/v1_VE250_randls_24_rotated.json,http://54.235.29.9/FacialAge/BNav_EC2/DepthDuration/v2_depth_duration_MTurk/v2_DepthDuration_HTML.html#10,10,1920,929,1920,1080,8-20-2022,10-57-8,56,depth_duration_stimuli/002545_2014-06-24_13-38-53_094959634447_rgbf000080-resize_4/002545_2014-06-24_13-38-53_094959634447_rgbf000080-resize_4-target.png,250,1.9205,10,3335,246,feet,jsons/v1_VE250_randls_24_rotated.json,637602,907602,40,Woman
56,865328,DepthScenes,duration_manipulation_targetAtFixation,jsons/v1_VE250_randls_24_rotated.json,http://54.235.29.9/FacialAge/BNav_EC2/DepthDuration/v2_depth_duration_MTurk/v2_DepthDuration_HTML.html#10,10,1920,929,1920,1080,8-20-2022,10-57-8,57,depth_duration_stimuli/001092_2014-06-15_17-34-58_260595134347_rgbf000171-resize_3/001092_2014-06-15_17-34-58_260595134347_rgbf000171-resize_3-target.png,250,2.6935,5,3257,244,feet,jsons/v1_VE250_randls_24_rotated.json,637602,907602,40,Woman
57,865328,DepthScenes,duration_manipulation_targetAtFixation,jsons/v1_VE250_randls_24_rotated.json,http://54.235.29.9/FacialAge/BNav_EC2/DepthDuration/v2_depth_duration_MTurk/v2_DepthDuration_HTML.html#10,10,1920,929,1920,1080,8-20-2022,10-57-8,58,depth_duration_stimuli/000191_2014-05-12_17-07-38_260595134347_rgbf000199-resize_0/000191_2014-05-12_17-07-38_260595134347_rgbf000199-resize_0-target.png,250,3.7995,7,2909,244,feet,jsons/v1_VE250_randls_24_rotated.json,637602,907602,40,Woman
58,865328,DepthScenes,duration_manipulation_targetAtFixation,jsons/v1_VE250_randls_24_rotated.json,http://54.235.29.9/FacialAge/BNav_EC2/DepthDuration/v2_depth_duration_MTurk/v2_DepthDuration_HTML.html#10,10,1920,929,1920,1080,8-20-2022,10-57-8,59,depth_duration_stimuli/000493_2014-06-09_21-01-18_260595134347_rgbf000196-resize_3/000493_2014-06-09_21-01-18_260595134347_rgbf000196-resize_3-target.png,250,3.44,9,3400,248,feet,jsons/v1_VE250_randls_24_rotated.json,637602,907602,40,Woman
59,865328,DepthScenes,duration_manipulation_targetAtFixation,jsons/v1_VE250_randls_24_rotated.json,http://54.235.29.9/FacialAge/BNav_EC2/DepthDuration/v2_depth_duration_MTurk/v2_DepthDuration_HTML.html#10,10,1920,929,1920,1080,8-20-2022,10-57-8,60,depth_duration_stimuli/002637_2014-06-24_14-51-13_094959634447_rgbf000066-resize_4/002637_2014-06-24_14-51-13_094959634447_rgbf000066-resize_4-target.png,250,1.9955,5,3061,265,feet,jsons/v1_VE250_randls_24_rotated.json,637602,907602,40,Woman
60,865328,DepthScenes,duration_manipulation_targetAtFixation,jsons/v1_VE250_randls_24_rotated.json,http://54.235.29.9/FacialAge/BNav_EC2/DepthDuration/v2_depth_duration_MTurk/v2_DepthDuration_HTML.html#10,10,1920,929,1920,1080,8-20-2022,10-57-8,61,depth_duration_stimuli/003534_2014-05-22_15-06-10_094959634447_rgbf000102-resize_4/003534_2014-05-22_15-06-10_094959634447_rgbf000102-resize_4-target.png,250,1.426,2,2337,249,feet,jsons/v1_VE250_randls_24_rotated.json,637602,907602,40,Woman
61,865328,DepthScenes,duration_manipulation_targetAtFixation,jsons/v1_VE250_randls_24_rotated.json,http://54.235.29.9/FacialAge/BNav_EC2/DepthDuration/v2_depth_duration_MTurk/v2_DepthDuration_HTML.html#10,10,1920,929,1920,1080,8-20-2022,10-57-8,62,depth_duration_stimuli/000742_2014-06-08_18-48-09_260595134347_rgbf000164-resize_4/000742_2014-06-08_18-48-09_260595134347_rgbf000164-resize_4-target.png,250,4.632,5,2564,247,feet,jsons/v1_VE250_randls_24_rotated.json,637602,907602,40,Woman
62,865328,DepthScenes,duration_manipulation_targetAtFixation,jsons/v1_VE250_randls_24_rotated.json,http://54.235.29.9/FacialAge/BNav_EC2/DepthDuration/v2_depth_duration_MTurk/v2_DepthDuration_HTML.html#10,10,1920,929,1920,1080,8-20-2022,10-57-8,63,depth_duration_stimuli/001066_2014-06-08_22-03-20_260595134347_rgbf000066-resize_4/001066_2014-06-08_22-03-20_260595134347_rgbf000066-resize_4-target.png,250,4.2330000000000005,10,3965,248,feet,jsons/v1_VE250_randls_24_rotated.json,637602,907602,40,Woman
63,865328,DepthScenes,duration_manipulation_targetAtFixation,jsons/v1_VE250_randls_24_rotated.json,http://54.235.29.9/FacialAge/BNav_EC2/DepthDuration/v2_depth_duration_MTurk/v2_DepthDuration_HTML.html#10,10,1920,929,1920,1080,8-20-2022,10-57-8,64,depth_duration_stimuli/003083_2014-06-15_15-21-03_094959634447_rgbf000063-resize_1/003083_2014-06-15_15-21-03_094959634447_rgbf000063-resize_1-target.png,250,4.1405,14,4584,249,feet,jsons/v1_VE250_randls_24_rotated.json,637602,907602,40,Woman
64,865328,DepthScenes,duration_manipulation_targetAtFixation,jsons/v1_VE250_randls_24_rotated.json,http://54.235.29.9/FacialAge/BNav_EC2/DepthDuration/v2_depth_duration_MTurk/v2_DepthDuration_HTML.html#10,10,1920,929,1920,1080,8-20-2022,10-57-8,65,depth_duration_stimuli/000486_2014-06-09_20-47-20_260595134347_rgbf000143-resize_2/000486_2014-06-09_20-47-20_260595134347_rgbf000143-resize_2-target.png,250,4.8325,8,3697,248,feet,jsons/v1_VE250_randls_24_rotated.json,637602,907602,40,Woman
65,865328,DepthScenes,duration_manipulation_targetAtFixation,jsons/v1_VE250_randls_24_rotated.json,http://54.235.29.9/FacialAge/BNav_EC2/DepthDuration/v2_depth_duration_MTurk/v2_DepthDuration_HTML.html#10,10,1920,929,1920,1080,8-20-2022,10-57-8,66,depth_duration_stimuli/001540_2014-06-20_17-01-05_260595134347_rgbf000086-resize_2/001540_2014-06-20_17-01-05_260595134347_rgbf000086-resize-original.jpg,250,1.459,0,2712,247,feet,jsons/v1_VE250_randls_24_rotated.json,637602,907602,40,Woman
66,865328,DepthScenes,duration_manipulation_targetAtFixation,jsons/v1_VE250_randls_24_rotated.json,http://54.235.29.9/FacialAge/BNav_EC2/DepthDuration/v2_depth_duration_MTurk/v2_DepthDuration_HTML.html#10,10,1920,929,1920,1080,8-20-2022,10-57-8,67,depth_duration_stimuli/002425_2014-06-28_20-27-29_260595134347_rgbf000031-resize_8/002425_2014-06-28_20-27-29_260595134347_rgbf000031-resize_8-target.png,250,3.8960000000000004,8,2979,262,feet,jsons/v1_VE250_randls_24_rotated.json,637602,907602,40,Woman
67,865328,DepthScenes,duration_manipulation_targetAtFixation,jsons/v1_VE250_randls_24_rotated.json,http://54.235.29.9/FacialAge/BNav_EC2/DepthDuration/v2_depth_duration_MTurk/v2_DepthDuration_HTML.html#10,10,1920,929,1920,1080,8-20-2022,10-57-8,68,depth_duration_stimuli/000642_2014-06-08_16-59-25_260595134347_rgbf000098-resize_2/000642_2014-06-08_16-59-25_260595134347_rgbf000098-resize_2-target.png,250,2.8815,5,3165,258,feet,jsons/v1_VE250_randls_24_rotated.json,637602,907602,40,Woman
68,865328,DepthScenes,duration_manipulation_targetAtFixation,jsons/v1_VE250_randls_24_rotated.json,http://54.235.29.9/FacialAge/BNav_EC2/DepthDuration/v2_depth_duration_MTurk/v2_DepthDuration_HTML.html#10,10,1920,929,1920,1080,8-20-2022,10-57-8,69,depth_duration_stimuli/001447_2014-06-19_17-00-32_260595134347_rgbf000082-resize_5/001447_2014-06-19_17-00-32_260595134347_rgbf000082-resize_5-target.png,250,4.13775,6,4298,250,feet,jsons/v1_VE250_randls_24_rotated.json,637602,907602,40,Woman
69,865328,DepthScenes,duration_manipulation_targetAtFixation,jsons/v1_VE250_randls_24_rotated.json,http://54.235.29.9/FacialAge/BNav_EC2/DepthDuration/v2_depth_duration_MTurk/v2_DepthDuration_HTML.html#10,10,1920,929,1920,1080,8-20-2022,10-57-8,70,depth_duration_stimuli/000447_2014-06-08_16-15-46_260595134347_rgbf000130-resize_1/000447_2014-06-08_16-15-46_260595134347_rgbf000130-resize_1-target.png,250,4.479,8,2626,257,feet,jsons/v1_VE250_randls_24_rotated.json,637602,907602,40,Woman
70,865328,DepthScenes,duration_manipulation_targetAtFixation,jsons/v1_VE250_randls_24_rotated.json,http://54.235.29.9/FacialAge/BNav_EC2/DepthDuration/v2_depth_duration_MTurk/v2_DepthDuration_HTML.html#10,10,1920,929,1920,1080,8-20-2022,10-57-8,71,depth_duration_stimuli/003010_2014-06-15_12-54-35_094959634447_rgbf000112-resize_0/003010_2014-06-15_12-54-35_094959634447_rgbf000112-resize_0-target.png,250,3.1185,9,2846,248,feet,jsons/v1_VE250_randls_24_rotated.json,637602,907602,40,Woman
71,865328,DepthScenes,duration_manipulation_targetAtFixation,jsons/v1_VE250_randls_24_rotated.json,http://54.235.29.9/FacialAge/BNav_EC2/DepthDuration/v2_depth_duration_MTurk/v2_DepthDuration_HTML.html#10,10,1920,929,1920,1080,8-20-2022,10-57-8,72,depth_duration_stimuli/001810_2014-06-26_20-51-35_260595134347_rgbf000040-resize_3/001810_2014-06-26_20-51-35_260595134347_rgbf000040-resize_3-target.png,250,2.2525,4,2505,261,feet,jsons/v1_VE250_randls_24_rotated.json,637602,907602,40,Woman
72,865328,DepthScenes,duration_manipulation_targetAtFixation,jsons/v1_VE250_randls_24_rotated.json,http://54.235.29.9/FacialAge/BNav_EC2/DepthDuration/v2_depth_duration_MTurk/v2_DepthDuration_HTML.html#10,10,1920,929,1920,1080,8-20-2022,10-57-8,73,depth_duration_stimuli/000734_2014-06-08_17-39-11_260595134347_rgbf000128-resize_2/000734_2014-06-08_17-39-11_260595134347_rgbf000128-resize_2-target.png,250,4.098,5,2736,249,feet,jsons/v1_VE250_randls_24_rotated.json,637602,907602,40,Woman
73,865328,DepthScenes,duration_manipulation_targetAtFixation,jsons/v1_VE250_randls_24_rotated.json,http://54.235.29.9/FacialAge/BNav_EC2/DepthDuration/v2_depth_duration_MTurk/v2_DepthDuration_HTML.html#10,10,1920,929,1920,1080,8-20-2022,10-57-8,74,depth_duration_stimuli/000739_2014-06-08_18-45-58_260595134347_rgbf000068-resize_1/000739_2014-06-08_18-45-58_260595134347_rgbf000068-resize_1-target.png,250,3.534,7,2379,253,feet,jsons/v1_VE250_randls_24_rotated.json,637602,907602,40,Woman
74,865328,DepthScenes,duration_manipulation_targetAtFixation,jsons/v1_VE250_randls_24_rotated.json,http://54.235.29.9/FacialAge/BNav_EC2/DepthDuration/v2_depth_duration_MTurk/v2_DepthDuration_HTML.html#10,10,1920,929,1920,1080,8-20-2022,10-57-8,75,depth_duration_stimuli/002949_2014-06-26_15-57-42_094959634447_rgbf000079-resize_1/002949_2014-06-26_15-57-42_094959634447_rgbf000079-resize_1-target.png,250,1.8915,3,2947,249,feet,jsons/v1_VE250_randls_24_rotated.json,637602,907602,40,Woman
75,865328,DepthScenes,duration_manipulation_targetAtFixation,jsons/v1_VE250_randls_24_rotated.json,http://54.235.29.9/FacialAge/BNav_EC2/DepthDuration/v2_depth_duration_MTurk/v2_DepthDuration_HTML.html#10,10,1920,929,1920,1080,8-20-2022,10-57-8,76,depth_duration_stimuli/000522_2014-06-08_13-35-06_260595134347_rgbf000244-resize_1/000522_2014-06-08_13-35-06_260595134347_rgbf000244-resize_1-target.png,250,2.3715,1,2421,248,feet,jsons/v1_VE250_randls_24_rotated.json,637602,907602,40,Woman
76,865328,DepthScenes,duration_manipulation_targetAtFixation,jsons/v1_VE250_randls_24_rotated.json,http://54.235.29.9/FacialAge/BNav_EC2/DepthDuration/v2_depth_duration_MTurk/v2_DepthDuration_HTML.html#10,10,1920,929,1920,1080,8-20-2022,10-57-8,77,depth_duration_stimuli/001392_2014-06-19_16-07-59_260595134347_rgbf000046-resize_1/001392_2014-06-19_16-07-59_260595134347_rgbf000046-resize_1-target.png,250,4.135,6,3993,251,feet,jsons/v1_VE250_randls_24_rotated.json,637602,907602,40,Woman
77,865328,DepthScenes,duration_manipulation_targetAtFixation,jsons/v1_VE250_randls_24_rotated.json,http://54.235.29.9/FacialAge/BNav_EC2/DepthDuration/v2_depth_duration_MTurk/v2_DepthDuration_HTML.html#10,10,1920,929,1920,1080,8-20-2022,10-57-8,78,depth_duration_stimuli/001570_2014-06-20_17-21-09_260595134347_rgbf000135-resize_4/001570_2014-06-20_17-21-09_260595134347_rgbf000135-resize_4-target.png,250,4.467,11,3467,251,feet,jsons/v1_VE250_randls_24_rotated.json,637602,907602,40,Woman
78,865328,DepthScenes,duration_manipulation_targetAtFixation,jsons/v1_VE250_randls_24_rotated.json,http://54.235.29.9/FacialAge/BNav_EC2/DepthDuration/v2_depth_duration_MTurk/v2_DepthDuration_HTML.html#10,10,1920,929,1920,1080,8-20-2022,10-57-8,79,depth_duration_stimuli/001516_2014-06-20_16-25-09_260595134347_rgbf000076-resize_2/001516_2014-06-20_16-25-09_260595134347_rgbf000076-resize_2-target.png,250,1.7445,6,7113,242,feet,jsons/v1_VE250_randls_24_rotated.json,637602,907602,40,Woman
79,865328,DepthScenes,duration_manipulation_targetAtFixation,jsons/v1_VE250_randls_24_rotated.json,http://54.235.29.9/FacialAge/BNav_EC2/DepthDuration/v2_depth_duration_MTurk/v2_DepthDuration_HTML.html#10,10,1920,929,1920,1080,8-20-2022,10-57-8,80,depth_duration_stimuli/002118_2014-06-25_20-32-08_260595134347_rgbf000078-resize_1/002118_2014-06-25_20-32-08_260595134347_rgbf000078-resize_1-target.png,250,2.6460000000000004,6,3073,248,feet,jsons/v1_VE250_randls_24_rotated.json,637602,907602,40,Woman
80,865328,DepthScenes,duration_manipulation_targetAtFixation,jsons/v1_VE250_randls_24_rotated.json,http://54.235.29.9/FacialAge/BNav_EC2/DepthDuration/v2_depth_duration_MTurk/v2_DepthDuration_HTML.html#10,10,1920,929,1920,1080,8-20-2022,10-57-8,81,depth_duration_stimuli/003423_2014-05-21_10-23-26_094959634447_rgbf002665-resize_2/003423_2014-05-21_10-23-26_094959634447_rgbf002665-resize_2-target.png,250,3.2575,10,3203,246,feet,jsons/v1_VE250_randls_24_rotated.json,637602,907602,40,Woman
81,865328,DepthScenes,duration_manipulation_targetAtFixation,jsons/v1_VE250_randls_24_rotated.json,http://54.235.29.9/FacialAge/BNav_EC2/DepthDuration/v2_depth_duration_MTurk/v2_DepthDuration_HTML.html#10,10,1920,929,1920,1080,8-20-2022,10-57-8,82,depth_duration_stimuli/002905_2014-06-03_18-04-43_094959634447_rgbf000151-resize_2/002905_2014-06-03_18-04-43_094959634447_rgbf000151-resize_2-target.png,250,2.0295,4,3890,248,feet,jsons/v1_VE250_randls_24_rotated.json,637602,907602,40,Woman
82,865328,DepthScenes,duration_manipulation_targetAtFixation,jsons/v1_VE250_randls_24_rotated.json,http://54.235.29.9/FacialAge/BNav_EC2/DepthDuration/v2_depth_duration_MTurk/v2_DepthDuration_HTML.html#10,10,1920,929,1920,1080,8-20-2022,10-57-8,83,depth_duration_stimuli/002678_2014-06-13_16-15-32_094959634447_rgbf000151-resize_6/002678_2014-06-13_16-15-32_094959634447_rgbf000151-resize_6-target.png,250,2.1830000000000003,15,4147,263,feet,jsons/v1_VE250_randls_24_rotated.json,637602,907602,40,Woman
83,865328,DepthScenes,duration_manipulation_targetAtFixation,jsons/v1_VE250_randls_24_rotated.json,http://54.235.29.9/FacialAge/BNav_EC2/DepthDuration/v2_depth_duration_MTurk/v2_DepthDuration_HTML.html#10,10,1920,929,1920,1080,8-20-2022,10-57-8,84,depth_duration_stimuli/000368_2014-06-09_15-53-01_260595134347_rgbf000155-resize_2/000368_2014-06-09_15-53-01_260595134347_rgbf000155-resize_2-target.png,250,2.4859999999999998,3,2664,249,feet,jsons/v1_VE250_randls_24_rotated.json,637602,907602,40,Woman
84,865328,DepthScenes,duration_manipulation_targetAtFixation,jsons/v1_VE250_randls_24_rotated.json,http://54.235.29.9/FacialAge/BNav_EC2/DepthDuration/v2_depth_duration_MTurk/v2_DepthDuration_HTML.html#10,10,1920,929,1920,1080,8-20-2022,10-57-8,85,depth_duration_stimuli/003048_2014-06-15_13-49-43_094959634447_rgbf000150-resize_1/003048_2014-06-15_13-49-43_094959634447_rgbf000150-resize_1-target.png,250,4.0035,5,2411,249,feet,jsons/v1_VE250_randls_24_rotated.json,637602,907602,40,Woman
85,865328,DepthScenes,duration_manipulation_targetAtFixation,jsons/v1_VE250_randls_24_rotated.json,http://54.235.29.9/FacialAge/BNav_EC2/DepthDuration/v2_depth_duration_MTurk/v2_DepthDuration_HTML.html#10,10,1920,929,1920,1080,8-20-2022,10-57-8,86,depth_duration_stimuli/002043_2014-06-24_20-29-38_260595134347_rgbf000039-resize_4/002043_2014-06-24_20-29-38_260595134347_rgbf000039-resize_4-target.png,250,2.8435,6,2803,248,feet,jsons/v1_VE250_randls_24_rotated.json,637602,907602,40,Woman
86,865328,DepthScenes,duration_manipulation_targetAtFixation,jsons/v1_VE250_randls_24_rotated.json,http://54.235.29.9/FacialAge/BNav_EC2/DepthDuration/v2_depth_duration_MTurk/v2_DepthDuration_HTML.html#10,10,1920,929,1920,1080,8-20-2022,10-57-8,87,depth_duration_stimuli/002568_2014-06-24_13-59-21_094959634447_rgbf000062-resize_4/002568_2014-06-24_13-59-21_094959634447_rgbf000062-resize_4-target.png,250,3.015,7,2426,252,feet,jsons/v1_VE250_randls_24_rotated.json,637602,907602,40,Woman
87,865328,DepthScenes,duration_manipulation_targetAtFixation,jsons/v1_VE250_randls_24_rotated.json,http://54.235.29.9/FacialAge/BNav_EC2/DepthDuration/v2_depth_duration_MTurk/v2_DepthDuration_HTML.html#10,10,1920,929,1920,1080,8-20-2022,10-57-8,88,depth_duration_stimuli/003492_2014-05-21_15-50-55_094959634447_rgbf000828-resize_1/003492_2014-05-21_15-50-55_094959634447_rgbf000828-resize_1-target.png,250,4.06875,12,5214,247,feet,jsons/v1_VE250_randls_24_rotated.json,637602,907602,40,Woman
88,865328,DepthScenes,duration_manipulation_targetAtFixation,jsons/v1_VE250_randls_24_rotated.json,http://54.235.29.9/FacialAge/BNav_EC2/DepthDuration/v2_depth_duration_MTurk/v2_DepthDuration_HTML.html#10,10,1920,929,1920,1080,8-20-2022,10-57-8,89,depth_duration_stimuli/001584_2014-06-20_11-07-43_260595134347_rgbf000002-resize_1/001584_2014-06-20_11-07-43_260595134347_rgbf000002-resize_1-target.png,250,3.53,6,2874,264,feet,jsons/v1_VE250_randls_24_rotated.json,637602,907602,40,Woman
89,865328,DepthScenes,duration_manipulation_targetAtFixation,jsons/v1_VE250_randls_24_rotated.json,http://54.235.29.9/FacialAge/BNav_EC2/DepthDuration/v2_depth_duration_MTurk/v2_DepthDuration_HTML.html#10,10,1920,929,1920,1080,8-20-2022,10-57-8,90,depth_duration_stimuli/003621_2014-05-23_18-06-08_094959634447_rgbf000101-resize_1/003621_2014-05-23_18-06-08_094959634447_rgbf000101-resize_1-target.png,250,3.9835,20,4748,261,feet,jsons/v1_VE250_randls_24_rotated.json,637602,907602,40,Woman
90,865328,DepthScenes,duration_manipulation_targetAtFixation,jsons/v1_VE250_randls_24_rotated.json,http://54.235.29.9/FacialAge/BNav_EC2/DepthDuration/v2_depth_duration_MTurk/v2_DepthDuration_HTML.html#10,10,1920,929,1920,1080,8-20-2022,10-57-8,91,depth_duration_stimuli/003081_2014-06-15_15-19-16_094959634447_rgbf000150-resize_1/003081_2014-06-15_15-19-16_094959634447_rgbf000150-resize_1-target.png,250,3.9125,10,4041,247,feet,jsons/v1_VE250_randls_24_rotated.json,637602,907602,40,Woman
91,865328,DepthScenes,duration_manipulation_targetAtFixation,jsons/v1_VE250_randls_24_rotated.json,http://54.235.29.9/FacialAge/BNav_EC2/DepthDuration/v2_depth_duration_MTurk/v2_DepthDuration_HTML.html#10,10,1920,929,1920,1080,8-20-2022,10-57-8,92,depth_duration_stimuli/001417_2014-06-19_16-25-36_260595134347_rgbf000115-resize_5/001417_2014-06-19_16-25-36_260595134347_rgbf000115-resize_5-target.png,250,4.6255,8,2854,248,feet,jsons/v1_VE250_randls_24_rotated.json,637602,907602,40,Woman
92,865328,DepthScenes,duration_manipulation_targetAtFixation,jsons/v1_VE250_randls_24_rotated.json,http://54.235.29.9/FacialAge/BNav_EC2/DepthDuration/v2_depth_duration_MTurk/v2_DepthDuration_HTML.html#10,10,1920,929,1920,1080,8-20-2022,10-57-8,93,depth_duration_stimuli/003228_2014-05-14_13-42-35_094959634447_rgbf000101-resize_1/003228_2014-05-14_13-42-35_094959634447_rgbf000101-resize_1-target.png,250,1.9680000000000002,3,2378,258,feet,jsons/v1_VE250_randls_24_rotated.json,637602,907602,40,Woman
93,865328,DepthScenes,duration_manipulation_targetAtFixation,jsons/v1_VE250_randls_24_rotated.json,http://54.235.29.9/FacialAge/BNav_EC2/DepthDuration/v2_depth_duration_MTurk/v2_DepthDuration_HTML.html#10,10,1920,929,1920,1080,8-20-2022,10-57-8,94,depth_duration_stimuli/002600_2014-06-24_14-27-04_094959634447_rgbf000074-resize_2/002600_2014-06-24_14-27-04_094959634447_rgbf000074-resize_2-target.png,250,2.7575,3,2362,249,feet,jsons/v1_VE250_randls_24_rotated.json,637602,907602,40,Woman
94,865328,DepthScenes,duration_manipulation_targetAtFixation,jsons/v1_VE250_randls_24_rotated.json,http://54.235.29.9/FacialAge/BNav_EC2/DepthDuration/v2_depth_duration_MTurk/v2_DepthDuration_HTML.html#10,10,1920,929,1920,1080,8-20-2022,10-57-8,95,depth_duration_stimuli/003079_2014-06-15_15-18-20_094959634447_rgbf000152-resize_8/003079_2014-06-15_15-18-20_094959634447_rgbf000152-resize_8-target.png,250,2.8775,7,2801,249,feet,jsons/v1_VE250_randls_24_rotated.json,637602,907602,40,Woman
95,865328,DepthScenes,duration_manipulation_targetAtFixation,jsons/v1_VE250_randls_24_rotated.json,http://54.235.29.9/FacialAge/BNav_EC2/DepthDuration/v2_depth_duration_MTurk/v2_DepthDuration_HTML.html#10,10,1920,929,1920,1080,8-20-2022,10-57-8,96,depth_duration_stimuli/000506_2014-06-08_23-21-00_260595134347_rgbf000070-resize_7/000506_2014-06-08_23-21-00_260595134347_rgbf000070-resize_7-target.png,250,4.0585,6,2723,248,feet,jsons/v1_VE250_randls_24_rotated.json,637602,907602,40,Woman
96,865328,DepthScenes,duration_manipulation_targetAtFixation,jsons/v1_VE250_randls_24_rotated.json,http://54.235.29.9/FacialAge/BNav_EC2/DepthDuration/v2_depth_duration_MTurk/v2_DepthDuration_HTML.html#10,10,1920,929,1920,1080,8-20-2022,10-57-8,97,depth_duration_stimuli/000677_2014-06-08_23-10-32_260595134347_rgbf000158-resize_6/000677_2014-06-08_23-10-32_260595134347_rgbf000158-resize_6-target.png,250,3.556,4,2660,246,feet,jsons/v1_VE250_randls_24_rotated.json,637602,907602,40,Woman
97,865328,DepthScenes,duration_manipulation_targetAtFixation,jsons/v1_VE250_randls_24_rotated.json,http://54.235.29.9/FacialAge/BNav_EC2/DepthDuration/v2_depth_duration_MTurk/v2_DepthDuration_HTML.html#10,10,1920,929,1920,1080,8-20-2022,10-57-8,98,depth_duration_stimuli/001029_2014-06-08_13-17-57_260595134347_rgbf000065-resize_1/001029_2014-06-08_13-17-57_260595134347_rgbf000065-resize_1-target.png,250,3.0835,4,1996,247,feet,jsons/v1_VE250_randls_24_rotated.json,637602,907602,40,Woman
98,865328,DepthScenes,duration_manipulation_targetAtFixation,jsons/v1_VE250_randls_24_rotated.json,http://54.235.29.9/FacialAge/BNav_EC2/DepthDuration/v2_depth_duration_MTurk/v2_DepthDuration_HTML.html#10,10,1920,929,1920,1080,8-20-2022,10-57-8,99,depth_duration_stimuli/001222_2014-06-17_16-24-06_260595134347_rgbf000073-resize_0/001222_2014-06-17_16-24-06_260595134347_rgbf000073-resize-original.jpg,250,1.4385,0,2816,237,feet,jsons/v1_VE250_randls_24_rotated.json,637602,907602,40,Woman
99,865328,DepthScenes,duration_manipulation_targetAtFixation,jsons/v1_VE250_randls_24_rotated.json,http://54.235.29.9/FacialAge/BNav_EC2/DepthDuration/v2_depth_duration_MTurk/v2_DepthDuration_HTML.html#10,10,1920,929,1920,1080,8-20-2022,10-57-8,100,depth_duration_stimuli/002199_2014-06-28_18-33-56_260595134347_rgbf000074-resize_0/002199_2014-06-28_18-33-56_260595134347_rgbf000074-resize_0-target.png,250,1.996,1,2530,247,feet,jsons/v1_VE250_randls_24_rotated.json,637602,907602,40,Woman
100,865328,DepthScenes,duration_manipulation_targetAtFixation,jsons/v1_VE250_randls_24_rotated.json,http://54.235.29.9/FacialAge/BNav_EC2/DepthDuration/v2_depth_duration_MTurk/v2_DepthDuration_HTML.html#10,10,1920,929,1920,1080,8-20-2022,10-57-8,101,depth_duration_stimuli/001056_2014-06-08_18-46-44_260595134347_rgbf000068-resize_0/001056_2014-06-08_18-46-44_260595134347_rgbf000068-resize_0-target.png,250,2.6625,5,4344,260,feet,jsons/v1_VE250_randls_24_rotated.json,637602,907602,40,Woman
101,865328,DepthScenes,duration_manipulation_targetAtFixation,jsons/v1_VE250_randls_24_rotated.json,http://54.235.29.9/FacialAge/BNav_EC2/DepthDuration/v2_depth_duration_MTurk/v2_DepthDuration_HTML.html#10,10,1920,929,1920,1080,8-20-2022,10-57-8,102,depth_duration_stimuli/002414_2014-06-28_20-24-58_260595134347_rgbf000067-resize_4/002414_2014-06-28_20-24-58_260595134347_rgbf000067-resize_4-target.png,250,4.363,6,2951,245,feet,jsons/v1_VE250_randls_24_rotated.json,637602,907602,40,Woman
102,865328,DepthScenes,duration_manipulation_targetAtFixation,jsons/v1_VE250_randls_24_rotated.json,http://54.235.29.9/FacialAge/BNav_EC2/DepthDuration/v2_depth_duration_MTurk/v2_DepthDuration_HTML.html#10,10,1920,929,1920,1080,8-20-2022,10-57-8,103,depth_duration_stimuli/000773_2014-06-08_22-24-54_260595134347_rgbf000093-resize_1/000773_2014-06-08_22-24-54_260595134347_rgbf000093-resize_1-target.png,250,4.973,9,3088,245,feet,jsons/v1_VE250_randls_24_rotated.json,637602,907602,40,Woman
103,865328,DepthScenes,duration_manipulation_targetAtFixation,jsons/v1_VE250_randls_24_rotated.json,http://54.235.29.9/FacialAge/BNav_EC2/DepthDuration/v2_depth_duration_MTurk/v2_DepthDuration_HTML.html#10,10,1920,929,1920,1080,8-20-2022,10-57-8,104,depth_duration_stimuli/001571_2014-06-20_17-21-32_260595134347_rgbf000089-resize_1/001571_2014-06-20_17-21-32_260595134347_rgbf000089-resize_1-target.png,250,1.86,3,2451,262,feet,jsons/v1_VE250_randls_24_rotated.json,637602,907602,40,Woman
104,865328,DepthScenes,duration_manipulation_targetAtFixation,jsons/v1_VE250_randls_24_rotated.json,http://54.235.29.9/FacialAge/BNav_EC2/DepthDuration/v2_depth_duration_MTurk/v2_DepthDuration_HTML.html#10,10,1920,929,1920,1080,8-20-2022,10-57-8,105,depth_duration_stimuli/002272_2014-06-28_18-53-56_260595134347_rgbf000067-resize_2/002272_2014-06-28_18-53-56_260595134347_rgbf000067-resize_2-target.png,250,1.138,2,2418,246,feet,jsons/v1_VE250_randls_24_rotated.json,637602,907602,40,Woman
105,865328,DepthScenes,duration_manipulation_targetAtFixation,jsons/v1_VE250_randls_24_rotated.json,http://54.235.29.9/FacialAge/BNav_EC2/DepthDuration/v2_depth_duration_MTurk/v2_DepthDuration_HTML.html#10,10,1920,929,1920,1080,8-20-2022,10-57-8,106,depth_duration_stimuli/001450_2014-06-19_17-02-03_260595134347_rgbf000203-resize_4/001450_2014-06-19_17-02-03_260595134347_rgbf000203-resize_4-target.png,250,4.0106666666667,7,2284,247,feet,jsons/v1_VE250_randls_24_rotated.json,637602,907602,40,Woman
106,865328,DepthScenes,duration_manipulation_targetAtFixation,jsons/v1_VE250_randls_24_rotated.json,http://54.235.29.9/FacialAge/BNav_EC2/DepthDuration/v2_depth_duration_MTurk/v2_DepthDuration_HTML.html#10,10,1920,929,1920,1080,8-20-2022,10-57-8,107,depth_duration_stimuli/001449_2014-06-19_17-01-27_260595134347_rgbf000116-resize_2/001449_2014-06-19_17-01-27_260595134347_rgbf000116-resize_2-target.png,250,3.452,10,3900,247,feet,jsons/v1_VE250_randls_24_rotated.json,637602,907602,40,Woman
107,865328,DepthScenes,duration_manipulation_targetAtFixation,jsons/v1_VE250_randls_24_rotated.json,http://54.235.29.9/FacialAge/BNav_EC2/DepthDuration/v2_depth_duration_MTurk/v2_DepthDuration_HTML.html#10,10,1920,929,1920,1080,8-20-2022,10-57-8,108,depth_duration_stimuli/001136_2014-06-17_15-19-41_260595134347_rgbf000076-resize_3/001136_2014-06-17_15-19-41_260595134347_rgbf000076-resize_3-target.png,250,1.8655,7,3080,241,feet,jsons/v1_VE250_randls_24_rotated.json,637602,907602,40,Woman
108,865328,DepthScenes,duration_manipulation_targetAtFixation,jsons/v1_VE250_randls_24_rotated.json,http://54.235.29.9/FacialAge/BNav_EC2/DepthDuration/v2_depth_duration_MTurk/v2_DepthDuration_HTML.html#10,10,1920,929,1920,1080,8-20-2022,10-57-8,109,depth_duration_stimuli/001164_2014-06-17_15-35-46_260595134347_rgbf000085-resize_3/001164_2014-06-17_15-35-46_260595134347_rgbf000085-resize_3-target.png,250,2.354,5,2265,250,feet,jsons/v1_VE250_randls_24_rotated.json,637602,907602,40,Woman
109,865328,DepthScenes,duration_manipulation_targetAtFixation,jsons/v1_VE250_randls_24_rotated.json,http://54.235.29.9/FacialAge/BNav_EC2/DepthDuration/v2_depth_duration_MTurk/v2_DepthDuration_HTML.html#10,10,1920,929,1920,1080,8-20-2022,10-57-8,110,depth_duration_stimuli/002103_2014-06-25_20-00-40_260595134347_rgbf000049-resize_0/002103_2014-06-25_20-00-40_260595134347_rgbf000049-resize_0-target.png,250,4.105,5,3922,248,feet,jsons/v1_VE250_randls_24_rotated.json,637602,907602,40,Woman
110,865328,DepthScenes,duration_manipulation_targetAtFixation,jsons/v1_VE250_randls_24_rotated.json,http://54.235.29.9/FacialAge/BNav_EC2/DepthDuration/v2_depth_duration_MTurk/v2_DepthDuration_HTML.html#10,10,1920,929,1920,1080,8-20-2022,10-57-8,111,depth_duration_stimuli/002039_2014-06-24_20-22-38_260595134347_rgbf000084-resize_1/002039_2014-06-24_20-22-38_260595134347_rgbf000084-resize_1-target.png,250,4.408,0,9684,263,feet,jsons/v1_VE250_randls_24_rotated.json,637602,907602,40,Woman
111,865328,DepthScenes,duration_manipulation_targetAtFixation,jsons/v1_VE250_randls_24_rotated.json,http://54.235.29.9/FacialAge/BNav_EC2/DepthDuration/v2_depth_duration_MTurk/v2_DepthDuration_HTML.html#10,10,1920,929,1920,1080,8-20-2022,10-57-8,112,depth_duration_stimuli/001052_2014-06-08_18-24-54_260595134347_rgbf000130-resize_1/001052_2014-06-08_18-24-54_260595134347_rgbf000130-resize_1-target.png,250,4.1045,10,3402,245,feet,jsons/v1_VE250_randls_24_rotated.json,637602,907602,40,Woman
112,865328,DepthScenes,duration_manipulation_targetAtFixation,jsons/v1_VE250_randls_24_rotated.json,http://54.235.29.9/FacialAge/BNav_EC2/DepthDuration/v2_depth_duration_MTurk/v2_DepthDuration_HTML.html#10,10,1920,929,1920,1080,8-20-2022,10-57-8,113,depth_duration_stimuli/002988_2014-06-15_12-24-20_094959634447_rgbf000150-resize_1/002988_2014-06-15_12-24-20_094959634447_rgbf000150-resize_1-target.png,250,4.7669999999999995,12,3631,247,feet,jsons/v1_VE250_randls_24_rotated.json,637602,907602,40,Woman
113,865328,DepthScenes,duration_manipulation_targetAtFixation,jsons/v1_VE250_randls_24_rotated.json,http://54.235.29.9/FacialAge/BNav_EC2/DepthDuration/v2_depth_duration_MTurk/v2_DepthDuration_HTML.html#10,10,1920,929,1920,1080,8-20-2022,10-57-8,114,depth_duration_stimuli/001650_2014-06-20_12-09-00_260595134347_rgbf000087-resize_3/001650_2014-06-20_12-09-00_260595134347_rgbf000087-resize_3-target.png,250,1.9505,3,2514,265,feet,jsons/v1_VE250_randls_24_rotated.json,637602,907602,40,Woman
114,865328,DepthScenes,duration_manipulation_targetAtFixation,jsons/v1_VE250_randls_24_rotated.json,http://54.235.29.9/FacialAge/BNav_EC2/DepthDuration/v2_depth_duration_MTurk/v2_DepthDuration_HTML.html#10,10,1920,929,1920,1080,8-20-2022,10-57-8,115,depth_duration_stimuli/000682_2014-06-08_23-14-58_260595134347_rgbf000041-resize_5/000682_2014-06-08_23-14-58_260595134347_rgbf000041-resize_5-target.png,250,2.7239999999999998,5,2593,248,feet,jsons/v1_VE250_randls_24_rotated.json,637602,907602,40,Woman
115,865328,DepthScenes,duration_manipulation_targetAtFixation,jsons/v1_VE250_randls_24_rotated.json,http://54.235.29.9/FacialAge/BNav_EC2/DepthDuration/v2_depth_duration_MTurk/v2_DepthDuration_HTML.html#10,10,1920,929,1920,1080,8-20-2022,10-57-8,116,depth_duration_stimuli/000549_2014-06-08_22-10-24_260595134347_rgbf000247-resize_3/000549_2014-06-08_22-10-24_260595134347_rgbf000247-resize_3-target.png,250,1.841,4,16929,249,feet,jsons/v1_VE250_randls_24_rotated.json,637602,907602,40,Woman
116,865328,DepthScenes,duration_manipulation_targetAtFixation,jsons/v1_VE250_randls_24_rotated.json,http://54.235.29.9/FacialAge/BNav_EC2/DepthDuration/v2_depth_duration_MTurk/v2_DepthDuration_HTML.html#10,10,1920,929,1920,1080,8-20-2022,10-57-8,117,depth_duration_stimuli/001055_2014-06-08_18-45-35_260595134347_rgbf000111-resize_4/001055_2014-06-08_18-45-35_260595134347_rgbf000111-resize_4-target.png,250,2.4290000000000003,8,2889,251,feet,jsons/v1_VE250_randls_24_rotated.json,637602,907602,40,Woman
117,865328,DepthScenes,duration_manipulation_targetAtFixation,jsons/v1_VE250_randls_24_rotated.json,http://54.235.29.9/FacialAge/BNav_EC2/DepthDuration/v2_depth_duration_MTurk/v2_DepthDuration_HTML.html#10,10,1920,929,1920,1080,8-20-2022,10-57-8,118,depth_duration_stimuli/002805_2014-06-22_19-54-03_094959634447_rgbf000079-resize_1/002805_2014-06-22_19-54-03_094959634447_rgbf000079-resize_1-target.png,250,3.1439999999999997,8,3320,247,feet,jsons/v1_VE250_randls_24_rotated.json,637602,907602,40,Woman
118,865328,DepthScenes,duration_manipulation_targetAtFixation,jsons/v1_VE250_randls_24_rotated.json,http://54.235.29.9/FacialAge/BNav_EC2/DepthDuration/v2_depth_duration_MTurk/v2_DepthDuration_HTML.html#10,10,1920,929,1920,1080,8-20-2022,10-57-8,119,depth_duration_stimuli/000906_2014-06-08_13-35-43_260595134347_rgbf000155-resize_1/000906_2014-06-08_13-35-43_260595134347_rgbf000155-resize_1-target.png,250,2.8489999999999998,7,2387,248,feet,jsons/v1_VE250_randls_24_rotated.json,637602,907602,40,Woman
119,865328,DepthScenes,duration_manipulation_targetAtFixation,jsons/v1_VE250_randls_24_rotated.json,http://54.235.29.9/FacialAge/BNav_EC2/DepthDuration/v2_depth_duration_MTurk/v2_DepthDuration_HTML.html#10,10,1920,929,1920,1080,8-20-2022,10-57-8,120,depth_duration_stimuli/000787_2014-06-08_22-33-53_260595134347_rgbf000175-resize_1/000787_2014-06-08_22-33-53_260595134347_rgbf000175-resize-original.jpg,250,4.784,0,2712,251,feet,jsons/v1_VE250_randls_24_rotated.json,637602,907602,40,Woman
120,865328,DepthScenes,duration_manipulation_targetAtFixation,jsons/v1_VE250_randls_24_rotated.json,http://54.235.29.9/FacialAge/BNav_EC2/DepthDuration/v2_depth_duration_MTurk/v2_DepthDuration_HTML.html#10,10,1920,929,1920,1080,8-20-2022,10-57-8,121,depth_duration_stimuli/001132_2014-06-17_14-48-54_260595134347_rgbf000100-resize_2/001132_2014-06-17_14-48-54_260595134347_rgbf000100-resize_2-target.png,250,3.753,6,2664,249,feet,jsons/v1_VE250_randls_24_rotated.json,637602,907602,40,Woman
121,865328,DepthScenes,duration_manipulation_targetAtFixation,jsons/v1_VE250_randls_24_rotated.json,http://54.235.29.9/FacialAge/BNav_EC2/DepthDuration/v2_depth_duration_MTurk/v2_DepthDuration_HTML.html#10,10,1920,929,1920,1080,8-20-2022,10-57-8,122,depth_duration_stimuli/001133_2014-06-17_14-49-16_260595134347_rgbf000100-resize_0/001133_2014-06-17_14-49-16_260595134347_rgbf000100-resize_0-target.png,250,4.2115,10,3506,261,feet,jsons/v1_VE250_randls_24_rotated.json,637602,907602,40,Woman
122,865328,DepthScenes,duration_manipulation_targetAtFixation,jsons/v1_VE250_randls_24_rotated.json,http://54.235.29.9/FacialAge/BNav_EC2/DepthDuration/v2_depth_duration_MTurk/v2_DepthDuration_HTML.html#10,10,1920,929,1920,1080,8-20-2022,10-57-8,123,depth_duration_stimuli/000502_2014-06-08_23-02-32_260595134347_rgbf000063-resize_4/000502_2014-06-08_23-02-32_260595134347_rgbf000063-resize_4-target.png,250,2.431,5,2427,258,feet,jsons/v1_VE250_randls_24_rotated.json,637602,907602,40,Woman
123,865328,DepthScenes,duration_manipulation_targetAtFixation,jsons/v1_VE250_randls_24_rotated.json,http://54.235.29.9/FacialAge/BNav_EC2/DepthDuration/v2_depth_duration_MTurk/v2_DepthDuration_HTML.html#10,10,1920,929,1920,1080,8-20-2022,10-57-8,124,depth_duration_stimuli/001199_2014-06-17_16-03-48_260595134347_rgbf000077-resize_0/001199_2014-06-17_16-03-48_260595134347_rgbf000077-resize_0-target.png,250,3.4375,12,3325,248,feet,jsons/v1_VE250_randls_24_rotated.json,637602,907602,40,Woman
124,865328,DepthScenes,duration_manipulation_targetAtFixation,jsons/v1_VE250_randls_24_rotated.json,http://54.235.29.9/FacialAge/BNav_EC2/DepthDuration/v2_depth_duration_MTurk/v2_DepthDuration_HTML.html#10,10,1920,929,1920,1080,8-20-2022,10-57-8,125,depth_duration_stimuli/003495_2014-05-21_16-01-51_094959634447_rgbf000100-resize_3/003495_2014-05-21_16-01-51_094959634447_rgbf000100-resize_3-target.png,250,1.6255,3,2906,249,feet,jsons/v1_VE250_randls_24_rotated.json,637602,907602,40,Woman
125,865328,DepthScenes,duration_manipulation_targetAtFixation,jsons/v1_VE250_randls_24_rotated.json,http://54.235.29.9/FacialAge/BNav_EC2/DepthDuration/v2_depth_duration_MTurk/v2_DepthDuration_HTML.html#10,10,1920,929,1920,1080,8-20-2022,10-57-8,126,depth_duration_stimuli/001244_2014-06-17_16-47-45_260595134347_rgbf000030-resize_4/001244_2014-06-17_16-47-45_260595134347_rgbf000030-resize_4-target.png,250,2.0425,5,2477,247,feet,jsons/v1_VE250_randls_24_rotated.json,637602,907602,40,Woman
126,865328,DepthScenes,duration_manipulation_targetAtFixation,jsons/v1_VE250_randls_24_rotated.json,http://54.235.29.9/FacialAge/BNav_EC2/DepthDuration/v2_depth_duration_MTurk/v2_DepthDuration_HTML.html#10,10,1920,929,1920,1080,8-20-2022,10-57-8,127,depth_duration_stimuli/000635_2014-06-08_16-38-42_260595134347_rgbf000106-resize_1/000635_2014-06-08_16-38-42_260595134347_rgbf000106-resize_1-target.png,250,2.074,6,2458,248,feet,jsons/v1_VE250_randls_24_rotated.json,637602,907602,40,Woman
127,865328,DepthScenes,duration_manipulation_targetAtFixation,jsons/v1_VE250_randls_24_rotated.json,http://54.235.29.9/FacialAge/BNav_EC2/DepthDuration/v2_depth_duration_MTurk/v2_DepthDuration_HTML.html#10,10,1920,929,1920,1080,8-20-2022,10-57-8,128,depth_duration_stimuli/002279_2014-06-28_18-55-32_260595134347_rgbf000040-resize_5/002279_2014-06-28_18-55-32_260595134347_rgbf000040-resize_5-target.png,250,1.5043333333333,3,2523,249,feet,jsons/v1_VE250_randls_24_rotated.json,637602,907602,40,Woman
128,865328,DepthScenes,duration_manipulation_targetAtFixation,jsons/v1_VE250_randls_24_rotated.json,http://54.235.29.9/FacialAge/BNav_EC2/DepthDuration/v2_depth_duration_MTurk/v2_DepthDuration_HTML.html#10,10,1920,929,1920,1080,8-20-2022,10-57-8,129,depth_duration_stimuli/001094_2014-06-15_17-36-00_260595134347_rgbf000205-resize_0/001094_2014-06-15_17-36-00_260595134347_rgbf000205-resize_0-target.png,250,4.2175,7,3197,264,feet,jsons/v1_VE250_randls_24_rotated.json,637602,907602,40,Woman
129,865328,DepthScenes,duration_manipulation_targetAtFixation,jsons/v1_VE250_randls_24_rotated.json,http://54.235.29.9/FacialAge/BNav_EC2/DepthDuration/v2_depth_duration_MTurk/v2_DepthDuration_HTML.html#10,10,1920,929,1920,1080,8-20-2022,10-57-8,130,depth_duration_stimuli/000692_2014-06-08_13-09-42_260595134347_rgbf000199-resize_2/000692_2014-06-08_13-09-42_260595134347_rgbf000199-resize_2-target.png,250,3.661,15,3973,248,feet,jsons/v1_VE250_randls_24_rotated.json,637602,907602,40,Woman
130,865328,DepthScenes,duration_manipulation_targetAtFixation,jsons/v1_VE250_randls_24_rotated.json,http://54.235.29.9/FacialAge/BNav_EC2/DepthDuration/v2_depth_duration_MTurk/v2_DepthDuration_HTML.html#10,10,1920,929,1920,1080,8-20-2022,10-57-8,131,depth_duration_stimuli/002758_2014-06-22_19-11-20_094959634447_rgbf000128-resize_1/002758_2014-06-22_19-11-20_094959634447_rgbf000128-resize_1-target.png,250,2.555,5,2405,239,feet,jsons/v1_VE250_randls_24_rotated.json,637602,907602,40,Woman
131,865328,DepthScenes,duration_manipulation_targetAtFixation,jsons/v1_VE250_randls_24_rotated.json,http://54.235.29.9/FacialAge/BNav_EC2/DepthDuration/v2_depth_duration_MTurk/v2_DepthDuration_HTML.html#10,10,1920,929,1920,1080,8-20-2022,10-57-8,132,depth_duration_stimuli/002630_2014-06-24_14-47-50_094959634447_rgbf000055-resize_1/002630_2014-06-24_14-47-50_094959634447_rgbf000055-resize_1-target.png,250,3.0095,9,5964,247,feet,jsons/v1_VE250_randls_24_rotated.json,637602,907602,40,Woman
132,865328,DepthScenes,duration_manipulation_targetAtFixation,jsons/v1_VE250_randls_24_rotated.json,http://54.235.29.9/FacialAge/BNav_EC2/DepthDuration/v2_depth_duration_MTurk/v2_DepthDuration_HTML.html#10,10,1920,929,1920,1080,8-20-2022,10-57-8,133,depth_duration_stimuli/002750_2014-06-22_19-08-03_094959634447_rgbf000094-resize_4/002750_2014-06-22_19-08-03_094959634447_rgbf000094-resize_4-target.png,250,2.354,8,2788,249,feet,jsons/v1_VE250_randls_24_rotated.json,637602,907602,40,Woman
133,865328,DepthScenes,duration_manipulation_targetAtFixation,jsons/v1_VE250_randls_24_rotated.json,http://54.235.29.9/FacialAge/BNav_EC2/DepthDuration/v2_depth_duration_MTurk/v2_DepthDuration_HTML.html#10,10,1920,929,1920,1080,8-20-2022,10-57-8,134,depth_duration_stimuli/002549_2014-06-24_13-41-39_094959634447_rgbf000022-resize_3/002549_2014-06-24_13-41-39_094959634447_rgbf000022-resize_3-target.png,250,1.476,5,2248,247,feet,jsons/v1_VE250_randls_24_rotated.json,637602,907602,40,Woman
134,865328,DepthScenes,duration_manipulation_targetAtFixation,jsons/v1_VE250_randls_24_rotated.json,http://54.235.29.9/FacialAge/BNav_EC2/DepthDuration/v2_depth_duration_MTurk/v2_DepthDuration_HTML.html#10,10,1920,929,1920,1080,8-20-2022,10-57-8,135,depth_duration_stimuli/000375_2014-06-08_11-17-29_260595134347_rgbf000133-resize_2/000375_2014-06-08_11-17-29_260595134347_rgbf000133-resize-original.jpg,250,4.718,0,2443,247,feet,jsons/v1_VE250_randls_24_rotated.json,637602,907602,40,Woman
135,865328,DepthScenes,duration_manipulation_targetAtFixation,jsons/v1_VE250_randls_24_rotated.json,http://54.235.29.9/FacialAge/BNav_EC2/DepthDuration/v2_depth_duration_MTurk/v2_DepthDuration_HTML.html#10,10,1920,929,1920,1080,8-20-2022,10-57-8,136,depth_duration_stimuli/002136_2014-06-25_21-18-03_260595134347_rgbf000109-resize_3/002136_2014-06-25_21-18-03_260595134347_rgbf000109-resize_3-target.png,250,1.9569999999999999,4,2151,248,feet,jsons/v1_VE250_randls_24_rotated.json,637602,907602,40,Woman
136,865328,DepthScenes,duration_manipulation_targetAtFixation,jsons/v1_VE250_randls_24_rotated.json,http://54.235.29.9/FacialAge/BNav_EC2/DepthDuration/v2_depth_duration_MTurk/v2_DepthDuration_HTML.html#10,10,1920,929,1920,1080,8-20-2022,10-57-8,137,depth_duration_stimuli/002964_2014-06-08_17-46-11_094959634447_rgbf000091-resize_4/002964_2014-06-08_17-46-11_094959634447_rgbf000091-resize_4-target.png,250,1.6909999999999998,3,2688,250,feet,jsons/v1_VE250_randls_24_rotated.json,637602,907602,40,Woman
137,865328,DepthScenes,duration_manipulation_targetAtFixation,jsons/v1_VE250_randls_24_rotated.json,http://54.235.29.9/FacialAge/BNav_EC2/DepthDuration/v2_depth_duration_MTurk/v2_DepthDuration_HTML.html#10,10,1920,929,1920,1080,8-20-2022,10-57-8,138,depth_duration_stimuli/002953_2014-06-08_17-32-18_094959634447_rgbf000059-resize_5/002953_2014-06-08_17-32-18_094959634447_rgbf000059-resize_5-target.png,250,1.551,3,1997,249,feet,jsons/v1_VE250_randls_24_rotated.json,637602,907602,40,Woman
138,865328,DepthScenes,duration_manipulation_targetAtFixation,jsons/v1_VE250_randls_24_rotated.json,http://54.235.29.9/FacialAge/BNav_EC2/DepthDuration/v2_depth_duration_MTurk/v2_DepthDuration_HTML.html#10,10,1920,929,1920,1080,8-20-2022,10-57-8,139,depth_duration_stimuli/000878_2014-06-08_22-52-45_260595134347_rgbf000045-resize_2/000878_2014-06-08_22-52-45_260595134347_rgbf000045-resize_2-target.png,250,2.092,6,2423,245,feet,jsons/v1_VE250_randls_24_rotated.json,637602,907602,40,Woman
139,865328,DepthScenes,duration_manipulation_targetAtFixation,jsons/v1_VE250_randls_24_rotated.json,http://54.235.29.9/FacialAge/BNav_EC2/DepthDuration/v2_depth_duration_MTurk/v2_DepthDuration_HTML.html#10,10,1920,929,1920,1080,8-20-2022,10-57-8,140,depth_duration_stimuli/002467_2014-06-28_20-38-07_260595134347_rgbf000026-resize_2/002467_2014-06-28_20-38-07_260595134347_rgbf000026-resize_2-target.png,250,4.742,9,2947,247,feet,jsons/v1_VE250_randls_24_rotated.json,637602,907602,40,Woman
140,865328,DepthScenes,duration_manipulation_targetAtFixation,jsons/v1_VE250_randls_24_rotated.json,http://54.235.29.9/FacialAge/BNav_EC2/DepthDuration/v2_depth_duration_MTurk/v2_DepthDuration_HTML.html#10,10,1920,929,1920,1080,8-20-2022,10-57-8,141,depth_duration_stimuli/002570_2014-06-24_13-59-54_094959634447_rgbf000059-resize_0/002570_2014-06-24_13-59-54_094959634447_rgbf000059-resize_0-target.png,250,4.037,7,2651,247,feet,jsons/v1_VE250_randls_24_rotated.json,637602,907602,40,Woman
141,865328,DepthScenes,duration_manipulation_targetAtFixation,jsons/v1_VE250_randls_24_rotated.json,http://54.235.29.9/FacialAge/BNav_EC2/DepthDuration/v2_depth_duration_MTurk/v2_DepthDuration_HTML.html#10,10,1920,929,1920,1080,8-20-2022,10-57-8,142,depth_duration_stimuli/002344_2014-06-28_20-06-29_260595134347_rgbf000030-resize_1/002344_2014-06-28_20-06-29_260595134347_rgbf000030-resize_1-target.png,250,1.5795,2,2559,262,feet,jsons/v1_VE250_randls_24_rotated.json,637602,907602,40,Woman
142,865328,DepthScenes,duration_manipulation_targetAtFixation,jsons/v1_VE250_randls_24_rotated.json,http://54.235.29.9/FacialAge/BNav_EC2/DepthDuration/v2_depth_duration_MTurk/v2_DepthDuration_HTML.html#10,10,1920,929,1920,1080,8-20-2022,10-57-8,143,depth_duration_stimuli/002725_2014-06-22_11-47-51_094959634447_rgbf000070-resize_1/002725_2014-06-22_11-47-51_094959634447_rgbf000070-resize_1-target.png,250,2.195,6,2565,248,feet,jsons/v1_VE250_randls_24_rotated.json,637602,907602,40,Woman
143,865328,DepthScenes,duration_manipulation_targetAtFixation,jsons/v1_VE250_randls_24_rotated.json,http://54.235.29.9/FacialAge/BNav_EC2/DepthDuration/v2_depth_duration_MTurk/v2_DepthDuration_HTML.html#10,10,1920,929,1920,1080,8-20-2022,10-57-8,144,depth_duration_stimuli/001617_2014-06-20_11-35-32_260595134347_rgbf000066-resize_1/001617_2014-06-20_11-35-32_260595134347_rgbf000066-resize_1-target.png,250,3.7910000000000004,8,4808,248,feet,jsons/v1_VE250_randls_24_rotated.json,637602,907602,40,Woman
144,865328,DepthScenes,duration_manipulation_targetAtFixation,jsons/v1_VE250_randls_24_rotated.json,http://54.235.29.9/FacialAge/BNav_EC2/DepthDuration/v2_depth_duration_MTurk/v2_DepthDuration_HTML.html#10,10,1920,929,1920,1080,8-20-2022,10-57-8,145,depth_duration_stimuli/001806_2014-06-26_20-50-20_260595134347_rgbf000091-resize_1/001806_2014-06-26_20-50-20_260595134347_rgbf000091-resize_1-target.png,250,2.7305,5,2609,262,feet,jsons/v1_VE250_randls_24_rotated.json,637602,907602,40,Woman
145,865328,DepthScenes,duration_manipulation_targetAtFixation,jsons/v1_VE250_randls_24_rotated.json,http://54.235.29.9/FacialAge/BNav_EC2/DepthDuration/v2_depth_duration_MTurk/v2_DepthDuration_HTML.html#10,10,1920,929,1920,1080,8-20-2022,10-57-8,146,depth_duration_stimuli/002323_2014-06-28_20-01-54_260595134347_rgbf000051-resize_4/002323_2014-06-28_20-01-54_260595134347_rgbf000051-resize_4-target.png,250,3.7310000000000003,12,4616,248,feet,jsons/v1_VE250_randls_24_rotated.json,637602,907602,40,Woman
146,865328,DepthScenes,duration_manipulation_targetAtFixation,jsons/v1_VE250_randls_24_rotated.json,http://54.235.29.9/FacialAge/BNav_EC2/DepthDuration/v2_depth_duration_MTurk/v2_DepthDuration_HTML.html#10,10,1920,929,1920,1080,8-20-2022,10-57-8,147,depth_duration_stimuli/000917_2014-06-09_22-45-29_260595134347_rgbf000149-resize_3/000917_2014-06-09_22-45-29_260595134347_rgbf000149-resize_3-target.png,250,4.1865,8,3790,264,feet,jsons/v1_VE250_randls_24_rotated.json,637602,907602,40,Woman
147,865328,DepthScenes,duration_manipulation_targetAtFixation,jsons/v1_VE250_randls_24_rotated.json,http://54.235.29.9/FacialAge/BNav_EC2/DepthDuration/v2_depth_duration_MTurk/v2_DepthDuration_HTML.html#10,10,1920,929,1920,1080,8-20-2022,10-57-8,148,depth_duration_stimuli/001214_2014-06-17_16-13-55_260595134347_rgbf000111-resize_0/001214_2014-06-17_16-13-55_260595134347_rgbf000111-resize_0-target.png,250,2.6505,5,3379,249,feet,jsons/v1_VE250_randls_24_rotated.json,637602,907602,40,Woman
148,865328,DepthScenes,duration_manipulation_targetAtFixation,jsons/v1_VE250_randls_24_rotated.json,http://54.235.29.9/FacialAge/BNav_EC2/DepthDuration/v2_depth_duration_MTurk/v2_DepthDuration_HTML.html#10,10,1920,929,1920,1080,8-20-2022,10-57-8,149,depth_duration_stimuli/000810_2014-06-08_17-20-01_260595134347_rgbf000105-resize_0/000810_2014-06-08_17-20-01_260595134347_rgbf000105-resize_0-target.png,250,1.4865,6,3365,246,feet,jsons/v1_VE250_randls_24_rotated.json,637602,907602,40,Woman
149,865328,DepthScenes,duration_manipulation_targetAtFixation,jsons/v1_VE250_randls_24_rotated.json,http://54.235.29.9/FacialAge/BNav_EC2/DepthDuration/v2_depth_duration_MTurk/v2_DepthDuration_HTML.html#10,10,1920,929,1920,1080,8-20-2022,10-57-8,150,depth_duration_stimuli/000483_2014-06-09_20-41-45_260595134347_rgbf000116-resize_4/000483_2014-06-09_20-41-45_260595134347_rgbf000116-resize_4-target.png,250,1.337,3,2484,248,feet,jsons/v1_VE250_randls_24_rotated.json,637602,907602,40,Woman
150,865328,DepthScenes,duration_manipulation_targetAtFixation,jsons/v1_VE250_randls_24_rotated.json,http://54.235.29.9/FacialAge/BNav_EC2/DepthDuration/v2_depth_duration_MTurk/v2_DepthDuration_HTML.html#10,10,1920,929,1920,1080,8-20-2022,10-57-8,151,depth_duration_stimuli/000469_2014-06-09_19-42-10_260595134347_rgbf000081-resize_1/000469_2014-06-09_19-42-10_260595134347_rgbf000081-resize_1-target.png,250,1.652,3,2758,250,feet,jsons/v1_VE250_randls_24_rotated.json,637602,907602,40,Woman
151,865328,DepthScenes,duration_manipulation_targetAtFixation,jsons/v1_VE250_randls_24_rotated.json,http://54.235.29.9/FacialAge/BNav_EC2/DepthDuration/v2_depth_duration_MTurk/v2_DepthDuration_HTML.html#10,10,1920,929,1920,1080,8-20-2022,10-57-8,152,depth_duration_stimuli/000569_2014-06-09_22-51-47_260595134347_rgbf000141-resize_3/000569_2014-06-09_22-51-47_260595134347_rgbf000141-resize-original.jpg,250,4.512,0,2457,245,feet,jsons/v1_VE250_randls_24_rotated.json,637602,907602,40,Woman
152,865328,DepthScenes,duration_manipulation_targetAtFixation,jsons/v1_VE250_randls_24_rotated.json,http://54.235.29.9/FacialAge/BNav_EC2/DepthDuration/v2_depth_duration_MTurk/v2_DepthDuration_HTML.html#10,10,1920,929,1920,1080,8-20-2022,10-57-8,153,depth_duration_stimuli/000943_2014-06-09_19-31-07_260595134347_rgbf000128-resize_1/000943_2014-06-09_19-31-07_260595134347_rgbf000128-resize_1-target.png,250,1.9765,4,2407,250,feet,jsons/v1_VE250_randls_24_rotated.json,637602,907602,40,Woman
153,865328,DepthScenes,duration_manipulation_targetAtFixation,jsons/v1_VE250_randls_24_rotated.json,http://54.235.29.9/FacialAge/BNav_EC2/DepthDuration/v2_depth_duration_MTurk/v2_DepthDuration_HTML.html#10,10,1920,929,1920,1080,8-20-2022,10-57-8,154,depth_duration_stimuli/003070_2014-06-15_14-58-27_094959634447_rgbf000150-resize_3/003070_2014-06-15_14-58-27_094959634447_rgbf000150-resize_3-target.png,250,2.9415,6,2440,248,feet,jsons/v1_VE250_randls_24_rotated.json,637602,907602,40,Woman
154,865328,DepthScenes,duration_manipulation_targetAtFixation,jsons/v1_VE250_randls_24_rotated.json,http://54.235.29.9/FacialAge/BNav_EC2/DepthDuration/v2_depth_duration_MTurk/v2_DepthDuration_HTML.html#10,10,1920,929,1920,1080,8-20-2022,10-57-8,155,depth_duration_stimuli/001235_2014-06-17_16-37-36_260595134347_rgbf000084-resize_4/001235_2014-06-17_16-37-36_260595134347_rgbf000084-resize_4-target.png,250,3.6605,7,2800,247,feet,jsons/v1_VE250_randls_24_rotated.json,637602,907602,40,Woman
155,865328,DepthScenes,duration_manipulation_targetAtFixation,jsons/v1_VE250_randls_24_rotated.json,http://54.235.29.9/FacialAge/BNav_EC2/DepthDuration/v2_depth_duration_MTurk/v2_DepthDuration_HTML.html#10,10,1920,929,1920,1080,8-20-2022,10-57-8,156,depth_duration_stimuli/000788_2014-06-08_22-34-36_260595134347_rgbf000131-resize_1/000788_2014-06-08_22-34-36_260595134347_rgbf000131-resize_1-target.png,250,3.359,7,4088,248,feet,jsons/v1_VE250_randls_24_rotated.json,637602,907602,40,Woman
156,865328,DepthScenes,duration_manipulation_targetAtFixation,jsons/v1_VE250_randls_24_rotated.json,http://54.235.29.9/FacialAge/BNav_EC2/DepthDuration/v2_depth_duration_MTurk/v2_DepthDuration_HTML.html#10,10,1920,929,1920,1080,8-20-2022,10-57-8,157,depth_duration_stimuli/000866_2014-06-09_20-45-42_260595134347_rgbf000139-resize_1/000866_2014-06-09_20-45-42_260595134347_rgbf000139-resize_1-target.png,250,3.2155,5,2368,247,feet,jsons/v1_VE250_randls_24_rotated.json,637602,907602,40,Woman
157,865328,DepthScenes,duration_manipulation_targetAtFixation,jsons/v1_VE250_randls_24_rotated.json,http://54.235.29.9/FacialAge/BNav_EC2/DepthDuration/v2_depth_duration_MTurk/v2_DepthDuration_HTML.html#10,10,1920,929,1920,1080,8-20-2022,10-57-8,158,depth_duration_stimuli/002989_2014-06-15_12-25-03_094959634447_rgbf000150-resize_3/002989_2014-06-15_12-25-03_094959634447_rgbf000150-resize_3-target.png,250,4.1975,14,3613,249,feet,jsons/v1_VE250_randls_24_rotated.json,637602,907602,40,Woman
158,865328,DepthScenes,duration_manipulation_targetAtFixation,jsons/v1_VE250_randls_24_rotated.json,http://54.235.29.9/FacialAge/BNav_EC2/DepthDuration/v2_depth_duration_MTurk/v2_DepthDuration_HTML.html#10,10,1920,929,1920,1080,8-20-2022,10-57-8,159,depth_duration_stimuli/002995_2014-06-15_12-31-26_094959634447_rgbf000150-resize_1/002995_2014-06-15_12-31-26_094959634447_rgbf000150-resize_1-target.png,250,3.8360000000000003,12,2494,247,feet,jsons/v1_VE250_randls_24_rotated.json,637602,907602,40,Woman
159,865328,DepthScenes,duration_manipulation_targetAtFixation,jsons/v1_VE250_randls_24_rotated.json,http://54.235.29.9/FacialAge/BNav_EC2/DepthDuration/v2_depth_duration_MTurk/v2_DepthDuration_HTML.html#10,10,1920,929,1920,1080,8-20-2022,10-57-8,160,depth_duration_stimuli/002748_2014-06-22_19-07-22_094959634447_rgbf000078-resize_1/002748_2014-06-22_19-07-22_094959634447_rgbf000078-resize_1-target.png,250,4.6705,20,4716,247,feet,jsons/v1_VE250_randls_24_rotated.json,637602,907602,40,Woman
160,865328,DepthScenes,duration_manipulation_targetAtFixation,jsons/v1_VE250_randls_24_rotated.json,http://54.235.29.9/FacialAge/BNav_EC2/DepthDuration/v2_depth_duration_MTurk/v2_DepthDuration_HTML.html#10,10,1920,929,1920,1080,8-20-2022,10-57-8,161,depth_duration_stimuli/002209_2014-06-28_18-36-10_260595134347_rgbf000051-resize_1/002209_2014-06-28_18-36-10_260595134347_rgbf000051-resize_1-target.png,250,2.057,3,2174,263,feet,jsons/v1_VE250_randls_24_rotated.json,637602,907602,40,Woman
161,865328,DepthScenes,duration_manipulation_targetAtFixation,jsons/v1_VE250_randls_24_rotated.json,http://54.235.29.9/FacialAge/BNav_EC2/DepthDuration/v2_depth_duration_MTurk/v2_DepthDuration_HTML.html#10,10,1920,929,1920,1080,8-20-2022,10-57-8,162,depth_duration_stimuli/002763_2014-06-22_19-13-10_094959634447_rgbf000075-resize_4/002763_2014-06-22_19-13-10_094959634447_rgbf000075-resize_4-target.png,250,1.68375,4,2362,253,feet,jsons/v1_VE250_randls_24_rotated.json,637602,907602,40,Woman
162,865328,DepthScenes,duration_manipulation_targetAtFixation,jsons/v1_VE250_randls_24_rotated.json,http://54.235.29.9/FacialAge/BNav_EC2/DepthDuration/v2_depth_duration_MTurk/v2_DepthDuration_HTML.html#10,10,1920,929,1920,1080,8-20-2022,10-57-8,163,depth_duration_stimuli/002660_2014-06-13_15-44-18_094959634447_rgbf001878-resize_2/002660_2014-06-13_15-44-18_094959634447_rgbf001878-resize_2-target.png,250,3.576,6,2900,255,feet,jsons/v1_VE250_randls_24_rotated.json,637602,907602,40,Woman
163,865328,DepthScenes,duration_manipulation_targetAtFixation,jsons/v1_VE250_randls_24_rotated.json,http://54.235.29.9/FacialAge/BNav_EC2/DepthDuration/v2_depth_duration_MTurk/v2_DepthDuration_HTML.html#10,10,1920,929,1920,1080,8-20-2022,10-57-8,164,depth_duration_stimuli/002153_2014-06-25_21-27-18_260595134347_rgbf000038-resize_5/002153_2014-06-25_21-27-18_260595134347_rgbf000038-resize_5-target.png,250,2.505,5,2694,248,feet,jsons/v1_VE250_randls_24_rotated.json,637602,907602,40,Woman
