,subjID,experimentName,versionName,sequenceName,url,selected_row,windowWidth,windowHeight,screenWidth,screenHeight,startDate,startTime,trial,stimulus,duration,actual_depth,depth_estimate,trial_RT,log_sceneDuration,unitSelection,seq_filepath,experimentTime,totalTime,age,gender
0,866086,DepthScenes,duration_manipulation_targetAtFixation,jsons/v1_VE1000_randls_17.json,http://54.235.29.9/FacialAge/BNav_EC2/DepthDuration/v2_depth_duration_MTurk/v2_DepthDuration_HTML.html#17,17,1364,625,1364,768,8-29-2022,12-22-15,1,depth_duration_stimuli/002600_2014-06-24_14-27-04_094959634447_rgbf000074-resize_2/002600_2014-06-24_14-27-04_094959634447_rgbf000074-resize_2-target.png,1000,2.7575,5,4629,1000,feet,jsons/v1_VE1000_randls_17.json,850200,1026967,58,Woman
1,866086,DepthScenes,duration_manipulation_targetAtFixation,jsons/v1_VE1000_randls_17.json,http://54.235.29.9/FacialAge/BNav_EC2/DepthDuration/v2_depth_duration_MTurk/v2_DepthDuration_HTML.html#17,17,1364,625,1364,768,8-29-2022,12-22-15,2,depth_duration_stimuli/003228_2014-05-14_13-42-35_094959634447_rgbf000101-resize_1/003228_2014-05-14_13-42-35_094959634447_rgbf000101-resize_1-target.png,1000,1.9680000000000002,4,4048,998,feet,jsons/v1_VE1000_randls_17.json,850200,1026967,58,Woman
2,866086,DepthScenes,duration_manipulation_targetAtFixation,jsons/v1_VE1000_randls_17.json,http://54.235.29.9/FacialAge/BNav_EC2/DepthDuration/v2_depth_duration_MTurk/v2_DepthDuration_HTML.html#17,17,1364,625,1364,768,8-29-2022,12-22-15,3,depth_duration_stimuli/002039_2014-06-24_20-22-38_260595134347_rgbf000084-resize_1/002039_2014-06-24_20-22-38_260595134347_rgbf000084-resize_1-target.png,1000,4.408,4,4167,986,feet,jsons/v1_VE1000_randls_17.json,850200,1026967,58,Woman
3,866086,DepthScenes,duration_manipulation_targetAtFixation,jsons/v1_VE1000_randls_17.json,http://54.235.29.9/FacialAge/BNav_EC2/DepthDuration/v2_depth_duration_MTurk/v2_DepthDuration_HTML.html#17,17,1364,625,1364,768,8-29-2022,12-22-15,4,depth_duration_stimuli/002103_2014-06-25_20-00-40_260595134347_rgbf000049-resize_0/002103_2014-06-25_20-00-40_260595134347_rgbf000049-resize_0-target.png,1000,4.105,0,4676,997,feet,jsons/v1_VE1000_randls_17.json,850200,1026967,58,Woman
4,866086,DepthScenes,duration_manipulation_targetAtFixation,jsons/v1_VE1000_randls_17.json,http://54.235.29.9/FacialAge/BNav_EC2/DepthDuration/v2_depth_duration_MTurk/v2_DepthDuration_HTML.html#17,17,1364,625,1364,768,8-29-2022,12-22-15,5,depth_duration_stimuli/003621_2014-05-23_18-06-08_094959634447_rgbf000101-resize_1/003621_2014-05-23_18-06-08_094959634447_rgbf000101-resize_1-target.png,1000,3.9835,0,4141,999,feet,jsons/v1_VE1000_randls_17.json,850200,1026967,58,Woman
5,866086,DepthScenes,duration_manipulation_targetAtFixation,jsons/v1_VE1000_randls_17.json,http://54.235.29.9/FacialAge/BNav_EC2/DepthDuration/v2_depth_duration_MTurk/v2_DepthDuration_HTML.html#17,17,1364,625,1364,768,8-29-2022,12-22-15,6,depth_duration_stimuli/001584_2014-06-20_11-07-43_260595134347_rgbf000002-resize_1/001584_2014-06-20_11-07-43_260595134347_rgbf000002-resize_1-target.png,1000,3.53,8,6937,1000,feet,jsons/v1_VE1000_randls_17.json,850200,1026967,58,Woman
6,866086,DepthScenes,duration_manipulation_targetAtFixation,jsons/v1_VE1000_randls_17.json,http://54.235.29.9/FacialAge/BNav_EC2/DepthDuration/v2_depth_duration_MTurk/v2_DepthDuration_HTML.html#17,17,1364,625,1364,768,8-29-2022,12-22-15,7,depth_duration_stimuli/002375_2014-06-28_20-13-44_260595134347_rgbf000032-resize_1/002375_2014-06-28_20-13-44_260595134347_rgbf000032-resize_1-target.png,1000,4.0175,3,4931,1001,feet,jsons/v1_VE1000_randls_17.json,850200,1026967,58,Woman
7,866086,DepthScenes,duration_manipulation_targetAtFixation,jsons/v1_VE1000_randls_17.json,http://54.235.29.9/FacialAge/BNav_EC2/DepthDuration/v2_depth_duration_MTurk/v2_DepthDuration_HTML.html#17,17,1364,625,1364,768,8-29-2022,12-22-15,8,depth_duration_stimuli/002657_2014-06-13_15-29-54_094959634447_rgbf000150-resize_1/002657_2014-06-13_15-29-54_094959634447_rgbf000150-resize_1-target.png,1000,4.919,4,4765,989,feet,jsons/v1_VE1000_randls_17.json,850200,1026967,58,Woman
8,866086,DepthScenes,duration_manipulation_targetAtFixation,jsons/v1_VE1000_randls_17.json,http://54.235.29.9/FacialAge/BNav_EC2/DepthDuration/v2_depth_duration_MTurk/v2_DepthDuration_HTML.html#17,17,1364,625,1364,768,8-29-2022,12-22-15,9,depth_duration_stimuli/001199_2014-06-17_16-03-48_260595134347_rgbf000077-resize_0/001199_2014-06-17_16-03-48_260595134347_rgbf000077-resize_0-target.png,1000,3.4375,4,5601,1001,feet,jsons/v1_VE1000_randls_17.json,850200,1026967,58,Woman
9,866086,DepthScenes,duration_manipulation_targetAtFixation,jsons/v1_VE1000_randls_17.json,http://54.235.29.9/FacialAge/BNav_EC2/DepthDuration/v2_depth_duration_MTurk/v2_DepthDuration_HTML.html#17,17,1364,625,1364,768,8-29-2022,12-22-15,10,depth_duration_stimuli/000502_2014-06-08_23-02-32_260595134347_rgbf000063-resize_4/000502_2014-06-08_23-02-32_260595134347_rgbf000063-resize_4-target.png,1000,2.431,3,4552,998,feet,jsons/v1_VE1000_randls_17.json,850200,1026967,58,Woman
10,866086,DepthScenes,duration_manipulation_targetAtFixation,jsons/v1_VE1000_randls_17.json,http://54.235.29.9/FacialAge/BNav_EC2/DepthDuration/v2_depth_duration_MTurk/v2_DepthDuration_HTML.html#17,17,1364,625,1364,768,8-29-2022,12-22-15,11,depth_duration_stimuli/000788_2014-06-08_22-34-36_260595134347_rgbf000131-resize_1/000788_2014-06-08_22-34-36_260595134347_rgbf000131-resize_1-target.png,1000,3.359,3,4356,1000,feet,jsons/v1_VE1000_randls_17.json,850200,1026967,58,Woman
11,866086,DepthScenes,duration_manipulation_targetAtFixation,jsons/v1_VE1000_randls_17.json,http://54.235.29.9/FacialAge/BNav_EC2/DepthDuration/v2_depth_duration_MTurk/v2_DepthDuration_HTML.html#17,17,1364,625,1364,768,8-29-2022,12-22-15,12,depth_duration_stimuli/001235_2014-06-17_16-37-36_260595134347_rgbf000084-resize_4/001235_2014-06-17_16-37-36_260595134347_rgbf000084-resize_4-target.png,1000,3.6605,5,4359,996,feet,jsons/v1_VE1000_randls_17.json,850200,1026967,58,Woman
12,866086,DepthScenes,duration_manipulation_targetAtFixation,jsons/v1_VE1000_randls_17.json,http://54.235.29.9/FacialAge/BNav_EC2/DepthDuration/v2_depth_duration_MTurk/v2_DepthDuration_HTML.html#17,17,1364,625,1364,768,8-29-2022,12-22-15,13,depth_duration_stimuli/000569_2014-06-09_22-51-47_260595134347_rgbf000141-resize_3/000569_2014-06-09_22-51-47_260595134347_rgbf000141-resize-original.jpg,1000,4.512,0,4076,1001,feet,jsons/v1_VE1000_randls_17.json,850200,1026967,58,Woman
13,866086,DepthScenes,duration_manipulation_targetAtFixation,jsons/v1_VE1000_randls_17.json,http://54.235.29.9/FacialAge/BNav_EC2/DepthDuration/v2_depth_duration_MTurk/v2_DepthDuration_HTML.html#17,17,1364,625,1364,768,8-29-2022,12-22-15,14,depth_duration_stimuli/000486_2014-06-09_20-47-20_260595134347_rgbf000143-resize_2/000486_2014-06-09_20-47-20_260595134347_rgbf000143-resize_2-target.png,1000,4.8325,3,4283,1000,feet,jsons/v1_VE1000_randls_17.json,850200,1026967,58,Woman
14,866086,DepthScenes,duration_manipulation_targetAtFixation,jsons/v1_VE1000_randls_17.json,http://54.235.29.9/FacialAge/BNav_EC2/DepthDuration/v2_depth_duration_MTurk/v2_DepthDuration_HTML.html#17,17,1364,625,1364,768,8-29-2022,12-22-15,15,depth_duration_stimuli/003083_2014-06-15_15-21-03_094959634447_rgbf000063-resize_1/003083_2014-06-15_15-21-03_094959634447_rgbf000063-resize_1-target.png,1000,4.1405,10,4791,1000,feet,jsons/v1_VE1000_randls_17.json,850200,1026967,58,Woman
15,866086,DepthScenes,duration_manipulation_targetAtFixation,jsons/v1_VE1000_randls_17.json,http://54.235.29.9/FacialAge/BNav_EC2/DepthDuration/v2_depth_duration_MTurk/v2_DepthDuration_HTML.html#17,17,1364,625,1364,768,8-29-2022,12-22-15,16,depth_duration_stimuli/001164_2014-06-17_15-35-46_260595134347_rgbf000085-resize_3/001164_2014-06-17_15-35-46_260595134347_rgbf000085-resize_3-target.png,1000,2.354,4,4278,999,feet,jsons/v1_VE1000_randls_17.json,850200,1026967,58,Woman
16,866086,DepthScenes,duration_manipulation_targetAtFixation,jsons/v1_VE1000_randls_17.json,http://54.235.29.9/FacialAge/BNav_EC2/DepthDuration/v2_depth_duration_MTurk/v2_DepthDuration_HTML.html#17,17,1364,625,1364,768,8-29-2022,12-22-15,17,depth_duration_stimuli/001136_2014-06-17_15-19-41_260595134347_rgbf000076-resize_3/001136_2014-06-17_15-19-41_260595134347_rgbf000076-resize_3-target.png,1000,1.8655,5,5764,1000,feet,jsons/v1_VE1000_randls_17.json,850200,1026967,58,Woman
17,866086,DepthScenes,duration_manipulation_targetAtFixation,jsons/v1_VE1000_randls_17.json,http://54.235.29.9/FacialAge/BNav_EC2/DepthDuration/v2_depth_duration_MTurk/v2_DepthDuration_HTML.html#17,17,1364,625,1364,768,8-29-2022,12-22-15,18,depth_duration_stimuli/000906_2014-06-08_13-35-43_260595134347_rgbf000155-resize_1/000906_2014-06-08_13-35-43_260595134347_rgbf000155-resize_1-target.png,1000,2.8489999999999998,8,5209,999,feet,jsons/v1_VE1000_randls_17.json,850200,1026967,58,Woman
18,866086,DepthScenes,duration_manipulation_targetAtFixation,jsons/v1_VE1000_randls_17.json,http://54.235.29.9/FacialAge/BNav_EC2/DepthDuration/v2_depth_duration_MTurk/v2_DepthDuration_HTML.html#17,17,1364,625,1364,768,8-29-2022,12-22-15,19,depth_duration_stimuli/002805_2014-06-22_19-54-03_094959634447_rgbf000079-resize_1/002805_2014-06-22_19-54-03_094959634447_rgbf000079-resize_1-target.png,1000,3.1439999999999997,3,3994,1001,feet,jsons/v1_VE1000_randls_17.json,850200,1026967,58,Woman
19,866086,DepthScenes,duration_manipulation_targetAtFixation,jsons/v1_VE1000_randls_17.json,http://54.235.29.9/FacialAge/BNav_EC2/DepthDuration/v2_depth_duration_MTurk/v2_DepthDuration_HTML.html#17,17,1364,625,1364,768,8-29-2022,12-22-15,20,depth_duration_stimuli/002057_2014-06-24_21-00-13_260595134347_rgbf000120-resize_1/002057_2014-06-24_21-00-13_260595134347_rgbf000120-resize_1-target.png,1000,2.967,0,4443,980,feet,jsons/v1_VE1000_randls_17.json,850200,1026967,58,Woman
20,866086,DepthScenes,duration_manipulation_targetAtFixation,jsons/v1_VE1000_randls_17.json,http://54.235.29.9/FacialAge/BNav_EC2/DepthDuration/v2_depth_duration_MTurk/v2_DepthDuration_HTML.html#17,17,1364,625,1364,768,8-29-2022,12-22-15,21,depth_duration_stimuli/000709_2014-06-08_13-51-55_260595134347_rgbf000068-resize_3/000709_2014-06-08_13-51-55_260595134347_rgbf000068-resize_3-target.png,1000,1.8030000000000002,4,4125,998,feet,jsons/v1_VE1000_randls_17.json,850200,1026967,58,Woman
21,866086,DepthScenes,duration_manipulation_targetAtFixation,jsons/v1_VE1000_randls_17.json,http://54.235.29.9/FacialAge/BNav_EC2/DepthDuration/v2_depth_duration_MTurk/v2_DepthDuration_HTML.html#17,17,1364,625,1364,768,8-29-2022,12-22-15,22,depth_duration_stimuli/002905_2014-06-03_18-04-43_094959634447_rgbf000151-resize_2/002905_2014-06-03_18-04-43_094959634447_rgbf000151-resize_2-target.png,1000,2.0295,0,11028,1000,feet,jsons/v1_VE1000_randls_17.json,850200,1026967,58,Woman
22,866086,DepthScenes,duration_manipulation_targetAtFixation,jsons/v1_VE1000_randls_17.json,http://54.235.29.9/FacialAge/BNav_EC2/DepthDuration/v2_depth_duration_MTurk/v2_DepthDuration_HTML.html#17,17,1364,625,1364,768,8-29-2022,12-22-15,23,depth_duration_stimuli/003423_2014-05-21_10-23-26_094959634447_rgbf002665-resize_2/003423_2014-05-21_10-23-26_094959634447_rgbf002665-resize_2-target.png,1000,3.2575,2,7430,1000,feet,jsons/v1_VE1000_randls_17.json,850200,1026967,58,Woman
23,866086,DepthScenes,duration_manipulation_targetAtFixation,jsons/v1_VE1000_randls_17.json,http://54.235.29.9/FacialAge/BNav_EC2/DepthDuration/v2_depth_duration_MTurk/v2_DepthDuration_HTML.html#17,17,1364,625,1364,768,8-29-2022,12-22-15,24,depth_duration_stimuli/001806_2014-06-26_20-50-20_260595134347_rgbf000091-resize_1/001806_2014-06-26_20-50-20_260595134347_rgbf000091-resize_1-target.png,1000,2.7305,3,6497,1000,feet,jsons/v1_VE1000_randls_17.json,850200,1026967,58,Woman
24,866086,DepthScenes,duration_manipulation_targetAtFixation,jsons/v1_VE1000_randls_17.json,http://54.235.29.9/FacialAge/BNav_EC2/DepthDuration/v2_depth_duration_MTurk/v2_DepthDuration_HTML.html#17,17,1364,625,1364,768,8-29-2022,12-22-15,25,depth_duration_stimuli/001617_2014-06-20_11-35-32_260595134347_rgbf000066-resize_1/001617_2014-06-20_11-35-32_260595134347_rgbf000066-resize_1-target.png,1000,3.7910000000000004,0,5299,1000,feet,jsons/v1_VE1000_randls_17.json,850200,1026967,58,Woman
25,866086,DepthScenes,duration_manipulation_targetAtFixation,jsons/v1_VE1000_randls_17.json,http://54.235.29.9/FacialAge/BNav_EC2/DepthDuration/v2_depth_duration_MTurk/v2_DepthDuration_HTML.html#17,17,1364,625,1364,768,8-29-2022,12-22-15,26,depth_duration_stimuli/001158_2014-06-17_15-32-16_260595134347_rgbf000138-resize_2/001158_2014-06-17_15-32-16_260595134347_rgbf000138-resize_2-target.png,1000,4.5315,3,5275,999,feet,jsons/v1_VE1000_randls_17.json,850200,1026967,58,Woman
26,866086,DepthScenes,duration_manipulation_targetAtFixation,jsons/v1_VE1000_randls_17.json,http://54.235.29.9/FacialAge/BNav_EC2/DepthDuration/v2_depth_duration_MTurk/v2_DepthDuration_HTML.html#17,17,1364,625,1364,768,8-29-2022,12-22-15,27,depth_duration_stimuli/000556_2014-06-09_22-42-56_260595134347_rgbf000214-resize_1/000556_2014-06-09_22-42-56_260595134347_rgbf000214-resize_1-target.png,1000,4.8415,3,4778,999,feet,jsons/v1_VE1000_randls_17.json,850200,1026967,58,Woman
27,866086,DepthScenes,duration_manipulation_targetAtFixation,jsons/v1_VE1000_randls_17.json,http://54.235.29.9/FacialAge/BNav_EC2/DepthDuration/v2_depth_duration_MTurk/v2_DepthDuration_HTML.html#17,17,1364,625,1364,768,8-29-2022,12-22-15,28,depth_duration_stimuli/002549_2014-06-24_13-41-39_094959634447_rgbf000022-resize_3/002549_2014-06-24_13-41-39_094959634447_rgbf000022-resize_3-target.png,1000,1.476,4,4695,997,feet,jsons/v1_VE1000_randls_17.json,850200,1026967,58,Woman
28,866086,DepthScenes,duration_manipulation_targetAtFixation,jsons/v1_VE1000_randls_17.json,http://54.235.29.9/FacialAge/BNav_EC2/DepthDuration/v2_depth_duration_MTurk/v2_DepthDuration_HTML.html#17,17,1364,625,1364,768,8-29-2022,12-22-15,29,depth_duration_stimuli/002750_2014-06-22_19-08-03_094959634447_rgbf000094-resize_4/002750_2014-06-22_19-08-03_094959634447_rgbf000094-resize_4-target.png,1000,2.354,4,4628,998,feet,jsons/v1_VE1000_randls_17.json,850200,1026967,58,Woman
29,866086,DepthScenes,duration_manipulation_targetAtFixation,jsons/v1_VE1000_randls_17.json,http://54.235.29.9/FacialAge/BNav_EC2/DepthDuration/v2_depth_duration_MTurk/v2_DepthDuration_HTML.html#17,17,1364,625,1364,768,8-29-2022,12-22-15,30,depth_duration_stimuli/000375_2014-06-08_11-17-29_260595134347_rgbf000133-resize_2/000375_2014-06-08_11-17-29_260595134347_rgbf000133-resize-original.jpg,1000,4.718,5,4105,1000,feet,jsons/v1_VE1000_randls_17.json,850200,1026967,58,Woman
30,866086,DepthScenes,duration_manipulation_targetAtFixation,jsons/v1_VE1000_randls_17.json,http://54.235.29.9/FacialAge/BNav_EC2/DepthDuration/v2_depth_duration_MTurk/v2_DepthDuration_HTML.html#17,17,1364,625,1364,768,8-29-2022,12-22-15,31,depth_duration_stimuli/002118_2014-06-25_20-32-08_260595134347_rgbf000078-resize_1/002118_2014-06-25_20-32-08_260595134347_rgbf000078-resize_1-target.png,1000,2.6460000000000004,4,5318,999,feet,jsons/v1_VE1000_randls_17.json,850200,1026967,58,Woman
31,866086,DepthScenes,duration_manipulation_targetAtFixation,jsons/v1_VE1000_randls_17.json,http://54.235.29.9/FacialAge/BNav_EC2/DepthDuration/v2_depth_duration_MTurk/v2_DepthDuration_HTML.html#17,17,1364,625,1364,768,8-29-2022,12-22-15,32,depth_duration_stimuli/001516_2014-06-20_16-25-09_260595134347_rgbf000076-resize_2/001516_2014-06-20_16-25-09_260595134347_rgbf000076-resize_2-target.png,1000,1.7445,3,6088,1007,feet,jsons/v1_VE1000_randls_17.json,850200,1026967,58,Woman
32,866086,DepthScenes,duration_manipulation_targetAtFixation,jsons/v1_VE1000_randls_17.json,http://54.235.29.9/FacialAge/BNav_EC2/DepthDuration/v2_depth_duration_MTurk/v2_DepthDuration_HTML.html#17,17,1364,625,1364,768,8-29-2022,12-22-15,33,depth_duration_stimuli/002043_2014-06-24_20-29-38_260595134347_rgbf000039-resize_4/002043_2014-06-24_20-29-38_260595134347_rgbf000039-resize_4-target.png,1000,2.8435,3,5097,1001,feet,jsons/v1_VE1000_randls_17.json,850200,1026967,58,Woman
33,866086,DepthScenes,duration_manipulation_targetAtFixation,jsons/v1_VE1000_randls_17.json,http://54.235.29.9/FacialAge/BNav_EC2/DepthDuration/v2_depth_duration_MTurk/v2_DepthDuration_HTML.html#17,17,1364,625,1364,768,8-29-2022,12-22-15,34,depth_duration_stimuli/003048_2014-06-15_13-49-43_094959634447_rgbf000150-resize_1/003048_2014-06-15_13-49-43_094959634447_rgbf000150-resize_1-target.png,1000,4.0035,4,4174,1000,feet,jsons/v1_VE1000_randls_17.json,850200,1026967,58,Woman
34,866086,DepthScenes,duration_manipulation_targetAtFixation,jsons/v1_VE1000_randls_17.json,http://54.235.29.9/FacialAge/BNav_EC2/DepthDuration/v2_depth_duration_MTurk/v2_DepthDuration_HTML.html#17,17,1364,625,1364,768,8-29-2022,12-22-15,35,depth_duration_stimuli/000506_2014-06-08_23-21-00_260595134347_rgbf000070-resize_7/000506_2014-06-08_23-21-00_260595134347_rgbf000070-resize_7-target.png,1000,4.0585,5,4234,1004,feet,jsons/v1_VE1000_randls_17.json,850200,1026967,58,Woman
35,866086,DepthScenes,duration_manipulation_targetAtFixation,jsons/v1_VE1000_randls_17.json,http://54.235.29.9/FacialAge/BNav_EC2/DepthDuration/v2_depth_duration_MTurk/v2_DepthDuration_HTML.html#17,17,1364,625,1364,768,8-29-2022,12-22-15,36,depth_duration_stimuli/003079_2014-06-15_15-18-20_094959634447_rgbf000152-resize_8/003079_2014-06-15_15-18-20_094959634447_rgbf000152-resize_8-target.png,1000,2.8775,7,4377,1000,feet,jsons/v1_VE1000_randls_17.json,850200,1026967,58,Woman
36,866086,DepthScenes,duration_manipulation_targetAtFixation,jsons/v1_VE1000_randls_17.json,http://54.235.29.9/FacialAge/BNav_EC2/DepthDuration/v2_depth_duration_MTurk/v2_DepthDuration_HTML.html#17,17,1364,625,1364,768,8-29-2022,12-22-15,37,depth_duration_stimuli/001056_2014-06-08_18-46-44_260595134347_rgbf000068-resize_0/001056_2014-06-08_18-46-44_260595134347_rgbf000068-resize_0-target.png,1000,2.6625,2,3938,999,feet,jsons/v1_VE1000_randls_17.json,850200,1026967,58,Woman
37,866086,DepthScenes,duration_manipulation_targetAtFixation,jsons/v1_VE1000_randls_17.json,http://54.235.29.9/FacialAge/BNav_EC2/DepthDuration/v2_depth_duration_MTurk/v2_DepthDuration_HTML.html#17,17,1364,625,1364,768,8-29-2022,12-22-15,38,depth_duration_stimuli/002199_2014-06-28_18-33-56_260595134347_rgbf000074-resize_0/002199_2014-06-28_18-33-56_260595134347_rgbf000074-resize_0-target.png,1000,1.996,2,3846,1018,feet,jsons/v1_VE1000_randls_17.json,850200,1026967,58,Woman
38,866086,DepthScenes,duration_manipulation_targetAtFixation,jsons/v1_VE1000_randls_17.json,http://54.235.29.9/FacialAge/BNav_EC2/DepthDuration/v2_depth_duration_MTurk/v2_DepthDuration_HTML.html#17,17,1364,625,1364,768,8-29-2022,12-22-15,39,depth_duration_stimuli/002663_2014-06-13_15-50-26_094959634447_rgbf000075-resize_1/002663_2014-06-13_15-50-26_094959634447_rgbf000075-resize_1-target.png,1000,4.7495,0,4021,1000,feet,jsons/v1_VE1000_randls_17.json,850200,1026967,58,Woman
39,866086,DepthScenes,duration_manipulation_targetAtFixation,jsons/v1_VE1000_randls_17.json,http://54.235.29.9/FacialAge/BNav_EC2/DepthDuration/v2_depth_duration_MTurk/v2_DepthDuration_HTML.html#17,17,1364,625,1364,768,8-29-2022,12-22-15,40,depth_duration_stimuli/000409_2014-06-04_19-23-33_260595134347_rgbf000067-resize_0/000409_2014-06-04_19-23-33_260595134347_rgbf000067-resize_0-target.png,1000,3.7335,3,4232,999,feet,jsons/v1_VE1000_randls_17.json,850200,1026967,58,Woman
40,866086,DepthScenes,duration_manipulation_targetAtFixation,jsons/v1_VE1000_randls_17.json,http://54.235.29.9/FacialAge/BNav_EC2/DepthDuration/v2_depth_duration_MTurk/v2_DepthDuration_HTML.html#17,17,1364,625,1364,768,8-29-2022,12-22-15,41,depth_duration_stimuli/001150_2014-06-17_15-27-34_260595134347_rgbf000108-resize_2/001150_2014-06-17_15-27-34_260595134347_rgbf000108-resize_2-target.png,1000,4.0325,3,4320,1002,feet,jsons/v1_VE1000_randls_17.json,850200,1026967,58,Woman
41,866086,DepthScenes,duration_manipulation_targetAtFixation,jsons/v1_VE1000_randls_17.json,http://54.235.29.9/FacialAge/BNav_EC2/DepthDuration/v2_depth_duration_MTurk/v2_DepthDuration_HTML.html#17,17,1364,625,1364,768,8-29-2022,12-22-15,42,depth_duration_stimuli/000665_2014-06-09_20-42-35_260595134347_rgbf000110-resize_1/000665_2014-06-09_20-42-35_260595134347_rgbf000110-resize_1-target.png,1000,3.057,3,5789,998,feet,jsons/v1_VE1000_randls_17.json,850200,1026967,58,Woman
42,866086,DepthScenes,duration_manipulation_targetAtFixation,jsons/v1_VE1000_randls_17.json,http://54.235.29.9/FacialAge/BNav_EC2/DepthDuration/v2_depth_duration_MTurk/v2_DepthDuration_HTML.html#17,17,1364,625,1364,768,8-29-2022,12-22-15,43,depth_duration_stimuli/000470_2014-06-09_19-42-40_260595134347_rgbf000094-resize_1/000470_2014-06-09_19-42-40_260595134347_rgbf000094-resize_1-target.png,1000,1.831,3,3882,1001,feet,jsons/v1_VE1000_randls_17.json,850200,1026967,58,Woman
43,866086,DepthScenes,duration_manipulation_targetAtFixation,jsons/v1_VE1000_randls_17.json,http://54.235.29.9/FacialAge/BNav_EC2/DepthDuration/v2_depth_duration_MTurk/v2_DepthDuration_HTML.html#17,17,1364,625,1364,768,8-29-2022,12-22-15,44,depth_duration_stimuli/000109_2014-05-14_23-41-52_260595134347_rgbf000035-resize_9/000109_2014-05-14_23-41-52_260595134347_rgbf000035-resize_9-target.png,1000,1.3545,3,4101,1001,feet,jsons/v1_VE1000_randls_17.json,850200,1026967,58,Woman
44,866086,DepthScenes,duration_manipulation_targetAtFixation,jsons/v1_VE1000_randls_17.json,http://54.235.29.9/FacialAge/BNav_EC2/DepthDuration/v2_depth_duration_MTurk/v2_DepthDuration_HTML.html#17,17,1364,625,1364,768,8-29-2022,12-22-15,45,depth_duration_stimuli/000787_2014-06-08_22-33-53_260595134347_rgbf000175-resize_1/000787_2014-06-08_22-33-53_260595134347_rgbf000175-resize-original.jpg,1000,4.784,3,3872,1000,feet,jsons/v1_VE1000_randls_17.json,850200,1026967,58,Woman
45,866086,DepthScenes,duration_manipulation_targetAtFixation,jsons/v1_VE1000_randls_17.json,http://54.235.29.9/FacialAge/BNav_EC2/DepthDuration/v2_depth_duration_MTurk/v2_DepthDuration_HTML.html#17,17,1364,625,1364,768,8-29-2022,12-22-15,46,depth_duration_stimuli/001133_2014-06-17_14-49-16_260595134347_rgbf000100-resize_0/001133_2014-06-17_14-49-16_260595134347_rgbf000100-resize_0-target.png,1000,4.2115,2,4211,1000,feet,jsons/v1_VE1000_randls_17.json,850200,1026967,58,Woman
46,866086,DepthScenes,duration_manipulation_targetAtFixation,jsons/v1_VE1000_randls_17.json,http://54.235.29.9/FacialAge/BNav_EC2/DepthDuration/v2_depth_duration_MTurk/v2_DepthDuration_HTML.html#17,17,1364,625,1364,768,8-29-2022,12-22-15,47,depth_duration_stimuli/001132_2014-06-17_14-48-54_260595134347_rgbf000100-resize_2/001132_2014-06-17_14-48-54_260595134347_rgbf000100-resize_2-target.png,1000,3.753,3,4615,1003,feet,jsons/v1_VE1000_randls_17.json,850200,1026967,58,Woman
47,866086,DepthScenes,duration_manipulation_targetAtFixation,jsons/v1_VE1000_randls_17.json,http://54.235.29.9/FacialAge/BNav_EC2/DepthDuration/v2_depth_duration_MTurk/v2_DepthDuration_HTML.html#17,17,1364,625,1364,768,8-29-2022,12-22-15,48,depth_duration_stimuli/001167_2014-06-17_15-38-07_260595134347_rgbf000108-resize_0/001167_2014-06-17_15-38-07_260595134347_rgbf000108-resize_0-target.png,1000,1.8505,3,4077,998,feet,jsons/v1_VE1000_randls_17.json,850200,1026967,58,Woman
48,866086,DepthScenes,duration_manipulation_targetAtFixation,jsons/v1_VE1000_randls_17.json,http://54.235.29.9/FacialAge/BNav_EC2/DepthDuration/v2_depth_duration_MTurk/v2_DepthDuration_HTML.html#17,17,1364,625,1364,768,8-29-2022,12-22-15,49,depth_duration_stimuli/003587_2014-05-23_16-48-02_094959634447_rgbf002384-resize_2/003587_2014-05-23_16-48-02_094959634447_rgbf002384-resize_2-target.png,1000,1.357,0,21497,1000,feet,jsons/v1_VE1000_randls_17.json,850200,1026967,58,Woman
49,866086,DepthScenes,duration_manipulation_targetAtFixation,jsons/v1_VE1000_randls_17.json,http://54.235.29.9/FacialAge/BNav_EC2/DepthDuration/v2_depth_duration_MTurk/v2_DepthDuration_HTML.html#17,17,1364,625,1364,768,8-29-2022,12-22-15,50,depth_duration_stimuli/002445_2014-06-28_20-32-16_260595134347_rgbf000029-resize_4/002445_2014-06-28_20-32-16_260595134347_rgbf000029-resize_4-target.png,1000,2.5315,3,4303,1000,feet,jsons/v1_VE1000_randls_17.json,850200,1026967,58,Woman
50,866086,DepthScenes,duration_manipulation_targetAtFixation,jsons/v1_VE1000_randls_17.json,http://54.235.29.9/FacialAge/BNav_EC2/DepthDuration/v2_depth_duration_MTurk/v2_DepthDuration_HTML.html#17,17,1364,625,1364,768,8-29-2022,12-22-15,51,depth_duration_stimuli/000780_2014-06-08_22-28-29_260595134347_rgbf000126-resize_1/000780_2014-06-08_22-28-29_260595134347_rgbf000126-resize_1-target.png,1000,3.3825,0,3965,998,feet,jsons/v1_VE1000_randls_17.json,850200,1026967,58,Woman
51,866086,DepthScenes,duration_manipulation_targetAtFixation,jsons/v1_VE1000_randls_17.json,http://54.235.29.9/FacialAge/BNav_EC2/DepthDuration/v2_depth_duration_MTurk/v2_DepthDuration_HTML.html#17,17,1364,625,1364,768,8-29-2022,12-22-15,52,depth_duration_stimuli/001029_2014-06-08_13-17-57_260595134347_rgbf000065-resize_1/001029_2014-06-08_13-17-57_260595134347_rgbf000065-resize_1-target.png,1000,3.0835,4,4075,999,feet,jsons/v1_VE1000_randls_17.json,850200,1026967,58,Woman
52,866086,DepthScenes,duration_manipulation_targetAtFixation,jsons/v1_VE1000_randls_17.json,http://54.235.29.9/FacialAge/BNav_EC2/DepthDuration/v2_depth_duration_MTurk/v2_DepthDuration_HTML.html#17,17,1364,625,1364,768,8-29-2022,12-22-15,53,depth_duration_stimuli/000677_2014-06-08_23-10-32_260595134347_rgbf000158-resize_6/000677_2014-06-08_23-10-32_260595134347_rgbf000158-resize_6-target.png,1000,3.556,3,4435,999,feet,jsons/v1_VE1000_randls_17.json,850200,1026967,58,Woman
53,866086,DepthScenes,duration_manipulation_targetAtFixation,jsons/v1_VE1000_randls_17.json,http://54.235.29.9/FacialAge/BNav_EC2/DepthDuration/v2_depth_duration_MTurk/v2_DepthDuration_HTML.html#17,17,1364,625,1364,768,8-29-2022,12-22-15,54,depth_duration_stimuli/003534_2014-05-22_15-06-10_094959634447_rgbf000102-resize_4/003534_2014-05-22_15-06-10_094959634447_rgbf000102-resize_4-target.png,1000,1.426,3,4102,1000,feet,jsons/v1_VE1000_randls_17.json,850200,1026967,58,Woman
54,866086,DepthScenes,duration_manipulation_targetAtFixation,jsons/v1_VE1000_randls_17.json,http://54.235.29.9/FacialAge/BNav_EC2/DepthDuration/v2_depth_duration_MTurk/v2_DepthDuration_HTML.html#17,17,1364,625,1364,768,8-29-2022,12-22-15,55,depth_duration_stimuli/002637_2014-06-24_14-51-13_094959634447_rgbf000066-resize_4/002637_2014-06-24_14-51-13_094959634447_rgbf000066-resize_4-target.png,1000,1.9955,3,5428,1000,feet,jsons/v1_VE1000_randls_17.json,850200,1026967,58,Woman
55,866086,DepthScenes,duration_manipulation_targetAtFixation,jsons/v1_VE1000_randls_17.json,http://54.235.29.9/FacialAge/BNav_EC2/DepthDuration/v2_depth_duration_MTurk/v2_DepthDuration_HTML.html#17,17,1364,625,1364,768,8-29-2022,12-22-15,56,depth_duration_stimuli/002988_2014-06-15_12-24-20_094959634447_rgbf000150-resize_1/002988_2014-06-15_12-24-20_094959634447_rgbf000150-resize_1-target.png,1000,4.7669999999999995,0,4552,998,feet,jsons/v1_VE1000_randls_17.json,850200,1026967,58,Woman
56,866086,DepthScenes,duration_manipulation_targetAtFixation,jsons/v1_VE1000_randls_17.json,http://54.235.29.9/FacialAge/BNav_EC2/DepthDuration/v2_depth_duration_MTurk/v2_DepthDuration_HTML.html#17,17,1364,625,1364,768,8-29-2022,12-22-15,57,depth_duration_stimuli/001052_2014-06-08_18-24-54_260595134347_rgbf000130-resize_1/001052_2014-06-08_18-24-54_260595134347_rgbf000130-resize_1-target.png,1000,4.1045,0,3677,999,feet,jsons/v1_VE1000_randls_17.json,850200,1026967,58,Woman
57,866086,DepthScenes,duration_manipulation_targetAtFixation,jsons/v1_VE1000_randls_17.json,http://54.235.29.9/FacialAge/BNav_EC2/DepthDuration/v2_depth_duration_MTurk/v2_DepthDuration_HTML.html#17,17,1364,625,1364,768,8-29-2022,12-22-15,58,depth_duration_stimuli/001059_2014-06-08_21-53-27_260595134347_rgbf000061-resize_4/001059_2014-06-08_21-53-27_260595134347_rgbf000061-resize_4-target.png,1000,2.4185,5,4672,1000,feet,jsons/v1_VE1000_randls_17.json,850200,1026967,58,Woman
58,866086,DepthScenes,duration_manipulation_targetAtFixation,jsons/v1_VE1000_randls_17.json,http://54.235.29.9/FacialAge/BNav_EC2/DepthDuration/v2_depth_duration_MTurk/v2_DepthDuration_HTML.html#17,17,1364,625,1364,768,8-29-2022,12-22-15,59,depth_duration_stimuli/001032_2014-06-08_13-23-17_260595134347_rgbf000021-resize_3/001032_2014-06-08_13-23-17_260595134347_rgbf000021-resize_3-target.png,1000,3.2725,4,4807,1000,feet,jsons/v1_VE1000_randls_17.json,850200,1026967,58,Woman
59,866086,DepthScenes,duration_manipulation_targetAtFixation,jsons/v1_VE1000_randls_17.json,http://54.235.29.9/FacialAge/BNav_EC2/DepthDuration/v2_depth_duration_MTurk/v2_DepthDuration_HTML.html#17,17,1364,625,1364,768,8-29-2022,12-22-15,60,depth_duration_stimuli/002964_2014-06-08_17-46-11_094959634447_rgbf000091-resize_4/002964_2014-06-08_17-46-11_094959634447_rgbf000091-resize_4-target.png,1000,1.6909999999999998,2,3967,998,feet,jsons/v1_VE1000_randls_17.json,850200,1026967,58,Woman
60,866086,DepthScenes,duration_manipulation_targetAtFixation,jsons/v1_VE1000_randls_17.json,http://54.235.29.9/FacialAge/BNav_EC2/DepthDuration/v2_depth_duration_MTurk/v2_DepthDuration_HTML.html#17,17,1364,625,1364,768,8-29-2022,12-22-15,61,depth_duration_stimuli/002136_2014-06-25_21-18-03_260595134347_rgbf000109-resize_3/002136_2014-06-25_21-18-03_260595134347_rgbf000109-resize_3-target.png,1000,1.9569999999999999,3,3964,1000,feet,jsons/v1_VE1000_randls_17.json,850200,1026967,58,Woman
61,866086,DepthScenes,duration_manipulation_targetAtFixation,jsons/v1_VE1000_randls_17.json,http://54.235.29.9/FacialAge/BNav_EC2/DepthDuration/v2_depth_duration_MTurk/v2_DepthDuration_HTML.html#17,17,1364,625,1364,768,8-29-2022,12-22-15,62,depth_duration_stimuli/002989_2014-06-15_12-25-03_094959634447_rgbf000150-resize_3/002989_2014-06-15_12-25-03_094959634447_rgbf000150-resize_3-target.png,1000,4.1975,3,4311,999,feet,jsons/v1_VE1000_randls_17.json,850200,1026967,58,Woman
62,866086,DepthScenes,duration_manipulation_targetAtFixation,jsons/v1_VE1000_randls_17.json,http://54.235.29.9/FacialAge/BNav_EC2/DepthDuration/v2_depth_duration_MTurk/v2_DepthDuration_HTML.html#17,17,1364,625,1364,768,8-29-2022,12-22-15,63,depth_duration_stimuli/000866_2014-06-09_20-45-42_260595134347_rgbf000139-resize_1/000866_2014-06-09_20-45-42_260595134347_rgbf000139-resize_1-target.png,1000,3.2155,0,4080,1004,feet,jsons/v1_VE1000_randls_17.json,850200,1026967,58,Woman
63,866086,DepthScenes,duration_manipulation_targetAtFixation,jsons/v1_VE1000_randls_17.json,http://54.235.29.9/FacialAge/BNav_EC2/DepthDuration/v2_depth_duration_MTurk/v2_DepthDuration_HTML.html#17,17,1364,625,1364,768,8-29-2022,12-22-15,64,depth_duration_stimuli/002153_2014-06-25_21-27-18_260595134347_rgbf000038-resize_5/002153_2014-06-25_21-27-18_260595134347_rgbf000038-resize_5-target.png,1000,2.505,3,3874,1014,feet,jsons/v1_VE1000_randls_17.json,850200,1026967,58,Woman
64,866086,DepthScenes,duration_manipulation_targetAtFixation,jsons/v1_VE1000_randls_17.json,http://54.235.29.9/FacialAge/BNav_EC2/DepthDuration/v2_depth_duration_MTurk/v2_DepthDuration_HTML.html#17,17,1364,625,1364,768,8-29-2022,12-22-15,65,depth_duration_stimuli/002660_2014-06-13_15-44-18_094959634447_rgbf001878-resize_2/002660_2014-06-13_15-44-18_094959634447_rgbf001878-resize_2-target.png,1000,3.576,3,4040,999,feet,jsons/v1_VE1000_randls_17.json,850200,1026967,58,Woman
65,866086,DepthScenes,duration_manipulation_targetAtFixation,jsons/v1_VE1000_randls_17.json,http://54.235.29.9/FacialAge/BNav_EC2/DepthDuration/v2_depth_duration_MTurk/v2_DepthDuration_HTML.html#17,17,1364,625,1364,768,8-29-2022,12-22-15,66,depth_duration_stimuli/001222_2014-06-17_16-24-06_260595134347_rgbf000073-resize_0/001222_2014-06-17_16-24-06_260595134347_rgbf000073-resize-original.jpg,1000,1.4385,3,5729,998,feet,jsons/v1_VE1000_randls_17.json,850200,1026967,58,Woman
66,866086,DepthScenes,duration_manipulation_targetAtFixation,jsons/v1_VE1000_randls_17.json,http://54.235.29.9/FacialAge/BNav_EC2/DepthDuration/v2_depth_duration_MTurk/v2_DepthDuration_HTML.html#17,17,1364,625,1364,768,8-29-2022,12-22-15,67,depth_duration_stimuli/000493_2014-06-09_21-01-18_260595134347_rgbf000196-resize_3/000493_2014-06-09_21-01-18_260595134347_rgbf000196-resize_3-target.png,1000,3.44,0,5206,999,feet,jsons/v1_VE1000_randls_17.json,850200,1026967,58,Woman
67,866086,DepthScenes,duration_manipulation_targetAtFixation,jsons/v1_VE1000_randls_17.json,http://54.235.29.9/FacialAge/BNav_EC2/DepthDuration/v2_depth_duration_MTurk/v2_DepthDuration_HTML.html#17,17,1364,625,1364,768,8-29-2022,12-22-15,68,depth_duration_stimuli/000191_2014-05-12_17-07-38_260595134347_rgbf000199-resize_0/000191_2014-05-12_17-07-38_260595134347_rgbf000199-resize_0-target.png,1000,3.7995,0,3708,1003,feet,jsons/v1_VE1000_randls_17.json,850200,1026967,58,Woman
68,866086,DepthScenes,duration_manipulation_targetAtFixation,jsons/v1_VE1000_randls_17.json,http://54.235.29.9/FacialAge/BNav_EC2/DepthDuration/v2_depth_duration_MTurk/v2_DepthDuration_HTML.html#17,17,1364,625,1364,768,8-29-2022,12-22-15,69,depth_duration_stimuli/000758_2014-06-08_22-05-08_260595134347_rgbf000085-resize_0/000758_2014-06-08_22-05-08_260595134347_rgbf000085-resize_0-target.png,1000,3.3810000000000002,4,3888,999,feet,jsons/v1_VE1000_randls_17.json,850200,1026967,58,Woman
69,866086,DepthScenes,duration_manipulation_targetAtFixation,jsons/v1_VE1000_randls_17.json,http://54.235.29.9/FacialAge/BNav_EC2/DepthDuration/v2_depth_duration_MTurk/v2_DepthDuration_HTML.html#17,17,1364,625,1364,768,8-29-2022,12-22-15,70,depth_duration_stimuli/000854_2014-06-09_19-43-13_260595134347_rgbf000066-resize_0/000854_2014-06-09_19-43-13_260595134347_rgbf000066-resize_0-target.png,1000,3.068,2,4725,1012,feet,jsons/v1_VE1000_randls_17.json,850200,1026967,58,Woman
70,866086,DepthScenes,duration_manipulation_targetAtFixation,jsons/v1_VE1000_randls_17.json,http://54.235.29.9/FacialAge/BNav_EC2/DepthDuration/v2_depth_duration_MTurk/v2_DepthDuration_HTML.html#17,17,1364,625,1364,768,8-29-2022,12-22-15,71,depth_duration_stimuli/001092_2014-06-15_17-34-58_260595134347_rgbf000171-resize_3/001092_2014-06-15_17-34-58_260595134347_rgbf000171-resize_3-target.png,1000,2.6935,2,6226,999,feet,jsons/v1_VE1000_randls_17.json,850200,1026967,58,Woman
71,866086,DepthScenes,duration_manipulation_targetAtFixation,jsons/v1_VE1000_randls_17.json,http://54.235.29.9/FacialAge/BNav_EC2/DepthDuration/v2_depth_duration_MTurk/v2_DepthDuration_HTML.html#17,17,1364,625,1364,768,8-29-2022,12-22-15,72,depth_duration_stimuli/002545_2014-06-24_13-38-53_094959634447_rgbf000080-resize_4/002545_2014-06-24_13-38-53_094959634447_rgbf000080-resize_4-target.png,1000,1.9205,3,4481,1001,feet,jsons/v1_VE1000_randls_17.json,850200,1026967,58,Woman
72,866086,DepthScenes,duration_manipulation_targetAtFixation,jsons/v1_VE1000_randls_17.json,http://54.235.29.9/FacialAge/BNav_EC2/DepthDuration/v2_depth_duration_MTurk/v2_DepthDuration_HTML.html#17,17,1364,625,1364,768,8-29-2022,12-22-15,73,depth_duration_stimuli/002784_2014-06-22_19-26-30_094959634447_rgbf000083-resize_3/002784_2014-06-22_19-26-30_094959634447_rgbf000083-resize_3-target.png,1000,1.8046666666667,0,4622,1000,feet,jsons/v1_VE1000_randls_17.json,850200,1026967,58,Woman
73,866086,DepthScenes,duration_manipulation_targetAtFixation,jsons/v1_VE1000_randls_17.json,http://54.235.29.9/FacialAge/BNav_EC2/DepthDuration/v2_depth_duration_MTurk/v2_DepthDuration_HTML.html#17,17,1364,625,1364,768,8-29-2022,12-22-15,74,depth_duration_stimuli/001100_2014-06-15_17-46-26_260595134347_rgbf000225-resize_2/001100_2014-06-15_17-46-26_260595134347_rgbf000225-resize_2-target.png,1000,2.24,2,4291,998,feet,jsons/v1_VE1000_randls_17.json,850200,1026967,58,Woman
74,866086,DepthScenes,duration_manipulation_targetAtFixation,jsons/v1_VE1000_randls_17.json,http://54.235.29.9/FacialAge/BNav_EC2/DepthDuration/v2_depth_duration_MTurk/v2_DepthDuration_HTML.html#17,17,1364,625,1364,768,8-29-2022,12-22-15,75,depth_duration_stimuli/000682_2014-06-08_23-14-58_260595134347_rgbf000041-resize_5/000682_2014-06-08_23-14-58_260595134347_rgbf000041-resize_5-target.png,1000,2.7239999999999998,3,3772,1004,feet,jsons/v1_VE1000_randls_17.json,850200,1026967,58,Woman
75,866086,DepthScenes,duration_manipulation_targetAtFixation,jsons/v1_VE1000_randls_17.json,http://54.235.29.9/FacialAge/BNav_EC2/DepthDuration/v2_depth_duration_MTurk/v2_DepthDuration_HTML.html#17,17,1364,625,1364,768,8-29-2022,12-22-15,76,depth_duration_stimuli/001650_2014-06-20_12-09-00_260595134347_rgbf000087-resize_3/001650_2014-06-20_12-09-00_260595134347_rgbf000087-resize_3-target.png,1000,1.9505,0,4407,996,feet,jsons/v1_VE1000_randls_17.json,850200,1026967,58,Woman
76,866086,DepthScenes,duration_manipulation_targetAtFixation,jsons/v1_VE1000_randls_17.json,http://54.235.29.9/FacialAge/BNav_EC2/DepthDuration/v2_depth_duration_MTurk/v2_DepthDuration_HTML.html#17,17,1364,625,1364,768,8-29-2022,12-22-15,77,depth_duration_stimuli/001055_2014-06-08_18-45-35_260595134347_rgbf000111-resize_4/001055_2014-06-08_18-45-35_260595134347_rgbf000111-resize_4-target.png,1000,2.4290000000000003,5,4571,1000,feet,jsons/v1_VE1000_randls_17.json,850200,1026967,58,Woman
77,866086,DepthScenes,duration_manipulation_targetAtFixation,jsons/v1_VE1000_randls_17.json,http://54.235.29.9/FacialAge/BNav_EC2/DepthDuration/v2_depth_duration_MTurk/v2_DepthDuration_HTML.html#17,17,1364,625,1364,768,8-29-2022,12-22-15,78,depth_duration_stimuli/000549_2014-06-08_22-10-24_260595134347_rgbf000247-resize_3/000549_2014-06-08_22-10-24_260595134347_rgbf000247-resize_3-target.png,1000,1.841,5,4514,1000,feet,jsons/v1_VE1000_randls_17.json,850200,1026967,58,Woman
78,866086,DepthScenes,duration_manipulation_targetAtFixation,jsons/v1_VE1000_randls_17.json,http://54.235.29.9/FacialAge/BNav_EC2/DepthDuration/v2_depth_duration_MTurk/v2_DepthDuration_HTML.html#17,17,1364,625,1364,768,8-29-2022,12-22-15,79,depth_duration_stimuli/000522_2014-06-08_13-35-06_260595134347_rgbf000244-resize_1/000522_2014-06-08_13-35-06_260595134347_rgbf000244-resize_1-target.png,1000,2.3715,3,4090,995,feet,jsons/v1_VE1000_randls_17.json,850200,1026967,58,Woman
79,866086,DepthScenes,duration_manipulation_targetAtFixation,jsons/v1_VE1000_randls_17.json,http://54.235.29.9/FacialAge/BNav_EC2/DepthDuration/v2_depth_duration_MTurk/v2_DepthDuration_HTML.html#17,17,1364,625,1364,768,8-29-2022,12-22-15,80,depth_duration_stimuli/002949_2014-06-26_15-57-42_094959634447_rgbf000079-resize_1/002949_2014-06-26_15-57-42_094959634447_rgbf000079-resize_1-target.png,1000,1.8915,3,4250,1000,feet,jsons/v1_VE1000_randls_17.json,850200,1026967,58,Woman
80,866086,DepthScenes,duration_manipulation_targetAtFixation,jsons/v1_VE1000_randls_17.json,http://54.235.29.9/FacialAge/BNav_EC2/DepthDuration/v2_depth_duration_MTurk/v2_DepthDuration_HTML.html#17,17,1364,625,1364,768,8-29-2022,12-22-15,81,depth_duration_stimuli/001066_2014-06-08_22-03-20_260595134347_rgbf000066-resize_4/001066_2014-06-08_22-03-20_260595134347_rgbf000066-resize_4-target.png,1000,4.2330000000000005,0,4467,1000,feet,jsons/v1_VE1000_randls_17.json,850200,1026967,58,Woman
81,866086,DepthScenes,duration_manipulation_targetAtFixation,jsons/v1_VE1000_randls_17.json,http://54.235.29.9/FacialAge/BNav_EC2/DepthDuration/v2_depth_duration_MTurk/v2_DepthDuration_HTML.html#17,17,1364,625,1364,768,8-29-2022,12-22-15,82,depth_duration_stimuli/000742_2014-06-08_18-48-09_260595134347_rgbf000164-resize_4/000742_2014-06-08_18-48-09_260595134347_rgbf000164-resize_4-target.png,1000,4.632,3,4299,1001,feet,jsons/v1_VE1000_randls_17.json,850200,1026967,58,Woman
82,866086,DepthScenes,duration_manipulation_targetAtFixation,jsons/v1_VE1000_randls_17.json,http://54.235.29.9/FacialAge/BNav_EC2/DepthDuration/v2_depth_duration_MTurk/v2_DepthDuration_HTML.html#17,17,1364,625,1364,768,8-29-2022,12-22-15,83,depth_duration_stimuli/000368_2014-06-09_15-53-01_260595134347_rgbf000155-resize_2/000368_2014-06-09_15-53-01_260595134347_rgbf000155-resize_2-target.png,1000,2.4859999999999998,3,4044,1000,feet,jsons/v1_VE1000_randls_17.json,850200,1026967,58,Woman
83,866086,DepthScenes,duration_manipulation_targetAtFixation,jsons/v1_VE1000_randls_17.json,http://54.235.29.9/FacialAge/BNav_EC2/DepthDuration/v2_depth_duration_MTurk/v2_DepthDuration_HTML.html#17,17,1364,625,1364,768,8-29-2022,12-22-15,84,depth_duration_stimuli/002678_2014-06-13_16-15-32_094959634447_rgbf000151-resize_6/002678_2014-06-13_16-15-32_094959634447_rgbf000151-resize_6-target.png,1000,2.1830000000000003,6,5717,986,feet,jsons/v1_VE1000_randls_17.json,850200,1026967,58,Woman
84,866086,DepthScenes,duration_manipulation_targetAtFixation,jsons/v1_VE1000_randls_17.json,http://54.235.29.9/FacialAge/BNav_EC2/DepthDuration/v2_depth_duration_MTurk/v2_DepthDuration_HTML.html#17,17,1364,625,1364,768,8-29-2022,12-22-15,85,depth_duration_stimuli/002788_2014-06-22_19-36-03_094959634447_rgbf000088-resize_2/002788_2014-06-22_19-36-03_094959634447_rgbf000088-resize_2-target.png,1000,1.6465,3,4096,999,feet,jsons/v1_VE1000_randls_17.json,850200,1026967,58,Woman
85,866086,DepthScenes,duration_manipulation_targetAtFixation,jsons/v1_VE1000_randls_17.json,http://54.235.29.9/FacialAge/BNav_EC2/DepthDuration/v2_depth_duration_MTurk/v2_DepthDuration_HTML.html#17,17,1364,625,1364,768,8-29-2022,12-22-15,86,depth_duration_stimuli/000749_2014-06-08_21-55-06_260595134347_rgbf000070-resize_2/000749_2014-06-08_21-55-06_260595134347_rgbf000070-resize_2-target.png,1000,2.331,3,4067,1000,feet,jsons/v1_VE1000_randls_17.json,850200,1026967,58,Woman
86,866086,DepthScenes,duration_manipulation_targetAtFixation,jsons/v1_VE1000_randls_17.json,http://54.235.29.9/FacialAge/BNav_EC2/DepthDuration/v2_depth_duration_MTurk/v2_DepthDuration_HTML.html#17,17,1364,625,1364,768,8-29-2022,12-22-15,87,depth_duration_stimuli/000917_2014-06-09_22-45-29_260595134347_rgbf000149-resize_3/000917_2014-06-09_22-45-29_260595134347_rgbf000149-resize_3-target.png,1000,4.1865,3,5308,999,feet,jsons/v1_VE1000_randls_17.json,850200,1026967,58,Woman
87,866086,DepthScenes,duration_manipulation_targetAtFixation,jsons/v1_VE1000_randls_17.json,http://54.235.29.9/FacialAge/BNav_EC2/DepthDuration/v2_depth_duration_MTurk/v2_DepthDuration_HTML.html#17,17,1364,625,1364,768,8-29-2022,12-22-15,88,depth_duration_stimuli/002323_2014-06-28_20-01-54_260595134347_rgbf000051-resize_4/002323_2014-06-28_20-01-54_260595134347_rgbf000051-resize_4-target.png,1000,3.7310000000000003,3,3539,997,feet,jsons/v1_VE1000_randls_17.json,850200,1026967,58,Woman
88,866086,DepthScenes,duration_manipulation_targetAtFixation,jsons/v1_VE1000_randls_17.json,http://54.235.29.9/FacialAge/BNav_EC2/DepthDuration/v2_depth_duration_MTurk/v2_DepthDuration_HTML.html#17,17,1364,625,1364,768,8-29-2022,12-22-15,89,depth_duration_stimuli/001449_2014-06-19_17-01-27_260595134347_rgbf000116-resize_2/001449_2014-06-19_17-01-27_260595134347_rgbf000116-resize_2-target.png,1000,3.452,3,3947,999,feet,jsons/v1_VE1000_randls_17.json,850200,1026967,58,Woman
89,866086,DepthScenes,duration_manipulation_targetAtFixation,jsons/v1_VE1000_randls_17.json,http://54.235.29.9/FacialAge/BNav_EC2/DepthDuration/v2_depth_duration_MTurk/v2_DepthDuration_HTML.html#17,17,1364,625,1364,768,8-29-2022,12-22-15,90,depth_duration_stimuli/001450_2014-06-19_17-02-03_260595134347_rgbf000203-resize_4/001450_2014-06-19_17-02-03_260595134347_rgbf000203-resize_4-target.png,1000,4.0106666666667,0,4666,1004,feet,jsons/v1_VE1000_randls_17.json,850200,1026967,58,Woman
90,866086,DepthScenes,duration_manipulation_targetAtFixation,jsons/v1_VE1000_randls_17.json,http://54.235.29.9/FacialAge/BNav_EC2/DepthDuration/v2_depth_duration_MTurk/v2_DepthDuration_HTML.html#17,17,1364,625,1364,768,8-29-2022,12-22-15,91,depth_duration_stimuli/001016_2014-06-09_16-16-10_260595134347_rgbf000112-resize_5/001016_2014-06-09_16-16-10_260595134347_rgbf000112-resize_5-target.png,1000,1.6565,3,5252,999,feet,jsons/v1_VE1000_randls_17.json,850200,1026967,58,Woman
91,866086,DepthScenes,duration_manipulation_targetAtFixation,jsons/v1_VE1000_randls_17.json,http://54.235.29.9/FacialAge/BNav_EC2/DepthDuration/v2_depth_duration_MTurk/v2_DepthDuration_HTML.html#17,17,1364,625,1364,768,8-29-2022,12-22-15,92,depth_duration_stimuli/002340_2014-06-28_20-05-46_260595134347_rgbf000113-resize_0/002340_2014-06-28_20-05-46_260595134347_rgbf000113-resize_0-target.png,1000,2.4735,0,4444,1001,feet,jsons/v1_VE1000_randls_17.json,850200,1026967,58,Woman
92,866086,DepthScenes,duration_manipulation_targetAtFixation,jsons/v1_VE1000_randls_17.json,http://54.235.29.9/FacialAge/BNav_EC2/DepthDuration/v2_depth_duration_MTurk/v2_DepthDuration_HTML.html#17,17,1364,625,1364,768,8-29-2022,12-22-15,93,depth_duration_stimuli/002630_2014-06-24_14-47-50_094959634447_rgbf000055-resize_1/002630_2014-06-24_14-47-50_094959634447_rgbf000055-resize_1-target.png,1000,3.0095,0,4525,1000,feet,jsons/v1_VE1000_randls_17.json,850200,1026967,58,Woman
93,866086,DepthScenes,duration_manipulation_targetAtFixation,jsons/v1_VE1000_randls_17.json,http://54.235.29.9/FacialAge/BNav_EC2/DepthDuration/v2_depth_duration_MTurk/v2_DepthDuration_HTML.html#17,17,1364,625,1364,768,8-29-2022,12-22-15,94,depth_duration_stimuli/002758_2014-06-22_19-11-20_094959634447_rgbf000128-resize_1/002758_2014-06-22_19-11-20_094959634447_rgbf000128-resize_1-target.png,1000,2.555,3,4224,1001,feet,jsons/v1_VE1000_randls_17.json,850200,1026967,58,Woman
94,866086,DepthScenes,duration_manipulation_targetAtFixation,jsons/v1_VE1000_randls_17.json,http://54.235.29.9/FacialAge/BNav_EC2/DepthDuration/v2_depth_duration_MTurk/v2_DepthDuration_HTML.html#17,17,1364,625,1364,768,8-29-2022,12-22-15,95,depth_duration_stimuli/002725_2014-06-22_11-47-51_094959634447_rgbf000070-resize_1/002725_2014-06-22_11-47-51_094959634447_rgbf000070-resize_1-target.png,1000,2.195,5,3835,1004,feet,jsons/v1_VE1000_randls_17.json,850200,1026967,58,Woman
95,866086,DepthScenes,duration_manipulation_targetAtFixation,jsons/v1_VE1000_randls_17.json,http://54.235.29.9/FacialAge/BNav_EC2/DepthDuration/v2_depth_duration_MTurk/v2_DepthDuration_HTML.html#17,17,1364,625,1364,768,8-29-2022,12-22-15,96,depth_duration_stimuli/002344_2014-06-28_20-06-29_260595134347_rgbf000030-resize_1/002344_2014-06-28_20-06-29_260595134347_rgbf000030-resize_1-target.png,1000,1.5795,2,4569,999,feet,jsons/v1_VE1000_randls_17.json,850200,1026967,58,Woman
96,866086,DepthScenes,duration_manipulation_targetAtFixation,jsons/v1_VE1000_randls_17.json,http://54.235.29.9/FacialAge/BNav_EC2/DepthDuration/v2_depth_duration_MTurk/v2_DepthDuration_HTML.html#17,17,1364,625,1364,768,8-29-2022,12-22-15,97,depth_duration_stimuli/001110_2014-06-15_17-25-28_260595134347_rgbf000150-resize_1/001110_2014-06-15_17-25-28_260595134347_rgbf000150-resize_1-target.png,1000,1.7115,4,4017,1000,feet,jsons/v1_VE1000_randls_17.json,850200,1026967,58,Woman
97,866086,DepthScenes,duration_manipulation_targetAtFixation,jsons/v1_VE1000_randls_17.json,http://54.235.29.9/FacialAge/BNav_EC2/DepthDuration/v2_depth_duration_MTurk/v2_DepthDuration_HTML.html#17,17,1364,625,1364,768,8-29-2022,12-22-15,98,depth_duration_stimuli/000927_2014-06-09_16-32-30_260595134347_rgbf000123-resize_3/000927_2014-06-09_16-32-30_260595134347_rgbf000123-resize_3-target.png,1000,2.6785,0,4158,999,feet,jsons/v1_VE1000_randls_17.json,850200,1026967,58,Woman
98,866086,DepthScenes,duration_manipulation_targetAtFixation,jsons/v1_VE1000_randls_17.json,http://54.235.29.9/FacialAge/BNav_EC2/DepthDuration/v2_depth_duration_MTurk/v2_DepthDuration_HTML.html#17,17,1364,625,1364,768,8-29-2022,12-22-15,99,depth_duration_stimuli/001540_2014-06-20_17-01-05_260595134347_rgbf000086-resize_2/001540_2014-06-20_17-01-05_260595134347_rgbf000086-resize-original.jpg,1000,1.459,0,3971,997,feet,jsons/v1_VE1000_randls_17.json,850200,1026967,58,Woman
99,866086,DepthScenes,duration_manipulation_targetAtFixation,jsons/v1_VE1000_randls_17.json,http://54.235.29.9/FacialAge/BNav_EC2/DepthDuration/v2_depth_duration_MTurk/v2_DepthDuration_HTML.html#17,17,1364,625,1364,768,8-29-2022,12-22-15,100,depth_duration_stimuli/000414_2014-06-04_19-49-13_260595134347_rgbf000044-resize_0/000414_2014-06-04_19-49-13_260595134347_rgbf000044-resize_0-target.png,1000,4.329,5,3826,999,feet,jsons/v1_VE1000_randls_17.json,850200,1026967,58,Woman
100,866086,DepthScenes,duration_manipulation_targetAtFixation,jsons/v1_VE1000_randls_17.json,http://54.235.29.9/FacialAge/BNav_EC2/DepthDuration/v2_depth_duration_MTurk/v2_DepthDuration_HTML.html#17,17,1364,625,1364,768,8-29-2022,12-22-15,101,depth_duration_stimuli/003129_2014-05-12_10-48-10_094959634447_rgbf000100-resize_0/003129_2014-05-12_10-48-10_094959634447_rgbf000100-resize_0-target.png,1000,4.9305,5,4104,1000,feet,jsons/v1_VE1000_randls_17.json,850200,1026967,58,Woman
101,866086,DepthScenes,duration_manipulation_targetAtFixation,jsons/v1_VE1000_randls_17.json,http://54.235.29.9/FacialAge/BNav_EC2/DepthDuration/v2_depth_duration_MTurk/v2_DepthDuration_HTML.html#17,17,1364,625,1364,768,8-29-2022,12-22-15,102,depth_duration_stimuli/002272_2014-06-28_18-53-56_260595134347_rgbf000067-resize_2/002272_2014-06-28_18-53-56_260595134347_rgbf000067-resize_2-target.png,1000,1.138,3,4962,999,feet,jsons/v1_VE1000_randls_17.json,850200,1026967,58,Woman
102,866086,DepthScenes,duration_manipulation_targetAtFixation,jsons/v1_VE1000_randls_17.json,http://54.235.29.9/FacialAge/BNav_EC2/DepthDuration/v2_depth_duration_MTurk/v2_DepthDuration_HTML.html#17,17,1364,625,1364,768,8-29-2022,12-22-15,103,depth_duration_stimuli/001571_2014-06-20_17-21-32_260595134347_rgbf000089-resize_1/001571_2014-06-20_17-21-32_260595134347_rgbf000089-resize_1-target.png,1000,1.86,5,4070,999,feet,jsons/v1_VE1000_randls_17.json,850200,1026967,58,Woman
103,866086,DepthScenes,duration_manipulation_targetAtFixation,jsons/v1_VE1000_randls_17.json,http://54.235.29.9/FacialAge/BNav_EC2/DepthDuration/v2_depth_duration_MTurk/v2_DepthDuration_HTML.html#17,17,1364,625,1364,768,8-29-2022,12-22-15,104,depth_duration_stimuli/001175_2014-06-17_15-45-55_260595134347_rgbf000129-resize_4/001175_2014-06-17_15-45-55_260595134347_rgbf000129-resize_4-target.png,1000,4.255,6,4484,998,feet,jsons/v1_VE1000_randls_17.json,850200,1026967,58,Woman
104,866086,DepthScenes,duration_manipulation_targetAtFixation,jsons/v1_VE1000_randls_17.json,http://54.235.29.9/FacialAge/BNav_EC2/DepthDuration/v2_depth_duration_MTurk/v2_DepthDuration_HTML.html#17,17,1364,625,1364,768,8-29-2022,12-22-15,105,depth_duration_stimuli/003490_2014-05-21_15-50-11_094959634447_rgbf000101-resize_3/003490_2014-05-21_15-50-11_094959634447_rgbf000101-resize_3-target.png,1000,3.6445,2,4025,999,feet,jsons/v1_VE1000_randls_17.json,850200,1026967,58,Woman
105,866086,DepthScenes,duration_manipulation_targetAtFixation,jsons/v1_VE1000_randls_17.json,http://54.235.29.9/FacialAge/BNav_EC2/DepthDuration/v2_depth_duration_MTurk/v2_DepthDuration_HTML.html#17,17,1364,625,1364,768,8-29-2022,12-22-15,106,depth_duration_stimuli/003292_2014-05-14_21-53-49_094959634447_rgbf000100-resize_2/003292_2014-05-14_21-53-49_094959634447_rgbf000100-resize_2-target.png,1000,3.4815,3,4065,999,feet,jsons/v1_VE1000_randls_17.json,850200,1026967,58,Woman
106,866086,DepthScenes,duration_manipulation_targetAtFixation,jsons/v1_VE1000_randls_17.json,http://54.235.29.9/FacialAge/BNav_EC2/DepthDuration/v2_depth_duration_MTurk/v2_DepthDuration_HTML.html#17,17,1364,625,1364,768,8-29-2022,12-22-15,107,depth_duration_stimuli/002639_2014-06-24_14-51-37_094959634447_rgbf000074-resize_4/002639_2014-06-24_14-51-37_094959634447_rgbf000074-resize_4-target.png,1000,4.0375,3,4424,1000,feet,jsons/v1_VE1000_randls_17.json,850200,1026967,58,Woman
107,866086,DepthScenes,duration_manipulation_targetAtFixation,jsons/v1_VE1000_randls_17.json,http://54.235.29.9/FacialAge/BNav_EC2/DepthDuration/v2_depth_duration_MTurk/v2_DepthDuration_HTML.html#17,17,1364,625,1364,768,8-29-2022,12-22-15,108,depth_duration_stimuli/000810_2014-06-08_17-20-01_260595134347_rgbf000105-resize_0/000810_2014-06-08_17-20-01_260595134347_rgbf000105-resize_0-target.png,1000,1.4865,0,4169,1001,feet,jsons/v1_VE1000_randls_17.json,850200,1026967,58,Woman
108,866086,DepthScenes,duration_manipulation_targetAtFixation,jsons/v1_VE1000_randls_17.json,http://54.235.29.9/FacialAge/BNav_EC2/DepthDuration/v2_depth_duration_MTurk/v2_DepthDuration_HTML.html#17,17,1364,625,1364,768,8-29-2022,12-22-15,109,depth_duration_stimuli/001214_2014-06-17_16-13-55_260595134347_rgbf000111-resize_0/001214_2014-06-17_16-13-55_260595134347_rgbf000111-resize_0-target.png,1000,2.6505,1,4214,1000,feet,jsons/v1_VE1000_randls_17.json,850200,1026967,58,Woman
109,866086,DepthScenes,duration_manipulation_targetAtFixation,jsons/v1_VE1000_randls_17.json,http://54.235.29.9/FacialAge/BNav_EC2/DepthDuration/v2_depth_duration_MTurk/v2_DepthDuration_HTML.html#17,17,1364,625,1364,768,8-29-2022,12-22-15,110,depth_duration_stimuli/000878_2014-06-08_22-52-45_260595134347_rgbf000045-resize_2/000878_2014-06-08_22-52-45_260595134347_rgbf000045-resize_2-target.png,1000,2.092,0,4707,1001,feet,jsons/v1_VE1000_randls_17.json,850200,1026967,58,Woman
110,866086,DepthScenes,duration_manipulation_targetAtFixation,jsons/v1_VE1000_randls_17.json,http://54.235.29.9/FacialAge/BNav_EC2/DepthDuration/v2_depth_duration_MTurk/v2_DepthDuration_HTML.html#17,17,1364,625,1364,768,8-29-2022,12-22-15,111,depth_duration_stimuli/002953_2014-06-08_17-32-18_094959634447_rgbf000059-resize_5/002953_2014-06-08_17-32-18_094959634447_rgbf000059-resize_5-target.png,1000,1.551,2,3687,1000,feet,jsons/v1_VE1000_randls_17.json,850200,1026967,58,Woman
111,866086,DepthScenes,duration_manipulation_targetAtFixation,jsons/v1_VE1000_randls_17.json,http://54.235.29.9/FacialAge/BNav_EC2/DepthDuration/v2_depth_duration_MTurk/v2_DepthDuration_HTML.html#17,17,1364,625,1364,768,8-29-2022,12-22-15,112,depth_duration_stimuli/001555_2014-06-20_17-12-10_260595134347_rgbf000065-resize_4/001555_2014-06-20_17-12-10_260595134347_rgbf000065-resize_4-target.png,1000,1.633,2,3871,1000,feet,jsons/v1_VE1000_randls_17.json,850200,1026967,58,Woman
112,866086,DepthScenes,duration_manipulation_targetAtFixation,jsons/v1_VE1000_randls_17.json,http://54.235.29.9/FacialAge/BNav_EC2/DepthDuration/v2_depth_duration_MTurk/v2_DepthDuration_HTML.html#17,17,1364,625,1364,768,8-29-2022,12-22-15,113,depth_duration_stimuli/000103_2014-05-14_22-01-17_260595134347_rgbf000152-resize_5/000103_2014-05-14_22-01-17_260595134347_rgbf000152-resize_5-target.png,1000,1.993,2,4451,997,feet,jsons/v1_VE1000_randls_17.json,850200,1026967,58,Woman
113,866086,DepthScenes,duration_manipulation_targetAtFixation,jsons/v1_VE1000_randls_17.json,http://54.235.29.9/FacialAge/BNav_EC2/DepthDuration/v2_depth_duration_MTurk/v2_DepthDuration_HTML.html#17,17,1364,625,1364,768,8-29-2022,12-22-15,114,depth_duration_stimuli/000009_2014-05-26_14-32-05_260595134347_rgbf000034-resize_3/000009_2014-05-26_14-32-05_260595134347_rgbf000034-resize_3-target.png,1000,3.8715,2,4144,1000,feet,jsons/v1_VE1000_randls_17.json,850200,1026967,58,Woman
114,866086,DepthScenes,duration_manipulation_targetAtFixation,jsons/v1_VE1000_randls_17.json,http://54.235.29.9/FacialAge/BNav_EC2/DepthDuration/v2_depth_duration_MTurk/v2_DepthDuration_HTML.html#17,17,1364,625,1364,768,8-29-2022,12-22-15,115,depth_duration_stimuli/001828_2014-06-26_21-40-03_260595134347_rgbf000024-resize_0/001828_2014-06-26_21-40-03_260595134347_rgbf000024-resize_0-target.png,1000,4.8260000000000005,0,4364,1001,feet,jsons/v1_VE1000_randls_17.json,850200,1026967,58,Woman
115,866086,DepthScenes,duration_manipulation_targetAtFixation,jsons/v1_VE1000_randls_17.json,http://54.235.29.9/FacialAge/BNav_EC2/DepthDuration/v2_depth_duration_MTurk/v2_DepthDuration_HTML.html#17,17,1364,625,1364,768,8-29-2022,12-22-15,116,depth_duration_stimuli/001170_2014-06-17_15-43-44_260595134347_rgbf000096-resize_6/001170_2014-06-17_15-43-44_260595134347_rgbf000096-resize-original.jpg,1000,1.1909999999999998,0,4212,999,feet,jsons/v1_VE1000_randls_17.json,850200,1026967,58,Woman
116,866086,DepthScenes,duration_manipulation_targetAtFixation,jsons/v1_VE1000_randls_17.json,http://54.235.29.9/FacialAge/BNav_EC2/DepthDuration/v2_depth_duration_MTurk/v2_DepthDuration_HTML.html#17,17,1364,625,1364,768,8-29-2022,12-22-15,117,depth_duration_stimuli/002509_2014-06-24_13-19-22_094959634447_rgbf000077-resize_0/002509_2014-06-24_13-19-22_094959634447_rgbf000077-resize_0-target.png,1000,1.3065,3,4066,1000,feet,jsons/v1_VE1000_randls_17.json,850200,1026967,58,Woman
117,866086,DepthScenes,duration_manipulation_targetAtFixation,jsons/v1_VE1000_randls_17.json,http://54.235.29.9/FacialAge/BNav_EC2/DepthDuration/v2_depth_duration_MTurk/v2_DepthDuration_HTML.html#17,17,1364,625,1364,768,8-29-2022,12-22-15,118,depth_duration_stimuli/003338_2014-05-20_11-01-23_094959634447_rgbf000051-resize_6/003338_2014-05-20_11-01-23_094959634447_rgbf000051-resize_6-target.png,1000,1.693,3,4197,1000,feet,jsons/v1_VE1000_randls_17.json,850200,1026967,58,Woman
118,866086,DepthScenes,duration_manipulation_targetAtFixation,jsons/v1_VE1000_randls_17.json,http://54.235.29.9/FacialAge/BNav_EC2/DepthDuration/v2_depth_duration_MTurk/v2_DepthDuration_HTML.html#17,17,1364,625,1364,768,8-29-2022,12-22-15,119,depth_duration_stimuli/000736_2014-06-08_18-24-15_260595134347_rgbf000206-resize_3/000736_2014-06-08_18-24-15_260595134347_rgbf000206-resize_3-target.png,1000,3.515,2,3924,1000,feet,jsons/v1_VE1000_randls_17.json,850200,1026967,58,Woman
119,866086,DepthScenes,duration_manipulation_targetAtFixation,jsons/v1_VE1000_randls_17.json,http://54.235.29.9/FacialAge/BNav_EC2/DepthDuration/v2_depth_duration_MTurk/v2_DepthDuration_HTML.html#17,17,1364,625,1364,768,8-29-2022,12-22-15,120,depth_duration_stimuli/000137_2014-05-20_17-04-49_260595134347_rgbf000120-resize_1/000137_2014-05-20_17-04-49_260595134347_rgbf000120-resize_1-target.png,1000,3.786,0,4122,1000,feet,jsons/v1_VE1000_randls_17.json,850200,1026967,58,Woman
120,866086,DepthScenes,duration_manipulation_targetAtFixation,jsons/v1_VE1000_randls_17.json,http://54.235.29.9/FacialAge/BNav_EC2/DepthDuration/v2_depth_duration_MTurk/v2_DepthDuration_HTML.html#17,17,1364,625,1364,768,8-29-2022,12-22-15,121,depth_duration_stimuli/000692_2014-06-08_13-09-42_260595134347_rgbf000199-resize_2/000692_2014-06-08_13-09-42_260595134347_rgbf000199-resize_2-target.png,1000,3.661,4,4146,1000,feet,jsons/v1_VE1000_randls_17.json,850200,1026967,58,Woman
121,866086,DepthScenes,duration_manipulation_targetAtFixation,jsons/v1_VE1000_randls_17.json,http://54.235.29.9/FacialAge/BNav_EC2/DepthDuration/v2_depth_duration_MTurk/v2_DepthDuration_HTML.html#17,17,1364,625,1364,768,8-29-2022,12-22-15,122,depth_duration_stimuli/001094_2014-06-15_17-36-00_260595134347_rgbf000205-resize_0/001094_2014-06-15_17-36-00_260595134347_rgbf000205-resize_0-target.png,1000,4.2175,0,4447,1001,feet,jsons/v1_VE1000_randls_17.json,850200,1026967,58,Woman
122,866086,DepthScenes,duration_manipulation_targetAtFixation,jsons/v1_VE1000_randls_17.json,http://54.235.29.9/FacialAge/BNav_EC2/DepthDuration/v2_depth_duration_MTurk/v2_DepthDuration_HTML.html#17,17,1364,625,1364,768,8-29-2022,12-22-15,123,depth_duration_stimuli/000642_2014-06-08_16-59-25_260595134347_rgbf000098-resize_2/000642_2014-06-08_16-59-25_260595134347_rgbf000098-resize_2-target.png,1000,2.8815,3,4650,1000,feet,jsons/v1_VE1000_randls_17.json,850200,1026967,58,Woman
123,866086,DepthScenes,duration_manipulation_targetAtFixation,jsons/v1_VE1000_randls_17.json,http://54.235.29.9/FacialAge/BNav_EC2/DepthDuration/v2_depth_duration_MTurk/v2_DepthDuration_HTML.html#17,17,1364,625,1364,768,8-29-2022,12-22-15,124,depth_duration_stimuli/002425_2014-06-28_20-27-29_260595134347_rgbf000031-resize_8/002425_2014-06-28_20-27-29_260595134347_rgbf000031-resize_8-target.png,1000,3.8960000000000004,0,3983,1002,feet,jsons/v1_VE1000_randls_17.json,850200,1026967,58,Woman
124,866086,DepthScenes,duration_manipulation_targetAtFixation,jsons/v1_VE1000_randls_17.json,http://54.235.29.9/FacialAge/BNav_EC2/DepthDuration/v2_depth_duration_MTurk/v2_DepthDuration_HTML.html#17,17,1364,625,1364,768,8-29-2022,12-22-15,125,depth_duration_stimuli/001244_2014-06-17_16-47-45_260595134347_rgbf000030-resize_4/001244_2014-06-17_16-47-45_260595134347_rgbf000030-resize_4-target.png,1000,2.0425,3,4505,1000,feet,jsons/v1_VE1000_randls_17.json,850200,1026967,58,Woman
125,866086,DepthScenes,duration_manipulation_targetAtFixation,jsons/v1_VE1000_randls_17.json,http://54.235.29.9/FacialAge/BNav_EC2/DepthDuration/v2_depth_duration_MTurk/v2_DepthDuration_HTML.html#17,17,1364,625,1364,768,8-29-2022,12-22-15,126,depth_duration_stimuli/003495_2014-05-21_16-01-51_094959634447_rgbf000100-resize_3/003495_2014-05-21_16-01-51_094959634447_rgbf000100-resize_3-target.png,1000,1.6255,3,4137,1011,feet,jsons/v1_VE1000_randls_17.json,850200,1026967,58,Woman
126,866086,DepthScenes,duration_manipulation_targetAtFixation,jsons/v1_VE1000_randls_17.json,http://54.235.29.9/FacialAge/BNav_EC2/DepthDuration/v2_depth_duration_MTurk/v2_DepthDuration_HTML.html#17,17,1364,625,1364,768,8-29-2022,12-22-15,127,depth_duration_stimuli/002570_2014-06-24_13-59-54_094959634447_rgbf000059-resize_0/002570_2014-06-24_13-59-54_094959634447_rgbf000059-resize_0-target.png,1000,4.037,2,5102,999,feet,jsons/v1_VE1000_randls_17.json,850200,1026967,58,Woman
127,866086,DepthScenes,duration_manipulation_targetAtFixation,jsons/v1_VE1000_randls_17.json,http://54.235.29.9/FacialAge/BNav_EC2/DepthDuration/v2_depth_duration_MTurk/v2_DepthDuration_HTML.html#17,17,1364,625,1364,768,8-29-2022,12-22-15,128,depth_duration_stimuli/002467_2014-06-28_20-38-07_260595134347_rgbf000026-resize_2/002467_2014-06-28_20-38-07_260595134347_rgbf000026-resize_2-target.png,1000,4.742,3,4134,993,feet,jsons/v1_VE1000_randls_17.json,850200,1026967,58,Woman
128,866086,DepthScenes,duration_manipulation_targetAtFixation,jsons/v1_VE1000_randls_17.json,http://54.235.29.9/FacialAge/BNav_EC2/DepthDuration/v2_depth_duration_MTurk/v2_DepthDuration_HTML.html#17,17,1364,625,1364,768,8-29-2022,12-22-15,129,depth_duration_stimuli/000929_2014-06-09_16-33-19_260595134347_rgbf000139-resize_0/000929_2014-06-09_16-33-19_260595134347_rgbf000139-resize_0-target.png,1000,2.8680000000000003,2,4708,1000,feet,jsons/v1_VE1000_randls_17.json,850200,1026967,58,Woman
129,866086,DepthScenes,duration_manipulation_targetAtFixation,jsons/v1_VE1000_randls_17.json,http://54.235.29.9/FacialAge/BNav_EC2/DepthDuration/v2_depth_duration_MTurk/v2_DepthDuration_HTML.html#17,17,1364,625,1364,768,8-29-2022,12-22-15,130,depth_duration_stimuli/000457_2014-06-08_16-52-43_260595134347_rgbf000199-resize_1/000457_2014-06-08_16-52-43_260595134347_rgbf000199-resize_1-target.png,1000,3.6489999999999996,3,5116,999,feet,jsons/v1_VE1000_randls_17.json,850200,1026967,58,Woman
130,866086,DepthScenes,duration_manipulation_targetAtFixation,jsons/v1_VE1000_randls_17.json,http://54.235.29.9/FacialAge/BNav_EC2/DepthDuration/v2_depth_duration_MTurk/v2_DepthDuration_HTML.html#17,17,1364,625,1364,768,8-29-2022,12-22-15,131,depth_duration_stimuli/001570_2014-06-20_17-21-09_260595134347_rgbf000135-resize_4/001570_2014-06-20_17-21-09_260595134347_rgbf000135-resize_4-target.png,1000,4.467,3,4480,1003,feet,jsons/v1_VE1000_randls_17.json,850200,1026967,58,Woman
131,866086,DepthScenes,duration_manipulation_targetAtFixation,jsons/v1_VE1000_randls_17.json,http://54.235.29.9/FacialAge/BNav_EC2/DepthDuration/v2_depth_duration_MTurk/v2_DepthDuration_HTML.html#17,17,1364,625,1364,768,8-29-2022,12-22-15,132,depth_duration_stimuli/001392_2014-06-19_16-07-59_260595134347_rgbf000046-resize_1/001392_2014-06-19_16-07-59_260595134347_rgbf000046-resize_1-target.png,1000,4.135,5,4275,1000,feet,jsons/v1_VE1000_randls_17.json,850200,1026967,58,Woman
132,866086,DepthScenes,duration_manipulation_targetAtFixation,jsons/v1_VE1000_randls_17.json,http://54.235.29.9/FacialAge/BNav_EC2/DepthDuration/v2_depth_duration_MTurk/v2_DepthDuration_HTML.html#17,17,1364,625,1364,768,8-29-2022,12-22-15,133,depth_duration_stimuli/001808_2014-06-26_20-50-58_260595134347_rgbf000029-resize_1/001808_2014-06-26_20-50-58_260595134347_rgbf000029-resize_1-target.png,1000,4.249,0,4358,1007,feet,jsons/v1_VE1000_randls_17.json,850200,1026967,58,Woman
133,866086,DepthScenes,duration_manipulation_targetAtFixation,jsons/v1_VE1000_randls_17.json,http://54.235.29.9/FacialAge/BNav_EC2/DepthDuration/v2_depth_duration_MTurk/v2_DepthDuration_HTML.html#17,17,1364,625,1364,768,8-29-2022,12-22-15,134,depth_duration_stimuli/001815_2014-06-26_20-52-55_260595134347_rgbf000020-resize_0/001815_2014-06-26_20-52-55_260595134347_rgbf000020-resize_0-target.png,1000,3.3865,0,3657,998,feet,jsons/v1_VE1000_randls_17.json,850200,1026967,58,Woman
134,866086,DepthScenes,duration_manipulation_targetAtFixation,jsons/v1_VE1000_randls_17.json,http://54.235.29.9/FacialAge/BNav_EC2/DepthDuration/v2_depth_duration_MTurk/v2_DepthDuration_HTML.html#17,17,1364,625,1364,768,8-29-2022,12-22-15,135,depth_duration_stimuli/002072_2014-06-24_21-48-06_260595134347_rgbf000115-resize_0/002072_2014-06-24_21-48-06_260595134347_rgbf000115-resize-original.jpg,1000,4.702,0,4416,989,feet,jsons/v1_VE1000_randls_17.json,850200,1026967,58,Woman
135,866086,DepthScenes,duration_manipulation_targetAtFixation,jsons/v1_VE1000_randls_17.json,http://54.235.29.9/FacialAge/BNav_EC2/DepthDuration/v2_depth_duration_MTurk/v2_DepthDuration_HTML.html#17,17,1364,625,1364,768,8-29-2022,12-22-15,136,depth_duration_stimuli/002763_2014-06-22_19-13-10_094959634447_rgbf000075-resize_4/002763_2014-06-22_19-13-10_094959634447_rgbf000075-resize_4-target.png,1000,1.68375,3,4067,998,feet,jsons/v1_VE1000_randls_17.json,850200,1026967,58,Woman
136,866086,DepthScenes,duration_manipulation_targetAtFixation,jsons/v1_VE1000_randls_17.json,http://54.235.29.9/FacialAge/BNav_EC2/DepthDuration/v2_depth_duration_MTurk/v2_DepthDuration_HTML.html#17,17,1364,625,1364,768,8-29-2022,12-22-15,137,depth_duration_stimuli/002209_2014-06-28_18-36-10_260595134347_rgbf000051-resize_1/002209_2014-06-28_18-36-10_260595134347_rgbf000051-resize_1-target.png,1000,2.057,3,3919,998,feet,jsons/v1_VE1000_randls_17.json,850200,1026967,58,Woman
137,866086,DepthScenes,duration_manipulation_targetAtFixation,jsons/v1_VE1000_randls_17.json,http://54.235.29.9/FacialAge/BNav_EC2/DepthDuration/v2_depth_duration_MTurk/v2_DepthDuration_HTML.html#17,17,1364,625,1364,768,8-29-2022,12-22-15,138,depth_duration_stimuli/000447_2014-06-08_16-15-46_260595134347_rgbf000130-resize_1/000447_2014-06-08_16-15-46_260595134347_rgbf000130-resize_1-target.png,1000,4.479,0,4332,1000,feet,jsons/v1_VE1000_randls_17.json,850200,1026967,58,Woman
138,866086,DepthScenes,duration_manipulation_targetAtFixation,jsons/v1_VE1000_randls_17.json,http://54.235.29.9/FacialAge/BNav_EC2/DepthDuration/v2_depth_duration_MTurk/v2_DepthDuration_HTML.html#17,17,1364,625,1364,768,8-29-2022,12-22-15,139,depth_duration_stimuli/001447_2014-06-19_17-00-32_260595134347_rgbf000082-resize_5/001447_2014-06-19_17-00-32_260595134347_rgbf000082-resize_5-target.png,1000,4.13775,3,5521,1000,feet,jsons/v1_VE1000_randls_17.json,850200,1026967,58,Woman
139,866086,DepthScenes,duration_manipulation_targetAtFixation,jsons/v1_VE1000_randls_17.json,http://54.235.29.9/FacialAge/BNav_EC2/DepthDuration/v2_depth_duration_MTurk/v2_DepthDuration_HTML.html#17,17,1364,625,1364,768,8-29-2022,12-22-15,140,depth_duration_stimuli/002279_2014-06-28_18-55-32_260595134347_rgbf000040-resize_5/002279_2014-06-28_18-55-32_260595134347_rgbf000040-resize_5-target.png,1000,1.5043333333333,3,4267,999,feet,jsons/v1_VE1000_randls_17.json,850200,1026967,58,Woman
140,866086,DepthScenes,duration_manipulation_targetAtFixation,jsons/v1_VE1000_randls_17.json,http://54.235.29.9/FacialAge/BNav_EC2/DepthDuration/v2_depth_duration_MTurk/v2_DepthDuration_HTML.html#17,17,1364,625,1364,768,8-29-2022,12-22-15,141,depth_duration_stimuli/000635_2014-06-08_16-38-42_260595134347_rgbf000106-resize_1/000635_2014-06-08_16-38-42_260595134347_rgbf000106-resize_1-target.png,1000,2.074,3,4523,999,feet,jsons/v1_VE1000_randls_17.json,850200,1026967,58,Woman
141,866086,DepthScenes,duration_manipulation_targetAtFixation,jsons/v1_VE1000_randls_17.json,http://54.235.29.9/FacialAge/BNav_EC2/DepthDuration/v2_depth_duration_MTurk/v2_DepthDuration_HTML.html#17,17,1364,625,1364,768,8-29-2022,12-22-15,142,depth_duration_stimuli/000469_2014-06-09_19-42-10_260595134347_rgbf000081-resize_1/000469_2014-06-09_19-42-10_260595134347_rgbf000081-resize_1-target.png,1000,1.652,2,4741,1001,feet,jsons/v1_VE1000_randls_17.json,850200,1026967,58,Woman
142,866086,DepthScenes,duration_manipulation_targetAtFixation,jsons/v1_VE1000_randls_17.json,http://54.235.29.9/FacialAge/BNav_EC2/DepthDuration/v2_depth_duration_MTurk/v2_DepthDuration_HTML.html#17,17,1364,625,1364,768,8-29-2022,12-22-15,143,depth_duration_stimuli/000483_2014-06-09_20-41-45_260595134347_rgbf000116-resize_4/000483_2014-06-09_20-41-45_260595134347_rgbf000116-resize_4-target.png,1000,1.337,2,3963,1004,feet,jsons/v1_VE1000_randls_17.json,850200,1026967,58,Woman
143,866086,DepthScenes,duration_manipulation_targetAtFixation,jsons/v1_VE1000_randls_17.json,http://54.235.29.9/FacialAge/BNav_EC2/DepthDuration/v2_depth_duration_MTurk/v2_DepthDuration_HTML.html#17,17,1364,625,1364,768,8-29-2022,12-22-15,144,depth_duration_stimuli/000773_2014-06-08_22-24-54_260595134347_rgbf000093-resize_1/000773_2014-06-08_22-24-54_260595134347_rgbf000093-resize_1-target.png,1000,4.973,2,5642,999,feet,jsons/v1_VE1000_randls_17.json,850200,1026967,58,Woman
144,866086,DepthScenes,duration_manipulation_targetAtFixation,jsons/v1_VE1000_randls_17.json,http://54.235.29.9/FacialAge/BNav_EC2/DepthDuration/v2_depth_duration_MTurk/v2_DepthDuration_HTML.html#17,17,1364,625,1364,768,8-29-2022,12-22-15,145,depth_duration_stimuli/002414_2014-06-28_20-24-58_260595134347_rgbf000067-resize_4/002414_2014-06-28_20-24-58_260595134347_rgbf000067-resize_4-target.png,1000,4.363,2,4228,997,feet,jsons/v1_VE1000_randls_17.json,850200,1026967,58,Woman
145,866086,DepthScenes,duration_manipulation_targetAtFixation,jsons/v1_VE1000_randls_17.json,http://54.235.29.9/FacialAge/BNav_EC2/DepthDuration/v2_depth_duration_MTurk/v2_DepthDuration_HTML.html#17,17,1364,625,1364,768,8-29-2022,12-22-15,146,depth_duration_stimuli/001498_2014-06-19_17-45-14_260595134347_rgbf000129-resize_4/001498_2014-06-19_17-45-14_260595134347_rgbf000129-resize-original.jpg,1000,1.4075,0,6122,1000,feet,jsons/v1_VE1000_randls_17.json,850200,1026967,58,Woman
146,866086,DepthScenes,duration_manipulation_targetAtFixation,jsons/v1_VE1000_randls_17.json,http://54.235.29.9/FacialAge/BNav_EC2/DepthDuration/v2_depth_duration_MTurk/v2_DepthDuration_HTML.html#17,17,1364,625,1364,768,8-29-2022,12-22-15,147,depth_duration_stimuli/001810_2014-06-26_20-51-35_260595134347_rgbf000040-resize_3/001810_2014-06-26_20-51-35_260595134347_rgbf000040-resize_3-target.png,1000,2.2525,3,5015,1000,feet,jsons/v1_VE1000_randls_17.json,850200,1026967,58,Woman
147,866086,DepthScenes,duration_manipulation_targetAtFixation,jsons/v1_VE1000_randls_17.json,http://54.235.29.9/FacialAge/BNav_EC2/DepthDuration/v2_depth_duration_MTurk/v2_DepthDuration_HTML.html#17,17,1364,625,1364,768,8-29-2022,12-22-15,148,depth_duration_stimuli/003010_2014-06-15_12-54-35_094959634447_rgbf000112-resize_0/003010_2014-06-15_12-54-35_094959634447_rgbf000112-resize_0-target.png,1000,3.1185,6,4234,1005,feet,jsons/v1_VE1000_randls_17.json,850200,1026967,58,Woman
148,866086,DepthScenes,duration_manipulation_targetAtFixation,jsons/v1_VE1000_randls_17.json,http://54.235.29.9/FacialAge/BNav_EC2/DepthDuration/v2_depth_duration_MTurk/v2_DepthDuration_HTML.html#17,17,1364,625,1364,768,8-29-2022,12-22-15,149,depth_duration_stimuli/000436_2014-06-09_22-25-11_260595134347_rgbf000137-resize_1/000436_2014-06-09_22-25-11_260595134347_rgbf000137-resize_1-target.png,1000,4.0705,6,4760,1000,feet,jsons/v1_VE1000_randls_17.json,850200,1026967,58,Woman
149,866086,DepthScenes,duration_manipulation_targetAtFixation,jsons/v1_VE1000_randls_17.json,http://54.235.29.9/FacialAge/BNav_EC2/DepthDuration/v2_depth_duration_MTurk/v2_DepthDuration_HTML.html#17,17,1364,625,1364,768,8-29-2022,12-22-15,150,depth_duration_stimuli/002444_2014-06-28_20-32-08_260595134347_rgbf000027-resize_0/002444_2014-06-28_20-32-08_260595134347_rgbf000027-resize_0-target.png,1000,4.388999999999999,3,3883,1000,feet,jsons/v1_VE1000_randls_17.json,850200,1026967,58,Woman
150,866086,DepthScenes,duration_manipulation_targetAtFixation,jsons/v1_VE1000_randls_17.json,http://54.235.29.9/FacialAge/BNav_EC2/DepthDuration/v2_depth_duration_MTurk/v2_DepthDuration_HTML.html#17,17,1364,625,1364,768,8-29-2022,12-22-15,151,depth_duration_stimuli/002213_2014-06-28_18-37-58_260595134347_rgbf000055-resize_1/002213_2014-06-28_18-37-58_260595134347_rgbf000055-resize_1-target.png,1000,3.62,0,6329,998,feet,jsons/v1_VE1000_randls_17.json,850200,1026967,58,Woman
151,866086,DepthScenes,duration_manipulation_targetAtFixation,jsons/v1_VE1000_randls_17.json,http://54.235.29.9/FacialAge/BNav_EC2/DepthDuration/v2_depth_duration_MTurk/v2_DepthDuration_HTML.html#17,17,1364,625,1364,768,8-29-2022,12-22-15,152,depth_duration_stimuli/000691_2014-06-08_13-08-50_260595134347_rgbf000132-resize_3/000691_2014-06-08_13-08-50_260595134347_rgbf000132-resize_3-target.png,1000,4.1530000000000005,3,4438,999,feet,jsons/v1_VE1000_randls_17.json,850200,1026967,58,Woman
152,866086,DepthScenes,duration_manipulation_targetAtFixation,jsons/v1_VE1000_randls_17.json,http://54.235.29.9/FacialAge/BNav_EC2/DepthDuration/v2_depth_duration_MTurk/v2_DepthDuration_HTML.html#17,17,1364,625,1364,768,8-29-2022,12-22-15,153,depth_duration_stimuli/001417_2014-06-19_16-25-36_260595134347_rgbf000115-resize_5/001417_2014-06-19_16-25-36_260595134347_rgbf000115-resize_5-target.png,1000,4.6255,3,4175,1001,feet,jsons/v1_VE1000_randls_17.json,850200,1026967,58,Woman
153,866086,DepthScenes,duration_manipulation_targetAtFixation,jsons/v1_VE1000_randls_17.json,http://54.235.29.9/FacialAge/BNav_EC2/DepthDuration/v2_depth_duration_MTurk/v2_DepthDuration_HTML.html#17,17,1364,625,1364,768,8-29-2022,12-22-15,154,depth_duration_stimuli/003081_2014-06-15_15-19-16_094959634447_rgbf000150-resize_1/003081_2014-06-15_15-19-16_094959634447_rgbf000150-resize_1-target.png,1000,3.9125,3,4105,961,feet,jsons/v1_VE1000_randls_17.json,850200,1026967,58,Woman
154,866086,DepthScenes,duration_manipulation_targetAtFixation,jsons/v1_VE1000_randls_17.json,http://54.235.29.9/FacialAge/BNav_EC2/DepthDuration/v2_depth_duration_MTurk/v2_DepthDuration_HTML.html#17,17,1364,625,1364,768,8-29-2022,12-22-15,155,depth_duration_stimuli/003492_2014-05-21_15-50-55_094959634447_rgbf000828-resize_1/003492_2014-05-21_15-50-55_094959634447_rgbf000828-resize_1-target.png,1000,4.06875,3,4558,1000,feet,jsons/v1_VE1000_randls_17.json,850200,1026967,58,Woman
155,866086,DepthScenes,duration_manipulation_targetAtFixation,jsons/v1_VE1000_randls_17.json,http://54.235.29.9/FacialAge/BNav_EC2/DepthDuration/v2_depth_duration_MTurk/v2_DepthDuration_HTML.html#17,17,1364,625,1364,768,8-29-2022,12-22-15,156,depth_duration_stimuli/002568_2014-06-24_13-59-21_094959634447_rgbf000062-resize_4/002568_2014-06-24_13-59-21_094959634447_rgbf000062-resize_4-target.png,1000,3.015,3,3919,1000,feet,jsons/v1_VE1000_randls_17.json,850200,1026967,58,Woman
156,866086,DepthScenes,duration_manipulation_targetAtFixation,jsons/v1_VE1000_randls_17.json,http://54.235.29.9/FacialAge/BNav_EC2/DepthDuration/v2_depth_duration_MTurk/v2_DepthDuration_HTML.html#17,17,1364,625,1364,768,8-29-2022,12-22-15,157,depth_duration_stimuli/000739_2014-06-08_18-45-58_260595134347_rgbf000068-resize_1/000739_2014-06-08_18-45-58_260595134347_rgbf000068-resize_1-target.png,1000,3.534,2,8787,1004,feet,jsons/v1_VE1000_randls_17.json,850200,1026967,58,Woman
157,866086,DepthScenes,duration_manipulation_targetAtFixation,jsons/v1_VE1000_randls_17.json,http://54.235.29.9/FacialAge/BNav_EC2/DepthDuration/v2_depth_duration_MTurk/v2_DepthDuration_HTML.html#17,17,1364,625,1364,768,8-29-2022,12-22-15,158,depth_duration_stimuli/000734_2014-06-08_17-39-11_260595134347_rgbf000128-resize_2/000734_2014-06-08_17-39-11_260595134347_rgbf000128-resize_2-target.png,1000,4.098,6,3780,1000,feet,jsons/v1_VE1000_randls_17.json,850200,1026967,58,Woman
158,866086,DepthScenes,duration_manipulation_targetAtFixation,jsons/v1_VE1000_randls_17.json,http://54.235.29.9/FacialAge/BNav_EC2/DepthDuration/v2_depth_duration_MTurk/v2_DepthDuration_HTML.html#17,17,1364,625,1364,768,8-29-2022,12-22-15,159,depth_duration_stimuli/003070_2014-06-15_14-58-27_094959634447_rgbf000150-resize_3/003070_2014-06-15_14-58-27_094959634447_rgbf000150-resize_3-target.png,1000,2.9415,3,7787,1000,feet,jsons/v1_VE1000_randls_17.json,850200,1026967,58,Woman
159,866086,DepthScenes,duration_manipulation_targetAtFixation,jsons/v1_VE1000_randls_17.json,http://54.235.29.9/FacialAge/BNav_EC2/DepthDuration/v2_depth_duration_MTurk/v2_DepthDuration_HTML.html#17,17,1364,625,1364,768,8-29-2022,12-22-15,160,depth_duration_stimuli/000943_2014-06-09_19-31-07_260595134347_rgbf000128-resize_1/000943_2014-06-09_19-31-07_260595134347_rgbf000128-resize_1-target.png,1000,1.9765,3,4166,1001,feet,jsons/v1_VE1000_randls_17.json,850200,1026967,58,Woman
160,866086,DepthScenes,duration_manipulation_targetAtFixation,jsons/v1_VE1000_randls_17.json,http://54.235.29.9/FacialAge/BNav_EC2/DepthDuration/v2_depth_duration_MTurk/v2_DepthDuration_HTML.html#17,17,1364,625,1364,768,8-29-2022,12-22-15,161,depth_duration_stimuli/002748_2014-06-22_19-07-22_094959634447_rgbf000078-resize_1/002748_2014-06-22_19-07-22_094959634447_rgbf000078-resize_1-target.png,1000,4.6705,2,5266,983,feet,jsons/v1_VE1000_randls_17.json,850200,1026967,58,Woman
161,866086,DepthScenes,duration_manipulation_targetAtFixation,jsons/v1_VE1000_randls_17.json,http://54.235.29.9/FacialAge/BNav_EC2/DepthDuration/v2_depth_duration_MTurk/v2_DepthDuration_HTML.html#17,17,1364,625,1364,768,8-29-2022,12-22-15,162,depth_duration_stimuli/002995_2014-06-15_12-31-26_094959634447_rgbf000150-resize_1/002995_2014-06-15_12-31-26_094959634447_rgbf000150-resize_1-target.png,1000,3.8360000000000003,3,4702,984,feet,jsons/v1_VE1000_randls_17.json,850200,1026967,58,Woman
162,866086,DepthScenes,duration_manipulation_targetAtFixation,jsons/v1_VE1000_randls_17.json,http://54.235.29.9/FacialAge/BNav_EC2/DepthDuration/v2_depth_duration_MTurk/v2_DepthDuration_HTML.html#17,17,1364,625,1364,768,8-29-2022,12-22-15,163,depth_duration_stimuli/001011_2014-06-08_23-18-54_260595134347_rgbf000044-resize_4/001011_2014-06-08_23-18-54_260595134347_rgbf000044-resize_4-target.png,1000,2.4730000000000003,2,5251,1000,feet,jsons/v1_VE1000_randls_17.json,850200,1026967,58,Woman
163,866086,DepthScenes,duration_manipulation_targetAtFixation,jsons/v1_VE1000_randls_17.json,http://54.235.29.9/FacialAge/BNav_EC2/DepthDuration/v2_depth_duration_MTurk/v2_DepthDuration_HTML.html#17,17,1364,625,1364,768,8-29-2022,12-22-15,164,depth_duration_stimuli/002875_2014-06-01_15-19-00_094959634447_rgbf000151-resize_1/002875_2014-06-01_15-19-00_094959634447_rgbf000151-resize_1-target.png,1000,1.9675,2,3710,999,feet,jsons/v1_VE1000_randls_17.json,850200,1026967,58,Woman
