,subjID,experimentName,versionName,sequenceName,url,selected_row,windowWidth,windowHeight,screenWidth,screenHeight,startDate,startTime,trial,stimulus,duration,actual_depth,depth_estimate,trial_RT,log_sceneDuration,unitSelection,seq_filepath,experimentTime,totalTime,age,gender
0,866696,DepthScenes,duration_manipulation_targetAtFixation,jsons/v1_VE1000_randls_1_rotated.json,http://54.235.29.9/FacialAge/BNav_EC2/DepthDuration/v2_depth_duration_MTurk/v2_DepthDuration_HTML.html#116,116,1364,768,1364,768,8-22-2022,4-59-58,1,depth_duration_stimuli/003338_2014-05-20_11-01-23_094959634447_rgbf000051-resize_6/003338_2014-05-20_11-01-23_094959634447_rgbf000051-resize_6-target.png,1000,1.693,2,7117,989,meters,jsons/v1_VE1000_randls_1_rotated.json,1591008,1836698,30,Man
1,866696,DepthScenes,duration_manipulation_targetAtFixation,jsons/v1_VE1000_randls_1_rotated.json,http://54.235.29.9/FacialAge/BNav_EC2/DepthDuration/v2_depth_duration_MTurk/v2_DepthDuration_HTML.html#116,116,1364,768,1364,768,8-22-2022,4-59-58,2,depth_duration_stimuli/002509_2014-06-24_13-19-22_094959634447_rgbf000077-resize_0/002509_2014-06-24_13-19-22_094959634447_rgbf000077-resize_0-target.png,1000,1.3065,3,6218,999,meters,jsons/v1_VE1000_randls_1_rotated.json,1591008,1836698,30,Man
2,866696,DepthScenes,duration_manipulation_targetAtFixation,jsons/v1_VE1000_randls_1_rotated.json,http://54.235.29.9/FacialAge/BNav_EC2/DepthDuration/v2_depth_duration_MTurk/v2_DepthDuration_HTML.html#116,116,1364,768,1364,768,8-22-2022,4-59-58,3,depth_duration_stimuli/000457_2014-06-08_16-52-43_260595134347_rgbf000199-resize_1/000457_2014-06-08_16-52-43_260595134347_rgbf000199-resize_1-target.png,1000,3.6489999999999996,2,7259,1000,meters,jsons/v1_VE1000_randls_1_rotated.json,1591008,1836698,30,Man
3,866696,DepthScenes,duration_manipulation_targetAtFixation,jsons/v1_VE1000_randls_1_rotated.json,http://54.235.29.9/FacialAge/BNav_EC2/DepthDuration/v2_depth_duration_MTurk/v2_DepthDuration_HTML.html#116,116,1364,768,1364,768,8-22-2022,4-59-58,4,depth_duration_stimuli/000929_2014-06-09_16-33-19_260595134347_rgbf000139-resize_0/000929_2014-06-09_16-33-19_260595134347_rgbf000139-resize_0-target.png,1000,2.8680000000000003,2,6650,1001,meters,jsons/v1_VE1000_randls_1_rotated.json,1591008,1836698,30,Man
4,866696,DepthScenes,duration_manipulation_targetAtFixation,jsons/v1_VE1000_randls_1_rotated.json,http://54.235.29.9/FacialAge/BNav_EC2/DepthDuration/v2_depth_duration_MTurk/v2_DepthDuration_HTML.html#116,116,1364,768,1364,768,8-22-2022,4-59-58,5,depth_duration_stimuli/000691_2014-06-08_13-08-50_260595134347_rgbf000132-resize_3/000691_2014-06-08_13-08-50_260595134347_rgbf000132-resize_3-target.png,1000,4.1530000000000005,2,6369,1000,meters,jsons/v1_VE1000_randls_1_rotated.json,1591008,1836698,30,Man
5,866696,DepthScenes,duration_manipulation_targetAtFixation,jsons/v1_VE1000_randls_1_rotated.json,http://54.235.29.9/FacialAge/BNav_EC2/DepthDuration/v2_depth_duration_MTurk/v2_DepthDuration_HTML.html#116,116,1364,768,1364,768,8-22-2022,4-59-58,6,depth_duration_stimuli/002213_2014-06-28_18-37-58_260595134347_rgbf000055-resize_1/002213_2014-06-28_18-37-58_260595134347_rgbf000055-resize_1-target.png,1000,3.62,0,7277,998,meters,jsons/v1_VE1000_randls_1_rotated.json,1591008,1836698,30,Man
6,866696,DepthScenes,duration_manipulation_targetAtFixation,jsons/v1_VE1000_randls_1_rotated.json,http://54.235.29.9/FacialAge/BNav_EC2/DepthDuration/v2_depth_duration_MTurk/v2_DepthDuration_HTML.html#116,116,1364,768,1364,768,8-22-2022,4-59-58,7,depth_duration_stimuli/000109_2014-05-14_23-41-52_260595134347_rgbf000035-resize_9/000109_2014-05-14_23-41-52_260595134347_rgbf000035-resize_9-target.png,1000,1.3545,3,10858,1014,meters,jsons/v1_VE1000_randls_1_rotated.json,1591008,1836698,30,Man
7,866696,DepthScenes,duration_manipulation_targetAtFixation,jsons/v1_VE1000_randls_1_rotated.json,http://54.235.29.9/FacialAge/BNav_EC2/DepthDuration/v2_depth_duration_MTurk/v2_DepthDuration_HTML.html#116,116,1364,768,1364,768,8-22-2022,4-59-58,8,depth_duration_stimuli/000470_2014-06-09_19-42-40_260595134347_rgbf000094-resize_1/000470_2014-06-09_19-42-40_260595134347_rgbf000094-resize_1-target.png,1000,1.831,2,5380,1001,meters,jsons/v1_VE1000_randls_1_rotated.json,1591008,1836698,30,Man
8,866696,DepthScenes,duration_manipulation_targetAtFixation,jsons/v1_VE1000_randls_1_rotated.json,http://54.235.29.9/FacialAge/BNav_EC2/DepthDuration/v2_depth_duration_MTurk/v2_DepthDuration_HTML.html#116,116,1364,768,1364,768,8-22-2022,4-59-58,9,depth_duration_stimuli/000742_2014-06-08_18-48-09_260595134347_rgbf000164-resize_4/000742_2014-06-08_18-48-09_260595134347_rgbf000164-resize_4-target.png,1000,4.632,3,6017,1000,meters,jsons/v1_VE1000_randls_1_rotated.json,1591008,1836698,30,Man
9,866696,DepthScenes,duration_manipulation_targetAtFixation,jsons/v1_VE1000_randls_1_rotated.json,http://54.235.29.9/FacialAge/BNav_EC2/DepthDuration/v2_depth_duration_MTurk/v2_DepthDuration_HTML.html#116,116,1364,768,1364,768,8-22-2022,4-59-58,10,depth_duration_stimuli/001066_2014-06-08_22-03-20_260595134347_rgbf000066-resize_4/001066_2014-06-08_22-03-20_260595134347_rgbf000066-resize_4-target.png,1000,4.2330000000000005,5,6933,993,meters,jsons/v1_VE1000_randls_1_rotated.json,1591008,1836698,30,Man
10,866696,DepthScenes,duration_manipulation_targetAtFixation,jsons/v1_VE1000_randls_1_rotated.json,http://54.235.29.9/FacialAge/BNav_EC2/DepthDuration/v2_depth_duration_MTurk/v2_DepthDuration_HTML.html#116,116,1364,768,1364,768,8-22-2022,4-59-58,11,depth_duration_stimuli/002199_2014-06-28_18-33-56_260595134347_rgbf000074-resize_0/002199_2014-06-28_18-33-56_260595134347_rgbf000074-resize_0-target.png,1000,1.996,2,7017,1000,meters,jsons/v1_VE1000_randls_1_rotated.json,1591008,1836698,30,Man
11,866696,DepthScenes,duration_manipulation_targetAtFixation,jsons/v1_VE1000_randls_1_rotated.json,http://54.235.29.9/FacialAge/BNav_EC2/DepthDuration/v2_depth_duration_MTurk/v2_DepthDuration_HTML.html#116,116,1364,768,1364,768,8-22-2022,4-59-58,12,depth_duration_stimuli/001056_2014-06-08_18-46-44_260595134347_rgbf000068-resize_0/001056_2014-06-08_18-46-44_260595134347_rgbf000068-resize_0-target.png,1000,2.6625,2,4899,1001,meters,jsons/v1_VE1000_randls_1_rotated.json,1591008,1836698,30,Man
12,866696,DepthScenes,duration_manipulation_targetAtFixation,jsons/v1_VE1000_randls_1_rotated.json,http://54.235.29.9/FacialAge/BNav_EC2/DepthDuration/v2_depth_duration_MTurk/v2_DepthDuration_HTML.html#116,116,1364,768,1364,768,8-22-2022,4-59-58,13,depth_duration_stimuli/002660_2014-06-13_15-44-18_094959634447_rgbf001878-resize_2/002660_2014-06-13_15-44-18_094959634447_rgbf001878-resize_2-target.png,1000,3.576,3,7258,999,meters,jsons/v1_VE1000_randls_1_rotated.json,1591008,1836698,30,Man
13,866696,DepthScenes,duration_manipulation_targetAtFixation,jsons/v1_VE1000_randls_1_rotated.json,http://54.235.29.9/FacialAge/BNav_EC2/DepthDuration/v2_depth_duration_MTurk/v2_DepthDuration_HTML.html#116,116,1364,768,1364,768,8-22-2022,4-59-58,14,depth_duration_stimuli/002153_2014-06-25_21-27-18_260595134347_rgbf000038-resize_5/002153_2014-06-25_21-27-18_260595134347_rgbf000038-resize_5-target.png,1000,2.505,2,4819,1001,meters,jsons/v1_VE1000_randls_1_rotated.json,1591008,1836698,30,Man
14,866696,DepthScenes,duration_manipulation_targetAtFixation,jsons/v1_VE1000_randls_1_rotated.json,http://54.235.29.9/FacialAge/BNav_EC2/DepthDuration/v2_depth_duration_MTurk/v2_DepthDuration_HTML.html#116,116,1364,768,1364,768,8-22-2022,4-59-58,15,depth_duration_stimuli/002323_2014-06-28_20-01-54_260595134347_rgbf000051-resize_4/002323_2014-06-28_20-01-54_260595134347_rgbf000051-resize_4-target.png,1000,3.7310000000000003,3,9498,1000,meters,jsons/v1_VE1000_randls_1_rotated.json,1591008,1836698,30,Man
15,866696,DepthScenes,duration_manipulation_targetAtFixation,jsons/v1_VE1000_randls_1_rotated.json,http://54.235.29.9/FacialAge/BNav_EC2/DepthDuration/v2_depth_duration_MTurk/v2_DepthDuration_HTML.html#116,116,1364,768,1364,768,8-22-2022,4-59-58,16,depth_duration_stimuli/000917_2014-06-09_22-45-29_260595134347_rgbf000149-resize_3/000917_2014-06-09_22-45-29_260595134347_rgbf000149-resize_3-target.png,1000,4.1865,2,8614,995,meters,jsons/v1_VE1000_randls_1_rotated.json,1591008,1836698,30,Man
16,866696,DepthScenes,duration_manipulation_targetAtFixation,jsons/v1_VE1000_randls_1_rotated.json,http://54.235.29.9/FacialAge/BNav_EC2/DepthDuration/v2_depth_duration_MTurk/v2_DepthDuration_HTML.html#116,116,1364,768,1364,768,8-22-2022,4-59-58,17,depth_duration_stimuli/000103_2014-05-14_22-01-17_260595134347_rgbf000152-resize_5/000103_2014-05-14_22-01-17_260595134347_rgbf000152-resize_5-target.png,1000,1.993,3,7220,1000,meters,jsons/v1_VE1000_randls_1_rotated.json,1591008,1836698,30,Man
17,866696,DepthScenes,duration_manipulation_targetAtFixation,jsons/v1_VE1000_randls_1_rotated.json,http://54.235.29.9/FacialAge/BNav_EC2/DepthDuration/v2_depth_duration_MTurk/v2_DepthDuration_HTML.html#116,116,1364,768,1364,768,8-22-2022,4-59-58,18,depth_duration_stimuli/001555_2014-06-20_17-12-10_260595134347_rgbf000065-resize_4/001555_2014-06-20_17-12-10_260595134347_rgbf000065-resize_4-target.png,1000,1.633,2,5378,1000,meters,jsons/v1_VE1000_randls_1_rotated.json,1591008,1836698,30,Man
18,866696,DepthScenes,duration_manipulation_targetAtFixation,jsons/v1_VE1000_randls_1_rotated.json,http://54.235.29.9/FacialAge/BNav_EC2/DepthDuration/v2_depth_duration_MTurk/v2_DepthDuration_HTML.html#116,116,1364,768,1364,768,8-22-2022,4-59-58,19,depth_duration_stimuli/001498_2014-06-19_17-45-14_260595134347_rgbf000129-resize_4/001498_2014-06-19_17-45-14_260595134347_rgbf000129-resize-original.jpg,1000,1.4075,0,6020,1001,meters,jsons/v1_VE1000_randls_1_rotated.json,1591008,1836698,30,Man
19,866696,DepthScenes,duration_manipulation_targetAtFixation,jsons/v1_VE1000_randls_1_rotated.json,http://54.235.29.9/FacialAge/BNav_EC2/DepthDuration/v2_depth_duration_MTurk/v2_DepthDuration_HTML.html#116,116,1364,768,1364,768,8-22-2022,4-59-58,20,depth_duration_stimuli/000677_2014-06-08_23-10-32_260595134347_rgbf000158-resize_6/000677_2014-06-08_23-10-32_260595134347_rgbf000158-resize_6-target.png,1000,3.556,3,6660,1000,meters,jsons/v1_VE1000_randls_1_rotated.json,1591008,1836698,30,Man
20,866696,DepthScenes,duration_manipulation_targetAtFixation,jsons/v1_VE1000_randls_1_rotated.json,http://54.235.29.9/FacialAge/BNav_EC2/DepthDuration/v2_depth_duration_MTurk/v2_DepthDuration_HTML.html#116,116,1364,768,1364,768,8-22-2022,4-59-58,21,depth_duration_stimuli/001029_2014-06-08_13-17-57_260595134347_rgbf000065-resize_1/001029_2014-06-08_13-17-57_260595134347_rgbf000065-resize_1-target.png,1000,3.0835,0,10340,1000,meters,jsons/v1_VE1000_randls_1_rotated.json,1591008,1836698,30,Man
21,866696,DepthScenes,duration_manipulation_targetAtFixation,jsons/v1_VE1000_randls_1_rotated.json,http://54.235.29.9/FacialAge/BNav_EC2/DepthDuration/v2_depth_duration_MTurk/v2_DepthDuration_HTML.html#116,116,1364,768,1364,768,8-22-2022,4-59-58,22,depth_duration_stimuli/000943_2014-06-09_19-31-07_260595134347_rgbf000128-resize_1/000943_2014-06-09_19-31-07_260595134347_rgbf000128-resize_1-target.png,1000,1.9765,2,12348,1001,meters,jsons/v1_VE1000_randls_1_rotated.json,1591008,1836698,30,Man
22,866696,DepthScenes,duration_manipulation_targetAtFixation,jsons/v1_VE1000_randls_1_rotated.json,http://54.235.29.9/FacialAge/BNav_EC2/DepthDuration/v2_depth_duration_MTurk/v2_DepthDuration_HTML.html#116,116,1364,768,1364,768,8-22-2022,4-59-58,23,depth_duration_stimuli/003070_2014-06-15_14-58-27_094959634447_rgbf000150-resize_3/003070_2014-06-15_14-58-27_094959634447_rgbf000150-resize_3-target.png,1000,2.9415,2,5048,999,meters,jsons/v1_VE1000_randls_1_rotated.json,1591008,1836698,30,Man
23,866696,DepthScenes,duration_manipulation_targetAtFixation,jsons/v1_VE1000_randls_1_rotated.json,http://54.235.29.9/FacialAge/BNav_EC2/DepthDuration/v2_depth_duration_MTurk/v2_DepthDuration_HTML.html#116,116,1364,768,1364,768,8-22-2022,4-59-58,24,depth_duration_stimuli/001132_2014-06-17_14-48-54_260595134347_rgbf000100-resize_2/001132_2014-06-17_14-48-54_260595134347_rgbf000100-resize_2-target.png,1000,3.753,4,8071,1000,meters,jsons/v1_VE1000_randls_1_rotated.json,1591008,1836698,30,Man
24,866696,DepthScenes,duration_manipulation_targetAtFixation,jsons/v1_VE1000_randls_1_rotated.json,http://54.235.29.9/FacialAge/BNav_EC2/DepthDuration/v2_depth_duration_MTurk/v2_DepthDuration_HTML.html#116,116,1364,768,1364,768,8-22-2022,4-59-58,25,depth_duration_stimuli/001133_2014-06-17_14-49-16_260595134347_rgbf000100-resize_0/001133_2014-06-17_14-49-16_260595134347_rgbf000100-resize_0-target.png,1000,4.2115,2,14259,1000,meters,jsons/v1_VE1000_randls_1_rotated.json,1591008,1836698,30,Man
25,866696,DepthScenes,duration_manipulation_targetAtFixation,jsons/v1_VE1000_randls_1_rotated.json,http://54.235.29.9/FacialAge/BNav_EC2/DepthDuration/v2_depth_duration_MTurk/v2_DepthDuration_HTML.html#116,116,1364,768,1364,768,8-22-2022,4-59-58,26,depth_duration_stimuli/002758_2014-06-22_19-11-20_094959634447_rgbf000128-resize_1/002758_2014-06-22_19-11-20_094959634447_rgbf000128-resize_1-target.png,1000,2.555,2,5570,1000,meters,jsons/v1_VE1000_randls_1_rotated.json,1591008,1836698,30,Man
26,866696,DepthScenes,duration_manipulation_targetAtFixation,jsons/v1_VE1000_randls_1_rotated.json,http://54.235.29.9/FacialAge/BNav_EC2/DepthDuration/v2_depth_duration_MTurk/v2_DepthDuration_HTML.html#116,116,1364,768,1364,768,8-22-2022,4-59-58,27,depth_duration_stimuli/002630_2014-06-24_14-47-50_094959634447_rgbf000055-resize_1/002630_2014-06-24_14-47-50_094959634447_rgbf000055-resize_1-target.png,1000,3.0095,4,29619,1001,meters,jsons/v1_VE1000_randls_1_rotated.json,1591008,1836698,30,Man
27,866696,DepthScenes,duration_manipulation_targetAtFixation,jsons/v1_VE1000_randls_1_rotated.json,http://54.235.29.9/FacialAge/BNav_EC2/DepthDuration/v2_depth_duration_MTurk/v2_DepthDuration_HTML.html#116,116,1364,768,1364,768,8-22-2022,4-59-58,28,depth_duration_stimuli/000734_2014-06-08_17-39-11_260595134347_rgbf000128-resize_2/000734_2014-06-08_17-39-11_260595134347_rgbf000128-resize_2-target.png,1000,4.098,2,18861,1002,meters,jsons/v1_VE1000_randls_1_rotated.json,1591008,1836698,30,Man
28,866696,DepthScenes,duration_manipulation_targetAtFixation,jsons/v1_VE1000_randls_1_rotated.json,http://54.235.29.9/FacialAge/BNav_EC2/DepthDuration/v2_depth_duration_MTurk/v2_DepthDuration_HTML.html#116,116,1364,768,1364,768,8-22-2022,4-59-58,29,depth_duration_stimuli/000739_2014-06-08_18-45-58_260595134347_rgbf000068-resize_1/000739_2014-06-08_18-45-58_260595134347_rgbf000068-resize_1-target.png,1000,3.534,2,11778,1000,meters,jsons/v1_VE1000_randls_1_rotated.json,1591008,1836698,30,Man
29,866696,DepthScenes,duration_manipulation_targetAtFixation,jsons/v1_VE1000_randls_1_rotated.json,http://54.235.29.9/FacialAge/BNav_EC2/DepthDuration/v2_depth_duration_MTurk/v2_DepthDuration_HTML.html#116,116,1364,768,1364,768,8-22-2022,4-59-58,30,depth_duration_stimuli/002072_2014-06-24_21-48-06_260595134347_rgbf000115-resize_0/002072_2014-06-24_21-48-06_260595134347_rgbf000115-resize-original.jpg,1000,4.702,0,16740,1000,meters,jsons/v1_VE1000_randls_1_rotated.json,1591008,1836698,30,Man
30,866696,DepthScenes,duration_manipulation_targetAtFixation,jsons/v1_VE1000_randls_1_rotated.json,http://54.235.29.9/FacialAge/BNav_EC2/DepthDuration/v2_depth_duration_MTurk/v2_DepthDuration_HTML.html#116,116,1364,768,1364,768,8-22-2022,4-59-58,31,depth_duration_stimuli/001584_2014-06-20_11-07-43_260595134347_rgbf000002-resize_1/001584_2014-06-20_11-07-43_260595134347_rgbf000002-resize_1-target.png,1000,3.53,5,5540,1004,meters,jsons/v1_VE1000_randls_1_rotated.json,1591008,1836698,30,Man
31,866696,DepthScenes,duration_manipulation_targetAtFixation,jsons/v1_VE1000_randls_1_rotated.json,http://54.235.29.9/FacialAge/BNav_EC2/DepthDuration/v2_depth_duration_MTurk/v2_DepthDuration_HTML.html#116,116,1364,768,1364,768,8-22-2022,4-59-58,32,depth_duration_stimuli/003621_2014-05-23_18-06-08_094959634447_rgbf000101-resize_1/003621_2014-05-23_18-06-08_094959634447_rgbf000101-resize_1-target.png,1000,3.9835,3,12859,1001,meters,jsons/v1_VE1000_randls_1_rotated.json,1591008,1836698,30,Man
32,866696,DepthScenes,duration_manipulation_targetAtFixation,jsons/v1_VE1000_randls_1_rotated.json,http://54.235.29.9/FacialAge/BNav_EC2/DepthDuration/v2_depth_duration_MTurk/v2_DepthDuration_HTML.html#116,116,1364,768,1364,768,8-22-2022,4-59-58,33,depth_duration_stimuli/003490_2014-05-21_15-50-11_094959634447_rgbf000101-resize_3/003490_2014-05-21_15-50-11_094959634447_rgbf000101-resize_3-target.png,1000,3.6445,2,9858,1001,meters,jsons/v1_VE1000_randls_1_rotated.json,1591008,1836698,30,Man
33,866696,DepthScenes,duration_manipulation_targetAtFixation,jsons/v1_VE1000_randls_1_rotated.json,http://54.235.29.9/FacialAge/BNav_EC2/DepthDuration/v2_depth_duration_MTurk/v2_DepthDuration_HTML.html#116,116,1364,768,1364,768,8-22-2022,4-59-58,34,depth_duration_stimuli/001175_2014-06-17_15-45-55_260595134347_rgbf000129-resize_4/001175_2014-06-17_15-45-55_260595134347_rgbf000129-resize_4-target.png,1000,4.255,5,4222,1000,meters,jsons/v1_VE1000_randls_1_rotated.json,1591008,1836698,30,Man
34,866696,DepthScenes,duration_manipulation_targetAtFixation,jsons/v1_VE1000_randls_1_rotated.json,http://54.235.29.9/FacialAge/BNav_EC2/DepthDuration/v2_depth_duration_MTurk/v2_DepthDuration_HTML.html#116,116,1364,768,1364,768,8-22-2022,4-59-58,35,depth_duration_stimuli/001571_2014-06-20_17-21-32_260595134347_rgbf000089-resize_1/001571_2014-06-20_17-21-32_260595134347_rgbf000089-resize_1-target.png,1000,1.86,2,5939,1001,meters,jsons/v1_VE1000_randls_1_rotated.json,1591008,1836698,30,Man
35,866696,DepthScenes,duration_manipulation_targetAtFixation,jsons/v1_VE1000_randls_1_rotated.json,http://54.235.29.9/FacialAge/BNav_EC2/DepthDuration/v2_depth_duration_MTurk/v2_DepthDuration_HTML.html#116,116,1364,768,1364,768,8-22-2022,4-59-58,36,depth_duration_stimuli/002272_2014-06-28_18-53-56_260595134347_rgbf000067-resize_2/002272_2014-06-28_18-53-56_260595134347_rgbf000067-resize_2-target.png,1000,1.138,3,4216,1000,meters,jsons/v1_VE1000_randls_1_rotated.json,1591008,1836698,30,Man
36,866696,DepthScenes,duration_manipulation_targetAtFixation,jsons/v1_VE1000_randls_1_rotated.json,http://54.235.29.9/FacialAge/BNav_EC2/DepthDuration/v2_depth_duration_MTurk/v2_DepthDuration_HTML.html#116,116,1364,768,1364,768,8-22-2022,4-59-58,37,depth_duration_stimuli/003495_2014-05-21_16-01-51_094959634447_rgbf000100-resize_3/003495_2014-05-21_16-01-51_094959634447_rgbf000100-resize_3-target.png,1000,1.6255,2,5140,1000,meters,jsons/v1_VE1000_randls_1_rotated.json,1591008,1836698,30,Man
37,866696,DepthScenes,duration_manipulation_targetAtFixation,jsons/v1_VE1000_randls_1_rotated.json,http://54.235.29.9/FacialAge/BNav_EC2/DepthDuration/v2_depth_duration_MTurk/v2_DepthDuration_HTML.html#116,116,1364,768,1364,768,8-22-2022,4-59-58,38,depth_duration_stimuli/001244_2014-06-17_16-47-45_260595134347_rgbf000030-resize_4/001244_2014-06-17_16-47-45_260595134347_rgbf000030-resize_4-target.png,1000,2.0425,4,5618,1000,meters,jsons/v1_VE1000_randls_1_rotated.json,1591008,1836698,30,Man
38,866696,DepthScenes,duration_manipulation_targetAtFixation,jsons/v1_VE1000_randls_1_rotated.json,http://54.235.29.9/FacialAge/BNav_EC2/DepthDuration/v2_depth_duration_MTurk/v2_DepthDuration_HTML.html#116,116,1364,768,1364,768,8-22-2022,4-59-58,39,depth_duration_stimuli/000502_2014-06-08_23-02-32_260595134347_rgbf000063-resize_4/000502_2014-06-08_23-02-32_260595134347_rgbf000063-resize_4-target.png,1000,2.431,5,6338,999,meters,jsons/v1_VE1000_randls_1_rotated.json,1591008,1836698,30,Man
39,866696,DepthScenes,duration_manipulation_targetAtFixation,jsons/v1_VE1000_randls_1_rotated.json,http://54.235.29.9/FacialAge/BNav_EC2/DepthDuration/v2_depth_duration_MTurk/v2_DepthDuration_HTML.html#116,116,1364,768,1364,768,8-22-2022,4-59-58,40,depth_duration_stimuli/001199_2014-06-17_16-03-48_260595134347_rgbf000077-resize_0/001199_2014-06-17_16-03-48_260595134347_rgbf000077-resize_0-target.png,1000,3.4375,5,4341,1000,meters,jsons/v1_VE1000_randls_1_rotated.json,1591008,1836698,30,Man
40,866696,DepthScenes,duration_manipulation_targetAtFixation,jsons/v1_VE1000_randls_1_rotated.json,http://54.235.29.9/FacialAge/BNav_EC2/DepthDuration/v2_depth_duration_MTurk/v2_DepthDuration_HTML.html#116,116,1364,768,1364,768,8-22-2022,4-59-58,41,depth_duration_stimuli/001094_2014-06-15_17-36-00_260595134347_rgbf000205-resize_0/001094_2014-06-15_17-36-00_260595134347_rgbf000205-resize_0-target.png,1000,4.2175,2,5340,1001,meters,jsons/v1_VE1000_randls_1_rotated.json,1591008,1836698,30,Man
41,866696,DepthScenes,duration_manipulation_targetAtFixation,jsons/v1_VE1000_randls_1_rotated.json,http://54.235.29.9/FacialAge/BNav_EC2/DepthDuration/v2_depth_duration_MTurk/v2_DepthDuration_HTML.html#116,116,1364,768,1364,768,8-22-2022,4-59-58,42,depth_duration_stimuli/000692_2014-06-08_13-09-42_260595134347_rgbf000199-resize_2/000692_2014-06-08_13-09-42_260595134347_rgbf000199-resize_2-target.png,1000,3.661,5,4656,1000,meters,jsons/v1_VE1000_randls_1_rotated.json,1591008,1836698,30,Man
42,866696,DepthScenes,duration_manipulation_targetAtFixation,jsons/v1_VE1000_randls_1_rotated.json,http://54.235.29.9/FacialAge/BNav_EC2/DepthDuration/v2_depth_duration_MTurk/v2_DepthDuration_HTML.html#116,116,1364,768,1364,768,8-22-2022,4-59-58,43,depth_duration_stimuli/002805_2014-06-22_19-54-03_094959634447_rgbf000079-resize_1/002805_2014-06-22_19-54-03_094959634447_rgbf000079-resize_1-target.png,1000,3.1439999999999997,3,7794,1001,meters,jsons/v1_VE1000_randls_1_rotated.json,1591008,1836698,30,Man
43,866696,DepthScenes,duration_manipulation_targetAtFixation,jsons/v1_VE1000_randls_1_rotated.json,http://54.235.29.9/FacialAge/BNav_EC2/DepthDuration/v2_depth_duration_MTurk/v2_DepthDuration_HTML.html#116,116,1364,768,1364,768,8-22-2022,4-59-58,44,depth_duration_stimuli/000906_2014-06-08_13-35-43_260595134347_rgbf000155-resize_1/000906_2014-06-08_13-35-43_260595134347_rgbf000155-resize_1-target.png,1000,2.8489999999999998,4,6607,1000,meters,jsons/v1_VE1000_randls_1_rotated.json,1591008,1836698,30,Man
44,866696,DepthScenes,duration_manipulation_targetAtFixation,jsons/v1_VE1000_randls_1_rotated.json,http://54.235.29.9/FacialAge/BNav_EC2/DepthDuration/v2_depth_duration_MTurk/v2_DepthDuration_HTML.html#116,116,1364,768,1364,768,8-22-2022,4-59-58,45,depth_duration_stimuli/003587_2014-05-23_16-48-02_094959634447_rgbf002384-resize_2/003587_2014-05-23_16-48-02_094959634447_rgbf002384-resize_2-target.png,1000,1.357,4,5488,1000,meters,jsons/v1_VE1000_randls_1_rotated.json,1591008,1836698,30,Man
45,866696,DepthScenes,duration_manipulation_targetAtFixation,jsons/v1_VE1000_randls_1_rotated.json,http://54.235.29.9/FacialAge/BNav_EC2/DepthDuration/v2_depth_duration_MTurk/v2_DepthDuration_HTML.html#116,116,1364,768,1364,768,8-22-2022,4-59-58,46,depth_duration_stimuli/001167_2014-06-17_15-38-07_260595134347_rgbf000108-resize_0/001167_2014-06-17_15-38-07_260595134347_rgbf000108-resize_0-target.png,1000,1.8505,2,5360,1000,meters,jsons/v1_VE1000_randls_1_rotated.json,1591008,1836698,30,Man
46,866696,DepthScenes,duration_manipulation_targetAtFixation,jsons/v1_VE1000_randls_1_rotated.json,http://54.235.29.9/FacialAge/BNav_EC2/DepthDuration/v2_depth_duration_MTurk/v2_DepthDuration_HTML.html#116,116,1364,768,1364,768,8-22-2022,4-59-58,47,depth_duration_stimuli/002875_2014-06-01_15-19-00_094959634447_rgbf000151-resize_1/002875_2014-06-01_15-19-00_094959634447_rgbf000151-resize_1-target.png,1000,1.9675,5,6631,1000,meters,jsons/v1_VE1000_randls_1_rotated.json,1591008,1836698,30,Man
47,866696,DepthScenes,duration_manipulation_targetAtFixation,jsons/v1_VE1000_randls_1_rotated.json,http://54.235.29.9/FacialAge/BNav_EC2/DepthDuration/v2_depth_duration_MTurk/v2_DepthDuration_HTML.html#116,116,1364,768,1364,768,8-22-2022,4-59-58,48,depth_duration_stimuli/001011_2014-06-08_23-18-54_260595134347_rgbf000044-resize_4/001011_2014-06-08_23-18-54_260595134347_rgbf000044-resize_4-target.png,1000,2.4730000000000003,4,5223,1001,meters,jsons/v1_VE1000_randls_1_rotated.json,1591008,1836698,30,Man
48,866696,DepthScenes,duration_manipulation_targetAtFixation,jsons/v1_VE1000_randls_1_rotated.json,http://54.235.29.9/FacialAge/BNav_EC2/DepthDuration/v2_depth_duration_MTurk/v2_DepthDuration_HTML.html#116,116,1364,768,1364,768,8-22-2022,4-59-58,49,depth_duration_stimuli/001170_2014-06-17_15-43-44_260595134347_rgbf000096-resize_6/001170_2014-06-17_15-43-44_260595134347_rgbf000096-resize-original.jpg,1000,1.1909999999999998,2,18944,999,meters,jsons/v1_VE1000_randls_1_rotated.json,1591008,1836698,30,Man
49,866696,DepthScenes,duration_manipulation_targetAtFixation,jsons/v1_VE1000_randls_1_rotated.json,http://54.235.29.9/FacialAge/BNav_EC2/DepthDuration/v2_depth_duration_MTurk/v2_DepthDuration_HTML.html#116,116,1364,768,1364,768,8-22-2022,4-59-58,50,depth_duration_stimuli/002568_2014-06-24_13-59-21_094959634447_rgbf000062-resize_4/002568_2014-06-24_13-59-21_094959634447_rgbf000062-resize_4-target.png,1000,3.015,1,5488,1000,meters,jsons/v1_VE1000_randls_1_rotated.json,1591008,1836698,30,Man
50,866696,DepthScenes,duration_manipulation_targetAtFixation,jsons/v1_VE1000_randls_1_rotated.json,http://54.235.29.9/FacialAge/BNav_EC2/DepthDuration/v2_depth_duration_MTurk/v2_DepthDuration_HTML.html#116,116,1364,768,1364,768,8-22-2022,4-59-58,51,depth_duration_stimuli/003492_2014-05-21_15-50-55_094959634447_rgbf000828-resize_1/003492_2014-05-21_15-50-55_094959634447_rgbf000828-resize_1-target.png,1000,4.06875,3,4759,1000,meters,jsons/v1_VE1000_randls_1_rotated.json,1591008,1836698,30,Man
51,866696,DepthScenes,duration_manipulation_targetAtFixation,jsons/v1_VE1000_randls_1_rotated.json,http://54.235.29.9/FacialAge/BNav_EC2/DepthDuration/v2_depth_duration_MTurk/v2_DepthDuration_HTML.html#116,116,1364,768,1364,768,8-22-2022,4-59-58,52,depth_duration_stimuli/002545_2014-06-24_13-38-53_094959634447_rgbf000080-resize_4/002545_2014-06-24_13-38-53_094959634447_rgbf000080-resize_4-target.png,1000,1.9205,2,5989,1001,meters,jsons/v1_VE1000_randls_1_rotated.json,1591008,1836698,30,Man
52,866696,DepthScenes,duration_manipulation_targetAtFixation,jsons/v1_VE1000_randls_1_rotated.json,http://54.235.29.9/FacialAge/BNav_EC2/DepthDuration/v2_depth_duration_MTurk/v2_DepthDuration_HTML.html#116,116,1364,768,1364,768,8-22-2022,4-59-58,53,depth_duration_stimuli/001092_2014-06-15_17-34-58_260595134347_rgbf000171-resize_3/001092_2014-06-15_17-34-58_260595134347_rgbf000171-resize_3-target.png,1000,2.6935,3,4617,1001,meters,jsons/v1_VE1000_randls_1_rotated.json,1591008,1836698,30,Man
53,866696,DepthScenes,duration_manipulation_targetAtFixation,jsons/v1_VE1000_randls_1_rotated.json,http://54.235.29.9/FacialAge/BNav_EC2/DepthDuration/v2_depth_duration_MTurk/v2_DepthDuration_HTML.html#116,116,1364,768,1364,768,8-22-2022,4-59-58,54,depth_duration_stimuli/001650_2014-06-20_12-09-00_260595134347_rgbf000087-resize_3/001650_2014-06-20_12-09-00_260595134347_rgbf000087-resize_3-target.png,1000,1.9505,2,5475,1000,meters,jsons/v1_VE1000_randls_1_rotated.json,1591008,1836698,30,Man
54,866696,DepthScenes,duration_manipulation_targetAtFixation,jsons/v1_VE1000_randls_1_rotated.json,http://54.235.29.9/FacialAge/BNav_EC2/DepthDuration/v2_depth_duration_MTurk/v2_DepthDuration_HTML.html#116,116,1364,768,1364,768,8-22-2022,4-59-58,55,depth_duration_stimuli/000682_2014-06-08_23-14-58_260595134347_rgbf000041-resize_5/000682_2014-06-08_23-14-58_260595134347_rgbf000041-resize_5-target.png,1000,2.7239999999999998,2,4653,999,meters,jsons/v1_VE1000_randls_1_rotated.json,1591008,1836698,30,Man
55,866696,DepthScenes,duration_manipulation_targetAtFixation,jsons/v1_VE1000_randls_1_rotated.json,http://54.235.29.9/FacialAge/BNav_EC2/DepthDuration/v2_depth_duration_MTurk/v2_DepthDuration_HTML.html#116,116,1364,768,1364,768,8-22-2022,4-59-58,56,depth_duration_stimuli/002103_2014-06-25_20-00-40_260595134347_rgbf000049-resize_0/002103_2014-06-25_20-00-40_260595134347_rgbf000049-resize_0-target.png,1000,4.105,2,5847,1000,meters,jsons/v1_VE1000_randls_1_rotated.json,1591008,1836698,30,Man
56,866696,DepthScenes,duration_manipulation_targetAtFixation,jsons/v1_VE1000_randls_1_rotated.json,http://54.235.29.9/FacialAge/BNav_EC2/DepthDuration/v2_depth_duration_MTurk/v2_DepthDuration_HTML.html#116,116,1364,768,1364,768,8-22-2022,4-59-58,57,depth_duration_stimuli/002039_2014-06-24_20-22-38_260595134347_rgbf000084-resize_1/002039_2014-06-24_20-22-38_260595134347_rgbf000084-resize_1-target.png,1000,4.408,3,6007,948,meters,jsons/v1_VE1000_randls_1_rotated.json,1591008,1836698,30,Man
57,866696,DepthScenes,duration_manipulation_targetAtFixation,jsons/v1_VE1000_randls_1_rotated.json,http://54.235.29.9/FacialAge/BNav_EC2/DepthDuration/v2_depth_duration_MTurk/v2_DepthDuration_HTML.html#116,116,1364,768,1364,768,8-22-2022,4-59-58,58,depth_duration_stimuli/003129_2014-05-12_10-48-10_094959634447_rgbf000100-resize_0/003129_2014-05-12_10-48-10_094959634447_rgbf000100-resize_0-target.png,1000,4.9305,3,12388,1000,meters,jsons/v1_VE1000_randls_1_rotated.json,1591008,1836698,30,Man
58,866696,DepthScenes,duration_manipulation_targetAtFixation,jsons/v1_VE1000_randls_1_rotated.json,http://54.235.29.9/FacialAge/BNav_EC2/DepthDuration/v2_depth_duration_MTurk/v2_DepthDuration_HTML.html#116,116,1364,768,1364,768,8-22-2022,4-59-58,59,depth_duration_stimuli/000414_2014-06-04_19-49-13_260595134347_rgbf000044-resize_0/000414_2014-06-04_19-49-13_260595134347_rgbf000044-resize_0-target.png,1000,4.329,2,11484,1000,meters,jsons/v1_VE1000_randls_1_rotated.json,1591008,1836698,30,Man
59,866696,DepthScenes,duration_manipulation_targetAtFixation,jsons/v1_VE1000_randls_1_rotated.json,http://54.235.29.9/FacialAge/BNav_EC2/DepthDuration/v2_depth_duration_MTurk/v2_DepthDuration_HTML.html#116,116,1364,768,1364,768,8-22-2022,4-59-58,60,depth_duration_stimuli/001617_2014-06-20_11-35-32_260595134347_rgbf000066-resize_1/001617_2014-06-20_11-35-32_260595134347_rgbf000066-resize_1-target.png,1000,3.7910000000000004,2,12190,1000,meters,jsons/v1_VE1000_randls_1_rotated.json,1591008,1836698,30,Man
60,866696,DepthScenes,duration_manipulation_targetAtFixation,jsons/v1_VE1000_randls_1_rotated.json,http://54.235.29.9/FacialAge/BNav_EC2/DepthDuration/v2_depth_duration_MTurk/v2_DepthDuration_HTML.html#116,116,1364,768,1364,768,8-22-2022,4-59-58,61,depth_duration_stimuli/001806_2014-06-26_20-50-20_260595134347_rgbf000091-resize_1/001806_2014-06-26_20-50-20_260595134347_rgbf000091-resize_1-target.png,1000,2.7305,2,9710,1000,meters,jsons/v1_VE1000_randls_1_rotated.json,1591008,1836698,30,Man
61,866696,DepthScenes,duration_manipulation_targetAtFixation,jsons/v1_VE1000_randls_1_rotated.json,http://54.235.29.9/FacialAge/BNav_EC2/DepthDuration/v2_depth_duration_MTurk/v2_DepthDuration_HTML.html#116,116,1364,768,1364,768,8-22-2022,4-59-58,62,depth_duration_stimuli/001392_2014-06-19_16-07-59_260595134347_rgbf000046-resize_1/001392_2014-06-19_16-07-59_260595134347_rgbf000046-resize_1-target.png,1000,4.135,2,9909,1000,meters,jsons/v1_VE1000_randls_1_rotated.json,1591008,1836698,30,Man
62,866696,DepthScenes,duration_manipulation_targetAtFixation,jsons/v1_VE1000_randls_1_rotated.json,http://54.235.29.9/FacialAge/BNav_EC2/DepthDuration/v2_depth_duration_MTurk/v2_DepthDuration_HTML.html#116,116,1364,768,1364,768,8-22-2022,4-59-58,63,depth_duration_stimuli/001570_2014-06-20_17-21-09_260595134347_rgbf000135-resize_4/001570_2014-06-20_17-21-09_260595134347_rgbf000135-resize_4-target.png,1000,4.467,3,9770,1000,meters,jsons/v1_VE1000_randls_1_rotated.json,1591008,1836698,30,Man
63,866696,DepthScenes,duration_manipulation_targetAtFixation,jsons/v1_VE1000_randls_1_rotated.json,http://54.235.29.9/FacialAge/BNav_EC2/DepthDuration/v2_depth_duration_MTurk/v2_DepthDuration_HTML.html#116,116,1364,768,1364,768,8-22-2022,4-59-58,64,depth_duration_stimuli/002750_2014-06-22_19-08-03_094959634447_rgbf000094-resize_4/002750_2014-06-22_19-08-03_094959634447_rgbf000094-resize_4-target.png,1000,2.354,1,5528,1000,meters,jsons/v1_VE1000_randls_1_rotated.json,1591008,1836698,30,Man
64,866696,DepthScenes,duration_manipulation_targetAtFixation,jsons/v1_VE1000_randls_1_rotated.json,http://54.235.29.9/FacialAge/BNav_EC2/DepthDuration/v2_depth_duration_MTurk/v2_DepthDuration_HTML.html#116,116,1364,768,1364,768,8-22-2022,4-59-58,65,depth_duration_stimuli/002549_2014-06-24_13-41-39_094959634447_rgbf000022-resize_3/002549_2014-06-24_13-41-39_094959634447_rgbf000022-resize_3-target.png,1000,1.476,2,4310,1000,meters,jsons/v1_VE1000_randls_1_rotated.json,1591008,1836698,30,Man
65,866696,DepthScenes,duration_manipulation_targetAtFixation,jsons/v1_VE1000_randls_1_rotated.json,http://54.235.29.9/FacialAge/BNav_EC2/DepthDuration/v2_depth_duration_MTurk/v2_DepthDuration_HTML.html#116,116,1364,768,1364,768,8-22-2022,4-59-58,66,depth_duration_stimuli/001540_2014-06-20_17-01-05_260595134347_rgbf000086-resize_2/001540_2014-06-20_17-01-05_260595134347_rgbf000086-resize-original.jpg,1000,1.459,0,5487,1000,meters,jsons/v1_VE1000_randls_1_rotated.json,1591008,1836698,30,Man
66,866696,DepthScenes,duration_manipulation_targetAtFixation,jsons/v1_VE1000_randls_1_rotated.json,http://54.235.29.9/FacialAge/BNav_EC2/DepthDuration/v2_depth_duration_MTurk/v2_DepthDuration_HTML.html#116,116,1364,768,1364,768,8-22-2022,4-59-58,67,depth_duration_stimuli/001100_2014-06-15_17-46-26_260595134347_rgbf000225-resize_2/001100_2014-06-15_17-46-26_260595134347_rgbf000225-resize_2-target.png,1000,2.24,2,5249,1001,meters,jsons/v1_VE1000_randls_1_rotated.json,1591008,1836698,30,Man
67,866696,DepthScenes,duration_manipulation_targetAtFixation,jsons/v1_VE1000_randls_1_rotated.json,http://54.235.29.9/FacialAge/BNav_EC2/DepthDuration/v2_depth_duration_MTurk/v2_DepthDuration_HTML.html#116,116,1364,768,1364,768,8-22-2022,4-59-58,68,depth_duration_stimuli/002784_2014-06-22_19-26-30_094959634447_rgbf000083-resize_3/002784_2014-06-22_19-26-30_094959634447_rgbf000083-resize_3-target.png,1000,1.8046666666667,2,4319,1002,meters,jsons/v1_VE1000_randls_1_rotated.json,1591008,1836698,30,Man
68,866696,DepthScenes,duration_manipulation_targetAtFixation,jsons/v1_VE1000_randls_1_rotated.json,http://54.235.29.9/FacialAge/BNav_EC2/DepthDuration/v2_depth_duration_MTurk/v2_DepthDuration_HTML.html#116,116,1364,768,1364,768,8-22-2022,4-59-58,69,depth_duration_stimuli/000191_2014-05-12_17-07-38_260595134347_rgbf000199-resize_0/000191_2014-05-12_17-07-38_260595134347_rgbf000199-resize_0-target.png,1000,3.7995,2,89120,1000,meters,jsons/v1_VE1000_randls_1_rotated.json,1591008,1836698,30,Man
69,866696,DepthScenes,duration_manipulation_targetAtFixation,jsons/v1_VE1000_randls_1_rotated.json,http://54.235.29.9/FacialAge/BNav_EC2/DepthDuration/v2_depth_duration_MTurk/v2_DepthDuration_HTML.html#116,116,1364,768,1364,768,8-22-2022,4-59-58,70,depth_duration_stimuli/000493_2014-06-09_21-01-18_260595134347_rgbf000196-resize_3/000493_2014-06-09_21-01-18_260595134347_rgbf000196-resize_3-target.png,1000,3.44,3,4431,1000,meters,jsons/v1_VE1000_randls_1_rotated.json,1591008,1836698,30,Man
70,866696,DepthScenes,duration_manipulation_targetAtFixation,jsons/v1_VE1000_randls_1_rotated.json,http://54.235.29.9/FacialAge/BNav_EC2/DepthDuration/v2_depth_duration_MTurk/v2_DepthDuration_HTML.html#116,116,1364,768,1364,768,8-22-2022,4-59-58,71,depth_duration_stimuli/001052_2014-06-08_18-24-54_260595134347_rgbf000130-resize_1/001052_2014-06-08_18-24-54_260595134347_rgbf000130-resize_1-target.png,1000,4.1045,3,5669,1000,meters,jsons/v1_VE1000_randls_1_rotated.json,1591008,1836698,30,Man
71,866696,DepthScenes,duration_manipulation_targetAtFixation,jsons/v1_VE1000_randls_1_rotated.json,http://54.235.29.9/FacialAge/BNav_EC2/DepthDuration/v2_depth_duration_MTurk/v2_DepthDuration_HTML.html#116,116,1364,768,1364,768,8-22-2022,4-59-58,72,depth_duration_stimuli/002988_2014-06-15_12-24-20_094959634447_rgbf000150-resize_1/002988_2014-06-15_12-24-20_094959634447_rgbf000150-resize_1-target.png,1000,4.7669999999999995,2,6358,1000,meters,jsons/v1_VE1000_randls_1_rotated.json,1591008,1836698,30,Man
72,866696,DepthScenes,duration_manipulation_targetAtFixation,jsons/v1_VE1000_randls_1_rotated.json,http://54.235.29.9/FacialAge/BNav_EC2/DepthDuration/v2_depth_duration_MTurk/v2_DepthDuration_HTML.html#116,116,1364,768,1364,768,8-22-2022,4-59-58,73,depth_duration_stimuli/000549_2014-06-08_22-10-24_260595134347_rgbf000247-resize_3/000549_2014-06-08_22-10-24_260595134347_rgbf000247-resize_3-target.png,1000,1.841,3,5430,1000,meters,jsons/v1_VE1000_randls_1_rotated.json,1591008,1836698,30,Man
73,866696,DepthScenes,duration_manipulation_targetAtFixation,jsons/v1_VE1000_randls_1_rotated.json,http://54.235.29.9/FacialAge/BNav_EC2/DepthDuration/v2_depth_duration_MTurk/v2_DepthDuration_HTML.html#116,116,1364,768,1364,768,8-22-2022,4-59-58,74,depth_duration_stimuli/001055_2014-06-08_18-45-35_260595134347_rgbf000111-resize_4/001055_2014-06-08_18-45-35_260595134347_rgbf000111-resize_4-target.png,1000,2.4290000000000003,2,4619,1001,meters,jsons/v1_VE1000_randls_1_rotated.json,1591008,1836698,30,Man
74,866696,DepthScenes,duration_manipulation_targetAtFixation,jsons/v1_VE1000_randls_1_rotated.json,http://54.235.29.9/FacialAge/BNav_EC2/DepthDuration/v2_depth_duration_MTurk/v2_DepthDuration_HTML.html#116,116,1364,768,1364,768,8-22-2022,4-59-58,75,depth_duration_stimuli/000635_2014-06-08_16-38-42_260595134347_rgbf000106-resize_1/000635_2014-06-08_16-38-42_260595134347_rgbf000106-resize_1-target.png,1000,2.074,3,4940,1001,meters,jsons/v1_VE1000_randls_1_rotated.json,1591008,1836698,30,Man
75,866696,DepthScenes,duration_manipulation_targetAtFixation,jsons/v1_VE1000_randls_1_rotated.json,http://54.235.29.9/FacialAge/BNav_EC2/DepthDuration/v2_depth_duration_MTurk/v2_DepthDuration_HTML.html#116,116,1364,768,1364,768,8-22-2022,4-59-58,76,depth_duration_stimuli/002279_2014-06-28_18-55-32_260595134347_rgbf000040-resize_5/002279_2014-06-28_18-55-32_260595134347_rgbf000040-resize_5-target.png,1000,1.5043333333333,2,4169,1000,meters,jsons/v1_VE1000_randls_1_rotated.json,1591008,1836698,30,Man
76,866696,DepthScenes,duration_manipulation_targetAtFixation,jsons/v1_VE1000_randls_1_rotated.json,http://54.235.29.9/FacialAge/BNav_EC2/DepthDuration/v2_depth_duration_MTurk/v2_DepthDuration_HTML.html#116,116,1364,768,1364,768,8-22-2022,4-59-58,77,depth_duration_stimuli/000409_2014-06-04_19-23-33_260595134347_rgbf000067-resize_0/000409_2014-06-04_19-23-33_260595134347_rgbf000067-resize_0-target.png,1000,3.7335,1,4978,999,meters,jsons/v1_VE1000_randls_1_rotated.json,1591008,1836698,30,Man
77,866696,DepthScenes,duration_manipulation_targetAtFixation,jsons/v1_VE1000_randls_1_rotated.json,http://54.235.29.9/FacialAge/BNav_EC2/DepthDuration/v2_depth_duration_MTurk/v2_DepthDuration_HTML.html#116,116,1364,768,1364,768,8-22-2022,4-59-58,78,depth_duration_stimuli/002663_2014-06-13_15-50-26_094959634447_rgbf000075-resize_1/002663_2014-06-13_15-50-26_094959634447_rgbf000075-resize_1-target.png,1000,4.7495,2,4127,1000,meters,jsons/v1_VE1000_randls_1_rotated.json,1591008,1836698,30,Man
78,866696,DepthScenes,duration_manipulation_targetAtFixation,jsons/v1_VE1000_randls_1_rotated.json,http://54.235.29.9/FacialAge/BNav_EC2/DepthDuration/v2_depth_duration_MTurk/v2_DepthDuration_HTML.html#116,116,1364,768,1364,768,8-22-2022,4-59-58,79,depth_duration_stimuli/002678_2014-06-13_16-15-32_094959634447_rgbf000151-resize_6/002678_2014-06-13_16-15-32_094959634447_rgbf000151-resize_6-target.png,1000,2.1830000000000003,3,4959,1000,meters,jsons/v1_VE1000_randls_1_rotated.json,1591008,1836698,30,Man
79,866696,DepthScenes,duration_manipulation_targetAtFixation,jsons/v1_VE1000_randls_1_rotated.json,http://54.235.29.9/FacialAge/BNav_EC2/DepthDuration/v2_depth_duration_MTurk/v2_DepthDuration_HTML.html#116,116,1364,768,1364,768,8-22-2022,4-59-58,80,depth_duration_stimuli/000368_2014-06-09_15-53-01_260595134347_rgbf000155-resize_2/000368_2014-06-09_15-53-01_260595134347_rgbf000155-resize_2-target.png,1000,2.4859999999999998,2,4086,1000,meters,jsons/v1_VE1000_randls_1_rotated.json,1591008,1836698,30,Man
80,866696,DepthScenes,duration_manipulation_targetAtFixation,jsons/v1_VE1000_randls_1_rotated.json,http://54.235.29.9/FacialAge/BNav_EC2/DepthDuration/v2_depth_duration_MTurk/v2_DepthDuration_HTML.html#116,116,1364,768,1364,768,8-22-2022,4-59-58,81,depth_duration_stimuli/000927_2014-06-09_16-32-30_260595134347_rgbf000123-resize_3/000927_2014-06-09_16-32-30_260595134347_rgbf000123-resize_3-target.png,1000,2.6785,3,6437,1000,meters,jsons/v1_VE1000_randls_1_rotated.json,1591008,1836698,30,Man
81,866696,DepthScenes,duration_manipulation_targetAtFixation,jsons/v1_VE1000_randls_1_rotated.json,http://54.235.29.9/FacialAge/BNav_EC2/DepthDuration/v2_depth_duration_MTurk/v2_DepthDuration_HTML.html#116,116,1364,768,1364,768,8-22-2022,4-59-58,82,depth_duration_stimuli/001110_2014-06-15_17-25-28_260595134347_rgbf000150-resize_1/001110_2014-06-15_17-25-28_260595134347_rgbf000150-resize_1-target.png,1000,1.7115,2,4270,1001,meters,jsons/v1_VE1000_randls_1_rotated.json,1591008,1836698,30,Man
82,866696,DepthScenes,duration_manipulation_targetAtFixation,jsons/v1_VE1000_randls_1_rotated.json,http://54.235.29.9/FacialAge/BNav_EC2/DepthDuration/v2_depth_duration_MTurk/v2_DepthDuration_HTML.html#116,116,1364,768,1364,768,8-22-2022,4-59-58,83,depth_duration_stimuli/002639_2014-06-24_14-51-37_094959634447_rgbf000074-resize_4/002639_2014-06-24_14-51-37_094959634447_rgbf000074-resize_4-target.png,1000,4.0375,3,4489,1001,meters,jsons/v1_VE1000_randls_1_rotated.json,1591008,1836698,30,Man
83,866696,DepthScenes,duration_manipulation_targetAtFixation,jsons/v1_VE1000_randls_1_rotated.json,http://54.235.29.9/FacialAge/BNav_EC2/DepthDuration/v2_depth_duration_MTurk/v2_DepthDuration_HTML.html#116,116,1364,768,1364,768,8-22-2022,4-59-58,84,depth_duration_stimuli/003292_2014-05-14_21-53-49_094959634447_rgbf000100-resize_2/003292_2014-05-14_21-53-49_094959634447_rgbf000100-resize_2-target.png,1000,3.4815,3,4779,1001,meters,jsons/v1_VE1000_randls_1_rotated.json,1591008,1836698,30,Man
84,866696,DepthScenes,duration_manipulation_targetAtFixation,jsons/v1_VE1000_randls_1_rotated.json,http://54.235.29.9/FacialAge/BNav_EC2/DepthDuration/v2_depth_duration_MTurk/v2_DepthDuration_HTML.html#116,116,1364,768,1364,768,8-22-2022,4-59-58,85,depth_duration_stimuli/003083_2014-06-15_15-21-03_094959634447_rgbf000063-resize_1/003083_2014-06-15_15-21-03_094959634447_rgbf000063-resize_1-target.png,1000,4.1405,3,5330,1001,meters,jsons/v1_VE1000_randls_1_rotated.json,1591008,1836698,30,Man
85,866696,DepthScenes,duration_manipulation_targetAtFixation,jsons/v1_VE1000_randls_1_rotated.json,http://54.235.29.9/FacialAge/BNav_EC2/DepthDuration/v2_depth_duration_MTurk/v2_DepthDuration_HTML.html#116,116,1364,768,1364,768,8-22-2022,4-59-58,86,depth_duration_stimuli/000486_2014-06-09_20-47-20_260595134347_rgbf000143-resize_2/000486_2014-06-09_20-47-20_260595134347_rgbf000143-resize_2-target.png,1000,4.8325,2,4647,999,meters,jsons/v1_VE1000_randls_1_rotated.json,1591008,1836698,30,Man
86,866696,DepthScenes,duration_manipulation_targetAtFixation,jsons/v1_VE1000_randls_1_rotated.json,http://54.235.29.9/FacialAge/BNav_EC2/DepthDuration/v2_depth_duration_MTurk/v2_DepthDuration_HTML.html#116,116,1364,768,1364,768,8-22-2022,4-59-58,87,depth_duration_stimuli/002209_2014-06-28_18-36-10_260595134347_rgbf000051-resize_1/002209_2014-06-28_18-36-10_260595134347_rgbf000051-resize_1-target.png,1000,2.057,2,18870,1001,meters,jsons/v1_VE1000_randls_1_rotated.json,1591008,1836698,30,Man
87,866696,DepthScenes,duration_manipulation_targetAtFixation,jsons/v1_VE1000_randls_1_rotated.json,http://54.235.29.9/FacialAge/BNav_EC2/DepthDuration/v2_depth_duration_MTurk/v2_DepthDuration_HTML.html#116,116,1364,768,1364,768,8-22-2022,4-59-58,88,depth_duration_stimuli/002763_2014-06-22_19-13-10_094959634447_rgbf000075-resize_4/002763_2014-06-22_19-13-10_094959634447_rgbf000075-resize_4-target.png,1000,1.68375,2,11808,1001,meters,jsons/v1_VE1000_randls_1_rotated.json,1591008,1836698,30,Man
88,866696,DepthScenes,duration_manipulation_targetAtFixation,jsons/v1_VE1000_randls_1_rotated.json,http://54.235.29.9/FacialAge/BNav_EC2/DepthDuration/v2_depth_duration_MTurk/v2_DepthDuration_HTML.html#116,116,1364,768,1364,768,8-22-2022,4-59-58,89,depth_duration_stimuli/002340_2014-06-28_20-05-46_260595134347_rgbf000113-resize_0/002340_2014-06-28_20-05-46_260595134347_rgbf000113-resize_0-target.png,1000,2.4735,2,56588,1001,meters,jsons/v1_VE1000_randls_1_rotated.json,1591008,1836698,30,Man
89,866696,DepthScenes,duration_manipulation_targetAtFixation,jsons/v1_VE1000_randls_1_rotated.json,http://54.235.29.9/FacialAge/BNav_EC2/DepthDuration/v2_depth_duration_MTurk/v2_DepthDuration_HTML.html#116,116,1364,768,1364,768,8-22-2022,4-59-58,90,depth_duration_stimuli/001016_2014-06-09_16-16-10_260595134347_rgbf000112-resize_5/001016_2014-06-09_16-16-10_260595134347_rgbf000112-resize_5-target.png,1000,1.6565,1,4609,999,meters,jsons/v1_VE1000_randls_1_rotated.json,1591008,1836698,30,Man
90,866696,DepthScenes,duration_manipulation_targetAtFixation,jsons/v1_VE1000_randls_1_rotated.json,http://54.235.29.9/FacialAge/BNav_EC2/DepthDuration/v2_depth_duration_MTurk/v2_DepthDuration_HTML.html#116,116,1364,768,1364,768,8-22-2022,4-59-58,91,depth_duration_stimuli/000866_2014-06-09_20-45-42_260595134347_rgbf000139-resize_1/000866_2014-06-09_20-45-42_260595134347_rgbf000139-resize_1-target.png,1000,3.2155,2,4929,1000,meters,jsons/v1_VE1000_randls_1_rotated.json,1591008,1836698,30,Man
91,866696,DepthScenes,duration_manipulation_targetAtFixation,jsons/v1_VE1000_randls_1_rotated.json,http://54.235.29.9/FacialAge/BNav_EC2/DepthDuration/v2_depth_duration_MTurk/v2_DepthDuration_HTML.html#116,116,1364,768,1364,768,8-22-2022,4-59-58,92,depth_duration_stimuli/002989_2014-06-15_12-25-03_094959634447_rgbf000150-resize_3/002989_2014-06-15_12-25-03_094959634447_rgbf000150-resize_3-target.png,1000,4.1975,3,4788,1000,meters,jsons/v1_VE1000_randls_1_rotated.json,1591008,1836698,30,Man
92,866696,DepthScenes,duration_manipulation_targetAtFixation,jsons/v1_VE1000_randls_1_rotated.json,http://54.235.29.9/FacialAge/BNav_EC2/DepthDuration/v2_depth_duration_MTurk/v2_DepthDuration_HTML.html#116,116,1364,768,1364,768,8-22-2022,4-59-58,93,depth_duration_stimuli/002414_2014-06-28_20-24-58_260595134347_rgbf000067-resize_4/002414_2014-06-28_20-24-58_260595134347_rgbf000067-resize_4-target.png,1000,4.363,3,5331,1001,meters,jsons/v1_VE1000_randls_1_rotated.json,1591008,1836698,30,Man
93,866696,DepthScenes,duration_manipulation_targetAtFixation,jsons/v1_VE1000_randls_1_rotated.json,http://54.235.29.9/FacialAge/BNav_EC2/DepthDuration/v2_depth_duration_MTurk/v2_DepthDuration_HTML.html#116,116,1364,768,1364,768,8-22-2022,4-59-58,94,depth_duration_stimuli/000773_2014-06-08_22-24-54_260595134347_rgbf000093-resize_1/000773_2014-06-08_22-24-54_260595134347_rgbf000093-resize_1-target.png,1000,4.973,2,4299,1000,meters,jsons/v1_VE1000_randls_1_rotated.json,1591008,1836698,30,Man
94,866696,DepthScenes,duration_manipulation_targetAtFixation,jsons/v1_VE1000_randls_1_rotated.json,http://54.235.29.9/FacialAge/BNav_EC2/DepthDuration/v2_depth_duration_MTurk/v2_DepthDuration_HTML.html#116,116,1364,768,1364,768,8-22-2022,4-59-58,95,depth_duration_stimuli/001815_2014-06-26_20-52-55_260595134347_rgbf000020-resize_0/001815_2014-06-26_20-52-55_260595134347_rgbf000020-resize_0-target.png,1000,3.3865,3,5068,1000,meters,jsons/v1_VE1000_randls_1_rotated.json,1591008,1836698,30,Man
95,866696,DepthScenes,duration_manipulation_targetAtFixation,jsons/v1_VE1000_randls_1_rotated.json,http://54.235.29.9/FacialAge/BNav_EC2/DepthDuration/v2_depth_duration_MTurk/v2_DepthDuration_HTML.html#116,116,1364,768,1364,768,8-22-2022,4-59-58,96,depth_duration_stimuli/001808_2014-06-26_20-50-58_260595134347_rgbf000029-resize_1/001808_2014-06-26_20-50-58_260595134347_rgbf000029-resize_1-target.png,1000,4.249,3,4488,1001,meters,jsons/v1_VE1000_randls_1_rotated.json,1591008,1836698,30,Man
96,866696,DepthScenes,duration_manipulation_targetAtFixation,jsons/v1_VE1000_randls_1_rotated.json,http://54.235.29.9/FacialAge/BNav_EC2/DepthDuration/v2_depth_duration_MTurk/v2_DepthDuration_HTML.html#116,116,1364,768,1364,768,8-22-2022,4-59-58,97,depth_duration_stimuli/003423_2014-05-21_10-23-26_094959634447_rgbf002665-resize_2/003423_2014-05-21_10-23-26_094959634447_rgbf002665-resize_2-target.png,1000,3.2575,1,4677,1000,meters,jsons/v1_VE1000_randls_1_rotated.json,1591008,1836698,30,Man
97,866696,DepthScenes,duration_manipulation_targetAtFixation,jsons/v1_VE1000_randls_1_rotated.json,http://54.235.29.9/FacialAge/BNav_EC2/DepthDuration/v2_depth_duration_MTurk/v2_DepthDuration_HTML.html#116,116,1364,768,1364,768,8-22-2022,4-59-58,98,depth_duration_stimuli/002905_2014-06-03_18-04-43_094959634447_rgbf000151-resize_2/002905_2014-06-03_18-04-43_094959634447_rgbf000151-resize_2-target.png,1000,2.0295,1,4847,1000,meters,jsons/v1_VE1000_randls_1_rotated.json,1591008,1836698,30,Man
98,866696,DepthScenes,duration_manipulation_targetAtFixation,jsons/v1_VE1000_randls_1_rotated.json,http://54.235.29.9/FacialAge/BNav_EC2/DepthDuration/v2_depth_duration_MTurk/v2_DepthDuration_HTML.html#116,116,1364,768,1364,768,8-22-2022,4-59-58,99,depth_duration_stimuli/001222_2014-06-17_16-24-06_260595134347_rgbf000073-resize_0/001222_2014-06-17_16-24-06_260595134347_rgbf000073-resize-original.jpg,1000,1.4385,0,5269,998,meters,jsons/v1_VE1000_randls_1_rotated.json,1591008,1836698,30,Man
99,866696,DepthScenes,duration_manipulation_targetAtFixation,jsons/v1_VE1000_randls_1_rotated.json,http://54.235.29.9/FacialAge/BNav_EC2/DepthDuration/v2_depth_duration_MTurk/v2_DepthDuration_HTML.html#116,116,1364,768,1364,768,8-22-2022,4-59-58,100,depth_duration_stimuli/000854_2014-06-09_19-43-13_260595134347_rgbf000066-resize_0/000854_2014-06-09_19-43-13_260595134347_rgbf000066-resize_0-target.png,1000,3.068,3,4870,1001,meters,jsons/v1_VE1000_randls_1_rotated.json,1591008,1836698,30,Man
100,866696,DepthScenes,duration_manipulation_targetAtFixation,jsons/v1_VE1000_randls_1_rotated.json,http://54.235.29.9/FacialAge/BNav_EC2/DepthDuration/v2_depth_duration_MTurk/v2_DepthDuration_HTML.html#116,116,1364,768,1364,768,8-22-2022,4-59-58,101,depth_duration_stimuli/000758_2014-06-08_22-05-08_260595134347_rgbf000085-resize_0/000758_2014-06-08_22-05-08_260595134347_rgbf000085-resize_0-target.png,1000,3.3810000000000002,3,4878,999,meters,jsons/v1_VE1000_randls_1_rotated.json,1591008,1836698,30,Man
101,866696,DepthScenes,duration_manipulation_targetAtFixation,jsons/v1_VE1000_randls_1_rotated.json,http://54.235.29.9/FacialAge/BNav_EC2/DepthDuration/v2_depth_duration_MTurk/v2_DepthDuration_HTML.html#116,116,1364,768,1364,768,8-22-2022,4-59-58,102,depth_duration_stimuli/001828_2014-06-26_21-40-03_260595134347_rgbf000024-resize_0/001828_2014-06-26_21-40-03_260595134347_rgbf000024-resize_0-target.png,1000,4.8260000000000005,3,5339,1001,meters,jsons/v1_VE1000_randls_1_rotated.json,1591008,1836698,30,Man
102,866696,DepthScenes,duration_manipulation_targetAtFixation,jsons/v1_VE1000_randls_1_rotated.json,http://54.235.29.9/FacialAge/BNav_EC2/DepthDuration/v2_depth_duration_MTurk/v2_DepthDuration_HTML.html#116,116,1364,768,1364,768,8-22-2022,4-59-58,103,depth_duration_stimuli/000009_2014-05-26_14-32-05_260595134347_rgbf000034-resize_3/000009_2014-05-26_14-32-05_260595134347_rgbf000034-resize_3-target.png,1000,3.8715,3,5177,999,meters,jsons/v1_VE1000_randls_1_rotated.json,1591008,1836698,30,Man
103,866696,DepthScenes,duration_manipulation_targetAtFixation,jsons/v1_VE1000_randls_1_rotated.json,http://54.235.29.9/FacialAge/BNav_EC2/DepthDuration/v2_depth_duration_MTurk/v2_DepthDuration_HTML.html#116,116,1364,768,1364,768,8-22-2022,4-59-58,104,depth_duration_stimuli/001032_2014-06-08_13-23-17_260595134347_rgbf000021-resize_3/001032_2014-06-08_13-23-17_260595134347_rgbf000021-resize_3-target.png,1000,3.2725,3,8653,1001,meters,jsons/v1_VE1000_randls_1_rotated.json,1591008,1836698,30,Man
104,866696,DepthScenes,duration_manipulation_targetAtFixation,jsons/v1_VE1000_randls_1_rotated.json,http://54.235.29.9/FacialAge/BNav_EC2/DepthDuration/v2_depth_duration_MTurk/v2_DepthDuration_HTML.html#116,116,1364,768,1364,768,8-22-2022,4-59-58,105,depth_duration_stimuli/001059_2014-06-08_21-53-27_260595134347_rgbf000061-resize_4/001059_2014-06-08_21-53-27_260595134347_rgbf000061-resize_4-target.png,1000,2.4185,2,7756,1001,meters,jsons/v1_VE1000_randls_1_rotated.json,1591008,1836698,30,Man
105,866696,DepthScenes,duration_manipulation_targetAtFixation,jsons/v1_VE1000_randls_1_rotated.json,http://54.235.29.9/FacialAge/BNav_EC2/DepthDuration/v2_depth_duration_MTurk/v2_DepthDuration_HTML.html#116,116,1364,768,1364,768,8-22-2022,4-59-58,106,depth_duration_stimuli/001516_2014-06-20_16-25-09_260595134347_rgbf000076-resize_2/001516_2014-06-20_16-25-09_260595134347_rgbf000076-resize_2-target.png,1000,1.7445,3,9060,1000,meters,jsons/v1_VE1000_randls_1_rotated.json,1591008,1836698,30,Man
106,866696,DepthScenes,duration_manipulation_targetAtFixation,jsons/v1_VE1000_randls_1_rotated.json,http://54.235.29.9/FacialAge/BNav_EC2/DepthDuration/v2_depth_duration_MTurk/v2_DepthDuration_HTML.html#116,116,1364,768,1364,768,8-22-2022,4-59-58,107,depth_duration_stimuli/002118_2014-06-25_20-32-08_260595134347_rgbf000078-resize_1/002118_2014-06-25_20-32-08_260595134347_rgbf000078-resize_1-target.png,1000,2.6460000000000004,2,4601,999,meters,jsons/v1_VE1000_randls_1_rotated.json,1591008,1836698,30,Man
107,866696,DepthScenes,duration_manipulation_targetAtFixation,jsons/v1_VE1000_randls_1_rotated.json,http://54.235.29.9/FacialAge/BNav_EC2/DepthDuration/v2_depth_duration_MTurk/v2_DepthDuration_HTML.html#116,116,1364,768,1364,768,8-22-2022,4-59-58,108,depth_duration_stimuli/003010_2014-06-15_12-54-35_094959634447_rgbf000112-resize_0/003010_2014-06-15_12-54-35_094959634447_rgbf000112-resize_0-target.png,1000,3.1185,3,6459,1000,meters,jsons/v1_VE1000_randls_1_rotated.json,1591008,1836698,30,Man
108,866696,DepthScenes,duration_manipulation_targetAtFixation,jsons/v1_VE1000_randls_1_rotated.json,http://54.235.29.9/FacialAge/BNav_EC2/DepthDuration/v2_depth_duration_MTurk/v2_DepthDuration_HTML.html#116,116,1364,768,1364,768,8-22-2022,4-59-58,109,depth_duration_stimuli/001810_2014-06-26_20-51-35_260595134347_rgbf000040-resize_3/001810_2014-06-26_20-51-35_260595134347_rgbf000040-resize_3-target.png,1000,2.2525,2,4579,1000,meters,jsons/v1_VE1000_randls_1_rotated.json,1591008,1836698,30,Man
109,866696,DepthScenes,duration_manipulation_targetAtFixation,jsons/v1_VE1000_randls_1_rotated.json,http://54.235.29.9/FacialAge/BNav_EC2/DepthDuration/v2_depth_duration_MTurk/v2_DepthDuration_HTML.html#116,116,1364,768,1364,768,8-22-2022,4-59-58,110,depth_duration_stimuli/003081_2014-06-15_15-19-16_094959634447_rgbf000150-resize_1/003081_2014-06-15_15-19-16_094959634447_rgbf000150-resize_1-target.png,1000,3.9125,2,138854,976,meters,jsons/v1_VE1000_randls_1_rotated.json,1591008,1836698,30,Man
110,866696,DepthScenes,duration_manipulation_targetAtFixation,jsons/v1_VE1000_randls_1_rotated.json,http://54.235.29.9/FacialAge/BNav_EC2/DepthDuration/v2_depth_duration_MTurk/v2_DepthDuration_HTML.html#116,116,1364,768,1364,768,8-22-2022,4-59-58,111,depth_duration_stimuli/001417_2014-06-19_16-25-36_260595134347_rgbf000115-resize_5/001417_2014-06-19_16-25-36_260595134347_rgbf000115-resize_5-target.png,1000,4.6255,3,5768,998,meters,jsons/v1_VE1000_randls_1_rotated.json,1591008,1836698,30,Man
111,866696,DepthScenes,duration_manipulation_targetAtFixation,jsons/v1_VE1000_randls_1_rotated.json,http://54.235.29.9/FacialAge/BNav_EC2/DepthDuration/v2_depth_duration_MTurk/v2_DepthDuration_HTML.html#116,116,1364,768,1364,768,8-22-2022,4-59-58,112,depth_duration_stimuli/002637_2014-06-24_14-51-13_094959634447_rgbf000066-resize_4/002637_2014-06-24_14-51-13_094959634447_rgbf000066-resize_4-target.png,1000,1.9955,3,7972,999,meters,jsons/v1_VE1000_randls_1_rotated.json,1591008,1836698,30,Man
112,866696,DepthScenes,duration_manipulation_targetAtFixation,jsons/v1_VE1000_randls_1_rotated.json,http://54.235.29.9/FacialAge/BNav_EC2/DepthDuration/v2_depth_duration_MTurk/v2_DepthDuration_HTML.html#116,116,1364,768,1364,768,8-22-2022,4-59-58,113,depth_duration_stimuli/003534_2014-05-22_15-06-10_094959634447_rgbf000102-resize_4/003534_2014-05-22_15-06-10_094959634447_rgbf000102-resize_4-target.png,1000,1.426,1,5104,998,meters,jsons/v1_VE1000_randls_1_rotated.json,1591008,1836698,30,Man
113,866696,DepthScenes,duration_manipulation_targetAtFixation,jsons/v1_VE1000_randls_1_rotated.json,http://54.235.29.9/FacialAge/BNav_EC2/DepthDuration/v2_depth_duration_MTurk/v2_DepthDuration_HTML.html#116,116,1364,768,1364,768,8-22-2022,4-59-58,114,depth_duration_stimuli/002425_2014-06-28_20-27-29_260595134347_rgbf000031-resize_8/002425_2014-06-28_20-27-29_260595134347_rgbf000031-resize_8-target.png,1000,3.8960000000000004,3,5851,1000,meters,jsons/v1_VE1000_randls_1_rotated.json,1591008,1836698,30,Man
114,866696,DepthScenes,duration_manipulation_targetAtFixation,jsons/v1_VE1000_randls_1_rotated.json,http://54.235.29.9/FacialAge/BNav_EC2/DepthDuration/v2_depth_duration_MTurk/v2_DepthDuration_HTML.html#116,116,1364,768,1364,768,8-22-2022,4-59-58,115,depth_duration_stimuli/000642_2014-06-08_16-59-25_260595134347_rgbf000098-resize_2/000642_2014-06-08_16-59-25_260595134347_rgbf000098-resize_2-target.png,1000,2.8815,3,4716,1000,meters,jsons/v1_VE1000_randls_1_rotated.json,1591008,1836698,30,Man
115,866696,DepthScenes,duration_manipulation_targetAtFixation,jsons/v1_VE1000_randls_1_rotated.json,http://54.235.29.9/FacialAge/BNav_EC2/DepthDuration/v2_depth_duration_MTurk/v2_DepthDuration_HTML.html#116,116,1364,768,1364,768,8-22-2022,4-59-58,116,depth_duration_stimuli/002657_2014-06-13_15-29-54_094959634447_rgbf000150-resize_1/002657_2014-06-13_15-29-54_094959634447_rgbf000150-resize_1-target.png,1000,4.919,2,4882,1001,meters,jsons/v1_VE1000_randls_1_rotated.json,1591008,1836698,30,Man
116,866696,DepthScenes,duration_manipulation_targetAtFixation,jsons/v1_VE1000_randls_1_rotated.json,http://54.235.29.9/FacialAge/BNav_EC2/DepthDuration/v2_depth_duration_MTurk/v2_DepthDuration_HTML.html#116,116,1364,768,1364,768,8-22-2022,4-59-58,117,depth_duration_stimuli/002375_2014-06-28_20-13-44_260595134347_rgbf000032-resize_1/002375_2014-06-28_20-13-44_260595134347_rgbf000032-resize_1-target.png,1000,4.0175,1,4062,1001,meters,jsons/v1_VE1000_randls_1_rotated.json,1591008,1836698,30,Man
117,866696,DepthScenes,duration_manipulation_targetAtFixation,jsons/v1_VE1000_randls_1_rotated.json,http://54.235.29.9/FacialAge/BNav_EC2/DepthDuration/v2_depth_duration_MTurk/v2_DepthDuration_HTML.html#116,116,1364,768,1364,768,8-22-2022,4-59-58,118,depth_duration_stimuli/000137_2014-05-20_17-04-49_260595134347_rgbf000120-resize_1/000137_2014-05-20_17-04-49_260595134347_rgbf000120-resize_1-target.png,1000,3.786,2,5634,1001,meters,jsons/v1_VE1000_randls_1_rotated.json,1591008,1836698,30,Man
118,866696,DepthScenes,duration_manipulation_targetAtFixation,jsons/v1_VE1000_randls_1_rotated.json,http://54.235.29.9/FacialAge/BNav_EC2/DepthDuration/v2_depth_duration_MTurk/v2_DepthDuration_HTML.html#116,116,1364,768,1364,768,8-22-2022,4-59-58,119,depth_duration_stimuli/000736_2014-06-08_18-24-15_260595134347_rgbf000206-resize_3/000736_2014-06-08_18-24-15_260595134347_rgbf000206-resize_3-target.png,1000,3.515,2,4060,1000,meters,jsons/v1_VE1000_randls_1_rotated.json,1591008,1836698,30,Man
119,866696,DepthScenes,duration_manipulation_targetAtFixation,jsons/v1_VE1000_randls_1_rotated.json,http://54.235.29.9/FacialAge/BNav_EC2/DepthDuration/v2_depth_duration_MTurk/v2_DepthDuration_HTML.html#116,116,1364,768,1364,768,8-22-2022,4-59-58,120,depth_duration_stimuli/000787_2014-06-08_22-33-53_260595134347_rgbf000175-resize_1/000787_2014-06-08_22-33-53_260595134347_rgbf000175-resize-original.jpg,1000,4.784,0,5680,1000,meters,jsons/v1_VE1000_randls_1_rotated.json,1591008,1836698,30,Man
120,866696,DepthScenes,duration_manipulation_targetAtFixation,jsons/v1_VE1000_randls_1_rotated.json,http://54.235.29.9/FacialAge/BNav_EC2/DepthDuration/v2_depth_duration_MTurk/v2_DepthDuration_HTML.html#116,116,1364,768,1364,768,8-22-2022,4-59-58,121,depth_duration_stimuli/000556_2014-06-09_22-42-56_260595134347_rgbf000214-resize_1/000556_2014-06-09_22-42-56_260595134347_rgbf000214-resize_1-target.png,1000,4.8415,1,5179,1000,meters,jsons/v1_VE1000_randls_1_rotated.json,1591008,1836698,30,Man
121,866696,DepthScenes,duration_manipulation_targetAtFixation,jsons/v1_VE1000_randls_1_rotated.json,http://54.235.29.9/FacialAge/BNav_EC2/DepthDuration/v2_depth_duration_MTurk/v2_DepthDuration_HTML.html#116,116,1364,768,1364,768,8-22-2022,4-59-58,122,depth_duration_stimuli/001158_2014-06-17_15-32-16_260595134347_rgbf000138-resize_2/001158_2014-06-17_15-32-16_260595134347_rgbf000138-resize_2-target.png,1000,4.5315,0,4108,1001,meters,jsons/v1_VE1000_randls_1_rotated.json,1591008,1836698,30,Man
122,866696,DepthScenes,duration_manipulation_targetAtFixation,jsons/v1_VE1000_randls_1_rotated.json,http://54.235.29.9/FacialAge/BNav_EC2/DepthDuration/v2_depth_duration_MTurk/v2_DepthDuration_HTML.html#116,116,1364,768,1364,768,8-22-2022,4-59-58,123,depth_duration_stimuli/001447_2014-06-19_17-00-32_260595134347_rgbf000082-resize_5/001447_2014-06-19_17-00-32_260595134347_rgbf000082-resize_5-target.png,1000,4.13775,3,6100,1000,meters,jsons/v1_VE1000_randls_1_rotated.json,1591008,1836698,30,Man
123,866696,DepthScenes,duration_manipulation_targetAtFixation,jsons/v1_VE1000_randls_1_rotated.json,http://54.235.29.9/FacialAge/BNav_EC2/DepthDuration/v2_depth_duration_MTurk/v2_DepthDuration_HTML.html#116,116,1364,768,1364,768,8-22-2022,4-59-58,124,depth_duration_stimuli/000447_2014-06-08_16-15-46_260595134347_rgbf000130-resize_1/000447_2014-06-08_16-15-46_260595134347_rgbf000130-resize_1-target.png,1000,4.479,3,4182,1001,meters,jsons/v1_VE1000_randls_1_rotated.json,1591008,1836698,30,Man
124,866696,DepthScenes,duration_manipulation_targetAtFixation,jsons/v1_VE1000_randls_1_rotated.json,http://54.235.29.9/FacialAge/BNav_EC2/DepthDuration/v2_depth_duration_MTurk/v2_DepthDuration_HTML.html#116,116,1364,768,1364,768,8-22-2022,4-59-58,125,depth_duration_stimuli/001136_2014-06-17_15-19-41_260595134347_rgbf000076-resize_3/001136_2014-06-17_15-19-41_260595134347_rgbf000076-resize_3-target.png,1000,1.8655,3,5574,1000,meters,jsons/v1_VE1000_randls_1_rotated.json,1591008,1836698,30,Man
125,866696,DepthScenes,duration_manipulation_targetAtFixation,jsons/v1_VE1000_randls_1_rotated.json,http://54.235.29.9/FacialAge/BNav_EC2/DepthDuration/v2_depth_duration_MTurk/v2_DepthDuration_HTML.html#116,116,1364,768,1364,768,8-22-2022,4-59-58,126,depth_duration_stimuli/001164_2014-06-17_15-35-46_260595134347_rgbf000085-resize_3/001164_2014-06-17_15-35-46_260595134347_rgbf000085-resize_3-target.png,1000,2.354,2,5173,999,meters,jsons/v1_VE1000_randls_1_rotated.json,1591008,1836698,30,Man
126,866696,DepthScenes,duration_manipulation_targetAtFixation,jsons/v1_VE1000_randls_1_rotated.json,http://54.235.29.9/FacialAge/BNav_EC2/DepthDuration/v2_depth_duration_MTurk/v2_DepthDuration_HTML.html#116,116,1364,768,1364,768,8-22-2022,4-59-58,127,depth_duration_stimuli/002467_2014-06-28_20-38-07_260595134347_rgbf000026-resize_2/002467_2014-06-28_20-38-07_260595134347_rgbf000026-resize_2-target.png,1000,4.742,2,8182,1000,meters,jsons/v1_VE1000_randls_1_rotated.json,1591008,1836698,30,Man
127,866696,DepthScenes,duration_manipulation_targetAtFixation,jsons/v1_VE1000_randls_1_rotated.json,http://54.235.29.9/FacialAge/BNav_EC2/DepthDuration/v2_depth_duration_MTurk/v2_DepthDuration_HTML.html#116,116,1364,768,1364,768,8-22-2022,4-59-58,128,depth_duration_stimuli/002570_2014-06-24_13-59-54_094959634447_rgbf000059-resize_0/002570_2014-06-24_13-59-54_094959634447_rgbf000059-resize_0-target.png,1000,4.037,3,5218,1002,meters,jsons/v1_VE1000_randls_1_rotated.json,1591008,1836698,30,Man
128,866696,DepthScenes,duration_manipulation_targetAtFixation,jsons/v1_VE1000_randls_1_rotated.json,http://54.235.29.9/FacialAge/BNav_EC2/DepthDuration/v2_depth_duration_MTurk/v2_DepthDuration_HTML.html#116,116,1364,768,1364,768,8-22-2022,4-59-58,129,depth_duration_stimuli/002136_2014-06-25_21-18-03_260595134347_rgbf000109-resize_3/002136_2014-06-25_21-18-03_260595134347_rgbf000109-resize_3-target.png,1000,1.9569999999999999,2,7332,1000,meters,jsons/v1_VE1000_randls_1_rotated.json,1591008,1836698,30,Man
129,866696,DepthScenes,duration_manipulation_targetAtFixation,jsons/v1_VE1000_randls_1_rotated.json,http://54.235.29.9/FacialAge/BNav_EC2/DepthDuration/v2_depth_duration_MTurk/v2_DepthDuration_HTML.html#116,116,1364,768,1364,768,8-22-2022,4-59-58,130,depth_duration_stimuli/002964_2014-06-08_17-46-11_094959634447_rgbf000091-resize_4/002964_2014-06-08_17-46-11_094959634447_rgbf000091-resize_4-target.png,1000,1.6909999999999998,2,4306,1001,meters,jsons/v1_VE1000_randls_1_rotated.json,1591008,1836698,30,Man
130,866696,DepthScenes,duration_manipulation_targetAtFixation,jsons/v1_VE1000_randls_1_rotated.json,http://54.235.29.9/FacialAge/BNav_EC2/DepthDuration/v2_depth_duration_MTurk/v2_DepthDuration_HTML.html#116,116,1364,768,1364,768,8-22-2022,4-59-58,131,depth_duration_stimuli/002444_2014-06-28_20-32-08_260595134347_rgbf000027-resize_0/002444_2014-06-28_20-32-08_260595134347_rgbf000027-resize_0-target.png,1000,4.388999999999999,2,7578,999,meters,jsons/v1_VE1000_randls_1_rotated.json,1591008,1836698,30,Man
131,866696,DepthScenes,duration_manipulation_targetAtFixation,jsons/v1_VE1000_randls_1_rotated.json,http://54.235.29.9/FacialAge/BNav_EC2/DepthDuration/v2_depth_duration_MTurk/v2_DepthDuration_HTML.html#116,116,1364,768,1364,768,8-22-2022,4-59-58,132,depth_duration_stimuli/000436_2014-06-09_22-25-11_260595134347_rgbf000137-resize_1/000436_2014-06-09_22-25-11_260595134347_rgbf000137-resize_1-target.png,1000,4.0705,3,4698,1001,meters,jsons/v1_VE1000_randls_1_rotated.json,1591008,1836698,30,Man
132,866696,DepthScenes,duration_manipulation_targetAtFixation,jsons/v1_VE1000_randls_1_rotated.json,http://54.235.29.9/FacialAge/BNav_EC2/DepthDuration/v2_depth_duration_MTurk/v2_DepthDuration_HTML.html#116,116,1364,768,1364,768,8-22-2022,4-59-58,133,depth_duration_stimuli/003228_2014-05-14_13-42-35_094959634447_rgbf000101-resize_1/003228_2014-05-14_13-42-35_094959634447_rgbf000101-resize_1-target.png,1000,1.9680000000000002,2,5813,1001,meters,jsons/v1_VE1000_randls_1_rotated.json,1591008,1836698,30,Man
133,866696,DepthScenes,duration_manipulation_targetAtFixation,jsons/v1_VE1000_randls_1_rotated.json,http://54.235.29.9/FacialAge/BNav_EC2/DepthDuration/v2_depth_duration_MTurk/v2_DepthDuration_HTML.html#116,116,1364,768,1364,768,8-22-2022,4-59-58,134,depth_duration_stimuli/002600_2014-06-24_14-27-04_094959634447_rgbf000074-resize_2/002600_2014-06-24_14-27-04_094959634447_rgbf000074-resize_2-target.png,1000,2.7575,1,4396,1000,meters,jsons/v1_VE1000_randls_1_rotated.json,1591008,1836698,30,Man
134,866696,DepthScenes,duration_manipulation_targetAtFixation,jsons/v1_VE1000_randls_1_rotated.json,http://54.235.29.9/FacialAge/BNav_EC2/DepthDuration/v2_depth_duration_MTurk/v2_DepthDuration_HTML.html#116,116,1364,768,1364,768,8-22-2022,4-59-58,135,depth_duration_stimuli/000375_2014-06-08_11-17-29_260595134347_rgbf000133-resize_2/000375_2014-06-08_11-17-29_260595134347_rgbf000133-resize-original.jpg,1000,4.718,0,5806,1001,meters,jsons/v1_VE1000_randls_1_rotated.json,1591008,1836698,30,Man
135,866696,DepthScenes,duration_manipulation_targetAtFixation,jsons/v1_VE1000_randls_1_rotated.json,http://54.235.29.9/FacialAge/BNav_EC2/DepthDuration/v2_depth_duration_MTurk/v2_DepthDuration_HTML.html#116,116,1364,768,1364,768,8-22-2022,4-59-58,136,depth_duration_stimuli/002995_2014-06-15_12-31-26_094959634447_rgbf000150-resize_1/002995_2014-06-15_12-31-26_094959634447_rgbf000150-resize_1-target.png,1000,3.8360000000000003,2,7859,1000,meters,jsons/v1_VE1000_randls_1_rotated.json,1591008,1836698,30,Man
136,866696,DepthScenes,duration_manipulation_targetAtFixation,jsons/v1_VE1000_randls_1_rotated.json,http://54.235.29.9/FacialAge/BNav_EC2/DepthDuration/v2_depth_duration_MTurk/v2_DepthDuration_HTML.html#116,116,1364,768,1364,768,8-22-2022,4-59-58,137,depth_duration_stimuli/002748_2014-06-22_19-07-22_094959634447_rgbf000078-resize_1/002748_2014-06-22_19-07-22_094959634447_rgbf000078-resize_1-target.png,1000,4.6705,2,6140,999,meters,jsons/v1_VE1000_randls_1_rotated.json,1591008,1836698,30,Man
137,866696,DepthScenes,duration_manipulation_targetAtFixation,jsons/v1_VE1000_randls_1_rotated.json,http://54.235.29.9/FacialAge/BNav_EC2/DepthDuration/v2_depth_duration_MTurk/v2_DepthDuration_HTML.html#116,116,1364,768,1364,768,8-22-2022,4-59-58,138,depth_duration_stimuli/001450_2014-06-19_17-02-03_260595134347_rgbf000203-resize_4/001450_2014-06-19_17-02-03_260595134347_rgbf000203-resize_4-target.png,1000,4.0106666666667,3,7931,1027,meters,jsons/v1_VE1000_randls_1_rotated.json,1591008,1836698,30,Man
138,866696,DepthScenes,duration_manipulation_targetAtFixation,jsons/v1_VE1000_randls_1_rotated.json,http://54.235.29.9/FacialAge/BNav_EC2/DepthDuration/v2_depth_duration_MTurk/v2_DepthDuration_HTML.html#116,116,1364,768,1364,768,8-22-2022,4-59-58,139,depth_duration_stimuli/001449_2014-06-19_17-01-27_260595134347_rgbf000116-resize_2/001449_2014-06-19_17-01-27_260595134347_rgbf000116-resize_2-target.png,1000,3.452,2,4824,1000,meters,jsons/v1_VE1000_randls_1_rotated.json,1591008,1836698,30,Man
139,866696,DepthScenes,duration_manipulation_targetAtFixation,jsons/v1_VE1000_randls_1_rotated.json,http://54.235.29.9/FacialAge/BNav_EC2/DepthDuration/v2_depth_duration_MTurk/v2_DepthDuration_HTML.html#116,116,1364,768,1364,768,8-22-2022,4-59-58,140,depth_duration_stimuli/000780_2014-06-08_22-28-29_260595134347_rgbf000126-resize_1/000780_2014-06-08_22-28-29_260595134347_rgbf000126-resize_1-target.png,1000,3.3825,3,8868,999,meters,jsons/v1_VE1000_randls_1_rotated.json,1591008,1836698,30,Man
140,866696,DepthScenes,duration_manipulation_targetAtFixation,jsons/v1_VE1000_randls_1_rotated.json,http://54.235.29.9/FacialAge/BNav_EC2/DepthDuration/v2_depth_duration_MTurk/v2_DepthDuration_HTML.html#116,116,1364,768,1364,768,8-22-2022,4-59-58,141,depth_duration_stimuli/002445_2014-06-28_20-32-16_260595134347_rgbf000029-resize_4/002445_2014-06-28_20-32-16_260595134347_rgbf000029-resize_4-target.png,1000,2.5315,2,4335,1000,meters,jsons/v1_VE1000_randls_1_rotated.json,1591008,1836698,30,Man
141,866696,DepthScenes,duration_manipulation_targetAtFixation,jsons/v1_VE1000_randls_1_rotated.json,http://54.235.29.9/FacialAge/BNav_EC2/DepthDuration/v2_depth_duration_MTurk/v2_DepthDuration_HTML.html#116,116,1364,768,1364,768,8-22-2022,4-59-58,142,depth_duration_stimuli/001214_2014-06-17_16-13-55_260595134347_rgbf000111-resize_0/001214_2014-06-17_16-13-55_260595134347_rgbf000111-resize_0-target.png,1000,2.6505,2,5650,1000,meters,jsons/v1_VE1000_randls_1_rotated.json,1591008,1836698,30,Man
142,866696,DepthScenes,duration_manipulation_targetAtFixation,jsons/v1_VE1000_randls_1_rotated.json,http://54.235.29.9/FacialAge/BNav_EC2/DepthDuration/v2_depth_duration_MTurk/v2_DepthDuration_HTML.html#116,116,1364,768,1364,768,8-22-2022,4-59-58,143,depth_duration_stimuli/000810_2014-06-08_17-20-01_260595134347_rgbf000105-resize_0/000810_2014-06-08_17-20-01_260595134347_rgbf000105-resize_0-target.png,1000,1.4865,1,6839,1000,meters,jsons/v1_VE1000_randls_1_rotated.json,1591008,1836698,30,Man
143,866696,DepthScenes,duration_manipulation_targetAtFixation,jsons/v1_VE1000_randls_1_rotated.json,http://54.235.29.9/FacialAge/BNav_EC2/DepthDuration/v2_depth_duration_MTurk/v2_DepthDuration_HTML.html#116,116,1364,768,1364,768,8-22-2022,4-59-58,144,depth_duration_stimuli/002953_2014-06-08_17-32-18_094959634447_rgbf000059-resize_5/002953_2014-06-08_17-32-18_094959634447_rgbf000059-resize_5-target.png,1000,1.551,2,6488,1000,meters,jsons/v1_VE1000_randls_1_rotated.json,1591008,1836698,30,Man
144,866696,DepthScenes,duration_manipulation_targetAtFixation,jsons/v1_VE1000_randls_1_rotated.json,http://54.235.29.9/FacialAge/BNav_EC2/DepthDuration/v2_depth_duration_MTurk/v2_DepthDuration_HTML.html#116,116,1364,768,1364,768,8-22-2022,4-59-58,145,depth_duration_stimuli/000878_2014-06-08_22-52-45_260595134347_rgbf000045-resize_2/000878_2014-06-08_22-52-45_260595134347_rgbf000045-resize_2-target.png,1000,2.092,3,4204,1000,meters,jsons/v1_VE1000_randls_1_rotated.json,1591008,1836698,30,Man
145,866696,DepthScenes,duration_manipulation_targetAtFixation,jsons/v1_VE1000_randls_1_rotated.json,http://54.235.29.9/FacialAge/BNav_EC2/DepthDuration/v2_depth_duration_MTurk/v2_DepthDuration_HTML.html#116,116,1364,768,1364,768,8-22-2022,4-59-58,146,depth_duration_stimuli/000749_2014-06-08_21-55-06_260595134347_rgbf000070-resize_2/000749_2014-06-08_21-55-06_260595134347_rgbf000070-resize_2-target.png,1000,2.331,2,6096,1000,meters,jsons/v1_VE1000_randls_1_rotated.json,1591008,1836698,30,Man
146,866696,DepthScenes,duration_manipulation_targetAtFixation,jsons/v1_VE1000_randls_1_rotated.json,http://54.235.29.9/FacialAge/BNav_EC2/DepthDuration/v2_depth_duration_MTurk/v2_DepthDuration_HTML.html#116,116,1364,768,1364,768,8-22-2022,4-59-58,147,depth_duration_stimuli/002788_2014-06-22_19-36-03_094959634447_rgbf000088-resize_2/002788_2014-06-22_19-36-03_094959634447_rgbf000088-resize_2-target.png,1000,1.6465,2,8100,1001,meters,jsons/v1_VE1000_randls_1_rotated.json,1591008,1836698,30,Man
147,866696,DepthScenes,duration_manipulation_targetAtFixation,jsons/v1_VE1000_randls_1_rotated.json,http://54.235.29.9/FacialAge/BNav_EC2/DepthDuration/v2_depth_duration_MTurk/v2_DepthDuration_HTML.html#116,116,1364,768,1364,768,8-22-2022,4-59-58,148,depth_duration_stimuli/002949_2014-06-26_15-57-42_094959634447_rgbf000079-resize_1/002949_2014-06-26_15-57-42_094959634447_rgbf000079-resize_1-target.png,1000,1.8915,3,7387,999,meters,jsons/v1_VE1000_randls_1_rotated.json,1591008,1836698,30,Man
148,866696,DepthScenes,duration_manipulation_targetAtFixation,jsons/v1_VE1000_randls_1_rotated.json,http://54.235.29.9/FacialAge/BNav_EC2/DepthDuration/v2_depth_duration_MTurk/v2_DepthDuration_HTML.html#116,116,1364,768,1364,768,8-22-2022,4-59-58,149,depth_duration_stimuli/000522_2014-06-08_13-35-06_260595134347_rgbf000244-resize_1/000522_2014-06-08_13-35-06_260595134347_rgbf000244-resize_1-target.png,1000,2.3715,2,5180,1000,meters,jsons/v1_VE1000_randls_1_rotated.json,1591008,1836698,30,Man
149,866696,DepthScenes,duration_manipulation_targetAtFixation,jsons/v1_VE1000_randls_1_rotated.json,http://54.235.29.9/FacialAge/BNav_EC2/DepthDuration/v2_depth_duration_MTurk/v2_DepthDuration_HTML.html#116,116,1364,768,1364,768,8-22-2022,4-59-58,150,depth_duration_stimuli/000665_2014-06-09_20-42-35_260595134347_rgbf000110-resize_1/000665_2014-06-09_20-42-35_260595134347_rgbf000110-resize_1-target.png,1000,3.057,2,5948,1001,meters,jsons/v1_VE1000_randls_1_rotated.json,1591008,1836698,30,Man
150,866696,DepthScenes,duration_manipulation_targetAtFixation,jsons/v1_VE1000_randls_1_rotated.json,http://54.235.29.9/FacialAge/BNav_EC2/DepthDuration/v2_depth_duration_MTurk/v2_DepthDuration_HTML.html#116,116,1364,768,1364,768,8-22-2022,4-59-58,151,depth_duration_stimuli/001150_2014-06-17_15-27-34_260595134347_rgbf000108-resize_2/001150_2014-06-17_15-27-34_260595134347_rgbf000108-resize_2-target.png,1000,4.0325,3,5281,1013,meters,jsons/v1_VE1000_randls_1_rotated.json,1591008,1836698,30,Man
151,866696,DepthScenes,duration_manipulation_targetAtFixation,jsons/v1_VE1000_randls_1_rotated.json,http://54.235.29.9/FacialAge/BNav_EC2/DepthDuration/v2_depth_duration_MTurk/v2_DepthDuration_HTML.html#116,116,1364,768,1364,768,8-22-2022,4-59-58,152,depth_duration_stimuli/000569_2014-06-09_22-51-47_260595134347_rgbf000141-resize_3/000569_2014-06-09_22-51-47_260595134347_rgbf000141-resize-original.jpg,1000,4.512,0,6326,999,meters,jsons/v1_VE1000_randls_1_rotated.json,1591008,1836698,30,Man
152,866696,DepthScenes,duration_manipulation_targetAtFixation,jsons/v1_VE1000_randls_1_rotated.json,http://54.235.29.9/FacialAge/BNav_EC2/DepthDuration/v2_depth_duration_MTurk/v2_DepthDuration_HTML.html#116,116,1364,768,1364,768,8-22-2022,4-59-58,153,depth_duration_stimuli/002344_2014-06-28_20-06-29_260595134347_rgbf000030-resize_1/002344_2014-06-28_20-06-29_260595134347_rgbf000030-resize_1-target.png,1000,1.5795,2,127140,1001,meters,jsons/v1_VE1000_randls_1_rotated.json,1591008,1836698,30,Man
153,866696,DepthScenes,duration_manipulation_targetAtFixation,jsons/v1_VE1000_randls_1_rotated.json,http://54.235.29.9/FacialAge/BNav_EC2/DepthDuration/v2_depth_duration_MTurk/v2_DepthDuration_HTML.html#116,116,1364,768,1364,768,8-22-2022,4-59-58,154,depth_duration_stimuli/002725_2014-06-22_11-47-51_094959634447_rgbf000070-resize_1/002725_2014-06-22_11-47-51_094959634447_rgbf000070-resize_1-target.png,1000,2.195,3,4259,1000,meters,jsons/v1_VE1000_randls_1_rotated.json,1591008,1836698,30,Man
154,866696,DepthScenes,duration_manipulation_targetAtFixation,jsons/v1_VE1000_randls_1_rotated.json,http://54.235.29.9/FacialAge/BNav_EC2/DepthDuration/v2_depth_duration_MTurk/v2_DepthDuration_HTML.html#116,116,1364,768,1364,768,8-22-2022,4-59-58,155,depth_duration_stimuli/000709_2014-06-08_13-51-55_260595134347_rgbf000068-resize_3/000709_2014-06-08_13-51-55_260595134347_rgbf000068-resize_3-target.png,1000,1.8030000000000002,3,4901,1001,meters,jsons/v1_VE1000_randls_1_rotated.json,1591008,1836698,30,Man
155,866696,DepthScenes,duration_manipulation_targetAtFixation,jsons/v1_VE1000_randls_1_rotated.json,http://54.235.29.9/FacialAge/BNav_EC2/DepthDuration/v2_depth_duration_MTurk/v2_DepthDuration_HTML.html#116,116,1364,768,1364,768,8-22-2022,4-59-58,156,depth_duration_stimuli/002057_2014-06-24_21-00-13_260595134347_rgbf000120-resize_1/002057_2014-06-24_21-00-13_260595134347_rgbf000120-resize_1-target.png,1000,2.967,3,6257,1001,meters,jsons/v1_VE1000_randls_1_rotated.json,1591008,1836698,30,Man
156,866696,DepthScenes,duration_manipulation_targetAtFixation,jsons/v1_VE1000_randls_1_rotated.json,http://54.235.29.9/FacialAge/BNav_EC2/DepthDuration/v2_depth_duration_MTurk/v2_DepthDuration_HTML.html#116,116,1364,768,1364,768,8-22-2022,4-59-58,157,depth_duration_stimuli/001235_2014-06-17_16-37-36_260595134347_rgbf000084-resize_4/001235_2014-06-17_16-37-36_260595134347_rgbf000084-resize_4-target.png,1000,3.6605,3,9179,998,meters,jsons/v1_VE1000_randls_1_rotated.json,1591008,1836698,30,Man
157,866696,DepthScenes,duration_manipulation_targetAtFixation,jsons/v1_VE1000_randls_1_rotated.json,http://54.235.29.9/FacialAge/BNav_EC2/DepthDuration/v2_depth_duration_MTurk/v2_DepthDuration_HTML.html#116,116,1364,768,1364,768,8-22-2022,4-59-58,158,depth_duration_stimuli/000788_2014-06-08_22-34-36_260595134347_rgbf000131-resize_1/000788_2014-06-08_22-34-36_260595134347_rgbf000131-resize_1-target.png,1000,3.359,2,5179,1001,meters,jsons/v1_VE1000_randls_1_rotated.json,1591008,1836698,30,Man
158,866696,DepthScenes,duration_manipulation_targetAtFixation,jsons/v1_VE1000_randls_1_rotated.json,http://54.235.29.9/FacialAge/BNav_EC2/DepthDuration/v2_depth_duration_MTurk/v2_DepthDuration_HTML.html#116,116,1364,768,1364,768,8-22-2022,4-59-58,159,depth_duration_stimuli/003079_2014-06-15_15-18-20_094959634447_rgbf000152-resize_8/003079_2014-06-15_15-18-20_094959634447_rgbf000152-resize_8-target.png,1000,2.8775,2,7423,1036,meters,jsons/v1_VE1000_randls_1_rotated.json,1591008,1836698,30,Man
159,866696,DepthScenes,duration_manipulation_targetAtFixation,jsons/v1_VE1000_randls_1_rotated.json,http://54.235.29.9/FacialAge/BNav_EC2/DepthDuration/v2_depth_duration_MTurk/v2_DepthDuration_HTML.html#116,116,1364,768,1364,768,8-22-2022,4-59-58,160,depth_duration_stimuli/000506_2014-06-08_23-21-00_260595134347_rgbf000070-resize_7/000506_2014-06-08_23-21-00_260595134347_rgbf000070-resize_7-target.png,1000,4.0585,3,30881,1000,meters,jsons/v1_VE1000_randls_1_rotated.json,1591008,1836698,30,Man
160,866696,DepthScenes,duration_manipulation_targetAtFixation,jsons/v1_VE1000_randls_1_rotated.json,http://54.235.29.9/FacialAge/BNav_EC2/DepthDuration/v2_depth_duration_MTurk/v2_DepthDuration_HTML.html#116,116,1364,768,1364,768,8-22-2022,4-59-58,161,depth_duration_stimuli/000483_2014-06-09_20-41-45_260595134347_rgbf000116-resize_4/000483_2014-06-09_20-41-45_260595134347_rgbf000116-resize_4-target.png,1000,1.337,2,7311,1001,meters,jsons/v1_VE1000_randls_1_rotated.json,1591008,1836698,30,Man
161,866696,DepthScenes,duration_manipulation_targetAtFixation,jsons/v1_VE1000_randls_1_rotated.json,http://54.235.29.9/FacialAge/BNav_EC2/DepthDuration/v2_depth_duration_MTurk/v2_DepthDuration_HTML.html#116,116,1364,768,1364,768,8-22-2022,4-59-58,162,depth_duration_stimuli/000469_2014-06-09_19-42-10_260595134347_rgbf000081-resize_1/000469_2014-06-09_19-42-10_260595134347_rgbf000081-resize_1-target.png,1000,1.652,3,5567,1001,meters,jsons/v1_VE1000_randls_1_rotated.json,1591008,1836698,30,Man
162,866696,DepthScenes,duration_manipulation_targetAtFixation,jsons/v1_VE1000_randls_1_rotated.json,http://54.235.29.9/FacialAge/BNav_EC2/DepthDuration/v2_depth_duration_MTurk/v2_DepthDuration_HTML.html#116,116,1364,768,1364,768,8-22-2022,4-59-58,163,depth_duration_stimuli/003048_2014-06-15_13-49-43_094959634447_rgbf000150-resize_1/003048_2014-06-15_13-49-43_094959634447_rgbf000150-resize_1-target.png,1000,4.0035,2,9462,1000,meters,jsons/v1_VE1000_randls_1_rotated.json,1591008,1836698,30,Man
163,866696,DepthScenes,duration_manipulation_targetAtFixation,jsons/v1_VE1000_randls_1_rotated.json,http://54.235.29.9/FacialAge/BNav_EC2/DepthDuration/v2_depth_duration_MTurk/v2_DepthDuration_HTML.html#116,116,1364,768,1364,768,8-22-2022,4-59-58,164,depth_duration_stimuli/002043_2014-06-24_20-29-38_260595134347_rgbf000039-resize_4/002043_2014-06-24_20-29-38_260595134347_rgbf000039-resize_4-target.png,1000,2.8435,2,4278,999,meters,jsons/v1_VE1000_randls_1_rotated.json,1591008,1836698,30,Man
