,subjID,experimentName,versionName,sequenceName,url,selected_row,windowWidth,windowHeight,screenWidth,screenHeight,startDate,startTime,trial,stimulus,duration,actual_depth,depth_estimate,trial_RT,log_sceneDuration,unitSelection,seq_filepath,experimentTime,totalTime,age,gender
0,867338,DepthScenes,duration_manipulation_targetAtFixation,jsons/VE125_randls_8_rotated.json,http://54.235.29.9/FacialAge/BNav_EC2/DepthDuration/v2_depth_duration_MTurk/v2_DepthDuration_HTML.html#218,218,1364,625,1364,768,8-30-2022,10-54-40,1,depth_duration_stimuli/001447_2014-06-19_17-00-32_260595134347_rgbf000082-resize_5/001447_2014-06-19_17-00-32_260595134347_rgbf000082-resize_5-target.png,125,4.13775,2,4619,124,meters,jsons/VE125_randls_8_rotated.json,1185867,1398203,32,Woman
1,867338,DepthScenes,duration_manipulation_targetAtFixation,jsons/VE125_randls_8_rotated.json,http://54.235.29.9/FacialAge/BNav_EC2/DepthDuration/v2_depth_duration_MTurk/v2_DepthDuration_HTML.html#218,218,1364,625,1364,768,8-30-2022,10-54-40,2,depth_duration_stimuli/000447_2014-06-08_16-15-46_260595134347_rgbf000130-resize_1/000447_2014-06-08_16-15-46_260595134347_rgbf000130-resize_1-target.png,125,4.479,1,3907,125,meters,jsons/VE125_randls_8_rotated.json,1185867,1398203,32,Woman
2,867338,DepthScenes,duration_manipulation_targetAtFixation,jsons/VE125_randls_8_rotated.json,http://54.235.29.9/FacialAge/BNav_EC2/DepthDuration/v2_depth_duration_MTurk/v2_DepthDuration_HTML.html#218,218,1364,625,1364,768,8-30-2022,10-54-40,3,depth_duration_stimuli/002136_2014-06-25_21-18-03_260595134347_rgbf000109-resize_3/002136_2014-06-25_21-18-03_260595134347_rgbf000109-resize_3-target.png,125,1.9569999999999999,0,4627,124,meters,jsons/VE125_randls_8_rotated.json,1185867,1398203,32,Woman
3,867338,DepthScenes,duration_manipulation_targetAtFixation,jsons/VE125_randls_8_rotated.json,http://54.235.29.9/FacialAge/BNav_EC2/DepthDuration/v2_depth_duration_MTurk/v2_DepthDuration_HTML.html#218,218,1364,625,1364,768,8-30-2022,10-54-40,4,depth_duration_stimuli/002964_2014-06-08_17-46-11_094959634447_rgbf000091-resize_4/002964_2014-06-08_17-46-11_094959634447_rgbf000091-resize_4-target.png,125,1.6909999999999998,2,4251,124,meters,jsons/VE125_randls_8_rotated.json,1185867,1398203,32,Woman
4,867338,DepthScenes,duration_manipulation_targetAtFixation,jsons/VE125_randls_8_rotated.json,http://54.235.29.9/FacialAge/BNav_EC2/DepthDuration/v2_depth_duration_MTurk/v2_DepthDuration_HTML.html#218,218,1364,625,1364,768,8-30-2022,10-54-40,5,depth_duration_stimuli/000109_2014-05-14_23-41-52_260595134347_rgbf000035-resize_9/000109_2014-05-14_23-41-52_260595134347_rgbf000035-resize_9-target.png,125,1.3545,1,4987,124,meters,jsons/VE125_randls_8_rotated.json,1185867,1398203,32,Woman
5,867338,DepthScenes,duration_manipulation_targetAtFixation,jsons/VE125_randls_8_rotated.json,http://54.235.29.9/FacialAge/BNav_EC2/DepthDuration/v2_depth_duration_MTurk/v2_DepthDuration_HTML.html#218,218,1364,625,1364,768,8-30-2022,10-54-40,6,depth_duration_stimuli/000470_2014-06-09_19-42-40_260595134347_rgbf000094-resize_1/000470_2014-06-09_19-42-40_260595134347_rgbf000094-resize_1-target.png,125,1.831,0,3675,123,meters,jsons/VE125_randls_8_rotated.json,1185867,1398203,32,Woman
6,867338,DepthScenes,duration_manipulation_targetAtFixation,jsons/VE125_randls_8_rotated.json,http://54.235.29.9/FacialAge/BNav_EC2/DepthDuration/v2_depth_duration_MTurk/v2_DepthDuration_HTML.html#218,218,1364,625,1364,768,8-30-2022,10-54-40,7,depth_duration_stimuli/002657_2014-06-13_15-29-54_094959634447_rgbf000150-resize_1/002657_2014-06-13_15-29-54_094959634447_rgbf000150-resize_1-target.png,125,4.919,2,5051,124,meters,jsons/VE125_randls_8_rotated.json,1185867,1398203,32,Woman
7,867338,DepthScenes,duration_manipulation_targetAtFixation,jsons/VE125_randls_8_rotated.json,http://54.235.29.9/FacialAge/BNav_EC2/DepthDuration/v2_depth_duration_MTurk/v2_DepthDuration_HTML.html#218,218,1364,625,1364,768,8-30-2022,10-54-40,8,depth_duration_stimuli/002375_2014-06-28_20-13-44_260595134347_rgbf000032-resize_1/002375_2014-06-28_20-13-44_260595134347_rgbf000032-resize_1-target.png,125,4.0175,1,3861,124,meters,jsons/VE125_randls_8_rotated.json,1185867,1398203,32,Woman
8,867338,DepthScenes,duration_manipulation_targetAtFixation,jsons/VE125_randls_8_rotated.json,http://54.235.29.9/FacialAge/BNav_EC2/DepthDuration/v2_depth_duration_MTurk/v2_DepthDuration_HTML.html#218,218,1364,625,1364,768,8-30-2022,10-54-40,9,depth_duration_stimuli/001617_2014-06-20_11-35-32_260595134347_rgbf000066-resize_1/001617_2014-06-20_11-35-32_260595134347_rgbf000066-resize_1-target.png,125,3.7910000000000004,0,3321,124,meters,jsons/VE125_randls_8_rotated.json,1185867,1398203,32,Woman
9,867338,DepthScenes,duration_manipulation_targetAtFixation,jsons/VE125_randls_8_rotated.json,http://54.235.29.9/FacialAge/BNav_EC2/DepthDuration/v2_depth_duration_MTurk/v2_DepthDuration_HTML.html#218,218,1364,625,1364,768,8-30-2022,10-54-40,10,depth_duration_stimuli/001806_2014-06-26_20-50-20_260595134347_rgbf000091-resize_1/001806_2014-06-26_20-50-20_260595134347_rgbf000091-resize_1-target.png,125,2.7305,2,3907,126,meters,jsons/VE125_randls_8_rotated.json,1185867,1398203,32,Woman
10,867338,DepthScenes,duration_manipulation_targetAtFixation,jsons/VE125_randls_8_rotated.json,http://54.235.29.9/FacialAge/BNav_EC2/DepthDuration/v2_depth_duration_MTurk/v2_DepthDuration_HTML.html#218,218,1364,625,1364,768,8-30-2022,10-54-40,11,depth_duration_stimuli/002344_2014-06-28_20-06-29_260595134347_rgbf000030-resize_1/002344_2014-06-28_20-06-29_260595134347_rgbf000030-resize_1-target.png,125,1.5795,1,6409,124,meters,jsons/VE125_randls_8_rotated.json,1185867,1398203,32,Woman
11,867338,DepthScenes,duration_manipulation_targetAtFixation,jsons/VE125_randls_8_rotated.json,http://54.235.29.9/FacialAge/BNav_EC2/DepthDuration/v2_depth_duration_MTurk/v2_DepthDuration_HTML.html#218,218,1364,625,1364,768,8-30-2022,10-54-40,12,depth_duration_stimuli/002725_2014-06-22_11-47-51_094959634447_rgbf000070-resize_1/002725_2014-06-22_11-47-51_094959634447_rgbf000070-resize_1-target.png,125,2.195,0,4163,125,meters,jsons/VE125_randls_8_rotated.json,1185867,1398203,32,Woman
12,867338,DepthScenes,duration_manipulation_targetAtFixation,jsons/VE125_randls_8_rotated.json,http://54.235.29.9/FacialAge/BNav_EC2/DepthDuration/v2_depth_duration_MTurk/v2_DepthDuration_HTML.html#218,218,1364,625,1364,768,8-30-2022,10-54-40,13,depth_duration_stimuli/002875_2014-06-01_15-19-00_094959634447_rgbf000151-resize_1/002875_2014-06-01_15-19-00_094959634447_rgbf000151-resize_1-target.png,125,1.9675,2,4507,116,meters,jsons/VE125_randls_8_rotated.json,1185867,1398203,32,Woman
13,867338,DepthScenes,duration_manipulation_targetAtFixation,jsons/VE125_randls_8_rotated.json,http://54.235.29.9/FacialAge/BNav_EC2/DepthDuration/v2_depth_duration_MTurk/v2_DepthDuration_HTML.html#218,218,1364,625,1364,768,8-30-2022,10-54-40,14,depth_duration_stimuli/001011_2014-06-08_23-18-54_260595134347_rgbf000044-resize_4/001011_2014-06-08_23-18-54_260595134347_rgbf000044-resize_4-target.png,125,2.4730000000000003,1,4057,124,meters,jsons/VE125_randls_8_rotated.json,1185867,1398203,32,Woman
14,867338,DepthScenes,duration_manipulation_targetAtFixation,jsons/VE125_randls_8_rotated.json,http://54.235.29.9/FacialAge/BNav_EC2/DepthDuration/v2_depth_duration_MTurk/v2_DepthDuration_HTML.html#218,218,1364,625,1364,768,8-30-2022,10-54-40,15,depth_duration_stimuli/001815_2014-06-26_20-52-55_260595134347_rgbf000020-resize_0/001815_2014-06-26_20-52-55_260595134347_rgbf000020-resize_0-target.png,125,3.3865,0,4100,125,meters,jsons/VE125_randls_8_rotated.json,1185867,1398203,32,Woman
15,867338,DepthScenes,duration_manipulation_targetAtFixation,jsons/VE125_randls_8_rotated.json,http://54.235.29.9/FacialAge/BNav_EC2/DepthDuration/v2_depth_duration_MTurk/v2_DepthDuration_HTML.html#218,218,1364,625,1364,768,8-30-2022,10-54-40,16,depth_duration_stimuli/001808_2014-06-26_20-50-58_260595134347_rgbf000029-resize_1/001808_2014-06-26_20-50-58_260595134347_rgbf000029-resize_1-target.png,125,4.249,2,4722,124,meters,jsons/VE125_randls_8_rotated.json,1185867,1398203,32,Woman
16,867338,DepthScenes,duration_manipulation_targetAtFixation,jsons/VE125_randls_8_rotated.json,http://54.235.29.9/FacialAge/BNav_EC2/DepthDuration/v2_depth_duration_MTurk/v2_DepthDuration_HTML.html#218,218,1364,625,1364,768,8-30-2022,10-54-40,17,depth_duration_stimuli/000549_2014-06-08_22-10-24_260595134347_rgbf000247-resize_3/000549_2014-06-08_22-10-24_260595134347_rgbf000247-resize_3-target.png,125,1.841,1,4731,123,meters,jsons/VE125_randls_8_rotated.json,1185867,1398203,32,Woman
17,867338,DepthScenes,duration_manipulation_targetAtFixation,jsons/VE125_randls_8_rotated.json,http://54.235.29.9/FacialAge/BNav_EC2/DepthDuration/v2_depth_duration_MTurk/v2_DepthDuration_HTML.html#218,218,1364,625,1364,768,8-30-2022,10-54-40,18,depth_duration_stimuli/001055_2014-06-08_18-45-35_260595134347_rgbf000111-resize_4/001055_2014-06-08_18-45-35_260595134347_rgbf000111-resize_4-target.png,125,2.4290000000000003,0,4267,124,meters,jsons/VE125_randls_8_rotated.json,1185867,1398203,32,Woman
18,867338,DepthScenes,duration_manipulation_targetAtFixation,jsons/VE125_randls_8_rotated.json,http://54.235.29.9/FacialAge/BNav_EC2/DepthDuration/v2_depth_duration_MTurk/v2_DepthDuration_HTML.html#218,218,1364,625,1364,768,8-30-2022,10-54-40,19,depth_duration_stimuli/001498_2014-06-19_17-45-14_260595134347_rgbf000129-resize_4/001498_2014-06-19_17-45-14_260595134347_rgbf000129-resize-original.jpg,125,1.4075,2,7795,123,meters,jsons/VE125_randls_8_rotated.json,1185867,1398203,32,Woman
19,867338,DepthScenes,duration_manipulation_targetAtFixation,jsons/VE125_randls_8_rotated.json,http://54.235.29.9/FacialAge/BNav_EC2/DepthDuration/v2_depth_duration_MTurk/v2_DepthDuration_HTML.html#218,218,1364,625,1364,768,8-30-2022,10-54-40,20,depth_duration_stimuli/002340_2014-06-28_20-05-46_260595134347_rgbf000113-resize_0/002340_2014-06-28_20-05-46_260595134347_rgbf000113-resize_0-target.png,125,2.4735,1,7155,123,meters,jsons/VE125_randls_8_rotated.json,1185867,1398203,32,Woman
20,867338,DepthScenes,duration_manipulation_targetAtFixation,jsons/VE125_randls_8_rotated.json,http://54.235.29.9/FacialAge/BNav_EC2/DepthDuration/v2_depth_duration_MTurk/v2_DepthDuration_HTML.html#218,218,1364,625,1364,768,8-30-2022,10-54-40,21,depth_duration_stimuli/001016_2014-06-09_16-16-10_260595134347_rgbf000112-resize_5/001016_2014-06-09_16-16-10_260595134347_rgbf000112-resize_5-target.png,125,1.6565,0,3851,125,meters,jsons/VE125_randls_8_rotated.json,1185867,1398203,32,Woman
21,867338,DepthScenes,duration_manipulation_targetAtFixation,jsons/VE125_randls_8_rotated.json,http://54.235.29.9/FacialAge/BNav_EC2/DepthDuration/v2_depth_duration_MTurk/v2_DepthDuration_HTML.html#218,218,1364,625,1364,768,8-30-2022,10-54-40,22,depth_duration_stimuli/002953_2014-06-08_17-32-18_094959634447_rgbf000059-resize_5/002953_2014-06-08_17-32-18_094959634447_rgbf000059-resize_5-target.png,125,1.551,2,4056,123,meters,jsons/VE125_randls_8_rotated.json,1185867,1398203,32,Woman
22,867338,DepthScenes,duration_manipulation_targetAtFixation,jsons/VE125_randls_8_rotated.json,http://54.235.29.9/FacialAge/BNav_EC2/DepthDuration/v2_depth_duration_MTurk/v2_DepthDuration_HTML.html#218,218,1364,625,1364,768,8-30-2022,10-54-40,23,depth_duration_stimuli/000878_2014-06-08_22-52-45_260595134347_rgbf000045-resize_2/000878_2014-06-08_22-52-45_260595134347_rgbf000045-resize_2-target.png,125,2.092,1,3828,124,meters,jsons/VE125_randls_8_rotated.json,1185867,1398203,32,Woman
23,867338,DepthScenes,duration_manipulation_targetAtFixation,jsons/VE125_randls_8_rotated.json,http://54.235.29.9/FacialAge/BNav_EC2/DepthDuration/v2_depth_duration_MTurk/v2_DepthDuration_HTML.html#218,218,1364,625,1364,768,8-30-2022,10-54-40,24,depth_duration_stimuli/002750_2014-06-22_19-08-03_094959634447_rgbf000094-resize_4/002750_2014-06-22_19-08-03_094959634447_rgbf000094-resize_4-target.png,125,2.354,0,4642,124,meters,jsons/VE125_randls_8_rotated.json,1185867,1398203,32,Woman
24,867338,DepthScenes,duration_manipulation_targetAtFixation,jsons/VE125_randls_8_rotated.json,http://54.235.29.9/FacialAge/BNav_EC2/DepthDuration/v2_depth_duration_MTurk/v2_DepthDuration_HTML.html#218,218,1364,625,1364,768,8-30-2022,10-54-40,25,depth_duration_stimuli/002549_2014-06-24_13-41-39_094959634447_rgbf000022-resize_3/002549_2014-06-24_13-41-39_094959634447_rgbf000022-resize_3-target.png,125,1.476,2,3682,123,meters,jsons/VE125_randls_8_rotated.json,1185867,1398203,32,Woman
25,867338,DepthScenes,duration_manipulation_targetAtFixation,jsons/VE125_randls_8_rotated.json,http://54.235.29.9/FacialAge/BNav_EC2/DepthDuration/v2_depth_duration_MTurk/v2_DepthDuration_HTML.html#218,218,1364,625,1364,768,8-30-2022,10-54-40,26,depth_duration_stimuli/000780_2014-06-08_22-28-29_260595134347_rgbf000126-resize_1/000780_2014-06-08_22-28-29_260595134347_rgbf000126-resize_1-target.png,125,3.3825,1,3986,123,meters,jsons/VE125_randls_8_rotated.json,1185867,1398203,32,Woman
26,867338,DepthScenes,duration_manipulation_targetAtFixation,jsons/VE125_randls_8_rotated.json,http://54.235.29.9/FacialAge/BNav_EC2/DepthDuration/v2_depth_duration_MTurk/v2_DepthDuration_HTML.html#218,218,1364,625,1364,768,8-30-2022,10-54-40,27,depth_duration_stimuli/002445_2014-06-28_20-32-16_260595134347_rgbf000029-resize_4/002445_2014-06-28_20-32-16_260595134347_rgbf000029-resize_4-target.png,125,2.5315,0,4012,125,meters,jsons/VE125_randls_8_rotated.json,1185867,1398203,32,Woman
27,867338,DepthScenes,duration_manipulation_targetAtFixation,jsons/VE125_randls_8_rotated.json,http://54.235.29.9/FacialAge/BNav_EC2/DepthDuration/v2_depth_duration_MTurk/v2_DepthDuration_HTML.html#218,218,1364,625,1364,768,8-30-2022,10-54-40,28,depth_duration_stimuli/003228_2014-05-14_13-42-35_094959634447_rgbf000101-resize_1/003228_2014-05-14_13-42-35_094959634447_rgbf000101-resize_1-target.png,125,1.9680000000000002,2,4067,124,meters,jsons/VE125_randls_8_rotated.json,1185867,1398203,32,Woman
28,867338,DepthScenes,duration_manipulation_targetAtFixation,jsons/VE125_randls_8_rotated.json,http://54.235.29.9/FacialAge/BNav_EC2/DepthDuration/v2_depth_duration_MTurk/v2_DepthDuration_HTML.html#218,218,1364,625,1364,768,8-30-2022,10-54-40,29,depth_duration_stimuli/002600_2014-06-24_14-27-04_094959634447_rgbf000074-resize_2/002600_2014-06-24_14-27-04_094959634447_rgbf000074-resize_2-target.png,125,2.7575,1,5402,124,meters,jsons/VE125_randls_8_rotated.json,1185867,1398203,32,Woman
29,867338,DepthScenes,duration_manipulation_targetAtFixation,jsons/VE125_randls_8_rotated.json,http://54.235.29.9/FacialAge/BNav_EC2/DepthDuration/v2_depth_duration_MTurk/v2_DepthDuration_HTML.html#218,218,1364,625,1364,768,8-30-2022,10-54-40,30,depth_duration_stimuli/002072_2014-06-24_21-48-06_260595134347_rgbf000115-resize_0/002072_2014-06-24_21-48-06_260595134347_rgbf000115-resize-original.jpg,125,4.702,0,4107,124,meters,jsons/VE125_randls_8_rotated.json,1185867,1398203,32,Woman
30,867338,DepthScenes,duration_manipulation_targetAtFixation,jsons/VE125_randls_8_rotated.json,http://54.235.29.9/FacialAge/BNav_EC2/DepthDuration/v2_depth_duration_MTurk/v2_DepthDuration_HTML.html#218,218,1364,625,1364,768,8-30-2022,10-54-40,31,depth_duration_stimuli/000709_2014-06-08_13-51-55_260595134347_rgbf000068-resize_3/000709_2014-06-08_13-51-55_260595134347_rgbf000068-resize_3-target.png,125,1.8030000000000002,2,4067,124,meters,jsons/VE125_randls_8_rotated.json,1185867,1398203,32,Woman
31,867338,DepthScenes,duration_manipulation_targetAtFixation,jsons/VE125_randls_8_rotated.json,http://54.235.29.9/FacialAge/BNav_EC2/DepthDuration/v2_depth_duration_MTurk/v2_DepthDuration_HTML.html#218,218,1364,625,1364,768,8-30-2022,10-54-40,32,depth_duration_stimuli/002057_2014-06-24_21-00-13_260595134347_rgbf000120-resize_1/002057_2014-06-24_21-00-13_260595134347_rgbf000120-resize_1-target.png,125,2.967,1,4258,124,meters,jsons/VE125_randls_8_rotated.json,1185867,1398203,32,Woman
32,867338,DepthScenes,duration_manipulation_targetAtFixation,jsons/VE125_randls_8_rotated.json,http://54.235.29.9/FacialAge/BNav_EC2/DepthDuration/v2_depth_duration_MTurk/v2_DepthDuration_HTML.html#218,218,1364,625,1364,768,8-30-2022,10-54-40,33,depth_duration_stimuli/000103_2014-05-14_22-01-17_260595134347_rgbf000152-resize_5/000103_2014-05-14_22-01-17_260595134347_rgbf000152-resize_5-target.png,125,1.993,0,5892,124,meters,jsons/VE125_randls_8_rotated.json,1185867,1398203,32,Woman
33,867338,DepthScenes,duration_manipulation_targetAtFixation,jsons/VE125_randls_8_rotated.json,http://54.235.29.9/FacialAge/BNav_EC2/DepthDuration/v2_depth_duration_MTurk/v2_DepthDuration_HTML.html#218,218,1364,625,1364,768,8-30-2022,10-54-40,34,depth_duration_stimuli/001555_2014-06-20_17-12-10_260595134347_rgbf000065-resize_4/001555_2014-06-20_17-12-10_260595134347_rgbf000065-resize_4-target.png,125,1.633,2,4897,124,meters,jsons/VE125_randls_8_rotated.json,1185867,1398203,32,Woman
34,867338,DepthScenes,duration_manipulation_targetAtFixation,jsons/VE125_randls_8_rotated.json,http://54.235.29.9/FacialAge/BNav_EC2/DepthDuration/v2_depth_duration_MTurk/v2_DepthDuration_HTML.html#218,218,1364,625,1364,768,8-30-2022,10-54-40,35,depth_duration_stimuli/001094_2014-06-15_17-36-00_260595134347_rgbf000205-resize_0/001094_2014-06-15_17-36-00_260595134347_rgbf000205-resize_0-target.png,125,4.2175,1,5282,123,meters,jsons/VE125_randls_8_rotated.json,1185867,1398203,32,Woman
35,867338,DepthScenes,duration_manipulation_targetAtFixation,jsons/VE125_randls_8_rotated.json,http://54.235.29.9/FacialAge/BNav_EC2/DepthDuration/v2_depth_duration_MTurk/v2_DepthDuration_HTML.html#218,218,1364,625,1364,768,8-30-2022,10-54-40,36,depth_duration_stimuli/000692_2014-06-08_13-09-42_260595134347_rgbf000199-resize_2/000692_2014-06-08_13-09-42_260595134347_rgbf000199-resize_2-target.png,125,3.661,0,4218,125,meters,jsons/VE125_randls_8_rotated.json,1185867,1398203,32,Woman
36,867338,DepthScenes,duration_manipulation_targetAtFixation,jsons/VE125_randls_8_rotated.json,http://54.235.29.9/FacialAge/BNav_EC2/DepthDuration/v2_depth_duration_MTurk/v2_DepthDuration_HTML.html#218,218,1364,625,1364,768,8-30-2022,10-54-40,37,depth_duration_stimuli/001052_2014-06-08_18-24-54_260595134347_rgbf000130-resize_1/001052_2014-06-08_18-24-54_260595134347_rgbf000130-resize_1-target.png,125,4.1045,2,9779,125,meters,jsons/VE125_randls_8_rotated.json,1185867,1398203,32,Woman
37,867338,DepthScenes,duration_manipulation_targetAtFixation,jsons/VE125_randls_8_rotated.json,http://54.235.29.9/FacialAge/BNav_EC2/DepthDuration/v2_depth_duration_MTurk/v2_DepthDuration_HTML.html#218,218,1364,625,1364,768,8-30-2022,10-54-40,38,depth_duration_stimuli/002988_2014-06-15_12-24-20_094959634447_rgbf000150-resize_1/002988_2014-06-15_12-24-20_094959634447_rgbf000150-resize_1-target.png,125,4.7669999999999995,1,4516,125,meters,jsons/VE125_randls_8_rotated.json,1185867,1398203,32,Woman
38,867338,DepthScenes,duration_manipulation_targetAtFixation,jsons/VE125_randls_8_rotated.json,http://54.235.29.9/FacialAge/BNav_EC2/DepthDuration/v2_depth_duration_MTurk/v2_DepthDuration_HTML.html#218,218,1364,625,1364,768,8-30-2022,10-54-40,39,depth_duration_stimuli/003048_2014-06-15_13-49-43_094959634447_rgbf000150-resize_1/003048_2014-06-15_13-49-43_094959634447_rgbf000150-resize_1-target.png,125,4.0035,0,6043,124,meters,jsons/VE125_randls_8_rotated.json,1185867,1398203,32,Woman
39,867338,DepthScenes,duration_manipulation_targetAtFixation,jsons/VE125_randls_8_rotated.json,http://54.235.29.9/FacialAge/BNav_EC2/DepthDuration/v2_depth_duration_MTurk/v2_DepthDuration_HTML.html#218,218,1364,625,1364,768,8-30-2022,10-54-40,40,depth_duration_stimuli/002043_2014-06-24_20-29-38_260595134347_rgbf000039-resize_4/002043_2014-06-24_20-29-38_260595134347_rgbf000039-resize_4-target.png,125,2.8435,2,5067,124,meters,jsons/VE125_randls_8_rotated.json,1185867,1398203,32,Woman
40,867338,DepthScenes,duration_manipulation_targetAtFixation,jsons/VE125_randls_8_rotated.json,http://54.235.29.9/FacialAge/BNav_EC2/DepthDuration/v2_depth_duration_MTurk/v2_DepthDuration_HTML.html#218,218,1364,625,1364,768,8-30-2022,10-54-40,41,depth_duration_stimuli/002467_2014-06-28_20-38-07_260595134347_rgbf000026-resize_2/002467_2014-06-28_20-38-07_260595134347_rgbf000026-resize_2-target.png,125,4.742,1,8042,124,meters,jsons/VE125_randls_8_rotated.json,1185867,1398203,32,Woman
41,867338,DepthScenes,duration_manipulation_targetAtFixation,jsons/VE125_randls_8_rotated.json,http://54.235.29.9/FacialAge/BNav_EC2/DepthDuration/v2_depth_duration_MTurk/v2_DepthDuration_HTML.html#218,218,1364,625,1364,768,8-30-2022,10-54-40,42,depth_duration_stimuli/002570_2014-06-24_13-59-54_094959634447_rgbf000059-resize_0/002570_2014-06-24_13-59-54_094959634447_rgbf000059-resize_0-target.png,125,4.037,0,3996,124,meters,jsons/VE125_randls_8_rotated.json,1185867,1398203,32,Woman
42,867338,DepthScenes,duration_manipulation_targetAtFixation,jsons/VE125_randls_8_rotated.json,http://54.235.29.9/FacialAge/BNav_EC2/DepthDuration/v2_depth_duration_MTurk/v2_DepthDuration_HTML.html#218,218,1364,625,1364,768,8-30-2022,10-54-40,43,depth_duration_stimuli/000691_2014-06-08_13-08-50_260595134347_rgbf000132-resize_3/000691_2014-06-08_13-08-50_260595134347_rgbf000132-resize_3-target.png,125,4.1530000000000005,2,5955,125,meters,jsons/VE125_randls_8_rotated.json,1185867,1398203,32,Woman
43,867338,DepthScenes,duration_manipulation_targetAtFixation,jsons/VE125_randls_8_rotated.json,http://54.235.29.9/FacialAge/BNav_EC2/DepthDuration/v2_depth_duration_MTurk/v2_DepthDuration_HTML.html#218,218,1364,625,1364,768,8-30-2022,10-54-40,44,depth_duration_stimuli/002213_2014-06-28_18-37-58_260595134347_rgbf000055-resize_1/002213_2014-06-28_18-37-58_260595134347_rgbf000055-resize_1-target.png,125,3.62,1,5226,124,meters,jsons/VE125_randls_8_rotated.json,1185867,1398203,32,Woman
44,867338,DepthScenes,duration_manipulation_targetAtFixation,jsons/VE125_randls_8_rotated.json,http://54.235.29.9/FacialAge/BNav_EC2/DepthDuration/v2_depth_duration_MTurk/v2_DepthDuration_HTML.html#218,218,1364,625,1364,768,8-30-2022,10-54-40,45,depth_duration_stimuli/001571_2014-06-20_17-21-32_260595134347_rgbf000089-resize_1/001571_2014-06-20_17-21-32_260595134347_rgbf000089-resize_1-target.png,125,1.86,0,4268,124,meters,jsons/VE125_randls_8_rotated.json,1185867,1398203,32,Woman
45,867338,DepthScenes,duration_manipulation_targetAtFixation,jsons/VE125_randls_8_rotated.json,http://54.235.29.9/FacialAge/BNav_EC2/DepthDuration/v2_depth_duration_MTurk/v2_DepthDuration_HTML.html#218,218,1364,625,1364,768,8-30-2022,10-54-40,46,depth_duration_stimuli/002272_2014-06-28_18-53-56_260595134347_rgbf000067-resize_2/002272_2014-06-28_18-53-56_260595134347_rgbf000067-resize_2-target.png,125,1.138,2,3978,124,meters,jsons/VE125_randls_8_rotated.json,1185867,1398203,32,Woman
46,867338,DepthScenes,duration_manipulation_targetAtFixation,jsons/VE125_randls_8_rotated.json,http://54.235.29.9/FacialAge/BNav_EC2/DepthDuration/v2_depth_duration_MTurk/v2_DepthDuration_HTML.html#218,218,1364,625,1364,768,8-30-2022,10-54-40,47,depth_duration_stimuli/002949_2014-06-26_15-57-42_094959634447_rgbf000079-resize_1/002949_2014-06-26_15-57-42_094959634447_rgbf000079-resize_1-target.png,125,1.8915,1,8083,123,meters,jsons/VE125_randls_8_rotated.json,1185867,1398203,32,Woman
47,867338,DepthScenes,duration_manipulation_targetAtFixation,jsons/VE125_randls_8_rotated.json,http://54.235.29.9/FacialAge/BNav_EC2/DepthDuration/v2_depth_duration_MTurk/v2_DepthDuration_HTML.html#218,218,1364,625,1364,768,8-30-2022,10-54-40,48,depth_duration_stimuli/000522_2014-06-08_13-35-06_260595134347_rgbf000244-resize_1/000522_2014-06-08_13-35-06_260595134347_rgbf000244-resize_1-target.png,125,2.3715,0,4803,124,meters,jsons/VE125_randls_8_rotated.json,1185867,1398203,32,Woman
48,867338,DepthScenes,duration_manipulation_targetAtFixation,jsons/VE125_randls_8_rotated.json,http://54.235.29.9/FacialAge/BNav_EC2/DepthDuration/v2_depth_duration_MTurk/v2_DepthDuration_HTML.html#218,218,1364,625,1364,768,8-30-2022,10-54-40,49,depth_duration_stimuli/001170_2014-06-17_15-43-44_260595134347_rgbf000096-resize_6/001170_2014-06-17_15-43-44_260595134347_rgbf000096-resize-original.jpg,125,1.1909999999999998,2,5340,124,meters,jsons/VE125_randls_8_rotated.json,1185867,1398203,32,Woman
49,867338,DepthScenes,duration_manipulation_targetAtFixation,jsons/VE125_randls_8_rotated.json,http://54.235.29.9/FacialAge/BNav_EC2/DepthDuration/v2_depth_duration_MTurk/v2_DepthDuration_HTML.html#218,218,1364,625,1364,768,8-30-2022,10-54-40,50,depth_duration_stimuli/002660_2014-06-13_15-44-18_094959634447_rgbf001878-resize_2/002660_2014-06-13_15-44-18_094959634447_rgbf001878-resize_2-target.png,125,3.576,1,5585,123,meters,jsons/VE125_randls_8_rotated.json,1185867,1398203,32,Woman
50,867338,DepthScenes,duration_manipulation_targetAtFixation,jsons/VE125_randls_8_rotated.json,http://54.235.29.9/FacialAge/BNav_EC2/DepthDuration/v2_depth_duration_MTurk/v2_DepthDuration_HTML.html#218,218,1364,625,1364,768,8-30-2022,10-54-40,51,depth_duration_stimuli/002153_2014-06-25_21-27-18_260595134347_rgbf000038-resize_5/002153_2014-06-25_21-27-18_260595134347_rgbf000038-resize_5-target.png,125,2.505,0,4299,125,meters,jsons/VE125_randls_8_rotated.json,1185867,1398203,32,Woman
51,867338,DepthScenes,duration_manipulation_targetAtFixation,jsons/VE125_randls_8_rotated.json,http://54.235.29.9/FacialAge/BNav_EC2/DepthDuration/v2_depth_duration_MTurk/v2_DepthDuration_HTML.html#218,218,1364,625,1364,768,8-30-2022,10-54-40,52,depth_duration_stimuli/000635_2014-06-08_16-38-42_260595134347_rgbf000106-resize_1/000635_2014-06-08_16-38-42_260595134347_rgbf000106-resize_1-target.png,125,2.074,2,5475,125,meters,jsons/VE125_randls_8_rotated.json,1185867,1398203,32,Woman
52,867338,DepthScenes,duration_manipulation_targetAtFixation,jsons/VE125_randls_8_rotated.json,http://54.235.29.9/FacialAge/BNav_EC2/DepthDuration/v2_depth_duration_MTurk/v2_DepthDuration_HTML.html#218,218,1364,625,1364,768,8-30-2022,10-54-40,53,depth_duration_stimuli/002279_2014-06-28_18-55-32_260595134347_rgbf000040-resize_5/002279_2014-06-28_18-55-32_260595134347_rgbf000040-resize_5-target.png,125,1.5043333333333,1,4907,125,meters,jsons/VE125_randls_8_rotated.json,1185867,1398203,32,Woman
53,867338,DepthScenes,duration_manipulation_targetAtFixation,jsons/VE125_randls_8_rotated.json,http://54.235.29.9/FacialAge/BNav_EC2/DepthDuration/v2_depth_duration_MTurk/v2_DepthDuration_HTML.html#218,218,1364,625,1364,768,8-30-2022,10-54-40,54,depth_duration_stimuli/003423_2014-05-21_10-23-26_094959634447_rgbf002665-resize_2/003423_2014-05-21_10-23-26_094959634447_rgbf002665-resize_2-target.png,125,3.2575,0,6587,125,meters,jsons/VE125_randls_8_rotated.json,1185867,1398203,32,Woman
54,867338,DepthScenes,duration_manipulation_targetAtFixation,jsons/VE125_randls_8_rotated.json,http://54.235.29.9/FacialAge/BNav_EC2/DepthDuration/v2_depth_duration_MTurk/v2_DepthDuration_HTML.html#218,218,1364,625,1364,768,8-30-2022,10-54-40,55,depth_duration_stimuli/002905_2014-06-03_18-04-43_094959634447_rgbf000151-resize_2/002905_2014-06-03_18-04-43_094959634447_rgbf000151-resize_2-target.png,125,2.0295,2,4867,124,meters,jsons/VE125_randls_8_rotated.json,1185867,1398203,32,Woman
55,867338,DepthScenes,duration_manipulation_targetAtFixation,jsons/VE125_randls_8_rotated.json,http://54.235.29.9/FacialAge/BNav_EC2/DepthDuration/v2_depth_duration_MTurk/v2_DepthDuration_HTML.html#218,218,1364,625,1364,768,8-30-2022,10-54-40,56,depth_duration_stimuli/000734_2014-06-08_17-39-11_260595134347_rgbf000128-resize_2/000734_2014-06-08_17-39-11_260595134347_rgbf000128-resize_2-target.png,125,4.098,1,7355,124,meters,jsons/VE125_randls_8_rotated.json,1185867,1398203,32,Woman
56,867338,DepthScenes,duration_manipulation_targetAtFixation,jsons/VE125_randls_8_rotated.json,http://54.235.29.9/FacialAge/BNav_EC2/DepthDuration/v2_depth_duration_MTurk/v2_DepthDuration_HTML.html#218,218,1364,625,1364,768,8-30-2022,10-54-40,57,depth_duration_stimuli/000739_2014-06-08_18-45-58_260595134347_rgbf000068-resize_1/000739_2014-06-08_18-45-58_260595134347_rgbf000068-resize_1-target.png,125,3.534,0,4651,124,meters,jsons/VE125_randls_8_rotated.json,1185867,1398203,32,Woman
57,867338,DepthScenes,duration_manipulation_targetAtFixation,jsons/VE125_randls_8_rotated.json,http://54.235.29.9/FacialAge/BNav_EC2/DepthDuration/v2_depth_duration_MTurk/v2_DepthDuration_HTML.html#218,218,1364,625,1364,768,8-30-2022,10-54-40,58,depth_duration_stimuli/003083_2014-06-15_15-21-03_094959634447_rgbf000063-resize_1/003083_2014-06-15_15-21-03_094959634447_rgbf000063-resize_1-target.png,125,4.1405,2,12571,124,meters,jsons/VE125_randls_8_rotated.json,1185867,1398203,32,Woman
58,867338,DepthScenes,duration_manipulation_targetAtFixation,jsons/VE125_randls_8_rotated.json,http://54.235.29.9/FacialAge/BNav_EC2/DepthDuration/v2_depth_duration_MTurk/v2_DepthDuration_HTML.html#218,218,1364,625,1364,768,8-30-2022,10-54-40,59,depth_duration_stimuli/000486_2014-06-09_20-47-20_260595134347_rgbf000143-resize_2/000486_2014-06-09_20-47-20_260595134347_rgbf000143-resize_2-target.png,125,4.8325,1,3979,124,meters,jsons/VE125_randls_8_rotated.json,1185867,1398203,32,Woman
59,867338,DepthScenes,duration_manipulation_targetAtFixation,jsons/VE125_randls_8_rotated.json,http://54.235.29.9/FacialAge/BNav_EC2/DepthDuration/v2_depth_duration_MTurk/v2_DepthDuration_HTML.html#218,218,1364,625,1364,768,8-30-2022,10-54-40,60,depth_duration_stimuli/002545_2014-06-24_13-38-53_094959634447_rgbf000080-resize_4/002545_2014-06-24_13-38-53_094959634447_rgbf000080-resize_4-target.png,125,1.9205,0,4059,124,meters,jsons/VE125_randls_8_rotated.json,1185867,1398203,32,Woman
60,867338,DepthScenes,duration_manipulation_targetAtFixation,jsons/VE125_randls_8_rotated.json,http://54.235.29.9/FacialAge/BNav_EC2/DepthDuration/v2_depth_duration_MTurk/v2_DepthDuration_HTML.html#218,218,1364,625,1364,768,8-30-2022,10-54-40,61,depth_duration_stimuli/001092_2014-06-15_17-34-58_260595134347_rgbf000171-resize_3/001092_2014-06-15_17-34-58_260595134347_rgbf000171-resize_3-target.png,125,2.6935,2,3730,124,meters,jsons/VE125_randls_8_rotated.json,1185867,1398203,32,Woman
61,867338,DepthScenes,duration_manipulation_targetAtFixation,jsons/VE125_randls_8_rotated.json,http://54.235.29.9/FacialAge/BNav_EC2/DepthDuration/v2_depth_duration_MTurk/v2_DepthDuration_HTML.html#218,218,1364,625,1364,768,8-30-2022,10-54-40,62,depth_duration_stimuli/002103_2014-06-25_20-00-40_260595134347_rgbf000049-resize_0/002103_2014-06-25_20-00-40_260595134347_rgbf000049-resize_0-target.png,125,4.105,1,3850,124,meters,jsons/VE125_randls_8_rotated.json,1185867,1398203,32,Woman
62,867338,DepthScenes,duration_manipulation_targetAtFixation,jsons/VE125_randls_8_rotated.json,http://54.235.29.9/FacialAge/BNav_EC2/DepthDuration/v2_depth_duration_MTurk/v2_DepthDuration_HTML.html#218,218,1364,625,1364,768,8-30-2022,10-54-40,63,depth_duration_stimuli/002039_2014-06-24_20-22-38_260595134347_rgbf000084-resize_1/002039_2014-06-24_20-22-38_260595134347_rgbf000084-resize_1-target.png,125,4.408,0,3929,124,meters,jsons/VE125_randls_8_rotated.json,1185867,1398203,32,Woman
63,867338,DepthScenes,duration_manipulation_targetAtFixation,jsons/VE125_randls_8_rotated.json,http://54.235.29.9/FacialAge/BNav_EC2/DepthDuration/v2_depth_duration_MTurk/v2_DepthDuration_HTML.html#218,218,1364,625,1364,768,8-30-2022,10-54-40,64,depth_duration_stimuli/001136_2014-06-17_15-19-41_260595134347_rgbf000076-resize_3/001136_2014-06-17_15-19-41_260595134347_rgbf000076-resize_3-target.png,125,1.8655,2,5633,123,meters,jsons/VE125_randls_8_rotated.json,1185867,1398203,32,Woman
64,867338,DepthScenes,duration_manipulation_targetAtFixation,jsons/VE125_randls_8_rotated.json,http://54.235.29.9/FacialAge/BNav_EC2/DepthDuration/v2_depth_duration_MTurk/v2_DepthDuration_HTML.html#218,218,1364,625,1364,768,8-30-2022,10-54-40,65,depth_duration_stimuli/001164_2014-06-17_15-35-46_260595134347_rgbf000085-resize_3/001164_2014-06-17_15-35-46_260595134347_rgbf000085-resize_3-target.png,125,2.354,1,4195,124,meters,jsons/VE125_randls_8_rotated.json,1185867,1398203,32,Woman
65,867338,DepthScenes,duration_manipulation_targetAtFixation,jsons/VE125_randls_8_rotated.json,http://54.235.29.9/FacialAge/BNav_EC2/DepthDuration/v2_depth_duration_MTurk/v2_DepthDuration_HTML.html#218,218,1364,625,1364,768,8-30-2022,10-54-40,66,depth_duration_stimuli/001540_2014-06-20_17-01-05_260595134347_rgbf000086-resize_2/001540_2014-06-20_17-01-05_260595134347_rgbf000086-resize-original.jpg,125,1.459,0,4420,125,meters,jsons/VE125_randls_8_rotated.json,1185867,1398203,32,Woman
66,867338,DepthScenes,duration_manipulation_targetAtFixation,jsons/VE125_randls_8_rotated.json,http://54.235.29.9/FacialAge/BNav_EC2/DepthDuration/v2_depth_duration_MTurk/v2_DepthDuration_HTML.html#218,218,1364,625,1364,768,8-30-2022,10-54-40,67,depth_duration_stimuli/000665_2014-06-09_20-42-35_260595134347_rgbf000110-resize_1/000665_2014-06-09_20-42-35_260595134347_rgbf000110-resize_1-target.png,125,3.057,2,6652,124,meters,jsons/VE125_randls_8_rotated.json,1185867,1398203,32,Woman
67,867338,DepthScenes,duration_manipulation_targetAtFixation,jsons/VE125_randls_8_rotated.json,http://54.235.29.9/FacialAge/BNav_EC2/DepthDuration/v2_depth_duration_MTurk/v2_DepthDuration_HTML.html#218,218,1364,625,1364,768,8-30-2022,10-54-40,68,depth_duration_stimuli/001150_2014-06-17_15-27-34_260595134347_rgbf000108-resize_2/001150_2014-06-17_15-27-34_260595134347_rgbf000108-resize_2-target.png,125,4.0325,1,6123,124,meters,jsons/VE125_randls_8_rotated.json,1185867,1398203,32,Woman
68,867338,DepthScenes,duration_manipulation_targetAtFixation,jsons/VE125_randls_8_rotated.json,http://54.235.29.9/FacialAge/BNav_EC2/DepthDuration/v2_depth_duration_MTurk/v2_DepthDuration_HTML.html#218,218,1364,625,1364,768,8-30-2022,10-54-40,69,depth_duration_stimuli/002425_2014-06-28_20-27-29_260595134347_rgbf000031-resize_8/002425_2014-06-28_20-27-29_260595134347_rgbf000031-resize_8-target.png,125,3.8960000000000004,0,4860,124,meters,jsons/VE125_randls_8_rotated.json,1185867,1398203,32,Woman
69,867338,DepthScenes,duration_manipulation_targetAtFixation,jsons/VE125_randls_8_rotated.json,http://54.235.29.9/FacialAge/BNav_EC2/DepthDuration/v2_depth_duration_MTurk/v2_DepthDuration_HTML.html#218,218,1364,625,1364,768,8-30-2022,10-54-40,70,depth_duration_stimuli/000642_2014-06-08_16-59-25_260595134347_rgbf000098-resize_2/000642_2014-06-08_16-59-25_260595134347_rgbf000098-resize_2-target.png,125,2.8815,2,4707,125,meters,jsons/VE125_randls_8_rotated.json,1185867,1398203,32,Woman
70,867338,DepthScenes,duration_manipulation_targetAtFixation,jsons/VE125_randls_8_rotated.json,http://54.235.29.9/FacialAge/BNav_EC2/DepthDuration/v2_depth_duration_MTurk/v2_DepthDuration_HTML.html#218,218,1364,625,1364,768,8-30-2022,10-54-40,71,depth_duration_stimuli/002323_2014-06-28_20-01-54_260595134347_rgbf000051-resize_4/002323_2014-06-28_20-01-54_260595134347_rgbf000051-resize_4-target.png,125,3.7310000000000003,1,4427,124,meters,jsons/VE125_randls_8_rotated.json,1185867,1398203,32,Woman
71,867338,DepthScenes,duration_manipulation_targetAtFixation,jsons/VE125_randls_8_rotated.json,http://54.235.29.9/FacialAge/BNav_EC2/DepthDuration/v2_depth_duration_MTurk/v2_DepthDuration_HTML.html#218,218,1364,625,1364,768,8-30-2022,10-54-40,72,depth_duration_stimuli/000917_2014-06-09_22-45-29_260595134347_rgbf000149-resize_3/000917_2014-06-09_22-45-29_260595134347_rgbf000149-resize_3-target.png,125,4.1865,0,3955,125,meters,jsons/VE125_randls_8_rotated.json,1185867,1398203,32,Woman
72,867338,DepthScenes,duration_manipulation_targetAtFixation,jsons/VE125_randls_8_rotated.json,http://54.235.29.9/FacialAge/BNav_EC2/DepthDuration/v2_depth_duration_MTurk/v2_DepthDuration_HTML.html#218,218,1364,625,1364,768,8-30-2022,10-54-40,73,depth_duration_stimuli/001516_2014-06-20_16-25-09_260595134347_rgbf000076-resize_2/001516_2014-06-20_16-25-09_260595134347_rgbf000076-resize_2-target.png,125,1.7445,2,5636,124,meters,jsons/VE125_randls_8_rotated.json,1185867,1398203,32,Woman
73,867338,DepthScenes,duration_manipulation_targetAtFixation,jsons/VE125_randls_8_rotated.json,http://54.235.29.9/FacialAge/BNav_EC2/DepthDuration/v2_depth_duration_MTurk/v2_DepthDuration_HTML.html#218,218,1364,625,1364,768,8-30-2022,10-54-40,74,depth_duration_stimuli/002118_2014-06-25_20-32-08_260595134347_rgbf000078-resize_1/002118_2014-06-25_20-32-08_260595134347_rgbf000078-resize_1-target.png,125,2.6460000000000004,1,4650,124,meters,jsons/VE125_randls_8_rotated.json,1185867,1398203,32,Woman
74,867338,DepthScenes,duration_manipulation_targetAtFixation,jsons/VE125_randls_8_rotated.json,http://54.235.29.9/FacialAge/BNav_EC2/DepthDuration/v2_depth_duration_MTurk/v2_DepthDuration_HTML.html#218,218,1364,625,1364,768,8-30-2022,10-54-40,75,depth_duration_stimuli/002637_2014-06-24_14-51-13_094959634447_rgbf000066-resize_4/002637_2014-06-24_14-51-13_094959634447_rgbf000066-resize_4-target.png,125,1.9955,0,3633,125,meters,jsons/VE125_randls_8_rotated.json,1185867,1398203,32,Woman
75,867338,DepthScenes,duration_manipulation_targetAtFixation,jsons/VE125_randls_8_rotated.json,http://54.235.29.9/FacialAge/BNav_EC2/DepthDuration/v2_depth_duration_MTurk/v2_DepthDuration_HTML.html#218,218,1364,625,1364,768,8-30-2022,10-54-40,76,depth_duration_stimuli/003534_2014-05-22_15-06-10_094959634447_rgbf000102-resize_4/003534_2014-05-22_15-06-10_094959634447_rgbf000102-resize_4-target.png,125,1.426,2,4186,123,meters,jsons/VE125_randls_8_rotated.json,1185867,1398203,32,Woman
76,867338,DepthScenes,duration_manipulation_targetAtFixation,jsons/VE125_randls_8_rotated.json,http://54.235.29.9/FacialAge/BNav_EC2/DepthDuration/v2_depth_duration_MTurk/v2_DepthDuration_HTML.html#218,218,1364,625,1364,768,8-30-2022,10-54-40,77,depth_duration_stimuli/000677_2014-06-08_23-10-32_260595134347_rgbf000158-resize_6/000677_2014-06-08_23-10-32_260595134347_rgbf000158-resize_6-target.png,125,3.556,1,3827,124,meters,jsons/VE125_randls_8_rotated.json,1185867,1398203,32,Woman
77,867338,DepthScenes,duration_manipulation_targetAtFixation,jsons/VE125_randls_8_rotated.json,http://54.235.29.9/FacialAge/BNav_EC2/DepthDuration/v2_depth_duration_MTurk/v2_DepthDuration_HTML.html#218,218,1364,625,1364,768,8-30-2022,10-54-40,78,depth_duration_stimuli/001029_2014-06-08_13-17-57_260595134347_rgbf000065-resize_1/001029_2014-06-08_13-17-57_260595134347_rgbf000065-resize_1-target.png,125,3.0835,0,3874,124,meters,jsons/VE125_randls_8_rotated.json,1185867,1398203,32,Woman
78,867338,DepthScenes,duration_manipulation_targetAtFixation,jsons/VE125_randls_8_rotated.json,http://54.235.29.9/FacialAge/BNav_EC2/DepthDuration/v2_depth_duration_MTurk/v2_DepthDuration_HTML.html#218,218,1364,625,1364,768,8-30-2022,10-54-40,79,depth_duration_stimuli/001828_2014-06-26_21-40-03_260595134347_rgbf000024-resize_0/001828_2014-06-26_21-40-03_260595134347_rgbf000024-resize_0-target.png,125,4.8260000000000005,2,4419,124,meters,jsons/VE125_randls_8_rotated.json,1185867,1398203,32,Woman
79,867338,DepthScenes,duration_manipulation_targetAtFixation,jsons/VE125_randls_8_rotated.json,http://54.235.29.9/FacialAge/BNav_EC2/DepthDuration/v2_depth_duration_MTurk/v2_DepthDuration_HTML.html#218,218,1364,625,1364,768,8-30-2022,10-54-40,80,depth_duration_stimuli/000009_2014-05-26_14-32-05_260595134347_rgbf000034-resize_3/000009_2014-05-26_14-32-05_260595134347_rgbf000034-resize_3-target.png,125,3.8715,1,3843,125,meters,jsons/VE125_randls_8_rotated.json,1185867,1398203,32,Woman
80,867338,DepthScenes,duration_manipulation_targetAtFixation,jsons/VE125_randls_8_rotated.json,http://54.235.29.9/FacialAge/BNav_EC2/DepthDuration/v2_depth_duration_MTurk/v2_DepthDuration_HTML.html#218,218,1364,625,1364,768,8-30-2022,10-54-40,81,depth_duration_stimuli/000854_2014-06-09_19-43-13_260595134347_rgbf000066-resize_0/000854_2014-06-09_19-43-13_260595134347_rgbf000066-resize_0-target.png,125,3.068,0,4851,123,meters,jsons/VE125_randls_8_rotated.json,1185867,1398203,32,Woman
81,867338,DepthScenes,duration_manipulation_targetAtFixation,jsons/VE125_randls_8_rotated.json,http://54.235.29.9/FacialAge/BNav_EC2/DepthDuration/v2_depth_duration_MTurk/v2_DepthDuration_HTML.html#218,218,1364,625,1364,768,8-30-2022,10-54-40,82,depth_duration_stimuli/000758_2014-06-08_22-05-08_260595134347_rgbf000085-resize_0/000758_2014-06-08_22-05-08_260595134347_rgbf000085-resize_0-target.png,125,3.3810000000000002,2,4195,125,meters,jsons/VE125_randls_8_rotated.json,1185867,1398203,32,Woman
82,867338,DepthScenes,duration_manipulation_targetAtFixation,jsons/VE125_randls_8_rotated.json,http://54.235.29.9/FacialAge/BNav_EC2/DepthDuration/v2_depth_duration_MTurk/v2_DepthDuration_HTML.html#218,218,1364,625,1364,768,8-30-2022,10-54-40,83,depth_duration_stimuli/002444_2014-06-28_20-32-08_260595134347_rgbf000027-resize_0/002444_2014-06-28_20-32-08_260595134347_rgbf000027-resize_0-target.png,125,4.388999999999999,1,5307,125,meters,jsons/VE125_randls_8_rotated.json,1185867,1398203,32,Woman
83,867338,DepthScenes,duration_manipulation_targetAtFixation,jsons/VE125_randls_8_rotated.json,http://54.235.29.9/FacialAge/BNav_EC2/DepthDuration/v2_depth_duration_MTurk/v2_DepthDuration_HTML.html#218,218,1364,625,1364,768,8-30-2022,10-54-40,84,depth_duration_stimuli/000436_2014-06-09_22-25-11_260595134347_rgbf000137-resize_1/000436_2014-06-09_22-25-11_260595134347_rgbf000137-resize_1-target.png,125,4.0705,0,5411,123,meters,jsons/VE125_randls_8_rotated.json,1185867,1398203,32,Woman
84,867338,DepthScenes,duration_manipulation_targetAtFixation,jsons/VE125_randls_8_rotated.json,http://54.235.29.9/FacialAge/BNav_EC2/DepthDuration/v2_depth_duration_MTurk/v2_DepthDuration_HTML.html#218,218,1364,625,1364,768,8-30-2022,10-54-40,85,depth_duration_stimuli/002995_2014-06-15_12-31-26_094959634447_rgbf000150-resize_1/002995_2014-06-15_12-31-26_094959634447_rgbf000150-resize_1-target.png,125,3.8360000000000003,2,5487,124,meters,jsons/VE125_randls_8_rotated.json,1185867,1398203,32,Woman
85,867338,DepthScenes,duration_manipulation_targetAtFixation,jsons/VE125_randls_8_rotated.json,http://54.235.29.9/FacialAge/BNav_EC2/DepthDuration/v2_depth_duration_MTurk/v2_DepthDuration_HTML.html#218,218,1364,625,1364,768,8-30-2022,10-54-40,86,depth_duration_stimuli/002748_2014-06-22_19-07-22_094959634447_rgbf000078-resize_1/002748_2014-06-22_19-07-22_094959634447_rgbf000078-resize_1-target.png,125,4.6705,1,11468,125,meters,jsons/VE125_randls_8_rotated.json,1185867,1398203,32,Woman
86,867338,DepthScenes,duration_manipulation_targetAtFixation,jsons/VE125_randls_8_rotated.json,http://54.235.29.9/FacialAge/BNav_EC2/DepthDuration/v2_depth_duration_MTurk/v2_DepthDuration_HTML.html#218,218,1364,625,1364,768,8-30-2022,10-54-40,87,depth_duration_stimuli/000556_2014-06-09_22-42-56_260595134347_rgbf000214-resize_1/000556_2014-06-09_22-42-56_260595134347_rgbf000214-resize_1-target.png,125,4.8415,0,4179,126,meters,jsons/VE125_randls_8_rotated.json,1185867,1398203,32,Woman
87,867338,DepthScenes,duration_manipulation_targetAtFixation,jsons/VE125_randls_8_rotated.json,http://54.235.29.9/FacialAge/BNav_EC2/DepthDuration/v2_depth_duration_MTurk/v2_DepthDuration_HTML.html#218,218,1364,625,1364,768,8-30-2022,10-54-40,88,depth_duration_stimuli/001158_2014-06-17_15-32-16_260595134347_rgbf000138-resize_2/001158_2014-06-17_15-32-16_260595134347_rgbf000138-resize_2-target.png,125,4.5315,3,3954,124,meters,jsons/VE125_randls_8_rotated.json,1185867,1398203,32,Woman
88,867338,DepthScenes,duration_manipulation_targetAtFixation,jsons/VE125_randls_8_rotated.json,http://54.235.29.9/FacialAge/BNav_EC2/DepthDuration/v2_depth_duration_MTurk/v2_DepthDuration_HTML.html#218,218,1364,625,1364,768,8-30-2022,10-54-40,89,depth_duration_stimuli/002199_2014-06-28_18-33-56_260595134347_rgbf000074-resize_0/002199_2014-06-28_18-33-56_260595134347_rgbf000074-resize_0-target.png,125,1.996,2,4180,124,meters,jsons/VE125_randls_8_rotated.json,1185867,1398203,32,Woman
89,867338,DepthScenes,duration_manipulation_targetAtFixation,jsons/VE125_randls_8_rotated.json,http://54.235.29.9/FacialAge/BNav_EC2/DepthDuration/v2_depth_duration_MTurk/v2_DepthDuration_HTML.html#218,218,1364,625,1364,768,8-30-2022,10-54-40,90,depth_duration_stimuli/001056_2014-06-08_18-46-44_260595134347_rgbf000068-resize_0/001056_2014-06-08_18-46-44_260595134347_rgbf000068-resize_0-target.png,125,2.6625,1,3994,124,meters,jsons/VE125_randls_8_rotated.json,1185867,1398203,32,Woman
90,867338,DepthScenes,duration_manipulation_targetAtFixation,jsons/VE125_randls_8_rotated.json,http://54.235.29.9/FacialAge/BNav_EC2/DepthDuration/v2_depth_duration_MTurk/v2_DepthDuration_HTML.html#218,218,1364,625,1364,768,8-30-2022,10-54-40,91,depth_duration_stimuli/000502_2014-06-08_23-02-32_260595134347_rgbf000063-resize_4/000502_2014-06-08_23-02-32_260595134347_rgbf000063-resize_4-target.png,125,2.431,2,9322,124,meters,jsons/VE125_randls_8_rotated.json,1185867,1398203,32,Woman
91,867338,DepthScenes,duration_manipulation_targetAtFixation,jsons/VE125_randls_8_rotated.json,http://54.235.29.9/FacialAge/BNav_EC2/DepthDuration/v2_depth_duration_MTurk/v2_DepthDuration_HTML.html#218,218,1364,625,1364,768,8-30-2022,10-54-40,92,depth_duration_stimuli/001199_2014-06-17_16-03-48_260595134347_rgbf000077-resize_0/001199_2014-06-17_16-03-48_260595134347_rgbf000077-resize_0-target.png,125,3.4375,3,8069,125,meters,jsons/VE125_randls_8_rotated.json,1185867,1398203,32,Woman
92,867338,DepthScenes,duration_manipulation_targetAtFixation,jsons/VE125_randls_8_rotated.json,http://54.235.29.9/FacialAge/BNav_EC2/DepthDuration/v2_depth_duration_MTurk/v2_DepthDuration_HTML.html#218,218,1364,625,1364,768,8-30-2022,10-54-40,93,depth_duration_stimuli/002805_2014-06-22_19-54-03_094959634447_rgbf000079-resize_1/002805_2014-06-22_19-54-03_094959634447_rgbf000079-resize_1-target.png,125,3.1439999999999997,2,5259,125,meters,jsons/VE125_randls_8_rotated.json,1185867,1398203,32,Woman
93,867338,DepthScenes,duration_manipulation_targetAtFixation,jsons/VE125_randls_8_rotated.json,http://54.235.29.9/FacialAge/BNav_EC2/DepthDuration/v2_depth_duration_MTurk/v2_DepthDuration_HTML.html#218,218,1364,625,1364,768,8-30-2022,10-54-40,94,depth_duration_stimuli/000906_2014-06-08_13-35-43_260595134347_rgbf000155-resize_1/000906_2014-06-08_13-35-43_260595134347_rgbf000155-resize_1-target.png,125,2.8489999999999998,1,4298,125,meters,jsons/VE125_randls_8_rotated.json,1185867,1398203,32,Woman
94,867338,DepthScenes,duration_manipulation_targetAtFixation,jsons/VE125_randls_8_rotated.json,http://54.235.29.9/FacialAge/BNav_EC2/DepthDuration/v2_depth_duration_MTurk/v2_DepthDuration_HTML.html#218,218,1364,625,1364,768,8-30-2022,10-54-40,95,depth_duration_stimuli/003587_2014-05-23_16-48-02_094959634447_rgbf002384-resize_2/003587_2014-05-23_16-48-02_094959634447_rgbf002384-resize_2-target.png,125,1.357,2,4421,124,meters,jsons/VE125_randls_8_rotated.json,1185867,1398203,32,Woman
95,867338,DepthScenes,duration_manipulation_targetAtFixation,jsons/VE125_randls_8_rotated.json,http://54.235.29.9/FacialAge/BNav_EC2/DepthDuration/v2_depth_duration_MTurk/v2_DepthDuration_HTML.html#218,218,1364,625,1364,768,8-30-2022,10-54-40,96,depth_duration_stimuli/001167_2014-06-17_15-38-07_260595134347_rgbf000108-resize_0/001167_2014-06-17_15-38-07_260595134347_rgbf000108-resize_0-target.png,125,1.8505,2,3986,124,meters,jsons/VE125_randls_8_rotated.json,1185867,1398203,32,Woman
96,867338,DepthScenes,duration_manipulation_targetAtFixation,jsons/VE125_randls_8_rotated.json,http://54.235.29.9/FacialAge/BNav_EC2/DepthDuration/v2_depth_duration_MTurk/v2_DepthDuration_HTML.html#218,218,1364,625,1364,768,8-30-2022,10-54-40,97,depth_duration_stimuli/001100_2014-06-15_17-46-26_260595134347_rgbf000225-resize_2/001100_2014-06-15_17-46-26_260595134347_rgbf000225-resize_2-target.png,125,2.24,1,10442,123,meters,jsons/VE125_randls_8_rotated.json,1185867,1398203,32,Woman
97,867338,DepthScenes,duration_manipulation_targetAtFixation,jsons/VE125_randls_8_rotated.json,http://54.235.29.9/FacialAge/BNav_EC2/DepthDuration/v2_depth_duration_MTurk/v2_DepthDuration_HTML.html#218,218,1364,625,1364,768,8-30-2022,10-54-40,98,depth_duration_stimuli/002784_2014-06-22_19-26-30_094959634447_rgbf000083-resize_3/002784_2014-06-22_19-26-30_094959634447_rgbf000083-resize_3-target.png,125,1.8046666666667,210,23867,124,meters,jsons/VE125_randls_8_rotated.json,1185867,1398203,32,Woman
98,867338,DepthScenes,duration_manipulation_targetAtFixation,jsons/VE125_randls_8_rotated.json,http://54.235.29.9/FacialAge/BNav_EC2/DepthDuration/v2_depth_duration_MTurk/v2_DepthDuration_HTML.html#218,218,1364,625,1364,768,8-30-2022,10-54-40,99,depth_duration_stimuli/001222_2014-06-17_16-24-06_260595134347_rgbf000073-resize_0/001222_2014-06-17_16-24-06_260595134347_rgbf000073-resize-original.jpg,125,1.4385,210,34466,126,meters,jsons/VE125_randls_8_rotated.json,1185867,1398203,32,Woman
99,867338,DepthScenes,duration_manipulation_targetAtFixation,jsons/VE125_randls_8_rotated.json,http://54.235.29.9/FacialAge/BNav_EC2/DepthDuration/v2_depth_duration_MTurk/v2_DepthDuration_HTML.html#218,218,1364,625,1364,768,8-30-2022,10-54-40,100,depth_duration_stimuli/000927_2014-06-09_16-32-30_260595134347_rgbf000123-resize_3/000927_2014-06-09_16-32-30_260595134347_rgbf000123-resize_3-target.png,125,2.6785,210,24460,125,meters,jsons/VE125_randls_8_rotated.json,1185867,1398203,32,Woman
100,867338,DepthScenes,duration_manipulation_targetAtFixation,jsons/VE125_randls_8_rotated.json,http://54.235.29.9/FacialAge/BNav_EC2/DepthDuration/v2_depth_duration_MTurk/v2_DepthDuration_HTML.html#218,218,1364,625,1364,768,8-30-2022,10-54-40,101,depth_duration_stimuli/001110_2014-06-15_17-25-28_260595134347_rgbf000150-resize_1/001110_2014-06-15_17-25-28_260595134347_rgbf000150-resize_1-target.png,125,1.7115,210,5980,125,meters,jsons/VE125_randls_8_rotated.json,1185867,1398203,32,Woman
101,867338,DepthScenes,duration_manipulation_targetAtFixation,jsons/VE125_randls_8_rotated.json,http://54.235.29.9/FacialAge/BNav_EC2/DepthDuration/v2_depth_duration_MTurk/v2_DepthDuration_HTML.html#218,218,1364,625,1364,768,8-30-2022,10-54-40,102,depth_duration_stimuli/003079_2014-06-15_15-18-20_094959634447_rgbf000152-resize_8/003079_2014-06-15_15-18-20_094959634447_rgbf000152-resize_8-target.png,125,2.8775,210,8580,124,meters,jsons/VE125_randls_8_rotated.json,1185867,1398203,32,Woman
102,867338,DepthScenes,duration_manipulation_targetAtFixation,jsons/VE125_randls_8_rotated.json,http://54.235.29.9/FacialAge/BNav_EC2/DepthDuration/v2_depth_duration_MTurk/v2_DepthDuration_HTML.html#218,218,1364,625,1364,768,8-30-2022,10-54-40,103,depth_duration_stimuli/000506_2014-06-08_23-21-00_260595134347_rgbf000070-resize_7/000506_2014-06-08_23-21-00_260595134347_rgbf000070-resize_7-target.png,125,4.0585,210,10915,124,meters,jsons/VE125_randls_8_rotated.json,1185867,1398203,32,Woman
103,867338,DepthScenes,duration_manipulation_targetAtFixation,jsons/VE125_randls_8_rotated.json,http://54.235.29.9/FacialAge/BNav_EC2/DepthDuration/v2_depth_duration_MTurk/v2_DepthDuration_HTML.html#218,218,1364,625,1364,768,8-30-2022,10-54-40,104,depth_duration_stimuli/001450_2014-06-19_17-02-03_260595134347_rgbf000203-resize_4/001450_2014-06-19_17-02-03_260595134347_rgbf000203-resize_4-target.png,125,4.0106666666667,210,6170,124,meters,jsons/VE125_randls_8_rotated.json,1185867,1398203,32,Woman
104,867338,DepthScenes,duration_manipulation_targetAtFixation,jsons/VE125_randls_8_rotated.json,http://54.235.29.9/FacialAge/BNav_EC2/DepthDuration/v2_depth_duration_MTurk/v2_DepthDuration_HTML.html#218,218,1364,625,1364,768,8-30-2022,10-54-40,105,depth_duration_stimuli/001449_2014-06-19_17-01-27_260595134347_rgbf000116-resize_2/001449_2014-06-19_17-01-27_260595134347_rgbf000116-resize_2-target.png,125,3.452,210,4876,125,meters,jsons/VE125_randls_8_rotated.json,1185867,1398203,32,Woman
105,867338,DepthScenes,duration_manipulation_targetAtFixation,jsons/VE125_randls_8_rotated.json,http://54.235.29.9/FacialAge/BNav_EC2/DepthDuration/v2_depth_duration_MTurk/v2_DepthDuration_HTML.html#218,218,1364,625,1364,768,8-30-2022,10-54-40,106,depth_duration_stimuli/002639_2014-06-24_14-51-37_094959634447_rgbf000074-resize_4/002639_2014-06-24_14-51-37_094959634447_rgbf000074-resize_4-target.png,125,4.0375,210,7052,126,meters,jsons/VE125_randls_8_rotated.json,1185867,1398203,32,Woman
106,867338,DepthScenes,duration_manipulation_targetAtFixation,jsons/VE125_randls_8_rotated.json,http://54.235.29.9/FacialAge/BNav_EC2/DepthDuration/v2_depth_duration_MTurk/v2_DepthDuration_HTML.html#218,218,1364,625,1364,768,8-30-2022,10-54-40,107,depth_duration_stimuli/003292_2014-05-14_21-53-49_094959634447_rgbf000100-resize_2/003292_2014-05-14_21-53-49_094959634447_rgbf000100-resize_2-target.png,125,3.4815,210,7739,124,meters,jsons/VE125_randls_8_rotated.json,1185867,1398203,32,Woman
107,867338,DepthScenes,duration_manipulation_targetAtFixation,jsons/VE125_randls_8_rotated.json,http://54.235.29.9/FacialAge/BNav_EC2/DepthDuration/v2_depth_duration_MTurk/v2_DepthDuration_HTML.html#218,218,1364,625,1364,768,8-30-2022,10-54-40,108,depth_duration_stimuli/000866_2014-06-09_20-45-42_260595134347_rgbf000139-resize_1/000866_2014-06-09_20-45-42_260595134347_rgbf000139-resize_1-target.png,125,3.2155,210,8250,125,meters,jsons/VE125_randls_8_rotated.json,1185867,1398203,32,Woman
108,867338,DepthScenes,duration_manipulation_targetAtFixation,jsons/VE125_randls_8_rotated.json,http://54.235.29.9/FacialAge/BNav_EC2/DepthDuration/v2_depth_duration_MTurk/v2_DepthDuration_HTML.html#218,218,1364,625,1364,768,8-30-2022,10-54-40,109,depth_duration_stimuli/002989_2014-06-15_12-25-03_094959634447_rgbf000150-resize_3/002989_2014-06-15_12-25-03_094959634447_rgbf000150-resize_3-target.png,125,4.1975,210,6418,124,meters,jsons/VE125_randls_8_rotated.json,1185867,1398203,32,Woman
109,867338,DepthScenes,duration_manipulation_targetAtFixation,jsons/VE125_randls_8_rotated.json,http://54.235.29.9/FacialAge/BNav_EC2/DepthDuration/v2_depth_duration_MTurk/v2_DepthDuration_HTML.html#218,218,1364,625,1364,768,8-30-2022,10-54-40,110,depth_duration_stimuli/001584_2014-06-20_11-07-43_260595134347_rgbf000002-resize_1/001584_2014-06-20_11-07-43_260595134347_rgbf000002-resize_1-target.png,125,3.53,2,8876,125,meters,jsons/VE125_randls_8_rotated.json,1185867,1398203,32,Woman
110,867338,DepthScenes,duration_manipulation_targetAtFixation,jsons/VE125_randls_8_rotated.json,http://54.235.29.9/FacialAge/BNav_EC2/DepthDuration/v2_depth_duration_MTurk/v2_DepthDuration_HTML.html#218,218,1364,625,1364,768,8-30-2022,10-54-40,111,depth_duration_stimuli/003621_2014-05-23_18-06-08_094959634447_rgbf000101-resize_1/003621_2014-05-23_18-06-08_094959634447_rgbf000101-resize_1-target.png,125,3.9835,1,4940,125,meters,jsons/VE125_randls_8_rotated.json,1185867,1398203,32,Woman
111,867338,DepthScenes,duration_manipulation_targetAtFixation,jsons/VE125_randls_8_rotated.json,http://54.235.29.9/FacialAge/BNav_EC2/DepthDuration/v2_depth_duration_MTurk/v2_DepthDuration_HTML.html#218,218,1364,625,1364,768,8-30-2022,10-54-40,112,depth_duration_stimuli/002678_2014-06-13_16-15-32_094959634447_rgbf000151-resize_6/002678_2014-06-13_16-15-32_094959634447_rgbf000151-resize_6-target.png,125,2.1830000000000003,0,5419,123,meters,jsons/VE125_randls_8_rotated.json,1185867,1398203,32,Woman
112,867338,DepthScenes,duration_manipulation_targetAtFixation,jsons/VE125_randls_8_rotated.json,http://54.235.29.9/FacialAge/BNav_EC2/DepthDuration/v2_depth_duration_MTurk/v2_DepthDuration_HTML.html#218,218,1364,625,1364,768,8-30-2022,10-54-40,113,depth_duration_stimuli/000368_2014-06-09_15-53-01_260595134347_rgbf000155-resize_2/000368_2014-06-09_15-53-01_260595134347_rgbf000155-resize_2-target.png,125,2.4859999999999998,2,15940,125,meters,jsons/VE125_randls_8_rotated.json,1185867,1398203,32,Woman
113,867338,DepthScenes,duration_manipulation_targetAtFixation,jsons/VE125_randls_8_rotated.json,http://54.235.29.9/FacialAge/BNav_EC2/DepthDuration/v2_depth_duration_MTurk/v2_DepthDuration_HTML.html#218,218,1364,625,1364,768,8-30-2022,10-54-40,114,depth_duration_stimuli/002568_2014-06-24_13-59-21_094959634447_rgbf000062-resize_4/002568_2014-06-24_13-59-21_094959634447_rgbf000062-resize_4-target.png,125,3.015,2,4347,131,meters,jsons/VE125_randls_8_rotated.json,1185867,1398203,32,Woman
114,867338,DepthScenes,duration_manipulation_targetAtFixation,jsons/VE125_randls_8_rotated.json,http://54.235.29.9/FacialAge/BNav_EC2/DepthDuration/v2_depth_duration_MTurk/v2_DepthDuration_HTML.html#218,218,1364,625,1364,768,8-30-2022,10-54-40,115,depth_duration_stimuli/003492_2014-05-21_15-50-55_094959634447_rgbf000828-resize_1/003492_2014-05-21_15-50-55_094959634447_rgbf000828-resize_1-target.png,125,4.06875,1,9532,125,meters,jsons/VE125_randls_8_rotated.json,1185867,1398203,32,Woman
115,867338,DepthScenes,duration_manipulation_targetAtFixation,jsons/VE125_randls_8_rotated.json,http://54.235.29.9/FacialAge/BNav_EC2/DepthDuration/v2_depth_duration_MTurk/v2_DepthDuration_HTML.html#218,218,1364,625,1364,768,8-30-2022,10-54-40,116,depth_duration_stimuli/003338_2014-05-20_11-01-23_094959634447_rgbf000051-resize_6/003338_2014-05-20_11-01-23_094959634447_rgbf000051-resize_6-target.png,125,1.693,2,4260,123,meters,jsons/VE125_randls_8_rotated.json,1185867,1398203,32,Woman
116,867338,DepthScenes,duration_manipulation_targetAtFixation,jsons/VE125_randls_8_rotated.json,http://54.235.29.9/FacialAge/BNav_EC2/DepthDuration/v2_depth_duration_MTurk/v2_DepthDuration_HTML.html#218,218,1364,625,1364,768,8-30-2022,10-54-40,117,depth_duration_stimuli/002509_2014-06-24_13-19-22_094959634447_rgbf000077-resize_0/002509_2014-06-24_13-19-22_094959634447_rgbf000077-resize_0-target.png,125,1.3065,1,4963,124,meters,jsons/VE125_randls_8_rotated.json,1185867,1398203,32,Woman
117,867338,DepthScenes,duration_manipulation_targetAtFixation,jsons/VE125_randls_8_rotated.json,http://54.235.29.9/FacialAge/BNav_EC2/DepthDuration/v2_depth_duration_MTurk/v2_DepthDuration_HTML.html#218,218,1364,625,1364,768,8-30-2022,10-54-40,118,depth_duration_stimuli/000749_2014-06-08_21-55-06_260595134347_rgbf000070-resize_2/000749_2014-06-08_21-55-06_260595134347_rgbf000070-resize_2-target.png,125,2.331,0,5141,125,meters,jsons/VE125_randls_8_rotated.json,1185867,1398203,32,Woman
118,867338,DepthScenes,duration_manipulation_targetAtFixation,jsons/VE125_randls_8_rotated.json,http://54.235.29.9/FacialAge/BNav_EC2/DepthDuration/v2_depth_duration_MTurk/v2_DepthDuration_HTML.html#218,218,1364,625,1364,768,8-30-2022,10-54-40,119,depth_duration_stimuli/002788_2014-06-22_19-36-03_094959634447_rgbf000088-resize_2/002788_2014-06-22_19-36-03_094959634447_rgbf000088-resize_2-target.png,125,1.6465,1,4579,123,meters,jsons/VE125_randls_8_rotated.json,1185867,1398203,32,Woman
119,867338,DepthScenes,duration_manipulation_targetAtFixation,jsons/VE125_randls_8_rotated.json,http://54.235.29.9/FacialAge/BNav_EC2/DepthDuration/v2_depth_duration_MTurk/v2_DepthDuration_HTML.html#218,218,1364,625,1364,768,8-30-2022,10-54-40,120,depth_duration_stimuli/000787_2014-06-08_22-33-53_260595134347_rgbf000175-resize_1/000787_2014-06-08_22-33-53_260595134347_rgbf000175-resize-original.jpg,125,4.784,1,4394,124,meters,jsons/VE125_randls_8_rotated.json,1185867,1398203,32,Woman
120,867338,DepthScenes,duration_manipulation_targetAtFixation,jsons/VE125_randls_8_rotated.json,http://54.235.29.9/FacialAge/BNav_EC2/DepthDuration/v2_depth_duration_MTurk/v2_DepthDuration_HTML.html#218,218,1364,625,1364,768,8-30-2022,10-54-40,121,depth_duration_stimuli/000409_2014-06-04_19-23-33_260595134347_rgbf000067-resize_0/000409_2014-06-04_19-23-33_260595134347_rgbf000067-resize_0-target.png,125,3.7335,1,32757,124,meters,jsons/VE125_randls_8_rotated.json,1185867,1398203,32,Woman
121,867338,DepthScenes,duration_manipulation_targetAtFixation,jsons/VE125_randls_8_rotated.json,http://54.235.29.9/FacialAge/BNav_EC2/DepthDuration/v2_depth_duration_MTurk/v2_DepthDuration_HTML.html#218,218,1364,625,1364,768,8-30-2022,10-54-40,122,depth_duration_stimuli/002663_2014-06-13_15-50-26_094959634447_rgbf000075-resize_1/002663_2014-06-13_15-50-26_094959634447_rgbf000075-resize_1-target.png,125,4.7495,1,14499,124,meters,jsons/VE125_randls_8_rotated.json,1185867,1398203,32,Woman
122,867338,DepthScenes,duration_manipulation_targetAtFixation,jsons/VE125_randls_8_rotated.json,http://54.235.29.9/FacialAge/BNav_EC2/DepthDuration/v2_depth_duration_MTurk/v2_DepthDuration_HTML.html#218,218,1364,625,1364,768,8-30-2022,10-54-40,123,depth_duration_stimuli/002414_2014-06-28_20-24-58_260595134347_rgbf000067-resize_4/002414_2014-06-28_20-24-58_260595134347_rgbf000067-resize_4-target.png,125,4.363,3,6171,124,meters,jsons/VE125_randls_8_rotated.json,1185867,1398203,32,Woman
123,867338,DepthScenes,duration_manipulation_targetAtFixation,jsons/VE125_randls_8_rotated.json,http://54.235.29.9/FacialAge/BNav_EC2/DepthDuration/v2_depth_duration_MTurk/v2_DepthDuration_HTML.html#218,218,1364,625,1364,768,8-30-2022,10-54-40,124,depth_duration_stimuli/000773_2014-06-08_22-24-54_260595134347_rgbf000093-resize_1/000773_2014-06-08_22-24-54_260595134347_rgbf000093-resize_1-target.png,125,4.973,1,21793,124,meters,jsons/VE125_randls_8_rotated.json,1185867,1398203,32,Woman
124,867338,DepthScenes,duration_manipulation_targetAtFixation,jsons/VE125_randls_8_rotated.json,http://54.235.29.9/FacialAge/BNav_EC2/DepthDuration/v2_depth_duration_MTurk/v2_DepthDuration_HTML.html#218,218,1364,625,1364,768,8-30-2022,10-54-40,125,depth_duration_stimuli/000742_2014-06-08_18-48-09_260595134347_rgbf000164-resize_4/000742_2014-06-08_18-48-09_260595134347_rgbf000164-resize_4-target.png,125,4.632,2,4378,123,meters,jsons/VE125_randls_8_rotated.json,1185867,1398203,32,Woman
125,867338,DepthScenes,duration_manipulation_targetAtFixation,jsons/VE125_randls_8_rotated.json,http://54.235.29.9/FacialAge/BNav_EC2/DepthDuration/v2_depth_duration_MTurk/v2_DepthDuration_HTML.html#218,218,1364,625,1364,768,8-30-2022,10-54-40,126,depth_duration_stimuli/001066_2014-06-08_22-03-20_260595134347_rgbf000066-resize_4/001066_2014-06-08_22-03-20_260595134347_rgbf000066-resize_4-target.png,125,4.2330000000000005,1,4531,124,meters,jsons/VE125_randls_8_rotated.json,1185867,1398203,32,Woman
126,867338,DepthScenes,duration_manipulation_targetAtFixation,jsons/VE125_randls_8_rotated.json,http://54.235.29.9/FacialAge/BNav_EC2/DepthDuration/v2_depth_duration_MTurk/v2_DepthDuration_HTML.html#218,218,1364,625,1364,768,8-30-2022,10-54-40,127,depth_duration_stimuli/000457_2014-06-08_16-52-43_260595134347_rgbf000199-resize_1/000457_2014-06-08_16-52-43_260595134347_rgbf000199-resize_1-target.png,125,3.6489999999999996,0,9507,123,meters,jsons/VE125_randls_8_rotated.json,1185867,1398203,32,Woman
127,867338,DepthScenes,duration_manipulation_targetAtFixation,jsons/VE125_randls_8_rotated.json,http://54.235.29.9/FacialAge/BNav_EC2/DepthDuration/v2_depth_duration_MTurk/v2_DepthDuration_HTML.html#218,218,1364,625,1364,768,8-30-2022,10-54-40,128,depth_duration_stimuli/000929_2014-06-09_16-33-19_260595134347_rgbf000139-resize_0/000929_2014-06-09_16-33-19_260595134347_rgbf000139-resize_0-target.png,125,2.8680000000000003,1,4707,125,meters,jsons/VE125_randls_8_rotated.json,1185867,1398203,32,Woman
128,867338,DepthScenes,duration_manipulation_targetAtFixation,jsons/VE125_randls_8_rotated.json,http://54.235.29.9/FacialAge/BNav_EC2/DepthDuration/v2_depth_duration_MTurk/v2_DepthDuration_HTML.html#218,218,1364,625,1364,768,8-30-2022,10-54-40,129,depth_duration_stimuli/003081_2014-06-15_15-19-16_094959634447_rgbf000150-resize_1/003081_2014-06-15_15-19-16_094959634447_rgbf000150-resize_1-target.png,125,3.9125,3,6307,125,meters,jsons/VE125_randls_8_rotated.json,1185867,1398203,32,Woman
129,867338,DepthScenes,duration_manipulation_targetAtFixation,jsons/VE125_randls_8_rotated.json,http://54.235.29.9/FacialAge/BNav_EC2/DepthDuration/v2_depth_duration_MTurk/v2_DepthDuration_HTML.html#218,218,1364,625,1364,768,8-30-2022,10-54-40,130,depth_duration_stimuli/001417_2014-06-19_16-25-36_260595134347_rgbf000115-resize_5/001417_2014-06-19_16-25-36_260595134347_rgbf000115-resize_5-target.png,125,4.6255,0,8058,124,meters,jsons/VE125_randls_8_rotated.json,1185867,1398203,32,Woman
130,867338,DepthScenes,duration_manipulation_targetAtFixation,jsons/VE125_randls_8_rotated.json,http://54.235.29.9/FacialAge/BNav_EC2/DepthDuration/v2_depth_duration_MTurk/v2_DepthDuration_HTML.html#218,218,1364,625,1364,768,8-30-2022,10-54-40,131,depth_duration_stimuli/003129_2014-05-12_10-48-10_094959634447_rgbf000100-resize_0/003129_2014-05-12_10-48-10_094959634447_rgbf000100-resize_0-target.png,125,4.9305,1,28219,124,meters,jsons/VE125_randls_8_rotated.json,1185867,1398203,32,Woman
131,867338,DepthScenes,duration_manipulation_targetAtFixation,jsons/VE125_randls_8_rotated.json,http://54.235.29.9/FacialAge/BNav_EC2/DepthDuration/v2_depth_duration_MTurk/v2_DepthDuration_HTML.html#218,218,1364,625,1364,768,8-30-2022,10-54-40,132,depth_duration_stimuli/000414_2014-06-04_19-49-13_260595134347_rgbf000044-resize_0/000414_2014-06-04_19-49-13_260595134347_rgbf000044-resize_0-target.png,125,4.329,1,29325,124,meters,jsons/VE125_randls_8_rotated.json,1185867,1398203,32,Woman
132,867338,DepthScenes,duration_manipulation_targetAtFixation,jsons/VE125_randls_8_rotated.json,http://54.235.29.9/FacialAge/BNav_EC2/DepthDuration/v2_depth_duration_MTurk/v2_DepthDuration_HTML.html#218,218,1364,625,1364,768,8-30-2022,10-54-40,133,depth_duration_stimuli/001392_2014-06-19_16-07-59_260595134347_rgbf000046-resize_1/001392_2014-06-19_16-07-59_260595134347_rgbf000046-resize_1-target.png,125,4.135,1,3897,125,meters,jsons/VE125_randls_8_rotated.json,1185867,1398203,32,Woman
133,867338,DepthScenes,duration_manipulation_targetAtFixation,jsons/VE125_randls_8_rotated.json,http://54.235.29.9/FacialAge/BNav_EC2/DepthDuration/v2_depth_duration_MTurk/v2_DepthDuration_HTML.html#218,218,1364,625,1364,768,8-30-2022,10-54-40,134,depth_duration_stimuli/001570_2014-06-20_17-21-09_260595134347_rgbf000135-resize_4/001570_2014-06-20_17-21-09_260595134347_rgbf000135-resize_4-target.png,125,4.467,10,4379,123,meters,jsons/VE125_randls_8_rotated.json,1185867,1398203,32,Woman
134,867338,DepthScenes,duration_manipulation_targetAtFixation,jsons/VE125_randls_8_rotated.json,http://54.235.29.9/FacialAge/BNav_EC2/DepthDuration/v2_depth_duration_MTurk/v2_DepthDuration_HTML.html#218,218,1364,625,1364,768,8-30-2022,10-54-40,135,depth_duration_stimuli/000375_2014-06-08_11-17-29_260595134347_rgbf000133-resize_2/000375_2014-06-08_11-17-29_260595134347_rgbf000133-resize-original.jpg,125,4.718,1,8042,124,meters,jsons/VE125_randls_8_rotated.json,1185867,1398203,32,Woman
135,867338,DepthScenes,duration_manipulation_targetAtFixation,jsons/VE125_randls_8_rotated.json,http://54.235.29.9/FacialAge/BNav_EC2/DepthDuration/v2_depth_duration_MTurk/v2_DepthDuration_HTML.html#218,218,1364,625,1364,768,8-30-2022,10-54-40,136,depth_duration_stimuli/002209_2014-06-28_18-36-10_260595134347_rgbf000051-resize_1/002209_2014-06-28_18-36-10_260595134347_rgbf000051-resize_1-target.png,125,2.057,0,5059,125,meters,jsons/VE125_randls_8_rotated.json,1185867,1398203,32,Woman
136,867338,DepthScenes,duration_manipulation_targetAtFixation,jsons/VE125_randls_8_rotated.json,http://54.235.29.9/FacialAge/BNav_EC2/DepthDuration/v2_depth_duration_MTurk/v2_DepthDuration_HTML.html#218,218,1364,625,1364,768,8-30-2022,10-54-40,137,depth_duration_stimuli/002763_2014-06-22_19-13-10_094959634447_rgbf000075-resize_4/002763_2014-06-22_19-13-10_094959634447_rgbf000075-resize_4-target.png,125,1.68375,1,5891,124,meters,jsons/VE125_randls_8_rotated.json,1185867,1398203,32,Woman
137,867338,DepthScenes,duration_manipulation_targetAtFixation,jsons/VE125_randls_8_rotated.json,http://54.235.29.9/FacialAge/BNav_EC2/DepthDuration/v2_depth_duration_MTurk/v2_DepthDuration_HTML.html#218,218,1364,625,1364,768,8-30-2022,10-54-40,138,depth_duration_stimuli/003495_2014-05-21_16-01-51_094959634447_rgbf000100-resize_3/003495_2014-05-21_16-01-51_094959634447_rgbf000100-resize_3-target.png,125,1.6255,1,4194,125,meters,jsons/VE125_randls_8_rotated.json,1185867,1398203,32,Woman
138,867338,DepthScenes,duration_manipulation_targetAtFixation,jsons/VE125_randls_8_rotated.json,http://54.235.29.9/FacialAge/BNav_EC2/DepthDuration/v2_depth_duration_MTurk/v2_DepthDuration_HTML.html#218,218,1364,625,1364,768,8-30-2022,10-54-40,139,depth_duration_stimuli/001244_2014-06-17_16-47-45_260595134347_rgbf000030-resize_4/001244_2014-06-17_16-47-45_260595134347_rgbf000030-resize_4-target.png,125,2.0425,1,7467,124,meters,jsons/VE125_randls_8_rotated.json,1185867,1398203,32,Woman
139,867338,DepthScenes,duration_manipulation_targetAtFixation,jsons/VE125_randls_8_rotated.json,http://54.235.29.9/FacialAge/BNav_EC2/DepthDuration/v2_depth_duration_MTurk/v2_DepthDuration_HTML.html#218,218,1364,625,1364,768,8-30-2022,10-54-40,140,depth_duration_stimuli/000191_2014-05-12_17-07-38_260595134347_rgbf000199-resize_0/000191_2014-05-12_17-07-38_260595134347_rgbf000199-resize_0-target.png,125,3.7995,1,6498,124,meters,jsons/VE125_randls_8_rotated.json,1185867,1398203,32,Woman
140,867338,DepthScenes,duration_manipulation_targetAtFixation,jsons/VE125_randls_8_rotated.json,http://54.235.29.9/FacialAge/BNav_EC2/DepthDuration/v2_depth_duration_MTurk/v2_DepthDuration_HTML.html#218,218,1364,625,1364,768,8-30-2022,10-54-40,141,depth_duration_stimuli/000493_2014-06-09_21-01-18_260595134347_rgbf000196-resize_3/000493_2014-06-09_21-01-18_260595134347_rgbf000196-resize_3-target.png,125,3.44,0,3779,125,meters,jsons/VE125_randls_8_rotated.json,1185867,1398203,32,Woman
141,867338,DepthScenes,duration_manipulation_targetAtFixation,jsons/VE125_randls_8_rotated.json,http://54.235.29.9/FacialAge/BNav_EC2/DepthDuration/v2_depth_duration_MTurk/v2_DepthDuration_HTML.html#218,218,1364,625,1364,768,8-30-2022,10-54-40,142,depth_duration_stimuli/000137_2014-05-20_17-04-49_260595134347_rgbf000120-resize_1/000137_2014-05-20_17-04-49_260595134347_rgbf000120-resize_1-target.png,125,3.786,1,4843,124,meters,jsons/VE125_randls_8_rotated.json,1185867,1398203,32,Woman
142,867338,DepthScenes,duration_manipulation_targetAtFixation,jsons/VE125_randls_8_rotated.json,http://54.235.29.9/FacialAge/BNav_EC2/DepthDuration/v2_depth_duration_MTurk/v2_DepthDuration_HTML.html#218,218,1364,625,1364,768,8-30-2022,10-54-40,143,depth_duration_stimuli/000736_2014-06-08_18-24-15_260595134347_rgbf000206-resize_3/000736_2014-06-08_18-24-15_260595134347_rgbf000206-resize_3-target.png,125,3.515,2,7184,124,meters,jsons/VE125_randls_8_rotated.json,1185867,1398203,32,Woman
143,867338,DepthScenes,duration_manipulation_targetAtFixation,jsons/VE125_randls_8_rotated.json,http://54.235.29.9/FacialAge/BNav_EC2/DepthDuration/v2_depth_duration_MTurk/v2_DepthDuration_HTML.html#218,218,1364,625,1364,768,8-30-2022,10-54-40,144,depth_duration_stimuli/001032_2014-06-08_13-23-17_260595134347_rgbf000021-resize_3/001032_2014-06-08_13-23-17_260595134347_rgbf000021-resize_3-target.png,125,3.2725,1,6235,124,meters,jsons/VE125_randls_8_rotated.json,1185867,1398203,32,Woman
144,867338,DepthScenes,duration_manipulation_targetAtFixation,jsons/VE125_randls_8_rotated.json,http://54.235.29.9/FacialAge/BNav_EC2/DepthDuration/v2_depth_duration_MTurk/v2_DepthDuration_HTML.html#218,218,1364,625,1364,768,8-30-2022,10-54-40,145,depth_duration_stimuli/001059_2014-06-08_21-53-27_260595134347_rgbf000061-resize_4/001059_2014-06-08_21-53-27_260595134347_rgbf000061-resize_4-target.png,125,2.4185,0,6029,125,meters,jsons/VE125_randls_8_rotated.json,1185867,1398203,32,Woman
145,867338,DepthScenes,duration_manipulation_targetAtFixation,jsons/VE125_randls_8_rotated.json,http://54.235.29.9/FacialAge/BNav_EC2/DepthDuration/v2_depth_duration_MTurk/v2_DepthDuration_HTML.html#218,218,1364,625,1364,768,8-30-2022,10-54-40,146,depth_duration_stimuli/001132_2014-06-17_14-48-54_260595134347_rgbf000100-resize_2/001132_2014-06-17_14-48-54_260595134347_rgbf000100-resize_2-target.png,125,3.753,1,5610,124,meters,jsons/VE125_randls_8_rotated.json,1185867,1398203,32,Woman
146,867338,DepthScenes,duration_manipulation_targetAtFixation,jsons/VE125_randls_8_rotated.json,http://54.235.29.9/FacialAge/BNav_EC2/DepthDuration/v2_depth_duration_MTurk/v2_DepthDuration_HTML.html#218,218,1364,625,1364,768,8-30-2022,10-54-40,147,depth_duration_stimuli/001133_2014-06-17_14-49-16_260595134347_rgbf000100-resize_0/001133_2014-06-17_14-49-16_260595134347_rgbf000100-resize_0-target.png,125,4.2115,3,12556,125,meters,jsons/VE125_randls_8_rotated.json,1185867,1398203,32,Woman
147,867338,DepthScenes,duration_manipulation_targetAtFixation,jsons/VE125_randls_8_rotated.json,http://54.235.29.9/FacialAge/BNav_EC2/DepthDuration/v2_depth_duration_MTurk/v2_DepthDuration_HTML.html#218,218,1364,625,1364,768,8-30-2022,10-54-40,148,depth_duration_stimuli/002758_2014-06-22_19-11-20_094959634447_rgbf000128-resize_1/002758_2014-06-22_19-11-20_094959634447_rgbf000128-resize_1-target.png,125,2.555,2,5499,124,meters,jsons/VE125_randls_8_rotated.json,1185867,1398203,32,Woman
148,867338,DepthScenes,duration_manipulation_targetAtFixation,jsons/VE125_randls_8_rotated.json,http://54.235.29.9/FacialAge/BNav_EC2/DepthDuration/v2_depth_duration_MTurk/v2_DepthDuration_HTML.html#218,218,1364,625,1364,768,8-30-2022,10-54-40,149,depth_duration_stimuli/002630_2014-06-24_14-47-50_094959634447_rgbf000055-resize_1/002630_2014-06-24_14-47-50_094959634447_rgbf000055-resize_1-target.png,125,3.0095,1,6458,124,meters,jsons/VE125_randls_8_rotated.json,1185867,1398203,32,Woman
149,867338,DepthScenes,duration_manipulation_targetAtFixation,jsons/VE125_randls_8_rotated.json,http://54.235.29.9/FacialAge/BNav_EC2/DepthDuration/v2_depth_duration_MTurk/v2_DepthDuration_HTML.html#218,218,1364,625,1364,768,8-30-2022,10-54-40,150,depth_duration_stimuli/001650_2014-06-20_12-09-00_260595134347_rgbf000087-resize_3/001650_2014-06-20_12-09-00_260595134347_rgbf000087-resize_3-target.png,125,1.9505,0,4628,125,meters,jsons/VE125_randls_8_rotated.json,1185867,1398203,32,Woman
150,867338,DepthScenes,duration_manipulation_targetAtFixation,jsons/VE125_randls_8_rotated.json,http://54.235.29.9/FacialAge/BNav_EC2/DepthDuration/v2_depth_duration_MTurk/v2_DepthDuration_HTML.html#218,218,1364,625,1364,768,8-30-2022,10-54-40,151,depth_duration_stimuli/000682_2014-06-08_23-14-58_260595134347_rgbf000041-resize_5/000682_2014-06-08_23-14-58_260595134347_rgbf000041-resize_5-target.png,125,2.7239999999999998,3,5416,124,meters,jsons/VE125_randls_8_rotated.json,1185867,1398203,32,Woman
151,867338,DepthScenes,duration_manipulation_targetAtFixation,jsons/VE125_randls_8_rotated.json,http://54.235.29.9/FacialAge/BNav_EC2/DepthDuration/v2_depth_duration_MTurk/v2_DepthDuration_HTML.html#218,218,1364,625,1364,768,8-30-2022,10-54-40,152,depth_duration_stimuli/000569_2014-06-09_22-51-47_260595134347_rgbf000141-resize_3/000569_2014-06-09_22-51-47_260595134347_rgbf000141-resize-original.jpg,125,4.512,2,4851,124,meters,jsons/VE125_randls_8_rotated.json,1185867,1398203,32,Woman
152,867338,DepthScenes,duration_manipulation_targetAtFixation,jsons/VE125_randls_8_rotated.json,http://54.235.29.9/FacialAge/BNav_EC2/DepthDuration/v2_depth_duration_MTurk/v2_DepthDuration_HTML.html#218,218,1364,625,1364,768,8-30-2022,10-54-40,153,depth_duration_stimuli/003010_2014-06-15_12-54-35_094959634447_rgbf000112-resize_0/003010_2014-06-15_12-54-35_094959634447_rgbf000112-resize_0-target.png,125,3.1185,1,9226,123,meters,jsons/VE125_randls_8_rotated.json,1185867,1398203,32,Woman
153,867338,DepthScenes,duration_manipulation_targetAtFixation,jsons/VE125_randls_8_rotated.json,http://54.235.29.9/FacialAge/BNav_EC2/DepthDuration/v2_depth_duration_MTurk/v2_DepthDuration_HTML.html#218,218,1364,625,1364,768,8-30-2022,10-54-40,154,depth_duration_stimuli/001810_2014-06-26_20-51-35_260595134347_rgbf000040-resize_3/001810_2014-06-26_20-51-35_260595134347_rgbf000040-resize_3-target.png,125,2.2525,3,5611,124,meters,jsons/VE125_randls_8_rotated.json,1185867,1398203,32,Woman
154,867338,DepthScenes,duration_manipulation_targetAtFixation,jsons/VE125_randls_8_rotated.json,http://54.235.29.9/FacialAge/BNav_EC2/DepthDuration/v2_depth_duration_MTurk/v2_DepthDuration_HTML.html#218,218,1364,625,1364,768,8-30-2022,10-54-40,155,depth_duration_stimuli/000483_2014-06-09_20-41-45_260595134347_rgbf000116-resize_4/000483_2014-06-09_20-41-45_260595134347_rgbf000116-resize_4-target.png,125,1.337,2,8651,124,meters,jsons/VE125_randls_8_rotated.json,1185867,1398203,32,Woman
155,867338,DepthScenes,duration_manipulation_targetAtFixation,jsons/VE125_randls_8_rotated.json,http://54.235.29.9/FacialAge/BNav_EC2/DepthDuration/v2_depth_duration_MTurk/v2_DepthDuration_HTML.html#218,218,1364,625,1364,768,8-30-2022,10-54-40,156,depth_duration_stimuli/000469_2014-06-09_19-42-10_260595134347_rgbf000081-resize_1/000469_2014-06-09_19-42-10_260595134347_rgbf000081-resize_1-target.png,125,1.652,3,21643,122,meters,jsons/VE125_randls_8_rotated.json,1185867,1398203,32,Woman
156,867338,DepthScenes,duration_manipulation_targetAtFixation,jsons/VE125_randls_8_rotated.json,http://54.235.29.9/FacialAge/BNav_EC2/DepthDuration/v2_depth_duration_MTurk/v2_DepthDuration_HTML.html#218,218,1364,625,1364,768,8-30-2022,10-54-40,157,depth_duration_stimuli/000943_2014-06-09_19-31-07_260595134347_rgbf000128-resize_1/000943_2014-06-09_19-31-07_260595134347_rgbf000128-resize_1-target.png,125,1.9765,2,7385,124,meters,jsons/VE125_randls_8_rotated.json,1185867,1398203,32,Woman
157,867338,DepthScenes,duration_manipulation_targetAtFixation,jsons/VE125_randls_8_rotated.json,http://54.235.29.9/FacialAge/BNav_EC2/DepthDuration/v2_depth_duration_MTurk/v2_DepthDuration_HTML.html#218,218,1364,625,1364,768,8-30-2022,10-54-40,158,depth_duration_stimuli/003070_2014-06-15_14-58-27_094959634447_rgbf000150-resize_3/003070_2014-06-15_14-58-27_094959634447_rgbf000150-resize_3-target.png,125,2.9415,1,4643,124,meters,jsons/VE125_randls_8_rotated.json,1185867,1398203,32,Woman
158,867338,DepthScenes,duration_manipulation_targetAtFixation,jsons/VE125_randls_8_rotated.json,http://54.235.29.9/FacialAge/BNav_EC2/DepthDuration/v2_depth_duration_MTurk/v2_DepthDuration_HTML.html#218,218,1364,625,1364,768,8-30-2022,10-54-40,159,depth_duration_stimuli/001214_2014-06-17_16-13-55_260595134347_rgbf000111-resize_0/001214_2014-06-17_16-13-55_260595134347_rgbf000111-resize_0-target.png,125,2.6505,0,5043,123,meters,jsons/VE125_randls_8_rotated.json,1185867,1398203,32,Woman
159,867338,DepthScenes,duration_manipulation_targetAtFixation,jsons/VE125_randls_8_rotated.json,http://54.235.29.9/FacialAge/BNav_EC2/DepthDuration/v2_depth_duration_MTurk/v2_DepthDuration_HTML.html#218,218,1364,625,1364,768,8-30-2022,10-54-40,160,depth_duration_stimuli/000810_2014-06-08_17-20-01_260595134347_rgbf000105-resize_0/000810_2014-06-08_17-20-01_260595134347_rgbf000105-resize_0-target.png,125,1.4865,2,4555,125,meters,jsons/VE125_randls_8_rotated.json,1185867,1398203,32,Woman
160,867338,DepthScenes,duration_manipulation_targetAtFixation,jsons/VE125_randls_8_rotated.json,http://54.235.29.9/FacialAge/BNav_EC2/DepthDuration/v2_depth_duration_MTurk/v2_DepthDuration_HTML.html#218,218,1364,625,1364,768,8-30-2022,10-54-40,161,depth_duration_stimuli/003490_2014-05-21_15-50-11_094959634447_rgbf000101-resize_3/003490_2014-05-21_15-50-11_094959634447_rgbf000101-resize_3-target.png,125,3.6445,3,21387,124,meters,jsons/VE125_randls_8_rotated.json,1185867,1398203,32,Woman
161,867338,DepthScenes,duration_manipulation_targetAtFixation,jsons/VE125_randls_8_rotated.json,http://54.235.29.9/FacialAge/BNav_EC2/DepthDuration/v2_depth_duration_MTurk/v2_DepthDuration_HTML.html#218,218,1364,625,1364,768,8-30-2022,10-54-40,162,depth_duration_stimuli/001175_2014-06-17_15-45-55_260595134347_rgbf000129-resize_4/001175_2014-06-17_15-45-55_260595134347_rgbf000129-resize_4-target.png,125,4.255,2,4020,124,meters,jsons/VE125_randls_8_rotated.json,1185867,1398203,32,Woman
162,867338,DepthScenes,duration_manipulation_targetAtFixation,jsons/VE125_randls_8_rotated.json,http://54.235.29.9/FacialAge/BNav_EC2/DepthDuration/v2_depth_duration_MTurk/v2_DepthDuration_HTML.html#218,218,1364,625,1364,768,8-30-2022,10-54-40,163,depth_duration_stimuli/001235_2014-06-17_16-37-36_260595134347_rgbf000084-resize_4/001235_2014-06-17_16-37-36_260595134347_rgbf000084-resize_4-target.png,125,3.6605,1,4026,124,meters,jsons/VE125_randls_8_rotated.json,1185867,1398203,32,Woman
163,867338,DepthScenes,duration_manipulation_targetAtFixation,jsons/VE125_randls_8_rotated.json,http://54.235.29.9/FacialAge/BNav_EC2/DepthDuration/v2_depth_duration_MTurk/v2_DepthDuration_HTML.html#218,218,1364,625,1364,768,8-30-2022,10-54-40,164,depth_duration_stimuli/000788_2014-06-08_22-34-36_260595134347_rgbf000131-resize_1/000788_2014-06-08_22-34-36_260595134347_rgbf000131-resize_1-target.png,125,3.359,3,4372,125,meters,jsons/VE125_randls_8_rotated.json,1185867,1398203,32,Woman
