,subjID,experimentName,versionName,sequenceName,url,selected_row,windowWidth,windowHeight,screenWidth,screenHeight,startDate,startTime,trial,stimulus,duration,actual_depth,depth_estimate,trial_RT,log_sceneDuration,unitSelection,seq_filepath,experimentTime,totalTime,age,gender
0,867654,DepthScenes,duration_manipulation_targetAtFixation,jsons/v1_VE250_randls_33.json,http://54.235.29.9/FacialAge/BNav_EC2/DepthDuration/v2_depth_duration_MTurk/v2_DepthDuration_HTML.html#206,206,1440,900,1440,900,8-30-2022,8-53-47,1,depth_duration_stimuli/003492_2014-05-21_15-50-55_094959634447_rgbf000828-resize_1/003492_2014-05-21_15-50-55_094959634447_rgbf000828-resize_1-target.png,250,4.06875,5,3746,250,feet,jsons/v1_VE250_randls_33.json,613712,863538,31,Woman
1,867654,DepthScenes,duration_manipulation_targetAtFixation,jsons/v1_VE250_randls_33.json,http://54.235.29.9/FacialAge/BNav_EC2/DepthDuration/v2_depth_duration_MTurk/v2_DepthDuration_HTML.html#206,206,1440,900,1440,900,8-30-2022,8-53-47,2,depth_duration_stimuli/002568_2014-06-24_13-59-21_094959634447_rgbf000062-resize_4/002568_2014-06-24_13-59-21_094959634447_rgbf000062-resize_4-target.png,250,3.015,4,2566,253,feet,jsons/v1_VE250_randls_33.json,613712,863538,31,Woman
2,867654,DepthScenes,duration_manipulation_targetAtFixation,jsons/v1_VE250_randls_33.json,http://54.235.29.9/FacialAge/BNav_EC2/DepthDuration/v2_depth_duration_MTurk/v2_DepthDuration_HTML.html#206,206,1440,900,1440,900,8-30-2022,8-53-47,3,depth_duration_stimuli/001417_2014-06-19_16-25-36_260595134347_rgbf000115-resize_5/001417_2014-06-19_16-25-36_260595134347_rgbf000115-resize_5-target.png,250,4.6255,5,2470,249,feet,jsons/v1_VE250_randls_33.json,613712,863538,31,Woman
3,867654,DepthScenes,duration_manipulation_targetAtFixation,jsons/v1_VE250_randls_33.json,http://54.235.29.9/FacialAge/BNav_EC2/DepthDuration/v2_depth_duration_MTurk/v2_DepthDuration_HTML.html#206,206,1440,900,1440,900,8-30-2022,8-53-47,4,depth_duration_stimuli/003081_2014-06-15_15-19-16_094959634447_rgbf000150-resize_1/003081_2014-06-15_15-19-16_094959634447_rgbf000150-resize_1-target.png,250,3.9125,5,2686,250,feet,jsons/v1_VE250_randls_33.json,613712,863538,31,Woman
4,867654,DepthScenes,duration_manipulation_targetAtFixation,jsons/v1_VE250_randls_33.json,http://54.235.29.9/FacialAge/BNav_EC2/DepthDuration/v2_depth_duration_MTurk/v2_DepthDuration_HTML.html#206,206,1440,900,1440,900,8-30-2022,8-53-47,5,depth_duration_stimuli/002272_2014-06-28_18-53-56_260595134347_rgbf000067-resize_2/002272_2014-06-28_18-53-56_260595134347_rgbf000067-resize_2-target.png,250,1.138,2,2146,250,feet,jsons/v1_VE250_randls_33.json,613712,863538,31,Woman
5,867654,DepthScenes,duration_manipulation_targetAtFixation,jsons/v1_VE250_randls_33.json,http://54.235.29.9/FacialAge/BNav_EC2/DepthDuration/v2_depth_duration_MTurk/v2_DepthDuration_HTML.html#206,206,1440,900,1440,900,8-30-2022,8-53-47,6,depth_duration_stimuli/001571_2014-06-20_17-21-32_260595134347_rgbf000089-resize_1/001571_2014-06-20_17-21-32_260595134347_rgbf000089-resize_1-target.png,250,1.86,3,2447,250,feet,jsons/v1_VE250_randls_33.json,613712,863538,31,Woman
6,867654,DepthScenes,duration_manipulation_targetAtFixation,jsons/v1_VE250_randls_33.json,http://54.235.29.9/FacialAge/BNav_EC2/DepthDuration/v2_depth_duration_MTurk/v2_DepthDuration_HTML.html#206,206,1440,900,1440,900,8-30-2022,8-53-47,7,depth_duration_stimuli/001133_2014-06-17_14-49-16_260595134347_rgbf000100-resize_0/001133_2014-06-17_14-49-16_260595134347_rgbf000100-resize_0-target.png,250,4.2115,4,2416,254,feet,jsons/v1_VE250_randls_33.json,613712,863538,31,Woman
7,867654,DepthScenes,duration_manipulation_targetAtFixation,jsons/v1_VE250_randls_33.json,http://54.235.29.9/FacialAge/BNav_EC2/DepthDuration/v2_depth_duration_MTurk/v2_DepthDuration_HTML.html#206,206,1440,900,1440,900,8-30-2022,8-53-47,8,depth_duration_stimuli/001132_2014-06-17_14-48-54_260595134347_rgbf000100-resize_2/001132_2014-06-17_14-48-54_260595134347_rgbf000100-resize_2-target.png,250,3.753,5,2333,254,feet,jsons/v1_VE250_randls_33.json,613712,863538,31,Woman
8,867654,DepthScenes,duration_manipulation_targetAtFixation,jsons/v1_VE250_randls_33.json,http://54.235.29.9/FacialAge/BNav_EC2/DepthDuration/v2_depth_duration_MTurk/v2_DepthDuration_HTML.html#206,206,1440,900,1440,900,8-30-2022,8-53-47,9,depth_duration_stimuli/001244_2014-06-17_16-47-45_260595134347_rgbf000030-resize_4/001244_2014-06-17_16-47-45_260595134347_rgbf000030-resize_4-target.png,250,2.0425,3,2367,255,feet,jsons/v1_VE250_randls_33.json,613712,863538,31,Woman
9,867654,DepthScenes,duration_manipulation_targetAtFixation,jsons/v1_VE250_randls_33.json,http://54.235.29.9/FacialAge/BNav_EC2/DepthDuration/v2_depth_duration_MTurk/v2_DepthDuration_HTML.html#206,206,1440,900,1440,900,8-30-2022,8-53-47,10,depth_duration_stimuli/003495_2014-05-21_16-01-51_094959634447_rgbf000100-resize_3/003495_2014-05-21_16-01-51_094959634447_rgbf000100-resize_3-target.png,250,1.6255,1,2310,256,feet,jsons/v1_VE250_randls_33.json,613712,863538,31,Woman
10,867654,DepthScenes,duration_manipulation_targetAtFixation,jsons/v1_VE250_randls_33.json,http://54.235.29.9/FacialAge/BNav_EC2/DepthDuration/v2_depth_duration_MTurk/v2_DepthDuration_HTML.html#206,206,1440,900,1440,900,8-30-2022,8-53-47,11,depth_duration_stimuli/000470_2014-06-09_19-42-40_260595134347_rgbf000094-resize_1/000470_2014-06-09_19-42-40_260595134347_rgbf000094-resize_1-target.png,250,1.831,2,2208,250,feet,jsons/v1_VE250_randls_33.json,613712,863538,31,Woman
11,867654,DepthScenes,duration_manipulation_targetAtFixation,jsons/v1_VE250_randls_33.json,http://54.235.29.9/FacialAge/BNav_EC2/DepthDuration/v2_depth_duration_MTurk/v2_DepthDuration_HTML.html#206,206,1440,900,1440,900,8-30-2022,8-53-47,12,depth_duration_stimuli/000109_2014-05-14_23-41-52_260595134347_rgbf000035-resize_9/000109_2014-05-14_23-41-52_260595134347_rgbf000035-resize_9-target.png,250,1.3545,1,2107,246,feet,jsons/v1_VE250_randls_33.json,613712,863538,31,Woman
12,867654,DepthScenes,duration_manipulation_targetAtFixation,jsons/v1_VE250_randls_33.json,http://54.235.29.9/FacialAge/BNav_EC2/DepthDuration/v2_depth_duration_MTurk/v2_DepthDuration_HTML.html#206,206,1440,900,1440,900,8-30-2022,8-53-47,13,depth_duration_stimuli/000569_2014-06-09_22-51-47_260595134347_rgbf000141-resize_3/000569_2014-06-09_22-51-47_260595134347_rgbf000141-resize-original.jpg,250,4.512,0,2536,237,feet,jsons/v1_VE250_randls_33.json,613712,863538,31,Woman
13,867654,DepthScenes,duration_manipulation_targetAtFixation,jsons/v1_VE250_randls_33.json,http://54.235.29.9/FacialAge/BNav_EC2/DepthDuration/v2_depth_duration_MTurk/v2_DepthDuration_HTML.html#206,206,1440,900,1440,900,8-30-2022,8-53-47,14,depth_duration_stimuli/002989_2014-06-15_12-25-03_094959634447_rgbf000150-resize_3/002989_2014-06-15_12-25-03_094959634447_rgbf000150-resize_3-target.png,250,4.1975,6,3016,250,feet,jsons/v1_VE250_randls_33.json,613712,863538,31,Woman
14,867654,DepthScenes,duration_manipulation_targetAtFixation,jsons/v1_VE250_randls_33.json,http://54.235.29.9/FacialAge/BNav_EC2/DepthDuration/v2_depth_duration_MTurk/v2_DepthDuration_HTML.html#206,206,1440,900,1440,900,8-30-2022,8-53-47,15,depth_duration_stimuli/000866_2014-06-09_20-45-42_260595134347_rgbf000139-resize_1/000866_2014-06-09_20-45-42_260595134347_rgbf000139-resize_1-target.png,250,3.2155,5,2364,256,feet,jsons/v1_VE250_randls_33.json,613712,863538,31,Woman
15,867654,DepthScenes,duration_manipulation_targetAtFixation,jsons/v1_VE250_randls_33.json,http://54.235.29.9/FacialAge/BNav_EC2/DepthDuration/v2_depth_duration_MTurk/v2_DepthDuration_HTML.html#206,206,1440,900,1440,900,8-30-2022,8-53-47,16,depth_duration_stimuli/000906_2014-06-08_13-35-43_260595134347_rgbf000155-resize_1/000906_2014-06-08_13-35-43_260595134347_rgbf000155-resize_1-target.png,250,2.8489999999999998,5,2479,245,feet,jsons/v1_VE250_randls_33.json,613712,863538,31,Woman
16,867654,DepthScenes,duration_manipulation_targetAtFixation,jsons/v1_VE250_randls_33.json,http://54.235.29.9/FacialAge/BNav_EC2/DepthDuration/v2_depth_duration_MTurk/v2_DepthDuration_HTML.html#206,206,1440,900,1440,900,8-30-2022,8-53-47,17,depth_duration_stimuli/002805_2014-06-22_19-54-03_094959634447_rgbf000079-resize_1/002805_2014-06-22_19-54-03_094959634447_rgbf000079-resize_1-target.png,250,3.1439999999999997,5,2431,235,feet,jsons/v1_VE250_randls_33.json,613712,863538,31,Woman
17,867654,DepthScenes,duration_manipulation_targetAtFixation,jsons/v1_VE250_randls_33.json,http://54.235.29.9/FacialAge/BNav_EC2/DepthDuration/v2_depth_duration_MTurk/v2_DepthDuration_HTML.html#206,206,1440,900,1440,900,8-30-2022,8-53-47,18,depth_duration_stimuli/000736_2014-06-08_18-24-15_260595134347_rgbf000206-resize_3/000736_2014-06-08_18-24-15_260595134347_rgbf000206-resize_3-target.png,250,3.515,3,14233,251,feet,jsons/v1_VE250_randls_33.json,613712,863538,31,Woman
18,867654,DepthScenes,duration_manipulation_targetAtFixation,jsons/v1_VE250_randls_33.json,http://54.235.29.9/FacialAge/BNav_EC2/DepthDuration/v2_depth_duration_MTurk/v2_DepthDuration_HTML.html#206,206,1440,900,1440,900,8-30-2022,8-53-47,19,depth_duration_stimuli/000137_2014-05-20_17-04-49_260595134347_rgbf000120-resize_1/000137_2014-05-20_17-04-49_260595134347_rgbf000120-resize_1-target.png,250,3.786,5,2395,250,feet,jsons/v1_VE250_randls_33.json,613712,863538,31,Woman
19,867654,DepthScenes,duration_manipulation_targetAtFixation,jsons/v1_VE250_randls_33.json,http://54.235.29.9/FacialAge/BNav_EC2/DepthDuration/v2_depth_duration_MTurk/v2_DepthDuration_HTML.html#206,206,1440,900,1440,900,8-30-2022,8-53-47,20,depth_duration_stimuli/002663_2014-06-13_15-50-26_094959634447_rgbf000075-resize_1/002663_2014-06-13_15-50-26_094959634447_rgbf000075-resize_1-target.png,250,4.7495,5,2098,249,feet,jsons/v1_VE250_randls_33.json,613712,863538,31,Woman
20,867654,DepthScenes,duration_manipulation_targetAtFixation,jsons/v1_VE250_randls_33.json,http://54.235.29.9/FacialAge/BNav_EC2/DepthDuration/v2_depth_duration_MTurk/v2_DepthDuration_HTML.html#206,206,1440,900,1440,900,8-30-2022,8-53-47,21,depth_duration_stimuli/000409_2014-06-04_19-23-33_260595134347_rgbf000067-resize_0/000409_2014-06-04_19-23-33_260595134347_rgbf000067-resize_0-target.png,250,3.7335,3,2232,250,feet,jsons/v1_VE250_randls_33.json,613712,863538,31,Woman
21,867654,DepthScenes,duration_manipulation_targetAtFixation,jsons/v1_VE250_randls_33.json,http://54.235.29.9/FacialAge/BNav_EC2/DepthDuration/v2_depth_duration_MTurk/v2_DepthDuration_HTML.html#206,206,1440,900,1440,900,8-30-2022,8-53-47,22,depth_duration_stimuli/000506_2014-06-08_23-21-00_260595134347_rgbf000070-resize_7/000506_2014-06-08_23-21-00_260595134347_rgbf000070-resize_7-target.png,250,4.0585,4,2382,252,feet,jsons/v1_VE250_randls_33.json,613712,863538,31,Woman
22,867654,DepthScenes,duration_manipulation_targetAtFixation,jsons/v1_VE250_randls_33.json,http://54.235.29.9/FacialAge/BNav_EC2/DepthDuration/v2_depth_duration_MTurk/v2_DepthDuration_HTML.html#206,206,1440,900,1440,900,8-30-2022,8-53-47,23,depth_duration_stimuli/003079_2014-06-15_15-18-20_094959634447_rgbf000152-resize_8/003079_2014-06-15_15-18-20_094959634447_rgbf000152-resize_8-target.png,250,2.8775,6,2576,243,feet,jsons/v1_VE250_randls_33.json,613712,863538,31,Woman
23,867654,DepthScenes,duration_manipulation_targetAtFixation,jsons/v1_VE250_randls_33.json,http://54.235.29.9/FacialAge/BNav_EC2/DepthDuration/v2_depth_duration_MTurk/v2_DepthDuration_HTML.html#206,206,1440,900,1440,900,8-30-2022,8-53-47,24,depth_duration_stimuli/002630_2014-06-24_14-47-50_094959634447_rgbf000055-resize_1/002630_2014-06-24_14-47-50_094959634447_rgbf000055-resize_1-target.png,250,3.0095,5,3234,251,feet,jsons/v1_VE250_randls_33.json,613712,863538,31,Woman
24,867654,DepthScenes,duration_manipulation_targetAtFixation,jsons/v1_VE250_randls_33.json,http://54.235.29.9/FacialAge/BNav_EC2/DepthDuration/v2_depth_duration_MTurk/v2_DepthDuration_HTML.html#206,206,1440,900,1440,900,8-30-2022,8-53-47,25,depth_duration_stimuli/002758_2014-06-22_19-11-20_094959634447_rgbf000128-resize_1/002758_2014-06-22_19-11-20_094959634447_rgbf000128-resize_1-target.png,250,2.555,3,3026,253,feet,jsons/v1_VE250_randls_33.json,613712,863538,31,Woman
25,867654,DepthScenes,duration_manipulation_targetAtFixation,jsons/v1_VE250_randls_33.json,http://54.235.29.9/FacialAge/BNav_EC2/DepthDuration/v2_depth_duration_MTurk/v2_DepthDuration_HTML.html#206,206,1440,900,1440,900,8-30-2022,8-53-47,26,depth_duration_stimuli/002570_2014-06-24_13-59-54_094959634447_rgbf000059-resize_0/002570_2014-06-24_13-59-54_094959634447_rgbf000059-resize_0-target.png,250,4.037,3,2422,253,feet,jsons/v1_VE250_randls_33.json,613712,863538,31,Woman
26,867654,DepthScenes,duration_manipulation_targetAtFixation,jsons/v1_VE250_randls_33.json,http://54.235.29.9/FacialAge/BNav_EC2/DepthDuration/v2_depth_duration_MTurk/v2_DepthDuration_HTML.html#206,206,1440,900,1440,900,8-30-2022,8-53-47,27,depth_duration_stimuli/002467_2014-06-28_20-38-07_260595134347_rgbf000026-resize_2/002467_2014-06-28_20-38-07_260595134347_rgbf000026-resize_2-target.png,250,4.742,5,103136,249,feet,jsons/v1_VE250_randls_33.json,613712,863538,31,Woman
27,867654,DepthScenes,duration_manipulation_targetAtFixation,jsons/v1_VE250_randls_33.json,http://54.235.29.9/FacialAge/BNav_EC2/DepthDuration/v2_depth_duration_MTurk/v2_DepthDuration_HTML.html#206,206,1440,900,1440,900,8-30-2022,8-53-47,28,depth_duration_stimuli/001810_2014-06-26_20-51-35_260595134347_rgbf000040-resize_3/001810_2014-06-26_20-51-35_260595134347_rgbf000040-resize_3-target.png,250,2.2525,3,3658,228,feet,jsons/v1_VE250_randls_33.json,613712,863538,31,Woman
28,867654,DepthScenes,duration_manipulation_targetAtFixation,jsons/v1_VE250_randls_33.json,http://54.235.29.9/FacialAge/BNav_EC2/DepthDuration/v2_depth_duration_MTurk/v2_DepthDuration_HTML.html#206,206,1440,900,1440,900,8-30-2022,8-53-47,29,depth_duration_stimuli/003010_2014-06-15_12-54-35_094959634447_rgbf000112-resize_0/003010_2014-06-15_12-54-35_094959634447_rgbf000112-resize_0-target.png,250,3.1185,6,2466,254,feet,jsons/v1_VE250_randls_33.json,613712,863538,31,Woman
29,867654,DepthScenes,duration_manipulation_targetAtFixation,jsons/v1_VE250_randls_33.json,http://54.235.29.9/FacialAge/BNav_EC2/DepthDuration/v2_depth_duration_MTurk/v2_DepthDuration_HTML.html#206,206,1440,900,1440,900,8-30-2022,8-53-47,30,depth_duration_stimuli/000375_2014-06-08_11-17-29_260595134347_rgbf000133-resize_2/000375_2014-06-08_11-17-29_260595134347_rgbf000133-resize-original.jpg,250,4.718,0,2482,252,feet,jsons/v1_VE250_randls_33.json,613712,863538,31,Woman
30,867654,DepthScenes,duration_manipulation_targetAtFixation,jsons/v1_VE250_randls_33.json,http://54.235.29.9/FacialAge/BNav_EC2/DepthDuration/v2_depth_duration_MTurk/v2_DepthDuration_HTML.html#206,206,1440,900,1440,900,8-30-2022,8-53-47,31,depth_duration_stimuli/002039_2014-06-24_20-22-38_260595134347_rgbf000084-resize_1/002039_2014-06-24_20-22-38_260595134347_rgbf000084-resize_1-target.png,250,4.408,3,2481,251,feet,jsons/v1_VE250_randls_33.json,613712,863538,31,Woman
31,867654,DepthScenes,duration_manipulation_targetAtFixation,jsons/v1_VE250_randls_33.json,http://54.235.29.9/FacialAge/BNav_EC2/DepthDuration/v2_depth_duration_MTurk/v2_DepthDuration_HTML.html#206,206,1440,900,1440,900,8-30-2022,8-53-47,32,depth_duration_stimuli/002103_2014-06-25_20-00-40_260595134347_rgbf000049-resize_0/002103_2014-06-25_20-00-40_260595134347_rgbf000049-resize_0-target.png,250,4.105,5,2263,247,feet,jsons/v1_VE250_randls_33.json,613712,863538,31,Woman
32,867654,DepthScenes,duration_manipulation_targetAtFixation,jsons/v1_VE250_randls_33.json,http://54.235.29.9/FacialAge/BNav_EC2/DepthDuration/v2_depth_duration_MTurk/v2_DepthDuration_HTML.html#206,206,1440,900,1440,900,8-30-2022,8-53-47,33,depth_duration_stimuli/001016_2014-06-09_16-16-10_260595134347_rgbf000112-resize_5/001016_2014-06-09_16-16-10_260595134347_rgbf000112-resize_5-target.png,250,1.6565,4,2184,255,feet,jsons/v1_VE250_randls_33.json,613712,863538,31,Woman
33,867654,DepthScenes,duration_manipulation_targetAtFixation,jsons/v1_VE250_randls_33.json,http://54.235.29.9/FacialAge/BNav_EC2/DepthDuration/v2_depth_duration_MTurk/v2_DepthDuration_HTML.html#206,206,1440,900,1440,900,8-30-2022,8-53-47,34,depth_duration_stimuli/002340_2014-06-28_20-05-46_260595134347_rgbf000113-resize_0/002340_2014-06-28_20-05-46_260595134347_rgbf000113-resize_0-target.png,250,2.4735,5,2130,251,feet,jsons/v1_VE250_randls_33.json,613712,863538,31,Woman
34,867654,DepthScenes,duration_manipulation_targetAtFixation,jsons/v1_VE250_randls_33.json,http://54.235.29.9/FacialAge/BNav_EC2/DepthDuration/v2_depth_duration_MTurk/v2_DepthDuration_HTML.html#206,206,1440,900,1440,900,8-30-2022,8-53-47,35,depth_duration_stimuli/000682_2014-06-08_23-14-58_260595134347_rgbf000041-resize_5/000682_2014-06-08_23-14-58_260595134347_rgbf000041-resize_5-target.png,250,2.7239999999999998,3,2211,248,feet,jsons/v1_VE250_randls_33.json,613712,863538,31,Woman
35,867654,DepthScenes,duration_manipulation_targetAtFixation,jsons/v1_VE250_randls_33.json,http://54.235.29.9/FacialAge/BNav_EC2/DepthDuration/v2_depth_duration_MTurk/v2_DepthDuration_HTML.html#206,206,1440,900,1440,900,8-30-2022,8-53-47,36,depth_duration_stimuli/001650_2014-06-20_12-09-00_260595134347_rgbf000087-resize_3/001650_2014-06-20_12-09-00_260595134347_rgbf000087-resize_3-target.png,250,1.9505,1,2368,249,feet,jsons/v1_VE250_randls_33.json,613712,863538,31,Woman
36,867654,DepthScenes,duration_manipulation_targetAtFixation,jsons/v1_VE250_randls_33.json,http://54.235.29.9/FacialAge/BNav_EC2/DepthDuration/v2_depth_duration_MTurk/v2_DepthDuration_HTML.html#206,206,1440,900,1440,900,8-30-2022,8-53-47,37,depth_duration_stimuli/003534_2014-05-22_15-06-10_094959634447_rgbf000102-resize_4/003534_2014-05-22_15-06-10_094959634447_rgbf000102-resize_4-target.png,250,1.426,1,2382,252,feet,jsons/v1_VE250_randls_33.json,613712,863538,31,Woman
37,867654,DepthScenes,duration_manipulation_targetAtFixation,jsons/v1_VE250_randls_33.json,http://54.235.29.9/FacialAge/BNav_EC2/DepthDuration/v2_depth_duration_MTurk/v2_DepthDuration_HTML.html#206,206,1440,900,1440,900,8-30-2022,8-53-47,38,depth_duration_stimuli/002637_2014-06-24_14-51-13_094959634447_rgbf000066-resize_4/002637_2014-06-24_14-51-13_094959634447_rgbf000066-resize_4-target.png,250,1.9955,4,2312,246,feet,jsons/v1_VE250_randls_33.json,613712,863538,31,Woman
38,867654,DepthScenes,duration_manipulation_targetAtFixation,jsons/v1_VE250_randls_33.json,http://54.235.29.9/FacialAge/BNav_EC2/DepthDuration/v2_depth_duration_MTurk/v2_DepthDuration_HTML.html#206,206,1440,900,1440,900,8-30-2022,8-53-47,39,depth_duration_stimuli/001092_2014-06-15_17-34-58_260595134347_rgbf000171-resize_3/001092_2014-06-15_17-34-58_260595134347_rgbf000171-resize_3-target.png,250,2.6935,3,2295,250,feet,jsons/v1_VE250_randls_33.json,613712,863538,31,Woman
39,867654,DepthScenes,duration_manipulation_targetAtFixation,jsons/v1_VE250_randls_33.json,http://54.235.29.9/FacialAge/BNav_EC2/DepthDuration/v2_depth_duration_MTurk/v2_DepthDuration_HTML.html#206,206,1440,900,1440,900,8-30-2022,8-53-47,40,depth_duration_stimuli/002545_2014-06-24_13-38-53_094959634447_rgbf000080-resize_4/002545_2014-06-24_13-38-53_094959634447_rgbf000080-resize_4-target.png,250,1.9205,4,2131,254,feet,jsons/v1_VE250_randls_33.json,613712,863538,31,Woman
40,867654,DepthScenes,duration_manipulation_targetAtFixation,jsons/v1_VE250_randls_33.json,http://54.235.29.9/FacialAge/BNav_EC2/DepthDuration/v2_depth_duration_MTurk/v2_DepthDuration_HTML.html#206,206,1440,900,1440,900,8-30-2022,8-53-47,41,depth_duration_stimuli/000493_2014-06-09_21-01-18_260595134347_rgbf000196-resize_3/000493_2014-06-09_21-01-18_260595134347_rgbf000196-resize_3-target.png,250,3.44,5,2164,249,feet,jsons/v1_VE250_randls_33.json,613712,863538,31,Woman
41,867654,DepthScenes,duration_manipulation_targetAtFixation,jsons/v1_VE250_randls_33.json,http://54.235.29.9/FacialAge/BNav_EC2/DepthDuration/v2_depth_duration_MTurk/v2_DepthDuration_HTML.html#206,206,1440,900,1440,900,8-30-2022,8-53-47,42,depth_duration_stimuli/000191_2014-05-12_17-07-38_260595134347_rgbf000199-resize_0/000191_2014-05-12_17-07-38_260595134347_rgbf000199-resize_0-target.png,250,3.7995,6,2164,251,feet,jsons/v1_VE250_randls_33.json,613712,863538,31,Woman
42,867654,DepthScenes,duration_manipulation_targetAtFixation,jsons/v1_VE250_randls_33.json,http://54.235.29.9/FacialAge/BNav_EC2/DepthDuration/v2_depth_duration_MTurk/v2_DepthDuration_HTML.html#206,206,1440,900,1440,900,8-30-2022,8-53-47,43,depth_duration_stimuli/001059_2014-06-08_21-53-27_260595134347_rgbf000061-resize_4/001059_2014-06-08_21-53-27_260595134347_rgbf000061-resize_4-target.png,250,2.4185,3,2248,254,feet,jsons/v1_VE250_randls_33.json,613712,863538,31,Woman
43,867654,DepthScenes,duration_manipulation_targetAtFixation,jsons/v1_VE250_randls_33.json,http://54.235.29.9/FacialAge/BNav_EC2/DepthDuration/v2_depth_duration_MTurk/v2_DepthDuration_HTML.html#206,206,1440,900,1440,900,8-30-2022,8-53-47,44,depth_duration_stimuli/001032_2014-06-08_13-23-17_260595134347_rgbf000021-resize_3/001032_2014-06-08_13-23-17_260595134347_rgbf000021-resize_3-target.png,250,3.2725,2,1799,251,feet,jsons/v1_VE250_randls_33.json,613712,863538,31,Woman
44,867654,DepthScenes,duration_manipulation_targetAtFixation,jsons/v1_VE250_randls_33.json,http://54.235.29.9/FacialAge/BNav_EC2/DepthDuration/v2_depth_duration_MTurk/v2_DepthDuration_HTML.html#206,206,1440,900,1440,900,8-30-2022,8-53-47,45,depth_duration_stimuli/000787_2014-06-08_22-33-53_260595134347_rgbf000175-resize_1/000787_2014-06-08_22-33-53_260595134347_rgbf000175-resize-original.jpg,250,4.784,0,2299,252,feet,jsons/v1_VE250_randls_33.json,613712,863538,31,Woman
45,867654,DepthScenes,duration_manipulation_targetAtFixation,jsons/v1_VE250_randls_33.json,http://54.235.29.9/FacialAge/BNav_EC2/DepthDuration/v2_depth_duration_MTurk/v2_DepthDuration_HTML.html#206,206,1440,900,1440,900,8-30-2022,8-53-47,46,depth_duration_stimuli/000486_2014-06-09_20-47-20_260595134347_rgbf000143-resize_2/000486_2014-06-09_20-47-20_260595134347_rgbf000143-resize_2-target.png,250,4.8325,5,3064,252,feet,jsons/v1_VE250_randls_33.json,613712,863538,31,Woman
46,867654,DepthScenes,duration_manipulation_targetAtFixation,jsons/v1_VE250_randls_33.json,http://54.235.29.9/FacialAge/BNav_EC2/DepthDuration/v2_depth_duration_MTurk/v2_DepthDuration_HTML.html#206,206,1440,900,1440,900,8-30-2022,8-53-47,47,depth_duration_stimuli/003083_2014-06-15_15-21-03_094959634447_rgbf000063-resize_1/003083_2014-06-15_15-21-03_094959634447_rgbf000063-resize_1-target.png,250,4.1405,4,2046,249,feet,jsons/v1_VE250_randls_33.json,613712,863538,31,Woman
47,867654,DepthScenes,duration_manipulation_targetAtFixation,jsons/v1_VE250_randls_33.json,http://54.235.29.9/FacialAge/BNav_EC2/DepthDuration/v2_depth_duration_MTurk/v2_DepthDuration_HTML.html#206,206,1440,900,1440,900,8-30-2022,8-53-47,48,depth_duration_stimuli/002763_2014-06-22_19-13-10_094959634447_rgbf000075-resize_4/002763_2014-06-22_19-13-10_094959634447_rgbf000075-resize_4-target.png,250,1.68375,3,1895,250,feet,jsons/v1_VE250_randls_33.json,613712,863538,31,Woman
48,867654,DepthScenes,duration_manipulation_targetAtFixation,jsons/v1_VE250_randls_33.json,http://54.235.29.9/FacialAge/BNav_EC2/DepthDuration/v2_depth_duration_MTurk/v2_DepthDuration_HTML.html#206,206,1440,900,1440,900,8-30-2022,8-53-47,49,depth_duration_stimuli/002209_2014-06-28_18-36-10_260595134347_rgbf000051-resize_1/002209_2014-06-28_18-36-10_260595134347_rgbf000051-resize_1-target.png,250,2.057,4,2049,253,feet,jsons/v1_VE250_randls_33.json,613712,863538,31,Woman
49,867654,DepthScenes,duration_manipulation_targetAtFixation,jsons/v1_VE250_randls_33.json,http://54.235.29.9/FacialAge/BNav_EC2/DepthDuration/v2_depth_duration_MTurk/v2_DepthDuration_HTML.html#206,206,1440,900,1440,900,8-30-2022,8-53-47,50,depth_duration_stimuli/001199_2014-06-17_16-03-48_260595134347_rgbf000077-resize_0/001199_2014-06-17_16-03-48_260595134347_rgbf000077-resize_0-target.png,250,3.4375,5,1966,253,feet,jsons/v1_VE250_randls_33.json,613712,863538,31,Woman
50,867654,DepthScenes,duration_manipulation_targetAtFixation,jsons/v1_VE250_randls_33.json,http://54.235.29.9/FacialAge/BNav_EC2/DepthDuration/v2_depth_duration_MTurk/v2_DepthDuration_HTML.html#206,206,1440,900,1440,900,8-30-2022,8-53-47,51,depth_duration_stimuli/000502_2014-06-08_23-02-32_260595134347_rgbf000063-resize_4/000502_2014-06-08_23-02-32_260595134347_rgbf000063-resize_4-target.png,250,2.431,2,2912,250,feet,jsons/v1_VE250_randls_33.json,613712,863538,31,Woman
51,867654,DepthScenes,duration_manipulation_targetAtFixation,jsons/v1_VE250_randls_33.json,http://54.235.29.9/FacialAge/BNav_EC2/DepthDuration/v2_depth_duration_MTurk/v2_DepthDuration_HTML.html#206,206,1440,900,1440,900,8-30-2022,8-53-47,52,depth_duration_stimuli/002905_2014-06-03_18-04-43_094959634447_rgbf000151-resize_2/002905_2014-06-03_18-04-43_094959634447_rgbf000151-resize_2-target.png,250,2.0295,2,2113,250,feet,jsons/v1_VE250_randls_33.json,613712,863538,31,Woman
52,867654,DepthScenes,duration_manipulation_targetAtFixation,jsons/v1_VE250_randls_33.json,http://54.235.29.9/FacialAge/BNav_EC2/DepthDuration/v2_depth_duration_MTurk/v2_DepthDuration_HTML.html#206,206,1440,900,1440,900,8-30-2022,8-53-47,53,depth_duration_stimuli/003423_2014-05-21_10-23-26_094959634447_rgbf002665-resize_2/003423_2014-05-21_10-23-26_094959634447_rgbf002665-resize_2-target.png,250,3.2575,1,2379,251,feet,jsons/v1_VE250_randls_33.json,613712,863538,31,Woman
53,867654,DepthScenes,duration_manipulation_targetAtFixation,jsons/v1_VE250_randls_33.json,http://54.235.29.9/FacialAge/BNav_EC2/DepthDuration/v2_depth_duration_MTurk/v2_DepthDuration_HTML.html#206,206,1440,900,1440,900,8-30-2022,8-53-47,54,depth_duration_stimuli/002043_2014-06-24_20-29-38_260595134347_rgbf000039-resize_4/002043_2014-06-24_20-29-38_260595134347_rgbf000039-resize_4-target.png,250,2.8435,3,1927,251,feet,jsons/v1_VE250_randls_33.json,613712,863538,31,Woman
54,867654,DepthScenes,duration_manipulation_targetAtFixation,jsons/v1_VE250_randls_33.json,http://54.235.29.9/FacialAge/BNav_EC2/DepthDuration/v2_depth_duration_MTurk/v2_DepthDuration_HTML.html#206,206,1440,900,1440,900,8-30-2022,8-53-47,55,depth_duration_stimuli/003048_2014-06-15_13-49-43_094959634447_rgbf000150-resize_1/003048_2014-06-15_13-49-43_094959634447_rgbf000150-resize_1-target.png,250,4.0035,5,2332,251,feet,jsons/v1_VE250_randls_33.json,613712,863538,31,Woman
55,867654,DepthScenes,duration_manipulation_targetAtFixation,jsons/v1_VE250_randls_33.json,http://54.235.29.9/FacialAge/BNav_EC2/DepthDuration/v2_depth_duration_MTurk/v2_DepthDuration_HTML.html#206,206,1440,900,1440,900,8-30-2022,8-53-47,56,depth_duration_stimuli/000368_2014-06-09_15-53-01_260595134347_rgbf000155-resize_2/000368_2014-06-09_15-53-01_260595134347_rgbf000155-resize_2-target.png,250,2.4859999999999998,2,2297,249,feet,jsons/v1_VE250_randls_33.json,613712,863538,31,Woman
56,867654,DepthScenes,duration_manipulation_targetAtFixation,jsons/v1_VE250_randls_33.json,http://54.235.29.9/FacialAge/BNav_EC2/DepthDuration/v2_depth_duration_MTurk/v2_DepthDuration_HTML.html#206,206,1440,900,1440,900,8-30-2022,8-53-47,57,depth_duration_stimuli/002678_2014-06-13_16-15-32_094959634447_rgbf000151-resize_6/002678_2014-06-13_16-15-32_094959634447_rgbf000151-resize_6-target.png,250,2.1830000000000003,5,2347,252,feet,jsons/v1_VE250_randls_33.json,613712,863538,31,Woman
57,867654,DepthScenes,duration_manipulation_targetAtFixation,jsons/v1_VE250_randls_33.json,http://54.235.29.9/FacialAge/BNav_EC2/DepthDuration/v2_depth_duration_MTurk/v2_DepthDuration_HTML.html#206,206,1440,900,1440,900,8-30-2022,8-53-47,58,depth_duration_stimuli/002375_2014-06-28_20-13-44_260595134347_rgbf000032-resize_1/002375_2014-06-28_20-13-44_260595134347_rgbf000032-resize_1-target.png,250,4.0175,3,2067,250,feet,jsons/v1_VE250_randls_33.json,613712,863538,31,Woman
58,867654,DepthScenes,duration_manipulation_targetAtFixation,jsons/v1_VE250_randls_33.json,http://54.235.29.9/FacialAge/BNav_EC2/DepthDuration/v2_depth_duration_MTurk/v2_DepthDuration_HTML.html#206,206,1440,900,1440,900,8-30-2022,8-53-47,59,depth_duration_stimuli/002657_2014-06-13_15-29-54_094959634447_rgbf000150-resize_1/002657_2014-06-13_15-29-54_094959634447_rgbf000150-resize_1-target.png,250,4.919,2,1764,251,feet,jsons/v1_VE250_randls_33.json,613712,863538,31,Woman
59,867654,DepthScenes,duration_manipulation_targetAtFixation,jsons/v1_VE250_randls_33.json,http://54.235.29.9/FacialAge/BNav_EC2/DepthDuration/v2_depth_duration_MTurk/v2_DepthDuration_HTML.html#206,206,1440,900,1440,900,8-30-2022,8-53-47,60,depth_duration_stimuli/000692_2014-06-08_13-09-42_260595134347_rgbf000199-resize_2/000692_2014-06-08_13-09-42_260595134347_rgbf000199-resize_2-target.png,250,3.661,4,2066,255,feet,jsons/v1_VE250_randls_33.json,613712,863538,31,Woman
60,867654,DepthScenes,duration_manipulation_targetAtFixation,jsons/v1_VE250_randls_33.json,http://54.235.29.9/FacialAge/BNav_EC2/DepthDuration/v2_depth_duration_MTurk/v2_DepthDuration_HTML.html#206,206,1440,900,1440,900,8-30-2022,8-53-47,61,depth_duration_stimuli/001094_2014-06-15_17-36-00_260595134347_rgbf000205-resize_0/001094_2014-06-15_17-36-00_260595134347_rgbf000205-resize_0-target.png,250,4.2175,5,2047,249,feet,jsons/v1_VE250_randls_33.json,613712,863538,31,Woman
61,867654,DepthScenes,duration_manipulation_targetAtFixation,jsons/v1_VE250_randls_33.json,http://54.235.29.9/FacialAge/BNav_EC2/DepthDuration/v2_depth_duration_MTurk/v2_DepthDuration_HTML.html#206,206,1440,900,1440,900,8-30-2022,8-53-47,62,depth_duration_stimuli/003070_2014-06-15_14-58-27_094959634447_rgbf000150-resize_3/003070_2014-06-15_14-58-27_094959634447_rgbf000150-resize_3-target.png,250,2.9415,2,1731,257,feet,jsons/v1_VE250_randls_33.json,613712,863538,31,Woman
62,867654,DepthScenes,duration_manipulation_targetAtFixation,jsons/v1_VE250_randls_33.json,http://54.235.29.9/FacialAge/BNav_EC2/DepthDuration/v2_depth_duration_MTurk/v2_DepthDuration_HTML.html#206,206,1440,900,1440,900,8-30-2022,8-53-47,63,depth_duration_stimuli/000943_2014-06-09_19-31-07_260595134347_rgbf000128-resize_1/000943_2014-06-09_19-31-07_260595134347_rgbf000128-resize_1-target.png,250,1.9765,3,2967,253,feet,jsons/v1_VE250_randls_33.json,613712,863538,31,Woman
63,867654,DepthScenes,duration_manipulation_targetAtFixation,jsons/v1_VE250_randls_33.json,http://54.235.29.9/FacialAge/BNav_EC2/DepthDuration/v2_depth_duration_MTurk/v2_DepthDuration_HTML.html#206,206,1440,900,1440,900,8-30-2022,8-53-47,64,depth_duration_stimuli/002279_2014-06-28_18-55-32_260595134347_rgbf000040-resize_5/002279_2014-06-28_18-55-32_260595134347_rgbf000040-resize_5-target.png,250,1.5043333333333,3,1929,252,feet,jsons/v1_VE250_randls_33.json,613712,863538,31,Woman
64,867654,DepthScenes,duration_manipulation_targetAtFixation,jsons/v1_VE250_randls_33.json,http://54.235.29.9/FacialAge/BNav_EC2/DepthDuration/v2_depth_duration_MTurk/v2_DepthDuration_HTML.html#206,206,1440,900,1440,900,8-30-2022,8-53-47,65,depth_duration_stimuli/000635_2014-06-08_16-38-42_260595134347_rgbf000106-resize_1/000635_2014-06-08_16-38-42_260595134347_rgbf000106-resize_1-target.png,250,2.074,4,2064,249,feet,jsons/v1_VE250_randls_33.json,613712,863538,31,Woman
65,867654,DepthScenes,duration_manipulation_targetAtFixation,jsons/v1_VE250_randls_33.json,http://54.235.29.9/FacialAge/BNav_EC2/DepthDuration/v2_depth_duration_MTurk/v2_DepthDuration_HTML.html#206,206,1440,900,1440,900,8-30-2022,8-53-47,66,depth_duration_stimuli/001222_2014-06-17_16-24-06_260595134347_rgbf000073-resize_0/001222_2014-06-17_16-24-06_260595134347_rgbf000073-resize-original.jpg,250,1.4385,0,2546,250,feet,jsons/v1_VE250_randls_33.json,613712,863538,31,Woman
66,867654,DepthScenes,duration_manipulation_targetAtFixation,jsons/v1_VE250_randls_33.json,http://54.235.29.9/FacialAge/BNav_EC2/DepthDuration/v2_depth_duration_MTurk/v2_DepthDuration_HTML.html#206,206,1440,900,1440,900,8-30-2022,8-53-47,67,depth_duration_stimuli/000009_2014-05-26_14-32-05_260595134347_rgbf000034-resize_3/000009_2014-05-26_14-32-05_260595134347_rgbf000034-resize_3-target.png,250,3.8715,6,4031,249,feet,jsons/v1_VE250_randls_33.json,613712,863538,31,Woman
67,867654,DepthScenes,duration_manipulation_targetAtFixation,jsons/v1_VE250_randls_33.json,http://54.235.29.9/FacialAge/BNav_EC2/DepthDuration/v2_depth_duration_MTurk/v2_DepthDuration_HTML.html#206,206,1440,900,1440,900,8-30-2022,8-53-47,68,depth_duration_stimuli/001828_2014-06-26_21-40-03_260595134347_rgbf000024-resize_0/001828_2014-06-26_21-40-03_260595134347_rgbf000024-resize_0-target.png,250,4.8260000000000005,4,5513,262,feet,jsons/v1_VE250_randls_33.json,613712,863538,31,Woman
68,867654,DepthScenes,duration_manipulation_targetAtFixation,jsons/v1_VE250_randls_33.json,http://54.235.29.9/FacialAge/BNav_EC2/DepthDuration/v2_depth_duration_MTurk/v2_DepthDuration_HTML.html#206,206,1440,900,1440,900,8-30-2022,8-53-47,69,depth_duration_stimuli/002964_2014-06-08_17-46-11_094959634447_rgbf000091-resize_4/002964_2014-06-08_17-46-11_094959634447_rgbf000091-resize_4-target.png,250,1.6909999999999998,1,2531,250,feet,jsons/v1_VE250_randls_33.json,613712,863538,31,Woman
69,867654,DepthScenes,duration_manipulation_targetAtFixation,jsons/v1_VE250_randls_33.json,http://54.235.29.9/FacialAge/BNav_EC2/DepthDuration/v2_depth_duration_MTurk/v2_DepthDuration_HTML.html#206,206,1440,900,1440,900,8-30-2022,8-53-47,70,depth_duration_stimuli/002136_2014-06-25_21-18-03_260595134347_rgbf000109-resize_3/002136_2014-06-25_21-18-03_260595134347_rgbf000109-resize_3-target.png,250,1.9569999999999999,2,1931,249,feet,jsons/v1_VE250_randls_33.json,613712,863538,31,Woman
70,867654,DepthScenes,duration_manipulation_targetAtFixation,jsons/v1_VE250_randls_33.json,http://54.235.29.9/FacialAge/BNav_EC2/DepthDuration/v2_depth_duration_MTurk/v2_DepthDuration_HTML.html#206,206,1440,900,1440,900,8-30-2022,8-53-47,71,depth_duration_stimuli/000878_2014-06-08_22-52-45_260595134347_rgbf000045-resize_2/000878_2014-06-08_22-52-45_260595134347_rgbf000045-resize_2-target.png,250,2.092,4,2181,254,feet,jsons/v1_VE250_randls_33.json,613712,863538,31,Woman
71,867654,DepthScenes,duration_manipulation_targetAtFixation,jsons/v1_VE250_randls_33.json,http://54.235.29.9/FacialAge/BNav_EC2/DepthDuration/v2_depth_duration_MTurk/v2_DepthDuration_HTML.html#206,206,1440,900,1440,900,8-30-2022,8-53-47,72,depth_duration_stimuli/002953_2014-06-08_17-32-18_094959634447_rgbf000059-resize_5/002953_2014-06-08_17-32-18_094959634447_rgbf000059-resize_5-target.png,250,1.551,2,2515,252,feet,jsons/v1_VE250_randls_33.json,613712,863538,31,Woman
72,867654,DepthScenes,duration_manipulation_targetAtFixation,jsons/v1_VE250_randls_33.json,http://54.235.29.9/FacialAge/BNav_EC2/DepthDuration/v2_depth_duration_MTurk/v2_DepthDuration_HTML.html#206,206,1440,900,1440,900,8-30-2022,8-53-47,73,depth_duration_stimuli/001110_2014-06-15_17-25-28_260595134347_rgbf000150-resize_1/001110_2014-06-15_17-25-28_260595134347_rgbf000150-resize_1-target.png,250,1.7115,3,2329,250,feet,jsons/v1_VE250_randls_33.json,613712,863538,31,Woman
73,867654,DepthScenes,duration_manipulation_targetAtFixation,jsons/v1_VE250_randls_33.json,http://54.235.29.9/FacialAge/BNav_EC2/DepthDuration/v2_depth_duration_MTurk/v2_DepthDuration_HTML.html#206,206,1440,900,1440,900,8-30-2022,8-53-47,74,depth_duration_stimuli/000927_2014-06-09_16-32-30_260595134347_rgbf000123-resize_3/000927_2014-06-09_16-32-30_260595134347_rgbf000123-resize_3-target.png,250,2.6785,4,1963,250,feet,jsons/v1_VE250_randls_33.json,613712,863538,31,Woman
74,867654,DepthScenes,duration_manipulation_targetAtFixation,jsons/v1_VE250_randls_33.json,http://54.235.29.9/FacialAge/BNav_EC2/DepthDuration/v2_depth_duration_MTurk/v2_DepthDuration_HTML.html#206,206,1440,900,1440,900,8-30-2022,8-53-47,75,depth_duration_stimuli/001066_2014-06-08_22-03-20_260595134347_rgbf000066-resize_4/001066_2014-06-08_22-03-20_260595134347_rgbf000066-resize_4-target.png,250,4.2330000000000005,4,14340,253,feet,jsons/v1_VE250_randls_33.json,613712,863538,31,Woman
75,867654,DepthScenes,duration_manipulation_targetAtFixation,jsons/v1_VE250_randls_33.json,http://54.235.29.9/FacialAge/BNav_EC2/DepthDuration/v2_depth_duration_MTurk/v2_DepthDuration_HTML.html#206,206,1440,900,1440,900,8-30-2022,8-53-47,76,depth_duration_stimuli/000742_2014-06-08_18-48-09_260595134347_rgbf000164-resize_4/000742_2014-06-08_18-48-09_260595134347_rgbf000164-resize_4-target.png,250,4.632,5,4007,248,feet,jsons/v1_VE250_randls_33.json,613712,863538,31,Woman
76,867654,DepthScenes,duration_manipulation_targetAtFixation,jsons/v1_VE250_randls_33.json,http://54.235.29.9/FacialAge/BNav_EC2/DepthDuration/v2_depth_duration_MTurk/v2_DepthDuration_HTML.html#206,206,1440,900,1440,900,8-30-2022,8-53-47,77,depth_duration_stimuli/001806_2014-06-26_20-50-20_260595134347_rgbf000091-resize_1/001806_2014-06-26_20-50-20_260595134347_rgbf000091-resize_1-target.png,250,2.7305,2,2215,252,feet,jsons/v1_VE250_randls_33.json,613712,863538,31,Woman
77,867654,DepthScenes,duration_manipulation_targetAtFixation,jsons/v1_VE250_randls_33.json,http://54.235.29.9/FacialAge/BNav_EC2/DepthDuration/v2_depth_duration_MTurk/v2_DepthDuration_HTML.html#206,206,1440,900,1440,900,8-30-2022,8-53-47,78,depth_duration_stimuli/001617_2014-06-20_11-35-32_260595134347_rgbf000066-resize_1/001617_2014-06-20_11-35-32_260595134347_rgbf000066-resize_1-target.png,250,3.7910000000000004,5,2249,269,feet,jsons/v1_VE250_randls_33.json,613712,863538,31,Woman
78,867654,DepthScenes,duration_manipulation_targetAtFixation,jsons/v1_VE250_randls_33.json,http://54.235.29.9/FacialAge/BNav_EC2/DepthDuration/v2_depth_duration_MTurk/v2_DepthDuration_HTML.html#206,206,1440,900,1440,900,8-30-2022,8-53-47,79,depth_duration_stimuli/001150_2014-06-17_15-27-34_260595134347_rgbf000108-resize_2/001150_2014-06-17_15-27-34_260595134347_rgbf000108-resize_2-target.png,250,4.0325,5,2934,254,feet,jsons/v1_VE250_randls_33.json,613712,863538,31,Woman
79,867654,DepthScenes,duration_manipulation_targetAtFixation,jsons/v1_VE250_randls_33.json,http://54.235.29.9/FacialAge/BNav_EC2/DepthDuration/v2_depth_duration_MTurk/v2_DepthDuration_HTML.html#206,206,1440,900,1440,900,8-30-2022,8-53-47,80,depth_duration_stimuli/000665_2014-06-09_20-42-35_260595134347_rgbf000110-resize_1/000665_2014-06-09_20-42-35_260595134347_rgbf000110-resize_1-target.png,250,3.057,2,2016,250,feet,jsons/v1_VE250_randls_33.json,613712,863538,31,Woman
80,867654,DepthScenes,duration_manipulation_targetAtFixation,jsons/v1_VE250_randls_33.json,http://54.235.29.9/FacialAge/BNav_EC2/DepthDuration/v2_depth_duration_MTurk/v2_DepthDuration_HTML.html#206,206,1440,900,1440,900,8-30-2022,8-53-47,81,depth_duration_stimuli/002509_2014-06-24_13-19-22_094959634447_rgbf000077-resize_0/002509_2014-06-24_13-19-22_094959634447_rgbf000077-resize_0-target.png,250,1.3065,3,10585,252,feet,jsons/v1_VE250_randls_33.json,613712,863538,31,Woman
81,867654,DepthScenes,duration_manipulation_targetAtFixation,jsons/v1_VE250_randls_33.json,http://54.235.29.9/FacialAge/BNav_EC2/DepthDuration/v2_depth_duration_MTurk/v2_DepthDuration_HTML.html#206,206,1440,900,1440,900,8-30-2022,8-53-47,82,depth_duration_stimuli/003338_2014-05-20_11-01-23_094959634447_rgbf000051-resize_6/003338_2014-05-20_11-01-23_094959634447_rgbf000051-resize_6-target.png,250,1.693,2,3282,251,feet,jsons/v1_VE250_randls_33.json,613712,863538,31,Woman
82,867654,DepthScenes,duration_manipulation_targetAtFixation,jsons/v1_VE250_randls_33.json,http://54.235.29.9/FacialAge/BNav_EC2/DepthDuration/v2_depth_duration_MTurk/v2_DepthDuration_HTML.html#206,206,1440,900,1440,900,8-30-2022,8-53-47,83,depth_duration_stimuli/001158_2014-06-17_15-32-16_260595134347_rgbf000138-resize_2/001158_2014-06-17_15-32-16_260595134347_rgbf000138-resize_2-target.png,250,4.5315,3,2564,248,feet,jsons/v1_VE250_randls_33.json,613712,863538,31,Woman
83,867654,DepthScenes,duration_manipulation_targetAtFixation,jsons/v1_VE250_randls_33.json,http://54.235.29.9/FacialAge/BNav_EC2/DepthDuration/v2_depth_duration_MTurk/v2_DepthDuration_HTML.html#206,206,1440,900,1440,900,8-30-2022,8-53-47,84,depth_duration_stimuli/000556_2014-06-09_22-42-56_260595134347_rgbf000214-resize_1/000556_2014-06-09_22-42-56_260595134347_rgbf000214-resize_1-target.png,250,4.8415,3,1966,248,feet,jsons/v1_VE250_randls_33.json,613712,863538,31,Woman
84,867654,DepthScenes,duration_manipulation_targetAtFixation,jsons/v1_VE250_randls_33.json,http://54.235.29.9/FacialAge/BNav_EC2/DepthDuration/v2_depth_duration_MTurk/v2_DepthDuration_HTML.html#206,206,1440,900,1440,900,8-30-2022,8-53-47,85,depth_duration_stimuli/001055_2014-06-08_18-45-35_260595134347_rgbf000111-resize_4/001055_2014-06-08_18-45-35_260595134347_rgbf000111-resize_4-target.png,250,2.4290000000000003,4,2032,251,feet,jsons/v1_VE250_randls_33.json,613712,863538,31,Woman
85,867654,DepthScenes,duration_manipulation_targetAtFixation,jsons/v1_VE250_randls_33.json,http://54.235.29.9/FacialAge/BNav_EC2/DepthDuration/v2_depth_duration_MTurk/v2_DepthDuration_HTML.html#206,206,1440,900,1440,900,8-30-2022,8-53-47,86,depth_duration_stimuli/000549_2014-06-08_22-10-24_260595134347_rgbf000247-resize_3/000549_2014-06-08_22-10-24_260595134347_rgbf000247-resize_3-target.png,250,1.841,2,2033,250,feet,jsons/v1_VE250_randls_33.json,613712,863538,31,Woman
86,867654,DepthScenes,duration_manipulation_targetAtFixation,jsons/v1_VE250_randls_33.json,http://54.235.29.9/FacialAge/BNav_EC2/DepthDuration/v2_depth_duration_MTurk/v2_DepthDuration_HTML.html#206,206,1440,900,1440,900,8-30-2022,8-53-47,87,depth_duration_stimuli/000758_2014-06-08_22-05-08_260595134347_rgbf000085-resize_0/000758_2014-06-08_22-05-08_260595134347_rgbf000085-resize_0-target.png,250,3.3810000000000002,3,2249,250,feet,jsons/v1_VE250_randls_33.json,613712,863538,31,Woman
87,867654,DepthScenes,duration_manipulation_targetAtFixation,jsons/v1_VE250_randls_33.json,http://54.235.29.9/FacialAge/BNav_EC2/DepthDuration/v2_depth_duration_MTurk/v2_DepthDuration_HTML.html#206,206,1440,900,1440,900,8-30-2022,8-53-47,88,depth_duration_stimuli/000854_2014-06-09_19-43-13_260595134347_rgbf000066-resize_0/000854_2014-06-09_19-43-13_260595134347_rgbf000066-resize_0-target.png,250,3.068,2,2087,238,feet,jsons/v1_VE250_randls_33.json,613712,863538,31,Woman
88,867654,DepthScenes,duration_manipulation_targetAtFixation,jsons/v1_VE250_randls_33.json,http://54.235.29.9/FacialAge/BNav_EC2/DepthDuration/v2_depth_duration_MTurk/v2_DepthDuration_HTML.html#206,206,1440,900,1440,900,8-30-2022,8-53-47,89,depth_duration_stimuli/001570_2014-06-20_17-21-09_260595134347_rgbf000135-resize_4/001570_2014-06-20_17-21-09_260595134347_rgbf000135-resize_4-target.png,250,4.467,4,2101,255,feet,jsons/v1_VE250_randls_33.json,613712,863538,31,Woman
89,867654,DepthScenes,duration_manipulation_targetAtFixation,jsons/v1_VE250_randls_33.json,http://54.235.29.9/FacialAge/BNav_EC2/DepthDuration/v2_depth_duration_MTurk/v2_DepthDuration_HTML.html#206,206,1440,900,1440,900,8-30-2022,8-53-47,90,depth_duration_stimuli/001392_2014-06-19_16-07-59_260595134347_rgbf000046-resize_1/001392_2014-06-19_16-07-59_260595134347_rgbf000046-resize_1-target.png,250,4.135,5,2214,252,feet,jsons/v1_VE250_randls_33.json,613712,863538,31,Woman
90,867654,DepthScenes,duration_manipulation_targetAtFixation,jsons/v1_VE250_randls_33.json,http://54.235.29.9/FacialAge/BNav_EC2/DepthDuration/v2_depth_duration_MTurk/v2_DepthDuration_HTML.html#206,206,1440,900,1440,900,8-30-2022,8-53-47,91,depth_duration_stimuli/001175_2014-06-17_15-45-55_260595134347_rgbf000129-resize_4/001175_2014-06-17_15-45-55_260595134347_rgbf000129-resize_4-target.png,250,4.255,4,2518,249,feet,jsons/v1_VE250_randls_33.json,613712,863538,31,Woman
91,867654,DepthScenes,duration_manipulation_targetAtFixation,jsons/v1_VE250_randls_33.json,http://54.235.29.9/FacialAge/BNav_EC2/DepthDuration/v2_depth_duration_MTurk/v2_DepthDuration_HTML.html#206,206,1440,900,1440,900,8-30-2022,8-53-47,92,depth_duration_stimuli/003490_2014-05-21_15-50-11_094959634447_rgbf000101-resize_3/003490_2014-05-21_15-50-11_094959634447_rgbf000101-resize_3-target.png,250,3.6445,3,2262,246,feet,jsons/v1_VE250_randls_33.json,613712,863538,31,Woman
92,867654,DepthScenes,duration_manipulation_targetAtFixation,jsons/v1_VE250_randls_33.json,http://54.235.29.9/FacialAge/BNav_EC2/DepthDuration/v2_depth_duration_MTurk/v2_DepthDuration_HTML.html#206,206,1440,900,1440,900,8-30-2022,8-53-47,93,depth_duration_stimuli/002725_2014-06-22_11-47-51_094959634447_rgbf000070-resize_1/002725_2014-06-22_11-47-51_094959634447_rgbf000070-resize_1-target.png,250,2.195,3,2132,253,feet,jsons/v1_VE250_randls_33.json,613712,863538,31,Woman
93,867654,DepthScenes,duration_manipulation_targetAtFixation,jsons/v1_VE250_randls_33.json,http://54.235.29.9/FacialAge/BNav_EC2/DepthDuration/v2_depth_duration_MTurk/v2_DepthDuration_HTML.html#206,206,1440,900,1440,900,8-30-2022,8-53-47,94,depth_duration_stimuli/002344_2014-06-28_20-06-29_260595134347_rgbf000030-resize_1/002344_2014-06-28_20-06-29_260595134347_rgbf000030-resize_1-target.png,250,1.5795,2,2011,249,feet,jsons/v1_VE250_randls_33.json,613712,863538,31,Woman
94,867654,DepthScenes,duration_manipulation_targetAtFixation,jsons/v1_VE250_randls_33.json,http://54.235.29.9/FacialAge/BNav_EC2/DepthDuration/v2_depth_duration_MTurk/v2_DepthDuration_HTML.html#206,206,1440,900,1440,900,8-30-2022,8-53-47,95,depth_duration_stimuli/002549_2014-06-24_13-41-39_094959634447_rgbf000022-resize_3/002549_2014-06-24_13-41-39_094959634447_rgbf000022-resize_3-target.png,250,1.476,3,1946,251,feet,jsons/v1_VE250_randls_33.json,613712,863538,31,Woman
95,867654,DepthScenes,duration_manipulation_targetAtFixation,jsons/v1_VE250_randls_33.json,http://54.235.29.9/FacialAge/BNav_EC2/DepthDuration/v2_depth_duration_MTurk/v2_DepthDuration_HTML.html#206,206,1440,900,1440,900,8-30-2022,8-53-47,96,depth_duration_stimuli/002750_2014-06-22_19-08-03_094959634447_rgbf000094-resize_4/002750_2014-06-22_19-08-03_094959634447_rgbf000094-resize_4-target.png,250,2.354,4,2866,253,feet,jsons/v1_VE250_randls_33.json,613712,863538,31,Woman
96,867654,DepthScenes,duration_manipulation_targetAtFixation,jsons/v1_VE250_randls_33.json,http://54.235.29.9/FacialAge/BNav_EC2/DepthDuration/v2_depth_duration_MTurk/v2_DepthDuration_HTML.html#206,206,1440,900,1440,900,8-30-2022,8-53-47,97,depth_duration_stimuli/002445_2014-06-28_20-32-16_260595134347_rgbf000029-resize_4/002445_2014-06-28_20-32-16_260595134347_rgbf000029-resize_4-target.png,250,2.5315,3,2114,250,feet,jsons/v1_VE250_randls_33.json,613712,863538,31,Woman
97,867654,DepthScenes,duration_manipulation_targetAtFixation,jsons/v1_VE250_randls_33.json,http://54.235.29.9/FacialAge/BNav_EC2/DepthDuration/v2_depth_duration_MTurk/v2_DepthDuration_HTML.html#206,206,1440,900,1440,900,8-30-2022,8-53-47,98,depth_duration_stimuli/000780_2014-06-08_22-28-29_260595134347_rgbf000126-resize_1/000780_2014-06-08_22-28-29_260595134347_rgbf000126-resize_1-target.png,250,3.3825,4,2128,251,feet,jsons/v1_VE250_randls_33.json,613712,863538,31,Woman
98,867654,DepthScenes,duration_manipulation_targetAtFixation,jsons/v1_VE250_randls_33.json,http://54.235.29.9/FacialAge/BNav_EC2/DepthDuration/v2_depth_duration_MTurk/v2_DepthDuration_HTML.html#206,206,1440,900,1440,900,8-30-2022,8-53-47,99,depth_duration_stimuli/001540_2014-06-20_17-01-05_260595134347_rgbf000086-resize_2/001540_2014-06-20_17-01-05_260595134347_rgbf000086-resize-original.jpg,250,1.459,0,2317,254,feet,jsons/v1_VE250_randls_33.json,613712,863538,31,Woman
99,867654,DepthScenes,duration_manipulation_targetAtFixation,jsons/v1_VE250_randls_33.json,http://54.235.29.9/FacialAge/BNav_EC2/DepthDuration/v2_depth_duration_MTurk/v2_DepthDuration_HTML.html#206,206,1440,900,1440,900,8-30-2022,8-53-47,100,depth_duration_stimuli/000447_2014-06-08_16-15-46_260595134347_rgbf000130-resize_1/000447_2014-06-08_16-15-46_260595134347_rgbf000130-resize_1-target.png,250,4.479,4,2099,251,feet,jsons/v1_VE250_randls_33.json,613712,863538,31,Woman
100,867654,DepthScenes,duration_manipulation_targetAtFixation,jsons/v1_VE250_randls_33.json,http://54.235.29.9/FacialAge/BNav_EC2/DepthDuration/v2_depth_duration_MTurk/v2_DepthDuration_HTML.html#206,206,1440,900,1440,900,8-30-2022,8-53-47,101,depth_duration_stimuli/001447_2014-06-19_17-00-32_260595134347_rgbf000082-resize_5/001447_2014-06-19_17-00-32_260595134347_rgbf000082-resize_5-target.png,250,4.13775,3,3434,263,feet,jsons/v1_VE250_randls_33.json,613712,863538,31,Woman
101,867654,DepthScenes,duration_manipulation_targetAtFixation,jsons/v1_VE250_randls_33.json,http://54.235.29.9/FacialAge/BNav_EC2/DepthDuration/v2_depth_duration_MTurk/v2_DepthDuration_HTML.html#206,206,1440,900,1440,900,8-30-2022,8-53-47,102,depth_duration_stimuli/001167_2014-06-17_15-38-07_260595134347_rgbf000108-resize_0/001167_2014-06-17_15-38-07_260595134347_rgbf000108-resize_0-target.png,250,1.8505,3,2096,251,feet,jsons/v1_VE250_randls_33.json,613712,863538,31,Woman
102,867654,DepthScenes,duration_manipulation_targetAtFixation,jsons/v1_VE250_randls_33.json,http://54.235.29.9/FacialAge/BNav_EC2/DepthDuration/v2_depth_duration_MTurk/v2_DepthDuration_HTML.html#206,206,1440,900,1440,900,8-30-2022,8-53-47,103,depth_duration_stimuli/003587_2014-05-23_16-48-02_094959634447_rgbf002384-resize_2/003587_2014-05-23_16-48-02_094959634447_rgbf002384-resize_2-target.png,250,1.357,2,2661,248,feet,jsons/v1_VE250_randls_33.json,613712,863538,31,Woman
103,867654,DepthScenes,duration_manipulation_targetAtFixation,jsons/v1_VE250_randls_33.json,http://54.235.29.9/FacialAge/BNav_EC2/DepthDuration/v2_depth_duration_MTurk/v2_DepthDuration_HTML.html#206,206,1440,900,1440,900,8-30-2022,8-53-47,104,depth_duration_stimuli/002057_2014-06-24_21-00-13_260595134347_rgbf000120-resize_1/002057_2014-06-24_21-00-13_260595134347_rgbf000120-resize_1-target.png,250,2.967,5,2297,250,feet,jsons/v1_VE250_randls_33.json,613712,863538,31,Woman
104,867654,DepthScenes,duration_manipulation_targetAtFixation,jsons/v1_VE250_randls_33.json,http://54.235.29.9/FacialAge/BNav_EC2/DepthDuration/v2_depth_duration_MTurk/v2_DepthDuration_HTML.html#206,206,1440,900,1440,900,8-30-2022,8-53-47,105,depth_duration_stimuli/000709_2014-06-08_13-51-55_260595134347_rgbf000068-resize_3/000709_2014-06-08_13-51-55_260595134347_rgbf000068-resize_3-target.png,250,1.8030000000000002,5,2279,246,feet,jsons/v1_VE250_randls_33.json,613712,863538,31,Woman
105,867654,DepthScenes,duration_manipulation_targetAtFixation,jsons/v1_VE250_randls_33.json,http://54.235.29.9/FacialAge/BNav_EC2/DepthDuration/v2_depth_duration_MTurk/v2_DepthDuration_HTML.html#206,206,1440,900,1440,900,8-30-2022,8-53-47,106,depth_duration_stimuli/002988_2014-06-15_12-24-20_094959634447_rgbf000150-resize_1/002988_2014-06-15_12-24-20_094959634447_rgbf000150-resize_1-target.png,250,4.7669999999999995,5,2131,256,feet,jsons/v1_VE250_randls_33.json,613712,863538,31,Woman
106,867654,DepthScenes,duration_manipulation_targetAtFixation,jsons/v1_VE250_randls_33.json,http://54.235.29.9/FacialAge/BNav_EC2/DepthDuration/v2_depth_duration_MTurk/v2_DepthDuration_HTML.html#206,206,1440,900,1440,900,8-30-2022,8-53-47,107,depth_duration_stimuli/001052_2014-06-08_18-24-54_260595134347_rgbf000130-resize_1/001052_2014-06-08_18-24-54_260595134347_rgbf000130-resize_1-target.png,250,4.1045,5,2051,251,feet,jsons/v1_VE250_randls_33.json,613712,863538,31,Woman
107,867654,DepthScenes,duration_manipulation_targetAtFixation,jsons/v1_VE250_randls_33.json,http://54.235.29.9/FacialAge/BNav_EC2/DepthDuration/v2_depth_duration_MTurk/v2_DepthDuration_HTML.html#206,206,1440,900,1440,900,8-30-2022,8-53-47,108,depth_duration_stimuli/000436_2014-06-09_22-25-11_260595134347_rgbf000137-resize_1/000436_2014-06-09_22-25-11_260595134347_rgbf000137-resize_1-target.png,250,4.0705,4,1980,249,feet,jsons/v1_VE250_randls_33.json,613712,863538,31,Woman
108,867654,DepthScenes,duration_manipulation_targetAtFixation,jsons/v1_VE250_randls_33.json,http://54.235.29.9/FacialAge/BNav_EC2/DepthDuration/v2_depth_duration_MTurk/v2_DepthDuration_HTML.html#206,206,1440,900,1440,900,8-30-2022,8-53-47,109,depth_duration_stimuli/002444_2014-06-28_20-32-08_260595134347_rgbf000027-resize_0/002444_2014-06-28_20-32-08_260595134347_rgbf000027-resize_0-target.png,250,4.388999999999999,4,1711,248,feet,jsons/v1_VE250_randls_33.json,613712,863538,31,Woman
109,867654,DepthScenes,duration_manipulation_targetAtFixation,jsons/v1_VE250_randls_33.json,http://54.235.29.9/FacialAge/BNav_EC2/DepthDuration/v2_depth_duration_MTurk/v2_DepthDuration_HTML.html#206,206,1440,900,1440,900,8-30-2022,8-53-47,110,depth_duration_stimuli/000522_2014-06-08_13-35-06_260595134347_rgbf000244-resize_1/000522_2014-06-08_13-35-06_260595134347_rgbf000244-resize_1-target.png,250,2.3715,3,2749,251,feet,jsons/v1_VE250_randls_33.json,613712,863538,31,Woman
110,867654,DepthScenes,duration_manipulation_targetAtFixation,jsons/v1_VE250_randls_33.json,http://54.235.29.9/FacialAge/BNav_EC2/DepthDuration/v2_depth_duration_MTurk/v2_DepthDuration_HTML.html#206,206,1440,900,1440,900,8-30-2022,8-53-47,111,depth_duration_stimuli/002949_2014-06-26_15-57-42_094959634447_rgbf000079-resize_1/002949_2014-06-26_15-57-42_094959634447_rgbf000079-resize_1-target.png,250,1.8915,3,2283,250,feet,jsons/v1_VE250_randls_33.json,613712,863538,31,Woman
111,867654,DepthScenes,duration_manipulation_targetAtFixation,jsons/v1_VE250_randls_33.json,http://54.235.29.9/FacialAge/BNav_EC2/DepthDuration/v2_depth_duration_MTurk/v2_DepthDuration_HTML.html#206,206,1440,900,1440,900,8-30-2022,8-53-47,112,depth_duration_stimuli/001164_2014-06-17_15-35-46_260595134347_rgbf000085-resize_3/001164_2014-06-17_15-35-46_260595134347_rgbf000085-resize_3-target.png,250,2.354,4,2017,251,feet,jsons/v1_VE250_randls_33.json,613712,863538,31,Woman
112,867654,DepthScenes,duration_manipulation_targetAtFixation,jsons/v1_VE250_randls_33.json,http://54.235.29.9/FacialAge/BNav_EC2/DepthDuration/v2_depth_duration_MTurk/v2_DepthDuration_HTML.html#206,206,1440,900,1440,900,8-30-2022,8-53-47,113,depth_duration_stimuli/001136_2014-06-17_15-19-41_260595134347_rgbf000076-resize_3/001136_2014-06-17_15-19-41_260595134347_rgbf000076-resize_3-target.png,250,1.8655,3,1850,250,feet,jsons/v1_VE250_randls_33.json,613712,863538,31,Woman
113,867654,DepthScenes,duration_manipulation_targetAtFixation,jsons/v1_VE250_randls_33.json,http://54.235.29.9/FacialAge/BNav_EC2/DepthDuration/v2_depth_duration_MTurk/v2_DepthDuration_HTML.html#206,206,1440,900,1440,900,8-30-2022,8-53-47,114,depth_duration_stimuli/002213_2014-06-28_18-37-58_260595134347_rgbf000055-resize_1/002213_2014-06-28_18-37-58_260595134347_rgbf000055-resize_1-target.png,250,3.62,4,2082,250,feet,jsons/v1_VE250_randls_33.json,613712,863538,31,Woman
114,867654,DepthScenes,duration_manipulation_targetAtFixation,jsons/v1_VE250_randls_33.json,http://54.235.29.9/FacialAge/BNav_EC2/DepthDuration/v2_depth_duration_MTurk/v2_DepthDuration_HTML.html#206,206,1440,900,1440,900,8-30-2022,8-53-47,115,depth_duration_stimuli/000691_2014-06-08_13-08-50_260595134347_rgbf000132-resize_3/000691_2014-06-08_13-08-50_260595134347_rgbf000132-resize_3-target.png,250,4.1530000000000005,3,1830,246,feet,jsons/v1_VE250_randls_33.json,613712,863538,31,Woman
115,867654,DepthScenes,duration_manipulation_targetAtFixation,jsons/v1_VE250_randls_33.json,http://54.235.29.9/FacialAge/BNav_EC2/DepthDuration/v2_depth_duration_MTurk/v2_DepthDuration_HTML.html#206,206,1440,900,1440,900,8-30-2022,8-53-47,116,depth_duration_stimuli/001170_2014-06-17_15-43-44_260595134347_rgbf000096-resize_6/001170_2014-06-17_15-43-44_260595134347_rgbf000096-resize-original.jpg,250,1.1909999999999998,0,3230,248,feet,jsons/v1_VE250_randls_33.json,613712,863538,31,Woman
116,867654,DepthScenes,duration_manipulation_targetAtFixation,jsons/v1_VE250_randls_33.json,http://54.235.29.9/FacialAge/BNav_EC2/DepthDuration/v2_depth_duration_MTurk/v2_DepthDuration_HTML.html#206,206,1440,900,1440,900,8-30-2022,8-53-47,117,depth_duration_stimuli/001808_2014-06-26_20-50-58_260595134347_rgbf000029-resize_1/001808_2014-06-26_20-50-58_260595134347_rgbf000029-resize_1-target.png,250,4.249,5,3644,248,feet,jsons/v1_VE250_randls_33.json,613712,863538,31,Woman
117,867654,DepthScenes,duration_manipulation_targetAtFixation,jsons/v1_VE250_randls_33.json,http://54.235.29.9/FacialAge/BNav_EC2/DepthDuration/v2_depth_duration_MTurk/v2_DepthDuration_HTML.html#206,206,1440,900,1440,900,8-30-2022,8-53-47,118,depth_duration_stimuli/001815_2014-06-26_20-52-55_260595134347_rgbf000020-resize_0/001815_2014-06-26_20-52-55_260595134347_rgbf000020-resize_0-target.png,250,3.3865,5,2351,252,feet,jsons/v1_VE250_randls_33.json,613712,863538,31,Woman
118,867654,DepthScenes,duration_manipulation_targetAtFixation,jsons/v1_VE250_randls_33.json,http://54.235.29.9/FacialAge/BNav_EC2/DepthDuration/v2_depth_duration_MTurk/v2_DepthDuration_HTML.html#206,206,1440,900,1440,900,8-30-2022,8-53-47,119,depth_duration_stimuli/000414_2014-06-04_19-49-13_260595134347_rgbf000044-resize_0/000414_2014-06-04_19-49-13_260595134347_rgbf000044-resize_0-target.png,250,4.329,5,2045,250,feet,jsons/v1_VE250_randls_33.json,613712,863538,31,Woman
119,867654,DepthScenes,duration_manipulation_targetAtFixation,jsons/v1_VE250_randls_33.json,http://54.235.29.9/FacialAge/BNav_EC2/DepthDuration/v2_depth_duration_MTurk/v2_DepthDuration_HTML.html#206,206,1440,900,1440,900,8-30-2022,8-53-47,120,depth_duration_stimuli/003129_2014-05-12_10-48-10_094959634447_rgbf000100-resize_0/003129_2014-05-12_10-48-10_094959634447_rgbf000100-resize_0-target.png,250,4.9305,4,2282,252,feet,jsons/v1_VE250_randls_33.json,613712,863538,31,Woman
120,867654,DepthScenes,duration_manipulation_targetAtFixation,jsons/v1_VE250_randls_33.json,http://54.235.29.9/FacialAge/BNav_EC2/DepthDuration/v2_depth_duration_MTurk/v2_DepthDuration_HTML.html#206,206,1440,900,1440,900,8-30-2022,8-53-47,121,depth_duration_stimuli/001449_2014-06-19_17-01-27_260595134347_rgbf000116-resize_2/001449_2014-06-19_17-01-27_260595134347_rgbf000116-resize_2-target.png,250,3.452,4,6073,245,feet,jsons/v1_VE250_randls_33.json,613712,863538,31,Woman
121,867654,DepthScenes,duration_manipulation_targetAtFixation,jsons/v1_VE250_randls_33.json,http://54.235.29.9/FacialAge/BNav_EC2/DepthDuration/v2_depth_duration_MTurk/v2_DepthDuration_HTML.html#206,206,1440,900,1440,900,8-30-2022,8-53-47,122,depth_duration_stimuli/001450_2014-06-19_17-02-03_260595134347_rgbf000203-resize_4/001450_2014-06-19_17-02-03_260595134347_rgbf000203-resize_4-target.png,250,4.0106666666667,4,2213,250,feet,jsons/v1_VE250_randls_33.json,613712,863538,31,Woman
122,867654,DepthScenes,duration_manipulation_targetAtFixation,jsons/v1_VE250_randls_33.json,http://54.235.29.9/FacialAge/BNav_EC2/DepthDuration/v2_depth_duration_MTurk/v2_DepthDuration_HTML.html#206,206,1440,900,1440,900,8-30-2022,8-53-47,123,depth_duration_stimuli/002600_2014-06-24_14-27-04_094959634447_rgbf000074-resize_2/002600_2014-06-24_14-27-04_094959634447_rgbf000074-resize_2-target.png,250,2.7575,2,2048,252,feet,jsons/v1_VE250_randls_33.json,613712,863538,31,Woman
123,867654,DepthScenes,duration_manipulation_targetAtFixation,jsons/v1_VE250_randls_33.json,http://54.235.29.9/FacialAge/BNav_EC2/DepthDuration/v2_depth_duration_MTurk/v2_DepthDuration_HTML.html#206,206,1440,900,1440,900,8-30-2022,8-53-47,124,depth_duration_stimuli/003228_2014-05-14_13-42-35_094959634447_rgbf000101-resize_1/003228_2014-05-14_13-42-35_094959634447_rgbf000101-resize_1-target.png,250,1.9680000000000002,2,2295,250,feet,jsons/v1_VE250_randls_33.json,613712,863538,31,Woman
124,867654,DepthScenes,duration_manipulation_targetAtFixation,jsons/v1_VE250_randls_33.json,http://54.235.29.9/FacialAge/BNav_EC2/DepthDuration/v2_depth_duration_MTurk/v2_DepthDuration_HTML.html#206,206,1440,900,1440,900,8-30-2022,8-53-47,125,depth_duration_stimuli/000917_2014-06-09_22-45-29_260595134347_rgbf000149-resize_3/000917_2014-06-09_22-45-29_260595134347_rgbf000149-resize_3-target.png,250,4.1865,4,2065,250,feet,jsons/v1_VE250_randls_33.json,613712,863538,31,Woman
125,867654,DepthScenes,duration_manipulation_targetAtFixation,jsons/v1_VE250_randls_33.json,http://54.235.29.9/FacialAge/BNav_EC2/DepthDuration/v2_depth_duration_MTurk/v2_DepthDuration_HTML.html#206,206,1440,900,1440,900,8-30-2022,8-53-47,126,depth_duration_stimuli/002323_2014-06-28_20-01-54_260595134347_rgbf000051-resize_4/002323_2014-06-28_20-01-54_260595134347_rgbf000051-resize_4-target.png,250,3.7310000000000003,4,2048,252,feet,jsons/v1_VE250_randls_33.json,613712,863538,31,Woman
126,867654,DepthScenes,duration_manipulation_targetAtFixation,jsons/v1_VE250_randls_33.json,http://54.235.29.9/FacialAge/BNav_EC2/DepthDuration/v2_depth_duration_MTurk/v2_DepthDuration_HTML.html#206,206,1440,900,1440,900,8-30-2022,8-53-47,127,depth_duration_stimuli/000929_2014-06-09_16-33-19_260595134347_rgbf000139-resize_0/000929_2014-06-09_16-33-19_260595134347_rgbf000139-resize_0-target.png,250,2.8680000000000003,2,2501,253,feet,jsons/v1_VE250_randls_33.json,613712,863538,31,Woman
127,867654,DepthScenes,duration_manipulation_targetAtFixation,jsons/v1_VE250_randls_33.json,http://54.235.29.9/FacialAge/BNav_EC2/DepthDuration/v2_depth_duration_MTurk/v2_DepthDuration_HTML.html#206,206,1440,900,1440,900,8-30-2022,8-53-47,128,depth_duration_stimuli/000457_2014-06-08_16-52-43_260595134347_rgbf000199-resize_1/000457_2014-06-08_16-52-43_260595134347_rgbf000199-resize_1-target.png,250,3.6489999999999996,3,2032,254,feet,jsons/v1_VE250_randls_33.json,613712,863538,31,Woman
128,867654,DepthScenes,duration_manipulation_targetAtFixation,jsons/v1_VE250_randls_33.json,http://54.235.29.9/FacialAge/BNav_EC2/DepthDuration/v2_depth_duration_MTurk/v2_DepthDuration_HTML.html#206,206,1440,900,1440,900,8-30-2022,8-53-47,129,depth_duration_stimuli/000739_2014-06-08_18-45-58_260595134347_rgbf000068-resize_1/000739_2014-06-08_18-45-58_260595134347_rgbf000068-resize_1-target.png,250,3.534,3,1929,252,feet,jsons/v1_VE250_randls_33.json,613712,863538,31,Woman
129,867654,DepthScenes,duration_manipulation_targetAtFixation,jsons/v1_VE250_randls_33.json,http://54.235.29.9/FacialAge/BNav_EC2/DepthDuration/v2_depth_duration_MTurk/v2_DepthDuration_HTML.html#206,206,1440,900,1440,900,8-30-2022,8-53-47,130,depth_duration_stimuli/000734_2014-06-08_17-39-11_260595134347_rgbf000128-resize_2/000734_2014-06-08_17-39-11_260595134347_rgbf000128-resize_2-target.png,250,4.098,3,2096,249,feet,jsons/v1_VE250_randls_33.json,613712,863538,31,Woman
130,867654,DepthScenes,duration_manipulation_targetAtFixation,jsons/v1_VE250_randls_33.json,http://54.235.29.9/FacialAge/BNav_EC2/DepthDuration/v2_depth_duration_MTurk/v2_DepthDuration_HTML.html#206,206,1440,900,1440,900,8-30-2022,8-53-47,131,depth_duration_stimuli/000469_2014-06-09_19-42-10_260595134347_rgbf000081-resize_1/000469_2014-06-09_19-42-10_260595134347_rgbf000081-resize_1-target.png,250,1.652,2,2240,244,feet,jsons/v1_VE250_randls_33.json,613712,863538,31,Woman
131,867654,DepthScenes,duration_manipulation_targetAtFixation,jsons/v1_VE250_randls_33.json,http://54.235.29.9/FacialAge/BNav_EC2/DepthDuration/v2_depth_duration_MTurk/v2_DepthDuration_HTML.html#206,206,1440,900,1440,900,8-30-2022,8-53-47,132,depth_duration_stimuli/000483_2014-06-09_20-41-45_260595134347_rgbf000116-resize_4/000483_2014-06-09_20-41-45_260595134347_rgbf000116-resize_4-target.png,250,1.337,2,1815,253,feet,jsons/v1_VE250_randls_33.json,613712,863538,31,Woman
132,867654,DepthScenes,duration_manipulation_targetAtFixation,jsons/v1_VE250_randls_33.json,http://54.235.29.9/FacialAge/BNav_EC2/DepthDuration/v2_depth_duration_MTurk/v2_DepthDuration_HTML.html#206,206,1440,900,1440,900,8-30-2022,8-53-47,133,depth_duration_stimuli/002748_2014-06-22_19-07-22_094959634447_rgbf000078-resize_1/002748_2014-06-22_19-07-22_094959634447_rgbf000078-resize_1-target.png,250,4.6705,3,2315,251,feet,jsons/v1_VE250_randls_33.json,613712,863538,31,Woman
133,867654,DepthScenes,duration_manipulation_targetAtFixation,jsons/v1_VE250_randls_33.json,http://54.235.29.9/FacialAge/BNav_EC2/DepthDuration/v2_depth_duration_MTurk/v2_DepthDuration_HTML.html#206,206,1440,900,1440,900,8-30-2022,8-53-47,134,depth_duration_stimuli/002995_2014-06-15_12-31-26_094959634447_rgbf000150-resize_1/002995_2014-06-15_12-31-26_094959634447_rgbf000150-resize_1-target.png,250,3.8360000000000003,2,1901,250,feet,jsons/v1_VE250_randls_33.json,613712,863538,31,Woman
134,867654,DepthScenes,duration_manipulation_targetAtFixation,jsons/v1_VE250_randls_33.json,http://54.235.29.9/FacialAge/BNav_EC2/DepthDuration/v2_depth_duration_MTurk/v2_DepthDuration_HTML.html#206,206,1440,900,1440,900,8-30-2022,8-53-47,135,depth_duration_stimuli/002072_2014-06-24_21-48-06_260595134347_rgbf000115-resize_0/002072_2014-06-24_21-48-06_260595134347_rgbf000115-resize-original.jpg,250,4.702,0,2828,248,feet,jsons/v1_VE250_randls_33.json,613712,863538,31,Woman
135,867654,DepthScenes,duration_manipulation_targetAtFixation,jsons/v1_VE250_randls_33.json,http://54.235.29.9/FacialAge/BNav_EC2/DepthDuration/v2_depth_duration_MTurk/v2_DepthDuration_HTML.html#206,206,1440,900,1440,900,8-30-2022,8-53-47,136,depth_duration_stimuli/003292_2014-05-14_21-53-49_094959634447_rgbf000100-resize_2/003292_2014-05-14_21-53-49_094959634447_rgbf000100-resize_2-target.png,250,3.4815,3,2132,252,feet,jsons/v1_VE250_randls_33.json,613712,863538,31,Woman
136,867654,DepthScenes,duration_manipulation_targetAtFixation,jsons/v1_VE250_randls_33.json,http://54.235.29.9/FacialAge/BNav_EC2/DepthDuration/v2_depth_duration_MTurk/v2_DepthDuration_HTML.html#206,206,1440,900,1440,900,8-30-2022,8-53-47,137,depth_duration_stimuli/002639_2014-06-24_14-51-37_094959634447_rgbf000074-resize_4/002639_2014-06-24_14-51-37_094959634447_rgbf000074-resize_4-target.png,250,4.0375,3,1983,248,feet,jsons/v1_VE250_randls_33.json,613712,863538,31,Woman
137,867654,DepthScenes,duration_manipulation_targetAtFixation,jsons/v1_VE250_randls_33.json,http://54.235.29.9/FacialAge/BNav_EC2/DepthDuration/v2_depth_duration_MTurk/v2_DepthDuration_HTML.html#206,206,1440,900,1440,900,8-30-2022,8-53-47,138,depth_duration_stimuli/003621_2014-05-23_18-06-08_094959634447_rgbf000101-resize_1/003621_2014-05-23_18-06-08_094959634447_rgbf000101-resize_1-target.png,250,3.9835,4,2048,253,feet,jsons/v1_VE250_randls_33.json,613712,863538,31,Woman
138,867654,DepthScenes,duration_manipulation_targetAtFixation,jsons/v1_VE250_randls_33.json,http://54.235.29.9/FacialAge/BNav_EC2/DepthDuration/v2_depth_duration_MTurk/v2_DepthDuration_HTML.html#206,206,1440,900,1440,900,8-30-2022,8-53-47,139,depth_duration_stimuli/001584_2014-06-20_11-07-43_260595134347_rgbf000002-resize_1/001584_2014-06-20_11-07-43_260595134347_rgbf000002-resize_1-target.png,250,3.53,4,2050,253,feet,jsons/v1_VE250_randls_33.json,613712,863538,31,Woman
139,867654,DepthScenes,duration_manipulation_targetAtFixation,jsons/v1_VE250_randls_33.json,http://54.235.29.9/FacialAge/BNav_EC2/DepthDuration/v2_depth_duration_MTurk/v2_DepthDuration_HTML.html#206,206,1440,900,1440,900,8-30-2022,8-53-47,140,depth_duration_stimuli/001029_2014-06-08_13-17-57_260595134347_rgbf000065-resize_1/001029_2014-06-08_13-17-57_260595134347_rgbf000065-resize_1-target.png,250,3.0835,4,2200,254,feet,jsons/v1_VE250_randls_33.json,613712,863538,31,Woman
140,867654,DepthScenes,duration_manipulation_targetAtFixation,jsons/v1_VE250_randls_33.json,http://54.235.29.9/FacialAge/BNav_EC2/DepthDuration/v2_depth_duration_MTurk/v2_DepthDuration_HTML.html#206,206,1440,900,1440,900,8-30-2022,8-53-47,141,depth_duration_stimuli/000677_2014-06-08_23-10-32_260595134347_rgbf000158-resize_6/000677_2014-06-08_23-10-32_260595134347_rgbf000158-resize_6-target.png,250,3.556,3,1896,248,feet,jsons/v1_VE250_randls_33.json,613712,863538,31,Woman
141,867654,DepthScenes,duration_manipulation_targetAtFixation,jsons/v1_VE250_randls_33.json,http://54.235.29.9/FacialAge/BNav_EC2/DepthDuration/v2_depth_duration_MTurk/v2_DepthDuration_HTML.html#206,206,1440,900,1440,900,8-30-2022,8-53-47,142,depth_duration_stimuli/002788_2014-06-22_19-36-03_094959634447_rgbf000088-resize_2/002788_2014-06-22_19-36-03_094959634447_rgbf000088-resize_2-target.png,250,1.6465,3,1966,254,feet,jsons/v1_VE250_randls_33.json,613712,863538,31,Woman
142,867654,DepthScenes,duration_manipulation_targetAtFixation,jsons/v1_VE250_randls_33.json,http://54.235.29.9/FacialAge/BNav_EC2/DepthDuration/v2_depth_duration_MTurk/v2_DepthDuration_HTML.html#206,206,1440,900,1440,900,8-30-2022,8-53-47,143,depth_duration_stimuli/000749_2014-06-08_21-55-06_260595134347_rgbf000070-resize_2/000749_2014-06-08_21-55-06_260595134347_rgbf000070-resize_2-target.png,250,2.331,3,1657,254,feet,jsons/v1_VE250_randls_33.json,613712,863538,31,Woman
143,867654,DepthScenes,duration_manipulation_targetAtFixation,jsons/v1_VE250_randls_33.json,http://54.235.29.9/FacialAge/BNav_EC2/DepthDuration/v2_depth_duration_MTurk/v2_DepthDuration_HTML.html#206,206,1440,900,1440,900,8-30-2022,8-53-47,144,depth_duration_stimuli/002118_2014-06-25_20-32-08_260595134347_rgbf000078-resize_1/002118_2014-06-25_20-32-08_260595134347_rgbf000078-resize_1-target.png,250,2.6460000000000004,2,1702,250,feet,jsons/v1_VE250_randls_33.json,613712,863538,31,Woman
144,867654,DepthScenes,duration_manipulation_targetAtFixation,jsons/v1_VE250_randls_33.json,http://54.235.29.9/FacialAge/BNav_EC2/DepthDuration/v2_depth_duration_MTurk/v2_DepthDuration_HTML.html#206,206,1440,900,1440,900,8-30-2022,8-53-47,145,depth_duration_stimuli/001516_2014-06-20_16-25-09_260595134347_rgbf000076-resize_2/001516_2014-06-20_16-25-09_260595134347_rgbf000076-resize_2-target.png,250,1.7445,4,2080,246,feet,jsons/v1_VE250_randls_33.json,613712,863538,31,Woman
145,867654,DepthScenes,duration_manipulation_targetAtFixation,jsons/v1_VE250_randls_33.json,http://54.235.29.9/FacialAge/BNav_EC2/DepthDuration/v2_depth_duration_MTurk/v2_DepthDuration_HTML.html#206,206,1440,900,1440,900,8-30-2022,8-53-47,146,depth_duration_stimuli/001498_2014-06-19_17-45-14_260595134347_rgbf000129-resize_4/001498_2014-06-19_17-45-14_260595134347_rgbf000129-resize-original.jpg,250,1.4075,0,2315,249,feet,jsons/v1_VE250_randls_33.json,613712,863538,31,Woman
146,867654,DepthScenes,duration_manipulation_targetAtFixation,jsons/v1_VE250_randls_33.json,http://54.235.29.9/FacialAge/BNav_EC2/DepthDuration/v2_depth_duration_MTurk/v2_DepthDuration_HTML.html#206,206,1440,900,1440,900,8-30-2022,8-53-47,147,depth_duration_stimuli/000642_2014-06-08_16-59-25_260595134347_rgbf000098-resize_2/000642_2014-06-08_16-59-25_260595134347_rgbf000098-resize_2-target.png,250,2.8815,3,4345,251,feet,jsons/v1_VE250_randls_33.json,613712,863538,31,Woman
147,867654,DepthScenes,duration_manipulation_targetAtFixation,jsons/v1_VE250_randls_33.json,http://54.235.29.9/FacialAge/BNav_EC2/DepthDuration/v2_depth_duration_MTurk/v2_DepthDuration_HTML.html#206,206,1440,900,1440,900,8-30-2022,8-53-47,148,depth_duration_stimuli/002425_2014-06-28_20-27-29_260595134347_rgbf000031-resize_8/002425_2014-06-28_20-27-29_260595134347_rgbf000031-resize_8-target.png,250,3.8960000000000004,5,2185,250,feet,jsons/v1_VE250_randls_33.json,613712,863538,31,Woman
148,867654,DepthScenes,duration_manipulation_targetAtFixation,jsons/v1_VE250_randls_33.json,http://54.235.29.9/FacialAge/BNav_EC2/DepthDuration/v2_depth_duration_MTurk/v2_DepthDuration_HTML.html#206,206,1440,900,1440,900,8-30-2022,8-53-47,149,depth_duration_stimuli/002153_2014-06-25_21-27-18_260595134347_rgbf000038-resize_5/002153_2014-06-25_21-27-18_260595134347_rgbf000038-resize_5-target.png,250,2.505,2,2367,254,feet,jsons/v1_VE250_randls_33.json,613712,863538,31,Woman
149,867654,DepthScenes,duration_manipulation_targetAtFixation,jsons/v1_VE250_randls_33.json,http://54.235.29.9/FacialAge/BNav_EC2/DepthDuration/v2_depth_duration_MTurk/v2_DepthDuration_HTML.html#206,206,1440,900,1440,900,8-30-2022,8-53-47,150,depth_duration_stimuli/002660_2014-06-13_15-44-18_094959634447_rgbf001878-resize_2/002660_2014-06-13_15-44-18_094959634447_rgbf001878-resize_2-target.png,250,3.576,4,2145,251,feet,jsons/v1_VE250_randls_33.json,613712,863538,31,Woman
150,867654,DepthScenes,duration_manipulation_targetAtFixation,jsons/v1_VE250_randls_33.json,http://54.235.29.9/FacialAge/BNav_EC2/DepthDuration/v2_depth_duration_MTurk/v2_DepthDuration_HTML.html#206,206,1440,900,1440,900,8-30-2022,8-53-47,151,depth_duration_stimuli/001056_2014-06-08_18-46-44_260595134347_rgbf000068-resize_0/001056_2014-06-08_18-46-44_260595134347_rgbf000068-resize_0-target.png,250,2.6625,3,2200,250,feet,jsons/v1_VE250_randls_33.json,613712,863538,31,Woman
151,867654,DepthScenes,duration_manipulation_targetAtFixation,jsons/v1_VE250_randls_33.json,http://54.235.29.9/FacialAge/BNav_EC2/DepthDuration/v2_depth_duration_MTurk/v2_DepthDuration_HTML.html#206,206,1440,900,1440,900,8-30-2022,8-53-47,152,depth_duration_stimuli/002199_2014-06-28_18-33-56_260595134347_rgbf000074-resize_0/002199_2014-06-28_18-33-56_260595134347_rgbf000074-resize_0-target.png,250,1.996,2,1613,251,feet,jsons/v1_VE250_randls_33.json,613712,863538,31,Woman
152,867654,DepthScenes,duration_manipulation_targetAtFixation,jsons/v1_VE250_randls_33.json,http://54.235.29.9/FacialAge/BNav_EC2/DepthDuration/v2_depth_duration_MTurk/v2_DepthDuration_HTML.html#206,206,1440,900,1440,900,8-30-2022,8-53-47,153,depth_duration_stimuli/000810_2014-06-08_17-20-01_260595134347_rgbf000105-resize_0/000810_2014-06-08_17-20-01_260595134347_rgbf000105-resize_0-target.png,250,1.4865,2,2197,252,feet,jsons/v1_VE250_randls_33.json,613712,863538,31,Woman
153,867654,DepthScenes,duration_manipulation_targetAtFixation,jsons/v1_VE250_randls_33.json,http://54.235.29.9/FacialAge/BNav_EC2/DepthDuration/v2_depth_duration_MTurk/v2_DepthDuration_HTML.html#206,206,1440,900,1440,900,8-30-2022,8-53-47,154,depth_duration_stimuli/001214_2014-06-17_16-13-55_260595134347_rgbf000111-resize_0/001214_2014-06-17_16-13-55_260595134347_rgbf000111-resize_0-target.png,250,2.6505,2,1798,250,feet,jsons/v1_VE250_randls_33.json,613712,863538,31,Woman
154,867654,DepthScenes,duration_manipulation_targetAtFixation,jsons/v1_VE250_randls_33.json,http://54.235.29.9/FacialAge/BNav_EC2/DepthDuration/v2_depth_duration_MTurk/v2_DepthDuration_HTML.html#206,206,1440,900,1440,900,8-30-2022,8-53-47,155,depth_duration_stimuli/002784_2014-06-22_19-26-30_094959634447_rgbf000083-resize_3/002784_2014-06-22_19-26-30_094959634447_rgbf000083-resize_3-target.png,250,1.8046666666667,2,13033,251,feet,jsons/v1_VE250_randls_33.json,613712,863538,31,Woman
155,867654,DepthScenes,duration_manipulation_targetAtFixation,jsons/v1_VE250_randls_33.json,http://54.235.29.9/FacialAge/BNav_EC2/DepthDuration/v2_depth_duration_MTurk/v2_DepthDuration_HTML.html#206,206,1440,900,1440,900,8-30-2022,8-53-47,156,depth_duration_stimuli/001100_2014-06-15_17-46-26_260595134347_rgbf000225-resize_2/001100_2014-06-15_17-46-26_260595134347_rgbf000225-resize_2-target.png,250,2.24,2,2078,248,feet,jsons/v1_VE250_randls_33.json,613712,863538,31,Woman
156,867654,DepthScenes,duration_manipulation_targetAtFixation,jsons/v1_VE250_randls_33.json,http://54.235.29.9/FacialAge/BNav_EC2/DepthDuration/v2_depth_duration_MTurk/v2_DepthDuration_HTML.html#206,206,1440,900,1440,900,8-30-2022,8-53-47,157,depth_duration_stimuli/001555_2014-06-20_17-12-10_260595134347_rgbf000065-resize_4/001555_2014-06-20_17-12-10_260595134347_rgbf000065-resize_4-target.png,250,1.633,2,3416,250,feet,jsons/v1_VE250_randls_33.json,613712,863538,31,Woman
157,867654,DepthScenes,duration_manipulation_targetAtFixation,jsons/v1_VE250_randls_33.json,http://54.235.29.9/FacialAge/BNav_EC2/DepthDuration/v2_depth_duration_MTurk/v2_DepthDuration_HTML.html#206,206,1440,900,1440,900,8-30-2022,8-53-47,158,depth_duration_stimuli/000103_2014-05-14_22-01-17_260595134347_rgbf000152-resize_5/000103_2014-05-14_22-01-17_260595134347_rgbf000152-resize_5-target.png,250,1.993,5,2216,251,feet,jsons/v1_VE250_randls_33.json,613712,863538,31,Woman
158,867654,DepthScenes,duration_manipulation_targetAtFixation,jsons/v1_VE250_randls_33.json,http://54.235.29.9/FacialAge/BNav_EC2/DepthDuration/v2_depth_duration_MTurk/v2_DepthDuration_HTML.html#206,206,1440,900,1440,900,8-30-2022,8-53-47,159,depth_duration_stimuli/000788_2014-06-08_22-34-36_260595134347_rgbf000131-resize_1/000788_2014-06-08_22-34-36_260595134347_rgbf000131-resize_1-target.png,250,3.359,2,2063,247,feet,jsons/v1_VE250_randls_33.json,613712,863538,31,Woman
159,867654,DepthScenes,duration_manipulation_targetAtFixation,jsons/v1_VE250_randls_33.json,http://54.235.29.9/FacialAge/BNav_EC2/DepthDuration/v2_depth_duration_MTurk/v2_DepthDuration_HTML.html#206,206,1440,900,1440,900,8-30-2022,8-53-47,160,depth_duration_stimuli/001235_2014-06-17_16-37-36_260595134347_rgbf000084-resize_4/001235_2014-06-17_16-37-36_260595134347_rgbf000084-resize_4-target.png,250,3.6605,4,1979,252,feet,jsons/v1_VE250_randls_33.json,613712,863538,31,Woman
160,867654,DepthScenes,duration_manipulation_targetAtFixation,jsons/v1_VE250_randls_33.json,http://54.235.29.9/FacialAge/BNav_EC2/DepthDuration/v2_depth_duration_MTurk/v2_DepthDuration_HTML.html#206,206,1440,900,1440,900,8-30-2022,8-53-47,161,depth_duration_stimuli/001011_2014-06-08_23-18-54_260595134347_rgbf000044-resize_4/001011_2014-06-08_23-18-54_260595134347_rgbf000044-resize_4-target.png,250,2.4730000000000003,4,2030,248,feet,jsons/v1_VE250_randls_33.json,613712,863538,31,Woman
161,867654,DepthScenes,duration_manipulation_targetAtFixation,jsons/v1_VE250_randls_33.json,http://54.235.29.9/FacialAge/BNav_EC2/DepthDuration/v2_depth_duration_MTurk/v2_DepthDuration_HTML.html#206,206,1440,900,1440,900,8-30-2022,8-53-47,162,depth_duration_stimuli/002875_2014-06-01_15-19-00_094959634447_rgbf000151-resize_1/002875_2014-06-01_15-19-00_094959634447_rgbf000151-resize_1-target.png,250,1.9675,5,2146,251,feet,jsons/v1_VE250_randls_33.json,613712,863538,31,Woman
162,867654,DepthScenes,duration_manipulation_targetAtFixation,jsons/v1_VE250_randls_33.json,http://54.235.29.9/FacialAge/BNav_EC2/DepthDuration/v2_depth_duration_MTurk/v2_DepthDuration_HTML.html#206,206,1440,900,1440,900,8-30-2022,8-53-47,163,depth_duration_stimuli/000773_2014-06-08_22-24-54_260595134347_rgbf000093-resize_1/000773_2014-06-08_22-24-54_260595134347_rgbf000093-resize_1-target.png,250,4.973,3,2699,248,feet,jsons/v1_VE250_randls_33.json,613712,863538,31,Woman
163,867654,DepthScenes,duration_manipulation_targetAtFixation,jsons/v1_VE250_randls_33.json,http://54.235.29.9/FacialAge/BNav_EC2/DepthDuration/v2_depth_duration_MTurk/v2_DepthDuration_HTML.html#206,206,1440,900,1440,900,8-30-2022,8-53-47,164,depth_duration_stimuli/002414_2014-06-28_20-24-58_260595134347_rgbf000067-resize_4/002414_2014-06-28_20-24-58_260595134347_rgbf000067-resize_4-target.png,250,4.363,4,2064,252,feet,jsons/v1_VE250_randls_33.json,613712,863538,31,Woman
