,subjID,experimentName,versionName,sequenceName,url,selected_row,windowWidth,windowHeight,screenWidth,screenHeight,startDate,startTime,trial,stimulus,duration,actual_depth,depth_estimate,trial_RT,log_sceneDuration,unitSelection,seq_filepath,experimentTime,totalTime,age,gender
0,868605,DepthScenes,duration_manipulation_targetAtFixation,jsons/VE125_randls_25_rotated.json,http://54.235.29.9/FacialAge/BNav_EC2/DepthDuration/v2_depth_duration_MTurk/v2_DepthDuration_HTML.html#39,39,1707,960,2560,1440,8-21-2022,10-5-54,1,depth_duration_stimuli/001571_2014-06-20_17-21-32_260595134347_rgbf000089-resize_1/001571_2014-06-20_17-21-32_260595134347_rgbf000089-resize_1-target.png,125,1.86,6,2323,125,feet,jsons/VE125_randls_25_rotated.json,390898,572844,26,Woman
1,868605,DepthScenes,duration_manipulation_targetAtFixation,jsons/VE125_randls_25_rotated.json,http://54.235.29.9/FacialAge/BNav_EC2/DepthDuration/v2_depth_duration_MTurk/v2_DepthDuration_HTML.html#39,39,1707,960,2560,1440,8-21-2022,10-5-54,2,depth_duration_stimuli/002272_2014-06-28_18-53-56_260595134347_rgbf000067-resize_2/002272_2014-06-28_18-53-56_260595134347_rgbf000067-resize_2-target.png,125,1.138,6,1601,122,feet,jsons/VE125_randls_25_rotated.json,390898,572844,26,Woman
2,868605,DepthScenes,duration_manipulation_targetAtFixation,jsons/VE125_randls_25_rotated.json,http://54.235.29.9/FacialAge/BNav_EC2/DepthDuration/v2_depth_duration_MTurk/v2_DepthDuration_HTML.html#39,39,1707,960,2560,1440,8-21-2022,10-5-54,3,depth_duration_stimuli/001650_2014-06-20_12-09-00_260595134347_rgbf000087-resize_3/001650_2014-06-20_12-09-00_260595134347_rgbf000087-resize_3-target.png,125,1.9505,5,1710,125,feet,jsons/VE125_randls_25_rotated.json,390898,572844,26,Woman
3,868605,DepthScenes,duration_manipulation_targetAtFixation,jsons/VE125_randls_25_rotated.json,http://54.235.29.9/FacialAge/BNav_EC2/DepthDuration/v2_depth_duration_MTurk/v2_DepthDuration_HTML.html#39,39,1707,960,2560,1440,8-21-2022,10-5-54,4,depth_duration_stimuli/000682_2014-06-08_23-14-58_260595134347_rgbf000041-resize_5/000682_2014-06-08_23-14-58_260595134347_rgbf000041-resize_5-target.png,125,2.7239999999999998,7,2201,125,feet,jsons/VE125_randls_25_rotated.json,390898,572844,26,Woman
4,868605,DepthScenes,duration_manipulation_targetAtFixation,jsons/VE125_randls_25_rotated.json,http://54.235.29.9/FacialAge/BNav_EC2/DepthDuration/v2_depth_duration_MTurk/v2_DepthDuration_HTML.html#39,39,1707,960,2560,1440,8-21-2022,10-5-54,5,depth_duration_stimuli/002414_2014-06-28_20-24-58_260595134347_rgbf000067-resize_4/002414_2014-06-28_20-24-58_260595134347_rgbf000067-resize_4-target.png,125,4.363,7,2098,123,feet,jsons/VE125_randls_25_rotated.json,390898,572844,26,Woman
5,868605,DepthScenes,duration_manipulation_targetAtFixation,jsons/VE125_randls_25_rotated.json,http://54.235.29.9/FacialAge/BNav_EC2/DepthDuration/v2_depth_duration_MTurk/v2_DepthDuration_HTML.html#39,39,1707,960,2560,1440,8-21-2022,10-5-54,6,depth_duration_stimuli/000773_2014-06-08_22-24-54_260595134347_rgbf000093-resize_1/000773_2014-06-08_22-24-54_260595134347_rgbf000093-resize_1-target.png,125,4.973,6,1919,138,feet,jsons/VE125_randls_25_rotated.json,390898,572844,26,Woman
6,868605,DepthScenes,duration_manipulation_targetAtFixation,jsons/VE125_randls_25_rotated.json,http://54.235.29.9/FacialAge/BNav_EC2/DepthDuration/v2_depth_duration_MTurk/v2_DepthDuration_HTML.html#39,39,1707,960,2560,1440,8-21-2022,10-5-54,7,depth_duration_stimuli/000943_2014-06-09_19-31-07_260595134347_rgbf000128-resize_1/000943_2014-06-09_19-31-07_260595134347_rgbf000128-resize_1-target.png,125,1.9765,4,2459,123,feet,jsons/VE125_randls_25_rotated.json,390898,572844,26,Woman
7,868605,DepthScenes,duration_manipulation_targetAtFixation,jsons/VE125_randls_25_rotated.json,http://54.235.29.9/FacialAge/BNav_EC2/DepthDuration/v2_depth_duration_MTurk/v2_DepthDuration_HTML.html#39,39,1707,960,2560,1440,8-21-2022,10-5-54,8,depth_duration_stimuli/003070_2014-06-15_14-58-27_094959634447_rgbf000150-resize_3/003070_2014-06-15_14-58-27_094959634447_rgbf000150-resize_3-target.png,125,2.9415,5,2584,125,feet,jsons/VE125_randls_25_rotated.json,390898,572844,26,Woman
8,868605,DepthScenes,duration_manipulation_targetAtFixation,jsons/VE125_randls_25_rotated.json,http://54.235.29.9/FacialAge/BNav_EC2/DepthDuration/v2_depth_duration_MTurk/v2_DepthDuration_HTML.html#39,39,1707,960,2560,1440,8-21-2022,10-5-54,9,depth_duration_stimuli/003587_2014-05-23_16-48-02_094959634447_rgbf002384-resize_2/003587_2014-05-23_16-48-02_094959634447_rgbf002384-resize_2-target.png,125,1.357,3,3451,136,feet,jsons/VE125_randls_25_rotated.json,390898,572844,26,Woman
9,868605,DepthScenes,duration_manipulation_targetAtFixation,jsons/VE125_randls_25_rotated.json,http://54.235.29.9/FacialAge/BNav_EC2/DepthDuration/v2_depth_duration_MTurk/v2_DepthDuration_HTML.html#39,39,1707,960,2560,1440,8-21-2022,10-5-54,10,depth_duration_stimuli/001167_2014-06-17_15-38-07_260595134347_rgbf000108-resize_0/001167_2014-06-17_15-38-07_260595134347_rgbf000108-resize_0-target.png,125,1.8505,4,1888,136,feet,jsons/VE125_randls_25_rotated.json,390898,572844,26,Woman
10,868605,DepthScenes,duration_manipulation_targetAtFixation,jsons/VE125_randls_25_rotated.json,http://54.235.29.9/FacialAge/BNav_EC2/DepthDuration/v2_depth_duration_MTurk/v2_DepthDuration_HTML.html#39,39,1707,960,2560,1440,8-21-2022,10-5-54,11,depth_duration_stimuli/000677_2014-06-08_23-10-32_260595134347_rgbf000158-resize_6/000677_2014-06-08_23-10-32_260595134347_rgbf000158-resize_6-target.png,125,3.556,5,1696,123,feet,jsons/VE125_randls_25_rotated.json,390898,572844,26,Woman
11,868605,DepthScenes,duration_manipulation_targetAtFixation,jsons/VE125_randls_25_rotated.json,http://54.235.29.9/FacialAge/BNav_EC2/DepthDuration/v2_depth_duration_MTurk/v2_DepthDuration_HTML.html#39,39,1707,960,2560,1440,8-21-2022,10-5-54,12,depth_duration_stimuli/001029_2014-06-08_13-17-57_260595134347_rgbf000065-resize_1/001029_2014-06-08_13-17-57_260595134347_rgbf000065-resize_1-target.png,125,3.0835,7,2434,125,feet,jsons/VE125_randls_25_rotated.json,390898,572844,26,Woman
12,868605,DepthScenes,duration_manipulation_targetAtFixation,jsons/VE125_randls_25_rotated.json,http://54.235.29.9/FacialAge/BNav_EC2/DepthDuration/v2_depth_duration_MTurk/v2_DepthDuration_HTML.html#39,39,1707,960,2560,1440,8-21-2022,10-5-54,13,depth_duration_stimuli/000457_2014-06-08_16-52-43_260595134347_rgbf000199-resize_1/000457_2014-06-08_16-52-43_260595134347_rgbf000199-resize_1-target.png,125,3.6489999999999996,7,2203,127,feet,jsons/VE125_randls_25_rotated.json,390898,572844,26,Woman
13,868605,DepthScenes,duration_manipulation_targetAtFixation,jsons/VE125_randls_25_rotated.json,http://54.235.29.9/FacialAge/BNav_EC2/DepthDuration/v2_depth_duration_MTurk/v2_DepthDuration_HTML.html#39,39,1707,960,2560,1440,8-21-2022,10-5-54,14,depth_duration_stimuli/000929_2014-06-09_16-33-19_260595134347_rgbf000139-resize_0/000929_2014-06-09_16-33-19_260595134347_rgbf000139-resize_0-target.png,125,2.8680000000000003,4,2873,123,feet,jsons/VE125_randls_25_rotated.json,390898,572844,26,Woman
14,868605,DepthScenes,duration_manipulation_targetAtFixation,jsons/VE125_randls_25_rotated.json,http://54.235.29.9/FacialAge/BNav_EC2/DepthDuration/v2_depth_duration_MTurk/v2_DepthDuration_HTML.html#39,39,1707,960,2560,1440,8-21-2022,10-5-54,15,depth_duration_stimuli/002136_2014-06-25_21-18-03_260595134347_rgbf000109-resize_3/002136_2014-06-25_21-18-03_260595134347_rgbf000109-resize_3-target.png,125,1.9569999999999999,4,1921,125,feet,jsons/VE125_randls_25_rotated.json,390898,572844,26,Woman
15,868605,DepthScenes,duration_manipulation_targetAtFixation,jsons/VE125_randls_25_rotated.json,http://54.235.29.9/FacialAge/BNav_EC2/DepthDuration/v2_depth_duration_MTurk/v2_DepthDuration_HTML.html#39,39,1707,960,2560,1440,8-21-2022,10-5-54,16,depth_duration_stimuli/002964_2014-06-08_17-46-11_094959634447_rgbf000091-resize_4/002964_2014-06-08_17-46-11_094959634447_rgbf000091-resize_4-target.png,125,1.6909999999999998,4,2547,124,feet,jsons/VE125_randls_25_rotated.json,390898,572844,26,Woman
16,868605,DepthScenes,duration_manipulation_targetAtFixation,jsons/VE125_randls_25_rotated.json,http://54.235.29.9/FacialAge/BNav_EC2/DepthDuration/v2_depth_duration_MTurk/v2_DepthDuration_HTML.html#39,39,1707,960,2560,1440,8-21-2022,10-5-54,17,depth_duration_stimuli/000734_2014-06-08_17-39-11_260595134347_rgbf000128-resize_2/000734_2014-06-08_17-39-11_260595134347_rgbf000128-resize_2-target.png,125,4.098,7,1618,133,feet,jsons/VE125_randls_25_rotated.json,390898,572844,26,Woman
17,868605,DepthScenes,duration_manipulation_targetAtFixation,jsons/VE125_randls_25_rotated.json,http://54.235.29.9/FacialAge/BNav_EC2/DepthDuration/v2_depth_duration_MTurk/v2_DepthDuration_HTML.html#39,39,1707,960,2560,1440,8-21-2022,10-5-54,18,depth_duration_stimuli/000739_2014-06-08_18-45-58_260595134347_rgbf000068-resize_1/000739_2014-06-08_18-45-58_260595134347_rgbf000068-resize_1-target.png,125,3.534,7,1563,135,feet,jsons/VE125_randls_25_rotated.json,390898,572844,26,Woman
18,868605,DepthScenes,duration_manipulation_targetAtFixation,jsons/VE125_randls_25_rotated.json,http://54.235.29.9/FacialAge/BNav_EC2/DepthDuration/v2_depth_duration_MTurk/v2_DepthDuration_HTML.html#39,39,1707,960,2560,1440,8-21-2022,10-5-54,19,depth_duration_stimuli/001498_2014-06-19_17-45-14_260595134347_rgbf000129-resize_4/001498_2014-06-19_17-45-14_260595134347_rgbf000129-resize-original.jpg,125,1.4075,0,2749,132,feet,jsons/VE125_randls_25_rotated.json,390898,572844,26,Woman
19,868605,DepthScenes,duration_manipulation_targetAtFixation,jsons/VE125_randls_25_rotated.json,http://54.235.29.9/FacialAge/BNav_EC2/DepthDuration/v2_depth_duration_MTurk/v2_DepthDuration_HTML.html#39,39,1707,960,2560,1440,8-21-2022,10-5-54,20,depth_duration_stimuli/000691_2014-06-08_13-08-50_260595134347_rgbf000132-resize_3/000691_2014-06-08_13-08-50_260595134347_rgbf000132-resize_3-target.png,125,4.1530000000000005,6,2897,123,feet,jsons/VE125_randls_25_rotated.json,390898,572844,26,Woman
20,868605,DepthScenes,duration_manipulation_targetAtFixation,jsons/VE125_randls_25_rotated.json,http://54.235.29.9/FacialAge/BNav_EC2/DepthDuration/v2_depth_duration_MTurk/v2_DepthDuration_HTML.html#39,39,1707,960,2560,1440,8-21-2022,10-5-54,21,depth_duration_stimuli/002213_2014-06-28_18-37-58_260595134347_rgbf000055-resize_1/002213_2014-06-28_18-37-58_260595134347_rgbf000055-resize_1-target.png,125,3.62,5,4013,138,feet,jsons/VE125_randls_25_rotated.json,390898,572844,26,Woman
21,868605,DepthScenes,duration_manipulation_targetAtFixation,jsons/VE125_randls_25_rotated.json,http://54.235.29.9/FacialAge/BNav_EC2/DepthDuration/v2_depth_duration_MTurk/v2_DepthDuration_HTML.html#39,39,1707,960,2560,1440,8-21-2022,10-5-54,22,depth_duration_stimuli/003083_2014-06-15_15-21-03_094959634447_rgbf000063-resize_1/003083_2014-06-15_15-21-03_094959634447_rgbf000063-resize_1-target.png,125,4.1405,6,2828,121,feet,jsons/VE125_randls_25_rotated.json,390898,572844,26,Woman
22,868605,DepthScenes,duration_manipulation_targetAtFixation,jsons/VE125_randls_25_rotated.json,http://54.235.29.9/FacialAge/BNav_EC2/DepthDuration/v2_depth_duration_MTurk/v2_DepthDuration_HTML.html#39,39,1707,960,2560,1440,8-21-2022,10-5-54,23,depth_duration_stimuli/000486_2014-06-09_20-47-20_260595134347_rgbf000143-resize_2/000486_2014-06-09_20-47-20_260595134347_rgbf000143-resize_2-target.png,125,4.8325,7,1777,122,feet,jsons/VE125_randls_25_rotated.json,390898,572844,26,Woman
23,868605,DepthScenes,duration_manipulation_targetAtFixation,jsons/VE125_randls_25_rotated.json,http://54.235.29.9/FacialAge/BNav_EC2/DepthDuration/v2_depth_duration_MTurk/v2_DepthDuration_HTML.html#39,39,1707,960,2560,1440,8-21-2022,10-5-54,24,depth_duration_stimuli/001815_2014-06-26_20-52-55_260595134347_rgbf000020-resize_0/001815_2014-06-26_20-52-55_260595134347_rgbf000020-resize_0-target.png,125,3.3865,8,2115,123,feet,jsons/VE125_randls_25_rotated.json,390898,572844,26,Woman
24,868605,DepthScenes,duration_manipulation_targetAtFixation,jsons/VE125_randls_25_rotated.json,http://54.235.29.9/FacialAge/BNav_EC2/DepthDuration/v2_depth_duration_MTurk/v2_DepthDuration_HTML.html#39,39,1707,960,2560,1440,8-21-2022,10-5-54,25,depth_duration_stimuli/001808_2014-06-26_20-50-58_260595134347_rgbf000029-resize_1/001808_2014-06-26_20-50-58_260595134347_rgbf000029-resize_1-target.png,125,4.249,5,1472,124,feet,jsons/VE125_randls_25_rotated.json,390898,572844,26,Woman
25,868605,DepthScenes,duration_manipulation_targetAtFixation,jsons/VE125_randls_25_rotated.json,http://54.235.29.9/FacialAge/BNav_EC2/DepthDuration/v2_depth_duration_MTurk/v2_DepthDuration_HTML.html#39,39,1707,960,2560,1440,8-21-2022,10-5-54,26,depth_duration_stimuli/003129_2014-05-12_10-48-10_094959634447_rgbf000100-resize_0/003129_2014-05-12_10-48-10_094959634447_rgbf000100-resize_0-target.png,125,4.9305,5,1409,123,feet,jsons/VE125_randls_25_rotated.json,390898,572844,26,Woman
26,868605,DepthScenes,duration_manipulation_targetAtFixation,jsons/VE125_randls_25_rotated.json,http://54.235.29.9/FacialAge/BNav_EC2/DepthDuration/v2_depth_duration_MTurk/v2_DepthDuration_HTML.html#39,39,1707,960,2560,1440,8-21-2022,10-5-54,27,depth_duration_stimuli/000414_2014-06-04_19-49-13_260595134347_rgbf000044-resize_0/000414_2014-06-04_19-49-13_260595134347_rgbf000044-resize_0-target.png,125,4.329,8,1868,125,feet,jsons/VE125_randls_25_rotated.json,390898,572844,26,Woman
27,868605,DepthScenes,duration_manipulation_targetAtFixation,jsons/VE125_randls_25_rotated.json,http://54.235.29.9/FacialAge/BNav_EC2/DepthDuration/v2_depth_duration_MTurk/v2_DepthDuration_HTML.html#39,39,1707,960,2560,1440,8-21-2022,10-5-54,28,depth_duration_stimuli/000635_2014-06-08_16-38-42_260595134347_rgbf000106-resize_1/000635_2014-06-08_16-38-42_260595134347_rgbf000106-resize_1-target.png,125,2.074,4,1748,111,feet,jsons/VE125_randls_25_rotated.json,390898,572844,26,Woman
28,868605,DepthScenes,duration_manipulation_targetAtFixation,jsons/VE125_randls_25_rotated.json,http://54.235.29.9/FacialAge/BNav_EC2/DepthDuration/v2_depth_duration_MTurk/v2_DepthDuration_HTML.html#39,39,1707,960,2560,1440,8-21-2022,10-5-54,29,depth_duration_stimuli/002279_2014-06-28_18-55-32_260595134347_rgbf000040-resize_5/002279_2014-06-28_18-55-32_260595134347_rgbf000040-resize_5-target.png,125,1.5043333333333,3,1913,126,feet,jsons/VE125_randls_25_rotated.json,390898,572844,26,Woman
29,868605,DepthScenes,duration_manipulation_targetAtFixation,jsons/VE125_randls_25_rotated.json,http://54.235.29.9/FacialAge/BNav_EC2/DepthDuration/v2_depth_duration_MTurk/v2_DepthDuration_HTML.html#39,39,1707,960,2560,1440,8-21-2022,10-5-54,30,depth_duration_stimuli/002072_2014-06-24_21-48-06_260595134347_rgbf000115-resize_0/002072_2014-06-24_21-48-06_260595134347_rgbf000115-resize-original.jpg,125,4.702,0,3385,134,feet,jsons/VE125_randls_25_rotated.json,390898,572844,26,Woman
30,868605,DepthScenes,duration_manipulation_targetAtFixation,jsons/VE125_randls_25_rotated.json,http://54.235.29.9/FacialAge/BNav_EC2/DepthDuration/v2_depth_duration_MTurk/v2_DepthDuration_HTML.html#39,39,1707,960,2560,1440,8-21-2022,10-5-54,31,depth_duration_stimuli/000137_2014-05-20_17-04-49_260595134347_rgbf000120-resize_1/000137_2014-05-20_17-04-49_260595134347_rgbf000120-resize_1-target.png,125,3.786,6,1342,138,feet,jsons/VE125_randls_25_rotated.json,390898,572844,26,Woman
31,868605,DepthScenes,duration_manipulation_targetAtFixation,jsons/VE125_randls_25_rotated.json,http://54.235.29.9/FacialAge/BNav_EC2/DepthDuration/v2_depth_duration_MTurk/v2_DepthDuration_HTML.html#39,39,1707,960,2560,1440,8-21-2022,10-5-54,32,depth_duration_stimuli/000736_2014-06-08_18-24-15_260595134347_rgbf000206-resize_3/000736_2014-06-08_18-24-15_260595134347_rgbf000206-resize_3-target.png,125,3.515,5,1294,140,feet,jsons/VE125_randls_25_rotated.json,390898,572844,26,Woman
32,868605,DepthScenes,duration_manipulation_targetAtFixation,jsons/VE125_randls_25_rotated.json,http://54.235.29.9/FacialAge/BNav_EC2/DepthDuration/v2_depth_duration_MTurk/v2_DepthDuration_HTML.html#39,39,1707,960,2560,1440,8-21-2022,10-5-54,33,depth_duration_stimuli/002995_2014-06-15_12-31-26_094959634447_rgbf000150-resize_1/002995_2014-06-15_12-31-26_094959634447_rgbf000150-resize_1-target.png,125,3.8360000000000003,8,1454,132,feet,jsons/VE125_randls_25_rotated.json,390898,572844,26,Woman
33,868605,DepthScenes,duration_manipulation_targetAtFixation,jsons/VE125_randls_25_rotated.json,http://54.235.29.9/FacialAge/BNav_EC2/DepthDuration/v2_depth_duration_MTurk/v2_DepthDuration_HTML.html#39,39,1707,960,2560,1440,8-21-2022,10-5-54,34,depth_duration_stimuli/002748_2014-06-22_19-07-22_094959634447_rgbf000078-resize_1/002748_2014-06-22_19-07-22_094959634447_rgbf000078-resize_1-target.png,125,4.6705,7,3101,125,feet,jsons/VE125_randls_25_rotated.json,390898,572844,26,Woman
34,868605,DepthScenes,duration_manipulation_targetAtFixation,jsons/VE125_randls_25_rotated.json,http://54.235.29.9/FacialAge/BNav_EC2/DepthDuration/v2_depth_duration_MTurk/v2_DepthDuration_HTML.html#39,39,1707,960,2560,1440,8-21-2022,10-5-54,35,depth_duration_stimuli/000709_2014-06-08_13-51-55_260595134347_rgbf000068-resize_3/000709_2014-06-08_13-51-55_260595134347_rgbf000068-resize_3-target.png,125,1.8030000000000002,4,1722,138,feet,jsons/VE125_randls_25_rotated.json,390898,572844,26,Woman
35,868605,DepthScenes,duration_manipulation_targetAtFixation,jsons/VE125_randls_25_rotated.json,http://54.235.29.9/FacialAge/BNav_EC2/DepthDuration/v2_depth_duration_MTurk/v2_DepthDuration_HTML.html#39,39,1707,960,2560,1440,8-21-2022,10-5-54,36,depth_duration_stimuli/002057_2014-06-24_21-00-13_260595134347_rgbf000120-resize_1/002057_2014-06-24_21-00-13_260595134347_rgbf000120-resize_1-target.png,125,2.967,8,2254,123,feet,jsons/VE125_randls_25_rotated.json,390898,572844,26,Woman
36,868605,DepthScenes,duration_manipulation_targetAtFixation,jsons/VE125_randls_25_rotated.json,http://54.235.29.9/FacialAge/BNav_EC2/DepthDuration/v2_depth_duration_MTurk/v2_DepthDuration_HTML.html#39,39,1707,960,2560,1440,8-21-2022,10-5-54,37,depth_duration_stimuli/003490_2014-05-21_15-50-11_094959634447_rgbf000101-resize_3/003490_2014-05-21_15-50-11_094959634447_rgbf000101-resize_3-target.png,125,3.6445,7,1882,124,feet,jsons/VE125_randls_25_rotated.json,390898,572844,26,Woman
37,868605,DepthScenes,duration_manipulation_targetAtFixation,jsons/VE125_randls_25_rotated.json,http://54.235.29.9/FacialAge/BNav_EC2/DepthDuration/v2_depth_duration_MTurk/v2_DepthDuration_HTML.html#39,39,1707,960,2560,1440,8-21-2022,10-5-54,38,depth_duration_stimuli/001175_2014-06-17_15-45-55_260595134347_rgbf000129-resize_4/001175_2014-06-17_15-45-55_260595134347_rgbf000129-resize_4-target.png,125,4.255,8,1621,125,feet,jsons/VE125_randls_25_rotated.json,390898,572844,26,Woman
38,868605,DepthScenes,duration_manipulation_targetAtFixation,jsons/VE125_randls_25_rotated.json,http://54.235.29.9/FacialAge/BNav_EC2/DepthDuration/v2_depth_duration_MTurk/v2_DepthDuration_HTML.html#39,39,1707,960,2560,1440,8-21-2022,10-5-54,39,depth_duration_stimuli/000109_2014-05-14_23-41-52_260595134347_rgbf000035-resize_9/000109_2014-05-14_23-41-52_260595134347_rgbf000035-resize_9-target.png,125,1.3545,3,1852,137,feet,jsons/VE125_randls_25_rotated.json,390898,572844,26,Woman
39,868605,DepthScenes,duration_manipulation_targetAtFixation,jsons/VE125_randls_25_rotated.json,http://54.235.29.9/FacialAge/BNav_EC2/DepthDuration/v2_depth_duration_MTurk/v2_DepthDuration_HTML.html#39,39,1707,960,2560,1440,8-21-2022,10-5-54,40,depth_duration_stimuli/000470_2014-06-09_19-42-40_260595134347_rgbf000094-resize_1/000470_2014-06-09_19-42-40_260595134347_rgbf000094-resize_1-target.png,125,1.831,4,1513,124,feet,jsons/VE125_randls_25_rotated.json,390898,572844,26,Woman
40,868605,DepthScenes,duration_manipulation_targetAtFixation,jsons/VE125_randls_25_rotated.json,http://54.235.29.9/FacialAge/BNav_EC2/DepthDuration/v2_depth_duration_MTurk/v2_DepthDuration_HTML.html#39,39,1707,960,2560,1440,8-21-2022,10-5-54,41,depth_duration_stimuli/003338_2014-05-20_11-01-23_094959634447_rgbf000051-resize_6/003338_2014-05-20_11-01-23_094959634447_rgbf000051-resize_6-target.png,125,1.693,4,1430,139,feet,jsons/VE125_randls_25_rotated.json,390898,572844,26,Woman
41,868605,DepthScenes,duration_manipulation_targetAtFixation,jsons/VE125_randls_25_rotated.json,http://54.235.29.9/FacialAge/BNav_EC2/DepthDuration/v2_depth_duration_MTurk/v2_DepthDuration_HTML.html#39,39,1707,960,2560,1440,8-21-2022,10-5-54,42,depth_duration_stimuli/002509_2014-06-24_13-19-22_094959634447_rgbf000077-resize_0/002509_2014-06-24_13-19-22_094959634447_rgbf000077-resize_0-target.png,125,1.3065,4,1915,118,feet,jsons/VE125_randls_25_rotated.json,390898,572844,26,Woman
42,868605,DepthScenes,duration_manipulation_targetAtFixation,jsons/VE125_randls_25_rotated.json,http://54.235.29.9/FacialAge/BNav_EC2/DepthDuration/v2_depth_duration_MTurk/v2_DepthDuration_HTML.html#39,39,1707,960,2560,1440,8-21-2022,10-5-54,43,depth_duration_stimuli/002657_2014-06-13_15-29-54_094959634447_rgbf000150-resize_1/002657_2014-06-13_15-29-54_094959634447_rgbf000150-resize_1-target.png,125,4.919,8,1582,123,feet,jsons/VE125_randls_25_rotated.json,390898,572844,26,Woman
43,868605,DepthScenes,duration_manipulation_targetAtFixation,jsons/VE125_randls_25_rotated.json,http://54.235.29.9/FacialAge/BNav_EC2/DepthDuration/v2_depth_duration_MTurk/v2_DepthDuration_HTML.html#39,39,1707,960,2560,1440,8-21-2022,10-5-54,44,depth_duration_stimuli/002375_2014-06-28_20-13-44_260595134347_rgbf000032-resize_1/002375_2014-06-28_20-13-44_260595134347_rgbf000032-resize_1-target.png,125,4.0175,4,3172,127,feet,jsons/VE125_randls_25_rotated.json,390898,572844,26,Woman
44,868605,DepthScenes,duration_manipulation_targetAtFixation,jsons/VE125_randls_25_rotated.json,http://54.235.29.9/FacialAge/BNav_EC2/DepthDuration/v2_depth_duration_MTurk/v2_DepthDuration_HTML.html#39,39,1707,960,2560,1440,8-21-2022,10-5-54,45,depth_duration_stimuli/003228_2014-05-14_13-42-35_094959634447_rgbf000101-resize_1/003228_2014-05-14_13-42-35_094959634447_rgbf000101-resize_1-target.png,125,1.9680000000000002,2,2064,123,feet,jsons/VE125_randls_25_rotated.json,390898,572844,26,Woman
45,868605,DepthScenes,duration_manipulation_targetAtFixation,jsons/VE125_randls_25_rotated.json,http://54.235.29.9/FacialAge/BNav_EC2/DepthDuration/v2_depth_duration_MTurk/v2_DepthDuration_HTML.html#39,39,1707,960,2560,1440,8-21-2022,10-5-54,46,depth_duration_stimuli/002600_2014-06-24_14-27-04_094959634447_rgbf000074-resize_2/002600_2014-06-24_14-27-04_094959634447_rgbf000074-resize_2-target.png,125,2.7575,4,1385,123,feet,jsons/VE125_randls_25_rotated.json,390898,572844,26,Woman
46,868605,DepthScenes,duration_manipulation_targetAtFixation,jsons/VE125_randls_25_rotated.json,http://54.235.29.9/FacialAge/BNav_EC2/DepthDuration/v2_depth_duration_MTurk/v2_DepthDuration_HTML.html#39,39,1707,960,2560,1440,8-21-2022,10-5-54,47,depth_duration_stimuli/002953_2014-06-08_17-32-18_094959634447_rgbf000059-resize_5/002953_2014-06-08_17-32-18_094959634447_rgbf000059-resize_5-target.png,125,1.551,5,1273,123,feet,jsons/VE125_randls_25_rotated.json,390898,572844,26,Woman
47,868605,DepthScenes,duration_manipulation_targetAtFixation,jsons/VE125_randls_25_rotated.json,http://54.235.29.9/FacialAge/BNav_EC2/DepthDuration/v2_depth_duration_MTurk/v2_DepthDuration_HTML.html#39,39,1707,960,2560,1440,8-21-2022,10-5-54,48,depth_duration_stimuli/000878_2014-06-08_22-52-45_260595134347_rgbf000045-resize_2/000878_2014-06-08_22-52-45_260595134347_rgbf000045-resize_2-target.png,125,2.092,6,1628,122,feet,jsons/VE125_randls_25_rotated.json,390898,572844,26,Woman
48,868605,DepthScenes,duration_manipulation_targetAtFixation,jsons/VE125_randls_25_rotated.json,http://54.235.29.9/FacialAge/BNav_EC2/DepthDuration/v2_depth_duration_MTurk/v2_DepthDuration_HTML.html#39,39,1707,960,2560,1440,8-21-2022,10-5-54,49,depth_duration_stimuli/001170_2014-06-17_15-43-44_260595134347_rgbf000096-resize_6/001170_2014-06-17_15-43-44_260595134347_rgbf000096-resize-original.jpg,125,1.1909999999999998,0,2483,124,feet,jsons/VE125_randls_25_rotated.json,390898,572844,26,Woman
49,868605,DepthScenes,duration_manipulation_targetAtFixation,jsons/VE125_randls_25_rotated.json,http://54.235.29.9/FacialAge/BNav_EC2/DepthDuration/v2_depth_duration_MTurk/v2_DepthDuration_HTML.html#39,39,1707,960,2560,1440,8-21-2022,10-5-54,50,depth_duration_stimuli/002545_2014-06-24_13-38-53_094959634447_rgbf000080-resize_4/002545_2014-06-24_13-38-53_094959634447_rgbf000080-resize_4-target.png,125,1.9205,6,1935,125,feet,jsons/VE125_randls_25_rotated.json,390898,572844,26,Woman
50,868605,DepthScenes,duration_manipulation_targetAtFixation,jsons/VE125_randls_25_rotated.json,http://54.235.29.9/FacialAge/BNav_EC2/DepthDuration/v2_depth_duration_MTurk/v2_DepthDuration_HTML.html#39,39,1707,960,2560,1440,8-21-2022,10-5-54,51,depth_duration_stimuli/001092_2014-06-15_17-34-58_260595134347_rgbf000171-resize_3/001092_2014-06-15_17-34-58_260595134347_rgbf000171-resize_3-target.png,125,2.6935,4,1678,125,feet,jsons/VE125_randls_25_rotated.json,390898,572844,26,Woman
51,868605,DepthScenes,duration_manipulation_targetAtFixation,jsons/VE125_randls_25_rotated.json,http://54.235.29.9/FacialAge/BNav_EC2/DepthDuration/v2_depth_duration_MTurk/v2_DepthDuration_HTML.html#39,39,1707,960,2560,1440,8-21-2022,10-5-54,52,depth_duration_stimuli/002199_2014-06-28_18-33-56_260595134347_rgbf000074-resize_0/002199_2014-06-28_18-33-56_260595134347_rgbf000074-resize_0-target.png,125,1.996,3,1398,125,feet,jsons/VE125_randls_25_rotated.json,390898,572844,26,Woman
52,868605,DepthScenes,duration_manipulation_targetAtFixation,jsons/VE125_randls_25_rotated.json,http://54.235.29.9/FacialAge/BNav_EC2/DepthDuration/v2_depth_duration_MTurk/v2_DepthDuration_HTML.html#39,39,1707,960,2560,1440,8-21-2022,10-5-54,53,depth_duration_stimuli/001056_2014-06-08_18-46-44_260595134347_rgbf000068-resize_0/001056_2014-06-08_18-46-44_260595134347_rgbf000068-resize_0-target.png,125,2.6625,0,2479,132,feet,jsons/VE125_randls_25_rotated.json,390898,572844,26,Woman
53,868605,DepthScenes,duration_manipulation_targetAtFixation,jsons/VE125_randls_25_rotated.json,http://54.235.29.9/FacialAge/BNav_EC2/DepthDuration/v2_depth_duration_MTurk/v2_DepthDuration_HTML.html#39,39,1707,960,2560,1440,8-21-2022,10-5-54,54,depth_duration_stimuli/000483_2014-06-09_20-41-45_260595134347_rgbf000116-resize_4/000483_2014-06-09_20-41-45_260595134347_rgbf000116-resize_4-target.png,125,1.337,3,1571,113,feet,jsons/VE125_randls_25_rotated.json,390898,572844,26,Woman
54,868605,DepthScenes,duration_manipulation_targetAtFixation,jsons/VE125_randls_25_rotated.json,http://54.235.29.9/FacialAge/BNav_EC2/DepthDuration/v2_depth_duration_MTurk/v2_DepthDuration_HTML.html#39,39,1707,960,2560,1440,8-21-2022,10-5-54,55,depth_duration_stimuli/000469_2014-06-09_19-42-10_260595134347_rgbf000081-resize_1/000469_2014-06-09_19-42-10_260595134347_rgbf000081-resize_1-target.png,125,1.652,0,3651,124,feet,jsons/VE125_randls_25_rotated.json,390898,572844,26,Woman
55,868605,DepthScenes,duration_manipulation_targetAtFixation,jsons/VE125_randls_25_rotated.json,http://54.235.29.9/FacialAge/BNav_EC2/DepthDuration/v2_depth_duration_MTurk/v2_DepthDuration_HTML.html#39,39,1707,960,2560,1440,8-21-2022,10-5-54,56,depth_duration_stimuli/002660_2014-06-13_15-44-18_094959634447_rgbf001878-resize_2/002660_2014-06-13_15-44-18_094959634447_rgbf001878-resize_2-target.png,125,3.576,8,2554,123,feet,jsons/VE125_randls_25_rotated.json,390898,572844,26,Woman
56,868605,DepthScenes,duration_manipulation_targetAtFixation,jsons/VE125_randls_25_rotated.json,http://54.235.29.9/FacialAge/BNav_EC2/DepthDuration/v2_depth_duration_MTurk/v2_DepthDuration_HTML.html#39,39,1707,960,2560,1440,8-21-2022,10-5-54,57,depth_duration_stimuli/002153_2014-06-25_21-27-18_260595134347_rgbf000038-resize_5/002153_2014-06-25_21-27-18_260595134347_rgbf000038-resize_5-target.png,125,2.505,4,1528,128,feet,jsons/VE125_randls_25_rotated.json,390898,572844,26,Woman
57,868605,DepthScenes,duration_manipulation_targetAtFixation,jsons/VE125_randls_25_rotated.json,http://54.235.29.9/FacialAge/BNav_EC2/DepthDuration/v2_depth_duration_MTurk/v2_DepthDuration_HTML.html#39,39,1707,960,2560,1440,8-21-2022,10-5-54,58,depth_duration_stimuli/001828_2014-06-26_21-40-03_260595134347_rgbf000024-resize_0/001828_2014-06-26_21-40-03_260595134347_rgbf000024-resize_0-target.png,125,4.8260000000000005,8,1616,123,feet,jsons/VE125_randls_25_rotated.json,390898,572844,26,Woman
58,868605,DepthScenes,duration_manipulation_targetAtFixation,jsons/VE125_randls_25_rotated.json,http://54.235.29.9/FacialAge/BNav_EC2/DepthDuration/v2_depth_duration_MTurk/v2_DepthDuration_HTML.html#39,39,1707,960,2560,1440,8-21-2022,10-5-54,59,depth_duration_stimuli/000009_2014-05-26_14-32-05_260595134347_rgbf000034-resize_3/000009_2014-05-26_14-32-05_260595134347_rgbf000034-resize_3-target.png,125,3.8715,9,1769,122,feet,jsons/VE125_randls_25_rotated.json,390898,572844,26,Woman
59,868605,DepthScenes,duration_manipulation_targetAtFixation,jsons/VE125_randls_25_rotated.json,http://54.235.29.9/FacialAge/BNav_EC2/DepthDuration/v2_depth_duration_MTurk/v2_DepthDuration_HTML.html#39,39,1707,960,2560,1440,8-21-2022,10-5-54,60,depth_duration_stimuli/002340_2014-06-28_20-05-46_260595134347_rgbf000113-resize_0/002340_2014-06-28_20-05-46_260595134347_rgbf000113-resize_0-target.png,125,2.4735,8,1586,123,feet,jsons/VE125_randls_25_rotated.json,390898,572844,26,Woman
60,868605,DepthScenes,duration_manipulation_targetAtFixation,jsons/VE125_randls_25_rotated.json,http://54.235.29.9/FacialAge/BNav_EC2/DepthDuration/v2_depth_duration_MTurk/v2_DepthDuration_HTML.html#39,39,1707,960,2560,1440,8-21-2022,10-5-54,61,depth_duration_stimuli/001016_2014-06-09_16-16-10_260595134347_rgbf000112-resize_5/001016_2014-06-09_16-16-10_260595134347_rgbf000112-resize_5-target.png,125,1.6565,4,1591,128,feet,jsons/VE125_randls_25_rotated.json,390898,572844,26,Woman
61,868605,DepthScenes,duration_manipulation_targetAtFixation,jsons/VE125_randls_25_rotated.json,http://54.235.29.9/FacialAge/BNav_EC2/DepthDuration/v2_depth_duration_MTurk/v2_DepthDuration_HTML.html#39,39,1707,960,2560,1440,8-21-2022,10-5-54,62,depth_duration_stimuli/000749_2014-06-08_21-55-06_260595134347_rgbf000070-resize_2/000749_2014-06-08_21-55-06_260595134347_rgbf000070-resize_2-target.png,125,2.331,5,1320,123,feet,jsons/VE125_randls_25_rotated.json,390898,572844,26,Woman
62,868605,DepthScenes,duration_manipulation_targetAtFixation,jsons/VE125_randls_25_rotated.json,http://54.235.29.9/FacialAge/BNav_EC2/DepthDuration/v2_depth_duration_MTurk/v2_DepthDuration_HTML.html#39,39,1707,960,2560,1440,8-21-2022,10-5-54,63,depth_duration_stimuli/002788_2014-06-22_19-36-03_094959634447_rgbf000088-resize_2/002788_2014-06-22_19-36-03_094959634447_rgbf000088-resize_2-target.png,125,1.6465,6,1570,123,feet,jsons/VE125_randls_25_rotated.json,390898,572844,26,Woman
63,868605,DepthScenes,duration_manipulation_targetAtFixation,jsons/VE125_randls_25_rotated.json,http://54.235.29.9/FacialAge/BNav_EC2/DepthDuration/v2_depth_duration_MTurk/v2_DepthDuration_HTML.html#39,39,1707,960,2560,1440,8-21-2022,10-5-54,64,depth_duration_stimuli/001516_2014-06-20_16-25-09_260595134347_rgbf000076-resize_2/001516_2014-06-20_16-25-09_260595134347_rgbf000076-resize_2-target.png,125,1.7445,4,1637,116,feet,jsons/VE125_randls_25_rotated.json,390898,572844,26,Woman
64,868605,DepthScenes,duration_manipulation_targetAtFixation,jsons/VE125_randls_25_rotated.json,http://54.235.29.9/FacialAge/BNav_EC2/DepthDuration/v2_depth_duration_MTurk/v2_DepthDuration_HTML.html#39,39,1707,960,2560,1440,8-21-2022,10-5-54,65,depth_duration_stimuli/002118_2014-06-25_20-32-08_260595134347_rgbf000078-resize_1/002118_2014-06-25_20-32-08_260595134347_rgbf000078-resize_1-target.png,125,2.6460000000000004,5,1337,122,feet,jsons/VE125_randls_25_rotated.json,390898,572844,26,Woman
65,868605,DepthScenes,duration_manipulation_targetAtFixation,jsons/VE125_randls_25_rotated.json,http://54.235.29.9/FacialAge/BNav_EC2/DepthDuration/v2_depth_duration_MTurk/v2_DepthDuration_HTML.html#39,39,1707,960,2560,1440,8-21-2022,10-5-54,66,depth_duration_stimuli/001540_2014-06-20_17-01-05_260595134347_rgbf000086-resize_2/001540_2014-06-20_17-01-05_260595134347_rgbf000086-resize-original.jpg,125,1.459,0,2130,130,feet,jsons/VE125_randls_25_rotated.json,390898,572844,26,Woman
66,868605,DepthScenes,duration_manipulation_targetAtFixation,jsons/VE125_randls_25_rotated.json,http://54.235.29.9/FacialAge/BNav_EC2/DepthDuration/v2_depth_duration_MTurk/v2_DepthDuration_HTML.html#39,39,1707,960,2560,1440,8-21-2022,10-5-54,67,depth_duration_stimuli/001136_2014-06-17_15-19-41_260595134347_rgbf000076-resize_3/001136_2014-06-17_15-19-41_260595134347_rgbf000076-resize_3-target.png,125,1.8655,4,1585,129,feet,jsons/VE125_randls_25_rotated.json,390898,572844,26,Woman
67,868605,DepthScenes,duration_manipulation_targetAtFixation,jsons/VE125_randls_25_rotated.json,http://54.235.29.9/FacialAge/BNav_EC2/DepthDuration/v2_depth_duration_MTurk/v2_DepthDuration_HTML.html#39,39,1707,960,2560,1440,8-21-2022,10-5-54,68,depth_duration_stimuli/001164_2014-06-17_15-35-46_260595134347_rgbf000085-resize_3/001164_2014-06-17_15-35-46_260595134347_rgbf000085-resize_3-target.png,125,2.354,5,1831,134,feet,jsons/VE125_randls_25_rotated.json,390898,572844,26,Woman
68,868605,DepthScenes,duration_manipulation_targetAtFixation,jsons/VE125_randls_25_rotated.json,http://54.235.29.9/FacialAge/BNav_EC2/DepthDuration/v2_depth_duration_MTurk/v2_DepthDuration_HTML.html#39,39,1707,960,2560,1440,8-21-2022,10-5-54,69,depth_duration_stimuli/000866_2014-06-09_20-45-42_260595134347_rgbf000139-resize_1/000866_2014-06-09_20-45-42_260595134347_rgbf000139-resize_1-target.png,125,3.2155,7,1557,128,feet,jsons/VE125_randls_25_rotated.json,390898,572844,26,Woman
69,868605,DepthScenes,duration_manipulation_targetAtFixation,jsons/VE125_randls_25_rotated.json,http://54.235.29.9/FacialAge/BNav_EC2/DepthDuration/v2_depth_duration_MTurk/v2_DepthDuration_HTML.html#39,39,1707,960,2560,1440,8-21-2022,10-5-54,70,depth_duration_stimuli/002989_2014-06-15_12-25-03_094959634447_rgbf000150-resize_3/002989_2014-06-15_12-25-03_094959634447_rgbf000150-resize_3-target.png,125,4.1975,8,1440,125,feet,jsons/VE125_randls_25_rotated.json,390898,572844,26,Woman
70,868605,DepthScenes,duration_manipulation_targetAtFixation,jsons/VE125_randls_25_rotated.json,http://54.235.29.9/FacialAge/BNav_EC2/DepthDuration/v2_depth_duration_MTurk/v2_DepthDuration_HTML.html#39,39,1707,960,2560,1440,8-21-2022,10-5-54,71,depth_duration_stimuli/002103_2014-06-25_20-00-40_260595134347_rgbf000049-resize_0/002103_2014-06-25_20-00-40_260595134347_rgbf000049-resize_0-target.png,125,4.105,8,1310,138,feet,jsons/VE125_randls_25_rotated.json,390898,572844,26,Woman
71,868605,DepthScenes,duration_manipulation_targetAtFixation,jsons/VE125_randls_25_rotated.json,http://54.235.29.9/FacialAge/BNav_EC2/DepthDuration/v2_depth_duration_MTurk/v2_DepthDuration_HTML.html#39,39,1707,960,2560,1440,8-21-2022,10-5-54,72,depth_duration_stimuli/002039_2014-06-24_20-22-38_260595134347_rgbf000084-resize_1/002039_2014-06-24_20-22-38_260595134347_rgbf000084-resize_1-target.png,125,4.408,8,1306,125,feet,jsons/VE125_randls_25_rotated.json,390898,572844,26,Woman
72,868605,DepthScenes,duration_manipulation_targetAtFixation,jsons/VE125_randls_25_rotated.json,http://54.235.29.9/FacialAge/BNav_EC2/DepthDuration/v2_depth_duration_MTurk/v2_DepthDuration_HTML.html#39,39,1707,960,2560,1440,8-21-2022,10-5-54,73,depth_duration_stimuli/000191_2014-05-12_17-07-38_260595134347_rgbf000199-resize_0/000191_2014-05-12_17-07-38_260595134347_rgbf000199-resize_0-target.png,125,3.7995,9,1462,125,feet,jsons/VE125_randls_25_rotated.json,390898,572844,26,Woman
73,868605,DepthScenes,duration_manipulation_targetAtFixation,jsons/VE125_randls_25_rotated.json,http://54.235.29.9/FacialAge/BNav_EC2/DepthDuration/v2_depth_duration_MTurk/v2_DepthDuration_HTML.html#39,39,1707,960,2560,1440,8-21-2022,10-5-54,74,depth_duration_stimuli/000493_2014-06-09_21-01-18_260595134347_rgbf000196-resize_3/000493_2014-06-09_21-01-18_260595134347_rgbf000196-resize_3-target.png,125,3.44,5,1431,124,feet,jsons/VE125_randls_25_rotated.json,390898,572844,26,Woman
74,868605,DepthScenes,duration_manipulation_targetAtFixation,jsons/VE125_randls_25_rotated.json,http://54.235.29.9/FacialAge/BNav_EC2/DepthDuration/v2_depth_duration_MTurk/v2_DepthDuration_HTML.html#39,39,1707,960,2560,1440,8-21-2022,10-5-54,75,depth_duration_stimuli/001617_2014-06-20_11-35-32_260595134347_rgbf000066-resize_1/001617_2014-06-20_11-35-32_260595134347_rgbf000066-resize_1-target.png,125,3.7910000000000004,6,2127,122,feet,jsons/VE125_randls_25_rotated.json,390898,572844,26,Woman
75,868605,DepthScenes,duration_manipulation_targetAtFixation,jsons/VE125_randls_25_rotated.json,http://54.235.29.9/FacialAge/BNav_EC2/DepthDuration/v2_depth_duration_MTurk/v2_DepthDuration_HTML.html#39,39,1707,960,2560,1440,8-21-2022,10-5-54,76,depth_duration_stimuli/001806_2014-06-26_20-50-20_260595134347_rgbf000091-resize_1/001806_2014-06-26_20-50-20_260595134347_rgbf000091-resize_1-target.png,125,2.7305,3,1455,125,feet,jsons/VE125_randls_25_rotated.json,390898,572844,26,Woman
76,868605,DepthScenes,duration_manipulation_targetAtFixation,jsons/VE125_randls_25_rotated.json,http://54.235.29.9/FacialAge/BNav_EC2/DepthDuration/v2_depth_duration_MTurk/v2_DepthDuration_HTML.html#39,39,1707,960,2560,1440,8-21-2022,10-5-54,77,depth_duration_stimuli/002568_2014-06-24_13-59-21_094959634447_rgbf000062-resize_4/002568_2014-06-24_13-59-21_094959634447_rgbf000062-resize_4-target.png,125,3.015,3,1622,125,feet,jsons/VE125_randls_25_rotated.json,390898,572844,26,Woman
77,868605,DepthScenes,duration_manipulation_targetAtFixation,jsons/VE125_randls_25_rotated.json,http://54.235.29.9/FacialAge/BNav_EC2/DepthDuration/v2_depth_duration_MTurk/v2_DepthDuration_HTML.html#39,39,1707,960,2560,1440,8-21-2022,10-5-54,78,depth_duration_stimuli/003492_2014-05-21_15-50-55_094959634447_rgbf000828-resize_1/003492_2014-05-21_15-50-55_094959634447_rgbf000828-resize_1-target.png,125,4.06875,4,1415,125,feet,jsons/VE125_randls_25_rotated.json,390898,572844,26,Woman
78,868605,DepthScenes,duration_manipulation_targetAtFixation,jsons/VE125_randls_25_rotated.json,http://54.235.29.9/FacialAge/BNav_EC2/DepthDuration/v2_depth_duration_MTurk/v2_DepthDuration_HTML.html#39,39,1707,960,2560,1440,8-21-2022,10-5-54,79,depth_duration_stimuli/003079_2014-06-15_15-18-20_094959634447_rgbf000152-resize_8/003079_2014-06-15_15-18-20_094959634447_rgbf000152-resize_8-target.png,125,2.8775,6,2066,126,feet,jsons/VE125_randls_25_rotated.json,390898,572844,26,Woman
79,868605,DepthScenes,duration_manipulation_targetAtFixation,jsons/VE125_randls_25_rotated.json,http://54.235.29.9/FacialAge/BNav_EC2/DepthDuration/v2_depth_duration_MTurk/v2_DepthDuration_HTML.html#39,39,1707,960,2560,1440,8-21-2022,10-5-54,80,depth_duration_stimuli/000506_2014-06-08_23-21-00_260595134347_rgbf000070-resize_7/000506_2014-06-08_23-21-00_260595134347_rgbf000070-resize_7-target.png,125,4.0585,7,1413,125,feet,jsons/VE125_randls_25_rotated.json,390898,572844,26,Woman
80,868605,DepthScenes,duration_manipulation_targetAtFixation,jsons/VE125_randls_25_rotated.json,http://54.235.29.9/FacialAge/BNav_EC2/DepthDuration/v2_depth_duration_MTurk/v2_DepthDuration_HTML.html#39,39,1707,960,2560,1440,8-21-2022,10-5-54,81,depth_duration_stimuli/000502_2014-06-08_23-02-32_260595134347_rgbf000063-resize_4/000502_2014-06-08_23-02-32_260595134347_rgbf000063-resize_4-target.png,125,2.431,3,2024,139,feet,jsons/VE125_randls_25_rotated.json,390898,572844,26,Woman
81,868605,DepthScenes,duration_manipulation_targetAtFixation,jsons/VE125_randls_25_rotated.json,http://54.235.29.9/FacialAge/BNav_EC2/DepthDuration/v2_depth_duration_MTurk/v2_DepthDuration_HTML.html#39,39,1707,960,2560,1440,8-21-2022,10-5-54,82,depth_duration_stimuli/001199_2014-06-17_16-03-48_260595134347_rgbf000077-resize_0/001199_2014-06-17_16-03-48_260595134347_rgbf000077-resize_0-target.png,125,3.4375,7,1615,122,feet,jsons/VE125_randls_25_rotated.json,390898,572844,26,Woman
82,868605,DepthScenes,duration_manipulation_targetAtFixation,jsons/VE125_randls_25_rotated.json,http://54.235.29.9/FacialAge/BNav_EC2/DepthDuration/v2_depth_duration_MTurk/v2_DepthDuration_HTML.html#39,39,1707,960,2560,1440,8-21-2022,10-5-54,83,depth_duration_stimuli/002875_2014-06-01_15-19-00_094959634447_rgbf000151-resize_1/002875_2014-06-01_15-19-00_094959634447_rgbf000151-resize_1-target.png,125,1.9675,4,1390,122,feet,jsons/VE125_randls_25_rotated.json,390898,572844,26,Woman
83,868605,DepthScenes,duration_manipulation_targetAtFixation,jsons/VE125_randls_25_rotated.json,http://54.235.29.9/FacialAge/BNav_EC2/DepthDuration/v2_depth_duration_MTurk/v2_DepthDuration_HTML.html#39,39,1707,960,2560,1440,8-21-2022,10-5-54,84,depth_duration_stimuli/001011_2014-06-08_23-18-54_260595134347_rgbf000044-resize_4/001011_2014-06-08_23-18-54_260595134347_rgbf000044-resize_4-target.png,125,2.4730000000000003,5,1383,124,feet,jsons/VE125_randls_25_rotated.json,390898,572844,26,Woman
84,868605,DepthScenes,duration_manipulation_targetAtFixation,jsons/VE125_randls_25_rotated.json,http://54.235.29.9/FacialAge/BNav_EC2/DepthDuration/v2_depth_duration_MTurk/v2_DepthDuration_HTML.html#39,39,1707,960,2560,1440,8-21-2022,10-5-54,85,depth_duration_stimuli/003081_2014-06-15_15-19-16_094959634447_rgbf000150-resize_1/003081_2014-06-15_15-19-16_094959634447_rgbf000150-resize_1-target.png,125,3.9125,6,2906,124,feet,jsons/VE125_randls_25_rotated.json,390898,572844,26,Woman
85,868605,DepthScenes,duration_manipulation_targetAtFixation,jsons/VE125_randls_25_rotated.json,http://54.235.29.9/FacialAge/BNav_EC2/DepthDuration/v2_depth_duration_MTurk/v2_DepthDuration_HTML.html#39,39,1707,960,2560,1440,8-21-2022,10-5-54,86,depth_duration_stimuli/001417_2014-06-19_16-25-36_260595134347_rgbf000115-resize_5/001417_2014-06-19_16-25-36_260595134347_rgbf000115-resize_5-target.png,125,4.6255,5,1598,123,feet,jsons/VE125_randls_25_rotated.json,390898,572844,26,Woman
86,868605,DepthScenes,duration_manipulation_targetAtFixation,jsons/VE125_randls_25_rotated.json,http://54.235.29.9/FacialAge/BNav_EC2/DepthDuration/v2_depth_duration_MTurk/v2_DepthDuration_HTML.html#39,39,1707,960,2560,1440,8-21-2022,10-5-54,87,depth_duration_stimuli/001584_2014-06-20_11-07-43_260595134347_rgbf000002-resize_1/001584_2014-06-20_11-07-43_260595134347_rgbf000002-resize_1-target.png,125,3.53,5,1310,121,feet,jsons/VE125_randls_25_rotated.json,390898,572844,26,Woman
87,868605,DepthScenes,duration_manipulation_targetAtFixation,jsons/VE125_randls_25_rotated.json,http://54.235.29.9/FacialAge/BNav_EC2/DepthDuration/v2_depth_duration_MTurk/v2_DepthDuration_HTML.html#39,39,1707,960,2560,1440,8-21-2022,10-5-54,88,depth_duration_stimuli/003621_2014-05-23_18-06-08_094959634447_rgbf000101-resize_1/003621_2014-05-23_18-06-08_094959634447_rgbf000101-resize_1-target.png,125,3.9835,8,4010,125,feet,jsons/VE125_randls_25_rotated.json,390898,572844,26,Woman
88,868605,DepthScenes,duration_manipulation_targetAtFixation,jsons/VE125_randls_25_rotated.json,http://54.235.29.9/FacialAge/BNav_EC2/DepthDuration/v2_depth_duration_MTurk/v2_DepthDuration_HTML.html#39,39,1707,960,2560,1440,8-21-2022,10-5-54,89,depth_duration_stimuli/002323_2014-06-28_20-01-54_260595134347_rgbf000051-resize_4/002323_2014-06-28_20-01-54_260595134347_rgbf000051-resize_4-target.png,125,3.7310000000000003,4,1551,134,feet,jsons/VE125_randls_25_rotated.json,390898,572844,26,Woman
89,868605,DepthScenes,duration_manipulation_targetAtFixation,jsons/VE125_randls_25_rotated.json,http://54.235.29.9/FacialAge/BNav_EC2/DepthDuration/v2_depth_duration_MTurk/v2_DepthDuration_HTML.html#39,39,1707,960,2560,1440,8-21-2022,10-5-54,90,depth_duration_stimuli/000917_2014-06-09_22-45-29_260595134347_rgbf000149-resize_3/000917_2014-06-09_22-45-29_260595134347_rgbf000149-resize_3-target.png,125,4.1865,5,1139,123,feet,jsons/VE125_randls_25_rotated.json,390898,572844,26,Woman
90,868605,DepthScenes,duration_manipulation_targetAtFixation,jsons/VE125_randls_25_rotated.json,http://54.235.29.9/FacialAge/BNav_EC2/DepthDuration/v2_depth_duration_MTurk/v2_DepthDuration_HTML.html#39,39,1707,960,2560,1440,8-21-2022,10-5-54,91,depth_duration_stimuli/000549_2014-06-08_22-10-24_260595134347_rgbf000247-resize_3/000549_2014-06-08_22-10-24_260595134347_rgbf000247-resize_3-target.png,125,1.841,3,1960,123,feet,jsons/VE125_randls_25_rotated.json,390898,572844,26,Woman
91,868605,DepthScenes,duration_manipulation_targetAtFixation,jsons/VE125_randls_25_rotated.json,http://54.235.29.9/FacialAge/BNav_EC2/DepthDuration/v2_depth_duration_MTurk/v2_DepthDuration_HTML.html#39,39,1707,960,2560,1440,8-21-2022,10-5-54,92,depth_duration_stimuli/001055_2014-06-08_18-45-35_260595134347_rgbf000111-resize_4/001055_2014-06-08_18-45-35_260595134347_rgbf000111-resize_4-target.png,125,2.4290000000000003,6,1310,120,feet,jsons/VE125_randls_25_rotated.json,390898,572844,26,Woman
92,868605,DepthScenes,duration_manipulation_targetAtFixation,jsons/VE125_randls_25_rotated.json,http://54.235.29.9/FacialAge/BNav_EC2/DepthDuration/v2_depth_duration_MTurk/v2_DepthDuration_HTML.html#39,39,1707,960,2560,1440,8-21-2022,10-5-54,93,depth_duration_stimuli/000665_2014-06-09_20-42-35_260595134347_rgbf000110-resize_1/000665_2014-06-09_20-42-35_260595134347_rgbf000110-resize_1-target.png,125,3.057,5,1274,123,feet,jsons/VE125_randls_25_rotated.json,390898,572844,26,Woman
93,868605,DepthScenes,duration_manipulation_targetAtFixation,jsons/VE125_randls_25_rotated.json,http://54.235.29.9/FacialAge/BNav_EC2/DepthDuration/v2_depth_duration_MTurk/v2_DepthDuration_HTML.html#39,39,1707,960,2560,1440,8-21-2022,10-5-54,94,depth_duration_stimuli/001150_2014-06-17_15-27-34_260595134347_rgbf000108-resize_2/001150_2014-06-17_15-27-34_260595134347_rgbf000108-resize_2-target.png,125,4.0325,6,1285,124,feet,jsons/VE125_randls_25_rotated.json,390898,572844,26,Woman
94,868605,DepthScenes,duration_manipulation_targetAtFixation,jsons/VE125_randls_25_rotated.json,http://54.235.29.9/FacialAge/BNav_EC2/DepthDuration/v2_depth_duration_MTurk/v2_DepthDuration_HTML.html#39,39,1707,960,2560,1440,8-21-2022,10-5-54,95,depth_duration_stimuli/001052_2014-06-08_18-24-54_260595134347_rgbf000130-resize_1/001052_2014-06-08_18-24-54_260595134347_rgbf000130-resize_1-target.png,125,4.1045,7,1443,121,feet,jsons/VE125_randls_25_rotated.json,390898,572844,26,Woman
95,868605,DepthScenes,duration_manipulation_targetAtFixation,jsons/VE125_randls_25_rotated.json,http://54.235.29.9/FacialAge/BNav_EC2/DepthDuration/v2_depth_duration_MTurk/v2_DepthDuration_HTML.html#39,39,1707,960,2560,1440,8-21-2022,10-5-54,96,depth_duration_stimuli/002988_2014-06-15_12-24-20_094959634447_rgbf000150-resize_1/002988_2014-06-15_12-24-20_094959634447_rgbf000150-resize_1-target.png,125,4.7669999999999995,8,2306,135,feet,jsons/VE125_randls_25_rotated.json,390898,572844,26,Woman
96,868605,DepthScenes,duration_manipulation_targetAtFixation,jsons/VE125_randls_25_rotated.json,http://54.235.29.9/FacialAge/BNav_EC2/DepthDuration/v2_depth_duration_MTurk/v2_DepthDuration_HTML.html#39,39,1707,960,2560,1440,8-21-2022,10-5-54,97,depth_duration_stimuli/002444_2014-06-28_20-32-08_260595134347_rgbf000027-resize_0/002444_2014-06-28_20-32-08_260595134347_rgbf000027-resize_0-target.png,125,4.388999999999999,6,1573,125,feet,jsons/VE125_randls_25_rotated.json,390898,572844,26,Woman
97,868605,DepthScenes,duration_manipulation_targetAtFixation,jsons/VE125_randls_25_rotated.json,http://54.235.29.9/FacialAge/BNav_EC2/DepthDuration/v2_depth_duration_MTurk/v2_DepthDuration_HTML.html#39,39,1707,960,2560,1440,8-21-2022,10-5-54,98,depth_duration_stimuli/000436_2014-06-09_22-25-11_260595134347_rgbf000137-resize_1/000436_2014-06-09_22-25-11_260595134347_rgbf000137-resize_1-target.png,125,4.0705,7,1274,130,feet,jsons/VE125_randls_25_rotated.json,390898,572844,26,Woman
98,868605,DepthScenes,duration_manipulation_targetAtFixation,jsons/VE125_randls_25_rotated.json,http://54.235.29.9/FacialAge/BNav_EC2/DepthDuration/v2_depth_duration_MTurk/v2_DepthDuration_HTML.html#39,39,1707,960,2560,1440,8-21-2022,10-5-54,99,depth_duration_stimuli/001222_2014-06-17_16-24-06_260595134347_rgbf000073-resize_0/001222_2014-06-17_16-24-06_260595134347_rgbf000073-resize-original.jpg,125,1.4385,0,2040,135,feet,jsons/VE125_randls_25_rotated.json,390898,572844,26,Woman
99,868605,DepthScenes,duration_manipulation_targetAtFixation,jsons/VE125_randls_25_rotated.json,http://54.235.29.9/FacialAge/BNav_EC2/DepthDuration/v2_depth_duration_MTurk/v2_DepthDuration_HTML.html#39,39,1707,960,2560,1440,8-21-2022,10-5-54,100,depth_duration_stimuli/002209_2014-06-28_18-36-10_260595134347_rgbf000051-resize_1/002209_2014-06-28_18-36-10_260595134347_rgbf000051-resize_1-target.png,125,2.057,4,1526,132,feet,jsons/VE125_randls_25_rotated.json,390898,572844,26,Woman
100,868605,DepthScenes,duration_manipulation_targetAtFixation,jsons/VE125_randls_25_rotated.json,http://54.235.29.9/FacialAge/BNav_EC2/DepthDuration/v2_depth_duration_MTurk/v2_DepthDuration_HTML.html#39,39,1707,960,2560,1440,8-21-2022,10-5-54,101,depth_duration_stimuli/002763_2014-06-22_19-13-10_094959634447_rgbf000075-resize_4/002763_2014-06-22_19-13-10_094959634447_rgbf000075-resize_4-target.png,125,1.68375,4,1539,125,feet,jsons/VE125_randls_25_rotated.json,390898,572844,26,Woman
101,868605,DepthScenes,duration_manipulation_targetAtFixation,jsons/VE125_randls_25_rotated.json,http://54.235.29.9/FacialAge/BNav_EC2/DepthDuration/v2_depth_duration_MTurk/v2_DepthDuration_HTML.html#39,39,1707,960,2560,1440,8-21-2022,10-5-54,102,depth_duration_stimuli/000927_2014-06-09_16-32-30_260595134347_rgbf000123-resize_3/000927_2014-06-09_16-32-30_260595134347_rgbf000123-resize_3-target.png,125,2.6785,6,1576,125,feet,jsons/VE125_randls_25_rotated.json,390898,572844,26,Woman
102,868605,DepthScenes,duration_manipulation_targetAtFixation,jsons/VE125_randls_25_rotated.json,http://54.235.29.9/FacialAge/BNav_EC2/DepthDuration/v2_depth_duration_MTurk/v2_DepthDuration_HTML.html#39,39,1707,960,2560,1440,8-21-2022,10-5-54,103,depth_duration_stimuli/001110_2014-06-15_17-25-28_260595134347_rgbf000150-resize_1/001110_2014-06-15_17-25-28_260595134347_rgbf000150-resize_1-target.png,125,1.7115,3,1305,140,feet,jsons/VE125_randls_25_rotated.json,390898,572844,26,Woman
103,868605,DepthScenes,duration_manipulation_targetAtFixation,jsons/VE125_randls_25_rotated.json,http://54.235.29.9/FacialAge/BNav_EC2/DepthDuration/v2_depth_duration_MTurk/v2_DepthDuration_HTML.html#39,39,1707,960,2560,1440,8-21-2022,10-5-54,104,depth_duration_stimuli/002750_2014-06-22_19-08-03_094959634447_rgbf000094-resize_4/002750_2014-06-22_19-08-03_094959634447_rgbf000094-resize_4-target.png,125,2.354,3,1787,131,feet,jsons/VE125_randls_25_rotated.json,390898,572844,26,Woman
104,868605,DepthScenes,duration_manipulation_targetAtFixation,jsons/VE125_randls_25_rotated.json,http://54.235.29.9/FacialAge/BNav_EC2/DepthDuration/v2_depth_duration_MTurk/v2_DepthDuration_HTML.html#39,39,1707,960,2560,1440,8-21-2022,10-5-54,105,depth_duration_stimuli/002549_2014-06-24_13-41-39_094959634447_rgbf000022-resize_3/002549_2014-06-24_13-41-39_094959634447_rgbf000022-resize_3-target.png,125,1.476,3,1331,123,feet,jsons/VE125_randls_25_rotated.json,390898,572844,26,Woman
105,868605,DepthScenes,duration_manipulation_targetAtFixation,jsons/VE125_randls_25_rotated.json,http://54.235.29.9/FacialAge/BNav_EC2/DepthDuration/v2_depth_duration_MTurk/v2_DepthDuration_HTML.html#39,39,1707,960,2560,1440,8-21-2022,10-5-54,106,depth_duration_stimuli/001392_2014-06-19_16-07-59_260595134347_rgbf000046-resize_1/001392_2014-06-19_16-07-59_260595134347_rgbf000046-resize_1-target.png,125,4.135,7,1547,125,feet,jsons/VE125_randls_25_rotated.json,390898,572844,26,Woman
106,868605,DepthScenes,duration_manipulation_targetAtFixation,jsons/VE125_randls_25_rotated.json,http://54.235.29.9/FacialAge/BNav_EC2/DepthDuration/v2_depth_duration_MTurk/v2_DepthDuration_HTML.html#39,39,1707,960,2560,1440,8-21-2022,10-5-54,107,depth_duration_stimuli/001570_2014-06-20_17-21-09_260595134347_rgbf000135-resize_4/001570_2014-06-20_17-21-09_260595134347_rgbf000135-resize_4-target.png,125,4.467,6,1524,133,feet,jsons/VE125_randls_25_rotated.json,390898,572844,26,Woman
107,868605,DepthScenes,duration_manipulation_targetAtFixation,jsons/VE125_randls_25_rotated.json,http://54.235.29.9/FacialAge/BNav_EC2/DepthDuration/v2_depth_duration_MTurk/v2_DepthDuration_HTML.html#39,39,1707,960,2560,1440,8-21-2022,10-5-54,108,depth_duration_stimuli/002467_2014-06-28_20-38-07_260595134347_rgbf000026-resize_2/002467_2014-06-28_20-38-07_260595134347_rgbf000026-resize_2-target.png,125,4.742,6,1424,139,feet,jsons/VE125_randls_25_rotated.json,390898,572844,26,Woman
108,868605,DepthScenes,duration_manipulation_targetAtFixation,jsons/VE125_randls_25_rotated.json,http://54.235.29.9/FacialAge/BNav_EC2/DepthDuration/v2_depth_duration_MTurk/v2_DepthDuration_HTML.html#39,39,1707,960,2560,1440,8-21-2022,10-5-54,109,depth_duration_stimuli/002570_2014-06-24_13-59-54_094959634447_rgbf000059-resize_0/002570_2014-06-24_13-59-54_094959634447_rgbf000059-resize_0-target.png,125,4.037,6,1869,123,feet,jsons/VE125_randls_25_rotated.json,390898,572844,26,Woman
109,868605,DepthScenes,duration_manipulation_targetAtFixation,jsons/VE125_randls_25_rotated.json,http://54.235.29.9/FacialAge/BNav_EC2/DepthDuration/v2_depth_duration_MTurk/v2_DepthDuration_HTML.html#39,39,1707,960,2560,1440,8-21-2022,10-5-54,110,depth_duration_stimuli/000103_2014-05-14_22-01-17_260595134347_rgbf000152-resize_5/000103_2014-05-14_22-01-17_260595134347_rgbf000152-resize_5-target.png,125,1.993,5,1332,130,feet,jsons/VE125_randls_25_rotated.json,390898,572844,26,Woman
110,868605,DepthScenes,duration_manipulation_targetAtFixation,jsons/VE125_randls_25_rotated.json,http://54.235.29.9/FacialAge/BNav_EC2/DepthDuration/v2_depth_duration_MTurk/v2_DepthDuration_HTML.html#39,39,1707,960,2560,1440,8-21-2022,10-5-54,111,depth_duration_stimuli/001555_2014-06-20_17-12-10_260595134347_rgbf000065-resize_4/001555_2014-06-20_17-12-10_260595134347_rgbf000065-resize_4-target.png,125,1.633,3,3051,123,feet,jsons/VE125_randls_25_rotated.json,390898,572844,26,Woman
111,868605,DepthScenes,duration_manipulation_targetAtFixation,jsons/VE125_randls_25_rotated.json,http://54.235.29.9/FacialAge/BNav_EC2/DepthDuration/v2_depth_duration_MTurk/v2_DepthDuration_HTML.html#39,39,1707,960,2560,1440,8-21-2022,10-5-54,112,depth_duration_stimuli/001132_2014-06-17_14-48-54_260595134347_rgbf000100-resize_2/001132_2014-06-17_14-48-54_260595134347_rgbf000100-resize_2-target.png,125,3.753,5,1822,126,feet,jsons/VE125_randls_25_rotated.json,390898,572844,26,Woman
112,868605,DepthScenes,duration_manipulation_targetAtFixation,jsons/VE125_randls_25_rotated.json,http://54.235.29.9/FacialAge/BNav_EC2/DepthDuration/v2_depth_duration_MTurk/v2_DepthDuration_HTML.html#39,39,1707,960,2560,1440,8-21-2022,10-5-54,113,depth_duration_stimuli/001133_2014-06-17_14-49-16_260595134347_rgbf000100-resize_0/001133_2014-06-17_14-49-16_260595134347_rgbf000100-resize_0-target.png,125,4.2115,6,3057,122,feet,jsons/VE125_randls_25_rotated.json,390898,572844,26,Woman
113,868605,DepthScenes,duration_manipulation_targetAtFixation,jsons/VE125_randls_25_rotated.json,http://54.235.29.9/FacialAge/BNav_EC2/DepthDuration/v2_depth_duration_MTurk/v2_DepthDuration_HTML.html#39,39,1707,960,2560,1440,8-21-2022,10-5-54,114,depth_duration_stimuli/001094_2014-06-15_17-36-00_260595134347_rgbf000205-resize_0/001094_2014-06-15_17-36-00_260595134347_rgbf000205-resize_0-target.png,125,4.2175,8,1374,123,feet,jsons/VE125_randls_25_rotated.json,390898,572844,26,Woman
114,868605,DepthScenes,duration_manipulation_targetAtFixation,jsons/VE125_randls_25_rotated.json,http://54.235.29.9/FacialAge/BNav_EC2/DepthDuration/v2_depth_duration_MTurk/v2_DepthDuration_HTML.html#39,39,1707,960,2560,1440,8-21-2022,10-5-54,115,depth_duration_stimuli/000692_2014-06-08_13-09-42_260595134347_rgbf000199-resize_2/000692_2014-06-08_13-09-42_260595134347_rgbf000199-resize_2-target.png,125,3.661,8,1659,140,feet,jsons/VE125_randls_25_rotated.json,390898,572844,26,Woman
115,868605,DepthScenes,duration_manipulation_targetAtFixation,jsons/VE125_randls_25_rotated.json,http://54.235.29.9/FacialAge/BNav_EC2/DepthDuration/v2_depth_duration_MTurk/v2_DepthDuration_HTML.html#39,39,1707,960,2560,1440,8-21-2022,10-5-54,116,depth_duration_stimuli/000854_2014-06-09_19-43-13_260595134347_rgbf000066-resize_0/000854_2014-06-09_19-43-13_260595134347_rgbf000066-resize_0-target.png,125,3.068,3,1416,122,feet,jsons/VE125_randls_25_rotated.json,390898,572844,26,Woman
116,868605,DepthScenes,duration_manipulation_targetAtFixation,jsons/VE125_randls_25_rotated.json,http://54.235.29.9/FacialAge/BNav_EC2/DepthDuration/v2_depth_duration_MTurk/v2_DepthDuration_HTML.html#39,39,1707,960,2560,1440,8-21-2022,10-5-54,117,depth_duration_stimuli/000758_2014-06-08_22-05-08_260595134347_rgbf000085-resize_0/000758_2014-06-08_22-05-08_260595134347_rgbf000085-resize_0-target.png,125,3.3810000000000002,5,1294,123,feet,jsons/VE125_randls_25_rotated.json,390898,572844,26,Woman
117,868605,DepthScenes,duration_manipulation_targetAtFixation,jsons/VE125_randls_25_rotated.json,http://54.235.29.9/FacialAge/BNav_EC2/DepthDuration/v2_depth_duration_MTurk/v2_DepthDuration_HTML.html#39,39,1707,960,2560,1440,8-21-2022,10-5-54,118,depth_duration_stimuli/001214_2014-06-17_16-13-55_260595134347_rgbf000111-resize_0/001214_2014-06-17_16-13-55_260595134347_rgbf000111-resize_0-target.png,125,2.6505,4,1455,120,feet,jsons/VE125_randls_25_rotated.json,390898,572844,26,Woman
118,868605,DepthScenes,duration_manipulation_targetAtFixation,jsons/VE125_randls_25_rotated.json,http://54.235.29.9/FacialAge/BNav_EC2/DepthDuration/v2_depth_duration_MTurk/v2_DepthDuration_HTML.html#39,39,1707,960,2560,1440,8-21-2022,10-5-54,119,depth_duration_stimuli/000810_2014-06-08_17-20-01_260595134347_rgbf000105-resize_0/000810_2014-06-08_17-20-01_260595134347_rgbf000105-resize_0-target.png,125,1.4865,2,1864,125,feet,jsons/VE125_randls_25_rotated.json,390898,572844,26,Woman
119,868605,DepthScenes,duration_manipulation_targetAtFixation,jsons/VE125_randls_25_rotated.json,http://54.235.29.9/FacialAge/BNav_EC2/DepthDuration/v2_depth_duration_MTurk/v2_DepthDuration_HTML.html#39,39,1707,960,2560,1440,8-21-2022,10-5-54,120,depth_duration_stimuli/000787_2014-06-08_22-33-53_260595134347_rgbf000175-resize_1/000787_2014-06-08_22-33-53_260595134347_rgbf000175-resize-original.jpg,125,4.784,0,2256,125,feet,jsons/VE125_randls_25_rotated.json,390898,572844,26,Woman
120,868605,DepthScenes,duration_manipulation_targetAtFixation,jsons/VE125_randls_25_rotated.json,http://54.235.29.9/FacialAge/BNav_EC2/DepthDuration/v2_depth_duration_MTurk/v2_DepthDuration_HTML.html#39,39,1707,960,2560,1440,8-21-2022,10-5-54,121,depth_duration_stimuli/002949_2014-06-26_15-57-42_094959634447_rgbf000079-resize_1/002949_2014-06-26_15-57-42_094959634447_rgbf000079-resize_1-target.png,125,1.8915,5,1600,126,feet,jsons/VE125_randls_25_rotated.json,390898,572844,26,Woman
121,868605,DepthScenes,duration_manipulation_targetAtFixation,jsons/VE125_randls_25_rotated.json,http://54.235.29.9/FacialAge/BNav_EC2/DepthDuration/v2_depth_duration_MTurk/v2_DepthDuration_HTML.html#39,39,1707,960,2560,1440,8-21-2022,10-5-54,122,depth_duration_stimuli/000522_2014-06-08_13-35-06_260595134347_rgbf000244-resize_1/000522_2014-06-08_13-35-06_260595134347_rgbf000244-resize_1-target.png,125,2.3715,3,2410,140,feet,jsons/VE125_randls_25_rotated.json,390898,572844,26,Woman
122,868605,DepthScenes,duration_manipulation_targetAtFixation,jsons/VE125_randls_25_rotated.json,http://54.235.29.9/FacialAge/BNav_EC2/DepthDuration/v2_depth_duration_MTurk/v2_DepthDuration_HTML.html#39,39,1707,960,2560,1440,8-21-2022,10-5-54,123,depth_duration_stimuli/002637_2014-06-24_14-51-13_094959634447_rgbf000066-resize_4/002637_2014-06-24_14-51-13_094959634447_rgbf000066-resize_4-target.png,125,1.9955,5,1649,123,feet,jsons/VE125_randls_25_rotated.json,390898,572844,26,Woman
123,868605,DepthScenes,duration_manipulation_targetAtFixation,jsons/VE125_randls_25_rotated.json,http://54.235.29.9/FacialAge/BNav_EC2/DepthDuration/v2_depth_duration_MTurk/v2_DepthDuration_HTML.html#39,39,1707,960,2560,1440,8-21-2022,10-5-54,124,depth_duration_stimuli/003534_2014-05-22_15-06-10_094959634447_rgbf000102-resize_4/003534_2014-05-22_15-06-10_094959634447_rgbf000102-resize_4-target.png,125,1.426,3,1740,140,feet,jsons/VE125_randls_25_rotated.json,390898,572844,26,Woman
124,868605,DepthScenes,duration_manipulation_targetAtFixation,jsons/VE125_randls_25_rotated.json,http://54.235.29.9/FacialAge/BNav_EC2/DepthDuration/v2_depth_duration_MTurk/v2_DepthDuration_HTML.html#39,39,1707,960,2560,1440,8-21-2022,10-5-54,125,depth_duration_stimuli/000556_2014-06-09_22-42-56_260595134347_rgbf000214-resize_1/000556_2014-06-09_22-42-56_260595134347_rgbf000214-resize_1-target.png,125,4.8415,5,2868,122,feet,jsons/VE125_randls_25_rotated.json,390898,572844,26,Woman
125,868605,DepthScenes,duration_manipulation_targetAtFixation,jsons/VE125_randls_25_rotated.json,http://54.235.29.9/FacialAge/BNav_EC2/DepthDuration/v2_depth_duration_MTurk/v2_DepthDuration_HTML.html#39,39,1707,960,2560,1440,8-21-2022,10-5-54,126,depth_duration_stimuli/001158_2014-06-17_15-32-16_260595134347_rgbf000138-resize_2/001158_2014-06-17_15-32-16_260595134347_rgbf000138-resize_2-target.png,125,4.5315,0,2187,122,feet,jsons/VE125_randls_25_rotated.json,390898,572844,26,Woman
126,868605,DepthScenes,duration_manipulation_targetAtFixation,jsons/VE125_randls_25_rotated.json,http://54.235.29.9/FacialAge/BNav_EC2/DepthDuration/v2_depth_duration_MTurk/v2_DepthDuration_HTML.html#39,39,1707,960,2560,1440,8-21-2022,10-5-54,127,depth_duration_stimuli/002344_2014-06-28_20-06-29_260595134347_rgbf000030-resize_1/002344_2014-06-28_20-06-29_260595134347_rgbf000030-resize_1-target.png,125,1.5795,4,2511,126,feet,jsons/VE125_randls_25_rotated.json,390898,572844,26,Woman
127,868605,DepthScenes,duration_manipulation_targetAtFixation,jsons/VE125_randls_25_rotated.json,http://54.235.29.9/FacialAge/BNav_EC2/DepthDuration/v2_depth_duration_MTurk/v2_DepthDuration_HTML.html#39,39,1707,960,2560,1440,8-21-2022,10-5-54,128,depth_duration_stimuli/002725_2014-06-22_11-47-51_094959634447_rgbf000070-resize_1/002725_2014-06-22_11-47-51_094959634447_rgbf000070-resize_1-target.png,125,2.195,5,2718,122,feet,jsons/VE125_randls_25_rotated.json,390898,572844,26,Woman
128,868605,DepthScenes,duration_manipulation_targetAtFixation,jsons/VE125_randls_25_rotated.json,http://54.235.29.9/FacialAge/BNav_EC2/DepthDuration/v2_depth_duration_MTurk/v2_DepthDuration_HTML.html#39,39,1707,960,2560,1440,8-21-2022,10-5-54,129,depth_duration_stimuli/003048_2014-06-15_13-49-43_094959634447_rgbf000150-resize_1/003048_2014-06-15_13-49-43_094959634447_rgbf000150-resize_1-target.png,125,4.0035,6,1258,122,feet,jsons/VE125_randls_25_rotated.json,390898,572844,26,Woman
129,868605,DepthScenes,duration_manipulation_targetAtFixation,jsons/VE125_randls_25_rotated.json,http://54.235.29.9/FacialAge/BNav_EC2/DepthDuration/v2_depth_duration_MTurk/v2_DepthDuration_HTML.html#39,39,1707,960,2560,1440,8-21-2022,10-5-54,130,depth_duration_stimuli/002043_2014-06-24_20-29-38_260595134347_rgbf000039-resize_4/002043_2014-06-24_20-29-38_260595134347_rgbf000039-resize_4-target.png,125,2.8435,6,1239,123,feet,jsons/VE125_randls_25_rotated.json,390898,572844,26,Woman
130,868605,DepthScenes,duration_manipulation_targetAtFixation,jsons/VE125_randls_25_rotated.json,http://54.235.29.9/FacialAge/BNav_EC2/DepthDuration/v2_depth_duration_MTurk/v2_DepthDuration_HTML.html#39,39,1707,960,2560,1440,8-21-2022,10-5-54,131,depth_duration_stimuli/002805_2014-06-22_19-54-03_094959634447_rgbf000079-resize_1/002805_2014-06-22_19-54-03_094959634447_rgbf000079-resize_1-target.png,125,3.1439999999999997,6,1421,124,feet,jsons/VE125_randls_25_rotated.json,390898,572844,26,Woman
131,868605,DepthScenes,duration_manipulation_targetAtFixation,jsons/VE125_randls_25_rotated.json,http://54.235.29.9/FacialAge/BNav_EC2/DepthDuration/v2_depth_duration_MTurk/v2_DepthDuration_HTML.html#39,39,1707,960,2560,1440,8-21-2022,10-5-54,132,depth_duration_stimuli/000906_2014-06-08_13-35-43_260595134347_rgbf000155-resize_1/000906_2014-06-08_13-35-43_260595134347_rgbf000155-resize_1-target.png,125,2.8489999999999998,7,1398,138,feet,jsons/VE125_randls_25_rotated.json,390898,572844,26,Woman
132,868605,DepthScenes,duration_manipulation_targetAtFixation,jsons/VE125_randls_25_rotated.json,http://54.235.29.9/FacialAge/BNav_EC2/DepthDuration/v2_depth_duration_MTurk/v2_DepthDuration_HTML.html#39,39,1707,960,2560,1440,8-21-2022,10-5-54,133,depth_duration_stimuli/001447_2014-06-19_17-00-32_260595134347_rgbf000082-resize_5/001447_2014-06-19_17-00-32_260595134347_rgbf000082-resize_5-target.png,125,4.13775,5,2034,118,feet,jsons/VE125_randls_25_rotated.json,390898,572844,26,Woman
133,868605,DepthScenes,duration_manipulation_targetAtFixation,jsons/VE125_randls_25_rotated.json,http://54.235.29.9/FacialAge/BNav_EC2/DepthDuration/v2_depth_duration_MTurk/v2_DepthDuration_HTML.html#39,39,1707,960,2560,1440,8-21-2022,10-5-54,134,depth_duration_stimuli/000447_2014-06-08_16-15-46_260595134347_rgbf000130-resize_1/000447_2014-06-08_16-15-46_260595134347_rgbf000130-resize_1-target.png,125,4.479,9,2333,123,feet,jsons/VE125_randls_25_rotated.json,390898,572844,26,Woman
134,868605,DepthScenes,duration_manipulation_targetAtFixation,jsons/VE125_randls_25_rotated.json,http://54.235.29.9/FacialAge/BNav_EC2/DepthDuration/v2_depth_duration_MTurk/v2_DepthDuration_HTML.html#39,39,1707,960,2560,1440,8-21-2022,10-5-54,135,depth_duration_stimuli/000375_2014-06-08_11-17-29_260595134347_rgbf000133-resize_2/000375_2014-06-08_11-17-29_260595134347_rgbf000133-resize-original.jpg,125,4.718,0,1923,123,feet,jsons/VE125_randls_25_rotated.json,390898,572844,26,Woman
135,868605,DepthScenes,duration_manipulation_targetAtFixation,jsons/VE125_randls_25_rotated.json,http://54.235.29.9/FacialAge/BNav_EC2/DepthDuration/v2_depth_duration_MTurk/v2_DepthDuration_HTML.html#39,39,1707,960,2560,1440,8-21-2022,10-5-54,136,depth_duration_stimuli/001235_2014-06-17_16-37-36_260595134347_rgbf000084-resize_4/001235_2014-06-17_16-37-36_260595134347_rgbf000084-resize_4-target.png,125,3.6605,4,1434,128,feet,jsons/VE125_randls_25_rotated.json,390898,572844,26,Woman
136,868605,DepthScenes,duration_manipulation_targetAtFixation,jsons/VE125_randls_25_rotated.json,http://54.235.29.9/FacialAge/BNav_EC2/DepthDuration/v2_depth_duration_MTurk/v2_DepthDuration_HTML.html#39,39,1707,960,2560,1440,8-21-2022,10-5-54,137,depth_duration_stimuli/000788_2014-06-08_22-34-36_260595134347_rgbf000131-resize_1/000788_2014-06-08_22-34-36_260595134347_rgbf000131-resize_1-target.png,125,3.359,5,1407,125,feet,jsons/VE125_randls_25_rotated.json,390898,572844,26,Woman
137,868605,DepthScenes,duration_manipulation_targetAtFixation,jsons/VE125_randls_25_rotated.json,http://54.235.29.9/FacialAge/BNav_EC2/DepthDuration/v2_depth_duration_MTurk/v2_DepthDuration_HTML.html#39,39,1707,960,2560,1440,8-21-2022,10-5-54,138,depth_duration_stimuli/003423_2014-05-21_10-23-26_094959634447_rgbf002665-resize_2/003423_2014-05-21_10-23-26_094959634447_rgbf002665-resize_2-target.png,125,3.2575,6,1728,131,feet,jsons/VE125_randls_25_rotated.json,390898,572844,26,Woman
138,868605,DepthScenes,duration_manipulation_targetAtFixation,jsons/VE125_randls_25_rotated.json,http://54.235.29.9/FacialAge/BNav_EC2/DepthDuration/v2_depth_duration_MTurk/v2_DepthDuration_HTML.html#39,39,1707,960,2560,1440,8-21-2022,10-5-54,139,depth_duration_stimuli/002905_2014-06-03_18-04-43_094959634447_rgbf000151-resize_2/002905_2014-06-03_18-04-43_094959634447_rgbf000151-resize_2-target.png,125,2.0295,4,1638,122,feet,jsons/VE125_randls_25_rotated.json,390898,572844,26,Woman
139,868605,DepthScenes,duration_manipulation_targetAtFixation,jsons/VE125_randls_25_rotated.json,http://54.235.29.9/FacialAge/BNav_EC2/DepthDuration/v2_depth_duration_MTurk/v2_DepthDuration_HTML.html#39,39,1707,960,2560,1440,8-21-2022,10-5-54,140,depth_duration_stimuli/001450_2014-06-19_17-02-03_260595134347_rgbf000203-resize_4/001450_2014-06-19_17-02-03_260595134347_rgbf000203-resize_4-target.png,125,4.0106666666667,9,2630,116,feet,jsons/VE125_randls_25_rotated.json,390898,572844,26,Woman
140,868605,DepthScenes,duration_manipulation_targetAtFixation,jsons/VE125_randls_25_rotated.json,http://54.235.29.9/FacialAge/BNav_EC2/DepthDuration/v2_depth_duration_MTurk/v2_DepthDuration_HTML.html#39,39,1707,960,2560,1440,8-21-2022,10-5-54,141,depth_duration_stimuli/001449_2014-06-19_17-01-27_260595134347_rgbf000116-resize_2/001449_2014-06-19_17-01-27_260595134347_rgbf000116-resize_2-target.png,125,3.452,5,1278,123,feet,jsons/VE125_randls_25_rotated.json,390898,572844,26,Woman
141,868605,DepthScenes,duration_manipulation_targetAtFixation,jsons/VE125_randls_25_rotated.json,http://54.235.29.9/FacialAge/BNav_EC2/DepthDuration/v2_depth_duration_MTurk/v2_DepthDuration_HTML.html#39,39,1707,960,2560,1440,8-21-2022,10-5-54,142,depth_duration_stimuli/002758_2014-06-22_19-11-20_094959634447_rgbf000128-resize_1/002758_2014-06-22_19-11-20_094959634447_rgbf000128-resize_1-target.png,125,2.555,5,1319,124,feet,jsons/VE125_randls_25_rotated.json,390898,572844,26,Woman
142,868605,DepthScenes,duration_manipulation_targetAtFixation,jsons/VE125_randls_25_rotated.json,http://54.235.29.9/FacialAge/BNav_EC2/DepthDuration/v2_depth_duration_MTurk/v2_DepthDuration_HTML.html#39,39,1707,960,2560,1440,8-21-2022,10-5-54,143,depth_duration_stimuli/002630_2014-06-24_14-47-50_094959634447_rgbf000055-resize_1/002630_2014-06-24_14-47-50_094959634447_rgbf000055-resize_1-target.png,125,3.0095,6,1996,111,feet,jsons/VE125_randls_25_rotated.json,390898,572844,26,Woman
143,868605,DepthScenes,duration_manipulation_targetAtFixation,jsons/VE125_randls_25_rotated.json,http://54.235.29.9/FacialAge/BNav_EC2/DepthDuration/v2_depth_duration_MTurk/v2_DepthDuration_HTML.html#39,39,1707,960,2560,1440,8-21-2022,10-5-54,144,depth_duration_stimuli/001100_2014-06-15_17-46-26_260595134347_rgbf000225-resize_2/001100_2014-06-15_17-46-26_260595134347_rgbf000225-resize_2-target.png,125,2.24,3,3132,124,feet,jsons/VE125_randls_25_rotated.json,390898,572844,26,Woman
144,868605,DepthScenes,duration_manipulation_targetAtFixation,jsons/VE125_randls_25_rotated.json,http://54.235.29.9/FacialAge/BNav_EC2/DepthDuration/v2_depth_duration_MTurk/v2_DepthDuration_HTML.html#39,39,1707,960,2560,1440,8-21-2022,10-5-54,145,depth_duration_stimuli/002784_2014-06-22_19-26-30_094959634447_rgbf000083-resize_3/002784_2014-06-22_19-26-30_094959634447_rgbf000083-resize_3-target.png,125,1.8046666666667,3,2081,122,feet,jsons/VE125_randls_25_rotated.json,390898,572844,26,Woman
145,868605,DepthScenes,duration_manipulation_targetAtFixation,jsons/VE125_randls_25_rotated.json,http://54.235.29.9/FacialAge/BNav_EC2/DepthDuration/v2_depth_duration_MTurk/v2_DepthDuration_HTML.html#39,39,1707,960,2560,1440,8-21-2022,10-5-54,146,depth_duration_stimuli/002678_2014-06-13_16-15-32_094959634447_rgbf000151-resize_6/002678_2014-06-13_16-15-32_094959634447_rgbf000151-resize_6-target.png,125,2.1830000000000003,9,1811,138,feet,jsons/VE125_randls_25_rotated.json,390898,572844,26,Woman
146,868605,DepthScenes,duration_manipulation_targetAtFixation,jsons/VE125_randls_25_rotated.json,http://54.235.29.9/FacialAge/BNav_EC2/DepthDuration/v2_depth_duration_MTurk/v2_DepthDuration_HTML.html#39,39,1707,960,2560,1440,8-21-2022,10-5-54,147,depth_duration_stimuli/000368_2014-06-09_15-53-01_260595134347_rgbf000155-resize_2/000368_2014-06-09_15-53-01_260595134347_rgbf000155-resize_2-target.png,125,2.4859999999999998,4,2007,125,feet,jsons/VE125_randls_25_rotated.json,390898,572844,26,Woman
147,868605,DepthScenes,duration_manipulation_targetAtFixation,jsons/VE125_randls_25_rotated.json,http://54.235.29.9/FacialAge/BNav_EC2/DepthDuration/v2_depth_duration_MTurk/v2_DepthDuration_HTML.html#39,39,1707,960,2560,1440,8-21-2022,10-5-54,148,depth_duration_stimuli/002639_2014-06-24_14-51-37_094959634447_rgbf000074-resize_4/002639_2014-06-24_14-51-37_094959634447_rgbf000074-resize_4-target.png,125,4.0375,7,2068,123,feet,jsons/VE125_randls_25_rotated.json,390898,572844,26,Woman
148,868605,DepthScenes,duration_manipulation_targetAtFixation,jsons/VE125_randls_25_rotated.json,http://54.235.29.9/FacialAge/BNav_EC2/DepthDuration/v2_depth_duration_MTurk/v2_DepthDuration_HTML.html#39,39,1707,960,2560,1440,8-21-2022,10-5-54,149,depth_duration_stimuli/003292_2014-05-14_21-53-49_094959634447_rgbf000100-resize_2/003292_2014-05-14_21-53-49_094959634447_rgbf000100-resize_2-target.png,125,3.4815,3,1366,137,feet,jsons/VE125_randls_25_rotated.json,390898,572844,26,Woman
149,868605,DepthScenes,duration_manipulation_targetAtFixation,jsons/VE125_randls_25_rotated.json,http://54.235.29.9/FacialAge/BNav_EC2/DepthDuration/v2_depth_duration_MTurk/v2_DepthDuration_HTML.html#39,39,1707,960,2560,1440,8-21-2022,10-5-54,150,depth_duration_stimuli/003495_2014-05-21_16-01-51_094959634447_rgbf000100-resize_3/003495_2014-05-21_16-01-51_094959634447_rgbf000100-resize_3-target.png,125,1.6255,2,1373,125,feet,jsons/VE125_randls_25_rotated.json,390898,572844,26,Woman
150,868605,DepthScenes,duration_manipulation_targetAtFixation,jsons/VE125_randls_25_rotated.json,http://54.235.29.9/FacialAge/BNav_EC2/DepthDuration/v2_depth_duration_MTurk/v2_DepthDuration_HTML.html#39,39,1707,960,2560,1440,8-21-2022,10-5-54,151,depth_duration_stimuli/001244_2014-06-17_16-47-45_260595134347_rgbf000030-resize_4/001244_2014-06-17_16-47-45_260595134347_rgbf000030-resize_4-target.png,125,2.0425,2,1369,130,feet,jsons/VE125_randls_25_rotated.json,390898,572844,26,Woman
151,868605,DepthScenes,duration_manipulation_targetAtFixation,jsons/VE125_randls_25_rotated.json,http://54.235.29.9/FacialAge/BNav_EC2/DepthDuration/v2_depth_duration_MTurk/v2_DepthDuration_HTML.html#39,39,1707,960,2560,1440,8-21-2022,10-5-54,152,depth_duration_stimuli/000569_2014-06-09_22-51-47_260595134347_rgbf000141-resize_3/000569_2014-06-09_22-51-47_260595134347_rgbf000141-resize-original.jpg,125,4.512,0,2176,125,feet,jsons/VE125_randls_25_rotated.json,390898,572844,26,Woman
152,868605,DepthScenes,duration_manipulation_targetAtFixation,jsons/VE125_randls_25_rotated.json,http://54.235.29.9/FacialAge/BNav_EC2/DepthDuration/v2_depth_duration_MTurk/v2_DepthDuration_HTML.html#39,39,1707,960,2560,1440,8-21-2022,10-5-54,153,depth_duration_stimuli/000780_2014-06-08_22-28-29_260595134347_rgbf000126-resize_1/000780_2014-06-08_22-28-29_260595134347_rgbf000126-resize_1-target.png,125,3.3825,6,1485,132,feet,jsons/VE125_randls_25_rotated.json,390898,572844,26,Woman
153,868605,DepthScenes,duration_manipulation_targetAtFixation,jsons/VE125_randls_25_rotated.json,http://54.235.29.9/FacialAge/BNav_EC2/DepthDuration/v2_depth_duration_MTurk/v2_DepthDuration_HTML.html#39,39,1707,960,2560,1440,8-21-2022,10-5-54,154,depth_duration_stimuli/002445_2014-06-28_20-32-16_260595134347_rgbf000029-resize_4/002445_2014-06-28_20-32-16_260595134347_rgbf000029-resize_4-target.png,125,2.5315,3,1707,134,feet,jsons/VE125_randls_25_rotated.json,390898,572844,26,Woman
154,868605,DepthScenes,duration_manipulation_targetAtFixation,jsons/VE125_randls_25_rotated.json,http://54.235.29.9/FacialAge/BNav_EC2/DepthDuration/v2_depth_duration_MTurk/v2_DepthDuration_HTML.html#39,39,1707,960,2560,1440,8-21-2022,10-5-54,155,depth_duration_stimuli/003010_2014-06-15_12-54-35_094959634447_rgbf000112-resize_0/003010_2014-06-15_12-54-35_094959634447_rgbf000112-resize_0-target.png,125,3.1185,8,1663,138,feet,jsons/VE125_randls_25_rotated.json,390898,572844,26,Woman
155,868605,DepthScenes,duration_manipulation_targetAtFixation,jsons/VE125_randls_25_rotated.json,http://54.235.29.9/FacialAge/BNav_EC2/DepthDuration/v2_depth_duration_MTurk/v2_DepthDuration_HTML.html#39,39,1707,960,2560,1440,8-21-2022,10-5-54,156,depth_duration_stimuli/001810_2014-06-26_20-51-35_260595134347_rgbf000040-resize_3/001810_2014-06-26_20-51-35_260595134347_rgbf000040-resize_3-target.png,125,2.2525,2,1387,123,feet,jsons/VE125_randls_25_rotated.json,390898,572844,26,Woman
156,868605,DepthScenes,duration_manipulation_targetAtFixation,jsons/VE125_randls_25_rotated.json,http://54.235.29.9/FacialAge/BNav_EC2/DepthDuration/v2_depth_duration_MTurk/v2_DepthDuration_HTML.html#39,39,1707,960,2560,1440,8-21-2022,10-5-54,157,depth_duration_stimuli/002425_2014-06-28_20-27-29_260595134347_rgbf000031-resize_8/002425_2014-06-28_20-27-29_260595134347_rgbf000031-resize_8-target.png,125,3.8960000000000004,3,1451,123,feet,jsons/VE125_randls_25_rotated.json,390898,572844,26,Woman
157,868605,DepthScenes,duration_manipulation_targetAtFixation,jsons/VE125_randls_25_rotated.json,http://54.235.29.9/FacialAge/BNav_EC2/DepthDuration/v2_depth_duration_MTurk/v2_DepthDuration_HTML.html#39,39,1707,960,2560,1440,8-21-2022,10-5-54,158,depth_duration_stimuli/000642_2014-06-08_16-59-25_260595134347_rgbf000098-resize_2/000642_2014-06-08_16-59-25_260595134347_rgbf000098-resize_2-target.png,125,2.8815,5,1447,138,feet,jsons/VE125_randls_25_rotated.json,390898,572844,26,Woman
158,868605,DepthScenes,duration_manipulation_targetAtFixation,jsons/VE125_randls_25_rotated.json,http://54.235.29.9/FacialAge/BNav_EC2/DepthDuration/v2_depth_duration_MTurk/v2_DepthDuration_HTML.html#39,39,1707,960,2560,1440,8-21-2022,10-5-54,159,depth_duration_stimuli/000409_2014-06-04_19-23-33_260595134347_rgbf000067-resize_0/000409_2014-06-04_19-23-33_260595134347_rgbf000067-resize_0-target.png,125,3.7335,5,1226,123,feet,jsons/VE125_randls_25_rotated.json,390898,572844,26,Woman
159,868605,DepthScenes,duration_manipulation_targetAtFixation,jsons/VE125_randls_25_rotated.json,http://54.235.29.9/FacialAge/BNav_EC2/DepthDuration/v2_depth_duration_MTurk/v2_DepthDuration_HTML.html#39,39,1707,960,2560,1440,8-21-2022,10-5-54,160,depth_duration_stimuli/002663_2014-06-13_15-50-26_094959634447_rgbf000075-resize_1/002663_2014-06-13_15-50-26_094959634447_rgbf000075-resize_1-target.png,125,4.7495,5,2339,122,feet,jsons/VE125_randls_25_rotated.json,390898,572844,26,Woman
160,868605,DepthScenes,duration_manipulation_targetAtFixation,jsons/VE125_randls_25_rotated.json,http://54.235.29.9/FacialAge/BNav_EC2/DepthDuration/v2_depth_duration_MTurk/v2_DepthDuration_HTML.html#39,39,1707,960,2560,1440,8-21-2022,10-5-54,161,depth_duration_stimuli/000742_2014-06-08_18-48-09_260595134347_rgbf000164-resize_4/000742_2014-06-08_18-48-09_260595134347_rgbf000164-resize_4-target.png,125,4.632,6,1552,123,feet,jsons/VE125_randls_25_rotated.json,390898,572844,26,Woman
161,868605,DepthScenes,duration_manipulation_targetAtFixation,jsons/VE125_randls_25_rotated.json,http://54.235.29.9/FacialAge/BNav_EC2/DepthDuration/v2_depth_duration_MTurk/v2_DepthDuration_HTML.html#39,39,1707,960,2560,1440,8-21-2022,10-5-54,162,depth_duration_stimuli/001066_2014-06-08_22-03-20_260595134347_rgbf000066-resize_4/001066_2014-06-08_22-03-20_260595134347_rgbf000066-resize_4-target.png,125,4.2330000000000005,0,4278,118,feet,jsons/VE125_randls_25_rotated.json,390898,572844,26,Woman
162,868605,DepthScenes,duration_manipulation_targetAtFixation,jsons/VE125_randls_25_rotated.json,http://54.235.29.9/FacialAge/BNav_EC2/DepthDuration/v2_depth_duration_MTurk/v2_DepthDuration_HTML.html#39,39,1707,960,2560,1440,8-21-2022,10-5-54,163,depth_duration_stimuli/001032_2014-06-08_13-23-17_260595134347_rgbf000021-resize_3/001032_2014-06-08_13-23-17_260595134347_rgbf000021-resize_3-target.png,125,3.2725,0,2579,125,feet,jsons/VE125_randls_25_rotated.json,390898,572844,26,Woman
163,868605,DepthScenes,duration_manipulation_targetAtFixation,jsons/VE125_randls_25_rotated.json,http://54.235.29.9/FacialAge/BNav_EC2/DepthDuration/v2_depth_duration_MTurk/v2_DepthDuration_HTML.html#39,39,1707,960,2560,1440,8-21-2022,10-5-54,164,depth_duration_stimuli/001059_2014-06-08_21-53-27_260595134347_rgbf000061-resize_4/001059_2014-06-08_21-53-27_260595134347_rgbf000061-resize_4-target.png,125,2.4185,3,1979,123,feet,jsons/VE125_randls_25_rotated.json,390898,572844,26,Woman
