,subjID,experimentName,versionName,sequenceName,url,selected_row,windowWidth,windowHeight,screenWidth,screenHeight,startDate,startTime,trial,stimulus,duration,actual_depth,depth_estimate,trial_RT,log_sceneDuration,unitSelection,seq_filepath,experimentTime,totalTime,age,gender
0,870091,DepthScenes,duration_manipulation_targetAtFixation,jsons/v1_VE1000_randls_54.json,http://54.235.29.9/FacialAge/BNav_EC2/DepthDuration/v2_depth_duration_MTurk/v2_DepthDuration_HTML.html#132,132,1364,625,1364,768,8-22-2022,5-31-16,1,depth_duration_stimuli/001066_2014-06-08_22-03-20_260595134347_rgbf000066-resize_4/001066_2014-06-08_22-03-20_260595134347_rgbf000066-resize_4-target.png,1000,4.2330000000000005,2,13978,999,meters,jsons/v1_VE1000_randls_54.json,1683612,1986760,30,Man
1,870091,DepthScenes,duration_manipulation_targetAtFixation,jsons/v1_VE1000_randls_54.json,http://54.235.29.9/FacialAge/BNav_EC2/DepthDuration/v2_depth_duration_MTurk/v2_DepthDuration_HTML.html#132,132,1364,625,1364,768,8-22-2022,5-31-16,2,depth_duration_stimuli/000742_2014-06-08_18-48-09_260595134347_rgbf000164-resize_4/000742_2014-06-08_18-48-09_260595134347_rgbf000164-resize_4-target.png,1000,4.632,3,9729,999,meters,jsons/v1_VE1000_randls_54.json,1683612,1986760,30,Man
2,870091,DepthScenes,duration_manipulation_targetAtFixation,jsons/v1_VE1000_randls_54.json,http://54.235.29.9/FacialAge/BNav_EC2/DepthDuration/v2_depth_duration_MTurk/v2_DepthDuration_HTML.html#132,132,1364,625,1364,768,8-22-2022,5-31-16,3,depth_duration_stimuli/002784_2014-06-22_19-26-30_094959634447_rgbf000083-resize_3/002784_2014-06-22_19-26-30_094959634447_rgbf000083-resize_3-target.png,1000,1.8046666666667,3,12518,1000,meters,jsons/v1_VE1000_randls_54.json,1683612,1986760,30,Man
3,870091,DepthScenes,duration_manipulation_targetAtFixation,jsons/v1_VE1000_randls_54.json,http://54.235.29.9/FacialAge/BNav_EC2/DepthDuration/v2_depth_duration_MTurk/v2_DepthDuration_HTML.html#132,132,1364,768,1364,768,8-22-2022,5-31-16,4,depth_duration_stimuli/001100_2014-06-15_17-46-26_260595134347_rgbf000225-resize_2/001100_2014-06-15_17-46-26_260595134347_rgbf000225-resize_2-target.png,1000,2.24,2,20682,1001,meters,jsons/v1_VE1000_randls_54.json,1683612,1986760,30,Man
4,870091,DepthScenes,duration_manipulation_targetAtFixation,jsons/v1_VE1000_randls_54.json,http://54.235.29.9/FacialAge/BNav_EC2/DepthDuration/v2_depth_duration_MTurk/v2_DepthDuration_HTML.html#132,132,1364,768,1364,768,8-22-2022,5-31-16,5,depth_duration_stimuli/002057_2014-06-24_21-00-13_260595134347_rgbf000120-resize_1/002057_2014-06-24_21-00-13_260595134347_rgbf000120-resize_1-target.png,1000,2.967,1,11060,1000,meters,jsons/v1_VE1000_randls_54.json,1683612,1986760,30,Man
5,870091,DepthScenes,duration_manipulation_targetAtFixation,jsons/v1_VE1000_randls_54.json,http://54.235.29.9/FacialAge/BNav_EC2/DepthDuration/v2_depth_duration_MTurk/v2_DepthDuration_HTML.html#132,132,1364,768,1364,768,8-22-2022,5-31-16,6,depth_duration_stimuli/000709_2014-06-08_13-51-55_260595134347_rgbf000068-resize_3/000709_2014-06-08_13-51-55_260595134347_rgbf000068-resize_3-target.png,1000,1.8030000000000002,1,8588,999,meters,jsons/v1_VE1000_randls_54.json,1683612,1986760,30,Man
6,870091,DepthScenes,duration_manipulation_targetAtFixation,jsons/v1_VE1000_randls_54.json,http://54.235.29.9/FacialAge/BNav_EC2/DepthDuration/v2_depth_duration_MTurk/v2_DepthDuration_HTML.html#132,132,1364,768,1364,768,8-22-2022,5-31-16,7,depth_duration_stimuli/003292_2014-05-14_21-53-49_094959634447_rgbf000100-resize_2/003292_2014-05-14_21-53-49_094959634447_rgbf000100-resize_2-target.png,1000,3.4815,1,8007,1000,meters,jsons/v1_VE1000_randls_54.json,1683612,1986760,30,Man
7,870091,DepthScenes,duration_manipulation_targetAtFixation,jsons/v1_VE1000_randls_54.json,http://54.235.29.9/FacialAge/BNav_EC2/DepthDuration/v2_depth_duration_MTurk/v2_DepthDuration_HTML.html#132,132,1364,768,1364,768,8-22-2022,5-31-16,8,depth_duration_stimuli/002639_2014-06-24_14-51-37_094959634447_rgbf000074-resize_4/002639_2014-06-24_14-51-37_094959634447_rgbf000074-resize_4-target.png,1000,4.0375,1,7219,1000,meters,jsons/v1_VE1000_randls_54.json,1683612,1986760,30,Man
8,870091,DepthScenes,duration_manipulation_targetAtFixation,jsons/v1_VE1000_randls_54.json,http://54.235.29.9/FacialAge/BNav_EC2/DepthDuration/v2_depth_duration_MTurk/v2_DepthDuration_HTML.html#132,132,1364,768,1364,768,8-22-2022,5-31-16,9,depth_duration_stimuli/000906_2014-06-08_13-35-43_260595134347_rgbf000155-resize_1/000906_2014-06-08_13-35-43_260595134347_rgbf000155-resize_1-target.png,1000,2.8489999999999998,1,7705,999,meters,jsons/v1_VE1000_randls_54.json,1683612,1986760,30,Man
9,870091,DepthScenes,duration_manipulation_targetAtFixation,jsons/v1_VE1000_randls_54.json,http://54.235.29.9/FacialAge/BNav_EC2/DepthDuration/v2_depth_duration_MTurk/v2_DepthDuration_HTML.html#132,132,1364,768,1364,768,8-22-2022,5-31-16,10,depth_duration_stimuli/002805_2014-06-22_19-54-03_094959634447_rgbf000079-resize_1/002805_2014-06-22_19-54-03_094959634447_rgbf000079-resize_1-target.png,1000,3.1439999999999997,1,7259,1000,meters,jsons/v1_VE1000_randls_54.json,1683612,1986760,30,Man
10,870091,DepthScenes,duration_manipulation_targetAtFixation,jsons/v1_VE1000_randls_54.json,http://54.235.29.9/FacialAge/BNav_EC2/DepthDuration/v2_depth_duration_MTurk/v2_DepthDuration_HTML.html#132,132,1364,768,1364,768,8-22-2022,5-31-16,11,depth_duration_stimuli/002570_2014-06-24_13-59-54_094959634447_rgbf000059-resize_0/002570_2014-06-24_13-59-54_094959634447_rgbf000059-resize_0-target.png,1000,4.037,2,8697,999,meters,jsons/v1_VE1000_randls_54.json,1683612,1986760,30,Man
11,870091,DepthScenes,duration_manipulation_targetAtFixation,jsons/v1_VE1000_randls_54.json,http://54.235.29.9/FacialAge/BNav_EC2/DepthDuration/v2_depth_duration_MTurk/v2_DepthDuration_HTML.html#132,132,1364,768,1364,768,8-22-2022,5-31-16,12,depth_duration_stimuli/002467_2014-06-28_20-38-07_260595134347_rgbf000026-resize_2/002467_2014-06-28_20-38-07_260595134347_rgbf000026-resize_2-target.png,1000,4.742,2,10458,999,meters,jsons/v1_VE1000_randls_54.json,1683612,1986760,30,Man
12,870091,DepthScenes,duration_manipulation_targetAtFixation,jsons/v1_VE1000_randls_54.json,http://54.235.29.9/FacialAge/BNav_EC2/DepthDuration/v2_depth_duration_MTurk/v2_DepthDuration_HTML.html#132,132,1364,768,1364,768,8-22-2022,5-31-16,13,depth_duration_stimuli/000569_2014-06-09_22-51-47_260595134347_rgbf000141-resize_3/000569_2014-06-09_22-51-47_260595134347_rgbf000141-resize-original.jpg,1000,4.512,0,6000,998,meters,jsons/v1_VE1000_randls_54.json,1683612,1986760,30,Man
13,870091,DepthScenes,duration_manipulation_targetAtFixation,jsons/v1_VE1000_randls_54.json,http://54.235.29.9/FacialAge/BNav_EC2/DepthDuration/v2_depth_duration_MTurk/v2_DepthDuration_HTML.html#132,132,1364,768,1364,768,8-22-2022,5-31-16,14,depth_duration_stimuli/001417_2014-06-19_16-25-36_260595134347_rgbf000115-resize_5/001417_2014-06-19_16-25-36_260595134347_rgbf000115-resize_5-target.png,1000,4.6255,2,9647,1000,meters,jsons/v1_VE1000_randls_54.json,1683612,1986760,30,Man
14,870091,DepthScenes,duration_manipulation_targetAtFixation,jsons/v1_VE1000_randls_54.json,http://54.235.29.9/FacialAge/BNav_EC2/DepthDuration/v2_depth_duration_MTurk/v2_DepthDuration_HTML.html#132,132,1364,768,1364,768,8-22-2022,5-31-16,15,depth_duration_stimuli/003081_2014-06-15_15-19-16_094959634447_rgbf000150-resize_1/003081_2014-06-15_15-19-16_094959634447_rgbf000150-resize_1-target.png,1000,3.9125,2,18219,1000,meters,jsons/v1_VE1000_randls_54.json,1683612,1986760,30,Man
15,870091,DepthScenes,duration_manipulation_targetAtFixation,jsons/v1_VE1000_randls_54.json,http://54.235.29.9/FacialAge/BNav_EC2/DepthDuration/v2_depth_duration_MTurk/v2_DepthDuration_HTML.html#132,132,1364,768,1364,768,8-22-2022,5-31-16,16,depth_duration_stimuli/000368_2014-06-09_15-53-01_260595134347_rgbf000155-resize_2/000368_2014-06-09_15-53-01_260595134347_rgbf000155-resize_2-target.png,1000,2.4859999999999998,2,5558,999,meters,jsons/v1_VE1000_randls_54.json,1683612,1986760,30,Man
16,870091,DepthScenes,duration_manipulation_targetAtFixation,jsons/v1_VE1000_randls_54.json,http://54.235.29.9/FacialAge/BNav_EC2/DepthDuration/v2_depth_duration_MTurk/v2_DepthDuration_HTML.html#132,132,1364,768,1364,768,8-22-2022,5-31-16,17,depth_duration_stimuli/002678_2014-06-13_16-15-32_094959634447_rgbf000151-resize_6/002678_2014-06-13_16-15-32_094959634447_rgbf000151-resize_6-target.png,1000,2.1830000000000003,2,8178,999,meters,jsons/v1_VE1000_randls_54.json,1683612,1986760,30,Man
17,870091,DepthScenes,duration_manipulation_targetAtFixation,jsons/v1_VE1000_randls_54.json,http://54.235.29.9/FacialAge/BNav_EC2/DepthDuration/v2_depth_duration_MTurk/v2_DepthDuration_HTML.html#132,132,1364,768,1364,768,8-22-2022,5-31-16,18,depth_duration_stimuli/000486_2014-06-09_20-47-20_260595134347_rgbf000143-resize_2/000486_2014-06-09_20-47-20_260595134347_rgbf000143-resize_2-target.png,1000,4.8325,3,14149,1001,meters,jsons/v1_VE1000_randls_54.json,1683612,1986760,30,Man
18,870091,DepthScenes,duration_manipulation_targetAtFixation,jsons/v1_VE1000_randls_54.json,http://54.235.29.9/FacialAge/BNav_EC2/DepthDuration/v2_depth_duration_MTurk/v2_DepthDuration_HTML.html#132,132,1364,768,1364,768,8-22-2022,5-31-16,19,depth_duration_stimuli/003083_2014-06-15_15-21-03_094959634447_rgbf000063-resize_1/003083_2014-06-15_15-21-03_094959634447_rgbf000063-resize_1-target.png,1000,4.1405,2,8710,1000,meters,jsons/v1_VE1000_randls_54.json,1683612,1986760,30,Man
19,870091,DepthScenes,duration_manipulation_targetAtFixation,jsons/v1_VE1000_randls_54.json,http://54.235.29.9/FacialAge/BNav_EC2/DepthDuration/v2_depth_duration_MTurk/v2_DepthDuration_HTML.html#132,132,1364,768,1364,768,8-22-2022,5-31-16,20,depth_duration_stimuli/002153_2014-06-25_21-27-18_260595134347_rgbf000038-resize_5/002153_2014-06-25_21-27-18_260595134347_rgbf000038-resize_5-target.png,1000,2.505,2,15193,1037,meters,jsons/v1_VE1000_randls_54.json,1683612,1986760,30,Man
20,870091,DepthScenes,duration_manipulation_targetAtFixation,jsons/v1_VE1000_randls_54.json,http://54.235.29.9/FacialAge/BNav_EC2/DepthDuration/v2_depth_duration_MTurk/v2_DepthDuration_HTML.html#132,132,1364,768,1364,768,8-22-2022,5-31-16,21,depth_duration_stimuli/002660_2014-06-13_15-44-18_094959634447_rgbf001878-resize_2/002660_2014-06-13_15-44-18_094959634447_rgbf001878-resize_2-target.png,1000,3.576,1,7562,1001,meters,jsons/v1_VE1000_randls_54.json,1683612,1986760,30,Man
21,870091,DepthScenes,duration_manipulation_targetAtFixation,jsons/v1_VE1000_randls_54.json,http://54.235.29.9/FacialAge/BNav_EC2/DepthDuration/v2_depth_duration_MTurk/v2_DepthDuration_HTML.html#132,132,1364,768,1364,768,8-22-2022,5-31-16,22,depth_duration_stimuli/002043_2014-06-24_20-29-38_260595134347_rgbf000039-resize_4/002043_2014-06-24_20-29-38_260595134347_rgbf000039-resize_4-target.png,1000,2.8435,3,9381,1001,meters,jsons/v1_VE1000_randls_54.json,1683612,1986760,30,Man
22,870091,DepthScenes,duration_manipulation_targetAtFixation,jsons/v1_VE1000_randls_54.json,http://54.235.29.9/FacialAge/BNav_EC2/DepthDuration/v2_depth_duration_MTurk/v2_DepthDuration_HTML.html#132,132,1364,768,1364,768,8-22-2022,5-31-16,23,depth_duration_stimuli/003048_2014-06-15_13-49-43_094959634447_rgbf000150-resize_1/003048_2014-06-15_13-49-43_094959634447_rgbf000150-resize_1-target.png,1000,4.0035,2,9095,1000,meters,jsons/v1_VE1000_randls_54.json,1683612,1986760,30,Man
23,870091,DepthScenes,duration_manipulation_targetAtFixation,jsons/v1_VE1000_randls_54.json,http://54.235.29.9/FacialAge/BNav_EC2/DepthDuration/v2_depth_duration_MTurk/v2_DepthDuration_HTML.html#132,132,1364,768,1364,768,8-22-2022,5-31-16,24,depth_duration_stimuli/000929_2014-06-09_16-33-19_260595134347_rgbf000139-resize_0/000929_2014-06-09_16-33-19_260595134347_rgbf000139-resize_0-target.png,1000,2.8680000000000003,3,14111,1000,meters,jsons/v1_VE1000_randls_54.json,1683612,1986760,30,Man
24,870091,DepthScenes,duration_manipulation_targetAtFixation,jsons/v1_VE1000_randls_54.json,http://54.235.29.9/FacialAge/BNav_EC2/DepthDuration/v2_depth_duration_MTurk/v2_DepthDuration_HTML.html#132,132,1364,768,1364,768,8-22-2022,5-31-16,25,depth_duration_stimuli/000457_2014-06-08_16-52-43_260595134347_rgbf000199-resize_1/000457_2014-06-08_16-52-43_260595134347_rgbf000199-resize_1-target.png,1000,3.6489999999999996,1,14615,999,meters,jsons/v1_VE1000_randls_54.json,1683612,1986760,30,Man
25,870091,DepthScenes,duration_manipulation_targetAtFixation,jsons/v1_VE1000_randls_54.json,http://54.235.29.9/FacialAge/BNav_EC2/DepthDuration/v2_depth_duration_MTurk/v2_DepthDuration_HTML.html#132,132,1364,768,1364,768,8-22-2022,5-31-16,26,depth_duration_stimuli/001055_2014-06-08_18-45-35_260595134347_rgbf000111-resize_4/001055_2014-06-08_18-45-35_260595134347_rgbf000111-resize_4-target.png,1000,2.4290000000000003,1,9026,957,meters,jsons/v1_VE1000_randls_54.json,1683612,1986760,30,Man
26,870091,DepthScenes,duration_manipulation_targetAtFixation,jsons/v1_VE1000_randls_54.json,http://54.235.29.9/FacialAge/BNav_EC2/DepthDuration/v2_depth_duration_MTurk/v2_DepthDuration_HTML.html#132,132,1364,768,1364,768,8-22-2022,5-31-16,27,depth_duration_stimuli/000549_2014-06-08_22-10-24_260595134347_rgbf000247-resize_3/000549_2014-06-08_22-10-24_260595134347_rgbf000247-resize_3-target.png,1000,1.841,2,4689,999,meters,jsons/v1_VE1000_randls_54.json,1683612,1986760,30,Man
27,870091,DepthScenes,duration_manipulation_targetAtFixation,jsons/v1_VE1000_randls_54.json,http://54.235.29.9/FacialAge/BNav_EC2/DepthDuration/v2_depth_duration_MTurk/v2_DepthDuration_HTML.html#132,132,1364,768,1364,768,8-22-2022,5-31-16,28,depth_duration_stimuli/001806_2014-06-26_20-50-20_260595134347_rgbf000091-resize_1/001806_2014-06-26_20-50-20_260595134347_rgbf000091-resize_1-target.png,1000,2.7305,2,7839,999,meters,jsons/v1_VE1000_randls_54.json,1683612,1986760,30,Man
28,870091,DepthScenes,duration_manipulation_targetAtFixation,jsons/v1_VE1000_randls_54.json,http://54.235.29.9/FacialAge/BNav_EC2/DepthDuration/v2_depth_duration_MTurk/v2_DepthDuration_HTML.html#132,132,1364,768,1364,768,8-22-2022,5-31-16,29,depth_duration_stimuli/001617_2014-06-20_11-35-32_260595134347_rgbf000066-resize_1/001617_2014-06-20_11-35-32_260595134347_rgbf000066-resize_1-target.png,1000,3.7910000000000004,2,7919,1000,meters,jsons/v1_VE1000_randls_54.json,1683612,1986760,30,Man
29,870091,DepthScenes,duration_manipulation_targetAtFixation,jsons/v1_VE1000_randls_54.json,http://54.235.29.9/FacialAge/BNav_EC2/DepthDuration/v2_depth_duration_MTurk/v2_DepthDuration_HTML.html#132,132,1364,768,1364,768,8-22-2022,5-31-16,30,depth_duration_stimuli/000375_2014-06-08_11-17-29_260595134347_rgbf000133-resize_2/000375_2014-06-08_11-17-29_260595134347_rgbf000133-resize-original.jpg,1000,4.718,1,9510,999,meters,jsons/v1_VE1000_randls_54.json,1683612,1986760,30,Man
30,870091,DepthScenes,duration_manipulation_targetAtFixation,jsons/v1_VE1000_randls_54.json,http://54.235.29.9/FacialAge/BNav_EC2/DepthDuration/v2_depth_duration_MTurk/v2_DepthDuration_HTML.html#132,132,1364,768,1364,768,8-22-2022,5-31-16,31,depth_duration_stimuli/000642_2014-06-08_16-59-25_260595134347_rgbf000098-resize_2/000642_2014-06-08_16-59-25_260595134347_rgbf000098-resize_2-target.png,1000,2.8815,1,15249,999,meters,jsons/v1_VE1000_randls_54.json,1683612,1986760,30,Man
31,870091,DepthScenes,duration_manipulation_targetAtFixation,jsons/v1_VE1000_randls_54.json,http://54.235.29.9/FacialAge/BNav_EC2/DepthDuration/v2_depth_duration_MTurk/v2_DepthDuration_HTML.html#132,132,1364,768,1364,768,8-22-2022,5-31-16,32,depth_duration_stimuli/002425_2014-06-28_20-27-29_260595134347_rgbf000031-resize_8/002425_2014-06-28_20-27-29_260595134347_rgbf000031-resize_8-target.png,1000,3.8960000000000004,2,4643,993,meters,jsons/v1_VE1000_randls_54.json,1683612,1986760,30,Man
32,870091,DepthScenes,duration_manipulation_targetAtFixation,jsons/v1_VE1000_randls_54.json,http://54.235.29.9/FacialAge/BNav_EC2/DepthDuration/v2_depth_duration_MTurk/v2_DepthDuration_HTML.html#132,132,1364,768,1364,768,8-22-2022,5-31-16,33,depth_duration_stimuli/000758_2014-06-08_22-05-08_260595134347_rgbf000085-resize_0/000758_2014-06-08_22-05-08_260595134347_rgbf000085-resize_0-target.png,1000,3.3810000000000002,1,10626,1000,meters,jsons/v1_VE1000_randls_54.json,1683612,1986760,30,Man
33,870091,DepthScenes,duration_manipulation_targetAtFixation,jsons/v1_VE1000_randls_54.json,http://54.235.29.9/FacialAge/BNav_EC2/DepthDuration/v2_depth_duration_MTurk/v2_DepthDuration_HTML.html#132,132,1364,768,1364,768,8-22-2022,5-31-16,34,depth_duration_stimuli/000854_2014-06-09_19-43-13_260595134347_rgbf000066-resize_0/000854_2014-06-09_19-43-13_260595134347_rgbf000066-resize_0-target.png,1000,3.068,2,7311,978,meters,jsons/v1_VE1000_randls_54.json,1683612,1986760,30,Man
34,870091,DepthScenes,duration_manipulation_targetAtFixation,jsons/v1_VE1000_randls_54.json,http://54.235.29.9/FacialAge/BNav_EC2/DepthDuration/v2_depth_duration_MTurk/v2_DepthDuration_HTML.html#132,132,1364,768,1364,768,8-22-2022,5-31-16,35,depth_duration_stimuli/002748_2014-06-22_19-07-22_094959634447_rgbf000078-resize_1/002748_2014-06-22_19-07-22_094959634447_rgbf000078-resize_1-target.png,1000,4.6705,2,10338,999,meters,jsons/v1_VE1000_randls_54.json,1683612,1986760,30,Man
35,870091,DepthScenes,duration_manipulation_targetAtFixation,jsons/v1_VE1000_randls_54.json,http://54.235.29.9/FacialAge/BNav_EC2/DepthDuration/v2_depth_duration_MTurk/v2_DepthDuration_HTML.html#132,132,1364,768,1364,768,8-22-2022,5-31-16,36,depth_duration_stimuli/002995_2014-06-15_12-31-26_094959634447_rgbf000150-resize_1/002995_2014-06-15_12-31-26_094959634447_rgbf000150-resize_1-target.png,1000,3.8360000000000003,2,14563,999,meters,jsons/v1_VE1000_randls_54.json,1683612,1986760,30,Man
36,870091,DepthScenes,duration_manipulation_targetAtFixation,jsons/v1_VE1000_randls_54.json,http://54.235.29.9/FacialAge/BNav_EC2/DepthDuration/v2_depth_duration_MTurk/v2_DepthDuration_HTML.html#132,132,1364,768,1364,768,8-22-2022,5-31-16,37,depth_duration_stimuli/002630_2014-06-24_14-47-50_094959634447_rgbf000055-resize_1/002630_2014-06-24_14-47-50_094959634447_rgbf000055-resize_1-target.png,1000,3.0095,2,11141,1000,meters,jsons/v1_VE1000_randls_54.json,1683612,1986760,30,Man
37,870091,DepthScenes,duration_manipulation_targetAtFixation,jsons/v1_VE1000_randls_54.json,http://54.235.29.9/FacialAge/BNav_EC2/DepthDuration/v2_depth_duration_MTurk/v2_DepthDuration_HTML.html#132,132,1364,768,1364,768,8-22-2022,5-31-16,38,depth_duration_stimuli/002758_2014-06-22_19-11-20_094959634447_rgbf000128-resize_1/002758_2014-06-22_19-11-20_094959634447_rgbf000128-resize_1-target.png,1000,2.555,2,4537,1000,meters,jsons/v1_VE1000_randls_54.json,1683612,1986760,30,Man
38,870091,DepthScenes,duration_manipulation_targetAtFixation,jsons/v1_VE1000_randls_54.json,http://54.235.29.9/FacialAge/BNav_EC2/DepthDuration/v2_depth_duration_MTurk/v2_DepthDuration_HTML.html#132,132,1364,768,1364,768,8-22-2022,5-31-16,39,depth_duration_stimuli/000682_2014-06-08_23-14-58_260595134347_rgbf000041-resize_5/000682_2014-06-08_23-14-58_260595134347_rgbf000041-resize_5-target.png,1000,2.7239999999999998,2,160178,999,meters,jsons/v1_VE1000_randls_54.json,1683612,1986760,30,Man
39,870091,DepthScenes,duration_manipulation_targetAtFixation,jsons/v1_VE1000_randls_54.json,http://54.235.29.9/FacialAge/BNav_EC2/DepthDuration/v2_depth_duration_MTurk/v2_DepthDuration_HTML.html#132,132,1364,768,1364,768,8-22-2022,5-31-16,40,depth_duration_stimuli/001650_2014-06-20_12-09-00_260595134347_rgbf000087-resize_3/001650_2014-06-20_12-09-00_260595134347_rgbf000087-resize_3-target.png,1000,1.9505,2,18528,1000,meters,jsons/v1_VE1000_randls_54.json,1683612,1986760,30,Man
40,870091,DepthScenes,duration_manipulation_targetAtFixation,jsons/v1_VE1000_randls_54.json,http://54.235.29.9/FacialAge/BNav_EC2/DepthDuration/v2_depth_duration_MTurk/v2_DepthDuration_HTML.html#132,132,1364,768,1364,768,8-22-2022,5-31-16,41,depth_duration_stimuli/001449_2014-06-19_17-01-27_260595134347_rgbf000116-resize_2/001449_2014-06-19_17-01-27_260595134347_rgbf000116-resize_2-target.png,1000,3.452,2,14708,999,meters,jsons/v1_VE1000_randls_54.json,1683612,1986760,30,Man
41,870091,DepthScenes,duration_manipulation_targetAtFixation,jsons/v1_VE1000_randls_54.json,http://54.235.29.9/FacialAge/BNav_EC2/DepthDuration/v2_depth_duration_MTurk/v2_DepthDuration_HTML.html#132,132,1364,768,1364,768,8-22-2022,5-31-16,42,depth_duration_stimuli/001450_2014-06-19_17-02-03_260595134347_rgbf000203-resize_4/001450_2014-06-19_17-02-03_260595134347_rgbf000203-resize_4-target.png,1000,4.0106666666667,2,10119,999,meters,jsons/v1_VE1000_randls_54.json,1683612,1986760,30,Man
42,870091,DepthScenes,duration_manipulation_targetAtFixation,jsons/v1_VE1000_randls_54.json,http://54.235.29.9/FacialAge/BNav_EC2/DepthDuration/v2_depth_duration_MTurk/v2_DepthDuration_HTML.html#132,132,1364,768,1364,768,8-22-2022,5-31-16,43,depth_duration_stimuli/000773_2014-06-08_22-24-54_260595134347_rgbf000093-resize_1/000773_2014-06-08_22-24-54_260595134347_rgbf000093-resize_1-target.png,1000,4.973,2,18051,1000,meters,jsons/v1_VE1000_randls_54.json,1683612,1986760,30,Man
43,870091,DepthScenes,duration_manipulation_targetAtFixation,jsons/v1_VE1000_randls_54.json,http://54.235.29.9/FacialAge/BNav_EC2/DepthDuration/v2_depth_duration_MTurk/v2_DepthDuration_HTML.html#132,132,1364,768,1364,768,8-22-2022,5-31-16,44,depth_duration_stimuli/002414_2014-06-28_20-24-58_260595134347_rgbf000067-resize_4/002414_2014-06-28_20-24-58_260595134347_rgbf000067-resize_4-target.png,1000,4.363,2,19569,999,meters,jsons/v1_VE1000_randls_54.json,1683612,1986760,30,Man
44,870091,DepthScenes,duration_manipulation_targetAtFixation,jsons/v1_VE1000_randls_54.json,http://54.235.29.9/FacialAge/BNav_EC2/DepthDuration/v2_depth_duration_MTurk/v2_DepthDuration_HTML.html#132,132,1364,768,1364,768,8-22-2022,5-31-16,45,depth_duration_stimuli/000787_2014-06-08_22-33-53_260595134347_rgbf000175-resize_1/000787_2014-06-08_22-33-53_260595134347_rgbf000175-resize-original.jpg,1000,4.784,1,15149,1000,meters,jsons/v1_VE1000_randls_54.json,1683612,1986760,30,Man
45,870091,DepthScenes,duration_manipulation_targetAtFixation,jsons/v1_VE1000_randls_54.json,http://54.235.29.9/FacialAge/BNav_EC2/DepthDuration/v2_depth_duration_MTurk/v2_DepthDuration_HTML.html#132,132,1364,768,1364,768,8-22-2022,5-31-16,46,depth_duration_stimuli/001056_2014-06-08_18-46-44_260595134347_rgbf000068-resize_0/001056_2014-06-08_18-46-44_260595134347_rgbf000068-resize_0-target.png,1000,2.6625,1,6570,1000,meters,jsons/v1_VE1000_randls_54.json,1683612,1986760,30,Man
46,870091,DepthScenes,duration_manipulation_targetAtFixation,jsons/v1_VE1000_randls_54.json,http://54.235.29.9/FacialAge/BNav_EC2/DepthDuration/v2_depth_duration_MTurk/v2_DepthDuration_HTML.html#132,132,1364,768,1364,768,8-22-2022,5-31-16,47,depth_duration_stimuli/002199_2014-06-28_18-33-56_260595134347_rgbf000074-resize_0/002199_2014-06-28_18-33-56_260595134347_rgbf000074-resize_0-target.png,1000,1.996,1,6707,1000,meters,jsons/v1_VE1000_randls_54.json,1683612,1986760,30,Man
47,870091,DepthScenes,duration_manipulation_targetAtFixation,jsons/v1_VE1000_randls_54.json,http://54.235.29.9/FacialAge/BNav_EC2/DepthDuration/v2_depth_duration_MTurk/v2_DepthDuration_HTML.html#132,132,1364,768,1364,768,8-22-2022,5-31-16,48,depth_duration_stimuli/001244_2014-06-17_16-47-45_260595134347_rgbf000030-resize_4/001244_2014-06-17_16-47-45_260595134347_rgbf000030-resize_4-target.png,1000,2.0425,1,6740,1000,meters,jsons/v1_VE1000_randls_54.json,1683612,1986760,30,Man
48,870091,DepthScenes,duration_manipulation_targetAtFixation,jsons/v1_VE1000_randls_54.json,http://54.235.29.9/FacialAge/BNav_EC2/DepthDuration/v2_depth_duration_MTurk/v2_DepthDuration_HTML.html#132,132,1364,768,1364,768,8-22-2022,5-31-16,49,depth_duration_stimuli/003495_2014-05-21_16-01-51_094959634447_rgbf000100-resize_3/003495_2014-05-21_16-01-51_094959634447_rgbf000100-resize_3-target.png,1000,1.6255,1,7589,999,meters,jsons/v1_VE1000_randls_54.json,1683612,1986760,30,Man
49,870091,DepthScenes,duration_manipulation_targetAtFixation,jsons/v1_VE1000_randls_54.json,http://54.235.29.9/FacialAge/BNav_EC2/DepthDuration/v2_depth_duration_MTurk/v2_DepthDuration_HTML.html#132,132,1364,768,1364,768,8-22-2022,5-31-16,50,depth_duration_stimuli/002905_2014-06-03_18-04-43_094959634447_rgbf000151-resize_2/002905_2014-06-03_18-04-43_094959634447_rgbf000151-resize_2-target.png,1000,2.0295,3,9660,999,meters,jsons/v1_VE1000_randls_54.json,1683612,1986760,30,Man
50,870091,DepthScenes,duration_manipulation_targetAtFixation,jsons/v1_VE1000_randls_54.json,http://54.235.29.9/FacialAge/BNav_EC2/DepthDuration/v2_depth_duration_MTurk/v2_DepthDuration_HTML.html#132,132,1364,768,1364,768,8-22-2022,5-31-16,51,depth_duration_stimuli/003423_2014-05-21_10-23-26_094959634447_rgbf002665-resize_2/003423_2014-05-21_10-23-26_094959634447_rgbf002665-resize_2-target.png,1000,3.2575,1,11808,999,meters,jsons/v1_VE1000_randls_54.json,1683612,1986760,30,Man
51,870091,DepthScenes,duration_manipulation_targetAtFixation,jsons/v1_VE1000_randls_54.json,http://54.235.29.9/FacialAge/BNav_EC2/DepthDuration/v2_depth_duration_MTurk/v2_DepthDuration_HTML.html#132,132,1364,768,1364,768,8-22-2022,5-31-16,52,depth_duration_stimuli/000469_2014-06-09_19-42-10_260595134347_rgbf000081-resize_1/000469_2014-06-09_19-42-10_260595134347_rgbf000081-resize_1-target.png,1000,1.652,1,8225,999,meters,jsons/v1_VE1000_randls_54.json,1683612,1986760,30,Man
52,870091,DepthScenes,duration_manipulation_targetAtFixation,jsons/v1_VE1000_randls_54.json,http://54.235.29.9/FacialAge/BNav_EC2/DepthDuration/v2_depth_duration_MTurk/v2_DepthDuration_HTML.html#132,132,1364,768,1364,768,8-22-2022,5-31-16,53,depth_duration_stimuli/000483_2014-06-09_20-41-45_260595134347_rgbf000116-resize_4/000483_2014-06-09_20-41-45_260595134347_rgbf000116-resize_4-target.png,1000,1.337,1,6109,999,meters,jsons/v1_VE1000_randls_54.json,1683612,1986760,30,Man
53,870091,DepthScenes,duration_manipulation_targetAtFixation,jsons/v1_VE1000_randls_54.json,http://54.235.29.9/FacialAge/BNav_EC2/DepthDuration/v2_depth_duration_MTurk/v2_DepthDuration_HTML.html#132,132,1364,768,1364,768,8-22-2022,5-31-16,54,depth_duration_stimuli/002279_2014-06-28_18-55-32_260595134347_rgbf000040-resize_5/002279_2014-06-28_18-55-32_260595134347_rgbf000040-resize_5-target.png,1000,1.5043333333333,3,11508,1000,meters,jsons/v1_VE1000_randls_54.json,1683612,1986760,30,Man
54,870091,DepthScenes,duration_manipulation_targetAtFixation,jsons/v1_VE1000_randls_54.json,http://54.235.29.9/FacialAge/BNav_EC2/DepthDuration/v2_depth_duration_MTurk/v2_DepthDuration_HTML.html#132,132,1364,768,1364,768,8-22-2022,5-31-16,55,depth_duration_stimuli/000635_2014-06-08_16-38-42_260595134347_rgbf000106-resize_1/000635_2014-06-08_16-38-42_260595134347_rgbf000106-resize_1-target.png,1000,2.074,3,11530,999,meters,jsons/v1_VE1000_randls_54.json,1683612,1986760,30,Man
55,870091,DepthScenes,duration_manipulation_targetAtFixation,jsons/v1_VE1000_randls_54.json,http://54.235.29.9/FacialAge/BNav_EC2/DepthDuration/v2_depth_duration_MTurk/v2_DepthDuration_HTML.html#132,132,1364,768,1364,768,8-22-2022,5-31-16,56,depth_duration_stimuli/000414_2014-06-04_19-49-13_260595134347_rgbf000044-resize_0/000414_2014-06-04_19-49-13_260595134347_rgbf000044-resize_0-target.png,1000,4.329,2,14827,999,meters,jsons/v1_VE1000_randls_54.json,1683612,1986760,30,Man
56,870091,DepthScenes,duration_manipulation_targetAtFixation,jsons/v1_VE1000_randls_54.json,http://54.235.29.9/FacialAge/BNav_EC2/DepthDuration/v2_depth_duration_MTurk/v2_DepthDuration_HTML.html#132,132,1364,768,1364,768,8-22-2022,5-31-16,57,depth_duration_stimuli/003129_2014-05-12_10-48-10_094959634447_rgbf000100-resize_0/003129_2014-05-12_10-48-10_094959634447_rgbf000100-resize_0-target.png,1000,4.9305,1,5669,1000,meters,jsons/v1_VE1000_randls_54.json,1683612,1986760,30,Man
57,870091,DepthScenes,duration_manipulation_targetAtFixation,jsons/v1_VE1000_randls_54.json,http://54.235.29.9/FacialAge/BNav_EC2/DepthDuration/v2_depth_duration_MTurk/v2_DepthDuration_HTML.html#132,132,1364,768,1364,768,8-22-2022,5-31-16,58,depth_duration_stimuli/001092_2014-06-15_17-34-58_260595134347_rgbf000171-resize_3/001092_2014-06-15_17-34-58_260595134347_rgbf000171-resize_3-target.png,1000,2.6935,1,6414,999,meters,jsons/v1_VE1000_randls_54.json,1683612,1986760,30,Man
58,870091,DepthScenes,duration_manipulation_targetAtFixation,jsons/v1_VE1000_randls_54.json,http://54.235.29.9/FacialAge/BNav_EC2/DepthDuration/v2_depth_duration_MTurk/v2_DepthDuration_HTML.html#132,132,1364,768,1364,768,8-22-2022,5-31-16,59,depth_duration_stimuli/002545_2014-06-24_13-38-53_094959634447_rgbf000080-resize_4/002545_2014-06-24_13-38-53_094959634447_rgbf000080-resize_4-target.png,1000,1.9205,3,6991,997,meters,jsons/v1_VE1000_randls_54.json,1683612,1986760,30,Man
59,870091,DepthScenes,duration_manipulation_targetAtFixation,jsons/v1_VE1000_randls_54.json,http://54.235.29.9/FacialAge/BNav_EC2/DepthDuration/v2_depth_duration_MTurk/v2_DepthDuration_HTML.html#132,132,1364,768,1364,768,8-22-2022,5-31-16,60,depth_duration_stimuli/003534_2014-05-22_15-06-10_094959634447_rgbf000102-resize_4/003534_2014-05-22_15-06-10_094959634447_rgbf000102-resize_4-target.png,1000,1.426,2,7997,1000,meters,jsons/v1_VE1000_randls_54.json,1683612,1986760,30,Man
60,870091,DepthScenes,duration_manipulation_targetAtFixation,jsons/v1_VE1000_randls_54.json,http://54.235.29.9/FacialAge/BNav_EC2/DepthDuration/v2_depth_duration_MTurk/v2_DepthDuration_HTML.html#132,132,1364,768,1364,768,8-22-2022,5-31-16,61,depth_duration_stimuli/002637_2014-06-24_14-51-13_094959634447_rgbf000066-resize_4/002637_2014-06-24_14-51-13_094959634447_rgbf000066-resize_4-target.png,1000,1.9955,2,5648,1000,meters,jsons/v1_VE1000_randls_54.json,1683612,1986760,30,Man
61,870091,DepthScenes,duration_manipulation_targetAtFixation,jsons/v1_VE1000_randls_54.json,http://54.235.29.9/FacialAge/BNav_EC2/DepthDuration/v2_depth_duration_MTurk/v2_DepthDuration_HTML.html#132,132,1364,768,1364,768,8-22-2022,5-31-16,62,depth_duration_stimuli/001175_2014-06-17_15-45-55_260595134347_rgbf000129-resize_4/001175_2014-06-17_15-45-55_260595134347_rgbf000129-resize_4-target.png,1000,4.255,1,12789,998,meters,jsons/v1_VE1000_randls_54.json,1683612,1986760,30,Man
62,870091,DepthScenes,duration_manipulation_targetAtFixation,jsons/v1_VE1000_randls_54.json,http://54.235.29.9/FacialAge/BNav_EC2/DepthDuration/v2_depth_duration_MTurk/v2_DepthDuration_HTML.html#132,132,1364,768,1364,768,8-22-2022,5-31-16,63,depth_duration_stimuli/003490_2014-05-21_15-50-11_094959634447_rgbf000101-resize_3/003490_2014-05-21_15-50-11_094959634447_rgbf000101-resize_3-target.png,1000,3.6445,1,6036,1000,meters,jsons/v1_VE1000_randls_54.json,1683612,1986760,30,Man
63,870091,DepthScenes,duration_manipulation_targetAtFixation,jsons/v1_VE1000_randls_54.json,http://54.235.29.9/FacialAge/BNav_EC2/DepthDuration/v2_depth_duration_MTurk/v2_DepthDuration_HTML.html#132,132,1364,768,1364,768,8-22-2022,5-31-16,64,depth_duration_stimuli/000447_2014-06-08_16-15-46_260595134347_rgbf000130-resize_1/000447_2014-06-08_16-15-46_260595134347_rgbf000130-resize_1-target.png,1000,4.479,1,7418,999,meters,jsons/v1_VE1000_randls_54.json,1683612,1986760,30,Man
64,870091,DepthScenes,duration_manipulation_targetAtFixation,jsons/v1_VE1000_randls_54.json,http://54.235.29.9/FacialAge/BNav_EC2/DepthDuration/v2_depth_duration_MTurk/v2_DepthDuration_HTML.html#132,132,1364,768,1364,768,8-22-2022,5-31-16,65,depth_duration_stimuli/001447_2014-06-19_17-00-32_260595134347_rgbf000082-resize_5/001447_2014-06-19_17-00-32_260595134347_rgbf000082-resize_5-target.png,1000,4.13775,2,7469,1000,meters,jsons/v1_VE1000_randls_54.json,1683612,1986760,30,Man
65,870091,DepthScenes,duration_manipulation_targetAtFixation,jsons/v1_VE1000_randls_54.json,http://54.235.29.9/FacialAge/BNav_EC2/DepthDuration/v2_depth_duration_MTurk/v2_DepthDuration_HTML.html#132,132,1364,768,1364,768,8-22-2022,5-31-16,66,depth_duration_stimuli/001222_2014-06-17_16-24-06_260595134347_rgbf000073-resize_0/001222_2014-06-17_16-24-06_260595134347_rgbf000073-resize-original.jpg,1000,1.4385,0,11760,999,meters,jsons/v1_VE1000_randls_54.json,1683612,1986760,30,Man
66,870091,DepthScenes,duration_manipulation_targetAtFixation,jsons/v1_VE1000_randls_54.json,http://54.235.29.9/FacialAge/BNav_EC2/DepthDuration/v2_depth_duration_MTurk/v2_DepthDuration_HTML.html#132,132,1364,768,1364,768,8-22-2022,5-31-16,67,depth_duration_stimuli/001158_2014-06-17_15-32-16_260595134347_rgbf000138-resize_2/001158_2014-06-17_15-32-16_260595134347_rgbf000138-resize_2-target.png,1000,4.5315,2,12131,1000,meters,jsons/v1_VE1000_randls_54.json,1683612,1986760,30,Man
67,870091,DepthScenes,duration_manipulation_targetAtFixation,jsons/v1_VE1000_randls_54.json,http://54.235.29.9/FacialAge/BNav_EC2/DepthDuration/v2_depth_duration_MTurk/v2_DepthDuration_HTML.html#132,132,1364,768,1364,768,8-22-2022,5-31-16,68,depth_duration_stimuli/000556_2014-06-09_22-42-56_260595134347_rgbf000214-resize_1/000556_2014-06-09_22-42-56_260595134347_rgbf000214-resize_1-target.png,1000,4.8415,1,5281,1000,meters,jsons/v1_VE1000_randls_54.json,1683612,1986760,30,Man
68,870091,DepthScenes,duration_manipulation_targetAtFixation,jsons/v1_VE1000_randls_54.json,http://54.235.29.9/FacialAge/BNav_EC2/DepthDuration/v2_depth_duration_MTurk/v2_DepthDuration_HTML.html#132,132,1364,768,1364,768,8-22-2022,5-31-16,69,depth_duration_stimuli/002600_2014-06-24_14-27-04_094959634447_rgbf000074-resize_2/002600_2014-06-24_14-27-04_094959634447_rgbf000074-resize_2-target.png,1000,2.7575,1,10730,1000,meters,jsons/v1_VE1000_randls_54.json,1683612,1986760,30,Man
69,870091,DepthScenes,duration_manipulation_targetAtFixation,jsons/v1_VE1000_randls_54.json,http://54.235.29.9/FacialAge/BNav_EC2/DepthDuration/v2_depth_duration_MTurk/v2_DepthDuration_HTML.html#132,132,1364,768,1364,768,8-22-2022,5-31-16,70,depth_duration_stimuli/003228_2014-05-14_13-42-35_094959634447_rgbf000101-resize_1/003228_2014-05-14_13-42-35_094959634447_rgbf000101-resize_1-target.png,1000,1.9680000000000002,1,6182,999,meters,jsons/v1_VE1000_randls_54.json,1683612,1986760,30,Man
70,870091,DepthScenes,duration_manipulation_targetAtFixation,jsons/v1_VE1000_randls_54.json,http://54.235.29.9/FacialAge/BNav_EC2/DepthDuration/v2_depth_duration_MTurk/v2_DepthDuration_HTML.html#132,132,1364,768,1364,768,8-22-2022,5-31-16,71,depth_duration_stimuli/002788_2014-06-22_19-36-03_094959634447_rgbf000088-resize_2/002788_2014-06-22_19-36-03_094959634447_rgbf000088-resize_2-target.png,1000,1.6465,1,7568,1000,meters,jsons/v1_VE1000_randls_54.json,1683612,1986760,30,Man
71,870091,DepthScenes,duration_manipulation_targetAtFixation,jsons/v1_VE1000_randls_54.json,http://54.235.29.9/FacialAge/BNav_EC2/DepthDuration/v2_depth_duration_MTurk/v2_DepthDuration_HTML.html#132,132,1364,768,1364,768,8-22-2022,5-31-16,72,depth_duration_stimuli/000749_2014-06-08_21-55-06_260595134347_rgbf000070-resize_2/000749_2014-06-08_21-55-06_260595134347_rgbf000070-resize_2-target.png,1000,2.331,1,6024,999,meters,jsons/v1_VE1000_randls_54.json,1683612,1986760,30,Man
72,870091,DepthScenes,duration_manipulation_targetAtFixation,jsons/v1_VE1000_randls_54.json,http://54.235.29.9/FacialAge/BNav_EC2/DepthDuration/v2_depth_duration_MTurk/v2_DepthDuration_HTML.html#132,132,1364,768,1364,768,8-22-2022,5-31-16,73,depth_duration_stimuli/001016_2014-06-09_16-16-10_260595134347_rgbf000112-resize_5/001016_2014-06-09_16-16-10_260595134347_rgbf000112-resize_5-target.png,1000,1.6565,1,6599,999,meters,jsons/v1_VE1000_randls_54.json,1683612,1986760,30,Man
73,870091,DepthScenes,duration_manipulation_targetAtFixation,jsons/v1_VE1000_randls_54.json,http://54.235.29.9/FacialAge/BNav_EC2/DepthDuration/v2_depth_duration_MTurk/v2_DepthDuration_HTML.html#132,132,1364,768,1364,768,8-22-2022,5-31-16,74,depth_duration_stimuli/002340_2014-06-28_20-05-46_260595134347_rgbf000113-resize_0/002340_2014-06-28_20-05-46_260595134347_rgbf000113-resize_0-target.png,1000,2.4735,1,7066,1000,meters,jsons/v1_VE1000_randls_54.json,1683612,1986760,30,Man
74,870091,DepthScenes,duration_manipulation_targetAtFixation,jsons/v1_VE1000_randls_54.json,http://54.235.29.9/FacialAge/BNav_EC2/DepthDuration/v2_depth_duration_MTurk/v2_DepthDuration_HTML.html#132,132,1364,768,1364,768,8-22-2022,5-31-16,75,depth_duration_stimuli/002549_2014-06-24_13-41-39_094959634447_rgbf000022-resize_3/002549_2014-06-24_13-41-39_094959634447_rgbf000022-resize_3-target.png,1000,1.476,1,8700,1002,meters,jsons/v1_VE1000_randls_54.json,1683612,1986760,30,Man
75,870091,DepthScenes,duration_manipulation_targetAtFixation,jsons/v1_VE1000_randls_54.json,http://54.235.29.9/FacialAge/BNav_EC2/DepthDuration/v2_depth_duration_MTurk/v2_DepthDuration_HTML.html#132,132,1364,768,1364,768,8-22-2022,5-31-16,76,depth_duration_stimuli/002750_2014-06-22_19-08-03_094959634447_rgbf000094-resize_4/002750_2014-06-22_19-08-03_094959634447_rgbf000094-resize_4-target.png,1000,2.354,1,8030,1000,meters,jsons/v1_VE1000_randls_54.json,1683612,1986760,30,Man
76,870091,DepthScenes,duration_manipulation_targetAtFixation,jsons/v1_VE1000_randls_54.json,http://54.235.29.9/FacialAge/BNav_EC2/DepthDuration/v2_depth_duration_MTurk/v2_DepthDuration_HTML.html#132,132,1364,768,1364,768,8-22-2022,5-31-16,77,depth_duration_stimuli/001029_2014-06-08_13-17-57_260595134347_rgbf000065-resize_1/001029_2014-06-08_13-17-57_260595134347_rgbf000065-resize_1-target.png,1000,3.0835,2,6110,1000,meters,jsons/v1_VE1000_randls_54.json,1683612,1986760,30,Man
77,870091,DepthScenes,duration_manipulation_targetAtFixation,jsons/v1_VE1000_randls_54.json,http://54.235.29.9/FacialAge/BNav_EC2/DepthDuration/v2_depth_duration_MTurk/v2_DepthDuration_HTML.html#132,132,1364,768,1364,768,8-22-2022,5-31-16,78,depth_duration_stimuli/000677_2014-06-08_23-10-32_260595134347_rgbf000158-resize_6/000677_2014-06-08_23-10-32_260595134347_rgbf000158-resize_6-target.png,1000,3.556,1,14958,999,meters,jsons/v1_VE1000_randls_54.json,1683612,1986760,30,Man
78,870091,DepthScenes,duration_manipulation_targetAtFixation,jsons/v1_VE1000_randls_54.json,http://54.235.29.9/FacialAge/BNav_EC2/DepthDuration/v2_depth_duration_MTurk/v2_DepthDuration_HTML.html#132,132,1364,768,1364,768,8-22-2022,5-31-16,79,depth_duration_stimuli/003492_2014-05-21_15-50-55_094959634447_rgbf000828-resize_1/003492_2014-05-21_15-50-55_094959634447_rgbf000828-resize_1-target.png,1000,4.06875,1,6768,967,meters,jsons/v1_VE1000_randls_54.json,1683612,1986760,30,Man
79,870091,DepthScenes,duration_manipulation_targetAtFixation,jsons/v1_VE1000_randls_54.json,http://54.235.29.9/FacialAge/BNav_EC2/DepthDuration/v2_depth_duration_MTurk/v2_DepthDuration_HTML.html#132,132,1364,768,1364,768,8-22-2022,5-31-16,80,depth_duration_stimuli/002568_2014-06-24_13-59-21_094959634447_rgbf000062-resize_4/002568_2014-06-24_13-59-21_094959634447_rgbf000062-resize_4-target.png,1000,3.015,1,6657,1000,meters,jsons/v1_VE1000_randls_54.json,1683612,1986760,30,Man
80,870091,DepthScenes,duration_manipulation_targetAtFixation,jsons/v1_VE1000_randls_54.json,http://54.235.29.9/FacialAge/BNav_EC2/DepthDuration/v2_depth_duration_MTurk/v2_DepthDuration_HTML.html#132,132,1364,768,1364,768,8-22-2022,5-31-16,81,depth_duration_stimuli/001164_2014-06-17_15-35-46_260595134347_rgbf000085-resize_3/001164_2014-06-17_15-35-46_260595134347_rgbf000085-resize_3-target.png,1000,2.354,1,6251,1001,meters,jsons/v1_VE1000_randls_54.json,1683612,1986760,30,Man
81,870091,DepthScenes,duration_manipulation_targetAtFixation,jsons/v1_VE1000_randls_54.json,http://54.235.29.9/FacialAge/BNav_EC2/DepthDuration/v2_depth_duration_MTurk/v2_DepthDuration_HTML.html#132,132,1364,768,1364,768,8-22-2022,5-31-16,82,depth_duration_stimuli/001136_2014-06-17_15-19-41_260595134347_rgbf000076-resize_3/001136_2014-06-17_15-19-41_260595134347_rgbf000076-resize_3-target.png,1000,1.8655,1,8498,1000,meters,jsons/v1_VE1000_randls_54.json,1683612,1986760,30,Man
82,870091,DepthScenes,duration_manipulation_targetAtFixation,jsons/v1_VE1000_randls_54.json,http://54.235.29.9/FacialAge/BNav_EC2/DepthDuration/v2_depth_duration_MTurk/v2_DepthDuration_HTML.html#132,132,1364,768,1364,768,8-22-2022,5-31-16,83,depth_duration_stimuli/000506_2014-06-08_23-21-00_260595134347_rgbf000070-resize_7/000506_2014-06-08_23-21-00_260595134347_rgbf000070-resize_7-target.png,1000,4.0585,2,20440,999,meters,jsons/v1_VE1000_randls_54.json,1683612,1986760,30,Man
83,870091,DepthScenes,duration_manipulation_targetAtFixation,jsons/v1_VE1000_randls_54.json,http://54.235.29.9/FacialAge/BNav_EC2/DepthDuration/v2_depth_duration_MTurk/v2_DepthDuration_HTML.html#132,132,1364,768,1364,768,8-22-2022,5-31-16,84,depth_duration_stimuli/003079_2014-06-15_15-18-20_094959634447_rgbf000152-resize_8/003079_2014-06-15_15-18-20_094959634447_rgbf000152-resize_8-target.png,1000,2.8775,1,12847,1000,meters,jsons/v1_VE1000_randls_54.json,1683612,1986760,30,Man
84,870091,DepthScenes,duration_manipulation_targetAtFixation,jsons/v1_VE1000_randls_54.json,http://54.235.29.9/FacialAge/BNav_EC2/DepthDuration/v2_depth_duration_MTurk/v2_DepthDuration_HTML.html#132,132,1364,768,1364,768,8-22-2022,5-31-16,85,depth_duration_stimuli/002964_2014-06-08_17-46-11_094959634447_rgbf000091-resize_4/002964_2014-06-08_17-46-11_094959634447_rgbf000091-resize_4-target.png,1000,1.6909999999999998,2,5898,1000,meters,jsons/v1_VE1000_randls_54.json,1683612,1986760,30,Man
85,870091,DepthScenes,duration_manipulation_targetAtFixation,jsons/v1_VE1000_randls_54.json,http://54.235.29.9/FacialAge/BNav_EC2/DepthDuration/v2_depth_duration_MTurk/v2_DepthDuration_HTML.html#132,132,1364,768,1364,768,8-22-2022,5-31-16,86,depth_duration_stimuli/002136_2014-06-25_21-18-03_260595134347_rgbf000109-resize_3/002136_2014-06-25_21-18-03_260595134347_rgbf000109-resize_3-target.png,1000,1.9569999999999999,2,5419,1000,meters,jsons/v1_VE1000_randls_54.json,1683612,1986760,30,Man
86,870091,DepthScenes,duration_manipulation_targetAtFixation,jsons/v1_VE1000_randls_54.json,http://54.235.29.9/FacialAge/BNav_EC2/DepthDuration/v2_depth_duration_MTurk/v2_DepthDuration_HTML.html#132,132,1364,768,1364,768,8-22-2022,5-31-16,87,depth_duration_stimuli/002725_2014-06-22_11-47-51_094959634447_rgbf000070-resize_1/002725_2014-06-22_11-47-51_094959634447_rgbf000070-resize_1-target.png,1000,2.195,2,7887,1000,meters,jsons/v1_VE1000_randls_54.json,1683612,1986760,30,Man
87,870091,DepthScenes,duration_manipulation_targetAtFixation,jsons/v1_VE1000_randls_54.json,http://54.235.29.9/FacialAge/BNav_EC2/DepthDuration/v2_depth_duration_MTurk/v2_DepthDuration_HTML.html#132,132,1364,768,1364,768,8-22-2022,5-31-16,88,depth_duration_stimuli/002344_2014-06-28_20-06-29_260595134347_rgbf000030-resize_1/002344_2014-06-28_20-06-29_260595134347_rgbf000030-resize_1-target.png,1000,1.5795,2,7269,999,meters,jsons/v1_VE1000_randls_54.json,1683612,1986760,30,Man
88,870091,DepthScenes,duration_manipulation_targetAtFixation,jsons/v1_VE1000_randls_54.json,http://54.235.29.9/FacialAge/BNav_EC2/DepthDuration/v2_depth_duration_MTurk/v2_DepthDuration_HTML.html#132,132,1364,768,1364,768,8-22-2022,5-31-16,89,depth_duration_stimuli/001011_2014-06-08_23-18-54_260595134347_rgbf000044-resize_4/001011_2014-06-08_23-18-54_260595134347_rgbf000044-resize_4-target.png,1000,2.4730000000000003,2,6217,999,meters,jsons/v1_VE1000_randls_54.json,1683612,1986760,30,Man
89,870091,DepthScenes,duration_manipulation_targetAtFixation,jsons/v1_VE1000_randls_54.json,http://54.235.29.9/FacialAge/BNav_EC2/DepthDuration/v2_depth_duration_MTurk/v2_DepthDuration_HTML.html#132,132,1364,768,1364,768,8-22-2022,5-31-16,90,depth_duration_stimuli/002875_2014-06-01_15-19-00_094959634447_rgbf000151-resize_1/002875_2014-06-01_15-19-00_094959634447_rgbf000151-resize_1-target.png,1000,1.9675,2,6970,999,meters,jsons/v1_VE1000_randls_54.json,1683612,1986760,30,Man
90,870091,DepthScenes,duration_manipulation_targetAtFixation,jsons/v1_VE1000_randls_54.json,http://54.235.29.9/FacialAge/BNav_EC2/DepthDuration/v2_depth_duration_MTurk/v2_DepthDuration_HTML.html#132,132,1364,768,1364,768,8-22-2022,5-31-16,91,depth_duration_stimuli/003621_2014-05-23_18-06-08_094959634447_rgbf000101-resize_1/003621_2014-05-23_18-06-08_094959634447_rgbf000101-resize_1-target.png,1000,3.9835,1,6210,1001,meters,jsons/v1_VE1000_randls_54.json,1683612,1986760,30,Man
91,870091,DepthScenes,duration_manipulation_targetAtFixation,jsons/v1_VE1000_randls_54.json,http://54.235.29.9/FacialAge/BNav_EC2/DepthDuration/v2_depth_duration_MTurk/v2_DepthDuration_HTML.html#132,132,1364,768,1364,768,8-22-2022,5-31-16,92,depth_duration_stimuli/001584_2014-06-20_11-07-43_260595134347_rgbf000002-resize_1/001584_2014-06-20_11-07-43_260595134347_rgbf000002-resize_1-target.png,1000,3.53,1,7699,1000,meters,jsons/v1_VE1000_randls_54.json,1683612,1986760,30,Man
92,870091,DepthScenes,duration_manipulation_targetAtFixation,jsons/v1_VE1000_randls_54.json,http://54.235.29.9/FacialAge/BNav_EC2/DepthDuration/v2_depth_duration_MTurk/v2_DepthDuration_HTML.html#132,132,1364,768,1364,768,8-22-2022,5-31-16,93,depth_duration_stimuli/000739_2014-06-08_18-45-58_260595134347_rgbf000068-resize_1/000739_2014-06-08_18-45-58_260595134347_rgbf000068-resize_1-target.png,1000,3.534,1,6027,1000,meters,jsons/v1_VE1000_randls_54.json,1683612,1986760,30,Man
93,870091,DepthScenes,duration_manipulation_targetAtFixation,jsons/v1_VE1000_randls_54.json,http://54.235.29.9/FacialAge/BNav_EC2/DepthDuration/v2_depth_duration_MTurk/v2_DepthDuration_HTML.html#132,132,1364,768,1364,768,8-22-2022,5-31-16,94,depth_duration_stimuli/000734_2014-06-08_17-39-11_260595134347_rgbf000128-resize_2/000734_2014-06-08_17-39-11_260595134347_rgbf000128-resize_2-target.png,1000,4.098,2,6859,1000,meters,jsons/v1_VE1000_randls_54.json,1683612,1986760,30,Man
94,870091,DepthScenes,duration_manipulation_targetAtFixation,jsons/v1_VE1000_randls_54.json,http://54.235.29.9/FacialAge/BNav_EC2/DepthDuration/v2_depth_duration_MTurk/v2_DepthDuration_HTML.html#132,132,1364,768,1364,768,8-22-2022,5-31-16,95,depth_duration_stimuli/002763_2014-06-22_19-13-10_094959634447_rgbf000075-resize_4/002763_2014-06-22_19-13-10_094959634447_rgbf000075-resize_4-target.png,1000,1.68375,1,7051,1001,meters,jsons/v1_VE1000_randls_54.json,1683612,1986760,30,Man
95,870091,DepthScenes,duration_manipulation_targetAtFixation,jsons/v1_VE1000_randls_54.json,http://54.235.29.9/FacialAge/BNav_EC2/DepthDuration/v2_depth_duration_MTurk/v2_DepthDuration_HTML.html#132,132,1364,768,1364,768,8-22-2022,5-31-16,96,depth_duration_stimuli/002209_2014-06-28_18-36-10_260595134347_rgbf000051-resize_1/002209_2014-06-28_18-36-10_260595134347_rgbf000051-resize_1-target.png,1000,2.057,1,6966,1000,meters,jsons/v1_VE1000_randls_54.json,1683612,1986760,30,Man
96,870091,DepthScenes,duration_manipulation_targetAtFixation,jsons/v1_VE1000_randls_54.json,http://54.235.29.9/FacialAge/BNav_EC2/DepthDuration/v2_depth_duration_MTurk/v2_DepthDuration_HTML.html#132,132,1364,768,1364,768,8-22-2022,5-31-16,97,depth_duration_stimuli/002118_2014-06-25_20-32-08_260595134347_rgbf000078-resize_1/002118_2014-06-25_20-32-08_260595134347_rgbf000078-resize_1-target.png,1000,2.6460000000000004,1,5961,999,meters,jsons/v1_VE1000_randls_54.json,1683612,1986760,30,Man
97,870091,DepthScenes,duration_manipulation_targetAtFixation,jsons/v1_VE1000_randls_54.json,http://54.235.29.9/FacialAge/BNav_EC2/DepthDuration/v2_depth_duration_MTurk/v2_DepthDuration_HTML.html#132,132,1364,768,1364,768,8-22-2022,5-31-16,98,depth_duration_stimuli/001516_2014-06-20_16-25-09_260595134347_rgbf000076-resize_2/001516_2014-06-20_16-25-09_260595134347_rgbf000076-resize_2-target.png,1000,1.7445,1,5074,1001,meters,jsons/v1_VE1000_randls_54.json,1683612,1986760,30,Man
98,870091,DepthScenes,duration_manipulation_targetAtFixation,jsons/v1_VE1000_randls_54.json,http://54.235.29.9/FacialAge/BNav_EC2/DepthDuration/v2_depth_duration_MTurk/v2_DepthDuration_HTML.html#132,132,1364,768,1364,768,8-22-2022,5-31-16,99,depth_duration_stimuli/001540_2014-06-20_17-01-05_260595134347_rgbf000086-resize_2/001540_2014-06-20_17-01-05_260595134347_rgbf000086-resize-original.jpg,1000,1.459,0,9359,1000,meters,jsons/v1_VE1000_randls_54.json,1683612,1986760,30,Man
99,870091,DepthScenes,duration_manipulation_targetAtFixation,jsons/v1_VE1000_randls_54.json,http://54.235.29.9/FacialAge/BNav_EC2/DepthDuration/v2_depth_duration_MTurk/v2_DepthDuration_HTML.html#132,132,1364,768,1364,768,8-22-2022,5-31-16,100,depth_duration_stimuli/000436_2014-06-09_22-25-11_260595134347_rgbf000137-resize_1/000436_2014-06-09_22-25-11_260595134347_rgbf000137-resize_1-target.png,1000,4.0705,2,6139,999,meters,jsons/v1_VE1000_randls_54.json,1683612,1986760,30,Man
100,870091,DepthScenes,duration_manipulation_targetAtFixation,jsons/v1_VE1000_randls_54.json,http://54.235.29.9/FacialAge/BNav_EC2/DepthDuration/v2_depth_duration_MTurk/v2_DepthDuration_HTML.html#132,132,1364,768,1364,768,8-22-2022,5-31-16,101,depth_duration_stimuli/002444_2014-06-28_20-32-08_260595134347_rgbf000027-resize_0/002444_2014-06-28_20-32-08_260595134347_rgbf000027-resize_0-target.png,1000,4.388999999999999,3,15038,1000,meters,jsons/v1_VE1000_randls_54.json,1683612,1986760,30,Man
101,870091,DepthScenes,duration_manipulation_targetAtFixation,jsons/v1_VE1000_randls_54.json,http://54.235.29.9/FacialAge/BNav_EC2/DepthDuration/v2_depth_duration_MTurk/v2_DepthDuration_HTML.html#132,132,1364,768,1364,768,8-22-2022,5-31-16,102,depth_duration_stimuli/001110_2014-06-15_17-25-28_260595134347_rgbf000150-resize_1/001110_2014-06-15_17-25-28_260595134347_rgbf000150-resize_1-target.png,1000,1.7115,2,10507,999,meters,jsons/v1_VE1000_randls_54.json,1683612,1986760,30,Man
102,870091,DepthScenes,duration_manipulation_targetAtFixation,jsons/v1_VE1000_randls_54.json,http://54.235.29.9/FacialAge/BNav_EC2/DepthDuration/v2_depth_duration_MTurk/v2_DepthDuration_HTML.html#132,132,1364,768,1364,768,8-22-2022,5-31-16,103,depth_duration_stimuli/000927_2014-06-09_16-32-30_260595134347_rgbf000123-resize_3/000927_2014-06-09_16-32-30_260595134347_rgbf000123-resize_3-target.png,1000,2.6785,0,5390,999,meters,jsons/v1_VE1000_randls_54.json,1683612,1986760,30,Man
103,870091,DepthScenes,duration_manipulation_targetAtFixation,jsons/v1_VE1000_randls_54.json,http://54.235.29.9/FacialAge/BNav_EC2/DepthDuration/v2_depth_duration_MTurk/v2_DepthDuration_HTML.html#132,132,1364,768,1364,768,8-22-2022,5-31-16,104,depth_duration_stimuli/002989_2014-06-15_12-25-03_094959634447_rgbf000150-resize_3/002989_2014-06-15_12-25-03_094959634447_rgbf000150-resize_3-target.png,1000,4.1975,2,10929,1001,meters,jsons/v1_VE1000_randls_54.json,1683612,1986760,30,Man
104,870091,DepthScenes,duration_manipulation_targetAtFixation,jsons/v1_VE1000_randls_54.json,http://54.235.29.9/FacialAge/BNav_EC2/DepthDuration/v2_depth_duration_MTurk/v2_DepthDuration_HTML.html#132,132,1364,768,1364,768,8-22-2022,5-31-16,105,depth_duration_stimuli/000866_2014-06-09_20-45-42_260595134347_rgbf000139-resize_1/000866_2014-06-09_20-45-42_260595134347_rgbf000139-resize_1-target.png,1000,3.2155,3,6157,999,meters,jsons/v1_VE1000_randls_54.json,1683612,1986760,30,Man
105,870091,DepthScenes,duration_manipulation_targetAtFixation,jsons/v1_VE1000_randls_54.json,http://54.235.29.9/FacialAge/BNav_EC2/DepthDuration/v2_depth_duration_MTurk/v2_DepthDuration_HTML.html#132,132,1364,768,1364,768,8-22-2022,5-31-16,106,depth_duration_stimuli/000522_2014-06-08_13-35-06_260595134347_rgbf000244-resize_1/000522_2014-06-08_13-35-06_260595134347_rgbf000244-resize_1-target.png,1000,2.3715,2,10064,1001,meters,jsons/v1_VE1000_randls_54.json,1683612,1986760,30,Man
106,870091,DepthScenes,duration_manipulation_targetAtFixation,jsons/v1_VE1000_randls_54.json,http://54.235.29.9/FacialAge/BNav_EC2/DepthDuration/v2_depth_duration_MTurk/v2_DepthDuration_HTML.html#132,132,1364,768,1364,768,8-22-2022,5-31-16,107,depth_duration_stimuli/002949_2014-06-26_15-57-42_094959634447_rgbf000079-resize_1/002949_2014-06-26_15-57-42_094959634447_rgbf000079-resize_1-target.png,1000,1.8915,3,5473,1000,meters,jsons/v1_VE1000_randls_54.json,1683612,1986760,30,Man
107,870091,DepthScenes,duration_manipulation_targetAtFixation,jsons/v1_VE1000_randls_54.json,http://54.235.29.9/FacialAge/BNav_EC2/DepthDuration/v2_depth_duration_MTurk/v2_DepthDuration_HTML.html#132,132,1364,768,1364,768,8-22-2022,5-31-16,108,depth_duration_stimuli/002663_2014-06-13_15-50-26_094959634447_rgbf000075-resize_1/002663_2014-06-13_15-50-26_094959634447_rgbf000075-resize_1-target.png,1000,4.7495,2,8089,1000,meters,jsons/v1_VE1000_randls_54.json,1683612,1986760,30,Man
108,870091,DepthScenes,duration_manipulation_targetAtFixation,jsons/v1_VE1000_randls_54.json,http://54.235.29.9/FacialAge/BNav_EC2/DepthDuration/v2_depth_duration_MTurk/v2_DepthDuration_HTML.html#132,132,1364,768,1364,768,8-22-2022,5-31-16,109,depth_duration_stimuli/000409_2014-06-04_19-23-33_260595134347_rgbf000067-resize_0/000409_2014-06-04_19-23-33_260595134347_rgbf000067-resize_0-target.png,1000,3.7335,2,6629,1000,meters,jsons/v1_VE1000_randls_54.json,1683612,1986760,30,Man
109,870091,DepthScenes,duration_manipulation_targetAtFixation,jsons/v1_VE1000_randls_54.json,http://54.235.29.9/FacialAge/BNav_EC2/DepthDuration/v2_depth_duration_MTurk/v2_DepthDuration_HTML.html#132,132,1364,768,1364,768,8-22-2022,5-31-16,110,depth_duration_stimuli/002988_2014-06-15_12-24-20_094959634447_rgbf000150-resize_1/002988_2014-06-15_12-24-20_094959634447_rgbf000150-resize_1-target.png,1000,4.7669999999999995,2,13859,999,meters,jsons/v1_VE1000_randls_54.json,1683612,1986760,30,Man
110,870091,DepthScenes,duration_manipulation_targetAtFixation,jsons/v1_VE1000_randls_54.json,http://54.235.29.9/FacialAge/BNav_EC2/DepthDuration/v2_depth_duration_MTurk/v2_DepthDuration_HTML.html#132,132,1364,768,1364,768,8-22-2022,5-31-16,111,depth_duration_stimuli/001052_2014-06-08_18-24-54_260595134347_rgbf000130-resize_1/001052_2014-06-08_18-24-54_260595134347_rgbf000130-resize_1-target.png,1000,4.1045,2,7488,1000,meters,jsons/v1_VE1000_randls_54.json,1683612,1986760,30,Man
111,870091,DepthScenes,duration_manipulation_targetAtFixation,jsons/v1_VE1000_randls_54.json,http://54.235.29.9/FacialAge/BNav_EC2/DepthDuration/v2_depth_duration_MTurk/v2_DepthDuration_HTML.html#132,132,1364,768,1364,768,8-22-2022,5-31-16,112,depth_duration_stimuli/001150_2014-06-17_15-27-34_260595134347_rgbf000108-resize_2/001150_2014-06-17_15-27-34_260595134347_rgbf000108-resize_2-target.png,1000,4.0325,2,5658,1000,meters,jsons/v1_VE1000_randls_54.json,1683612,1986760,30,Man
112,870091,DepthScenes,duration_manipulation_targetAtFixation,jsons/v1_VE1000_randls_54.json,http://54.235.29.9/FacialAge/BNav_EC2/DepthDuration/v2_depth_duration_MTurk/v2_DepthDuration_HTML.html#132,132,1364,768,1364,768,8-22-2022,5-31-16,113,depth_duration_stimuli/000665_2014-06-09_20-42-35_260595134347_rgbf000110-resize_1/000665_2014-06-09_20-42-35_260595134347_rgbf000110-resize_1-target.png,1000,3.057,2,4768,999,meters,jsons/v1_VE1000_randls_54.json,1683612,1986760,30,Man
113,870091,DepthScenes,duration_manipulation_targetAtFixation,jsons/v1_VE1000_randls_54.json,http://54.235.29.9/FacialAge/BNav_EC2/DepthDuration/v2_depth_duration_MTurk/v2_DepthDuration_HTML.html#132,132,1364,768,1364,768,8-22-2022,5-31-16,114,depth_duration_stimuli/002039_2014-06-24_20-22-38_260595134347_rgbf000084-resize_1/002039_2014-06-24_20-22-38_260595134347_rgbf000084-resize_1-target.png,1000,4.408,2,15767,999,meters,jsons/v1_VE1000_randls_54.json,1683612,1986760,30,Man
114,870091,DepthScenes,duration_manipulation_targetAtFixation,jsons/v1_VE1000_randls_54.json,http://54.235.29.9/FacialAge/BNav_EC2/DepthDuration/v2_depth_duration_MTurk/v2_DepthDuration_HTML.html#132,132,1364,768,1364,768,8-22-2022,5-31-16,115,depth_duration_stimuli/002103_2014-06-25_20-00-40_260595134347_rgbf000049-resize_0/002103_2014-06-25_20-00-40_260595134347_rgbf000049-resize_0-target.png,1000,4.105,2,7050,1000,meters,jsons/v1_VE1000_randls_54.json,1683612,1986760,30,Man
115,870091,DepthScenes,duration_manipulation_targetAtFixation,jsons/v1_VE1000_randls_54.json,http://54.235.29.9/FacialAge/BNav_EC2/DepthDuration/v2_depth_duration_MTurk/v2_DepthDuration_HTML.html#132,132,1364,768,1364,768,8-22-2022,5-31-16,116,depth_duration_stimuli/001170_2014-06-17_15-43-44_260595134347_rgbf000096-resize_6/001170_2014-06-17_15-43-44_260595134347_rgbf000096-resize-original.jpg,1000,1.1909999999999998,0,9060,999,meters,jsons/v1_VE1000_randls_54.json,1683612,1986760,30,Man
116,870091,DepthScenes,duration_manipulation_targetAtFixation,jsons/v1_VE1000_randls_54.json,http://54.235.29.9/FacialAge/BNav_EC2/DepthDuration/v2_depth_duration_MTurk/v2_DepthDuration_HTML.html#132,132,1364,768,1364,768,8-22-2022,5-31-16,117,depth_duration_stimuli/000810_2014-06-08_17-20-01_260595134347_rgbf000105-resize_0/000810_2014-06-08_17-20-01_260595134347_rgbf000105-resize_0-target.png,1000,1.4865,3,8056,1000,meters,jsons/v1_VE1000_randls_54.json,1683612,1986760,30,Man
117,870091,DepthScenes,duration_manipulation_targetAtFixation,jsons/v1_VE1000_randls_54.json,http://54.235.29.9/FacialAge/BNav_EC2/DepthDuration/v2_depth_duration_MTurk/v2_DepthDuration_HTML.html#132,132,1364,768,1364,768,8-22-2022,5-31-16,118,depth_duration_stimuli/001214_2014-06-17_16-13-55_260595134347_rgbf000111-resize_0/001214_2014-06-17_16-13-55_260595134347_rgbf000111-resize_0-target.png,1000,2.6505,2,13258,998,meters,jsons/v1_VE1000_randls_54.json,1683612,1986760,30,Man
118,870091,DepthScenes,duration_manipulation_targetAtFixation,jsons/v1_VE1000_randls_54.json,http://54.235.29.9/FacialAge/BNav_EC2/DepthDuration/v2_depth_duration_MTurk/v2_DepthDuration_HTML.html#132,132,1364,768,1364,768,8-22-2022,5-31-16,119,depth_duration_stimuli/000917_2014-06-09_22-45-29_260595134347_rgbf000149-resize_3/000917_2014-06-09_22-45-29_260595134347_rgbf000149-resize_3-target.png,1000,4.1865,2,7228,1000,meters,jsons/v1_VE1000_randls_54.json,1683612,1986760,30,Man
119,870091,DepthScenes,duration_manipulation_targetAtFixation,jsons/v1_VE1000_randls_54.json,http://54.235.29.9/FacialAge/BNav_EC2/DepthDuration/v2_depth_duration_MTurk/v2_DepthDuration_HTML.html#132,132,1364,768,1364,768,8-22-2022,5-31-16,120,depth_duration_stimuli/002323_2014-06-28_20-01-54_260595134347_rgbf000051-resize_4/002323_2014-06-28_20-01-54_260595134347_rgbf000051-resize_4-target.png,1000,3.7310000000000003,2,8619,999,meters,jsons/v1_VE1000_randls_54.json,1683612,1986760,30,Man
120,870091,DepthScenes,duration_manipulation_targetAtFixation,jsons/v1_VE1000_randls_54.json,http://54.235.29.9/FacialAge/BNav_EC2/DepthDuration/v2_depth_duration_MTurk/v2_DepthDuration_HTML.html#132,132,1364,768,1364,768,8-22-2022,5-31-16,121,depth_duration_stimuli/001555_2014-06-20_17-12-10_260595134347_rgbf000065-resize_4/001555_2014-06-20_17-12-10_260595134347_rgbf000065-resize_4-target.png,1000,1.633,2,7769,1000,meters,jsons/v1_VE1000_randls_54.json,1683612,1986760,30,Man
121,870091,DepthScenes,duration_manipulation_targetAtFixation,jsons/v1_VE1000_randls_54.json,http://54.235.29.9/FacialAge/BNav_EC2/DepthDuration/v2_depth_duration_MTurk/v2_DepthDuration_HTML.html#132,132,1364,768,1364,768,8-22-2022,5-31-16,122,depth_duration_stimuli/000103_2014-05-14_22-01-17_260595134347_rgbf000152-resize_5/000103_2014-05-14_22-01-17_260595134347_rgbf000152-resize_5-target.png,1000,1.993,2,6905,1000,meters,jsons/v1_VE1000_randls_54.json,1683612,1986760,30,Man
122,870091,DepthScenes,duration_manipulation_targetAtFixation,jsons/v1_VE1000_randls_54.json,http://54.235.29.9/FacialAge/BNav_EC2/DepthDuration/v2_depth_duration_MTurk/v2_DepthDuration_HTML.html#132,132,1364,768,1364,768,8-22-2022,5-31-16,123,depth_duration_stimuli/002213_2014-06-28_18-37-58_260595134347_rgbf000055-resize_1/002213_2014-06-28_18-37-58_260595134347_rgbf000055-resize_1-target.png,1000,3.62,1,13170,999,meters,jsons/v1_VE1000_randls_54.json,1683612,1986760,30,Man
123,870091,DepthScenes,duration_manipulation_targetAtFixation,jsons/v1_VE1000_randls_54.json,http://54.235.29.9/FacialAge/BNav_EC2/DepthDuration/v2_depth_duration_MTurk/v2_DepthDuration_HTML.html#132,132,1364,768,1364,768,8-22-2022,5-31-16,124,depth_duration_stimuli/000691_2014-06-08_13-08-50_260595134347_rgbf000132-resize_3/000691_2014-06-08_13-08-50_260595134347_rgbf000132-resize_3-target.png,1000,4.1530000000000005,1,7939,999,meters,jsons/v1_VE1000_randls_54.json,1683612,1986760,30,Man
124,870091,DepthScenes,duration_manipulation_targetAtFixation,jsons/v1_VE1000_randls_54.json,http://54.235.29.9/FacialAge/BNav_EC2/DepthDuration/v2_depth_duration_MTurk/v2_DepthDuration_HTML.html#132,132,1364,768,1364,768,8-22-2022,5-31-16,125,depth_duration_stimuli/000878_2014-06-08_22-52-45_260595134347_rgbf000045-resize_2/000878_2014-06-08_22-52-45_260595134347_rgbf000045-resize_2-target.png,1000,2.092,1,12056,1000,meters,jsons/v1_VE1000_randls_54.json,1683612,1986760,30,Man
125,870091,DepthScenes,duration_manipulation_targetAtFixation,jsons/v1_VE1000_randls_54.json,http://54.235.29.9/FacialAge/BNav_EC2/DepthDuration/v2_depth_duration_MTurk/v2_DepthDuration_HTML.html#132,132,1364,768,1364,768,8-22-2022,5-31-16,126,depth_duration_stimuli/002953_2014-06-08_17-32-18_094959634447_rgbf000059-resize_5/002953_2014-06-08_17-32-18_094959634447_rgbf000059-resize_5-target.png,1000,1.551,2,8160,1000,meters,jsons/v1_VE1000_randls_54.json,1683612,1986760,30,Man
126,870091,DepthScenes,duration_manipulation_targetAtFixation,jsons/v1_VE1000_randls_54.json,http://54.235.29.9/FacialAge/BNav_EC2/DepthDuration/v2_depth_duration_MTurk/v2_DepthDuration_HTML.html#132,132,1364,768,1364,768,8-22-2022,5-31-16,127,depth_duration_stimuli/001059_2014-06-08_21-53-27_260595134347_rgbf000061-resize_4/001059_2014-06-08_21-53-27_260595134347_rgbf000061-resize_4-target.png,1000,2.4185,2,7764,1000,meters,jsons/v1_VE1000_randls_54.json,1683612,1986760,30,Man
127,870091,DepthScenes,duration_manipulation_targetAtFixation,jsons/v1_VE1000_randls_54.json,http://54.235.29.9/FacialAge/BNav_EC2/DepthDuration/v2_depth_duration_MTurk/v2_DepthDuration_HTML.html#132,132,1364,768,1364,768,8-22-2022,5-31-16,128,depth_duration_stimuli/001032_2014-06-08_13-23-17_260595134347_rgbf000021-resize_3/001032_2014-06-08_13-23-17_260595134347_rgbf000021-resize_3-target.png,1000,3.2725,2,6011,1000,meters,jsons/v1_VE1000_randls_54.json,1683612,1986760,30,Man
128,870091,DepthScenes,duration_manipulation_targetAtFixation,jsons/v1_VE1000_randls_54.json,http://54.235.29.9/FacialAge/BNav_EC2/DepthDuration/v2_depth_duration_MTurk/v2_DepthDuration_HTML.html#132,132,1364,768,1364,768,8-22-2022,5-31-16,129,depth_duration_stimuli/001167_2014-06-17_15-38-07_260595134347_rgbf000108-resize_0/001167_2014-06-17_15-38-07_260595134347_rgbf000108-resize_0-target.png,1000,1.8505,1,6097,1000,meters,jsons/v1_VE1000_randls_54.json,1683612,1986760,30,Man
129,870091,DepthScenes,duration_manipulation_targetAtFixation,jsons/v1_VE1000_randls_54.json,http://54.235.29.9/FacialAge/BNav_EC2/DepthDuration/v2_depth_duration_MTurk/v2_DepthDuration_HTML.html#132,132,1364,768,1364,768,8-22-2022,5-31-16,130,depth_duration_stimuli/003587_2014-05-23_16-48-02_094959634447_rgbf002384-resize_2/003587_2014-05-23_16-48-02_094959634447_rgbf002384-resize_2-target.png,1000,1.357,1,8469,984,meters,jsons/v1_VE1000_randls_54.json,1683612,1986760,30,Man
130,870091,DepthScenes,duration_manipulation_targetAtFixation,jsons/v1_VE1000_randls_54.json,http://54.235.29.9/FacialAge/BNav_EC2/DepthDuration/v2_depth_duration_MTurk/v2_DepthDuration_HTML.html#132,132,1364,768,1364,768,8-22-2022,5-31-16,131,depth_duration_stimuli/000009_2014-05-26_14-32-05_260595134347_rgbf000034-resize_3/000009_2014-05-26_14-32-05_260595134347_rgbf000034-resize_3-target.png,1000,3.8715,1,9793,998,meters,jsons/v1_VE1000_randls_54.json,1683612,1986760,30,Man
131,870091,DepthScenes,duration_manipulation_targetAtFixation,jsons/v1_VE1000_randls_54.json,http://54.235.29.9/FacialAge/BNav_EC2/DepthDuration/v2_depth_duration_MTurk/v2_DepthDuration_HTML.html#132,132,1364,768,1364,768,8-22-2022,5-31-16,132,depth_duration_stimuli/001828_2014-06-26_21-40-03_260595134347_rgbf000024-resize_0/001828_2014-06-26_21-40-03_260595134347_rgbf000024-resize_0-target.png,1000,4.8260000000000005,0,5748,1000,meters,jsons/v1_VE1000_randls_54.json,1683612,1986760,30,Man
132,870091,DepthScenes,duration_manipulation_targetAtFixation,jsons/v1_VE1000_randls_54.json,http://54.235.29.9/FacialAge/BNav_EC2/DepthDuration/v2_depth_duration_MTurk/v2_DepthDuration_HTML.html#132,132,1364,768,1364,768,8-22-2022,5-31-16,133,depth_duration_stimuli/001199_2014-06-17_16-03-48_260595134347_rgbf000077-resize_0/001199_2014-06-17_16-03-48_260595134347_rgbf000077-resize_0-target.png,1000,3.4375,1,5740,1001,meters,jsons/v1_VE1000_randls_54.json,1683612,1986760,30,Man
133,870091,DepthScenes,duration_manipulation_targetAtFixation,jsons/v1_VE1000_randls_54.json,http://54.235.29.9/FacialAge/BNav_EC2/DepthDuration/v2_depth_duration_MTurk/v2_DepthDuration_HTML.html#132,132,1364,768,1364,768,8-22-2022,5-31-16,134,depth_duration_stimuli/000502_2014-06-08_23-02-32_260595134347_rgbf000063-resize_4/000502_2014-06-08_23-02-32_260595134347_rgbf000063-resize_4-target.png,1000,2.431,1,9069,999,meters,jsons/v1_VE1000_randls_54.json,1683612,1986760,30,Man
134,870091,DepthScenes,duration_manipulation_targetAtFixation,jsons/v1_VE1000_randls_54.json,http://54.235.29.9/FacialAge/BNav_EC2/DepthDuration/v2_depth_duration_MTurk/v2_DepthDuration_HTML.html#132,132,1364,768,1364,768,8-22-2022,5-31-16,135,depth_duration_stimuli/002072_2014-06-24_21-48-06_260595134347_rgbf000115-resize_0/002072_2014-06-24_21-48-06_260595134347_rgbf000115-resize-original.jpg,1000,4.702,0,5351,999,meters,jsons/v1_VE1000_randls_54.json,1683612,1986760,30,Man
135,870091,DepthScenes,duration_manipulation_targetAtFixation,jsons/v1_VE1000_randls_54.json,http://54.235.29.9/FacialAge/BNav_EC2/DepthDuration/v2_depth_duration_MTurk/v2_DepthDuration_HTML.html#132,132,1364,768,1364,768,8-22-2022,5-31-16,136,depth_duration_stimuli/002375_2014-06-28_20-13-44_260595134347_rgbf000032-resize_1/002375_2014-06-28_20-13-44_260595134347_rgbf000032-resize_1-target.png,1000,4.0175,2,7962,1001,meters,jsons/v1_VE1000_randls_54.json,1683612,1986760,30,Man
136,870091,DepthScenes,duration_manipulation_targetAtFixation,jsons/v1_VE1000_randls_54.json,http://54.235.29.9/FacialAge/BNav_EC2/DepthDuration/v2_depth_duration_MTurk/v2_DepthDuration_HTML.html#132,132,1364,768,1364,768,8-22-2022,5-31-16,137,depth_duration_stimuli/002657_2014-06-13_15-29-54_094959634447_rgbf000150-resize_1/002657_2014-06-13_15-29-54_094959634447_rgbf000150-resize_1-target.png,1000,4.919,2,7233,1000,meters,jsons/v1_VE1000_randls_54.json,1683612,1986760,30,Man
137,870091,DepthScenes,duration_manipulation_targetAtFixation,jsons/v1_VE1000_randls_54.json,http://54.235.29.9/FacialAge/BNav_EC2/DepthDuration/v2_depth_duration_MTurk/v2_DepthDuration_HTML.html#132,132,1364,768,1364,768,8-22-2022,5-31-16,138,depth_duration_stimuli/002509_2014-06-24_13-19-22_094959634447_rgbf000077-resize_0/002509_2014-06-24_13-19-22_094959634447_rgbf000077-resize_0-target.png,1000,1.3065,2,6429,1000,meters,jsons/v1_VE1000_randls_54.json,1683612,1986760,30,Man
138,870091,DepthScenes,duration_manipulation_targetAtFixation,jsons/v1_VE1000_randls_54.json,http://54.235.29.9/FacialAge/BNav_EC2/DepthDuration/v2_depth_duration_MTurk/v2_DepthDuration_HTML.html#132,132,1364,768,1364,768,8-22-2022,5-31-16,139,depth_duration_stimuli/003338_2014-05-20_11-01-23_094959634447_rgbf000051-resize_6/003338_2014-05-20_11-01-23_094959634447_rgbf000051-resize_6-target.png,1000,1.693,0,6166,984,meters,jsons/v1_VE1000_randls_54.json,1683612,1986760,30,Man
139,870091,DepthScenes,duration_manipulation_targetAtFixation,jsons/v1_VE1000_randls_54.json,http://54.235.29.9/FacialAge/BNav_EC2/DepthDuration/v2_depth_duration_MTurk/v2_DepthDuration_HTML.html#132,132,1364,768,1364,768,8-22-2022,5-31-16,140,depth_duration_stimuli/003070_2014-06-15_14-58-27_094959634447_rgbf000150-resize_3/003070_2014-06-15_14-58-27_094959634447_rgbf000150-resize_3-target.png,1000,2.9415,2,6443,1000,meters,jsons/v1_VE1000_randls_54.json,1683612,1986760,30,Man
140,870091,DepthScenes,duration_manipulation_targetAtFixation,jsons/v1_VE1000_randls_54.json,http://54.235.29.9/FacialAge/BNav_EC2/DepthDuration/v2_depth_duration_MTurk/v2_DepthDuration_HTML.html#132,132,1364,768,1364,768,8-22-2022,5-31-16,141,depth_duration_stimuli/000943_2014-06-09_19-31-07_260595134347_rgbf000128-resize_1/000943_2014-06-09_19-31-07_260595134347_rgbf000128-resize_1-target.png,1000,1.9765,2,6011,1001,meters,jsons/v1_VE1000_randls_54.json,1683612,1986760,30,Man
141,870091,DepthScenes,duration_manipulation_targetAtFixation,jsons/v1_VE1000_randls_54.json,http://54.235.29.9/FacialAge/BNav_EC2/DepthDuration/v2_depth_duration_MTurk/v2_DepthDuration_HTML.html#132,132,1364,768,1364,768,8-22-2022,5-31-16,142,depth_duration_stimuli/001570_2014-06-20_17-21-09_260595134347_rgbf000135-resize_4/001570_2014-06-20_17-21-09_260595134347_rgbf000135-resize_4-target.png,1000,4.467,3,11492,1000,meters,jsons/v1_VE1000_randls_54.json,1683612,1986760,30,Man
142,870091,DepthScenes,duration_manipulation_targetAtFixation,jsons/v1_VE1000_randls_54.json,http://54.235.29.9/FacialAge/BNav_EC2/DepthDuration/v2_depth_duration_MTurk/v2_DepthDuration_HTML.html#132,132,1364,768,1364,768,8-22-2022,5-31-16,143,depth_duration_stimuli/001392_2014-06-19_16-07-59_260595134347_rgbf000046-resize_1/001392_2014-06-19_16-07-59_260595134347_rgbf000046-resize_1-target.png,1000,4.135,3,8684,998,meters,jsons/v1_VE1000_randls_54.json,1683612,1986760,30,Man
143,870091,DepthScenes,duration_manipulation_targetAtFixation,jsons/v1_VE1000_randls_54.json,http://54.235.29.9/FacialAge/BNav_EC2/DepthDuration/v2_depth_duration_MTurk/v2_DepthDuration_HTML.html#132,132,1364,768,1364,768,8-22-2022,5-31-16,144,depth_duration_stimuli/001810_2014-06-26_20-51-35_260595134347_rgbf000040-resize_3/001810_2014-06-26_20-51-35_260595134347_rgbf000040-resize_3-target.png,1000,2.2525,3,6669,1001,meters,jsons/v1_VE1000_randls_54.json,1683612,1986760,30,Man
144,870091,DepthScenes,duration_manipulation_targetAtFixation,jsons/v1_VE1000_randls_54.json,http://54.235.29.9/FacialAge/BNav_EC2/DepthDuration/v2_depth_duration_MTurk/v2_DepthDuration_HTML.html#132,132,1364,768,1364,768,8-22-2022,5-31-16,145,depth_duration_stimuli/003010_2014-06-15_12-54-35_094959634447_rgbf000112-resize_0/003010_2014-06-15_12-54-35_094959634447_rgbf000112-resize_0-target.png,1000,3.1185,3,6937,1000,meters,jsons/v1_VE1000_randls_54.json,1683612,1986760,30,Man
145,870091,DepthScenes,duration_manipulation_targetAtFixation,jsons/v1_VE1000_randls_54.json,http://54.235.29.9/FacialAge/BNav_EC2/DepthDuration/v2_depth_duration_MTurk/v2_DepthDuration_HTML.html#132,132,1364,768,1364,768,8-22-2022,5-31-16,146,depth_duration_stimuli/001498_2014-06-19_17-45-14_260595134347_rgbf000129-resize_4/001498_2014-06-19_17-45-14_260595134347_rgbf000129-resize-original.jpg,1000,1.4075,0,7091,999,meters,jsons/v1_VE1000_randls_54.json,1683612,1986760,30,Man
146,870091,DepthScenes,duration_manipulation_targetAtFixation,jsons/v1_VE1000_randls_54.json,http://54.235.29.9/FacialAge/BNav_EC2/DepthDuration/v2_depth_duration_MTurk/v2_DepthDuration_HTML.html#132,132,1364,768,1364,768,8-22-2022,5-31-16,147,depth_duration_stimuli/000470_2014-06-09_19-42-40_260595134347_rgbf000094-resize_1/000470_2014-06-09_19-42-40_260595134347_rgbf000094-resize_1-target.png,1000,1.831,2,7125,999,meters,jsons/v1_VE1000_randls_54.json,1683612,1986760,30,Man
147,870091,DepthScenes,duration_manipulation_targetAtFixation,jsons/v1_VE1000_randls_54.json,http://54.235.29.9/FacialAge/BNav_EC2/DepthDuration/v2_depth_duration_MTurk/v2_DepthDuration_HTML.html#132,132,1364,768,1364,768,8-22-2022,5-31-16,148,depth_duration_stimuli/000109_2014-05-14_23-41-52_260595134347_rgbf000035-resize_9/000109_2014-05-14_23-41-52_260595134347_rgbf000035-resize_9-target.png,1000,1.3545,2,8437,1000,meters,jsons/v1_VE1000_randls_54.json,1683612,1986760,30,Man
148,870091,DepthScenes,duration_manipulation_targetAtFixation,jsons/v1_VE1000_randls_54.json,http://54.235.29.9/FacialAge/BNav_EC2/DepthDuration/v2_depth_duration_MTurk/v2_DepthDuration_HTML.html#132,132,1364,768,1364,768,8-22-2022,5-31-16,149,depth_duration_stimuli/002445_2014-06-28_20-32-16_260595134347_rgbf000029-resize_4/002445_2014-06-28_20-32-16_260595134347_rgbf000029-resize_4-target.png,1000,2.5315,3,6585,1000,meters,jsons/v1_VE1000_randls_54.json,1683612,1986760,30,Man
149,870091,DepthScenes,duration_manipulation_targetAtFixation,jsons/v1_VE1000_randls_54.json,http://54.235.29.9/FacialAge/BNav_EC2/DepthDuration/v2_depth_duration_MTurk/v2_DepthDuration_HTML.html#132,132,1364,768,1364,768,8-22-2022,5-31-16,150,depth_duration_stimuli/000780_2014-06-08_22-28-29_260595134347_rgbf000126-resize_1/000780_2014-06-08_22-28-29_260595134347_rgbf000126-resize_1-target.png,1000,3.3825,1,6880,999,meters,jsons/v1_VE1000_randls_54.json,1683612,1986760,30,Man
150,870091,DepthScenes,duration_manipulation_targetAtFixation,jsons/v1_VE1000_randls_54.json,http://54.235.29.9/FacialAge/BNav_EC2/DepthDuration/v2_depth_duration_MTurk/v2_DepthDuration_HTML.html#132,132,1364,768,1364,768,8-22-2022,5-31-16,151,depth_duration_stimuli/000493_2014-06-09_21-01-18_260595134347_rgbf000196-resize_3/000493_2014-06-09_21-01-18_260595134347_rgbf000196-resize_3-target.png,1000,3.44,2,6832,1000,meters,jsons/v1_VE1000_randls_54.json,1683612,1986760,30,Man
151,870091,DepthScenes,duration_manipulation_targetAtFixation,jsons/v1_VE1000_randls_54.json,http://54.235.29.9/FacialAge/BNav_EC2/DepthDuration/v2_depth_duration_MTurk/v2_DepthDuration_HTML.html#132,132,1364,768,1364,768,8-22-2022,5-31-16,152,depth_duration_stimuli/000191_2014-05-12_17-07-38_260595134347_rgbf000199-resize_0/000191_2014-05-12_17-07-38_260595134347_rgbf000199-resize_0-target.png,1000,3.7995,2,7007,1000,meters,jsons/v1_VE1000_randls_54.json,1683612,1986760,30,Man
152,870091,DepthScenes,duration_manipulation_targetAtFixation,jsons/v1_VE1000_randls_54.json,http://54.235.29.9/FacialAge/BNav_EC2/DepthDuration/v2_depth_duration_MTurk/v2_DepthDuration_HTML.html#132,132,1364,768,1364,768,8-22-2022,5-31-16,153,depth_duration_stimuli/002272_2014-06-28_18-53-56_260595134347_rgbf000067-resize_2/002272_2014-06-28_18-53-56_260595134347_rgbf000067-resize_2-target.png,1000,1.138,2,5680,999,meters,jsons/v1_VE1000_randls_54.json,1683612,1986760,30,Man
153,870091,DepthScenes,duration_manipulation_targetAtFixation,jsons/v1_VE1000_randls_54.json,http://54.235.29.9/FacialAge/BNav_EC2/DepthDuration/v2_depth_duration_MTurk/v2_DepthDuration_HTML.html#132,132,1364,768,1364,768,8-22-2022,5-31-16,154,depth_duration_stimuli/001571_2014-06-20_17-21-32_260595134347_rgbf000089-resize_1/001571_2014-06-20_17-21-32_260595134347_rgbf000089-resize_1-target.png,1000,1.86,2,6271,999,meters,jsons/v1_VE1000_randls_54.json,1683612,1986760,30,Man
154,870091,DepthScenes,duration_manipulation_targetAtFixation,jsons/v1_VE1000_randls_54.json,http://54.235.29.9/FacialAge/BNav_EC2/DepthDuration/v2_depth_duration_MTurk/v2_DepthDuration_HTML.html#132,132,1364,768,1364,768,8-22-2022,5-31-16,155,depth_duration_stimuli/000692_2014-06-08_13-09-42_260595134347_rgbf000199-resize_2/000692_2014-06-08_13-09-42_260595134347_rgbf000199-resize_2-target.png,1000,3.661,2,10857,1000,meters,jsons/v1_VE1000_randls_54.json,1683612,1986760,30,Man
155,870091,DepthScenes,duration_manipulation_targetAtFixation,jsons/v1_VE1000_randls_54.json,http://54.235.29.9/FacialAge/BNav_EC2/DepthDuration/v2_depth_duration_MTurk/v2_DepthDuration_HTML.html#132,132,1364,768,1364,768,8-22-2022,5-31-16,156,depth_duration_stimuli/001094_2014-06-15_17-36-00_260595134347_rgbf000205-resize_0/001094_2014-06-15_17-36-00_260595134347_rgbf000205-resize_0-target.png,1000,4.2175,2,8778,999,meters,jsons/v1_VE1000_randls_54.json,1683612,1986760,30,Man
156,870091,DepthScenes,duration_manipulation_targetAtFixation,jsons/v1_VE1000_randls_54.json,http://54.235.29.9/FacialAge/BNav_EC2/DepthDuration/v2_depth_duration_MTurk/v2_DepthDuration_HTML.html#132,132,1364,768,1364,768,8-22-2022,5-31-16,157,depth_duration_stimuli/000788_2014-06-08_22-34-36_260595134347_rgbf000131-resize_1/000788_2014-06-08_22-34-36_260595134347_rgbf000131-resize_1-target.png,1000,3.359,1,7558,999,meters,jsons/v1_VE1000_randls_54.json,1683612,1986760,30,Man
157,870091,DepthScenes,duration_manipulation_targetAtFixation,jsons/v1_VE1000_randls_54.json,http://54.235.29.9/FacialAge/BNav_EC2/DepthDuration/v2_depth_duration_MTurk/v2_DepthDuration_HTML.html#132,132,1364,768,1364,768,8-22-2022,5-31-16,158,depth_duration_stimuli/001235_2014-06-17_16-37-36_260595134347_rgbf000084-resize_4/001235_2014-06-17_16-37-36_260595134347_rgbf000084-resize_4-target.png,1000,3.6605,2,11678,999,meters,jsons/v1_VE1000_randls_54.json,1683612,1986760,30,Man
158,870091,DepthScenes,duration_manipulation_targetAtFixation,jsons/v1_VE1000_randls_54.json,http://54.235.29.9/FacialAge/BNav_EC2/DepthDuration/v2_depth_duration_MTurk/v2_DepthDuration_HTML.html#132,132,1364,768,1364,768,8-22-2022,5-31-16,159,depth_duration_stimuli/001133_2014-06-17_14-49-16_260595134347_rgbf000100-resize_0/001133_2014-06-17_14-49-16_260595134347_rgbf000100-resize_0-target.png,1000,4.2115,1,6270,1000,meters,jsons/v1_VE1000_randls_54.json,1683612,1986760,30,Man
159,870091,DepthScenes,duration_manipulation_targetAtFixation,jsons/v1_VE1000_randls_54.json,http://54.235.29.9/FacialAge/BNav_EC2/DepthDuration/v2_depth_duration_MTurk/v2_DepthDuration_HTML.html#132,132,1364,768,1364,768,8-22-2022,5-31-16,160,depth_duration_stimuli/001132_2014-06-17_14-48-54_260595134347_rgbf000100-resize_2/001132_2014-06-17_14-48-54_260595134347_rgbf000100-resize_2-target.png,1000,3.753,1,10916,1000,meters,jsons/v1_VE1000_randls_54.json,1683612,1986760,30,Man
160,870091,DepthScenes,duration_manipulation_targetAtFixation,jsons/v1_VE1000_randls_54.json,http://54.235.29.9/FacialAge/BNav_EC2/DepthDuration/v2_depth_duration_MTurk/v2_DepthDuration_HTML.html#132,132,1364,768,1364,768,8-22-2022,5-31-16,161,depth_duration_stimuli/001808_2014-06-26_20-50-58_260595134347_rgbf000029-resize_1/001808_2014-06-26_20-50-58_260595134347_rgbf000029-resize_1-target.png,1000,4.249,3,6170,999,meters,jsons/v1_VE1000_randls_54.json,1683612,1986760,30,Man
161,870091,DepthScenes,duration_manipulation_targetAtFixation,jsons/v1_VE1000_randls_54.json,http://54.235.29.9/FacialAge/BNav_EC2/DepthDuration/v2_depth_duration_MTurk/v2_DepthDuration_HTML.html#132,132,1364,768,1364,768,8-22-2022,5-31-16,162,depth_duration_stimuli/001815_2014-06-26_20-52-55_260595134347_rgbf000020-resize_0/001815_2014-06-26_20-52-55_260595134347_rgbf000020-resize_0-target.png,1000,3.3865,3,5167,1000,meters,jsons/v1_VE1000_randls_54.json,1683612,1986760,30,Man
162,870091,DepthScenes,duration_manipulation_targetAtFixation,jsons/v1_VE1000_randls_54.json,http://54.235.29.9/FacialAge/BNav_EC2/DepthDuration/v2_depth_duration_MTurk/v2_DepthDuration_HTML.html#132,132,1364,768,1364,768,8-22-2022,5-31-16,163,depth_duration_stimuli/000736_2014-06-08_18-24-15_260595134347_rgbf000206-resize_3/000736_2014-06-08_18-24-15_260595134347_rgbf000206-resize_3-target.png,1000,3.515,3,6188,1000,meters,jsons/v1_VE1000_randls_54.json,1683612,1986760,30,Man
163,870091,DepthScenes,duration_manipulation_targetAtFixation,jsons/v1_VE1000_randls_54.json,http://54.235.29.9/FacialAge/BNav_EC2/DepthDuration/v2_depth_duration_MTurk/v2_DepthDuration_HTML.html#132,132,1364,768,1364,768,8-22-2022,5-31-16,164,depth_duration_stimuli/000137_2014-05-20_17-04-49_260595134347_rgbf000120-resize_1/000137_2014-05-20_17-04-49_260595134347_rgbf000120-resize_1-target.png,1000,3.786,2,5061,999,meters,jsons/v1_VE1000_randls_54.json,1683612,1986760,30,Man
