,subjID,experimentName,versionName,sequenceName,url,selected_row,windowWidth,windowHeight,screenWidth,screenHeight,startDate,startTime,trial,stimulus,duration,actual_depth,depth_estimate,trial_RT,log_sceneDuration,unitSelection,seq_filepath,experimentTime,totalTime,age,gender
0,870813,DepthScenes,duration_manipulation_targetAtFixation,jsons/v1_VE1000_randls_18.json,http://54.235.29.9/FacialAge/BNav_EC2/DepthDuration/v2_depth_duration_MTurk/v2_DepthDuration_HTML.html#436,436,2187,948,1093,615,8-29-2022,10-41-51,1,depth_duration_stimuli/002509_2014-06-24_13-19-22_094959634447_rgbf000077-resize_0/002509_2014-06-24_13-19-22_094959634447_rgbf000077-resize_0-target.png,1000,1.3065,0,3951,1000,meters,jsons/v1_VE1000_randls_18.json,604112,1985933,24,Man
1,870813,DepthScenes,duration_manipulation_targetAtFixation,jsons/v1_VE1000_randls_18.json,http://54.235.29.9/FacialAge/BNav_EC2/DepthDuration/v2_depth_duration_MTurk/v2_DepthDuration_HTML.html#436,436,2187,948,1093,615,8-29-2022,10-41-51,2,depth_duration_stimuli/003338_2014-05-20_11-01-23_094959634447_rgbf000051-resize_6/003338_2014-05-20_11-01-23_094959634447_rgbf000051-resize_6-target.png,1000,1.693,0,3201,998,meters,jsons/v1_VE1000_randls_18.json,604112,1985933,24,Man
2,870813,DepthScenes,duration_manipulation_targetAtFixation,jsons/v1_VE1000_randls_18.json,http://54.235.29.9/FacialAge/BNav_EC2/DepthDuration/v2_depth_duration_MTurk/v2_DepthDuration_HTML.html#436,436,2187,948,1093,615,8-29-2022,10-41-51,3,depth_duration_stimuli/002375_2014-06-28_20-13-44_260595134347_rgbf000032-resize_1/002375_2014-06-28_20-13-44_260595134347_rgbf000032-resize_1-target.png,1000,4.0175,0,3235,1000,meters,jsons/v1_VE1000_randls_18.json,604112,1985933,24,Man
3,870813,DepthScenes,duration_manipulation_targetAtFixation,jsons/v1_VE1000_randls_18.json,http://54.235.29.9/FacialAge/BNav_EC2/DepthDuration/v2_depth_duration_MTurk/v2_DepthDuration_HTML.html#436,436,2187,948,1093,615,8-29-2022,10-41-51,4,depth_duration_stimuli/002657_2014-06-13_15-29-54_094959634447_rgbf000150-resize_1/002657_2014-06-13_15-29-54_094959634447_rgbf000150-resize_1-target.png,1000,4.919,0,2807,997,meters,jsons/v1_VE1000_randls_18.json,604112,1985933,24,Man
4,870813,DepthScenes,duration_manipulation_targetAtFixation,jsons/v1_VE1000_randls_18.json,http://54.235.29.9/FacialAge/BNav_EC2/DepthDuration/v2_depth_duration_MTurk/v2_DepthDuration_HTML.html#436,436,2187,948,1093,615,8-29-2022,10-41-51,5,depth_duration_stimuli/001110_2014-06-15_17-25-28_260595134347_rgbf000150-resize_1/001110_2014-06-15_17-25-28_260595134347_rgbf000150-resize_1-target.png,1000,1.7115,0,2739,998,meters,jsons/v1_VE1000_randls_18.json,604112,1985933,24,Man
5,870813,DepthScenes,duration_manipulation_targetAtFixation,jsons/v1_VE1000_randls_18.json,http://54.235.29.9/FacialAge/BNav_EC2/DepthDuration/v2_depth_duration_MTurk/v2_DepthDuration_HTML.html#436,436,2187,948,1093,615,8-29-2022,10-41-51,6,depth_duration_stimuli/000927_2014-06-09_16-32-30_260595134347_rgbf000123-resize_3/000927_2014-06-09_16-32-30_260595134347_rgbf000123-resize_3-target.png,1000,2.6785,1,3028,1000,meters,jsons/v1_VE1000_randls_18.json,604112,1985933,24,Man
6,870813,DepthScenes,duration_manipulation_targetAtFixation,jsons/v1_VE1000_randls_18.json,http://54.235.29.9/FacialAge/BNav_EC2/DepthDuration/v2_depth_duration_MTurk/v2_DepthDuration_HTML.html#436,436,2187,948,1093,615,8-29-2022,10-41-51,7,depth_duration_stimuli/000692_2014-06-08_13-09-42_260595134347_rgbf000199-resize_2/000692_2014-06-08_13-09-42_260595134347_rgbf000199-resize_2-target.png,1000,3.661,1,3615,998,meters,jsons/v1_VE1000_randls_18.json,604112,1985933,24,Man
7,870813,DepthScenes,duration_manipulation_targetAtFixation,jsons/v1_VE1000_randls_18.json,http://54.235.29.9/FacialAge/BNav_EC2/DepthDuration/v2_depth_duration_MTurk/v2_DepthDuration_HTML.html#436,436,2187,948,1093,615,8-29-2022,10-41-51,8,depth_duration_stimuli/001094_2014-06-15_17-36-00_260595134347_rgbf000205-resize_0/001094_2014-06-15_17-36-00_260595134347_rgbf000205-resize_0-target.png,1000,4.2175,0,2971,1000,meters,jsons/v1_VE1000_randls_18.json,604112,1985933,24,Man
8,870813,DepthScenes,duration_manipulation_targetAtFixation,jsons/v1_VE1000_randls_18.json,http://54.235.29.9/FacialAge/BNav_EC2/DepthDuration/v2_depth_duration_MTurk/v2_DepthDuration_HTML.html#436,436,2187,948,1093,615,8-29-2022,10-41-51,9,depth_duration_stimuli/001417_2014-06-19_16-25-36_260595134347_rgbf000115-resize_5/001417_2014-06-19_16-25-36_260595134347_rgbf000115-resize_5-target.png,1000,4.6255,0,2882,1029,meters,jsons/v1_VE1000_randls_18.json,604112,1985933,24,Man
9,870813,DepthScenes,duration_manipulation_targetAtFixation,jsons/v1_VE1000_randls_18.json,http://54.235.29.9/FacialAge/BNav_EC2/DepthDuration/v2_depth_duration_MTurk/v2_DepthDuration_HTML.html#436,436,2187,948,1093,615,8-29-2022,10-41-51,10,depth_duration_stimuli/003081_2014-06-15_15-19-16_094959634447_rgbf000150-resize_1/003081_2014-06-15_15-19-16_094959634447_rgbf000150-resize_1-target.png,1000,3.9125,0,2746,950,meters,jsons/v1_VE1000_randls_18.json,604112,1985933,24,Man
10,870813,DepthScenes,duration_manipulation_targetAtFixation,jsons/v1_VE1000_randls_18.json,http://54.235.29.9/FacialAge/BNav_EC2/DepthDuration/v2_depth_duration_MTurk/v2_DepthDuration_HTML.html#436,436,2187,948,1093,615,8-29-2022,10-41-51,11,depth_duration_stimuli/001055_2014-06-08_18-45-35_260595134347_rgbf000111-resize_4/001055_2014-06-08_18-45-35_260595134347_rgbf000111-resize_4-target.png,1000,2.4290000000000003,1,2585,1068,meters,jsons/v1_VE1000_randls_18.json,604112,1985933,24,Man
11,870813,DepthScenes,duration_manipulation_targetAtFixation,jsons/v1_VE1000_randls_18.json,http://54.235.29.9/FacialAge/BNav_EC2/DepthDuration/v2_depth_duration_MTurk/v2_DepthDuration_HTML.html#436,436,2187,948,1093,615,8-29-2022,10-41-51,12,depth_duration_stimuli/000549_2014-06-08_22-10-24_260595134347_rgbf000247-resize_3/000549_2014-06-08_22-10-24_260595134347_rgbf000247-resize_3-target.png,1000,1.841,1,6423,1000,meters,jsons/v1_VE1000_randls_18.json,604112,1985933,24,Man
12,870813,DepthScenes,duration_manipulation_targetAtFixation,jsons/v1_VE1000_randls_18.json,http://54.235.29.9/FacialAge/BNav_EC2/DepthDuration/v2_depth_duration_MTurk/v2_DepthDuration_HTML.html#436,436,2187,948,1093,615,8-29-2022,10-41-51,13,depth_duration_stimuli/000569_2014-06-09_22-51-47_260595134347_rgbf000141-resize_3/000569_2014-06-09_22-51-47_260595134347_rgbf000141-resize-original.jpg,1000,4.512,1,11645,998,meters,jsons/v1_VE1000_randls_18.json,604112,1985933,24,Man
13,870813,DepthScenes,duration_manipulation_targetAtFixation,jsons/v1_VE1000_randls_18.json,http://54.235.29.9/FacialAge/BNav_EC2/DepthDuration/v2_depth_duration_MTurk/v2_DepthDuration_HTML.html#436,436,2187,948,1093,615,8-29-2022,10-41-51,14,depth_duration_stimuli/001175_2014-06-17_15-45-55_260595134347_rgbf000129-resize_4/001175_2014-06-17_15-45-55_260595134347_rgbf000129-resize_4-target.png,1000,4.255,1,6735,999,meters,jsons/v1_VE1000_randls_18.json,604112,1985933,24,Man
14,870813,DepthScenes,duration_manipulation_targetAtFixation,jsons/v1_VE1000_randls_18.json,http://54.235.29.9/FacialAge/BNav_EC2/DepthDuration/v2_depth_duration_MTurk/v2_DepthDuration_HTML.html#436,436,2187,948,1093,615,8-29-2022,10-41-51,15,depth_duration_stimuli/003490_2014-05-21_15-50-11_094959634447_rgbf000101-resize_3/003490_2014-05-21_15-50-11_094959634447_rgbf000101-resize_3-target.png,1000,3.6445,1,3945,999,meters,jsons/v1_VE1000_randls_18.json,604112,1985933,24,Man
15,870813,DepthScenes,duration_manipulation_targetAtFixation,jsons/v1_VE1000_randls_18.json,http://54.235.29.9/FacialAge/BNav_EC2/DepthDuration/v2_depth_duration_MTurk/v2_DepthDuration_HTML.html#436,436,2187,948,1093,615,8-29-2022,10-41-51,16,depth_duration_stimuli/000788_2014-06-08_22-34-36_260595134347_rgbf000131-resize_1/000788_2014-06-08_22-34-36_260595134347_rgbf000131-resize_1-target.png,1000,3.359,1,3118,1004,meters,jsons/v1_VE1000_randls_18.json,604112,1985933,24,Man
16,870813,DepthScenes,duration_manipulation_targetAtFixation,jsons/v1_VE1000_randls_18.json,http://54.235.29.9/FacialAge/BNav_EC2/DepthDuration/v2_depth_duration_MTurk/v2_DepthDuration_HTML.html#436,436,2187,948,1093,615,8-29-2022,10-41-51,17,depth_duration_stimuli/001235_2014-06-17_16-37-36_260595134347_rgbf000084-resize_4/001235_2014-06-17_16-37-36_260595134347_rgbf000084-resize_4-target.png,1000,3.6605,1,3270,997,meters,jsons/v1_VE1000_randls_18.json,604112,1985933,24,Man
17,870813,DepthScenes,duration_manipulation_targetAtFixation,jsons/v1_VE1000_randls_18.json,http://54.235.29.9/FacialAge/BNav_EC2/DepthDuration/v2_depth_duration_MTurk/v2_DepthDuration_HTML.html#436,436,2187,948,1093,615,8-29-2022,10-41-51,18,depth_duration_stimuli/000436_2014-06-09_22-25-11_260595134347_rgbf000137-resize_1/000436_2014-06-09_22-25-11_260595134347_rgbf000137-resize_1-target.png,1000,4.0705,1,3362,999,meters,jsons/v1_VE1000_randls_18.json,604112,1985933,24,Man
18,870813,DepthScenes,duration_manipulation_targetAtFixation,jsons/v1_VE1000_randls_18.json,http://54.235.29.9/FacialAge/BNav_EC2/DepthDuration/v2_depth_duration_MTurk/v2_DepthDuration_HTML.html#436,436,2187,948,1093,615,8-29-2022,10-41-51,19,depth_duration_stimuli/002444_2014-06-28_20-32-08_260595134347_rgbf000027-resize_0/002444_2014-06-28_20-32-08_260595134347_rgbf000027-resize_0-target.png,1000,4.388999999999999,1,2849,1053,meters,jsons/v1_VE1000_randls_18.json,604112,1985933,24,Man
19,870813,DepthScenes,duration_manipulation_targetAtFixation,jsons/v1_VE1000_randls_18.json,http://54.235.29.9/FacialAge/BNav_EC2/DepthDuration/v2_depth_duration_MTurk/v2_DepthDuration_HTML.html#436,436,2187,948,1093,615,8-29-2022,10-41-51,20,depth_duration_stimuli/002570_2014-06-24_13-59-54_094959634447_rgbf000059-resize_0/002570_2014-06-24_13-59-54_094959634447_rgbf000059-resize_0-target.png,1000,4.037,0,3380,974,meters,jsons/v1_VE1000_randls_18.json,604112,1985933,24,Man
20,870813,DepthScenes,duration_manipulation_targetAtFixation,jsons/v1_VE1000_randls_18.json,http://54.235.29.9/FacialAge/BNav_EC2/DepthDuration/v2_depth_duration_MTurk/v2_DepthDuration_HTML.html#436,436,2187,948,1093,615,8-29-2022,10-41-51,21,depth_duration_stimuli/002467_2014-06-28_20-38-07_260595134347_rgbf000026-resize_2/002467_2014-06-28_20-38-07_260595134347_rgbf000026-resize_2-target.png,1000,4.742,1,4165,1001,meters,jsons/v1_VE1000_randls_18.json,604112,1985933,24,Man
21,870813,DepthScenes,duration_manipulation_targetAtFixation,jsons/v1_VE1000_randls_18.json,http://54.235.29.9/FacialAge/BNav_EC2/DepthDuration/v2_depth_duration_MTurk/v2_DepthDuration_HTML.html#436,436,2187,948,1093,615,8-29-2022,10-41-51,22,depth_duration_stimuli/002988_2014-06-15_12-24-20_094959634447_rgbf000150-resize_1/002988_2014-06-15_12-24-20_094959634447_rgbf000150-resize_1-target.png,1000,4.7669999999999995,1,9352,1000,meters,jsons/v1_VE1000_randls_18.json,604112,1985933,24,Man
22,870813,DepthScenes,duration_manipulation_targetAtFixation,jsons/v1_VE1000_randls_18.json,http://54.235.29.9/FacialAge/BNav_EC2/DepthDuration/v2_depth_duration_MTurk/v2_DepthDuration_HTML.html#436,436,2187,948,1093,615,8-29-2022,10-41-51,23,depth_duration_stimuli/001052_2014-06-08_18-24-54_260595134347_rgbf000130-resize_1/001052_2014-06-08_18-24-54_260595134347_rgbf000130-resize_1-target.png,1000,4.1045,1,2994,998,meters,jsons/v1_VE1000_randls_18.json,604112,1985933,24,Man
23,870813,DepthScenes,duration_manipulation_targetAtFixation,jsons/v1_VE1000_randls_18.json,http://54.235.29.9/FacialAge/BNav_EC2/DepthDuration/v2_depth_duration_MTurk/v2_DepthDuration_HTML.html#436,436,2187,948,1093,615,8-29-2022,10-41-51,24,depth_duration_stimuli/000739_2014-06-08_18-45-58_260595134347_rgbf000068-resize_1/000739_2014-06-08_18-45-58_260595134347_rgbf000068-resize_1-target.png,1000,3.534,1,3113,1000,meters,jsons/v1_VE1000_randls_18.json,604112,1985933,24,Man
24,870813,DepthScenes,duration_manipulation_targetAtFixation,jsons/v1_VE1000_randls_18.json,http://54.235.29.9/FacialAge/BNav_EC2/DepthDuration/v2_depth_duration_MTurk/v2_DepthDuration_HTML.html#436,436,2187,948,1093,615,8-29-2022,10-41-51,25,depth_duration_stimuli/000734_2014-06-08_17-39-11_260595134347_rgbf000128-resize_2/000734_2014-06-08_17-39-11_260595134347_rgbf000128-resize_2-target.png,1000,4.098,0,2709,999,meters,jsons/v1_VE1000_randls_18.json,604112,1985933,24,Man
25,870813,DepthScenes,duration_manipulation_targetAtFixation,jsons/v1_VE1000_randls_18.json,http://54.235.29.9/FacialAge/BNav_EC2/DepthDuration/v2_depth_duration_MTurk/v2_DepthDuration_HTML.html#436,436,2187,948,1093,615,8-29-2022,10-41-51,26,depth_duration_stimuli/002279_2014-06-28_18-55-32_260595134347_rgbf000040-resize_5/002279_2014-06-28_18-55-32_260595134347_rgbf000040-resize_5-target.png,1000,1.5043333333333,1,2522,998,meters,jsons/v1_VE1000_randls_18.json,604112,1985933,24,Man
26,870813,DepthScenes,duration_manipulation_targetAtFixation,jsons/v1_VE1000_randls_18.json,http://54.235.29.9/FacialAge/BNav_EC2/DepthDuration/v2_depth_duration_MTurk/v2_DepthDuration_HTML.html#436,436,2187,948,1093,615,8-29-2022,10-41-51,27,depth_duration_stimuli/000635_2014-06-08_16-38-42_260595134347_rgbf000106-resize_1/000635_2014-06-08_16-38-42_260595134347_rgbf000106-resize_1-target.png,1000,2.074,0,2840,999,meters,jsons/v1_VE1000_randls_18.json,604112,1985933,24,Man
27,870813,DepthScenes,duration_manipulation_targetAtFixation,jsons/v1_VE1000_randls_18.json,http://54.235.29.9/FacialAge/BNav_EC2/DepthDuration/v2_depth_duration_MTurk/v2_DepthDuration_HTML.html#436,436,2187,948,1093,615,8-29-2022,10-41-51,28,depth_duration_stimuli/001133_2014-06-17_14-49-16_260595134347_rgbf000100-resize_0/001133_2014-06-17_14-49-16_260595134347_rgbf000100-resize_0-target.png,1000,4.2115,0,3139,1004,meters,jsons/v1_VE1000_randls_18.json,604112,1985933,24,Man
28,870813,DepthScenes,duration_manipulation_targetAtFixation,jsons/v1_VE1000_randls_18.json,http://54.235.29.9/FacialAge/BNav_EC2/DepthDuration/v2_depth_duration_MTurk/v2_DepthDuration_HTML.html#436,436,2187,948,1093,615,8-29-2022,10-41-51,29,depth_duration_stimuli/001132_2014-06-17_14-48-54_260595134347_rgbf000100-resize_2/001132_2014-06-17_14-48-54_260595134347_rgbf000100-resize_2-target.png,1000,3.753,0,2586,1000,meters,jsons/v1_VE1000_randls_18.json,604112,1985933,24,Man
29,870813,DepthScenes,duration_manipulation_targetAtFixation,jsons/v1_VE1000_randls_18.json,http://54.235.29.9/FacialAge/BNav_EC2/DepthDuration/v2_depth_duration_MTurk/v2_DepthDuration_HTML.html#436,436,2187,948,1093,615,8-29-2022,10-41-51,30,depth_duration_stimuli/000375_2014-06-08_11-17-29_260595134347_rgbf000133-resize_2/000375_2014-06-08_11-17-29_260595134347_rgbf000133-resize-original.jpg,1000,4.718,1,2966,988,meters,jsons/v1_VE1000_randls_18.json,604112,1985933,24,Man
30,870813,DepthScenes,duration_manipulation_targetAtFixation,jsons/v1_VE1000_randls_18.json,http://54.235.29.9/FacialAge/BNav_EC2/DepthDuration/v2_depth_duration_MTurk/v2_DepthDuration_HTML.html#436,436,2187,948,1093,615,8-29-2022,10-41-51,31,depth_duration_stimuli/001029_2014-06-08_13-17-57_260595134347_rgbf000065-resize_1/001029_2014-06-08_13-17-57_260595134347_rgbf000065-resize_1-target.png,1000,3.0835,0,3711,999,meters,jsons/v1_VE1000_randls_18.json,604112,1985933,24,Man
31,870813,DepthScenes,duration_manipulation_targetAtFixation,jsons/v1_VE1000_randls_18.json,http://54.235.29.9/FacialAge/BNav_EC2/DepthDuration/v2_depth_duration_MTurk/v2_DepthDuration_HTML.html#436,436,2187,948,1093,615,8-29-2022,10-41-51,32,depth_duration_stimuli/000677_2014-06-08_23-10-32_260595134347_rgbf000158-resize_6/000677_2014-06-08_23-10-32_260595134347_rgbf000158-resize_6-target.png,1000,3.556,1,2896,999,meters,jsons/v1_VE1000_randls_18.json,604112,1985933,24,Man
32,870813,DepthScenes,duration_manipulation_targetAtFixation,jsons/v1_VE1000_randls_18.json,http://54.235.29.9/FacialAge/BNav_EC2/DepthDuration/v2_depth_duration_MTurk/v2_DepthDuration_HTML.html#436,436,2187,948,1093,615,8-29-2022,10-41-51,33,depth_duration_stimuli/001066_2014-06-08_22-03-20_260595134347_rgbf000066-resize_4/001066_2014-06-08_22-03-20_260595134347_rgbf000066-resize_4-target.png,1000,4.2330000000000005,1,2947,993,meters,jsons/v1_VE1000_randls_18.json,604112,1985933,24,Man
33,870813,DepthScenes,duration_manipulation_targetAtFixation,jsons/v1_VE1000_randls_18.json,http://54.235.29.9/FacialAge/BNav_EC2/DepthDuration/v2_depth_duration_MTurk/v2_DepthDuration_HTML.html#436,436,2187,948,1093,615,8-29-2022,10-41-51,34,depth_duration_stimuli/000742_2014-06-08_18-48-09_260595134347_rgbf000164-resize_4/000742_2014-06-08_18-48-09_260595134347_rgbf000164-resize_4-target.png,1000,4.632,1,2943,994,meters,jsons/v1_VE1000_randls_18.json,604112,1985933,24,Man
34,870813,DepthScenes,duration_manipulation_targetAtFixation,jsons/v1_VE1000_randls_18.json,http://54.235.29.9/FacialAge/BNav_EC2/DepthDuration/v2_depth_duration_MTurk/v2_DepthDuration_HTML.html#436,436,2187,948,1093,615,8-29-2022,10-41-51,35,depth_duration_stimuli/001059_2014-06-08_21-53-27_260595134347_rgbf000061-resize_4/001059_2014-06-08_21-53-27_260595134347_rgbf000061-resize_4-target.png,1000,2.4185,1,2801,999,meters,jsons/v1_VE1000_randls_18.json,604112,1985933,24,Man
35,870813,DepthScenes,duration_manipulation_targetAtFixation,jsons/v1_VE1000_randls_18.json,http://54.235.29.9/FacialAge/BNav_EC2/DepthDuration/v2_depth_duration_MTurk/v2_DepthDuration_HTML.html#436,436,2187,948,1093,615,8-29-2022,10-41-51,36,depth_duration_stimuli/001032_2014-06-08_13-23-17_260595134347_rgbf000021-resize_3/001032_2014-06-08_13-23-17_260595134347_rgbf000021-resize_3-target.png,1000,3.2725,0,2804,999,meters,jsons/v1_VE1000_randls_18.json,604112,1985933,24,Man
36,870813,DepthScenes,duration_manipulation_targetAtFixation,jsons/v1_VE1000_randls_18.json,http://54.235.29.9/FacialAge/BNav_EC2/DepthDuration/v2_depth_duration_MTurk/v2_DepthDuration_HTML.html#436,436,2187,948,1093,615,8-29-2022,10-41-51,37,depth_duration_stimuli/000506_2014-06-08_23-21-00_260595134347_rgbf000070-resize_7/000506_2014-06-08_23-21-00_260595134347_rgbf000070-resize_7-target.png,1000,4.0585,0,2560,999,meters,jsons/v1_VE1000_randls_18.json,604112,1985933,24,Man
37,870813,DepthScenes,duration_manipulation_targetAtFixation,jsons/v1_VE1000_randls_18.json,http://54.235.29.9/FacialAge/BNav_EC2/DepthDuration/v2_depth_duration_MTurk/v2_DepthDuration_HTML.html#436,436,2187,948,1093,615,8-29-2022,10-41-51,38,depth_duration_stimuli/003079_2014-06-15_15-18-20_094959634447_rgbf000152-resize_8/003079_2014-06-15_15-18-20_094959634447_rgbf000152-resize_8-target.png,1000,2.8775,0,4029,1014,meters,jsons/v1_VE1000_randls_18.json,604112,1985933,24,Man
38,870813,DepthScenes,duration_manipulation_targetAtFixation,jsons/v1_VE1000_randls_18.json,http://54.235.29.9/FacialAge/BNav_EC2/DepthDuration/v2_depth_duration_MTurk/v2_DepthDuration_HTML.html#436,436,2187,948,1093,615,8-29-2022,10-41-51,39,depth_duration_stimuli/001056_2014-06-08_18-46-44_260595134347_rgbf000068-resize_0/001056_2014-06-08_18-46-44_260595134347_rgbf000068-resize_0-target.png,1000,2.6625,0,3953,999,meters,jsons/v1_VE1000_randls_18.json,604112,1985933,24,Man
39,870813,DepthScenes,duration_manipulation_targetAtFixation,jsons/v1_VE1000_randls_18.json,http://54.235.29.9/FacialAge/BNav_EC2/DepthDuration/v2_depth_duration_MTurk/v2_DepthDuration_HTML.html#436,436,2187,948,1093,615,8-29-2022,10-41-51,40,depth_duration_stimuli/002199_2014-06-28_18-33-56_260595134347_rgbf000074-resize_0/002199_2014-06-28_18-33-56_260595134347_rgbf000074-resize_0-target.png,1000,1.996,0,3519,999,meters,jsons/v1_VE1000_randls_18.json,604112,1985933,24,Man
40,870813,DepthScenes,duration_manipulation_targetAtFixation,jsons/v1_VE1000_randls_18.json,http://54.235.29.9/FacialAge/BNav_EC2/DepthDuration/v2_depth_duration_MTurk/v2_DepthDuration_HTML.html#436,436,2187,948,1093,615,8-29-2022,10-41-51,41,depth_duration_stimuli/000368_2014-06-09_15-53-01_260595134347_rgbf000155-resize_2/000368_2014-06-09_15-53-01_260595134347_rgbf000155-resize_2-target.png,1000,2.4859999999999998,1,2837,999,meters,jsons/v1_VE1000_randls_18.json,604112,1985933,24,Man
41,870813,DepthScenes,duration_manipulation_targetAtFixation,jsons/v1_VE1000_randls_18.json,http://54.235.29.9/FacialAge/BNav_EC2/DepthDuration/v2_depth_duration_MTurk/v2_DepthDuration_HTML.html#436,436,2187,948,1093,615,8-29-2022,10-41-51,42,depth_duration_stimuli/002678_2014-06-13_16-15-32_094959634447_rgbf000151-resize_6/002678_2014-06-13_16-15-32_094959634447_rgbf000151-resize_6-target.png,1000,2.1830000000000003,1,2906,1003,meters,jsons/v1_VE1000_randls_18.json,604112,1985933,24,Man
42,870813,DepthScenes,duration_manipulation_targetAtFixation,jsons/v1_VE1000_randls_18.json,http://54.235.29.9/FacialAge/BNav_EC2/DepthDuration/v2_depth_duration_MTurk/v2_DepthDuration_HTML.html#436,436,2187,948,1093,615,8-29-2022,10-41-51,43,depth_duration_stimuli/001016_2014-06-09_16-16-10_260595134347_rgbf000112-resize_5/001016_2014-06-09_16-16-10_260595134347_rgbf000112-resize_5-target.png,1000,1.6565,0,3937,996,meters,jsons/v1_VE1000_randls_18.json,604112,1985933,24,Man
43,870813,DepthScenes,duration_manipulation_targetAtFixation,jsons/v1_VE1000_randls_18.json,http://54.235.29.9/FacialAge/BNav_EC2/DepthDuration/v2_depth_duration_MTurk/v2_DepthDuration_HTML.html#436,436,2187,948,1093,615,8-29-2022,10-41-51,44,depth_duration_stimuli/002340_2014-06-28_20-05-46_260595134347_rgbf000113-resize_0/002340_2014-06-28_20-05-46_260595134347_rgbf000113-resize_0-target.png,1000,2.4735,1,2996,1003,meters,jsons/v1_VE1000_randls_18.json,604112,1985933,24,Man
44,870813,DepthScenes,duration_manipulation_targetAtFixation,jsons/v1_VE1000_randls_18.json,http://54.235.29.9/FacialAge/BNav_EC2/DepthDuration/v2_depth_duration_MTurk/v2_DepthDuration_HTML.html#436,436,2187,948,1093,615,8-29-2022,10-41-51,45,depth_duration_stimuli/000787_2014-06-08_22-33-53_260595134347_rgbf000175-resize_1/000787_2014-06-08_22-33-53_260595134347_rgbf000175-resize-original.jpg,1000,4.784,1,2831,999,meters,jsons/v1_VE1000_randls_18.json,604112,1985933,24,Man
45,870813,DepthScenes,duration_manipulation_targetAtFixation,jsons/v1_VE1000_randls_18.json,http://54.235.29.9/FacialAge/BNav_EC2/DepthDuration/v2_depth_duration_MTurk/v2_DepthDuration_HTML.html#436,436,2187,948,1093,615,8-29-2022,10-41-51,46,depth_duration_stimuli/000929_2014-06-09_16-33-19_260595134347_rgbf000139-resize_0/000929_2014-06-09_16-33-19_260595134347_rgbf000139-resize_0-target.png,1000,2.8680000000000003,0,2732,999,meters,jsons/v1_VE1000_randls_18.json,604112,1985933,24,Man
46,870813,DepthScenes,duration_manipulation_targetAtFixation,jsons/v1_VE1000_randls_18.json,http://54.235.29.9/FacialAge/BNav_EC2/DepthDuration/v2_depth_duration_MTurk/v2_DepthDuration_HTML.html#436,436,2187,948,1093,615,8-29-2022,10-41-51,47,depth_duration_stimuli/000457_2014-06-08_16-52-43_260595134347_rgbf000199-resize_1/000457_2014-06-08_16-52-43_260595134347_rgbf000199-resize_1-target.png,1000,3.6489999999999996,1,2875,1000,meters,jsons/v1_VE1000_randls_18.json,604112,1985933,24,Man
47,870813,DepthScenes,duration_manipulation_targetAtFixation,jsons/v1_VE1000_randls_18.json,http://54.235.29.9/FacialAge/BNav_EC2/DepthDuration/v2_depth_duration_MTurk/v2_DepthDuration_HTML.html#436,436,2187,948,1093,615,8-29-2022,10-41-51,48,depth_duration_stimuli/000522_2014-06-08_13-35-06_260595134347_rgbf000244-resize_1/000522_2014-06-08_13-35-06_260595134347_rgbf000244-resize_1-target.png,1000,2.3715,1,2837,995,meters,jsons/v1_VE1000_randls_18.json,604112,1985933,24,Man
48,870813,DepthScenes,duration_manipulation_targetAtFixation,jsons/v1_VE1000_randls_18.json,http://54.235.29.9/FacialAge/BNav_EC2/DepthDuration/v2_depth_duration_MTurk/v2_DepthDuration_HTML.html#436,436,2187,948,1093,615,8-29-2022,10-41-51,49,depth_duration_stimuli/002949_2014-06-26_15-57-42_094959634447_rgbf000079-resize_1/002949_2014-06-26_15-57-42_094959634447_rgbf000079-resize_1-target.png,1000,1.8915,1,3474,1002,meters,jsons/v1_VE1000_randls_18.json,604112,1985933,24,Man
49,870813,DepthScenes,duration_manipulation_targetAtFixation,jsons/v1_VE1000_randls_18.json,http://54.235.29.9/FacialAge/BNav_EC2/DepthDuration/v2_depth_duration_MTurk/v2_DepthDuration_HTML.html#436,436,2187,948,1093,615,8-29-2022,10-41-51,50,depth_duration_stimuli/000414_2014-06-04_19-49-13_260595134347_rgbf000044-resize_0/000414_2014-06-04_19-49-13_260595134347_rgbf000044-resize_0-target.png,1000,4.329,1,2955,973,meters,jsons/v1_VE1000_randls_18.json,604112,1985933,24,Man
50,870813,DepthScenes,duration_manipulation_targetAtFixation,jsons/v1_VE1000_randls_18.json,http://54.235.29.9/FacialAge/BNav_EC2/DepthDuration/v2_depth_duration_MTurk/v2_DepthDuration_HTML.html#436,436,2187,948,1093,615,8-29-2022,10-41-51,51,depth_duration_stimuli/003129_2014-05-12_10-48-10_094959634447_rgbf000100-resize_0/003129_2014-05-12_10-48-10_094959634447_rgbf000100-resize_0-target.png,1000,4.9305,0,2751,1000,meters,jsons/v1_VE1000_randls_18.json,604112,1985933,24,Man
51,870813,DepthScenes,duration_manipulation_targetAtFixation,jsons/v1_VE1000_randls_18.json,http://54.235.29.9/FacialAge/BNav_EC2/DepthDuration/v2_depth_duration_MTurk/v2_DepthDuration_HTML.html#436,436,2187,948,1093,615,8-29-2022,10-41-51,52,depth_duration_stimuli/000758_2014-06-08_22-05-08_260595134347_rgbf000085-resize_0/000758_2014-06-08_22-05-08_260595134347_rgbf000085-resize_0-target.png,1000,3.3810000000000002,0,2532,1000,meters,jsons/v1_VE1000_randls_18.json,604112,1985933,24,Man
52,870813,DepthScenes,duration_manipulation_targetAtFixation,jsons/v1_VE1000_randls_18.json,http://54.235.29.9/FacialAge/BNav_EC2/DepthDuration/v2_depth_duration_MTurk/v2_DepthDuration_HTML.html#436,436,2187,948,1093,615,8-29-2022,10-41-51,53,depth_duration_stimuli/000854_2014-06-09_19-43-13_260595134347_rgbf000066-resize_0/000854_2014-06-09_19-43-13_260595134347_rgbf000066-resize_0-target.png,1000,3.068,0,2650,1000,meters,jsons/v1_VE1000_randls_18.json,604112,1985933,24,Man
53,870813,DepthScenes,duration_manipulation_targetAtFixation,jsons/v1_VE1000_randls_18.json,http://54.235.29.9/FacialAge/BNav_EC2/DepthDuration/v2_depth_duration_MTurk/v2_DepthDuration_HTML.html#436,436,2187,948,1093,615,8-29-2022,10-41-51,54,depth_duration_stimuli/000486_2014-06-09_20-47-20_260595134347_rgbf000143-resize_2/000486_2014-06-09_20-47-20_260595134347_rgbf000143-resize_2-target.png,1000,4.8325,0,2556,999,meters,jsons/v1_VE1000_randls_18.json,604112,1985933,24,Man
54,870813,DepthScenes,duration_manipulation_targetAtFixation,jsons/v1_VE1000_randls_18.json,http://54.235.29.9/FacialAge/BNav_EC2/DepthDuration/v2_depth_duration_MTurk/v2_DepthDuration_HTML.html#436,436,2187,948,1093,615,8-29-2022,10-41-51,55,depth_duration_stimuli/003083_2014-06-15_15-21-03_094959634447_rgbf000063-resize_1/003083_2014-06-15_15-21-03_094959634447_rgbf000063-resize_1-target.png,1000,4.1405,0,2400,998,meters,jsons/v1_VE1000_randls_18.json,604112,1985933,24,Man
55,870813,DepthScenes,duration_manipulation_targetAtFixation,jsons/v1_VE1000_randls_18.json,http://54.235.29.9/FacialAge/BNav_EC2/DepthDuration/v2_depth_duration_MTurk/v2_DepthDuration_HTML.html#436,436,2187,948,1093,615,8-29-2022,10-41-51,56,depth_duration_stimuli/000773_2014-06-08_22-24-54_260595134347_rgbf000093-resize_1/000773_2014-06-08_22-24-54_260595134347_rgbf000093-resize_1-target.png,1000,4.973,0,3387,998,meters,jsons/v1_VE1000_randls_18.json,604112,1985933,24,Man
56,870813,DepthScenes,duration_manipulation_targetAtFixation,jsons/v1_VE1000_randls_18.json,http://54.235.29.9/FacialAge/BNav_EC2/DepthDuration/v2_depth_duration_MTurk/v2_DepthDuration_HTML.html#436,436,2187,948,1093,615,8-29-2022,10-41-51,57,depth_duration_stimuli/002414_2014-06-28_20-24-58_260595134347_rgbf000067-resize_4/002414_2014-06-28_20-24-58_260595134347_rgbf000067-resize_4-target.png,1000,4.363,0,3086,1000,meters,jsons/v1_VE1000_randls_18.json,604112,1985933,24,Man
57,870813,DepthScenes,duration_manipulation_targetAtFixation,jsons/v1_VE1000_randls_18.json,http://54.235.29.9/FacialAge/BNav_EC2/DepthDuration/v2_depth_duration_MTurk/v2_DepthDuration_HTML.html#436,436,2187,948,1093,615,8-29-2022,10-41-51,58,depth_duration_stimuli/000493_2014-06-09_21-01-18_260595134347_rgbf000196-resize_3/000493_2014-06-09_21-01-18_260595134347_rgbf000196-resize_3-target.png,1000,3.44,0,3149,1000,meters,jsons/v1_VE1000_randls_18.json,604112,1985933,24,Man
58,870813,DepthScenes,duration_manipulation_targetAtFixation,jsons/v1_VE1000_randls_18.json,http://54.235.29.9/FacialAge/BNav_EC2/DepthDuration/v2_depth_duration_MTurk/v2_DepthDuration_HTML.html#436,436,2187,948,1093,615,8-29-2022,10-41-51,59,depth_duration_stimuli/000191_2014-05-12_17-07-38_260595134347_rgbf000199-resize_0/000191_2014-05-12_17-07-38_260595134347_rgbf000199-resize_0-target.png,1000,3.7995,0,3410,998,meters,jsons/v1_VE1000_randls_18.json,604112,1985933,24,Man
59,870813,DepthScenes,duration_manipulation_targetAtFixation,jsons/v1_VE1000_randls_18.json,http://54.235.29.9/FacialAge/BNav_EC2/DepthDuration/v2_depth_duration_MTurk/v2_DepthDuration_HTML.html#436,436,2187,948,1093,615,8-29-2022,10-41-51,60,depth_duration_stimuli/002153_2014-06-25_21-27-18_260595134347_rgbf000038-resize_5/002153_2014-06-25_21-27-18_260595134347_rgbf000038-resize_5-target.png,1000,2.505,1,2649,999,meters,jsons/v1_VE1000_randls_18.json,604112,1985933,24,Man
60,870813,DepthScenes,duration_manipulation_targetAtFixation,jsons/v1_VE1000_randls_18.json,http://54.235.29.9/FacialAge/BNav_EC2/DepthDuration/v2_depth_duration_MTurk/v2_DepthDuration_HTML.html#436,436,2187,948,1093,615,8-29-2022,10-41-51,61,depth_duration_stimuli/002660_2014-06-13_15-44-18_094959634447_rgbf001878-resize_2/002660_2014-06-13_15-44-18_094959634447_rgbf001878-resize_2-target.png,1000,3.576,1,2804,999,meters,jsons/v1_VE1000_randls_18.json,604112,1985933,24,Man
61,870813,DepthScenes,duration_manipulation_targetAtFixation,jsons/v1_VE1000_randls_18.json,http://54.235.29.9/FacialAge/BNav_EC2/DepthDuration/v2_depth_duration_MTurk/v2_DepthDuration_HTML.html#436,436,2187,948,1093,615,8-29-2022,10-41-51,62,depth_duration_stimuli/002748_2014-06-22_19-07-22_094959634447_rgbf000078-resize_1/002748_2014-06-22_19-07-22_094959634447_rgbf000078-resize_1-target.png,1000,4.6705,0,3602,1000,meters,jsons/v1_VE1000_randls_18.json,604112,1985933,24,Man
62,870813,DepthScenes,duration_manipulation_targetAtFixation,jsons/v1_VE1000_randls_18.json,http://54.235.29.9/FacialAge/BNav_EC2/DepthDuration/v2_depth_duration_MTurk/v2_DepthDuration_HTML.html#436,436,2187,948,1093,615,8-29-2022,10-41-51,63,depth_duration_stimuli/002995_2014-06-15_12-31-26_094959634447_rgbf000150-resize_1/002995_2014-06-15_12-31-26_094959634447_rgbf000150-resize_1-target.png,1000,3.8360000000000003,0,2825,998,meters,jsons/v1_VE1000_randls_18.json,604112,1985933,24,Man
63,870813,DepthScenes,duration_manipulation_targetAtFixation,jsons/v1_VE1000_randls_18.json,http://54.235.29.9/FacialAge/BNav_EC2/DepthDuration/v2_depth_duration_MTurk/v2_DepthDuration_HTML.html#436,436,2187,948,1093,615,8-29-2022,10-41-51,64,depth_duration_stimuli/001092_2014-06-15_17-34-58_260595134347_rgbf000171-resize_3/001092_2014-06-15_17-34-58_260595134347_rgbf000171-resize_3-target.png,1000,2.6935,0,2753,999,meters,jsons/v1_VE1000_randls_18.json,604112,1985933,24,Man
64,870813,DepthScenes,duration_manipulation_targetAtFixation,jsons/v1_VE1000_randls_18.json,http://54.235.29.9/FacialAge/BNav_EC2/DepthDuration/v2_depth_duration_MTurk/v2_DepthDuration_HTML.html#436,436,2187,948,1093,615,8-29-2022,10-41-51,65,depth_duration_stimuli/002545_2014-06-24_13-38-53_094959634447_rgbf000080-resize_4/002545_2014-06-24_13-38-53_094959634447_rgbf000080-resize_4-target.png,1000,1.9205,0,2924,999,meters,jsons/v1_VE1000_randls_18.json,604112,1985933,24,Man
65,870813,DepthScenes,duration_manipulation_targetAtFixation,jsons/v1_VE1000_randls_18.json,http://54.235.29.9/FacialAge/BNav_EC2/DepthDuration/v2_depth_duration_MTurk/v2_DepthDuration_HTML.html#436,436,2187,948,1093,615,8-29-2022,10-41-51,66,depth_duration_stimuli/001222_2014-06-17_16-24-06_260595134347_rgbf000073-resize_0/001222_2014-06-17_16-24-06_260595134347_rgbf000073-resize-original.jpg,1000,1.4385,0,3239,992,meters,jsons/v1_VE1000_randls_18.json,604112,1985933,24,Man
66,870813,DepthScenes,duration_manipulation_targetAtFixation,jsons/v1_VE1000_randls_18.json,http://54.235.29.9/FacialAge/BNav_EC2/DepthDuration/v2_depth_duration_MTurk/v2_DepthDuration_HTML.html#436,436,2187,948,1093,615,8-29-2022,10-41-51,67,depth_duration_stimuli/001555_2014-06-20_17-12-10_260595134347_rgbf000065-resize_4/001555_2014-06-20_17-12-10_260595134347_rgbf000065-resize_4-target.png,1000,1.633,1,2947,1029,meters,jsons/v1_VE1000_randls_18.json,604112,1985933,24,Man
67,870813,DepthScenes,duration_manipulation_targetAtFixation,jsons/v1_VE1000_randls_18.json,http://54.235.29.9/FacialAge/BNav_EC2/DepthDuration/v2_depth_duration_MTurk/v2_DepthDuration_HTML.html#436,436,2187,948,1093,615,8-29-2022,10-41-51,68,depth_duration_stimuli/000103_2014-05-14_22-01-17_260595134347_rgbf000152-resize_5/000103_2014-05-14_22-01-17_260595134347_rgbf000152-resize_5-target.png,1000,1.993,1,2583,999,meters,jsons/v1_VE1000_randls_18.json,604112,1985933,24,Man
68,870813,DepthScenes,duration_manipulation_targetAtFixation,jsons/v1_VE1000_randls_18.json,http://54.235.29.9/FacialAge/BNav_EC2/DepthDuration/v2_depth_duration_MTurk/v2_DepthDuration_HTML.html#436,436,2187,948,1093,615,8-29-2022,10-41-51,69,depth_duration_stimuli/000447_2014-06-08_16-15-46_260595134347_rgbf000130-resize_1/000447_2014-06-08_16-15-46_260595134347_rgbf000130-resize_1-target.png,1000,4.479,0,2909,998,meters,jsons/v1_VE1000_randls_18.json,604112,1985933,24,Man
69,870813,DepthScenes,duration_manipulation_targetAtFixation,jsons/v1_VE1000_randls_18.json,http://54.235.29.9/FacialAge/BNav_EC2/DepthDuration/v2_depth_duration_MTurk/v2_DepthDuration_HTML.html#436,436,2187,948,1093,615,8-29-2022,10-41-51,70,depth_duration_stimuli/001447_2014-06-19_17-00-32_260595134347_rgbf000082-resize_5/001447_2014-06-19_17-00-32_260595134347_rgbf000082-resize_5-target.png,1000,4.13775,0,4152,859,meters,jsons/v1_VE1000_randls_18.json,604112,1985933,24,Man
70,870813,DepthScenes,duration_manipulation_targetAtFixation,jsons/v1_VE1000_randls_18.json,http://54.235.29.9/FacialAge/BNav_EC2/DepthDuration/v2_depth_duration_MTurk/v2_DepthDuration_HTML.html#436,436,2187,948,1093,615,8-29-2022,10-41-51,71,depth_duration_stimuli/001808_2014-06-26_20-50-58_260595134347_rgbf000029-resize_1/001808_2014-06-26_20-50-58_260595134347_rgbf000029-resize_1-target.png,1000,4.249,0,3362,1000,meters,jsons/v1_VE1000_randls_18.json,604112,1985933,24,Man
71,870813,DepthScenes,duration_manipulation_targetAtFixation,jsons/v1_VE1000_randls_18.json,http://54.235.29.9/FacialAge/BNav_EC2/DepthDuration/v2_depth_duration_MTurk/v2_DepthDuration_HTML.html#436,436,2187,948,1093,615,8-29-2022,10-41-51,72,depth_duration_stimuli/001815_2014-06-26_20-52-55_260595134347_rgbf000020-resize_0/001815_2014-06-26_20-52-55_260595134347_rgbf000020-resize_0-target.png,1000,3.3865,1,2768,980,meters,jsons/v1_VE1000_randls_18.json,604112,1985933,24,Man
72,870813,DepthScenes,duration_manipulation_targetAtFixation,jsons/v1_VE1000_randls_18.json,http://54.235.29.9/FacialAge/BNav_EC2/DepthDuration/v2_depth_duration_MTurk/v2_DepthDuration_HTML.html#436,436,2187,948,1093,615,8-29-2022,10-41-51,73,depth_duration_stimuli/000469_2014-06-09_19-42-10_260595134347_rgbf000081-resize_1/000469_2014-06-09_19-42-10_260595134347_rgbf000081-resize_1-target.png,1000,1.652,0,3050,961,meters,jsons/v1_VE1000_randls_18.json,604112,1985933,24,Man
73,870813,DepthScenes,duration_manipulation_targetAtFixation,jsons/v1_VE1000_randls_18.json,http://54.235.29.9/FacialAge/BNav_EC2/DepthDuration/v2_depth_duration_MTurk/v2_DepthDuration_HTML.html#436,436,2187,948,1093,615,8-29-2022,10-41-51,74,depth_duration_stimuli/000483_2014-06-09_20-41-45_260595134347_rgbf000116-resize_4/000483_2014-06-09_20-41-45_260595134347_rgbf000116-resize_4-target.png,1000,1.337,1,2514,998,meters,jsons/v1_VE1000_randls_18.json,604112,1985933,24,Man
74,870813,DepthScenes,duration_manipulation_targetAtFixation,jsons/v1_VE1000_randls_18.json,http://54.235.29.9/FacialAge/BNav_EC2/DepthDuration/v2_depth_duration_MTurk/v2_DepthDuration_HTML.html#436,436,2187,948,1093,615,8-29-2022,10-41-51,75,depth_duration_stimuli/002600_2014-06-24_14-27-04_094959634447_rgbf000074-resize_2/002600_2014-06-24_14-27-04_094959634447_rgbf000074-resize_2-target.png,1000,2.7575,1,2620,973,meters,jsons/v1_VE1000_randls_18.json,604112,1985933,24,Man
75,870813,DepthScenes,duration_manipulation_targetAtFixation,jsons/v1_VE1000_randls_18.json,http://54.235.29.9/FacialAge/BNav_EC2/DepthDuration/v2_depth_duration_MTurk/v2_DepthDuration_HTML.html#436,436,2187,948,1093,615,8-29-2022,10-41-51,76,depth_duration_stimuli/003228_2014-05-14_13-42-35_094959634447_rgbf000101-resize_1/003228_2014-05-14_13-42-35_094959634447_rgbf000101-resize_1-target.png,1000,1.9680000000000002,0,3065,999,meters,jsons/v1_VE1000_randls_18.json,604112,1985933,24,Man
76,870813,DepthScenes,duration_manipulation_targetAtFixation,jsons/v1_VE1000_randls_18.json,http://54.235.29.9/FacialAge/BNav_EC2/DepthDuration/v2_depth_duration_MTurk/v2_DepthDuration_HTML.html#436,436,2187,948,1093,615,8-29-2022,10-41-51,77,depth_duration_stimuli/002989_2014-06-15_12-25-03_094959634447_rgbf000150-resize_3/002989_2014-06-15_12-25-03_094959634447_rgbf000150-resize_3-target.png,1000,4.1975,1,2713,999,meters,jsons/v1_VE1000_randls_18.json,604112,1985933,24,Man
77,870813,DepthScenes,duration_manipulation_targetAtFixation,jsons/v1_VE1000_randls_18.json,http://54.235.29.9/FacialAge/BNav_EC2/DepthDuration/v2_depth_duration_MTurk/v2_DepthDuration_HTML.html#436,436,2187,948,1093,615,8-29-2022,10-41-51,78,depth_duration_stimuli/000866_2014-06-09_20-45-42_260595134347_rgbf000139-resize_1/000866_2014-06-09_20-45-42_260595134347_rgbf000139-resize_1-target.png,1000,3.2155,1,2619,1000,meters,jsons/v1_VE1000_randls_18.json,604112,1985933,24,Man
78,870813,DepthScenes,duration_manipulation_targetAtFixation,jsons/v1_VE1000_randls_18.json,http://54.235.29.9/FacialAge/BNav_EC2/DepthDuration/v2_depth_duration_MTurk/v2_DepthDuration_HTML.html#436,436,2187,948,1093,615,8-29-2022,10-41-51,79,depth_duration_stimuli/001810_2014-06-26_20-51-35_260595134347_rgbf000040-resize_3/001810_2014-06-26_20-51-35_260595134347_rgbf000040-resize_3-target.png,1000,2.2525,0,2716,1001,meters,jsons/v1_VE1000_randls_18.json,604112,1985933,24,Man
79,870813,DepthScenes,duration_manipulation_targetAtFixation,jsons/v1_VE1000_randls_18.json,http://54.235.29.9/FacialAge/BNav_EC2/DepthDuration/v2_depth_duration_MTurk/v2_DepthDuration_HTML.html#436,436,2187,948,1093,615,8-29-2022,10-41-51,80,depth_duration_stimuli/003010_2014-06-15_12-54-35_094959634447_rgbf000112-resize_0/003010_2014-06-15_12-54-35_094959634447_rgbf000112-resize_0-target.png,1000,3.1185,1,3086,998,meters,jsons/v1_VE1000_randls_18.json,604112,1985933,24,Man
80,870813,DepthScenes,duration_manipulation_targetAtFixation,jsons/v1_VE1000_randls_18.json,http://54.235.29.9/FacialAge/BNav_EC2/DepthDuration/v2_depth_duration_MTurk/v2_DepthDuration_HTML.html#436,436,2187,948,1093,615,8-29-2022,10-41-51,81,depth_duration_stimuli/000642_2014-06-08_16-59-25_260595134347_rgbf000098-resize_2/000642_2014-06-08_16-59-25_260595134347_rgbf000098-resize_2-target.png,1000,2.8815,0,3182,1000,meters,jsons/v1_VE1000_randls_18.json,604112,1985933,24,Man
81,870813,DepthScenes,duration_manipulation_targetAtFixation,jsons/v1_VE1000_randls_18.json,http://54.235.29.9/FacialAge/BNav_EC2/DepthDuration/v2_depth_duration_MTurk/v2_DepthDuration_HTML.html#436,436,2187,948,1093,615,8-29-2022,10-41-51,82,depth_duration_stimuli/002425_2014-06-28_20-27-29_260595134347_rgbf000031-resize_8/002425_2014-06-28_20-27-29_260595134347_rgbf000031-resize_8-target.png,1000,3.8960000000000004,1,2935,998,meters,jsons/v1_VE1000_randls_18.json,604112,1985933,24,Man
82,870813,DepthScenes,duration_manipulation_targetAtFixation,jsons/v1_VE1000_randls_18.json,http://54.235.29.9/FacialAge/BNav_EC2/DepthDuration/v2_depth_duration_MTurk/v2_DepthDuration_HTML.html#436,436,2187,948,1093,615,8-29-2022,10-41-51,83,depth_duration_stimuli/002057_2014-06-24_21-00-13_260595134347_rgbf000120-resize_1/002057_2014-06-24_21-00-13_260595134347_rgbf000120-resize_1-target.png,1000,2.967,1,2731,999,meters,jsons/v1_VE1000_randls_18.json,604112,1985933,24,Man
83,870813,DepthScenes,duration_manipulation_targetAtFixation,jsons/v1_VE1000_randls_18.json,http://54.235.29.9/FacialAge/BNav_EC2/DepthDuration/v2_depth_duration_MTurk/v2_DepthDuration_HTML.html#436,436,2187,948,1093,615,8-29-2022,10-41-51,84,depth_duration_stimuli/000709_2014-06-08_13-51-55_260595134347_rgbf000068-resize_3/000709_2014-06-08_13-51-55_260595134347_rgbf000068-resize_3-target.png,1000,1.8030000000000002,1,2696,995,meters,jsons/v1_VE1000_randls_18.json,604112,1985933,24,Man
84,870813,DepthScenes,duration_manipulation_targetAtFixation,jsons/v1_VE1000_randls_18.json,http://54.235.29.9/FacialAge/BNav_EC2/DepthDuration/v2_depth_duration_MTurk/v2_DepthDuration_HTML.html#436,436,2187,948,1093,615,8-29-2022,10-41-51,85,depth_duration_stimuli/001449_2014-06-19_17-01-27_260595134347_rgbf000116-resize_2/001449_2014-06-19_17-01-27_260595134347_rgbf000116-resize_2-target.png,1000,3.452,0,2995,997,meters,jsons/v1_VE1000_randls_18.json,604112,1985933,24,Man
85,870813,DepthScenes,duration_manipulation_targetAtFixation,jsons/v1_VE1000_randls_18.json,http://54.235.29.9/FacialAge/BNav_EC2/DepthDuration/v2_depth_duration_MTurk/v2_DepthDuration_HTML.html#436,436,2187,948,1093,615,8-29-2022,10-41-51,86,depth_duration_stimuli/001450_2014-06-19_17-02-03_260595134347_rgbf000203-resize_4/001450_2014-06-19_17-02-03_260595134347_rgbf000203-resize_4-target.png,1000,4.0106666666667,0,2697,1002,meters,jsons/v1_VE1000_randls_18.json,604112,1985933,24,Man
86,870813,DepthScenes,duration_manipulation_targetAtFixation,jsons/v1_VE1000_randls_18.json,http://54.235.29.9/FacialAge/BNav_EC2/DepthDuration/v2_depth_duration_MTurk/v2_DepthDuration_HTML.html#436,436,2187,948,1093,615,8-29-2022,10-41-51,87,depth_duration_stimuli/000878_2014-06-08_22-52-45_260595134347_rgbf000045-resize_2/000878_2014-06-08_22-52-45_260595134347_rgbf000045-resize_2-target.png,1000,2.092,0,2536,997,meters,jsons/v1_VE1000_randls_18.json,604112,1985933,24,Man
87,870813,DepthScenes,duration_manipulation_targetAtFixation,jsons/v1_VE1000_randls_18.json,http://54.235.29.9/FacialAge/BNav_EC2/DepthDuration/v2_depth_duration_MTurk/v2_DepthDuration_HTML.html#436,436,2187,948,1093,615,8-29-2022,10-41-51,88,depth_duration_stimuli/002953_2014-06-08_17-32-18_094959634447_rgbf000059-resize_5/002953_2014-06-08_17-32-18_094959634447_rgbf000059-resize_5-target.png,1000,1.551,0,2569,1030,meters,jsons/v1_VE1000_randls_18.json,604112,1985933,24,Man
88,870813,DepthScenes,duration_manipulation_targetAtFixation,jsons/v1_VE1000_randls_18.json,http://54.235.29.9/FacialAge/BNav_EC2/DepthDuration/v2_depth_duration_MTurk/v2_DepthDuration_HTML.html#436,436,2187,948,1093,615,8-29-2022,10-41-51,89,depth_duration_stimuli/002118_2014-06-25_20-32-08_260595134347_rgbf000078-resize_1/002118_2014-06-25_20-32-08_260595134347_rgbf000078-resize_1-target.png,1000,2.6460000000000004,0,4267,1000,meters,jsons/v1_VE1000_randls_18.json,604112,1985933,24,Man
89,870813,DepthScenes,duration_manipulation_targetAtFixation,jsons/v1_VE1000_randls_18.json,http://54.235.29.9/FacialAge/BNav_EC2/DepthDuration/v2_depth_duration_MTurk/v2_DepthDuration_HTML.html#436,436,2187,948,1093,615,8-29-2022,10-41-51,90,depth_duration_stimuli/001516_2014-06-20_16-25-09_260595134347_rgbf000076-resize_2/001516_2014-06-20_16-25-09_260595134347_rgbf000076-resize_2-target.png,1000,1.7445,1,2643,999,meters,jsons/v1_VE1000_randls_18.json,604112,1985933,24,Man
90,870813,DepthScenes,duration_manipulation_targetAtFixation,jsons/v1_VE1000_randls_18.json,http://54.235.29.9/FacialAge/BNav_EC2/DepthDuration/v2_depth_duration_MTurk/v2_DepthDuration_HTML.html#436,436,2187,948,1093,615,8-29-2022,10-41-51,91,depth_duration_stimuli/002549_2014-06-24_13-41-39_094959634447_rgbf000022-resize_3/002549_2014-06-24_13-41-39_094959634447_rgbf000022-resize_3-target.png,1000,1.476,0,4011,999,meters,jsons/v1_VE1000_randls_18.json,604112,1985933,24,Man
91,870813,DepthScenes,duration_manipulation_targetAtFixation,jsons/v1_VE1000_randls_18.json,http://54.235.29.9/FacialAge/BNav_EC2/DepthDuration/v2_depth_duration_MTurk/v2_DepthDuration_HTML.html#436,436,2187,948,1093,615,8-29-2022,10-41-51,92,depth_duration_stimuli/002750_2014-06-22_19-08-03_094959634447_rgbf000094-resize_4/002750_2014-06-22_19-08-03_094959634447_rgbf000094-resize_4-target.png,1000,2.354,1,2593,999,meters,jsons/v1_VE1000_randls_18.json,604112,1985933,24,Man
92,870813,DepthScenes,duration_manipulation_targetAtFixation,jsons/v1_VE1000_randls_18.json,http://54.235.29.9/FacialAge/BNav_EC2/DepthDuration/v2_depth_duration_MTurk/v2_DepthDuration_HTML.html#436,436,2187,948,1093,615,8-29-2022,10-41-51,93,depth_duration_stimuli/002663_2014-06-13_15-50-26_094959634447_rgbf000075-resize_1/002663_2014-06-13_15-50-26_094959634447_rgbf000075-resize_1-target.png,1000,4.7495,0,2642,998,meters,jsons/v1_VE1000_randls_18.json,604112,1985933,24,Man
93,870813,DepthScenes,duration_manipulation_targetAtFixation,jsons/v1_VE1000_randls_18.json,http://54.235.29.9/FacialAge/BNav_EC2/DepthDuration/v2_depth_duration_MTurk/v2_DepthDuration_HTML.html#436,436,2187,948,1093,615,8-29-2022,10-41-51,94,depth_duration_stimuli/000409_2014-06-04_19-23-33_260595134347_rgbf000067-resize_0/000409_2014-06-04_19-23-33_260595134347_rgbf000067-resize_0-target.png,1000,3.7335,1,2382,881,meters,jsons/v1_VE1000_randls_18.json,604112,1985933,24,Man
94,870813,DepthScenes,duration_manipulation_targetAtFixation,jsons/v1_VE1000_randls_18.json,http://54.235.29.9/FacialAge/BNav_EC2/DepthDuration/v2_depth_duration_MTurk/v2_DepthDuration_HTML.html#436,436,2187,948,1093,615,8-29-2022,10-41-51,95,depth_duration_stimuli/002272_2014-06-28_18-53-56_260595134347_rgbf000067-resize_2/002272_2014-06-28_18-53-56_260595134347_rgbf000067-resize_2-target.png,1000,1.138,0,3571,1001,meters,jsons/v1_VE1000_randls_18.json,604112,1985933,24,Man
95,870813,DepthScenes,duration_manipulation_targetAtFixation,jsons/v1_VE1000_randls_18.json,http://54.235.29.9/FacialAge/BNav_EC2/DepthDuration/v2_depth_duration_MTurk/v2_DepthDuration_HTML.html#436,436,2187,948,1093,615,8-29-2022,10-41-51,96,depth_duration_stimuli/001571_2014-06-20_17-21-32_260595134347_rgbf000089-resize_1/001571_2014-06-20_17-21-32_260595134347_rgbf000089-resize_1-target.png,1000,1.86,1,3155,998,meters,jsons/v1_VE1000_randls_18.json,604112,1985933,24,Man
96,870813,DepthScenes,duration_manipulation_targetAtFixation,jsons/v1_VE1000_randls_18.json,http://54.235.29.9/FacialAge/BNav_EC2/DepthDuration/v2_depth_duration_MTurk/v2_DepthDuration_HTML.html#436,436,2187,948,1093,615,8-29-2022,10-41-51,97,depth_duration_stimuli/002630_2014-06-24_14-47-50_094959634447_rgbf000055-resize_1/002630_2014-06-24_14-47-50_094959634447_rgbf000055-resize_1-target.png,1000,3.0095,0,2710,1000,meters,jsons/v1_VE1000_randls_18.json,604112,1985933,24,Man
97,870813,DepthScenes,duration_manipulation_targetAtFixation,jsons/v1_VE1000_randls_18.json,http://54.235.29.9/FacialAge/BNav_EC2/DepthDuration/v2_depth_duration_MTurk/v2_DepthDuration_HTML.html#436,436,2187,948,1093,615,8-29-2022,10-41-51,98,depth_duration_stimuli/002758_2014-06-22_19-11-20_094959634447_rgbf000128-resize_1/002758_2014-06-22_19-11-20_094959634447_rgbf000128-resize_1-target.png,1000,2.555,1,2673,1000,meters,jsons/v1_VE1000_randls_18.json,604112,1985933,24,Man
98,870813,DepthScenes,duration_manipulation_targetAtFixation,jsons/v1_VE1000_randls_18.json,http://54.235.29.9/FacialAge/BNav_EC2/DepthDuration/v2_depth_duration_MTurk/v2_DepthDuration_HTML.html#436,436,2187,948,1093,615,8-29-2022,10-41-51,99,depth_duration_stimuli/001540_2014-06-20_17-01-05_260595134347_rgbf000086-resize_2/001540_2014-06-20_17-01-05_260595134347_rgbf000086-resize-original.jpg,1000,1.459,1,3372,1139,meters,jsons/v1_VE1000_randls_18.json,604112,1985933,24,Man
99,870813,DepthScenes,duration_manipulation_targetAtFixation,jsons/v1_VE1000_randls_18.json,http://54.235.29.9/FacialAge/BNav_EC2/DepthDuration/v2_depth_duration_MTurk/v2_DepthDuration_HTML.html#436,436,2187,948,1093,615,8-29-2022,10-41-51,100,depth_duration_stimuli/002788_2014-06-22_19-36-03_094959634447_rgbf000088-resize_2/002788_2014-06-22_19-36-03_094959634447_rgbf000088-resize_2-target.png,1000,1.6465,1,5505,1000,meters,jsons/v1_VE1000_randls_18.json,604112,1985933,24,Man
100,870813,DepthScenes,duration_manipulation_targetAtFixation,jsons/v1_VE1000_randls_18.json,http://54.235.29.9/FacialAge/BNav_EC2/DepthDuration/v2_depth_duration_MTurk/v2_DepthDuration_HTML.html#436,436,2187,948,1093,615,8-29-2022,10-41-51,101,depth_duration_stimuli/000749_2014-06-08_21-55-06_260595134347_rgbf000070-resize_2/000749_2014-06-08_21-55-06_260595134347_rgbf000070-resize_2-target.png,1000,2.331,0,3778,1000,meters,jsons/v1_VE1000_randls_18.json,604112,1985933,24,Man
101,870813,DepthScenes,duration_manipulation_targetAtFixation,jsons/v1_VE1000_randls_18.json,http://54.235.29.9/FacialAge/BNav_EC2/DepthDuration/v2_depth_duration_MTurk/v2_DepthDuration_HTML.html#436,436,2187,948,1093,615,8-29-2022,10-41-51,102,depth_duration_stimuli/000906_2014-06-08_13-35-43_260595134347_rgbf000155-resize_1/000906_2014-06-08_13-35-43_260595134347_rgbf000155-resize_1-target.png,1000,2.8489999999999998,0,3580,1039,meters,jsons/v1_VE1000_randls_18.json,604112,1985933,24,Man
102,870813,DepthScenes,duration_manipulation_targetAtFixation,jsons/v1_VE1000_randls_18.json,http://54.235.29.9/FacialAge/BNav_EC2/DepthDuration/v2_depth_duration_MTurk/v2_DepthDuration_HTML.html#436,436,2187,948,1093,615,8-29-2022,10-41-51,103,depth_duration_stimuli/002805_2014-06-22_19-54-03_094959634447_rgbf000079-resize_1/002805_2014-06-22_19-54-03_094959634447_rgbf000079-resize_1-target.png,1000,3.1439999999999997,1,2966,990,meters,jsons/v1_VE1000_randls_18.json,604112,1985933,24,Man
103,870813,DepthScenes,duration_manipulation_targetAtFixation,jsons/v1_VE1000_randls_18.json,http://54.235.29.9/FacialAge/BNav_EC2/DepthDuration/v2_depth_duration_MTurk/v2_DepthDuration_HTML.html#436,436,2187,948,1093,615,8-29-2022,10-41-51,104,depth_duration_stimuli/001570_2014-06-20_17-21-09_260595134347_rgbf000135-resize_4/001570_2014-06-20_17-21-09_260595134347_rgbf000135-resize_4-target.png,1000,4.467,0,2926,833,meters,jsons/v1_VE1000_randls_18.json,604112,1985933,24,Man
104,870813,DepthScenes,duration_manipulation_targetAtFixation,jsons/v1_VE1000_randls_18.json,http://54.235.29.9/FacialAge/BNav_EC2/DepthDuration/v2_depth_duration_MTurk/v2_DepthDuration_HTML.html#436,436,2187,948,1093,615,8-29-2022,10-41-51,105,depth_duration_stimuli/001392_2014-06-19_16-07-59_260595134347_rgbf000046-resize_1/001392_2014-06-19_16-07-59_260595134347_rgbf000046-resize_1-target.png,1000,4.135,0,2885,1000,meters,jsons/v1_VE1000_randls_18.json,604112,1985933,24,Man
105,870813,DepthScenes,duration_manipulation_targetAtFixation,jsons/v1_VE1000_randls_18.json,http://54.235.29.9/FacialAge/BNav_EC2/DepthDuration/v2_depth_duration_MTurk/v2_DepthDuration_HTML.html#436,436,2187,948,1093,615,8-29-2022,10-41-51,106,depth_duration_stimuli/002905_2014-06-03_18-04-43_094959634447_rgbf000151-resize_2/002905_2014-06-03_18-04-43_094959634447_rgbf000151-resize_2-target.png,1000,2.0295,0,2878,1041,meters,jsons/v1_VE1000_randls_18.json,604112,1985933,24,Man
106,870813,DepthScenes,duration_manipulation_targetAtFixation,jsons/v1_VE1000_randls_18.json,http://54.235.29.9/FacialAge/BNav_EC2/DepthDuration/v2_depth_duration_MTurk/v2_DepthDuration_HTML.html#436,436,2187,948,1093,615,8-29-2022,10-41-51,107,depth_duration_stimuli/003423_2014-05-21_10-23-26_094959634447_rgbf002665-resize_2/003423_2014-05-21_10-23-26_094959634447_rgbf002665-resize_2-target.png,1000,3.2575,0,3226,999,meters,jsons/v1_VE1000_randls_18.json,604112,1985933,24,Man
107,870813,DepthScenes,duration_manipulation_targetAtFixation,jsons/v1_VE1000_randls_18.json,http://54.235.29.9/FacialAge/BNav_EC2/DepthDuration/v2_depth_duration_MTurk/v2_DepthDuration_HTML.html#436,436,2187,948,1093,615,8-29-2022,10-41-51,108,depth_duration_stimuli/002725_2014-06-22_11-47-51_094959634447_rgbf000070-resize_1/002725_2014-06-22_11-47-51_094959634447_rgbf000070-resize_1-target.png,1000,2.195,1,2850,999,meters,jsons/v1_VE1000_randls_18.json,604112,1985933,24,Man
108,870813,DepthScenes,duration_manipulation_targetAtFixation,jsons/v1_VE1000_randls_18.json,http://54.235.29.9/FacialAge/BNav_EC2/DepthDuration/v2_depth_duration_MTurk/v2_DepthDuration_HTML.html#436,436,2187,948,1093,615,8-29-2022,10-41-51,109,depth_duration_stimuli/002344_2014-06-28_20-06-29_260595134347_rgbf000030-resize_1/002344_2014-06-28_20-06-29_260595134347_rgbf000030-resize_1-target.png,1000,1.5795,1,3116,1000,meters,jsons/v1_VE1000_randls_18.json,604112,1985933,24,Man
109,870813,DepthScenes,duration_manipulation_targetAtFixation,jsons/v1_VE1000_randls_18.json,http://54.235.29.9/FacialAge/BNav_EC2/DepthDuration/v2_depth_duration_MTurk/v2_DepthDuration_HTML.html#436,436,2187,948,1093,615,8-29-2022,10-41-51,110,depth_duration_stimuli/003621_2014-05-23_18-06-08_094959634447_rgbf000101-resize_1/003621_2014-05-23_18-06-08_094959634447_rgbf000101-resize_1-target.png,1000,3.9835,1,3136,952,meters,jsons/v1_VE1000_randls_18.json,604112,1985933,24,Man
110,870813,DepthScenes,duration_manipulation_targetAtFixation,jsons/v1_VE1000_randls_18.json,http://54.235.29.9/FacialAge/BNav_EC2/DepthDuration/v2_depth_duration_MTurk/v2_DepthDuration_HTML.html#436,436,2187,948,1093,615,8-29-2022,10-41-51,111,depth_duration_stimuli/001584_2014-06-20_11-07-43_260595134347_rgbf000002-resize_1/001584_2014-06-20_11-07-43_260595134347_rgbf000002-resize_1-target.png,1000,3.53,0,2592,999,meters,jsons/v1_VE1000_randls_18.json,604112,1985933,24,Man
111,870813,DepthScenes,duration_manipulation_targetAtFixation,jsons/v1_VE1000_randls_18.json,http://54.235.29.9/FacialAge/BNav_EC2/DepthDuration/v2_depth_duration_MTurk/v2_DepthDuration_HTML.html#436,436,2187,948,1093,615,8-29-2022,10-41-51,112,depth_duration_stimuli/002213_2014-06-28_18-37-58_260595134347_rgbf000055-resize_1/002213_2014-06-28_18-37-58_260595134347_rgbf000055-resize_1-target.png,1000,3.62,1,3101,998,meters,jsons/v1_VE1000_randls_18.json,604112,1985933,24,Man
112,870813,DepthScenes,duration_manipulation_targetAtFixation,jsons/v1_VE1000_randls_18.json,http://54.235.29.9/FacialAge/BNav_EC2/DepthDuration/v2_depth_duration_MTurk/v2_DepthDuration_HTML.html#436,436,2187,948,1093,615,8-29-2022,10-41-51,113,depth_duration_stimuli/000691_2014-06-08_13-08-50_260595134347_rgbf000132-resize_3/000691_2014-06-08_13-08-50_260595134347_rgbf000132-resize_3-target.png,1000,4.1530000000000005,0,2756,999,meters,jsons/v1_VE1000_randls_18.json,604112,1985933,24,Man
113,870813,DepthScenes,duration_manipulation_targetAtFixation,jsons/v1_VE1000_randls_18.json,http://54.235.29.9/FacialAge/BNav_EC2/DepthDuration/v2_depth_duration_MTurk/v2_DepthDuration_HTML.html#436,436,2187,948,1093,615,8-29-2022,10-41-51,114,depth_duration_stimuli/001199_2014-06-17_16-03-48_260595134347_rgbf000077-resize_0/001199_2014-06-17_16-03-48_260595134347_rgbf000077-resize_0-target.png,1000,3.4375,0,3265,1003,meters,jsons/v1_VE1000_randls_18.json,604112,1985933,24,Man
114,870813,DepthScenes,duration_manipulation_targetAtFixation,jsons/v1_VE1000_randls_18.json,http://54.235.29.9/FacialAge/BNav_EC2/DepthDuration/v2_depth_duration_MTurk/v2_DepthDuration_HTML.html#436,436,2187,948,1093,615,8-29-2022,10-41-51,115,depth_duration_stimuli/000502_2014-06-08_23-02-32_260595134347_rgbf000063-resize_4/000502_2014-06-08_23-02-32_260595134347_rgbf000063-resize_4-target.png,1000,2.431,0,3290,999,meters,jsons/v1_VE1000_randls_18.json,604112,1985933,24,Man
115,870813,DepthScenes,duration_manipulation_targetAtFixation,jsons/v1_VE1000_randls_18.json,http://54.235.29.9/FacialAge/BNav_EC2/DepthDuration/v2_depth_duration_MTurk/v2_DepthDuration_HTML.html#436,436,2187,948,1093,615,8-29-2022,10-41-51,116,depth_duration_stimuli/001170_2014-06-17_15-43-44_260595134347_rgbf000096-resize_6/001170_2014-06-17_15-43-44_260595134347_rgbf000096-resize-original.jpg,1000,1.1909999999999998,1,3511,999,meters,jsons/v1_VE1000_randls_18.json,604112,1985933,24,Man
116,870813,DepthScenes,duration_manipulation_targetAtFixation,jsons/v1_VE1000_randls_18.json,http://54.235.29.9/FacialAge/BNav_EC2/DepthDuration/v2_depth_duration_MTurk/v2_DepthDuration_HTML.html#436,436,2187,948,1093,615,8-29-2022,10-41-51,117,depth_duration_stimuli/003492_2014-05-21_15-50-55_094959634447_rgbf000828-resize_1/003492_2014-05-21_15-50-55_094959634447_rgbf000828-resize_1-target.png,1000,4.06875,0,2944,998,meters,jsons/v1_VE1000_randls_18.json,604112,1985933,24,Man
117,870813,DepthScenes,duration_manipulation_targetAtFixation,jsons/v1_VE1000_randls_18.json,http://54.235.29.9/FacialAge/BNav_EC2/DepthDuration/v2_depth_duration_MTurk/v2_DepthDuration_HTML.html#436,436,2187,948,1093,615,8-29-2022,10-41-51,118,depth_duration_stimuli/002568_2014-06-24_13-59-21_094959634447_rgbf000062-resize_4/002568_2014-06-24_13-59-21_094959634447_rgbf000062-resize_4-target.png,1000,3.015,0,2636,1000,meters,jsons/v1_VE1000_randls_18.json,604112,1985933,24,Man
118,870813,DepthScenes,duration_manipulation_targetAtFixation,jsons/v1_VE1000_randls_18.json,http://54.235.29.9/FacialAge/BNav_EC2/DepthDuration/v2_depth_duration_MTurk/v2_DepthDuration_HTML.html#436,436,2187,948,1093,615,8-29-2022,10-41-51,119,depth_duration_stimuli/001158_2014-06-17_15-32-16_260595134347_rgbf000138-resize_2/001158_2014-06-17_15-32-16_260595134347_rgbf000138-resize_2-target.png,1000,4.5315,0,3315,999,meters,jsons/v1_VE1000_randls_18.json,604112,1985933,24,Man
119,870813,DepthScenes,duration_manipulation_targetAtFixation,jsons/v1_VE1000_randls_18.json,http://54.235.29.9/FacialAge/BNav_EC2/DepthDuration/v2_depth_duration_MTurk/v2_DepthDuration_HTML.html#436,436,2187,948,1093,615,8-29-2022,10-41-51,120,depth_duration_stimuli/000556_2014-06-09_22-42-56_260595134347_rgbf000214-resize_1/000556_2014-06-09_22-42-56_260595134347_rgbf000214-resize_1-target.png,1000,4.8415,0,2614,1008,meters,jsons/v1_VE1000_randls_18.json,604112,1985933,24,Man
120,870813,DepthScenes,duration_manipulation_targetAtFixation,jsons/v1_VE1000_randls_18.json,http://54.235.29.9/FacialAge/BNav_EC2/DepthDuration/v2_depth_duration_MTurk/v2_DepthDuration_HTML.html#436,436,2187,948,1093,615,8-29-2022,10-41-51,121,depth_duration_stimuli/002784_2014-06-22_19-26-30_094959634447_rgbf000083-resize_3/002784_2014-06-22_19-26-30_094959634447_rgbf000083-resize_3-target.png,1000,1.8046666666667,1,3067,995,meters,jsons/v1_VE1000_randls_18.json,604112,1985933,24,Man
121,870813,DepthScenes,duration_manipulation_targetAtFixation,jsons/v1_VE1000_randls_18.json,http://54.235.29.9/FacialAge/BNav_EC2/DepthDuration/v2_depth_duration_MTurk/v2_DepthDuration_HTML.html#436,436,2187,948,1093,615,8-29-2022,10-41-51,122,depth_duration_stimuli/001100_2014-06-15_17-46-26_260595134347_rgbf000225-resize_2/001100_2014-06-15_17-46-26_260595134347_rgbf000225-resize_2-target.png,1000,2.24,0,3249,1000,meters,jsons/v1_VE1000_randls_18.json,604112,1985933,24,Man
122,870813,DepthScenes,duration_manipulation_targetAtFixation,jsons/v1_VE1000_randls_18.json,http://54.235.29.9/FacialAge/BNav_EC2/DepthDuration/v2_depth_duration_MTurk/v2_DepthDuration_HTML.html#436,436,2187,948,1093,615,8-29-2022,10-41-51,123,depth_duration_stimuli/003070_2014-06-15_14-58-27_094959634447_rgbf000150-resize_3/003070_2014-06-15_14-58-27_094959634447_rgbf000150-resize_3-target.png,1000,2.9415,0,2684,1000,meters,jsons/v1_VE1000_randls_18.json,604112,1985933,24,Man
123,870813,DepthScenes,duration_manipulation_targetAtFixation,jsons/v1_VE1000_randls_18.json,http://54.235.29.9/FacialAge/BNav_EC2/DepthDuration/v2_depth_duration_MTurk/v2_DepthDuration_HTML.html#436,436,2187,948,1093,615,8-29-2022,10-41-51,124,depth_duration_stimuli/000943_2014-06-09_19-31-07_260595134347_rgbf000128-resize_1/000943_2014-06-09_19-31-07_260595134347_rgbf000128-resize_1-target.png,1000,1.9765,0,3331,999,meters,jsons/v1_VE1000_randls_18.json,604112,1985933,24,Man
124,870813,DepthScenes,duration_manipulation_targetAtFixation,jsons/v1_VE1000_randls_18.json,http://54.235.29.9/FacialAge/BNav_EC2/DepthDuration/v2_depth_duration_MTurk/v2_DepthDuration_HTML.html#436,436,2187,948,1093,615,8-29-2022,10-41-51,125,depth_duration_stimuli/003534_2014-05-22_15-06-10_094959634447_rgbf000102-resize_4/003534_2014-05-22_15-06-10_094959634447_rgbf000102-resize_4-target.png,1000,1.426,0,3719,998,meters,jsons/v1_VE1000_randls_18.json,604112,1985933,24,Man
125,870813,DepthScenes,duration_manipulation_targetAtFixation,jsons/v1_VE1000_randls_18.json,http://54.235.29.9/FacialAge/BNav_EC2/DepthDuration/v2_depth_duration_MTurk/v2_DepthDuration_HTML.html#436,436,2187,948,1093,615,8-29-2022,10-41-51,126,depth_duration_stimuli/002637_2014-06-24_14-51-13_094959634447_rgbf000066-resize_4/002637_2014-06-24_14-51-13_094959634447_rgbf000066-resize_4-target.png,1000,1.9955,0,3398,1000,meters,jsons/v1_VE1000_randls_18.json,604112,1985933,24,Man
126,870813,DepthScenes,duration_manipulation_targetAtFixation,jsons/v1_VE1000_randls_18.json,http://54.235.29.9/FacialAge/BNav_EC2/DepthDuration/v2_depth_duration_MTurk/v2_DepthDuration_HTML.html#436,436,2187,948,1093,615,8-29-2022,10-41-51,127,depth_duration_stimuli/000009_2014-05-26_14-32-05_260595134347_rgbf000034-resize_3/000009_2014-05-26_14-32-05_260595134347_rgbf000034-resize_3-target.png,1000,3.8715,1,3745,996,meters,jsons/v1_VE1000_randls_18.json,604112,1985933,24,Man
127,870813,DepthScenes,duration_manipulation_targetAtFixation,jsons/v1_VE1000_randls_18.json,http://54.235.29.9/FacialAge/BNav_EC2/DepthDuration/v2_depth_duration_MTurk/v2_DepthDuration_HTML.html#436,436,2187,948,1093,615,8-29-2022,10-41-51,128,depth_duration_stimuli/001828_2014-06-26_21-40-03_260595134347_rgbf000024-resize_0/001828_2014-06-26_21-40-03_260595134347_rgbf000024-resize_0-target.png,1000,4.8260000000000005,1,2753,609,meters,jsons/v1_VE1000_randls_18.json,604112,1985933,24,Man
128,870813,DepthScenes,duration_manipulation_targetAtFixation,jsons/v1_VE1000_randls_18.json,http://54.235.29.9/FacialAge/BNav_EC2/DepthDuration/v2_depth_duration_MTurk/v2_DepthDuration_HTML.html#436,436,2187,948,1093,615,8-29-2022,10-41-51,129,depth_duration_stimuli/001806_2014-06-26_20-50-20_260595134347_rgbf000091-resize_1/001806_2014-06-26_20-50-20_260595134347_rgbf000091-resize_1-target.png,1000,2.7305,0,2954,999,meters,jsons/v1_VE1000_randls_18.json,604112,1985933,24,Man
129,870813,DepthScenes,duration_manipulation_targetAtFixation,jsons/v1_VE1000_randls_18.json,http://54.235.29.9/FacialAge/BNav_EC2/DepthDuration/v2_depth_duration_MTurk/v2_DepthDuration_HTML.html#436,436,2187,948,1093,615,8-29-2022,10-41-51,130,depth_duration_stimuli/001617_2014-06-20_11-35-32_260595134347_rgbf000066-resize_1/001617_2014-06-20_11-35-32_260595134347_rgbf000066-resize_1-target.png,1000,3.7910000000000004,0,3086,998,meters,jsons/v1_VE1000_randls_18.json,604112,1985933,24,Man
130,870813,DepthScenes,duration_manipulation_targetAtFixation,jsons/v1_VE1000_randls_18.json,http://54.235.29.9/FacialAge/BNav_EC2/DepthDuration/v2_depth_duration_MTurk/v2_DepthDuration_HTML.html#436,436,2187,948,1093,615,8-29-2022,10-41-51,131,depth_duration_stimuli/002445_2014-06-28_20-32-16_260595134347_rgbf000029-resize_4/002445_2014-06-28_20-32-16_260595134347_rgbf000029-resize_4-target.png,1000,2.5315,1,2702,991,meters,jsons/v1_VE1000_randls_18.json,604112,1985933,24,Man
131,870813,DepthScenes,duration_manipulation_targetAtFixation,jsons/v1_VE1000_randls_18.json,http://54.235.29.9/FacialAge/BNav_EC2/DepthDuration/v2_depth_duration_MTurk/v2_DepthDuration_HTML.html#436,436,2187,948,1093,615,8-29-2022,10-41-51,132,depth_duration_stimuli/000780_2014-06-08_22-28-29_260595134347_rgbf000126-resize_1/000780_2014-06-08_22-28-29_260595134347_rgbf000126-resize_1-target.png,1000,3.3825,0,2778,999,meters,jsons/v1_VE1000_randls_18.json,604112,1985933,24,Man
132,870813,DepthScenes,duration_manipulation_targetAtFixation,jsons/v1_VE1000_randls_18.json,http://54.235.29.9/FacialAge/BNav_EC2/DepthDuration/v2_depth_duration_MTurk/v2_DepthDuration_HTML.html#436,436,2187,948,1093,615,8-29-2022,10-41-51,133,depth_duration_stimuli/000917_2014-06-09_22-45-29_260595134347_rgbf000149-resize_3/000917_2014-06-09_22-45-29_260595134347_rgbf000149-resize_3-target.png,1000,4.1865,0,2789,988,meters,jsons/v1_VE1000_randls_18.json,604112,1985933,24,Man
133,870813,DepthScenes,duration_manipulation_targetAtFixation,jsons/v1_VE1000_randls_18.json,http://54.235.29.9/FacialAge/BNav_EC2/DepthDuration/v2_depth_duration_MTurk/v2_DepthDuration_HTML.html#436,436,2187,948,1093,615,8-29-2022,10-41-51,134,depth_duration_stimuli/002323_2014-06-28_20-01-54_260595134347_rgbf000051-resize_4/002323_2014-06-28_20-01-54_260595134347_rgbf000051-resize_4-target.png,1000,3.7310000000000003,0,2733,999,meters,jsons/v1_VE1000_randls_18.json,604112,1985933,24,Man
134,870813,DepthScenes,duration_manipulation_targetAtFixation,jsons/v1_VE1000_randls_18.json,http://54.235.29.9/FacialAge/BNav_EC2/DepthDuration/v2_depth_duration_MTurk/v2_DepthDuration_HTML.html#436,436,2187,948,1093,615,8-29-2022,10-41-51,135,depth_duration_stimuli/002072_2014-06-24_21-48-06_260595134347_rgbf000115-resize_0/002072_2014-06-24_21-48-06_260595134347_rgbf000115-resize-original.jpg,1000,4.702,0,2665,998,meters,jsons/v1_VE1000_randls_18.json,604112,1985933,24,Man
135,870813,DepthScenes,duration_manipulation_targetAtFixation,jsons/v1_VE1000_randls_18.json,http://54.235.29.9/FacialAge/BNav_EC2/DepthDuration/v2_depth_duration_MTurk/v2_DepthDuration_HTML.html#436,436,2187,948,1093,615,8-29-2022,10-41-51,136,depth_duration_stimuli/002043_2014-06-24_20-29-38_260595134347_rgbf000039-resize_4/002043_2014-06-24_20-29-38_260595134347_rgbf000039-resize_4-target.png,1000,2.8435,0,3576,1154,meters,jsons/v1_VE1000_randls_18.json,604112,1985933,24,Man
136,870813,DepthScenes,duration_manipulation_targetAtFixation,jsons/v1_VE1000_randls_18.json,http://54.235.29.9/FacialAge/BNav_EC2/DepthDuration/v2_depth_duration_MTurk/v2_DepthDuration_HTML.html#436,436,2187,948,1093,615,8-29-2022,10-41-51,137,depth_duration_stimuli/003048_2014-06-15_13-49-43_094959634447_rgbf000150-resize_1/003048_2014-06-15_13-49-43_094959634447_rgbf000150-resize_1-target.png,1000,4.0035,0,2915,996,meters,jsons/v1_VE1000_randls_18.json,604112,1985933,24,Man
137,870813,DepthScenes,duration_manipulation_targetAtFixation,jsons/v1_VE1000_randls_18.json,http://54.235.29.9/FacialAge/BNav_EC2/DepthDuration/v2_depth_duration_MTurk/v2_DepthDuration_HTML.html#436,436,2187,948,1093,615,8-29-2022,10-41-51,138,depth_duration_stimuli/000682_2014-06-08_23-14-58_260595134347_rgbf000041-resize_5/000682_2014-06-08_23-14-58_260595134347_rgbf000041-resize_5-target.png,1000,2.7239999999999998,0,2762,994,meters,jsons/v1_VE1000_randls_18.json,604112,1985933,24,Man
138,870813,DepthScenes,duration_manipulation_targetAtFixation,jsons/v1_VE1000_randls_18.json,http://54.235.29.9/FacialAge/BNav_EC2/DepthDuration/v2_depth_duration_MTurk/v2_DepthDuration_HTML.html#436,436,2187,948,1093,615,8-29-2022,10-41-51,139,depth_duration_stimuli/001650_2014-06-20_12-09-00_260595134347_rgbf000087-resize_3/001650_2014-06-20_12-09-00_260595134347_rgbf000087-resize_3-target.png,1000,1.9505,1,2659,999,meters,jsons/v1_VE1000_randls_18.json,604112,1985933,24,Man
139,870813,DepthScenes,duration_manipulation_targetAtFixation,jsons/v1_VE1000_randls_18.json,http://54.235.29.9/FacialAge/BNav_EC2/DepthDuration/v2_depth_duration_MTurk/v2_DepthDuration_HTML.html#436,436,2187,948,1093,615,8-29-2022,10-41-51,140,depth_duration_stimuli/000736_2014-06-08_18-24-15_260595134347_rgbf000206-resize_3/000736_2014-06-08_18-24-15_260595134347_rgbf000206-resize_3-target.png,1000,3.515,1,2739,998,meters,jsons/v1_VE1000_randls_18.json,604112,1985933,24,Man
140,870813,DepthScenes,duration_manipulation_targetAtFixation,jsons/v1_VE1000_randls_18.json,http://54.235.29.9/FacialAge/BNav_EC2/DepthDuration/v2_depth_duration_MTurk/v2_DepthDuration_HTML.html#436,436,2187,948,1093,615,8-29-2022,10-41-51,141,depth_duration_stimuli/000137_2014-05-20_17-04-49_260595134347_rgbf000120-resize_1/000137_2014-05-20_17-04-49_260595134347_rgbf000120-resize_1-target.png,1000,3.786,1,4082,953,meters,jsons/v1_VE1000_randls_18.json,604112,1985933,24,Man
141,870813,DepthScenes,duration_manipulation_targetAtFixation,jsons/v1_VE1000_randls_18.json,http://54.235.29.9/FacialAge/BNav_EC2/DepthDuration/v2_depth_duration_MTurk/v2_DepthDuration_HTML.html#436,436,2187,948,1093,615,8-29-2022,10-41-51,142,depth_duration_stimuli/000810_2014-06-08_17-20-01_260595134347_rgbf000105-resize_0/000810_2014-06-08_17-20-01_260595134347_rgbf000105-resize_0-target.png,1000,1.4865,1,2874,997,meters,jsons/v1_VE1000_randls_18.json,604112,1985933,24,Man
142,870813,DepthScenes,duration_manipulation_targetAtFixation,jsons/v1_VE1000_randls_18.json,http://54.235.29.9/FacialAge/BNav_EC2/DepthDuration/v2_depth_duration_MTurk/v2_DepthDuration_HTML.html#436,436,2187,948,1093,615,8-29-2022,10-41-51,143,depth_duration_stimuli/001214_2014-06-17_16-13-55_260595134347_rgbf000111-resize_0/001214_2014-06-17_16-13-55_260595134347_rgbf000111-resize_0-target.png,1000,2.6505,1,2597,999,meters,jsons/v1_VE1000_randls_18.json,604112,1985933,24,Man
143,870813,DepthScenes,duration_manipulation_targetAtFixation,jsons/v1_VE1000_randls_18.json,http://54.235.29.9/FacialAge/BNav_EC2/DepthDuration/v2_depth_duration_MTurk/v2_DepthDuration_HTML.html#436,436,2187,948,1093,615,8-29-2022,10-41-51,144,depth_duration_stimuli/002964_2014-06-08_17-46-11_094959634447_rgbf000091-resize_4/002964_2014-06-08_17-46-11_094959634447_rgbf000091-resize_4-target.png,1000,1.6909999999999998,0,2653,999,meters,jsons/v1_VE1000_randls_18.json,604112,1985933,24,Man
144,870813,DepthScenes,duration_manipulation_targetAtFixation,jsons/v1_VE1000_randls_18.json,http://54.235.29.9/FacialAge/BNav_EC2/DepthDuration/v2_depth_duration_MTurk/v2_DepthDuration_HTML.html#436,436,2187,948,1093,615,8-29-2022,10-41-51,145,depth_duration_stimuli/002136_2014-06-25_21-18-03_260595134347_rgbf000109-resize_3/002136_2014-06-25_21-18-03_260595134347_rgbf000109-resize_3-target.png,1000,1.9569999999999999,0,2476,1000,meters,jsons/v1_VE1000_randls_18.json,604112,1985933,24,Man
145,870813,DepthScenes,duration_manipulation_targetAtFixation,jsons/v1_VE1000_randls_18.json,http://54.235.29.9/FacialAge/BNav_EC2/DepthDuration/v2_depth_duration_MTurk/v2_DepthDuration_HTML.html#436,436,2187,948,1093,615,8-29-2022,10-41-51,146,depth_duration_stimuli/001498_2014-06-19_17-45-14_260595134347_rgbf000129-resize_4/001498_2014-06-19_17-45-14_260595134347_rgbf000129-resize-original.jpg,1000,1.4075,1,2409,1000,meters,jsons/v1_VE1000_randls_18.json,604112,1985933,24,Man
146,870813,DepthScenes,duration_manipulation_targetAtFixation,jsons/v1_VE1000_randls_18.json,http://54.235.29.9/FacialAge/BNav_EC2/DepthDuration/v2_depth_duration_MTurk/v2_DepthDuration_HTML.html#436,436,2187,948,1093,615,8-29-2022,10-41-51,147,depth_duration_stimuli/001244_2014-06-17_16-47-45_260595134347_rgbf000030-resize_4/001244_2014-06-17_16-47-45_260595134347_rgbf000030-resize_4-target.png,1000,2.0425,0,2792,997,meters,jsons/v1_VE1000_randls_18.json,604112,1985933,24,Man
147,870813,DepthScenes,duration_manipulation_targetAtFixation,jsons/v1_VE1000_randls_18.json,http://54.235.29.9/FacialAge/BNav_EC2/DepthDuration/v2_depth_duration_MTurk/v2_DepthDuration_HTML.html#436,436,2187,948,1093,615,8-29-2022,10-41-51,148,depth_duration_stimuli/003495_2014-05-21_16-01-51_094959634447_rgbf000100-resize_3/003495_2014-05-21_16-01-51_094959634447_rgbf000100-resize_3-target.png,1000,1.6255,1,2435,998,meters,jsons/v1_VE1000_randls_18.json,604112,1985933,24,Man
148,870813,DepthScenes,duration_manipulation_targetAtFixation,jsons/v1_VE1000_randls_18.json,http://54.235.29.9/FacialAge/BNav_EC2/DepthDuration/v2_depth_duration_MTurk/v2_DepthDuration_HTML.html#436,436,2187,948,1093,615,8-29-2022,10-41-51,149,depth_duration_stimuli/001167_2014-06-17_15-38-07_260595134347_rgbf000108-resize_0/001167_2014-06-17_15-38-07_260595134347_rgbf000108-resize_0-target.png,1000,1.8505,0,3076,998,meters,jsons/v1_VE1000_randls_18.json,604112,1985933,24,Man
149,870813,DepthScenes,duration_manipulation_targetAtFixation,jsons/v1_VE1000_randls_18.json,http://54.235.29.9/FacialAge/BNav_EC2/DepthDuration/v2_depth_duration_MTurk/v2_DepthDuration_HTML.html#436,436,2187,948,1093,615,8-29-2022,10-41-51,150,depth_duration_stimuli/003587_2014-05-23_16-48-02_094959634447_rgbf002384-resize_2/003587_2014-05-23_16-48-02_094959634447_rgbf002384-resize_2-target.png,1000,1.357,0,2513,998,meters,jsons/v1_VE1000_randls_18.json,604112,1985933,24,Man
150,870813,DepthScenes,duration_manipulation_targetAtFixation,jsons/v1_VE1000_randls_18.json,http://54.235.29.9/FacialAge/BNav_EC2/DepthDuration/v2_depth_duration_MTurk/v2_DepthDuration_HTML.html#436,436,2187,948,1093,615,8-29-2022,10-41-51,151,depth_duration_stimuli/001164_2014-06-17_15-35-46_260595134347_rgbf000085-resize_3/001164_2014-06-17_15-35-46_260595134347_rgbf000085-resize_3-target.png,1000,2.354,1,3038,995,meters,jsons/v1_VE1000_randls_18.json,604112,1985933,24,Man
151,870813,DepthScenes,duration_manipulation_targetAtFixation,jsons/v1_VE1000_randls_18.json,http://54.235.29.9/FacialAge/BNav_EC2/DepthDuration/v2_depth_duration_MTurk/v2_DepthDuration_HTML.html#436,436,2187,948,1093,615,8-29-2022,10-41-51,152,depth_duration_stimuli/001136_2014-06-17_15-19-41_260595134347_rgbf000076-resize_3/001136_2014-06-17_15-19-41_260595134347_rgbf000076-resize_3-target.png,1000,1.8655,0,2619,981,meters,jsons/v1_VE1000_randls_18.json,604112,1985933,24,Man
152,870813,DepthScenes,duration_manipulation_targetAtFixation,jsons/v1_VE1000_randls_18.json,http://54.235.29.9/FacialAge/BNav_EC2/DepthDuration/v2_depth_duration_MTurk/v2_DepthDuration_HTML.html#436,436,2187,948,1093,615,8-29-2022,10-41-51,153,depth_duration_stimuli/002039_2014-06-24_20-22-38_260595134347_rgbf000084-resize_1/002039_2014-06-24_20-22-38_260595134347_rgbf000084-resize_1-target.png,1000,4.408,1,3338,998,meters,jsons/v1_VE1000_randls_18.json,604112,1985933,24,Man
153,870813,DepthScenes,duration_manipulation_targetAtFixation,jsons/v1_VE1000_randls_18.json,http://54.235.29.9/FacialAge/BNav_EC2/DepthDuration/v2_depth_duration_MTurk/v2_DepthDuration_HTML.html#436,436,2187,948,1093,615,8-29-2022,10-41-51,154,depth_duration_stimuli/002103_2014-06-25_20-00-40_260595134347_rgbf000049-resize_0/002103_2014-06-25_20-00-40_260595134347_rgbf000049-resize_0-target.png,1000,4.105,0,6662,997,meters,jsons/v1_VE1000_randls_18.json,604112,1985933,24,Man
154,870813,DepthScenes,duration_manipulation_targetAtFixation,jsons/v1_VE1000_randls_18.json,http://54.235.29.9/FacialAge/BNav_EC2/DepthDuration/v2_depth_duration_MTurk/v2_DepthDuration_HTML.html#436,436,2187,948,1093,615,8-29-2022,10-41-51,155,depth_duration_stimuli/001011_2014-06-08_23-18-54_260595134347_rgbf000044-resize_4/001011_2014-06-08_23-18-54_260595134347_rgbf000044-resize_4-target.png,1000,2.4730000000000003,1,2629,863,meters,jsons/v1_VE1000_randls_18.json,604112,1985933,24,Man
155,870813,DepthScenes,duration_manipulation_targetAtFixation,jsons/v1_VE1000_randls_18.json,http://54.235.29.9/FacialAge/BNav_EC2/DepthDuration/v2_depth_duration_MTurk/v2_DepthDuration_HTML.html#436,436,2187,948,1093,615,8-29-2022,10-41-51,156,depth_duration_stimuli/002875_2014-06-01_15-19-00_094959634447_rgbf000151-resize_1/002875_2014-06-01_15-19-00_094959634447_rgbf000151-resize_1-target.png,1000,1.9675,0,3058,1003,meters,jsons/v1_VE1000_randls_18.json,604112,1985933,24,Man
156,870813,DepthScenes,duration_manipulation_targetAtFixation,jsons/v1_VE1000_randls_18.json,http://54.235.29.9/FacialAge/BNav_EC2/DepthDuration/v2_depth_duration_MTurk/v2_DepthDuration_HTML.html#436,436,2187,948,1093,615,8-29-2022,10-41-51,157,depth_duration_stimuli/001150_2014-06-17_15-27-34_260595134347_rgbf000108-resize_2/001150_2014-06-17_15-27-34_260595134347_rgbf000108-resize_2-target.png,1000,4.0325,1,2719,995,meters,jsons/v1_VE1000_randls_18.json,604112,1985933,24,Man
157,870813,DepthScenes,duration_manipulation_targetAtFixation,jsons/v1_VE1000_randls_18.json,http://54.235.29.9/FacialAge/BNav_EC2/DepthDuration/v2_depth_duration_MTurk/v2_DepthDuration_HTML.html#436,436,2187,948,1093,615,8-29-2022,10-41-51,158,depth_duration_stimuli/000665_2014-06-09_20-42-35_260595134347_rgbf000110-resize_1/000665_2014-06-09_20-42-35_260595134347_rgbf000110-resize_1-target.png,1000,3.057,1,2704,998,meters,jsons/v1_VE1000_randls_18.json,604112,1985933,24,Man
158,870813,DepthScenes,duration_manipulation_targetAtFixation,jsons/v1_VE1000_randls_18.json,http://54.235.29.9/FacialAge/BNav_EC2/DepthDuration/v2_depth_duration_MTurk/v2_DepthDuration_HTML.html#436,436,2187,948,1093,615,8-29-2022,10-41-51,159,depth_duration_stimuli/002763_2014-06-22_19-13-10_094959634447_rgbf000075-resize_4/002763_2014-06-22_19-13-10_094959634447_rgbf000075-resize_4-target.png,1000,1.68375,1,2595,998,meters,jsons/v1_VE1000_randls_18.json,604112,1985933,24,Man
159,870813,DepthScenes,duration_manipulation_targetAtFixation,jsons/v1_VE1000_randls_18.json,http://54.235.29.9/FacialAge/BNav_EC2/DepthDuration/v2_depth_duration_MTurk/v2_DepthDuration_HTML.html#436,436,2187,948,1093,615,8-29-2022,10-41-51,160,depth_duration_stimuli/002209_2014-06-28_18-36-10_260595134347_rgbf000051-resize_1/002209_2014-06-28_18-36-10_260595134347_rgbf000051-resize_1-target.png,1000,2.057,0,3214,999,meters,jsons/v1_VE1000_randls_18.json,604112,1985933,24,Man
160,870813,DepthScenes,duration_manipulation_targetAtFixation,jsons/v1_VE1000_randls_18.json,http://54.235.29.9/FacialAge/BNav_EC2/DepthDuration/v2_depth_duration_MTurk/v2_DepthDuration_HTML.html#436,436,2187,948,1093,615,8-29-2022,10-41-51,161,depth_duration_stimuli/003292_2014-05-14_21-53-49_094959634447_rgbf000100-resize_2/003292_2014-05-14_21-53-49_094959634447_rgbf000100-resize_2-target.png,1000,3.4815,1,2795,966,meters,jsons/v1_VE1000_randls_18.json,604112,1985933,24,Man
161,870813,DepthScenes,duration_manipulation_targetAtFixation,jsons/v1_VE1000_randls_18.json,http://54.235.29.9/FacialAge/BNav_EC2/DepthDuration/v2_depth_duration_MTurk/v2_DepthDuration_HTML.html#436,436,2187,948,1093,615,8-29-2022,10-41-51,162,depth_duration_stimuli/002639_2014-06-24_14-51-37_094959634447_rgbf000074-resize_4/002639_2014-06-24_14-51-37_094959634447_rgbf000074-resize_4-target.png,1000,4.0375,1,2893,999,meters,jsons/v1_VE1000_randls_18.json,604112,1985933,24,Man
162,870813,DepthScenes,duration_manipulation_targetAtFixation,jsons/v1_VE1000_randls_18.json,http://54.235.29.9/FacialAge/BNav_EC2/DepthDuration/v2_depth_duration_MTurk/v2_DepthDuration_HTML.html#436,436,2187,948,1093,615,8-29-2022,10-41-51,163,depth_duration_stimuli/000470_2014-06-09_19-42-40_260595134347_rgbf000094-resize_1/000470_2014-06-09_19-42-40_260595134347_rgbf000094-resize_1-target.png,1000,1.831,1,2631,1000,meters,jsons/v1_VE1000_randls_18.json,604112,1985933,24,Man
163,870813,DepthScenes,duration_manipulation_targetAtFixation,jsons/v1_VE1000_randls_18.json,http://54.235.29.9/FacialAge/BNav_EC2/DepthDuration/v2_depth_duration_MTurk/v2_DepthDuration_HTML.html#436,436,2187,948,1093,615,8-29-2022,10-41-51,164,depth_duration_stimuli/000109_2014-05-14_23-41-52_260595134347_rgbf000035-resize_9/000109_2014-05-14_23-41-52_260595134347_rgbf000035-resize_9-target.png,1000,1.3545,0,2551,1000,meters,jsons/v1_VE1000_randls_18.json,604112,1985933,24,Man
