,subjID,experimentName,versionName,sequenceName,url,selected_row,windowWidth,windowHeight,screenWidth,screenHeight,startDate,startTime,trial,stimulus,duration,actual_depth,depth_estimate,trial_RT,log_sceneDuration,unitSelection,seq_filepath,experimentTime,totalTime,age,gender
0,871020,DepthScenes,duration_manipulation_targetAtFixation,jsons/v1_VE1000_randls_9_rotated.json,http://54.235.29.9/FacialAge/BNav_EC2/DepthDuration/v2_depth_duration_MTurk/v2_DepthDuration_HTML.html#89,89,1093,500,1366,768,9-3-2022,13-36-30,1,depth_duration_stimuli/003490_2014-05-21_15-50-11_094959634447_rgbf000101-resize_3/003490_2014-05-21_15-50-11_094959634447_rgbf000101-resize_3-target.png,1000,3.6445,5,5290,1012,feet,jsons/v1_VE1000_randls_9_rotated.json,1176242,1626792,27,Man
1,871020,DepthScenes,duration_manipulation_targetAtFixation,jsons/v1_VE1000_randls_9_rotated.json,http://54.235.29.9/FacialAge/BNav_EC2/DepthDuration/v2_depth_duration_MTurk/v2_DepthDuration_HTML.html#89,89,1093,500,1366,768,9-3-2022,13-36-30,2,depth_duration_stimuli/001175_2014-06-17_15-45-55_260595134347_rgbf000129-resize_4/001175_2014-06-17_15-45-55_260595134347_rgbf000129-resize_4-target.png,1000,4.255,9,4142,998,feet,jsons/v1_VE1000_randls_9_rotated.json,1176242,1626792,27,Man
2,871020,DepthScenes,duration_manipulation_targetAtFixation,jsons/v1_VE1000_randls_9_rotated.json,http://54.235.29.9/FacialAge/BNav_EC2/DepthDuration/v2_depth_duration_MTurk/v2_DepthDuration_HTML.html#89,89,1093,500,1366,768,9-3-2022,13-36-30,3,depth_duration_stimuli/002344_2014-06-28_20-06-29_260595134347_rgbf000030-resize_1/002344_2014-06-28_20-06-29_260595134347_rgbf000030-resize_1-target.png,1000,1.5795,2,3485,1000,feet,jsons/v1_VE1000_randls_9_rotated.json,1176242,1626792,27,Man
3,871020,DepthScenes,duration_manipulation_targetAtFixation,jsons/v1_VE1000_randls_9_rotated.json,http://54.235.29.9/FacialAge/BNav_EC2/DepthDuration/v2_depth_duration_MTurk/v2_DepthDuration_HTML.html#89,89,1093,500,1366,768,9-3-2022,13-36-30,4,depth_duration_stimuli/002725_2014-06-22_11-47-51_094959634447_rgbf000070-resize_1/002725_2014-06-22_11-47-51_094959634447_rgbf000070-resize_1-target.png,1000,2.195,5,4132,987,feet,jsons/v1_VE1000_randls_9_rotated.json,1176242,1626792,27,Man
4,871020,DepthScenes,duration_manipulation_targetAtFixation,jsons/v1_VE1000_randls_9_rotated.json,http://54.235.29.9/FacialAge/BNav_EC2/DepthDuration/v2_depth_duration_MTurk/v2_DepthDuration_HTML.html#89,89,1093,500,1366,768,9-3-2022,13-36-30,5,depth_duration_stimuli/003129_2014-05-12_10-48-10_094959634447_rgbf000100-resize_0/003129_2014-05-12_10-48-10_094959634447_rgbf000100-resize_0-target.png,1000,4.9305,7,6074,1009,feet,jsons/v1_VE1000_randls_9_rotated.json,1176242,1626792,27,Man
5,871020,DepthScenes,duration_manipulation_targetAtFixation,jsons/v1_VE1000_randls_9_rotated.json,http://54.235.29.9/FacialAge/BNav_EC2/DepthDuration/v2_depth_duration_MTurk/v2_DepthDuration_HTML.html#89,89,1093,500,1366,768,9-3-2022,13-36-30,6,depth_duration_stimuli/000414_2014-06-04_19-49-13_260595134347_rgbf000044-resize_0/000414_2014-06-04_19-49-13_260595134347_rgbf000044-resize_0-target.png,1000,4.329,6,4531,1000,feet,jsons/v1_VE1000_randls_9_rotated.json,1176242,1626792,27,Man
6,871020,DepthScenes,duration_manipulation_targetAtFixation,jsons/v1_VE1000_randls_9_rotated.json,http://54.235.29.9/FacialAge/BNav_EC2/DepthDuration/v2_depth_duration_MTurk/v2_DepthDuration_HTML.html#89,89,1093,500,1366,768,9-3-2022,13-36-30,7,depth_duration_stimuli/001447_2014-06-19_17-00-32_260595134347_rgbf000082-resize_5/001447_2014-06-19_17-00-32_260595134347_rgbf000082-resize_5-target.png,1000,4.13775,6,4546,1009,feet,jsons/v1_VE1000_randls_9_rotated.json,1176242,1626792,27,Man
7,871020,DepthScenes,duration_manipulation_targetAtFixation,jsons/v1_VE1000_randls_9_rotated.json,http://54.235.29.9/FacialAge/BNav_EC2/DepthDuration/v2_depth_duration_MTurk/v2_DepthDuration_HTML.html#89,89,1093,500,1366,768,9-3-2022,13-36-30,8,depth_duration_stimuli/000447_2014-06-08_16-15-46_260595134347_rgbf000130-resize_1/000447_2014-06-08_16-15-46_260595134347_rgbf000130-resize_1-target.png,1000,4.479,7,3536,990,feet,jsons/v1_VE1000_randls_9_rotated.json,1176242,1626792,27,Man
8,871020,DepthScenes,duration_manipulation_targetAtFixation,jsons/v1_VE1000_randls_9_rotated.json,http://54.235.29.9/FacialAge/BNav_EC2/DepthDuration/v2_depth_duration_MTurk/v2_DepthDuration_HTML.html#89,89,1093,500,1366,768,9-3-2022,13-36-30,9,depth_duration_stimuli/002758_2014-06-22_19-11-20_094959634447_rgbf000128-resize_1/002758_2014-06-22_19-11-20_094959634447_rgbf000128-resize_1-target.png,1000,2.555,6,4505,989,feet,jsons/v1_VE1000_randls_9_rotated.json,1176242,1626792,27,Man
9,871020,DepthScenes,duration_manipulation_targetAtFixation,jsons/v1_VE1000_randls_9_rotated.json,http://54.235.29.9/FacialAge/BNav_EC2/DepthDuration/v2_depth_duration_MTurk/v2_DepthDuration_HTML.html#89,89,1093,500,1366,768,9-3-2022,13-36-30,10,depth_duration_stimuli/002630_2014-06-24_14-47-50_094959634447_rgbf000055-resize_1/002630_2014-06-24_14-47-50_094959634447_rgbf000055-resize_1-target.png,1000,3.0095,8,4092,992,feet,jsons/v1_VE1000_randls_9_rotated.json,1176242,1626792,27,Man
10,871020,DepthScenes,duration_manipulation_targetAtFixation,jsons/v1_VE1000_randls_9_rotated.json,http://54.235.29.9/FacialAge/BNav_EC2/DepthDuration/v2_depth_duration_MTurk/v2_DepthDuration_HTML.html#89,89,1093,500,1366,768,9-3-2022,13-36-30,11,depth_duration_stimuli/002414_2014-06-28_20-24-58_260595134347_rgbf000067-resize_4/002414_2014-06-28_20-24-58_260595134347_rgbf000067-resize_4-target.png,1000,4.363,8,5417,999,feet,jsons/v1_VE1000_randls_9_rotated.json,1176242,1626792,27,Man
11,871020,DepthScenes,duration_manipulation_targetAtFixation,jsons/v1_VE1000_randls_9_rotated.json,http://54.235.29.9/FacialAge/BNav_EC2/DepthDuration/v2_depth_duration_MTurk/v2_DepthDuration_HTML.html#89,89,1093,500,1366,768,9-3-2022,13-36-30,12,depth_duration_stimuli/000773_2014-06-08_22-24-54_260595134347_rgbf000093-resize_1/000773_2014-06-08_22-24-54_260595134347_rgbf000093-resize_1-target.png,1000,4.973,8,3895,999,feet,jsons/v1_VE1000_randls_9_rotated.json,1176242,1626792,27,Man
12,871020,DepthScenes,duration_manipulation_targetAtFixation,jsons/v1_VE1000_randls_9_rotated.json,http://54.235.29.9/FacialAge/BNav_EC2/DepthDuration/v2_depth_duration_MTurk/v2_DepthDuration_HTML.html#89,89,1093,500,1366,768,9-3-2022,13-36-30,13,depth_duration_stimuli/001450_2014-06-19_17-02-03_260595134347_rgbf000203-resize_4/001450_2014-06-19_17-02-03_260595134347_rgbf000203-resize_4-target.png,1000,4.0106666666667,7,7803,1000,feet,jsons/v1_VE1000_randls_9_rotated.json,1176242,1626792,27,Man
13,871020,DepthScenes,duration_manipulation_targetAtFixation,jsons/v1_VE1000_randls_9_rotated.json,http://54.235.29.9/FacialAge/BNav_EC2/DepthDuration/v2_depth_duration_MTurk/v2_DepthDuration_HTML.html#89,89,1093,500,1366,768,9-3-2022,13-36-30,14,depth_duration_stimuli/001449_2014-06-19_17-01-27_260595134347_rgbf000116-resize_2/001449_2014-06-19_17-01-27_260595134347_rgbf000116-resize_2-target.png,1000,3.452,6,3745,1000,feet,jsons/v1_VE1000_randls_9_rotated.json,1176242,1626792,27,Man
14,871020,DepthScenes,duration_manipulation_targetAtFixation,jsons/v1_VE1000_randls_9_rotated.json,http://54.235.29.9/FacialAge/BNav_EC2/DepthDuration/v2_depth_duration_MTurk/v2_DepthDuration_HTML.html#89,89,1093,500,1366,768,9-3-2022,13-36-30,15,depth_duration_stimuli/003079_2014-06-15_15-18-20_094959634447_rgbf000152-resize_8/003079_2014-06-15_15-18-20_094959634447_rgbf000152-resize_8-target.png,1000,2.8775,7,5291,999,feet,jsons/v1_VE1000_randls_9_rotated.json,1176242,1626792,27,Man
15,871020,DepthScenes,duration_manipulation_targetAtFixation,jsons/v1_VE1000_randls_9_rotated.json,http://54.235.29.9/FacialAge/BNav_EC2/DepthDuration/v2_depth_duration_MTurk/v2_DepthDuration_HTML.html#89,89,1093,500,1366,768,9-3-2022,13-36-30,16,depth_duration_stimuli/000506_2014-06-08_23-21-00_260595134347_rgbf000070-resize_7/000506_2014-06-08_23-21-00_260595134347_rgbf000070-resize_7-target.png,1000,4.0585,6,5040,990,feet,jsons/v1_VE1000_randls_9_rotated.json,1176242,1626792,27,Man
16,871020,DepthScenes,duration_manipulation_targetAtFixation,jsons/v1_VE1000_randls_9_rotated.json,http://54.235.29.9/FacialAge/BNav_EC2/DepthDuration/v2_depth_duration_MTurk/v2_DepthDuration_HTML.html#89,89,1093,500,1366,768,9-3-2022,13-36-30,17,depth_duration_stimuli/000866_2014-06-09_20-45-42_260595134347_rgbf000139-resize_1/000866_2014-06-09_20-45-42_260595134347_rgbf000139-resize_1-target.png,1000,3.2155,5,4788,1021,feet,jsons/v1_VE1000_randls_9_rotated.json,1176242,1626792,27,Man
17,871020,DepthScenes,duration_manipulation_targetAtFixation,jsons/v1_VE1000_randls_9_rotated.json,http://54.235.29.9/FacialAge/BNav_EC2/DepthDuration/v2_depth_duration_MTurk/v2_DepthDuration_HTML.html#89,89,1093,500,1366,768,9-3-2022,13-36-30,18,depth_duration_stimuli/002989_2014-06-15_12-25-03_094959634447_rgbf000150-resize_3/002989_2014-06-15_12-25-03_094959634447_rgbf000150-resize_3-target.png,1000,4.1975,9,8068,999,feet,jsons/v1_VE1000_randls_9_rotated.json,1176242,1626792,27,Man
18,871020,DepthScenes,duration_manipulation_targetAtFixation,jsons/v1_VE1000_randls_9_rotated.json,http://54.235.29.9/FacialAge/BNav_EC2/DepthDuration/v2_depth_duration_MTurk/v2_DepthDuration_HTML.html#89,89,1093,500,1366,768,9-3-2022,13-36-30,19,depth_duration_stimuli/001498_2014-06-19_17-45-14_260595134347_rgbf000129-resize_4/001498_2014-06-19_17-45-14_260595134347_rgbf000129-resize-original.jpg,1000,1.4075,0,5139,1008,feet,jsons/v1_VE1000_randls_9_rotated.json,1176242,1626792,27,Man
19,871020,DepthScenes,duration_manipulation_targetAtFixation,jsons/v1_VE1000_randls_9_rotated.json,http://54.235.29.9/FacialAge/BNav_EC2/DepthDuration/v2_depth_duration_MTurk/v2_DepthDuration_HTML.html#89,89,1093,500,1366,768,9-3-2022,13-36-30,20,depth_duration_stimuli/001392_2014-06-19_16-07-59_260595134347_rgbf000046-resize_1/001392_2014-06-19_16-07-59_260595134347_rgbf000046-resize_1-target.png,1000,4.135,8,4984,1000,feet,jsons/v1_VE1000_randls_9_rotated.json,1176242,1626792,27,Man
20,871020,DepthScenes,duration_manipulation_targetAtFixation,jsons/v1_VE1000_randls_9_rotated.json,http://54.235.29.9/FacialAge/BNav_EC2/DepthDuration/v2_depth_duration_MTurk/v2_DepthDuration_HTML.html#89,89,1093,500,1366,768,9-3-2022,13-36-30,21,depth_duration_stimuli/001570_2014-06-20_17-21-09_260595134347_rgbf000135-resize_4/001570_2014-06-20_17-21-09_260595134347_rgbf000135-resize_4-target.png,1000,4.467,6,4429,998,feet,jsons/v1_VE1000_randls_9_rotated.json,1176242,1626792,27,Man
21,871020,DepthScenes,duration_manipulation_targetAtFixation,jsons/v1_VE1000_randls_9_rotated.json,http://54.235.29.9/FacialAge/BNav_EC2/DepthDuration/v2_depth_duration_MTurk/v2_DepthDuration_HTML.html#89,89,1093,500,1366,768,9-3-2022,13-36-30,22,depth_duration_stimuli/002639_2014-06-24_14-51-37_094959634447_rgbf000074-resize_4/002639_2014-06-24_14-51-37_094959634447_rgbf000074-resize_4-target.png,1000,4.0375,6,6296,1011,feet,jsons/v1_VE1000_randls_9_rotated.json,1176242,1626792,27,Man
22,871020,DepthScenes,duration_manipulation_targetAtFixation,jsons/v1_VE1000_randls_9_rotated.json,http://54.235.29.9/FacialAge/BNav_EC2/DepthDuration/v2_depth_duration_MTurk/v2_DepthDuration_HTML.html#89,89,1093,500,1366,768,9-3-2022,13-36-30,23,depth_duration_stimuli/003292_2014-05-14_21-53-49_094959634447_rgbf000100-resize_2/003292_2014-05-14_21-53-49_094959634447_rgbf000100-resize_2-target.png,1000,3.4815,6,4062,1027,feet,jsons/v1_VE1000_randls_9_rotated.json,1176242,1626792,27,Man
23,871020,DepthScenes,duration_manipulation_targetAtFixation,jsons/v1_VE1000_randls_9_rotated.json,http://54.235.29.9/FacialAge/BNav_EC2/DepthDuration/v2_depth_duration_MTurk/v2_DepthDuration_HTML.html#89,89,1093,500,1366,768,9-3-2022,13-36-30,24,depth_duration_stimuli/002805_2014-06-22_19-54-03_094959634447_rgbf000079-resize_1/002805_2014-06-22_19-54-03_094959634447_rgbf000079-resize_1-target.png,1000,3.1439999999999997,7,3953,1023,feet,jsons/v1_VE1000_randls_9_rotated.json,1176242,1626792,27,Man
24,871020,DepthScenes,duration_manipulation_targetAtFixation,jsons/v1_VE1000_randls_9_rotated.json,http://54.235.29.9/FacialAge/BNav_EC2/DepthDuration/v2_depth_duration_MTurk/v2_DepthDuration_HTML.html#89,89,1093,500,1366,768,9-3-2022,13-36-30,25,depth_duration_stimuli/000906_2014-06-08_13-35-43_260595134347_rgbf000155-resize_1/000906_2014-06-08_13-35-43_260595134347_rgbf000155-resize_1-target.png,1000,2.8489999999999998,6,5690,1011,feet,jsons/v1_VE1000_randls_9_rotated.json,1176242,1626792,27,Man
25,871020,DepthScenes,duration_manipulation_targetAtFixation,jsons/v1_VE1000_randls_9_rotated.json,http://54.235.29.9/FacialAge/BNav_EC2/DepthDuration/v2_depth_duration_MTurk/v2_DepthDuration_HTML.html#89,89,1093,500,1366,768,9-3-2022,13-36-30,26,depth_duration_stimuli/000635_2014-06-08_16-38-42_260595134347_rgbf000106-resize_1/000635_2014-06-08_16-38-42_260595134347_rgbf000106-resize_1-target.png,1000,2.074,6,5196,1000,feet,jsons/v1_VE1000_randls_9_rotated.json,1176242,1626792,27,Man
26,871020,DepthScenes,duration_manipulation_targetAtFixation,jsons/v1_VE1000_randls_9_rotated.json,http://54.235.29.9/FacialAge/BNav_EC2/DepthDuration/v2_depth_duration_MTurk/v2_DepthDuration_HTML.html#89,89,1093,500,1366,768,9-3-2022,13-36-30,27,depth_duration_stimuli/002279_2014-06-28_18-55-32_260595134347_rgbf000040-resize_5/002279_2014-06-28_18-55-32_260595134347_rgbf000040-resize_5-target.png,1000,1.5043333333333,5,4172,987,feet,jsons/v1_VE1000_randls_9_rotated.json,1176242,1626792,27,Man
27,871020,DepthScenes,duration_manipulation_targetAtFixation,jsons/v1_VE1000_randls_9_rotated.json,http://54.235.29.9/FacialAge/BNav_EC2/DepthDuration/v2_depth_duration_MTurk/v2_DepthDuration_HTML.html#89,89,1093,500,1366,768,9-3-2022,13-36-30,28,depth_duration_stimuli/000556_2014-06-09_22-42-56_260595134347_rgbf000214-resize_1/000556_2014-06-09_22-42-56_260595134347_rgbf000214-resize_1-target.png,1000,4.8415,6,5430,1010,feet,jsons/v1_VE1000_randls_9_rotated.json,1176242,1626792,27,Man
28,871020,DepthScenes,duration_manipulation_targetAtFixation,jsons/v1_VE1000_randls_9_rotated.json,http://54.235.29.9/FacialAge/BNav_EC2/DepthDuration/v2_depth_duration_MTurk/v2_DepthDuration_HTML.html#89,89,1093,500,1366,768,9-3-2022,13-36-30,29,depth_duration_stimuli/001158_2014-06-17_15-32-16_260595134347_rgbf000138-resize_2/001158_2014-06-17_15-32-16_260595134347_rgbf000138-resize_2-target.png,1000,4.5315,8,4510,996,feet,jsons/v1_VE1000_randls_9_rotated.json,1176242,1626792,27,Man
29,871020,DepthScenes,duration_manipulation_targetAtFixation,jsons/v1_VE1000_randls_9_rotated.json,http://54.235.29.9/FacialAge/BNav_EC2/DepthDuration/v2_depth_duration_MTurk/v2_DepthDuration_HTML.html#89,89,1093,500,1366,768,9-3-2022,13-36-30,30,depth_duration_stimuli/002072_2014-06-24_21-48-06_260595134347_rgbf000115-resize_0/002072_2014-06-24_21-48-06_260595134347_rgbf000115-resize-original.jpg,1000,4.702,0,5644,999,feet,jsons/v1_VE1000_randls_9_rotated.json,1176242,1626792,27,Man
30,871020,DepthScenes,duration_manipulation_targetAtFixation,jsons/v1_VE1000_randls_9_rotated.json,http://54.235.29.9/FacialAge/BNav_EC2/DepthDuration/v2_depth_duration_MTurk/v2_DepthDuration_HTML.html#89,89,1093,500,1366,768,9-3-2022,13-36-30,31,depth_duration_stimuli/001650_2014-06-20_12-09-00_260595134347_rgbf000087-resize_3/001650_2014-06-20_12-09-00_260595134347_rgbf000087-resize_3-target.png,1000,1.9505,4,6425,999,feet,jsons/v1_VE1000_randls_9_rotated.json,1176242,1626792,27,Man
31,871020,DepthScenes,duration_manipulation_targetAtFixation,jsons/v1_VE1000_randls_9_rotated.json,http://54.235.29.9/FacialAge/BNav_EC2/DepthDuration/v2_depth_duration_MTurk/v2_DepthDuration_HTML.html#89,89,1093,500,1366,768,9-3-2022,13-36-30,32,depth_duration_stimuli/000682_2014-06-08_23-14-58_260595134347_rgbf000041-resize_5/000682_2014-06-08_23-14-58_260595134347_rgbf000041-resize_5-target.png,1000,2.7239999999999998,6,4033,1000,feet,jsons/v1_VE1000_randls_9_rotated.json,1176242,1626792,27,Man
32,871020,DepthScenes,duration_manipulation_targetAtFixation,jsons/v1_VE1000_randls_9_rotated.json,http://54.235.29.9/FacialAge/BNav_EC2/DepthDuration/v2_depth_duration_MTurk/v2_DepthDuration_HTML.html#89,89,1093,500,1366,768,9-3-2022,13-36-30,33,depth_duration_stimuli/002678_2014-06-13_16-15-32_094959634447_rgbf000151-resize_6/002678_2014-06-13_16-15-32_094959634447_rgbf000151-resize_6-target.png,1000,2.1830000000000003,6,5924,999,feet,jsons/v1_VE1000_randls_9_rotated.json,1176242,1626792,27,Man
33,871020,DepthScenes,duration_manipulation_targetAtFixation,jsons/v1_VE1000_randls_9_rotated.json,http://54.235.29.9/FacialAge/BNav_EC2/DepthDuration/v2_depth_duration_MTurk/v2_DepthDuration_HTML.html#89,89,1093,500,1366,768,9-3-2022,13-36-30,34,depth_duration_stimuli/000368_2014-06-09_15-53-01_260595134347_rgbf000155-resize_2/000368_2014-06-09_15-53-01_260595134347_rgbf000155-resize_2-target.png,1000,2.4859999999999998,3,4143,1025,feet,jsons/v1_VE1000_randls_9_rotated.json,1176242,1626792,27,Man
34,871020,DepthScenes,duration_manipulation_targetAtFixation,jsons/v1_VE1000_randls_9_rotated.json,http://54.235.29.9/FacialAge/BNav_EC2/DepthDuration/v2_depth_duration_MTurk/v2_DepthDuration_HTML.html#89,89,1093,500,1366,768,9-3-2022,13-36-30,35,depth_duration_stimuli/000742_2014-06-08_18-48-09_260595134347_rgbf000164-resize_4/000742_2014-06-08_18-48-09_260595134347_rgbf000164-resize_4-target.png,1000,4.632,7,5415,1007,feet,jsons/v1_VE1000_randls_9_rotated.json,1176242,1626792,27,Man
35,871020,DepthScenes,duration_manipulation_targetAtFixation,jsons/v1_VE1000_randls_9_rotated.json,http://54.235.29.9/FacialAge/BNav_EC2/DepthDuration/v2_depth_duration_MTurk/v2_DepthDuration_HTML.html#89,89,1093,500,1366,768,9-3-2022,13-36-30,36,depth_duration_stimuli/001066_2014-06-08_22-03-20_260595134347_rgbf000066-resize_4/001066_2014-06-08_22-03-20_260595134347_rgbf000066-resize_4-target.png,1000,4.2330000000000005,9,4447,1012,feet,jsons/v1_VE1000_randls_9_rotated.json,1176242,1626792,27,Man
36,871020,DepthScenes,duration_manipulation_targetAtFixation,jsons/v1_VE1000_randls_9_rotated.json,http://54.235.29.9/FacialAge/BNav_EC2/DepthDuration/v2_depth_duration_MTurk/v2_DepthDuration_HTML.html#89,89,1093,500,1366,768,9-3-2022,13-36-30,37,depth_duration_stimuli/000734_2014-06-08_17-39-11_260595134347_rgbf000128-resize_2/000734_2014-06-08_17-39-11_260595134347_rgbf000128-resize_2-target.png,1000,4.098,6,5028,1003,feet,jsons/v1_VE1000_randls_9_rotated.json,1176242,1626792,27,Man
37,871020,DepthScenes,duration_manipulation_targetAtFixation,jsons/v1_VE1000_randls_9_rotated.json,http://54.235.29.9/FacialAge/BNav_EC2/DepthDuration/v2_depth_duration_MTurk/v2_DepthDuration_HTML.html#89,89,1093,500,1366,768,9-3-2022,13-36-30,38,depth_duration_stimuli/000739_2014-06-08_18-45-58_260595134347_rgbf000068-resize_1/000739_2014-06-08_18-45-58_260595134347_rgbf000068-resize_1-target.png,1000,3.534,6,4219,1000,feet,jsons/v1_VE1000_randls_9_rotated.json,1176242,1626792,27,Man
38,871020,DepthScenes,duration_manipulation_targetAtFixation,jsons/v1_VE1000_randls_9_rotated.json,http://54.235.29.9/FacialAge/BNav_EC2/DepthDuration/v2_depth_duration_MTurk/v2_DepthDuration_HTML.html#89,89,1093,500,1366,768,9-3-2022,13-36-30,39,depth_duration_stimuli/002444_2014-06-28_20-32-08_260595134347_rgbf000027-resize_0/002444_2014-06-28_20-32-08_260595134347_rgbf000027-resize_0-target.png,1000,4.388999999999999,6,4936,998,feet,jsons/v1_VE1000_randls_9_rotated.json,1176242,1626792,27,Man
39,871020,DepthScenes,duration_manipulation_targetAtFixation,jsons/v1_VE1000_randls_9_rotated.json,http://54.235.29.9/FacialAge/BNav_EC2/DepthDuration/v2_depth_duration_MTurk/v2_DepthDuration_HTML.html#89,89,1093,500,1366,768,9-3-2022,13-36-30,40,depth_duration_stimuli/000436_2014-06-09_22-25-11_260595134347_rgbf000137-resize_1/000436_2014-06-09_22-25-11_260595134347_rgbf000137-resize_1-target.png,1000,4.0705,8,4681,999,feet,jsons/v1_VE1000_randls_9_rotated.json,1176242,1626792,27,Man
40,871020,DepthScenes,duration_manipulation_targetAtFixation,jsons/v1_VE1000_randls_9_rotated.json,http://54.235.29.9/FacialAge/BNav_EC2/DepthDuration/v2_depth_duration_MTurk/v2_DepthDuration_HTML.html#89,89,1093,500,1366,768,9-3-2022,13-36-30,41,depth_duration_stimuli/002199_2014-06-28_18-33-56_260595134347_rgbf000074-resize_0/002199_2014-06-28_18-33-56_260595134347_rgbf000074-resize_0-target.png,1000,1.996,4,4727,996,feet,jsons/v1_VE1000_randls_9_rotated.json,1176242,1626792,27,Man
41,871020,DepthScenes,duration_manipulation_targetAtFixation,jsons/v1_VE1000_randls_9_rotated.json,http://54.235.29.9/FacialAge/BNav_EC2/DepthDuration/v2_depth_duration_MTurk/v2_DepthDuration_HTML.html#89,89,1093,500,1366,768,9-3-2022,13-36-30,42,depth_duration_stimuli/001056_2014-06-08_18-46-44_260595134347_rgbf000068-resize_0/001056_2014-06-08_18-46-44_260595134347_rgbf000068-resize_0-target.png,1000,2.6625,6,4587,999,feet,jsons/v1_VE1000_randls_9_rotated.json,1176242,1626792,27,Man
42,871020,DepthScenes,duration_manipulation_targetAtFixation,jsons/v1_VE1000_randls_9_rotated.json,http://54.235.29.9/FacialAge/BNav_EC2/DepthDuration/v2_depth_duration_MTurk/v2_DepthDuration_HTML.html#89,89,1093,500,1366,768,9-3-2022,13-36-30,43,depth_duration_stimuli/002875_2014-06-01_15-19-00_094959634447_rgbf000151-resize_1/002875_2014-06-01_15-19-00_094959634447_rgbf000151-resize_1-target.png,1000,1.9675,4,5551,1000,feet,jsons/v1_VE1000_randls_9_rotated.json,1176242,1626792,27,Man
43,871020,DepthScenes,duration_manipulation_targetAtFixation,jsons/v1_VE1000_randls_9_rotated.json,http://54.235.29.9/FacialAge/BNav_EC2/DepthDuration/v2_depth_duration_MTurk/v2_DepthDuration_HTML.html#89,89,1093,500,1366,768,9-3-2022,13-36-30,44,depth_duration_stimuli/001011_2014-06-08_23-18-54_260595134347_rgbf000044-resize_4/001011_2014-06-08_23-18-54_260595134347_rgbf000044-resize_4-target.png,1000,2.4730000000000003,7,4557,984,feet,jsons/v1_VE1000_randls_9_rotated.json,1176242,1626792,27,Man
44,871020,DepthScenes,duration_manipulation_targetAtFixation,jsons/v1_VE1000_randls_9_rotated.json,http://54.235.29.9/FacialAge/BNav_EC2/DepthDuration/v2_depth_duration_MTurk/v2_DepthDuration_HTML.html#89,89,1093,500,1366,768,9-3-2022,13-36-30,45,depth_duration_stimuli/000709_2014-06-08_13-51-55_260595134347_rgbf000068-resize_3/000709_2014-06-08_13-51-55_260595134347_rgbf000068-resize_3-target.png,1000,1.8030000000000002,4,5357,1000,feet,jsons/v1_VE1000_randls_9_rotated.json,1176242,1626792,27,Man
45,871020,DepthScenes,duration_manipulation_targetAtFixation,jsons/v1_VE1000_randls_9_rotated.json,http://54.235.29.9/FacialAge/BNav_EC2/DepthDuration/v2_depth_duration_MTurk/v2_DepthDuration_HTML.html#89,89,1093,500,1366,768,9-3-2022,13-36-30,46,depth_duration_stimuli/002057_2014-06-24_21-00-13_260595134347_rgbf000120-resize_1/002057_2014-06-24_21-00-13_260595134347_rgbf000120-resize_1-target.png,1000,2.967,8,7601,1000,feet,jsons/v1_VE1000_randls_9_rotated.json,1176242,1626792,27,Man
46,871020,DepthScenes,duration_manipulation_targetAtFixation,jsons/v1_VE1000_randls_9_rotated.json,http://54.235.29.9/FacialAge/BNav_EC2/DepthDuration/v2_depth_duration_MTurk/v2_DepthDuration_HTML.html#89,89,1093,500,1366,768,9-3-2022,13-36-30,47,depth_duration_stimuli/002425_2014-06-28_20-27-29_260595134347_rgbf000031-resize_8/002425_2014-06-28_20-27-29_260595134347_rgbf000031-resize_8-target.png,1000,3.8960000000000004,6,4384,1000,feet,jsons/v1_VE1000_randls_9_rotated.json,1176242,1626792,27,Man
47,871020,DepthScenes,duration_manipulation_targetAtFixation,jsons/v1_VE1000_randls_9_rotated.json,http://54.235.29.9/FacialAge/BNav_EC2/DepthDuration/v2_depth_duration_MTurk/v2_DepthDuration_HTML.html#89,89,1093,500,1366,768,9-3-2022,13-36-30,48,depth_duration_stimuli/000642_2014-06-08_16-59-25_260595134347_rgbf000098-resize_2/000642_2014-06-08_16-59-25_260595134347_rgbf000098-resize_2-target.png,1000,2.8815,5,4745,999,feet,jsons/v1_VE1000_randls_9_rotated.json,1176242,1626792,27,Man
48,871020,DepthScenes,duration_manipulation_targetAtFixation,jsons/v1_VE1000_randls_9_rotated.json,http://54.235.29.9/FacialAge/BNav_EC2/DepthDuration/v2_depth_duration_MTurk/v2_DepthDuration_HTML.html#89,89,1093,500,1366,768,9-3-2022,13-36-30,49,depth_duration_stimuli/001170_2014-06-17_15-43-44_260595134347_rgbf000096-resize_6/001170_2014-06-17_15-43-44_260595134347_rgbf000096-resize-original.jpg,1000,1.1909999999999998,0,4492,999,feet,jsons/v1_VE1000_randls_9_rotated.json,1176242,1626792,27,Man
49,871020,DepthScenes,duration_manipulation_targetAtFixation,jsons/v1_VE1000_randls_9_rotated.json,http://54.235.29.9/FacialAge/BNav_EC2/DepthDuration/v2_depth_duration_MTurk/v2_DepthDuration_HTML.html#89,89,1093,500,1366,768,9-3-2022,13-36-30,50,depth_duration_stimuli/001214_2014-06-17_16-13-55_260595134347_rgbf000111-resize_0/001214_2014-06-17_16-13-55_260595134347_rgbf000111-resize_0-target.png,1000,2.6505,4,4341,998,feet,jsons/v1_VE1000_randls_9_rotated.json,1176242,1626792,27,Man
50,871020,DepthScenes,duration_manipulation_targetAtFixation,jsons/v1_VE1000_randls_9_rotated.json,http://54.235.29.9/FacialAge/BNav_EC2/DepthDuration/v2_depth_duration_MTurk/v2_DepthDuration_HTML.html#89,89,1093,500,1366,768,9-3-2022,13-36-30,51,depth_duration_stimuli/000810_2014-06-08_17-20-01_260595134347_rgbf000105-resize_0/000810_2014-06-08_17-20-01_260595134347_rgbf000105-resize_0-target.png,1000,1.4865,4,4826,997,feet,jsons/v1_VE1000_randls_9_rotated.json,1176242,1626792,27,Man
51,871020,DepthScenes,duration_manipulation_targetAtFixation,jsons/v1_VE1000_randls_9_rotated.json,http://54.235.29.9/FacialAge/BNav_EC2/DepthDuration/v2_depth_duration_MTurk/v2_DepthDuration_HTML.html#89,89,1093,500,1366,768,9-3-2022,13-36-30,52,depth_duration_stimuli/002660_2014-06-13_15-44-18_094959634447_rgbf001878-resize_2/002660_2014-06-13_15-44-18_094959634447_rgbf001878-resize_2-target.png,1000,3.576,6,4403,985,feet,jsons/v1_VE1000_randls_9_rotated.json,1176242,1626792,27,Man
52,871020,DepthScenes,duration_manipulation_targetAtFixation,jsons/v1_VE1000_randls_9_rotated.json,http://54.235.29.9/FacialAge/BNav_EC2/DepthDuration/v2_depth_duration_MTurk/v2_DepthDuration_HTML.html#89,89,1093,500,1366,768,9-3-2022,13-36-30,53,depth_duration_stimuli/002153_2014-06-25_21-27-18_260595134347_rgbf000038-resize_5/002153_2014-06-25_21-27-18_260595134347_rgbf000038-resize_5-target.png,1000,2.505,5,3808,1000,feet,jsons/v1_VE1000_randls_9_rotated.json,1176242,1626792,27,Man
53,871020,DepthScenes,duration_manipulation_targetAtFixation,jsons/v1_VE1000_randls_9_rotated.json,http://54.235.29.9/FacialAge/BNav_EC2/DepthDuration/v2_depth_duration_MTurk/v2_DepthDuration_HTML.html#89,89,1093,500,1366,768,9-3-2022,13-36-30,54,depth_duration_stimuli/000691_2014-06-08_13-08-50_260595134347_rgbf000132-resize_3/000691_2014-06-08_13-08-50_260595134347_rgbf000132-resize_3-target.png,1000,4.1530000000000005,7,4777,1000,feet,jsons/v1_VE1000_randls_9_rotated.json,1176242,1626792,27,Man
54,871020,DepthScenes,duration_manipulation_targetAtFixation,jsons/v1_VE1000_randls_9_rotated.json,http://54.235.29.9/FacialAge/BNav_EC2/DepthDuration/v2_depth_duration_MTurk/v2_DepthDuration_HTML.html#89,89,1093,500,1366,768,9-3-2022,13-36-30,55,depth_duration_stimuli/002213_2014-06-28_18-37-58_260595134347_rgbf000055-resize_1/002213_2014-06-28_18-37-58_260595134347_rgbf000055-resize_1-target.png,1000,3.62,9,4173,991,feet,jsons/v1_VE1000_randls_9_rotated.json,1176242,1626792,27,Man
55,871020,DepthScenes,duration_manipulation_targetAtFixation,jsons/v1_VE1000_randls_9_rotated.json,http://54.235.29.9/FacialAge/BNav_EC2/DepthDuration/v2_depth_duration_MTurk/v2_DepthDuration_HTML.html#89,89,1093,500,1366,768,9-3-2022,13-36-30,56,depth_duration_stimuli/000457_2014-06-08_16-52-43_260595134347_rgbf000199-resize_1/000457_2014-06-08_16-52-43_260595134347_rgbf000199-resize_1-target.png,1000,3.6489999999999996,6,4631,1045,feet,jsons/v1_VE1000_randls_9_rotated.json,1176242,1626792,27,Man
56,871020,DepthScenes,duration_manipulation_targetAtFixation,jsons/v1_VE1000_randls_9_rotated.json,http://54.235.29.9/FacialAge/BNav_EC2/DepthDuration/v2_depth_duration_MTurk/v2_DepthDuration_HTML.html#89,89,1093,500,1366,768,9-3-2022,13-36-30,57,depth_duration_stimuli/000929_2014-06-09_16-33-19_260595134347_rgbf000139-resize_0/000929_2014-06-09_16-33-19_260595134347_rgbf000139-resize_0-target.png,1000,2.8680000000000003,6,4422,1000,feet,jsons/v1_VE1000_randls_9_rotated.json,1176242,1626792,27,Man
57,871020,DepthScenes,duration_manipulation_targetAtFixation,jsons/v1_VE1000_randls_9_rotated.json,http://54.235.29.9/FacialAge/BNav_EC2/DepthDuration/v2_depth_duration_MTurk/v2_DepthDuration_HTML.html#89,89,1093,500,1366,768,9-3-2022,13-36-30,58,depth_duration_stimuli/000103_2014-05-14_22-01-17_260595134347_rgbf000152-resize_5/000103_2014-05-14_22-01-17_260595134347_rgbf000152-resize_5-target.png,1000,1.993,6,4053,998,feet,jsons/v1_VE1000_randls_9_rotated.json,1176242,1626792,27,Man
58,871020,DepthScenes,duration_manipulation_targetAtFixation,jsons/v1_VE1000_randls_9_rotated.json,http://54.235.29.9/FacialAge/BNav_EC2/DepthDuration/v2_depth_duration_MTurk/v2_DepthDuration_HTML.html#89,89,1093,500,1366,768,9-3-2022,13-36-30,59,depth_duration_stimuli/001555_2014-06-20_17-12-10_260595134347_rgbf000065-resize_4/001555_2014-06-20_17-12-10_260595134347_rgbf000065-resize_4-target.png,1000,1.633,4,4574,976,feet,jsons/v1_VE1000_randls_9_rotated.json,1176242,1626792,27,Man
59,871020,DepthScenes,duration_manipulation_targetAtFixation,jsons/v1_VE1000_randls_9_rotated.json,http://54.235.29.9/FacialAge/BNav_EC2/DepthDuration/v2_depth_duration_MTurk/v2_DepthDuration_HTML.html#89,89,1093,500,1366,768,9-3-2022,13-36-30,60,depth_duration_stimuli/001052_2014-06-08_18-24-54_260595134347_rgbf000130-resize_1/001052_2014-06-08_18-24-54_260595134347_rgbf000130-resize_1-target.png,1000,4.1045,6,5073,996,feet,jsons/v1_VE1000_randls_9_rotated.json,1176242,1626792,27,Man
60,871020,DepthScenes,duration_manipulation_targetAtFixation,jsons/v1_VE1000_randls_9_rotated.json,http://54.235.29.9/FacialAge/BNav_EC2/DepthDuration/v2_depth_duration_MTurk/v2_DepthDuration_HTML.html#89,89,1093,500,1366,768,9-3-2022,13-36-30,61,depth_duration_stimuli/002988_2014-06-15_12-24-20_094959634447_rgbf000150-resize_1/002988_2014-06-15_12-24-20_094959634447_rgbf000150-resize_1-target.png,1000,4.7669999999999995,7,4413,1004,feet,jsons/v1_VE1000_randls_9_rotated.json,1176242,1626792,27,Man
61,871020,DepthScenes,duration_manipulation_targetAtFixation,jsons/v1_VE1000_randls_9_rotated.json,http://54.235.29.9/FacialAge/BNav_EC2/DepthDuration/v2_depth_duration_MTurk/v2_DepthDuration_HTML.html#89,89,1093,500,1366,768,9-3-2022,13-36-30,62,depth_duration_stimuli/003338_2014-05-20_11-01-23_094959634447_rgbf000051-resize_6/003338_2014-05-20_11-01-23_094959634447_rgbf000051-resize_6-target.png,1000,1.693,3,4456,986,feet,jsons/v1_VE1000_randls_9_rotated.json,1176242,1626792,27,Man
62,871020,DepthScenes,duration_manipulation_targetAtFixation,jsons/v1_VE1000_randls_9_rotated.json,http://54.235.29.9/FacialAge/BNav_EC2/DepthDuration/v2_depth_duration_MTurk/v2_DepthDuration_HTML.html#89,89,1093,500,1366,768,9-3-2022,13-36-30,63,depth_duration_stimuli/002509_2014-06-24_13-19-22_094959634447_rgbf000077-resize_0/002509_2014-06-24_13-19-22_094959634447_rgbf000077-resize_0-target.png,1000,1.3065,3,4462,1010,feet,jsons/v1_VE1000_randls_9_rotated.json,1176242,1626792,27,Man
63,871020,DepthScenes,duration_manipulation_targetAtFixation,jsons/v1_VE1000_randls_9_rotated.json,http://54.235.29.9/FacialAge/BNav_EC2/DepthDuration/v2_depth_duration_MTurk/v2_DepthDuration_HTML.html#89,89,1093,500,1366,768,9-3-2022,13-36-30,64,depth_duration_stimuli/002323_2014-06-28_20-01-54_260595134347_rgbf000051-resize_4/002323_2014-06-28_20-01-54_260595134347_rgbf000051-resize_4-target.png,1000,3.7310000000000003,6,4746,999,feet,jsons/v1_VE1000_randls_9_rotated.json,1176242,1626792,27,Man
64,871020,DepthScenes,duration_manipulation_targetAtFixation,jsons/v1_VE1000_randls_9_rotated.json,http://54.235.29.9/FacialAge/BNav_EC2/DepthDuration/v2_depth_duration_MTurk/v2_DepthDuration_HTML.html#89,89,1093,500,1366,768,9-3-2022,13-36-30,65,depth_duration_stimuli/000917_2014-06-09_22-45-29_260595134347_rgbf000149-resize_3/000917_2014-06-09_22-45-29_260595134347_rgbf000149-resize_3-target.png,1000,4.1865,8,4904,1000,feet,jsons/v1_VE1000_randls_9_rotated.json,1176242,1626792,27,Man
65,871020,DepthScenes,duration_manipulation_targetAtFixation,jsons/v1_VE1000_randls_9_rotated.json,http://54.235.29.9/FacialAge/BNav_EC2/DepthDuration/v2_depth_duration_MTurk/v2_DepthDuration_HTML.html#89,89,1093,500,1366,768,9-3-2022,13-36-30,66,depth_duration_stimuli/001540_2014-06-20_17-01-05_260595134347_rgbf000086-resize_2/001540_2014-06-20_17-01-05_260595134347_rgbf000086-resize-original.jpg,1000,1.459,0,3969,999,feet,jsons/v1_VE1000_randls_9_rotated.json,1176242,1626792,27,Man
66,871020,DepthScenes,duration_manipulation_targetAtFixation,jsons/v1_VE1000_randls_9_rotated.json,http://54.235.29.9/FacialAge/BNav_EC2/DepthDuration/v2_depth_duration_MTurk/v2_DepthDuration_HTML.html#89,89,1093,500,1366,768,9-3-2022,13-36-30,67,depth_duration_stimuli/001828_2014-06-26_21-40-03_260595134347_rgbf000024-resize_0/001828_2014-06-26_21-40-03_260595134347_rgbf000024-resize_0-target.png,1000,4.8260000000000005,3,5584,1010,feet,jsons/v1_VE1000_randls_9_rotated.json,1176242,1626792,27,Man
67,871020,DepthScenes,duration_manipulation_targetAtFixation,jsons/v1_VE1000_randls_9_rotated.json,http://54.235.29.9/FacialAge/BNav_EC2/DepthDuration/v2_depth_duration_MTurk/v2_DepthDuration_HTML.html#89,89,1093,500,1366,768,9-3-2022,13-36-30,68,depth_duration_stimuli/000009_2014-05-26_14-32-05_260595134347_rgbf000034-resize_3/000009_2014-05-26_14-32-05_260595134347_rgbf000034-resize_3-target.png,1000,3.8715,9,4463,995,feet,jsons/v1_VE1000_randls_9_rotated.json,1176242,1626792,27,Man
68,871020,DepthScenes,duration_manipulation_targetAtFixation,jsons/v1_VE1000_randls_9_rotated.json,http://54.235.29.9/FacialAge/BNav_EC2/DepthDuration/v2_depth_duration_MTurk/v2_DepthDuration_HTML.html#89,89,1093,500,1366,768,9-3-2022,13-36-30,69,depth_duration_stimuli/003010_2014-06-15_12-54-35_094959634447_rgbf000112-resize_0/003010_2014-06-15_12-54-35_094959634447_rgbf000112-resize_0-target.png,1000,3.1185,8,4471,998,feet,jsons/v1_VE1000_randls_9_rotated.json,1176242,1626792,27,Man
69,871020,DepthScenes,duration_manipulation_targetAtFixation,jsons/v1_VE1000_randls_9_rotated.json,http://54.235.29.9/FacialAge/BNav_EC2/DepthDuration/v2_depth_duration_MTurk/v2_DepthDuration_HTML.html#89,89,1093,500,1366,768,9-3-2022,13-36-30,70,depth_duration_stimuli/001810_2014-06-26_20-51-35_260595134347_rgbf000040-resize_3/001810_2014-06-26_20-51-35_260595134347_rgbf000040-resize_3-target.png,1000,2.2525,4,4259,1003,feet,jsons/v1_VE1000_randls_9_rotated.json,1176242,1626792,27,Man
70,871020,DepthScenes,duration_manipulation_targetAtFixation,jsons/v1_VE1000_randls_9_rotated.json,http://54.235.29.9/FacialAge/BNav_EC2/DepthDuration/v2_depth_duration_MTurk/v2_DepthDuration_HTML.html#89,89,1093,500,1366,768,9-3-2022,13-36-30,71,depth_duration_stimuli/001617_2014-06-20_11-35-32_260595134347_rgbf000066-resize_1/001617_2014-06-20_11-35-32_260595134347_rgbf000066-resize_1-target.png,1000,3.7910000000000004,5,5426,1014,feet,jsons/v1_VE1000_randls_9_rotated.json,1176242,1626792,27,Man
71,871020,DepthScenes,duration_manipulation_targetAtFixation,jsons/v1_VE1000_randls_9_rotated.json,http://54.235.29.9/FacialAge/BNav_EC2/DepthDuration/v2_depth_duration_MTurk/v2_DepthDuration_HTML.html#89,89,1093,500,1366,768,9-3-2022,13-36-30,72,depth_duration_stimuli/001806_2014-06-26_20-50-20_260595134347_rgbf000091-resize_1/001806_2014-06-26_20-50-20_260595134347_rgbf000091-resize_1-target.png,1000,2.7305,4,4605,1003,feet,jsons/v1_VE1000_randls_9_rotated.json,1176242,1626792,27,Man
72,871020,DepthScenes,duration_manipulation_targetAtFixation,jsons/v1_VE1000_randls_9_rotated.json,http://54.235.29.9/FacialAge/BNav_EC2/DepthDuration/v2_depth_duration_MTurk/v2_DepthDuration_HTML.html#89,89,1093,500,1366,768,9-3-2022,13-36-30,73,depth_duration_stimuli/000137_2014-05-20_17-04-49_260595134347_rgbf000120-resize_1/000137_2014-05-20_17-04-49_260595134347_rgbf000120-resize_1-target.png,1000,3.786,6,4759,987,feet,jsons/v1_VE1000_randls_9_rotated.json,1176242,1626792,27,Man
73,871020,DepthScenes,duration_manipulation_targetAtFixation,jsons/v1_VE1000_randls_9_rotated.json,http://54.235.29.9/FacialAge/BNav_EC2/DepthDuration/v2_depth_duration_MTurk/v2_DepthDuration_HTML.html#89,89,1093,500,1366,768,9-3-2022,13-36-30,74,depth_duration_stimuli/000736_2014-06-08_18-24-15_260595134347_rgbf000206-resize_3/000736_2014-06-08_18-24-15_260595134347_rgbf000206-resize_3-target.png,1000,3.515,5,8752,1000,feet,jsons/v1_VE1000_randls_9_rotated.json,1176242,1626792,27,Man
74,871020,DepthScenes,duration_manipulation_targetAtFixation,jsons/v1_VE1000_randls_9_rotated.json,http://54.235.29.9/FacialAge/BNav_EC2/DepthDuration/v2_depth_duration_MTurk/v2_DepthDuration_HTML.html#89,89,1093,500,1366,768,9-3-2022,13-36-30,75,depth_duration_stimuli/002467_2014-06-28_20-38-07_260595134347_rgbf000026-resize_2/002467_2014-06-28_20-38-07_260595134347_rgbf000026-resize_2-target.png,1000,4.742,3,8835,1013,feet,jsons/v1_VE1000_randls_9_rotated.json,1176242,1626792,27,Man
75,871020,DepthScenes,duration_manipulation_targetAtFixation,jsons/v1_VE1000_randls_9_rotated.json,http://54.235.29.9/FacialAge/BNav_EC2/DepthDuration/v2_depth_duration_MTurk/v2_DepthDuration_HTML.html#89,89,1093,500,1366,768,9-3-2022,13-36-30,76,depth_duration_stimuli/002570_2014-06-24_13-59-54_094959634447_rgbf000059-resize_0/002570_2014-06-24_13-59-54_094959634447_rgbf000059-resize_0-target.png,1000,4.037,4,13372,999,feet,jsons/v1_VE1000_randls_9_rotated.json,1176242,1626792,27,Man
76,871020,DepthScenes,duration_manipulation_targetAtFixation,jsons/v1_VE1000_randls_9_rotated.json,http://54.235.29.9/FacialAge/BNav_EC2/DepthDuration/v2_depth_duration_MTurk/v2_DepthDuration_HTML.html#89,89,1093,500,1366,768,9-3-2022,13-36-30,77,depth_duration_stimuli/003048_2014-06-15_13-49-43_094959634447_rgbf000150-resize_1/003048_2014-06-15_13-49-43_094959634447_rgbf000150-resize_1-target.png,1000,4.0035,4,9953,1014,feet,jsons/v1_VE1000_randls_9_rotated.json,1176242,1626792,27,Man
77,871020,DepthScenes,duration_manipulation_targetAtFixation,jsons/v1_VE1000_randls_9_rotated.json,http://54.235.29.9/FacialAge/BNav_EC2/DepthDuration/v2_depth_duration_MTurk/v2_DepthDuration_HTML.html#89,89,1093,500,1366,768,9-3-2022,13-36-30,78,depth_duration_stimuli/002043_2014-06-24_20-29-38_260595134347_rgbf000039-resize_4/002043_2014-06-24_20-29-38_260595134347_rgbf000039-resize_4-target.png,1000,2.8435,5,4897,1000,feet,jsons/v1_VE1000_randls_9_rotated.json,1176242,1626792,27,Man
78,871020,DepthScenes,duration_manipulation_targetAtFixation,jsons/v1_VE1000_randls_9_rotated.json,http://54.235.29.9/FacialAge/BNav_EC2/DepthDuration/v2_depth_duration_MTurk/v2_DepthDuration_HTML.html#89,89,1093,500,1366,768,9-3-2022,13-36-30,79,depth_duration_stimuli/002340_2014-06-28_20-05-46_260595134347_rgbf000113-resize_0/002340_2014-06-28_20-05-46_260595134347_rgbf000113-resize_0-target.png,1000,2.4735,6,5753,996,feet,jsons/v1_VE1000_randls_9_rotated.json,1176242,1626792,27,Man
79,871020,DepthScenes,duration_manipulation_targetAtFixation,jsons/v1_VE1000_randls_9_rotated.json,http://54.235.29.9/FacialAge/BNav_EC2/DepthDuration/v2_depth_duration_MTurk/v2_DepthDuration_HTML.html#89,89,1093,500,1366,768,9-3-2022,13-36-30,80,depth_duration_stimuli/001016_2014-06-09_16-16-10_260595134347_rgbf000112-resize_5/001016_2014-06-09_16-16-10_260595134347_rgbf000112-resize_5-target.png,1000,1.6565,4,4884,1001,feet,jsons/v1_VE1000_randls_9_rotated.json,1176242,1626792,27,Man
80,871020,DepthScenes,duration_manipulation_targetAtFixation,jsons/v1_VE1000_randls_9_rotated.json,http://54.235.29.9/FacialAge/BNav_EC2/DepthDuration/v2_depth_duration_MTurk/v2_DepthDuration_HTML.html#89,89,1093,500,1366,768,9-3-2022,13-36-30,81,depth_duration_stimuli/001100_2014-06-15_17-46-26_260595134347_rgbf000225-resize_2/001100_2014-06-15_17-46-26_260595134347_rgbf000225-resize_2-target.png,1000,2.24,4,3899,1000,feet,jsons/v1_VE1000_randls_9_rotated.json,1176242,1626792,27,Man
81,871020,DepthScenes,duration_manipulation_targetAtFixation,jsons/v1_VE1000_randls_9_rotated.json,http://54.235.29.9/FacialAge/BNav_EC2/DepthDuration/v2_depth_duration_MTurk/v2_DepthDuration_HTML.html#89,89,1093,500,1366,768,9-3-2022,13-36-30,82,depth_duration_stimuli/002784_2014-06-22_19-26-30_094959634447_rgbf000083-resize_3/002784_2014-06-22_19-26-30_094959634447_rgbf000083-resize_3-target.png,1000,1.8046666666667,3,3956,1000,feet,jsons/v1_VE1000_randls_9_rotated.json,1176242,1626792,27,Man
82,871020,DepthScenes,duration_manipulation_targetAtFixation,jsons/v1_VE1000_randls_9_rotated.json,http://54.235.29.9/FacialAge/BNav_EC2/DepthDuration/v2_depth_duration_MTurk/v2_DepthDuration_HTML.html#89,89,1093,500,1366,768,9-3-2022,13-36-30,83,depth_duration_stimuli/000549_2014-06-08_22-10-24_260595134347_rgbf000247-resize_3/000549_2014-06-08_22-10-24_260595134347_rgbf000247-resize_3-target.png,1000,1.841,3,4444,999,feet,jsons/v1_VE1000_randls_9_rotated.json,1176242,1626792,27,Man
83,871020,DepthScenes,duration_manipulation_targetAtFixation,jsons/v1_VE1000_randls_9_rotated.json,http://54.235.29.9/FacialAge/BNav_EC2/DepthDuration/v2_depth_duration_MTurk/v2_DepthDuration_HTML.html#89,89,1093,500,1366,768,9-3-2022,13-36-30,84,depth_duration_stimuli/001055_2014-06-08_18-45-35_260595134347_rgbf000111-resize_4/001055_2014-06-08_18-45-35_260595134347_rgbf000111-resize_4-target.png,1000,2.4290000000000003,5,4729,998,feet,jsons/v1_VE1000_randls_9_rotated.json,1176242,1626792,27,Man
84,871020,DepthScenes,duration_manipulation_targetAtFixation,jsons/v1_VE1000_randls_9_rotated.json,http://54.235.29.9/FacialAge/BNav_EC2/DepthDuration/v2_depth_duration_MTurk/v2_DepthDuration_HTML.html#89,89,1093,500,1366,768,9-3-2022,13-36-30,85,depth_duration_stimuli/001571_2014-06-20_17-21-32_260595134347_rgbf000089-resize_1/001571_2014-06-20_17-21-32_260595134347_rgbf000089-resize_1-target.png,1000,1.86,3,17895,998,feet,jsons/v1_VE1000_randls_9_rotated.json,1176242,1626792,27,Man
85,871020,DepthScenes,duration_manipulation_targetAtFixation,jsons/v1_VE1000_randls_9_rotated.json,http://54.235.29.9/FacialAge/BNav_EC2/DepthDuration/v2_depth_duration_MTurk/v2_DepthDuration_HTML.html#89,89,1093,500,1366,768,9-3-2022,13-36-30,86,depth_duration_stimuli/002272_2014-06-28_18-53-56_260595134347_rgbf000067-resize_2/002272_2014-06-28_18-53-56_260595134347_rgbf000067-resize_2-target.png,1000,1.138,3,5932,1009,feet,jsons/v1_VE1000_randls_9_rotated.json,1176242,1626792,27,Man
86,871020,DepthScenes,duration_manipulation_targetAtFixation,jsons/v1_VE1000_randls_9_rotated.json,http://54.235.29.9/FacialAge/BNav_EC2/DepthDuration/v2_depth_duration_MTurk/v2_DepthDuration_HTML.html#89,89,1093,500,1366,768,9-3-2022,13-36-30,87,depth_duration_stimuli/000749_2014-06-08_21-55-06_260595134347_rgbf000070-resize_2/000749_2014-06-08_21-55-06_260595134347_rgbf000070-resize_2-target.png,1000,2.331,3,5535,998,feet,jsons/v1_VE1000_randls_9_rotated.json,1176242,1626792,27,Man
87,871020,DepthScenes,duration_manipulation_targetAtFixation,jsons/v1_VE1000_randls_9_rotated.json,http://54.235.29.9/FacialAge/BNav_EC2/DepthDuration/v2_depth_duration_MTurk/v2_DepthDuration_HTML.html#89,89,1093,500,1366,768,9-3-2022,13-36-30,88,depth_duration_stimuli/002788_2014-06-22_19-36-03_094959634447_rgbf000088-resize_2/002788_2014-06-22_19-36-03_094959634447_rgbf000088-resize_2-target.png,1000,1.6465,3,4633,988,feet,jsons/v1_VE1000_randls_9_rotated.json,1176242,1626792,27,Man
88,871020,DepthScenes,duration_manipulation_targetAtFixation,jsons/v1_VE1000_randls_9_rotated.json,http://54.235.29.9/FacialAge/BNav_EC2/DepthDuration/v2_depth_duration_MTurk/v2_DepthDuration_HTML.html#89,89,1093,500,1366,768,9-3-2022,13-36-30,89,depth_duration_stimuli/000677_2014-06-08_23-10-32_260595134347_rgbf000158-resize_6/000677_2014-06-08_23-10-32_260595134347_rgbf000158-resize_6-target.png,1000,3.556,3,4801,1000,feet,jsons/v1_VE1000_randls_9_rotated.json,1176242,1626792,27,Man
89,871020,DepthScenes,duration_manipulation_targetAtFixation,jsons/v1_VE1000_randls_9_rotated.json,http://54.235.29.9/FacialAge/BNav_EC2/DepthDuration/v2_depth_duration_MTurk/v2_DepthDuration_HTML.html#89,89,1093,500,1366,768,9-3-2022,13-36-30,90,depth_duration_stimuli/001029_2014-06-08_13-17-57_260595134347_rgbf000065-resize_1/001029_2014-06-08_13-17-57_260595134347_rgbf000065-resize_1-target.png,1000,3.0835,3,5493,998,feet,jsons/v1_VE1000_randls_9_rotated.json,1176242,1626792,27,Man
90,871020,DepthScenes,duration_manipulation_targetAtFixation,jsons/v1_VE1000_randls_9_rotated.json,http://54.235.29.9/FacialAge/BNav_EC2/DepthDuration/v2_depth_duration_MTurk/v2_DepthDuration_HTML.html#89,89,1093,500,1366,768,9-3-2022,13-36-30,91,depth_duration_stimuli/002568_2014-06-24_13-59-21_094959634447_rgbf000062-resize_4/002568_2014-06-24_13-59-21_094959634447_rgbf000062-resize_4-target.png,1000,3.015,4,5152,999,feet,jsons/v1_VE1000_randls_9_rotated.json,1176242,1626792,27,Man
91,871020,DepthScenes,duration_manipulation_targetAtFixation,jsons/v1_VE1000_randls_9_rotated.json,http://54.235.29.9/FacialAge/BNav_EC2/DepthDuration/v2_depth_duration_MTurk/v2_DepthDuration_HTML.html#89,89,1093,500,1366,768,9-3-2022,13-36-30,92,depth_duration_stimuli/003492_2014-05-21_15-50-55_094959634447_rgbf000828-resize_1/003492_2014-05-21_15-50-55_094959634447_rgbf000828-resize_1-target.png,1000,4.06875,8,4567,996,feet,jsons/v1_VE1000_randls_9_rotated.json,1176242,1626792,27,Man
92,871020,DepthScenes,duration_manipulation_targetAtFixation,jsons/v1_VE1000_randls_9_rotated.json,http://54.235.29.9/FacialAge/BNav_EC2/DepthDuration/v2_depth_duration_MTurk/v2_DepthDuration_HTML.html#89,89,1093,500,1366,768,9-3-2022,13-36-30,93,depth_duration_stimuli/002949_2014-06-26_15-57-42_094959634447_rgbf000079-resize_1/002949_2014-06-26_15-57-42_094959634447_rgbf000079-resize_1-target.png,1000,1.8915,6,43974,999,feet,jsons/v1_VE1000_randls_9_rotated.json,1176242,1626792,27,Man
93,871020,DepthScenes,duration_manipulation_targetAtFixation,jsons/v1_VE1000_randls_9_rotated.json,http://54.235.29.9/FacialAge/BNav_EC2/DepthDuration/v2_depth_duration_MTurk/v2_DepthDuration_HTML.html#89,89,1093,500,1366,768,9-3-2022,13-36-30,94,depth_duration_stimuli/000522_2014-06-08_13-35-06_260595134347_rgbf000244-resize_1/000522_2014-06-08_13-35-06_260595134347_rgbf000244-resize_1-target.png,1000,2.3715,3,4165,1023,feet,jsons/v1_VE1000_randls_9_rotated.json,1176242,1626792,27,Man
94,871020,DepthScenes,duration_manipulation_targetAtFixation,jsons/v1_VE1000_randls_9_rotated.json,http://54.235.29.9/FacialAge/BNav_EC2/DepthDuration/v2_depth_duration_MTurk/v2_DepthDuration_HTML.html#89,89,1093,500,1366,768,9-3-2022,13-36-30,95,depth_duration_stimuli/003083_2014-06-15_15-21-03_094959634447_rgbf000063-resize_1/003083_2014-06-15_15-21-03_094959634447_rgbf000063-resize_1-target.png,1000,4.1405,9,4739,998,feet,jsons/v1_VE1000_randls_9_rotated.json,1176242,1626792,27,Man
95,871020,DepthScenes,duration_manipulation_targetAtFixation,jsons/v1_VE1000_randls_9_rotated.json,http://54.235.29.9/FacialAge/BNav_EC2/DepthDuration/v2_depth_duration_MTurk/v2_DepthDuration_HTML.html#89,89,1093,500,1366,768,9-3-2022,13-36-30,96,depth_duration_stimuli/000486_2014-06-09_20-47-20_260595134347_rgbf000143-resize_2/000486_2014-06-09_20-47-20_260595134347_rgbf000143-resize_2-target.png,1000,4.8325,7,4346,974,feet,jsons/v1_VE1000_randls_9_rotated.json,1176242,1626792,27,Man
96,871020,DepthScenes,duration_manipulation_targetAtFixation,jsons/v1_VE1000_randls_9_rotated.json,http://54.235.29.9/FacialAge/BNav_EC2/DepthDuration/v2_depth_duration_MTurk/v2_DepthDuration_HTML.html#89,89,1093,500,1366,768,9-3-2022,13-36-30,97,depth_duration_stimuli/001094_2014-06-15_17-36-00_260595134347_rgbf000205-resize_0/001094_2014-06-15_17-36-00_260595134347_rgbf000205-resize_0-target.png,1000,4.2175,6,4206,1001,feet,jsons/v1_VE1000_randls_9_rotated.json,1176242,1626792,27,Man
97,871020,DepthScenes,duration_manipulation_targetAtFixation,jsons/v1_VE1000_randls_9_rotated.json,http://54.235.29.9/FacialAge/BNav_EC2/DepthDuration/v2_depth_duration_MTurk/v2_DepthDuration_HTML.html#89,89,1093,500,1366,768,9-3-2022,13-36-30,98,depth_duration_stimuli/000692_2014-06-08_13-09-42_260595134347_rgbf000199-resize_2/000692_2014-06-08_13-09-42_260595134347_rgbf000199-resize_2-target.png,1000,3.661,9,3536,1008,feet,jsons/v1_VE1000_randls_9_rotated.json,1176242,1626792,27,Man
98,871020,DepthScenes,duration_manipulation_targetAtFixation,jsons/v1_VE1000_randls_9_rotated.json,http://54.235.29.9/FacialAge/BNav_EC2/DepthDuration/v2_depth_duration_MTurk/v2_DepthDuration_HTML.html#89,89,1093,500,1366,768,9-3-2022,13-36-30,99,depth_duration_stimuli/001222_2014-06-17_16-24-06_260595134347_rgbf000073-resize_0/001222_2014-06-17_16-24-06_260595134347_rgbf000073-resize-original.jpg,1000,1.4385,0,5840,1000,feet,jsons/v1_VE1000_randls_9_rotated.json,1176242,1626792,27,Man
99,871020,DepthScenes,duration_manipulation_targetAtFixation,jsons/v1_VE1000_randls_9_rotated.json,http://54.235.29.9/FacialAge/BNav_EC2/DepthDuration/v2_depth_duration_MTurk/v2_DepthDuration_HTML.html#89,89,1093,500,1366,768,9-3-2022,13-36-30,100,depth_duration_stimuli/002657_2014-06-13_15-29-54_094959634447_rgbf000150-resize_1/002657_2014-06-13_15-29-54_094959634447_rgbf000150-resize_1-target.png,1000,4.919,6,5091,996,feet,jsons/v1_VE1000_randls_9_rotated.json,1176242,1626792,27,Man
100,871020,DepthScenes,duration_manipulation_targetAtFixation,jsons/v1_VE1000_randls_9_rotated.json,http://54.235.29.9/FacialAge/BNav_EC2/DepthDuration/v2_depth_duration_MTurk/v2_DepthDuration_HTML.html#89,89,1093,500,1366,768,9-3-2022,13-36-30,101,depth_duration_stimuli/002375_2014-06-28_20-13-44_260595134347_rgbf000032-resize_1/002375_2014-06-28_20-13-44_260595134347_rgbf000032-resize_1-target.png,1000,4.0175,3,5440,999,feet,jsons/v1_VE1000_randls_9_rotated.json,1176242,1626792,27,Man
101,871020,DepthScenes,duration_manipulation_targetAtFixation,jsons/v1_VE1000_randls_9_rotated.json,http://54.235.29.9/FacialAge/BNav_EC2/DepthDuration/v2_depth_duration_MTurk/v2_DepthDuration_HTML.html#89,89,1093,500,1366,768,9-3-2022,13-36-30,102,depth_duration_stimuli/001136_2014-06-17_15-19-41_260595134347_rgbf000076-resize_3/001136_2014-06-17_15-19-41_260595134347_rgbf000076-resize_3-target.png,1000,1.8655,5,229615,1001,feet,jsons/v1_VE1000_randls_9_rotated.json,1176242,1626792,27,Man
102,871020,DepthScenes,duration_manipulation_targetAtFixation,jsons/v1_VE1000_randls_9_rotated.json,http://54.235.29.9/FacialAge/BNav_EC2/DepthDuration/v2_depth_duration_MTurk/v2_DepthDuration_HTML.html#89,89,1093,500,1366,768,9-3-2022,13-36-30,103,depth_duration_stimuli/001164_2014-06-17_15-35-46_260595134347_rgbf000085-resize_3/001164_2014-06-17_15-35-46_260595134347_rgbf000085-resize_3-target.png,1000,2.354,5,5265,1000,feet,jsons/v1_VE1000_randls_9_rotated.json,1176242,1626792,27,Man
103,871020,DepthScenes,duration_manipulation_targetAtFixation,jsons/v1_VE1000_randls_9_rotated.json,http://54.235.29.9/FacialAge/BNav_EC2/DepthDuration/v2_depth_duration_MTurk/v2_DepthDuration_HTML.html#89,89,1093,500,1366,768,9-3-2022,13-36-30,104,depth_duration_stimuli/000780_2014-06-08_22-28-29_260595134347_rgbf000126-resize_1/000780_2014-06-08_22-28-29_260595134347_rgbf000126-resize_1-target.png,1000,3.3825,6,4488,990,feet,jsons/v1_VE1000_randls_9_rotated.json,1176242,1626792,27,Man
104,871020,DepthScenes,duration_manipulation_targetAtFixation,jsons/v1_VE1000_randls_9_rotated.json,http://54.235.29.9/FacialAge/BNav_EC2/DepthDuration/v2_depth_duration_MTurk/v2_DepthDuration_HTML.html#89,89,1093,500,1366,768,9-3-2022,13-36-30,105,depth_duration_stimuli/002445_2014-06-28_20-32-16_260595134347_rgbf000029-resize_4/002445_2014-06-28_20-32-16_260595134347_rgbf000029-resize_4-target.png,1000,2.5315,6,5002,1002,feet,jsons/v1_VE1000_randls_9_rotated.json,1176242,1626792,27,Man
105,871020,DepthScenes,duration_manipulation_targetAtFixation,jsons/v1_VE1000_randls_9_rotated.json,http://54.235.29.9/FacialAge/BNav_EC2/DepthDuration/v2_depth_duration_MTurk/v2_DepthDuration_HTML.html#89,89,1093,500,1366,768,9-3-2022,13-36-30,106,depth_duration_stimuli/000665_2014-06-09_20-42-35_260595134347_rgbf000110-resize_1/000665_2014-06-09_20-42-35_260595134347_rgbf000110-resize_1-target.png,1000,3.057,6,6652,999,feet,jsons/v1_VE1000_randls_9_rotated.json,1176242,1626792,27,Man
106,871020,DepthScenes,duration_manipulation_targetAtFixation,jsons/v1_VE1000_randls_9_rotated.json,http://54.235.29.9/FacialAge/BNav_EC2/DepthDuration/v2_depth_duration_MTurk/v2_DepthDuration_HTML.html#89,89,1093,500,1366,768,9-3-2022,13-36-30,107,depth_duration_stimuli/001150_2014-06-17_15-27-34_260595134347_rgbf000108-resize_2/001150_2014-06-17_15-27-34_260595134347_rgbf000108-resize_2-target.png,1000,4.0325,8,5750,998,feet,jsons/v1_VE1000_randls_9_rotated.json,1176242,1626792,27,Man
107,871020,DepthScenes,duration_manipulation_targetAtFixation,jsons/v1_VE1000_randls_9_rotated.json,http://54.235.29.9/FacialAge/BNav_EC2/DepthDuration/v2_depth_duration_MTurk/v2_DepthDuration_HTML.html#89,89,1093,500,1366,768,9-3-2022,13-36-30,108,depth_duration_stimuli/003228_2014-05-14_13-42-35_094959634447_rgbf000101-resize_1/003228_2014-05-14_13-42-35_094959634447_rgbf000101-resize_1-target.png,1000,1.9680000000000002,4,4227,996,feet,jsons/v1_VE1000_randls_9_rotated.json,1176242,1626792,27,Man
108,871020,DepthScenes,duration_manipulation_targetAtFixation,jsons/v1_VE1000_randls_9_rotated.json,http://54.235.29.9/FacialAge/BNav_EC2/DepthDuration/v2_depth_duration_MTurk/v2_DepthDuration_HTML.html#89,89,1093,500,1366,768,9-3-2022,13-36-30,109,depth_duration_stimuli/002600_2014-06-24_14-27-04_094959634447_rgbf000074-resize_2/002600_2014-06-24_14-27-04_094959634447_rgbf000074-resize_2-target.png,1000,2.7575,5,4477,1000,feet,jsons/v1_VE1000_randls_9_rotated.json,1176242,1626792,27,Man
109,871020,DepthScenes,duration_manipulation_targetAtFixation,jsons/v1_VE1000_randls_9_rotated.json,http://54.235.29.9/FacialAge/BNav_EC2/DepthDuration/v2_depth_duration_MTurk/v2_DepthDuration_HTML.html#89,89,1093,500,1366,768,9-3-2022,13-36-30,110,depth_duration_stimuli/001032_2014-06-08_13-23-17_260595134347_rgbf000021-resize_3/001032_2014-06-08_13-23-17_260595134347_rgbf000021-resize_3-target.png,1000,3.2725,6,4323,993,feet,jsons/v1_VE1000_randls_9_rotated.json,1176242,1626792,27,Man
110,871020,DepthScenes,duration_manipulation_targetAtFixation,jsons/v1_VE1000_randls_9_rotated.json,http://54.235.29.9/FacialAge/BNav_EC2/DepthDuration/v2_depth_duration_MTurk/v2_DepthDuration_HTML.html#89,89,1093,500,1366,768,9-3-2022,13-36-30,111,depth_duration_stimuli/001059_2014-06-08_21-53-27_260595134347_rgbf000061-resize_4/001059_2014-06-08_21-53-27_260595134347_rgbf000061-resize_4-target.png,1000,2.4185,6,3841,998,feet,jsons/v1_VE1000_randls_9_rotated.json,1176242,1626792,27,Man
111,871020,DepthScenes,duration_manipulation_targetAtFixation,jsons/v1_VE1000_randls_9_rotated.json,http://54.235.29.9/FacialAge/BNav_EC2/DepthDuration/v2_depth_duration_MTurk/v2_DepthDuration_HTML.html#89,89,1093,500,1366,768,9-3-2022,13-36-30,112,depth_duration_stimuli/002995_2014-06-15_12-31-26_094959634447_rgbf000150-resize_1/002995_2014-06-15_12-31-26_094959634447_rgbf000150-resize_1-target.png,1000,3.8360000000000003,9,4252,1001,feet,jsons/v1_VE1000_randls_9_rotated.json,1176242,1626792,27,Man
112,871020,DepthScenes,duration_manipulation_targetAtFixation,jsons/v1_VE1000_randls_9_rotated.json,http://54.235.29.9/FacialAge/BNav_EC2/DepthDuration/v2_depth_duration_MTurk/v2_DepthDuration_HTML.html#89,89,1093,500,1366,768,9-3-2022,13-36-30,113,depth_duration_stimuli/002748_2014-06-22_19-07-22_094959634447_rgbf000078-resize_1/002748_2014-06-22_19-07-22_094959634447_rgbf000078-resize_1-target.png,1000,4.6705,9,4048,996,feet,jsons/v1_VE1000_randls_9_rotated.json,1176242,1626792,27,Man
113,871020,DepthScenes,duration_manipulation_targetAtFixation,jsons/v1_VE1000_randls_9_rotated.json,http://54.235.29.9/FacialAge/BNav_EC2/DepthDuration/v2_depth_duration_MTurk/v2_DepthDuration_HTML.html#89,89,1093,500,1366,768,9-3-2022,13-36-30,114,depth_duration_stimuli/000191_2014-05-12_17-07-38_260595134347_rgbf000199-resize_0/000191_2014-05-12_17-07-38_260595134347_rgbf000199-resize_0-target.png,1000,3.7995,7,3917,1014,feet,jsons/v1_VE1000_randls_9_rotated.json,1176242,1626792,27,Man
114,871020,DepthScenes,duration_manipulation_targetAtFixation,jsons/v1_VE1000_randls_9_rotated.json,http://54.235.29.9/FacialAge/BNav_EC2/DepthDuration/v2_depth_duration_MTurk/v2_DepthDuration_HTML.html#89,89,1093,500,1366,768,9-3-2022,13-36-30,115,depth_duration_stimuli/000493_2014-06-09_21-01-18_260595134347_rgbf000196-resize_3/000493_2014-06-09_21-01-18_260595134347_rgbf000196-resize_3-target.png,1000,3.44,6,4074,1049,feet,jsons/v1_VE1000_randls_9_rotated.json,1176242,1626792,27,Man
115,871020,DepthScenes,duration_manipulation_targetAtFixation,jsons/v1_VE1000_randls_9_rotated.json,http://54.235.29.9/FacialAge/BNav_EC2/DepthDuration/v2_depth_duration_MTurk/v2_DepthDuration_HTML.html#89,89,1093,500,1366,768,9-3-2022,13-36-30,116,depth_duration_stimuli/001235_2014-06-17_16-37-36_260595134347_rgbf000084-resize_4/001235_2014-06-17_16-37-36_260595134347_rgbf000084-resize_4-target.png,1000,3.6605,8,4034,999,feet,jsons/v1_VE1000_randls_9_rotated.json,1176242,1626792,27,Man
116,871020,DepthScenes,duration_manipulation_targetAtFixation,jsons/v1_VE1000_randls_9_rotated.json,http://54.235.29.9/FacialAge/BNav_EC2/DepthDuration/v2_depth_duration_MTurk/v2_DepthDuration_HTML.html#89,89,1093,500,1366,768,9-3-2022,13-36-30,117,depth_duration_stimuli/000788_2014-06-08_22-34-36_260595134347_rgbf000131-resize_1/000788_2014-06-08_22-34-36_260595134347_rgbf000131-resize_1-target.png,1000,3.359,6,3347,1001,feet,jsons/v1_VE1000_randls_9_rotated.json,1176242,1626792,27,Man
117,871020,DepthScenes,duration_manipulation_targetAtFixation,jsons/v1_VE1000_randls_9_rotated.json,http://54.235.29.9/FacialAge/BNav_EC2/DepthDuration/v2_depth_duration_MTurk/v2_DepthDuration_HTML.html#89,89,1093,500,1366,768,9-3-2022,13-36-30,118,depth_duration_stimuli/000502_2014-06-08_23-02-32_260595134347_rgbf000063-resize_4/000502_2014-06-08_23-02-32_260595134347_rgbf000063-resize_4-target.png,1000,2.431,5,4697,1000,feet,jsons/v1_VE1000_randls_9_rotated.json,1176242,1626792,27,Man
118,871020,DepthScenes,duration_manipulation_targetAtFixation,jsons/v1_VE1000_randls_9_rotated.json,http://54.235.29.9/FacialAge/BNav_EC2/DepthDuration/v2_depth_duration_MTurk/v2_DepthDuration_HTML.html#89,89,1093,500,1366,768,9-3-2022,13-36-30,119,depth_duration_stimuli/001199_2014-06-17_16-03-48_260595134347_rgbf000077-resize_0/001199_2014-06-17_16-03-48_260595134347_rgbf000077-resize_0-target.png,1000,3.4375,5,6896,999,feet,jsons/v1_VE1000_randls_9_rotated.json,1176242,1626792,27,Man
119,871020,DepthScenes,duration_manipulation_targetAtFixation,jsons/v1_VE1000_randls_9_rotated.json,http://54.235.29.9/FacialAge/BNav_EC2/DepthDuration/v2_depth_duration_MTurk/v2_DepthDuration_HTML.html#89,89,1093,500,1366,768,9-3-2022,13-36-30,120,depth_duration_stimuli/000787_2014-06-08_22-33-53_260595134347_rgbf000175-resize_1/000787_2014-06-08_22-33-53_260595134347_rgbf000175-resize-original.jpg,1000,4.784,5,30780,1014,feet,jsons/v1_VE1000_randls_9_rotated.json,1176242,1626792,27,Man
120,871020,DepthScenes,duration_manipulation_targetAtFixation,jsons/v1_VE1000_randls_9_rotated.json,http://54.235.29.9/FacialAge/BNav_EC2/DepthDuration/v2_depth_duration_MTurk/v2_DepthDuration_HTML.html#89,89,1093,500,1366,768,9-3-2022,13-36-30,121,depth_duration_stimuli/001815_2014-06-26_20-52-55_260595134347_rgbf000020-resize_0/001815_2014-06-26_20-52-55_260595134347_rgbf000020-resize_0-target.png,1000,3.3865,5,3390,1000,feet,jsons/v1_VE1000_randls_9_rotated.json,1176242,1626792,27,Man
121,871020,DepthScenes,duration_manipulation_targetAtFixation,jsons/v1_VE1000_randls_9_rotated.json,http://54.235.29.9/FacialAge/BNav_EC2/DepthDuration/v2_depth_duration_MTurk/v2_DepthDuration_HTML.html#89,89,1093,500,1366,768,9-3-2022,13-36-30,122,depth_duration_stimuli/001808_2014-06-26_20-50-58_260595134347_rgbf000029-resize_1/001808_2014-06-26_20-50-58_260595134347_rgbf000029-resize_1-target.png,1000,4.249,5,3755,1001,feet,jsons/v1_VE1000_randls_9_rotated.json,1176242,1626792,27,Man
122,871020,DepthScenes,duration_manipulation_targetAtFixation,jsons/v1_VE1000_randls_9_rotated.json,http://54.235.29.9/FacialAge/BNav_EC2/DepthDuration/v2_depth_duration_MTurk/v2_DepthDuration_HTML.html#89,89,1093,500,1366,768,9-3-2022,13-36-30,123,depth_duration_stimuli/001584_2014-06-20_11-07-43_260595134347_rgbf000002-resize_1/001584_2014-06-20_11-07-43_260595134347_rgbf000002-resize_1-target.png,1000,3.53,6,3602,1010,feet,jsons/v1_VE1000_randls_9_rotated.json,1176242,1626792,27,Man
123,871020,DepthScenes,duration_manipulation_targetAtFixation,jsons/v1_VE1000_randls_9_rotated.json,http://54.235.29.9/FacialAge/BNav_EC2/DepthDuration/v2_depth_duration_MTurk/v2_DepthDuration_HTML.html#89,89,1093,500,1366,768,9-3-2022,13-36-30,124,depth_duration_stimuli/003621_2014-05-23_18-06-08_094959634447_rgbf000101-resize_1/003621_2014-05-23_18-06-08_094959634447_rgbf000101-resize_1-target.png,1000,3.9835,6,3872,999,feet,jsons/v1_VE1000_randls_9_rotated.json,1176242,1626792,27,Man
124,871020,DepthScenes,duration_manipulation_targetAtFixation,jsons/v1_VE1000_randls_9_rotated.json,http://54.235.29.9/FacialAge/BNav_EC2/DepthDuration/v2_depth_duration_MTurk/v2_DepthDuration_HTML.html#89,89,1093,500,1366,768,9-3-2022,13-36-30,125,depth_duration_stimuli/001132_2014-06-17_14-48-54_260595134347_rgbf000100-resize_2/001132_2014-06-17_14-48-54_260595134347_rgbf000100-resize_2-target.png,1000,3.753,5,4766,1003,feet,jsons/v1_VE1000_randls_9_rotated.json,1176242,1626792,27,Man
125,871020,DepthScenes,duration_manipulation_targetAtFixation,jsons/v1_VE1000_randls_9_rotated.json,http://54.235.29.9/FacialAge/BNav_EC2/DepthDuration/v2_depth_duration_MTurk/v2_DepthDuration_HTML.html#89,89,1093,500,1366,768,9-3-2022,13-36-30,126,depth_duration_stimuli/001133_2014-06-17_14-49-16_260595134347_rgbf000100-resize_0/001133_2014-06-17_14-49-16_260595134347_rgbf000100-resize_0-target.png,1000,4.2115,5,4099,969,feet,jsons/v1_VE1000_randls_9_rotated.json,1176242,1626792,27,Man
126,871020,DepthScenes,duration_manipulation_targetAtFixation,jsons/v1_VE1000_randls_9_rotated.json,http://54.235.29.9/FacialAge/BNav_EC2/DepthDuration/v2_depth_duration_MTurk/v2_DepthDuration_HTML.html#89,89,1093,500,1366,768,9-3-2022,13-36-30,127,depth_duration_stimuli/002103_2014-06-25_20-00-40_260595134347_rgbf000049-resize_0/002103_2014-06-25_20-00-40_260595134347_rgbf000049-resize_0-target.png,1000,4.105,5,3960,1000,feet,jsons/v1_VE1000_randls_9_rotated.json,1176242,1626792,27,Man
127,871020,DepthScenes,duration_manipulation_targetAtFixation,jsons/v1_VE1000_randls_9_rotated.json,http://54.235.29.9/FacialAge/BNav_EC2/DepthDuration/v2_depth_duration_MTurk/v2_DepthDuration_HTML.html#89,89,1093,500,1366,768,9-3-2022,13-36-30,128,depth_duration_stimuli/002039_2014-06-24_20-22-38_260595134347_rgbf000084-resize_1/002039_2014-06-24_20-22-38_260595134347_rgbf000084-resize_1-target.png,1000,4.408,6,3835,1001,feet,jsons/v1_VE1000_randls_9_rotated.json,1176242,1626792,27,Man
128,871020,DepthScenes,duration_manipulation_targetAtFixation,jsons/v1_VE1000_randls_9_rotated.json,http://54.235.29.9/FacialAge/BNav_EC2/DepthDuration/v2_depth_duration_MTurk/v2_DepthDuration_HTML.html#89,89,1093,500,1366,768,9-3-2022,13-36-30,129,depth_duration_stimuli/003495_2014-05-21_16-01-51_094959634447_rgbf000100-resize_3/003495_2014-05-21_16-01-51_094959634447_rgbf000100-resize_3-target.png,1000,1.6255,3,3866,1006,feet,jsons/v1_VE1000_randls_9_rotated.json,1176242,1626792,27,Man
129,871020,DepthScenes,duration_manipulation_targetAtFixation,jsons/v1_VE1000_randls_9_rotated.json,http://54.235.29.9/FacialAge/BNav_EC2/DepthDuration/v2_depth_duration_MTurk/v2_DepthDuration_HTML.html#89,89,1093,500,1366,768,9-3-2022,13-36-30,130,depth_duration_stimuli/001244_2014-06-17_16-47-45_260595134347_rgbf000030-resize_4/001244_2014-06-17_16-47-45_260595134347_rgbf000030-resize_4-target.png,1000,2.0425,4,4563,999,feet,jsons/v1_VE1000_randls_9_rotated.json,1176242,1626792,27,Man
130,871020,DepthScenes,duration_manipulation_targetAtFixation,jsons/v1_VE1000_randls_9_rotated.json,http://54.235.29.9/FacialAge/BNav_EC2/DepthDuration/v2_depth_duration_MTurk/v2_DepthDuration_HTML.html#89,89,1093,500,1366,768,9-3-2022,13-36-30,131,depth_duration_stimuli/000927_2014-06-09_16-32-30_260595134347_rgbf000123-resize_3/000927_2014-06-09_16-32-30_260595134347_rgbf000123-resize_3-target.png,1000,2.6785,6,4687,1000,feet,jsons/v1_VE1000_randls_9_rotated.json,1176242,1626792,27,Man
131,871020,DepthScenes,duration_manipulation_targetAtFixation,jsons/v1_VE1000_randls_9_rotated.json,http://54.235.29.9/FacialAge/BNav_EC2/DepthDuration/v2_depth_duration_MTurk/v2_DepthDuration_HTML.html#89,89,1093,500,1366,768,9-3-2022,13-36-30,132,depth_duration_stimuli/001110_2014-06-15_17-25-28_260595134347_rgbf000150-resize_1/001110_2014-06-15_17-25-28_260595134347_rgbf000150-resize_1-target.png,1000,1.7115,4,4129,999,feet,jsons/v1_VE1000_randls_9_rotated.json,1176242,1626792,27,Man
132,871020,DepthScenes,duration_manipulation_targetAtFixation,jsons/v1_VE1000_randls_9_rotated.json,http://54.235.29.9/FacialAge/BNav_EC2/DepthDuration/v2_depth_duration_MTurk/v2_DepthDuration_HTML.html#89,89,1093,500,1366,768,9-3-2022,13-36-30,133,depth_duration_stimuli/000943_2014-06-09_19-31-07_260595134347_rgbf000128-resize_1/000943_2014-06-09_19-31-07_260595134347_rgbf000128-resize_1-target.png,1000,1.9765,3,4978,998,feet,jsons/v1_VE1000_randls_9_rotated.json,1176242,1626792,27,Man
133,871020,DepthScenes,duration_manipulation_targetAtFixation,jsons/v1_VE1000_randls_9_rotated.json,http://54.235.29.9/FacialAge/BNav_EC2/DepthDuration/v2_depth_duration_MTurk/v2_DepthDuration_HTML.html#89,89,1093,500,1366,768,9-3-2022,13-36-30,134,depth_duration_stimuli/003070_2014-06-15_14-58-27_094959634447_rgbf000150-resize_3/003070_2014-06-15_14-58-27_094959634447_rgbf000150-resize_3-target.png,1000,2.9415,6,4169,998,feet,jsons/v1_VE1000_randls_9_rotated.json,1176242,1626792,27,Man
134,871020,DepthScenes,duration_manipulation_targetAtFixation,jsons/v1_VE1000_randls_9_rotated.json,http://54.235.29.9/FacialAge/BNav_EC2/DepthDuration/v2_depth_duration_MTurk/v2_DepthDuration_HTML.html#89,89,1093,500,1366,768,9-3-2022,13-36-30,135,depth_duration_stimuli/000375_2014-06-08_11-17-29_260595134347_rgbf000133-resize_2/000375_2014-06-08_11-17-29_260595134347_rgbf000133-resize-original.jpg,1000,4.718,0,3718,998,feet,jsons/v1_VE1000_randls_9_rotated.json,1176242,1626792,27,Man
135,871020,DepthScenes,duration_manipulation_targetAtFixation,jsons/v1_VE1000_randls_9_rotated.json,http://54.235.29.9/FacialAge/BNav_EC2/DepthDuration/v2_depth_duration_MTurk/v2_DepthDuration_HTML.html#89,89,1093,500,1366,768,9-3-2022,13-36-30,136,depth_duration_stimuli/002545_2014-06-24_13-38-53_094959634447_rgbf000080-resize_4/002545_2014-06-24_13-38-53_094959634447_rgbf000080-resize_4-target.png,1000,1.9205,5,3974,998,feet,jsons/v1_VE1000_randls_9_rotated.json,1176242,1626792,27,Man
136,871020,DepthScenes,duration_manipulation_targetAtFixation,jsons/v1_VE1000_randls_9_rotated.json,http://54.235.29.9/FacialAge/BNav_EC2/DepthDuration/v2_depth_duration_MTurk/v2_DepthDuration_HTML.html#89,89,1093,500,1366,768,9-3-2022,13-36-30,137,depth_duration_stimuli/001092_2014-06-15_17-34-58_260595134347_rgbf000171-resize_3/001092_2014-06-15_17-34-58_260595134347_rgbf000171-resize_3-target.png,1000,2.6935,6,4705,999,feet,jsons/v1_VE1000_randls_9_rotated.json,1176242,1626792,27,Man
137,871020,DepthScenes,duration_manipulation_targetAtFixation,jsons/v1_VE1000_randls_9_rotated.json,http://54.235.29.9/FacialAge/BNav_EC2/DepthDuration/v2_depth_duration_MTurk/v2_DepthDuration_HTML.html#89,89,1093,500,1366,768,9-3-2022,13-36-30,138,depth_duration_stimuli/003081_2014-06-15_15-19-16_094959634447_rgbf000150-resize_1/003081_2014-06-15_15-19-16_094959634447_rgbf000150-resize_1-target.png,1000,3.9125,6,8751,983,feet,jsons/v1_VE1000_randls_9_rotated.json,1176242,1626792,27,Man
138,871020,DepthScenes,duration_manipulation_targetAtFixation,jsons/v1_VE1000_randls_9_rotated.json,http://54.235.29.9/FacialAge/BNav_EC2/DepthDuration/v2_depth_duration_MTurk/v2_DepthDuration_HTML.html#89,89,1093,500,1366,768,9-3-2022,13-36-30,139,depth_duration_stimuli/001417_2014-06-19_16-25-36_260595134347_rgbf000115-resize_5/001417_2014-06-19_16-25-36_260595134347_rgbf000115-resize_5-target.png,1000,4.6255,6,9217,1000,feet,jsons/v1_VE1000_randls_9_rotated.json,1176242,1626792,27,Man
139,871020,DepthScenes,duration_manipulation_targetAtFixation,jsons/v1_VE1000_randls_9_rotated.json,http://54.235.29.9/FacialAge/BNav_EC2/DepthDuration/v2_depth_duration_MTurk/v2_DepthDuration_HTML.html#89,89,1093,500,1366,768,9-3-2022,13-36-30,140,depth_duration_stimuli/002953_2014-06-08_17-32-18_094959634447_rgbf000059-resize_5/002953_2014-06-08_17-32-18_094959634447_rgbf000059-resize_5-target.png,1000,1.551,3,4092,985,feet,jsons/v1_VE1000_randls_9_rotated.json,1176242,1626792,27,Man
140,871020,DepthScenes,duration_manipulation_targetAtFixation,jsons/v1_VE1000_randls_9_rotated.json,http://54.235.29.9/FacialAge/BNav_EC2/DepthDuration/v2_depth_duration_MTurk/v2_DepthDuration_HTML.html#89,89,1093,500,1366,768,9-3-2022,13-36-30,141,depth_duration_stimuli/000878_2014-06-08_22-52-45_260595134347_rgbf000045-resize_2/000878_2014-06-08_22-52-45_260595134347_rgbf000045-resize_2-target.png,1000,2.092,3,3896,1017,feet,jsons/v1_VE1000_randls_9_rotated.json,1176242,1626792,27,Man
141,871020,DepthScenes,duration_manipulation_targetAtFixation,jsons/v1_VE1000_randls_9_rotated.json,http://54.235.29.9/FacialAge/BNav_EC2/DepthDuration/v2_depth_duration_MTurk/v2_DepthDuration_HTML.html#89,89,1093,500,1366,768,9-3-2022,13-36-30,142,depth_duration_stimuli/003587_2014-05-23_16-48-02_094959634447_rgbf002384-resize_2/003587_2014-05-23_16-48-02_094959634447_rgbf002384-resize_2-target.png,1000,1.357,2,3898,1000,feet,jsons/v1_VE1000_randls_9_rotated.json,1176242,1626792,27,Man
142,871020,DepthScenes,duration_manipulation_targetAtFixation,jsons/v1_VE1000_randls_9_rotated.json,http://54.235.29.9/FacialAge/BNav_EC2/DepthDuration/v2_depth_duration_MTurk/v2_DepthDuration_HTML.html#89,89,1093,500,1366,768,9-3-2022,13-36-30,143,depth_duration_stimuli/001167_2014-06-17_15-38-07_260595134347_rgbf000108-resize_0/001167_2014-06-17_15-38-07_260595134347_rgbf000108-resize_0-target.png,1000,1.8505,3,4042,999,feet,jsons/v1_VE1000_randls_9_rotated.json,1176242,1626792,27,Man
143,871020,DepthScenes,duration_manipulation_targetAtFixation,jsons/v1_VE1000_randls_9_rotated.json,http://54.235.29.9/FacialAge/BNav_EC2/DepthDuration/v2_depth_duration_MTurk/v2_DepthDuration_HTML.html#89,89,1093,500,1366,768,9-3-2022,13-36-30,144,depth_duration_stimuli/002637_2014-06-24_14-51-13_094959634447_rgbf000066-resize_4/002637_2014-06-24_14-51-13_094959634447_rgbf000066-resize_4-target.png,1000,1.9955,4,4218,1018,feet,jsons/v1_VE1000_randls_9_rotated.json,1176242,1626792,27,Man
144,871020,DepthScenes,duration_manipulation_targetAtFixation,jsons/v1_VE1000_randls_9_rotated.json,http://54.235.29.9/FacialAge/BNav_EC2/DepthDuration/v2_depth_duration_MTurk/v2_DepthDuration_HTML.html#89,89,1093,500,1366,768,9-3-2022,13-36-30,145,depth_duration_stimuli/003534_2014-05-22_15-06-10_094959634447_rgbf000102-resize_4/003534_2014-05-22_15-06-10_094959634447_rgbf000102-resize_4-target.png,1000,1.426,2,3797,997,feet,jsons/v1_VE1000_randls_9_rotated.json,1176242,1626792,27,Man
145,871020,DepthScenes,duration_manipulation_targetAtFixation,jsons/v1_VE1000_randls_9_rotated.json,http://54.235.29.9/FacialAge/BNav_EC2/DepthDuration/v2_depth_duration_MTurk/v2_DepthDuration_HTML.html#89,89,1093,500,1366,768,9-3-2022,13-36-30,146,depth_duration_stimuli/002209_2014-06-28_18-36-10_260595134347_rgbf000051-resize_1/002209_2014-06-28_18-36-10_260595134347_rgbf000051-resize_1-target.png,1000,2.057,4,4144,999,feet,jsons/v1_VE1000_randls_9_rotated.json,1176242,1626792,27,Man
146,871020,DepthScenes,duration_manipulation_targetAtFixation,jsons/v1_VE1000_randls_9_rotated.json,http://54.235.29.9/FacialAge/BNav_EC2/DepthDuration/v2_depth_duration_MTurk/v2_DepthDuration_HTML.html#89,89,1093,500,1366,768,9-3-2022,13-36-30,147,depth_duration_stimuli/002763_2014-06-22_19-13-10_094959634447_rgbf000075-resize_4/002763_2014-06-22_19-13-10_094959634447_rgbf000075-resize_4-target.png,1000,1.68375,5,3641,1000,feet,jsons/v1_VE1000_randls_9_rotated.json,1176242,1626792,27,Man
147,871020,DepthScenes,duration_manipulation_targetAtFixation,jsons/v1_VE1000_randls_9_rotated.json,http://54.235.29.9/FacialAge/BNav_EC2/DepthDuration/v2_depth_duration_MTurk/v2_DepthDuration_HTML.html#89,89,1093,500,1366,768,9-3-2022,13-36-30,148,depth_duration_stimuli/002136_2014-06-25_21-18-03_260595134347_rgbf000109-resize_3/002136_2014-06-25_21-18-03_260595134347_rgbf000109-resize_3-target.png,1000,1.9569999999999999,4,3604,996,feet,jsons/v1_VE1000_randls_9_rotated.json,1176242,1626792,27,Man
148,871020,DepthScenes,duration_manipulation_targetAtFixation,jsons/v1_VE1000_randls_9_rotated.json,http://54.235.29.9/FacialAge/BNav_EC2/DepthDuration/v2_depth_duration_MTurk/v2_DepthDuration_HTML.html#89,89,1093,500,1366,768,9-3-2022,13-36-30,149,depth_duration_stimuli/002964_2014-06-08_17-46-11_094959634447_rgbf000091-resize_4/002964_2014-06-08_17-46-11_094959634447_rgbf000091-resize_4-target.png,1000,1.6909999999999998,5,3395,999,feet,jsons/v1_VE1000_randls_9_rotated.json,1176242,1626792,27,Man
149,871020,DepthScenes,duration_manipulation_targetAtFixation,jsons/v1_VE1000_randls_9_rotated.json,http://54.235.29.9/FacialAge/BNav_EC2/DepthDuration/v2_depth_duration_MTurk/v2_DepthDuration_HTML.html#89,89,1093,500,1366,768,9-3-2022,13-36-30,150,depth_duration_stimuli/000409_2014-06-04_19-23-33_260595134347_rgbf000067-resize_0/000409_2014-06-04_19-23-33_260595134347_rgbf000067-resize_0-target.png,1000,3.7335,7,4473,983,feet,jsons/v1_VE1000_randls_9_rotated.json,1176242,1626792,27,Man
150,871020,DepthScenes,duration_manipulation_targetAtFixation,jsons/v1_VE1000_randls_9_rotated.json,http://54.235.29.9/FacialAge/BNav_EC2/DepthDuration/v2_depth_duration_MTurk/v2_DepthDuration_HTML.html#89,89,1093,500,1366,768,9-3-2022,13-36-30,151,depth_duration_stimuli/002663_2014-06-13_15-50-26_094959634447_rgbf000075-resize_1/002663_2014-06-13_15-50-26_094959634447_rgbf000075-resize_1-target.png,1000,4.7495,9,4319,1000,feet,jsons/v1_VE1000_randls_9_rotated.json,1176242,1626792,27,Man
151,871020,DepthScenes,duration_manipulation_targetAtFixation,jsons/v1_VE1000_randls_9_rotated.json,http://54.235.29.9/FacialAge/BNav_EC2/DepthDuration/v2_depth_duration_MTurk/v2_DepthDuration_HTML.html#89,89,1093,500,1366,768,9-3-2022,13-36-30,152,depth_duration_stimuli/000569_2014-06-09_22-51-47_260595134347_rgbf000141-resize_3/000569_2014-06-09_22-51-47_260595134347_rgbf000141-resize-original.jpg,1000,4.512,0,4133,996,feet,jsons/v1_VE1000_randls_9_rotated.json,1176242,1626792,27,Man
152,871020,DepthScenes,duration_manipulation_targetAtFixation,jsons/v1_VE1000_randls_9_rotated.json,http://54.235.29.9/FacialAge/BNav_EC2/DepthDuration/v2_depth_duration_MTurk/v2_DepthDuration_HTML.html#89,89,1093,500,1366,768,9-3-2022,13-36-30,153,depth_duration_stimuli/000483_2014-06-09_20-41-45_260595134347_rgbf000116-resize_4/000483_2014-06-09_20-41-45_260595134347_rgbf000116-resize_4-target.png,1000,1.337,2,4006,1000,feet,jsons/v1_VE1000_randls_9_rotated.json,1176242,1626792,27,Man
153,871020,DepthScenes,duration_manipulation_targetAtFixation,jsons/v1_VE1000_randls_9_rotated.json,http://54.235.29.9/FacialAge/BNav_EC2/DepthDuration/v2_depth_duration_MTurk/v2_DepthDuration_HTML.html#89,89,1093,500,1366,768,9-3-2022,13-36-30,154,depth_duration_stimuli/000469_2014-06-09_19-42-10_260595134347_rgbf000081-resize_1/000469_2014-06-09_19-42-10_260595134347_rgbf000081-resize_1-target.png,1000,1.652,3,3550,999,feet,jsons/v1_VE1000_randls_9_rotated.json,1176242,1626792,27,Man
154,871020,DepthScenes,duration_manipulation_targetAtFixation,jsons/v1_VE1000_randls_9_rotated.json,http://54.235.29.9/FacialAge/BNav_EC2/DepthDuration/v2_depth_duration_MTurk/v2_DepthDuration_HTML.html#89,89,1093,500,1366,768,9-3-2022,13-36-30,155,depth_duration_stimuli/002750_2014-06-22_19-08-03_094959634447_rgbf000094-resize_4/002750_2014-06-22_19-08-03_094959634447_rgbf000094-resize_4-target.png,1000,2.354,5,4474,1006,feet,jsons/v1_VE1000_randls_9_rotated.json,1176242,1626792,27,Man
155,871020,DepthScenes,duration_manipulation_targetAtFixation,jsons/v1_VE1000_randls_9_rotated.json,http://54.235.29.9/FacialAge/BNav_EC2/DepthDuration/v2_depth_duration_MTurk/v2_DepthDuration_HTML.html#89,89,1093,500,1366,768,9-3-2022,13-36-30,156,depth_duration_stimuli/002549_2014-06-24_13-41-39_094959634447_rgbf000022-resize_3/002549_2014-06-24_13-41-39_094959634447_rgbf000022-resize_3-target.png,1000,1.476,3,3925,978,feet,jsons/v1_VE1000_randls_9_rotated.json,1176242,1626792,27,Man
156,871020,DepthScenes,duration_manipulation_targetAtFixation,jsons/v1_VE1000_randls_9_rotated.json,http://54.235.29.9/FacialAge/BNav_EC2/DepthDuration/v2_depth_duration_MTurk/v2_DepthDuration_HTML.html#89,89,1093,500,1366,768,9-3-2022,13-36-30,157,depth_duration_stimuli/001516_2014-06-20_16-25-09_260595134347_rgbf000076-resize_2/001516_2014-06-20_16-25-09_260595134347_rgbf000076-resize_2-target.png,1000,1.7445,4,4143,990,feet,jsons/v1_VE1000_randls_9_rotated.json,1176242,1626792,27,Man
157,871020,DepthScenes,duration_manipulation_targetAtFixation,jsons/v1_VE1000_randls_9_rotated.json,http://54.235.29.9/FacialAge/BNav_EC2/DepthDuration/v2_depth_duration_MTurk/v2_DepthDuration_HTML.html#89,89,1093,500,1366,768,9-3-2022,13-36-30,158,depth_duration_stimuli/002118_2014-06-25_20-32-08_260595134347_rgbf000078-resize_1/002118_2014-06-25_20-32-08_260595134347_rgbf000078-resize_1-target.png,1000,2.6460000000000004,6,4592,999,feet,jsons/v1_VE1000_randls_9_rotated.json,1176242,1626792,27,Man
158,871020,DepthScenes,duration_manipulation_targetAtFixation,jsons/v1_VE1000_randls_9_rotated.json,http://54.235.29.9/FacialAge/BNav_EC2/DepthDuration/v2_depth_duration_MTurk/v2_DepthDuration_HTML.html#89,89,1093,500,1366,768,9-3-2022,13-36-30,159,depth_duration_stimuli/003423_2014-05-21_10-23-26_094959634447_rgbf002665-resize_2/003423_2014-05-21_10-23-26_094959634447_rgbf002665-resize_2-target.png,1000,3.2575,4,8156,1000,feet,jsons/v1_VE1000_randls_9_rotated.json,1176242,1626792,27,Man
159,871020,DepthScenes,duration_manipulation_targetAtFixation,jsons/v1_VE1000_randls_9_rotated.json,http://54.235.29.9/FacialAge/BNav_EC2/DepthDuration/v2_depth_duration_MTurk/v2_DepthDuration_HTML.html#89,89,1093,500,1366,768,9-3-2022,13-36-30,160,depth_duration_stimuli/002905_2014-06-03_18-04-43_094959634447_rgbf000151-resize_2/002905_2014-06-03_18-04-43_094959634447_rgbf000151-resize_2-target.png,1000,2.0295,3,3787,1000,feet,jsons/v1_VE1000_randls_9_rotated.json,1176242,1626792,27,Man
160,871020,DepthScenes,duration_manipulation_targetAtFixation,jsons/v1_VE1000_randls_9_rotated.json,http://54.235.29.9/FacialAge/BNav_EC2/DepthDuration/v2_depth_duration_MTurk/v2_DepthDuration_HTML.html#89,89,1093,500,1366,768,9-3-2022,13-36-30,161,depth_duration_stimuli/000854_2014-06-09_19-43-13_260595134347_rgbf000066-resize_0/000854_2014-06-09_19-43-13_260595134347_rgbf000066-resize_0-target.png,1000,3.068,3,4069,987,feet,jsons/v1_VE1000_randls_9_rotated.json,1176242,1626792,27,Man
161,871020,DepthScenes,duration_manipulation_targetAtFixation,jsons/v1_VE1000_randls_9_rotated.json,http://54.235.29.9/FacialAge/BNav_EC2/DepthDuration/v2_depth_duration_MTurk/v2_DepthDuration_HTML.html#89,89,1093,500,1366,768,9-3-2022,13-36-30,162,depth_duration_stimuli/000758_2014-06-08_22-05-08_260595134347_rgbf000085-resize_0/000758_2014-06-08_22-05-08_260595134347_rgbf000085-resize_0-target.png,1000,3.3810000000000002,8,4117,997,feet,jsons/v1_VE1000_randls_9_rotated.json,1176242,1626792,27,Man
162,871020,DepthScenes,duration_manipulation_targetAtFixation,jsons/v1_VE1000_randls_9_rotated.json,http://54.235.29.9/FacialAge/BNav_EC2/DepthDuration/v2_depth_duration_MTurk/v2_DepthDuration_HTML.html#89,89,1093,500,1366,768,9-3-2022,13-36-30,163,depth_duration_stimuli/000109_2014-05-14_23-41-52_260595134347_rgbf000035-resize_9/000109_2014-05-14_23-41-52_260595134347_rgbf000035-resize_9-target.png,1000,1.3545,3,3861,1000,feet,jsons/v1_VE1000_randls_9_rotated.json,1176242,1626792,27,Man
163,871020,DepthScenes,duration_manipulation_targetAtFixation,jsons/v1_VE1000_randls_9_rotated.json,http://54.235.29.9/FacialAge/BNav_EC2/DepthDuration/v2_depth_duration_MTurk/v2_DepthDuration_HTML.html#89,89,1093,500,1366,768,9-3-2022,13-36-30,164,depth_duration_stimuli/000470_2014-06-09_19-42-40_260595134347_rgbf000094-resize_1/000470_2014-06-09_19-42-40_260595134347_rgbf000094-resize_1-target.png,1000,1.831,3,3720,998,feet,jsons/v1_VE1000_randls_9_rotated.json,1176242,1626792,27,Man
