,subjID,experimentName,versionName,sequenceName,url,selected_row,windowWidth,windowHeight,screenWidth,screenHeight,startDate,startTime,trial,stimulus,duration,actual_depth,depth_estimate,trial_RT,log_sceneDuration,unitSelection,seq_filepath,experimentTime,totalTime,age,gender
0,871278,DepthScenes,duration_manipulation_targetAtFixation,jsons/v1_VE250_randls_41_rotated.json,http://54.235.29.9/FacialAge/BNav_EC2/DepthDuration/v2_depth_duration_MTurk/v2_DepthDuration_HTML.html#54,54,1517,631,1366,768,8-20-2022,16-5-52,1,depth_duration_stimuli/003081_2014-06-15_15-19-16_094959634447_rgbf000150-resize_1/003081_2014-06-15_15-19-16_094959634447_rgbf000150-resize_1-target.png,250,3.9125,5,4292,248,feet,jsons/v1_VE250_randls_41_rotated.json,1245676,1507880,39,Woman
1,871278,DepthScenes,duration_manipulation_targetAtFixation,jsons/v1_VE250_randls_41_rotated.json,http://54.235.29.9/FacialAge/BNav_EC2/DepthDuration/v2_depth_duration_MTurk/v2_DepthDuration_HTML.html#54,54,1517,631,1366,768,8-20-2022,16-5-52,2,depth_duration_stimuli/001417_2014-06-19_16-25-36_260595134347_rgbf000115-resize_5/001417_2014-06-19_16-25-36_260595134347_rgbf000115-resize_5-target.png,250,4.6255,6,5397,248,feet,jsons/v1_VE250_randls_41_rotated.json,1245676,1507880,39,Woman
2,871278,DepthScenes,duration_manipulation_targetAtFixation,jsons/v1_VE250_randls_41_rotated.json,http://54.235.29.9/FacialAge/BNav_EC2/DepthDuration/v2_depth_duration_MTurk/v2_DepthDuration_HTML.html#54,54,1517,631,1366,768,8-20-2022,16-5-52,3,depth_duration_stimuli/002199_2014-06-28_18-33-56_260595134347_rgbf000074-resize_0/002199_2014-06-28_18-33-56_260595134347_rgbf000074-resize_0-target.png,250,1.996,3,4810,248,feet,jsons/v1_VE250_randls_41_rotated.json,1245676,1507880,39,Woman
3,871278,DepthScenes,duration_manipulation_targetAtFixation,jsons/v1_VE250_randls_41_rotated.json,http://54.235.29.9/FacialAge/BNav_EC2/DepthDuration/v2_depth_duration_MTurk/v2_DepthDuration_HTML.html#54,54,1517,631,1366,768,8-20-2022,16-5-52,4,depth_duration_stimuli/001056_2014-06-08_18-46-44_260595134347_rgbf000068-resize_0/001056_2014-06-08_18-46-44_260595134347_rgbf000068-resize_0-target.png,250,2.6625,5,3207,248,feet,jsons/v1_VE250_randls_41_rotated.json,1245676,1507880,39,Woman
4,871278,DepthScenes,duration_manipulation_targetAtFixation,jsons/v1_VE250_randls_41_rotated.json,http://54.235.29.9/FacialAge/BNav_EC2/DepthDuration/v2_depth_duration_MTurk/v2_DepthDuration_HTML.html#54,54,1517,631,1366,768,8-20-2022,16-5-52,5,depth_duration_stimuli/000866_2014-06-09_20-45-42_260595134347_rgbf000139-resize_1/000866_2014-06-09_20-45-42_260595134347_rgbf000139-resize_1-target.png,250,3.2155,3,3085,247,feet,jsons/v1_VE250_randls_41_rotated.json,1245676,1507880,39,Woman
5,871278,DepthScenes,duration_manipulation_targetAtFixation,jsons/v1_VE250_randls_41_rotated.json,http://54.235.29.9/FacialAge/BNav_EC2/DepthDuration/v2_depth_duration_MTurk/v2_DepthDuration_HTML.html#54,54,1517,631,1366,768,8-20-2022,16-5-52,6,depth_duration_stimuli/002989_2014-06-15_12-25-03_094959634447_rgbf000150-resize_3/002989_2014-06-15_12-25-03_094959634447_rgbf000150-resize_3-target.png,250,4.1975,7,2930,248,feet,jsons/v1_VE250_randls_41_rotated.json,1245676,1507880,39,Woman
6,871278,DepthScenes,duration_manipulation_targetAtFixation,jsons/v1_VE250_randls_41_rotated.json,http://54.235.29.9/FacialAge/BNav_EC2/DepthDuration/v2_depth_duration_MTurk/v2_DepthDuration_HTML.html#54,54,1517,631,1366,768,8-20-2022,16-5-52,7,depth_duration_stimuli/002344_2014-06-28_20-06-29_260595134347_rgbf000030-resize_1/002344_2014-06-28_20-06-29_260595134347_rgbf000030-resize_1-target.png,250,1.5795,2,3118,253,feet,jsons/v1_VE250_randls_41_rotated.json,1245676,1507880,39,Woman
7,871278,DepthScenes,duration_manipulation_targetAtFixation,jsons/v1_VE250_randls_41_rotated.json,http://54.235.29.9/FacialAge/BNav_EC2/DepthDuration/v2_depth_duration_MTurk/v2_DepthDuration_HTML.html#54,54,1517,631,1366,768,8-20-2022,16-5-52,8,depth_duration_stimuli/002725_2014-06-22_11-47-51_094959634447_rgbf000070-resize_1/002725_2014-06-22_11-47-51_094959634447_rgbf000070-resize_1-target.png,250,2.195,3,9608,247,feet,jsons/v1_VE250_randls_41_rotated.json,1245676,1507880,39,Woman
8,871278,DepthScenes,duration_manipulation_targetAtFixation,jsons/v1_VE250_randls_41_rotated.json,http://54.235.29.9/FacialAge/BNav_EC2/DepthDuration/v2_depth_duration_MTurk/v2_DepthDuration_HTML.html#54,54,1517,631,1366,768,8-20-2022,16-5-52,9,depth_duration_stimuli/002750_2014-06-22_19-08-03_094959634447_rgbf000094-resize_4/002750_2014-06-22_19-08-03_094959634447_rgbf000094-resize_4-target.png,250,2.354,3,3962,248,feet,jsons/v1_VE250_randls_41_rotated.json,1245676,1507880,39,Woman
9,871278,DepthScenes,duration_manipulation_targetAtFixation,jsons/v1_VE250_randls_41_rotated.json,http://54.235.29.9/FacialAge/BNav_EC2/DepthDuration/v2_depth_duration_MTurk/v2_DepthDuration_HTML.html#54,54,1517,631,1366,768,8-20-2022,16-5-52,10,depth_duration_stimuli/002549_2014-06-24_13-41-39_094959634447_rgbf000022-resize_3/002549_2014-06-24_13-41-39_094959634447_rgbf000022-resize_3-target.png,250,1.476,2,3502,249,feet,jsons/v1_VE250_randls_41_rotated.json,1245676,1507880,39,Woman
10,871278,DepthScenes,duration_manipulation_targetAtFixation,jsons/v1_VE250_randls_41_rotated.json,http://54.235.29.9/FacialAge/BNav_EC2/DepthDuration/v2_depth_duration_MTurk/v2_DepthDuration_HTML.html#54,54,1517,631,1366,768,8-20-2022,16-5-52,11,depth_duration_stimuli/000483_2014-06-09_20-41-45_260595134347_rgbf000116-resize_4/000483_2014-06-09_20-41-45_260595134347_rgbf000116-resize_4-target.png,250,1.337,2,2936,249,feet,jsons/v1_VE250_randls_41_rotated.json,1245676,1507880,39,Woman
11,871278,DepthScenes,duration_manipulation_targetAtFixation,jsons/v1_VE250_randls_41_rotated.json,http://54.235.29.9/FacialAge/BNav_EC2/DepthDuration/v2_depth_duration_MTurk/v2_DepthDuration_HTML.html#54,54,1517,631,1366,768,8-20-2022,16-5-52,12,depth_duration_stimuli/000469_2014-06-09_19-42-10_260595134347_rgbf000081-resize_1/000469_2014-06-09_19-42-10_260595134347_rgbf000081-resize_1-target.png,250,1.652,3,3112,246,feet,jsons/v1_VE250_randls_41_rotated.json,1245676,1507880,39,Woman
12,871278,DepthScenes,duration_manipulation_targetAtFixation,jsons/v1_VE250_randls_41_rotated.json,http://54.235.29.9/FacialAge/BNav_EC2/DepthDuration/v2_depth_duration_MTurk/v2_DepthDuration_HTML.html#54,54,1517,631,1366,768,8-20-2022,16-5-52,13,depth_duration_stimuli/001650_2014-06-20_12-09-00_260595134347_rgbf000087-resize_3/001650_2014-06-20_12-09-00_260595134347_rgbf000087-resize_3-target.png,250,1.9505,2,3977,263,feet,jsons/v1_VE250_randls_41_rotated.json,1245676,1507880,39,Woman
13,871278,DepthScenes,duration_manipulation_targetAtFixation,jsons/v1_VE250_randls_41_rotated.json,http://54.235.29.9/FacialAge/BNav_EC2/DepthDuration/v2_depth_duration_MTurk/v2_DepthDuration_HTML.html#54,54,1517,631,1366,768,8-20-2022,16-5-52,14,depth_duration_stimuli/000682_2014-06-08_23-14-58_260595134347_rgbf000041-resize_5/000682_2014-06-08_23-14-58_260595134347_rgbf000041-resize_5-target.png,250,2.7239999999999998,4,8246,248,feet,jsons/v1_VE250_randls_41_rotated.json,1245676,1507880,39,Woman
14,871278,DepthScenes,duration_manipulation_targetAtFixation,jsons/v1_VE250_randls_41_rotated.json,http://54.235.29.9/FacialAge/BNav_EC2/DepthDuration/v2_depth_duration_MTurk/v2_DepthDuration_HTML.html#54,54,1517,631,1366,768,8-20-2022,16-5-52,15,depth_duration_stimuli/002545_2014-06-24_13-38-53_094959634447_rgbf000080-resize_4/002545_2014-06-24_13-38-53_094959634447_rgbf000080-resize_4-target.png,250,1.9205,3,4006,254,feet,jsons/v1_VE250_randls_41_rotated.json,1245676,1507880,39,Woman
15,871278,DepthScenes,duration_manipulation_targetAtFixation,jsons/v1_VE250_randls_41_rotated.json,http://54.235.29.9/FacialAge/BNav_EC2/DepthDuration/v2_depth_duration_MTurk/v2_DepthDuration_HTML.html#54,54,1517,631,1366,768,8-20-2022,16-5-52,16,depth_duration_stimuli/001092_2014-06-15_17-34-58_260595134347_rgbf000171-resize_3/001092_2014-06-15_17-34-58_260595134347_rgbf000171-resize_3-target.png,250,2.6935,3,3615,255,feet,jsons/v1_VE250_randls_41_rotated.json,1245676,1507880,39,Woman
16,871278,DepthScenes,duration_manipulation_targetAtFixation,jsons/v1_VE250_randls_41_rotated.json,http://54.235.29.9/FacialAge/BNav_EC2/DepthDuration/v2_depth_duration_MTurk/v2_DepthDuration_HTML.html#54,54,1517,631,1366,768,8-20-2022,16-5-52,17,depth_duration_stimuli/001032_2014-06-08_13-23-17_260595134347_rgbf000021-resize_3/001032_2014-06-08_13-23-17_260595134347_rgbf000021-resize_3-target.png,250,3.2725,5,2788,250,feet,jsons/v1_VE250_randls_41_rotated.json,1245676,1507880,39,Woman
17,871278,DepthScenes,duration_manipulation_targetAtFixation,jsons/v1_VE250_randls_41_rotated.json,http://54.235.29.9/FacialAge/BNav_EC2/DepthDuration/v2_depth_duration_MTurk/v2_DepthDuration_HTML.html#54,54,1517,631,1366,768,8-20-2022,16-5-52,18,depth_duration_stimuli/001059_2014-06-08_21-53-27_260595134347_rgbf000061-resize_4/001059_2014-06-08_21-53-27_260595134347_rgbf000061-resize_4-target.png,250,2.4185,4,3611,251,feet,jsons/v1_VE250_randls_41_rotated.json,1245676,1507880,39,Woman
18,871278,DepthScenes,duration_manipulation_targetAtFixation,jsons/v1_VE250_randls_41_rotated.json,http://54.235.29.9/FacialAge/BNav_EC2/DepthDuration/v2_depth_duration_MTurk/v2_DepthDuration_HTML.html#54,54,1517,631,1366,768,8-20-2022,16-5-52,19,depth_duration_stimuli/001498_2014-06-19_17-45-14_260595134347_rgbf000129-resize_4/001498_2014-06-19_17-45-14_260595134347_rgbf000129-resize-original.jpg,250,1.4075,0,3011,244,feet,jsons/v1_VE250_randls_41_rotated.json,1245676,1507880,39,Woman
19,871278,DepthScenes,duration_manipulation_targetAtFixation,jsons/v1_VE250_randls_41_rotated.json,http://54.235.29.9/FacialAge/BNav_EC2/DepthDuration/v2_depth_duration_MTurk/v2_DepthDuration_HTML.html#54,54,1517,631,1366,768,8-20-2022,16-5-52,20,depth_duration_stimuli/002953_2014-06-08_17-32-18_094959634447_rgbf000059-resize_5/002953_2014-06-08_17-32-18_094959634447_rgbf000059-resize_5-target.png,250,1.551,3,14275,253,feet,jsons/v1_VE250_randls_41_rotated.json,1245676,1507880,39,Woman
20,871278,DepthScenes,duration_manipulation_targetAtFixation,jsons/v1_VE250_randls_41_rotated.json,http://54.235.29.9/FacialAge/BNav_EC2/DepthDuration/v2_depth_duration_MTurk/v2_DepthDuration_HTML.html#54,54,1517,631,1366,768,8-20-2022,16-5-52,21,depth_duration_stimuli/000878_2014-06-08_22-52-45_260595134347_rgbf000045-resize_2/000878_2014-06-08_22-52-45_260595134347_rgbf000045-resize_2-target.png,250,2.092,3,4002,249,feet,jsons/v1_VE250_randls_41_rotated.json,1245676,1507880,39,Woman
21,871278,DepthScenes,duration_manipulation_targetAtFixation,jsons/v1_VE250_randls_41_rotated.json,http://54.235.29.9/FacialAge/BNav_EC2/DepthDuration/v2_depth_duration_MTurk/v2_DepthDuration_HTML.html#54,54,1517,631,1366,768,8-20-2022,16-5-52,22,depth_duration_stimuli/000677_2014-06-08_23-10-32_260595134347_rgbf000158-resize_6/000677_2014-06-08_23-10-32_260595134347_rgbf000158-resize_6-target.png,250,3.556,5,3037,265,feet,jsons/v1_VE250_randls_41_rotated.json,1245676,1507880,39,Woman
22,871278,DepthScenes,duration_manipulation_targetAtFixation,jsons/v1_VE250_randls_41_rotated.json,http://54.235.29.9/FacialAge/BNav_EC2/DepthDuration/v2_depth_duration_MTurk/v2_DepthDuration_HTML.html#54,54,1517,631,1366,768,8-20-2022,16-5-52,23,depth_duration_stimuli/001029_2014-06-08_13-17-57_260595134347_rgbf000065-resize_1/001029_2014-06-08_13-17-57_260595134347_rgbf000065-resize_1-target.png,250,3.0835,3,3267,247,feet,jsons/v1_VE250_randls_41_rotated.json,1245676,1507880,39,Woman
23,871278,DepthScenes,duration_manipulation_targetAtFixation,jsons/v1_VE250_randls_41_rotated.json,http://54.235.29.9/FacialAge/BNav_EC2/DepthDuration/v2_depth_duration_MTurk/v2_DepthDuration_HTML.html#54,54,1517,631,1366,768,8-20-2022,16-5-52,24,depth_duration_stimuli/001052_2014-06-08_18-24-54_260595134347_rgbf000130-resize_1/001052_2014-06-08_18-24-54_260595134347_rgbf000130-resize_1-target.png,250,4.1045,6,3015,262,feet,jsons/v1_VE250_randls_41_rotated.json,1245676,1507880,39,Woman
24,871278,DepthScenes,duration_manipulation_targetAtFixation,jsons/v1_VE250_randls_41_rotated.json,http://54.235.29.9/FacialAge/BNav_EC2/DepthDuration/v2_depth_duration_MTurk/v2_DepthDuration_HTML.html#54,54,1517,631,1366,768,8-20-2022,16-5-52,25,depth_duration_stimuli/002988_2014-06-15_12-24-20_094959634447_rgbf000150-resize_1/002988_2014-06-15_12-24-20_094959634447_rgbf000150-resize_1-target.png,250,4.7669999999999995,5,3534,255,feet,jsons/v1_VE250_randls_41_rotated.json,1245676,1507880,39,Woman
25,871278,DepthScenes,duration_manipulation_targetAtFixation,jsons/v1_VE250_randls_41_rotated.json,http://54.235.29.9/FacialAge/BNav_EC2/DepthDuration/v2_depth_duration_MTurk/v2_DepthDuration_HTML.html#54,54,1517,631,1366,768,8-20-2022,16-5-52,26,depth_duration_stimuli/002678_2014-06-13_16-15-32_094959634447_rgbf000151-resize_6/002678_2014-06-13_16-15-32_094959634447_rgbf000151-resize_6-target.png,250,2.1830000000000003,7,3703,248,feet,jsons/v1_VE250_randls_41_rotated.json,1245676,1507880,39,Woman
26,871278,DepthScenes,duration_manipulation_targetAtFixation,jsons/v1_VE250_randls_41_rotated.json,http://54.235.29.9/FacialAge/BNav_EC2/DepthDuration/v2_depth_duration_MTurk/v2_DepthDuration_HTML.html#54,54,1517,631,1366,768,8-20-2022,16-5-52,27,depth_duration_stimuli/000368_2014-06-09_15-53-01_260595134347_rgbf000155-resize_2/000368_2014-06-09_15-53-01_260595134347_rgbf000155-resize_2-target.png,250,2.4859999999999998,3,2849,249,feet,jsons/v1_VE250_randls_41_rotated.json,1245676,1507880,39,Woman
27,871278,DepthScenes,duration_manipulation_targetAtFixation,jsons/v1_VE250_randls_41_rotated.json,http://54.235.29.9/FacialAge/BNav_EC2/DepthDuration/v2_depth_duration_MTurk/v2_DepthDuration_HTML.html#54,54,1517,631,1366,768,8-20-2022,16-5-52,28,depth_duration_stimuli/002660_2014-06-13_15-44-18_094959634447_rgbf001878-resize_2/002660_2014-06-13_15-44-18_094959634447_rgbf001878-resize_2-target.png,250,3.576,4,2905,262,feet,jsons/v1_VE250_randls_41_rotated.json,1245676,1507880,39,Woman
28,871278,DepthScenes,duration_manipulation_targetAtFixation,jsons/v1_VE250_randls_41_rotated.json,http://54.235.29.9/FacialAge/BNav_EC2/DepthDuration/v2_depth_duration_MTurk/v2_DepthDuration_HTML.html#54,54,1517,631,1366,768,8-20-2022,16-5-52,29,depth_duration_stimuli/002153_2014-06-25_21-27-18_260595134347_rgbf000038-resize_5/002153_2014-06-25_21-27-18_260595134347_rgbf000038-resize_5-target.png,250,2.505,3,3621,261,feet,jsons/v1_VE250_randls_41_rotated.json,1245676,1507880,39,Woman
29,871278,DepthScenes,duration_manipulation_targetAtFixation,jsons/v1_VE250_randls_41_rotated.json,http://54.235.29.9/FacialAge/BNav_EC2/DepthDuration/v2_depth_duration_MTurk/v2_DepthDuration_HTML.html#54,54,1517,631,1366,768,8-20-2022,16-5-52,30,depth_duration_stimuli/002072_2014-06-24_21-48-06_260595134347_rgbf000115-resize_0/002072_2014-06-24_21-48-06_260595134347_rgbf000115-resize-original.jpg,250,4.702,0,8222,250,feet,jsons/v1_VE250_randls_41_rotated.json,1245676,1507880,39,Woman
30,871278,DepthScenes,duration_manipulation_targetAtFixation,jsons/v1_VE250_randls_41_rotated.json,http://54.235.29.9/FacialAge/BNav_EC2/DepthDuration/v2_depth_duration_MTurk/v2_DepthDuration_HTML.html#54,54,1517,631,1366,768,8-20-2022,16-5-52,31,depth_duration_stimuli/001094_2014-06-15_17-36-00_260595134347_rgbf000205-resize_0/001094_2014-06-15_17-36-00_260595134347_rgbf000205-resize_0-target.png,250,4.2175,3,3168,249,feet,jsons/v1_VE250_randls_41_rotated.json,1245676,1507880,39,Woman
31,871278,DepthScenes,duration_manipulation_targetAtFixation,jsons/v1_VE250_randls_41_rotated.json,http://54.235.29.9/FacialAge/BNav_EC2/DepthDuration/v2_depth_duration_MTurk/v2_DepthDuration_HTML.html#54,54,1517,631,1366,768,8-20-2022,16-5-52,32,depth_duration_stimuli/000692_2014-06-08_13-09-42_260595134347_rgbf000199-resize_2/000692_2014-06-08_13-09-42_260595134347_rgbf000199-resize_2-target.png,250,3.661,7,2853,248,feet,jsons/v1_VE250_randls_41_rotated.json,1245676,1507880,39,Woman
32,871278,DepthScenes,duration_manipulation_targetAtFixation,jsons/v1_VE250_randls_41_rotated.json,http://54.235.29.9/FacialAge/BNav_EC2/DepthDuration/v2_depth_duration_MTurk/v2_DepthDuration_HTML.html#54,54,1517,631,1366,768,8-20-2022,16-5-52,33,depth_duration_stimuli/001584_2014-06-20_11-07-43_260595134347_rgbf000002-resize_1/001584_2014-06-20_11-07-43_260595134347_rgbf000002-resize_1-target.png,250,3.53,4,2926,250,feet,jsons/v1_VE250_randls_41_rotated.json,1245676,1507880,39,Woman
33,871278,DepthScenes,duration_manipulation_targetAtFixation,jsons/v1_VE250_randls_41_rotated.json,http://54.235.29.9/FacialAge/BNav_EC2/DepthDuration/v2_depth_duration_MTurk/v2_DepthDuration_HTML.html#54,54,1517,631,1366,768,8-20-2022,16-5-52,34,depth_duration_stimuli/003621_2014-05-23_18-06-08_094959634447_rgbf000101-resize_1/003621_2014-05-23_18-06-08_094959634447_rgbf000101-resize_1-target.png,250,3.9835,6,21561,249,feet,jsons/v1_VE250_randls_41_rotated.json,1245676,1507880,39,Woman
34,871278,DepthScenes,duration_manipulation_targetAtFixation,jsons/v1_VE250_randls_41_rotated.json,http://54.235.29.9/FacialAge/BNav_EC2/DepthDuration/v2_depth_duration_MTurk/v2_DepthDuration_HTML.html#54,54,1517,631,1366,768,8-20-2022,16-5-52,35,depth_duration_stimuli/000943_2014-06-09_19-31-07_260595134347_rgbf000128-resize_1/000943_2014-06-09_19-31-07_260595134347_rgbf000128-resize_1-target.png,250,1.9765,3,3927,249,feet,jsons/v1_VE250_randls_41_rotated.json,1245676,1507880,39,Woman
35,871278,DepthScenes,duration_manipulation_targetAtFixation,jsons/v1_VE250_randls_41_rotated.json,http://54.235.29.9/FacialAge/BNav_EC2/DepthDuration/v2_depth_duration_MTurk/v2_DepthDuration_HTML.html#54,54,1517,631,1366,768,8-20-2022,16-5-52,36,depth_duration_stimuli/003070_2014-06-15_14-58-27_094959634447_rgbf000150-resize_3/003070_2014-06-15_14-58-27_094959634447_rgbf000150-resize_3-target.png,250,2.9415,4,4341,249,feet,jsons/v1_VE250_randls_41_rotated.json,1245676,1507880,39,Woman
36,871278,DepthScenes,duration_manipulation_targetAtFixation,jsons/v1_VE250_randls_41_rotated.json,http://54.235.29.9/FacialAge/BNav_EC2/DepthDuration/v2_depth_duration_MTurk/v2_DepthDuration_HTML.html#54,54,1517,631,1366,768,8-20-2022,16-5-52,37,depth_duration_stimuli/003079_2014-06-15_15-18-20_094959634447_rgbf000152-resize_8/003079_2014-06-15_15-18-20_094959634447_rgbf000152-resize_8-target.png,250,2.8775,5,3114,250,feet,jsons/v1_VE250_randls_41_rotated.json,1245676,1507880,39,Woman
37,871278,DepthScenes,duration_manipulation_targetAtFixation,jsons/v1_VE250_randls_41_rotated.json,http://54.235.29.9/FacialAge/BNav_EC2/DepthDuration/v2_depth_duration_MTurk/v2_DepthDuration_HTML.html#54,54,1517,631,1366,768,8-20-2022,16-5-52,38,depth_duration_stimuli/000506_2014-06-08_23-21-00_260595134347_rgbf000070-resize_7/000506_2014-06-08_23-21-00_260595134347_rgbf000070-resize_7-target.png,250,4.0585,6,3347,249,feet,jsons/v1_VE250_randls_41_rotated.json,1245676,1507880,39,Woman
38,871278,DepthScenes,duration_manipulation_targetAtFixation,jsons/v1_VE250_randls_41_rotated.json,http://54.235.29.9/FacialAge/BNav_EC2/DepthDuration/v2_depth_duration_MTurk/v2_DepthDuration_HTML.html#54,54,1517,631,1366,768,8-20-2022,16-5-52,39,depth_duration_stimuli/001571_2014-06-20_17-21-32_260595134347_rgbf000089-resize_1/001571_2014-06-20_17-21-32_260595134347_rgbf000089-resize_1-target.png,250,1.86,2,3633,249,feet,jsons/v1_VE250_randls_41_rotated.json,1245676,1507880,39,Woman
39,871278,DepthScenes,duration_manipulation_targetAtFixation,jsons/v1_VE250_randls_41_rotated.json,http://54.235.29.9/FacialAge/BNav_EC2/DepthDuration/v2_depth_duration_MTurk/v2_DepthDuration_HTML.html#54,54,1517,631,1366,768,8-20-2022,16-5-52,40,depth_duration_stimuli/002272_2014-06-28_18-53-56_260595134347_rgbf000067-resize_2/002272_2014-06-28_18-53-56_260595134347_rgbf000067-resize_2-target.png,250,1.138,1,3074,248,feet,jsons/v1_VE250_randls_41_rotated.json,1245676,1507880,39,Woman
40,871278,DepthScenes,duration_manipulation_targetAtFixation,jsons/v1_VE250_randls_41_rotated.json,http://54.235.29.9/FacialAge/BNav_EC2/DepthDuration/v2_depth_duration_MTurk/v2_DepthDuration_HTML.html#54,54,1517,631,1366,768,8-20-2022,16-5-52,41,depth_duration_stimuli/003083_2014-06-15_15-21-03_094959634447_rgbf000063-resize_1/003083_2014-06-15_15-21-03_094959634447_rgbf000063-resize_1-target.png,250,4.1405,4,2942,245,feet,jsons/v1_VE250_randls_41_rotated.json,1245676,1507880,39,Woman
41,871278,DepthScenes,duration_manipulation_targetAtFixation,jsons/v1_VE250_randls_41_rotated.json,http://54.235.29.9/FacialAge/BNav_EC2/DepthDuration/v2_depth_duration_MTurk/v2_DepthDuration_HTML.html#54,54,1517,631,1366,768,8-20-2022,16-5-52,42,depth_duration_stimuli/000486_2014-06-09_20-47-20_260595134347_rgbf000143-resize_2/000486_2014-06-09_20-47-20_260595134347_rgbf000143-resize_2-target.png,250,4.8325,5,65154,247,feet,jsons/v1_VE250_randls_41_rotated.json,1245676,1507880,39,Woman
42,871278,DepthScenes,duration_manipulation_targetAtFixation,jsons/v1_VE250_randls_41_rotated.json,http://54.235.29.9/FacialAge/BNav_EC2/DepthDuration/v2_depth_duration_MTurk/v2_DepthDuration_HTML.html#54,54,1517,631,1366,768,8-20-2022,16-5-52,43,depth_duration_stimuli/000502_2014-06-08_23-02-32_260595134347_rgbf000063-resize_4/000502_2014-06-08_23-02-32_260595134347_rgbf000063-resize_4-target.png,250,2.431,3,5695,248,feet,jsons/v1_VE250_randls_41_rotated.json,1245676,1507880,39,Woman
43,871278,DepthScenes,duration_manipulation_targetAtFixation,jsons/v1_VE250_randls_41_rotated.json,http://54.235.29.9/FacialAge/BNav_EC2/DepthDuration/v2_depth_duration_MTurk/v2_DepthDuration_HTML.html#54,54,1517,631,1366,768,8-20-2022,16-5-52,44,depth_duration_stimuli/001199_2014-06-17_16-03-48_260595134347_rgbf000077-resize_0/001199_2014-06-17_16-03-48_260595134347_rgbf000077-resize_0-target.png,250,3.4375,5,4189,250,feet,jsons/v1_VE250_randls_41_rotated.json,1245676,1507880,39,Woman
44,871278,DepthScenes,duration_manipulation_targetAtFixation,jsons/v1_VE250_randls_41_rotated.json,http://54.235.29.9/FacialAge/BNav_EC2/DepthDuration/v2_depth_duration_MTurk/v2_DepthDuration_HTML.html#54,54,1517,631,1366,768,8-20-2022,16-5-52,45,depth_duration_stimuli/000854_2014-06-09_19-43-13_260595134347_rgbf000066-resize_0/000854_2014-06-09_19-43-13_260595134347_rgbf000066-resize_0-target.png,250,3.068,2,8506,258,feet,jsons/v1_VE250_randls_41_rotated.json,1245676,1507880,39,Woman
45,871278,DepthScenes,duration_manipulation_targetAtFixation,jsons/v1_VE250_randls_41_rotated.json,http://54.235.29.9/FacialAge/BNav_EC2/DepthDuration/v2_depth_duration_MTurk/v2_DepthDuration_HTML.html#54,54,1517,631,1366,768,8-20-2022,16-5-52,46,depth_duration_stimuli/000758_2014-06-08_22-05-08_260595134347_rgbf000085-resize_0/000758_2014-06-08_22-05-08_260595134347_rgbf000085-resize_0-target.png,250,3.3810000000000002,4,4075,256,feet,jsons/v1_VE250_randls_41_rotated.json,1245676,1507880,39,Woman
46,871278,DepthScenes,duration_manipulation_targetAtFixation,jsons/v1_VE250_randls_41_rotated.json,http://54.235.29.9/FacialAge/BNav_EC2/DepthDuration/v2_depth_duration_MTurk/v2_DepthDuration_HTML.html#54,54,1517,631,1366,768,8-20-2022,16-5-52,47,depth_duration_stimuli/001450_2014-06-19_17-02-03_260595134347_rgbf000203-resize_4/001450_2014-06-19_17-02-03_260595134347_rgbf000203-resize_4-target.png,250,4.0106666666667,5,4328,249,feet,jsons/v1_VE250_randls_41_rotated.json,1245676,1507880,39,Woman
47,871278,DepthScenes,duration_manipulation_targetAtFixation,jsons/v1_VE250_randls_41_rotated.json,http://54.235.29.9/FacialAge/BNav_EC2/DepthDuration/v2_depth_duration_MTurk/v2_DepthDuration_HTML.html#54,54,1517,631,1366,768,8-20-2022,16-5-52,48,depth_duration_stimuli/001449_2014-06-19_17-01-27_260595134347_rgbf000116-resize_2/001449_2014-06-19_17-01-27_260595134347_rgbf000116-resize_2-target.png,250,3.452,3,4508,251,feet,jsons/v1_VE250_randls_41_rotated.json,1245676,1507880,39,Woman
48,871278,DepthScenes,duration_manipulation_targetAtFixation,jsons/v1_VE250_randls_41_rotated.json,http://54.235.29.9/FacialAge/BNav_EC2/DepthDuration/v2_depth_duration_MTurk/v2_DepthDuration_HTML.html#54,54,1517,631,1366,768,8-20-2022,16-5-52,49,depth_duration_stimuli/001170_2014-06-17_15-43-44_260595134347_rgbf000096-resize_6/001170_2014-06-17_15-43-44_260595134347_rgbf000096-resize-original.jpg,250,1.1909999999999998,0,4923,249,feet,jsons/v1_VE250_randls_41_rotated.json,1245676,1507880,39,Woman
49,871278,DepthScenes,duration_manipulation_targetAtFixation,jsons/v1_VE250_randls_41_rotated.json,http://54.235.29.9/FacialAge/BNav_EC2/DepthDuration/v2_depth_duration_MTurk/v2_DepthDuration_HTML.html#54,54,1517,631,1366,768,8-20-2022,16-5-52,50,depth_duration_stimuli/001132_2014-06-17_14-48-54_260595134347_rgbf000100-resize_2/001132_2014-06-17_14-48-54_260595134347_rgbf000100-resize_2-target.png,250,3.753,3,4417,242,feet,jsons/v1_VE250_randls_41_rotated.json,1245676,1507880,39,Woman
50,871278,DepthScenes,duration_manipulation_targetAtFixation,jsons/v1_VE250_randls_41_rotated.json,http://54.235.29.9/FacialAge/BNav_EC2/DepthDuration/v2_depth_duration_MTurk/v2_DepthDuration_HTML.html#54,54,1517,631,1366,768,8-20-2022,16-5-52,51,depth_duration_stimuli/001133_2014-06-17_14-49-16_260595134347_rgbf000100-resize_0/001133_2014-06-17_14-49-16_260595134347_rgbf000100-resize_0-target.png,250,4.2115,6,4627,248,feet,jsons/v1_VE250_randls_41_rotated.json,1245676,1507880,39,Woman
51,871278,DepthScenes,duration_manipulation_targetAtFixation,jsons/v1_VE250_randls_41_rotated.json,http://54.235.29.9/FacialAge/BNav_EC2/DepthDuration/v2_depth_duration_MTurk/v2_DepthDuration_HTML.html#54,54,1517,631,1366,768,8-20-2022,16-5-52,52,depth_duration_stimuli/000734_2014-06-08_17-39-11_260595134347_rgbf000128-resize_2/000734_2014-06-08_17-39-11_260595134347_rgbf000128-resize_2-target.png,250,4.098,5,6278,261,feet,jsons/v1_VE250_randls_41_rotated.json,1245676,1507880,39,Woman
52,871278,DepthScenes,duration_manipulation_targetAtFixation,jsons/v1_VE250_randls_41_rotated.json,http://54.235.29.9/FacialAge/BNav_EC2/DepthDuration/v2_depth_duration_MTurk/v2_DepthDuration_HTML.html#54,54,1517,631,1366,768,8-20-2022,16-5-52,53,depth_duration_stimuli/000739_2014-06-08_18-45-58_260595134347_rgbf000068-resize_1/000739_2014-06-08_18-45-58_260595134347_rgbf000068-resize_1-target.png,250,3.534,5,17381,250,feet,jsons/v1_VE250_randls_41_rotated.json,1245676,1507880,39,Woman
53,871278,DepthScenes,duration_manipulation_targetAtFixation,jsons/v1_VE250_randls_41_rotated.json,http://54.235.29.9/FacialAge/BNav_EC2/DepthDuration/v2_depth_duration_MTurk/v2_DepthDuration_HTML.html#54,54,1517,631,1366,768,8-20-2022,16-5-52,54,depth_duration_stimuli/002637_2014-06-24_14-51-13_094959634447_rgbf000066-resize_4/002637_2014-06-24_14-51-13_094959634447_rgbf000066-resize_4-target.png,250,1.9955,4,10434,248,feet,jsons/v1_VE250_randls_41_rotated.json,1245676,1507880,39,Woman
54,871278,DepthScenes,duration_manipulation_targetAtFixation,jsons/v1_VE250_randls_41_rotated.json,http://54.235.29.9/FacialAge/BNav_EC2/DepthDuration/v2_depth_duration_MTurk/v2_DepthDuration_HTML.html#54,54,1517,631,1366,768,8-20-2022,16-5-52,55,depth_duration_stimuli/003534_2014-05-22_15-06-10_094959634447_rgbf000102-resize_4/003534_2014-05-22_15-06-10_094959634447_rgbf000102-resize_4-target.png,250,1.426,2,17578,248,feet,jsons/v1_VE250_randls_41_rotated.json,1245676,1507880,39,Woman
55,871278,DepthScenes,duration_manipulation_targetAtFixation,jsons/v1_VE250_randls_41_rotated.json,http://54.235.29.9/FacialAge/BNav_EC2/DepthDuration/v2_depth_duration_MTurk/v2_DepthDuration_HTML.html#54,54,1517,631,1366,768,8-20-2022,16-5-52,56,depth_duration_stimuli/002136_2014-06-25_21-18-03_260595134347_rgbf000109-resize_3/002136_2014-06-25_21-18-03_260595134347_rgbf000109-resize_3-target.png,250,1.9569999999999999,3,26303,261,feet,jsons/v1_VE250_randls_41_rotated.json,1245676,1507880,39,Woman
56,871278,DepthScenes,duration_manipulation_targetAtFixation,jsons/v1_VE250_randls_41_rotated.json,http://54.235.29.9/FacialAge/BNav_EC2/DepthDuration/v2_depth_duration_MTurk/v2_DepthDuration_HTML.html#54,54,1517,631,1366,768,8-20-2022,16-5-52,57,depth_duration_stimuli/002964_2014-06-08_17-46-11_094959634447_rgbf000091-resize_4/002964_2014-06-08_17-46-11_094959634447_rgbf000091-resize_4-target.png,250,1.6909999999999998,2,8850,254,feet,jsons/v1_VE250_randls_41_rotated.json,1245676,1507880,39,Woman
57,871278,DepthScenes,duration_manipulation_targetAtFixation,jsons/v1_VE250_randls_41_rotated.json,http://54.235.29.9/FacialAge/BNav_EC2/DepthDuration/v2_depth_duration_MTurk/v2_DepthDuration_HTML.html#54,54,1517,631,1366,768,8-20-2022,16-5-52,58,depth_duration_stimuli/001815_2014-06-26_20-52-55_260595134347_rgbf000020-resize_0/001815_2014-06-26_20-52-55_260595134347_rgbf000020-resize_0-target.png,250,3.3865,4,4739,248,feet,jsons/v1_VE250_randls_41_rotated.json,1245676,1507880,39,Woman
58,871278,DepthScenes,duration_manipulation_targetAtFixation,jsons/v1_VE250_randls_41_rotated.json,http://54.235.29.9/FacialAge/BNav_EC2/DepthDuration/v2_depth_duration_MTurk/v2_DepthDuration_HTML.html#54,54,1517,631,1366,768,8-20-2022,16-5-52,59,depth_duration_stimuli/001808_2014-06-26_20-50-58_260595134347_rgbf000029-resize_1/001808_2014-06-26_20-50-58_260595134347_rgbf000029-resize_1-target.png,250,4.249,4,5418,248,feet,jsons/v1_VE250_randls_41_rotated.json,1245676,1507880,39,Woman
59,871278,DepthScenes,duration_manipulation_targetAtFixation,jsons/v1_VE250_randls_41_rotated.json,http://54.235.29.9/FacialAge/BNav_EC2/DepthDuration/v2_depth_duration_MTurk/v2_DepthDuration_HTML.html#54,54,1517,631,1366,768,8-20-2022,16-5-52,60,depth_duration_stimuli/002467_2014-06-28_20-38-07_260595134347_rgbf000026-resize_2/002467_2014-06-28_20-38-07_260595134347_rgbf000026-resize_2-target.png,250,4.742,6,5391,249,feet,jsons/v1_VE250_randls_41_rotated.json,1245676,1507880,39,Woman
60,871278,DepthScenes,duration_manipulation_targetAtFixation,jsons/v1_VE250_randls_41_rotated.json,http://54.235.29.9/FacialAge/BNav_EC2/DepthDuration/v2_depth_duration_MTurk/v2_DepthDuration_HTML.html#54,54,1517,631,1366,768,8-20-2022,16-5-52,61,depth_duration_stimuli/002570_2014-06-24_13-59-54_094959634447_rgbf000059-resize_0/002570_2014-06-24_13-59-54_094959634447_rgbf000059-resize_0-target.png,250,4.037,5,13212,249,feet,jsons/v1_VE250_randls_41_rotated.json,1245676,1507880,39,Woman
61,871278,DepthScenes,duration_manipulation_targetAtFixation,jsons/v1_VE250_randls_41_rotated.json,http://54.235.29.9/FacialAge/BNav_EC2/DepthDuration/v2_depth_duration_MTurk/v2_DepthDuration_HTML.html#54,54,1517,631,1366,768,8-20-2022,16-5-52,62,depth_duration_stimuli/002209_2014-06-28_18-36-10_260595134347_rgbf000051-resize_1/002209_2014-06-28_18-36-10_260595134347_rgbf000051-resize_1-target.png,250,2.057,4,14478,250,feet,jsons/v1_VE250_randls_41_rotated.json,1245676,1507880,39,Woman
62,871278,DepthScenes,duration_manipulation_targetAtFixation,jsons/v1_VE250_randls_41_rotated.json,http://54.235.29.9/FacialAge/BNav_EC2/DepthDuration/v2_depth_duration_MTurk/v2_DepthDuration_HTML.html#54,54,1517,631,1366,768,8-20-2022,16-5-52,63,depth_duration_stimuli/002763_2014-06-22_19-13-10_094959634447_rgbf000075-resize_4/002763_2014-06-22_19-13-10_094959634447_rgbf000075-resize_4-target.png,250,1.68375,3,36676,254,feet,jsons/v1_VE250_randls_41_rotated.json,1245676,1507880,39,Woman
63,871278,DepthScenes,duration_manipulation_targetAtFixation,jsons/v1_VE250_randls_41_rotated.json,http://54.235.29.9/FacialAge/BNav_EC2/DepthDuration/v2_depth_duration_MTurk/v2_DepthDuration_HTML.html#54,54,1517,631,1366,768,8-20-2022,16-5-52,64,depth_duration_stimuli/002758_2014-06-22_19-11-20_094959634447_rgbf000128-resize_1/002758_2014-06-22_19-11-20_094959634447_rgbf000128-resize_1-target.png,250,2.555,3,5593,250,feet,jsons/v1_VE250_randls_41_rotated.json,1245676,1507880,39,Woman
64,871278,DepthScenes,duration_manipulation_targetAtFixation,jsons/v1_VE250_randls_41_rotated.json,http://54.235.29.9/FacialAge/BNav_EC2/DepthDuration/v2_depth_duration_MTurk/v2_DepthDuration_HTML.html#54,54,1517,631,1366,768,8-20-2022,16-5-52,65,depth_duration_stimuli/002630_2014-06-24_14-47-50_094959634447_rgbf000055-resize_1/002630_2014-06-24_14-47-50_094959634447_rgbf000055-resize_1-target.png,250,3.0095,4,6801,249,feet,jsons/v1_VE250_randls_41_rotated.json,1245676,1507880,39,Woman
65,871278,DepthScenes,duration_manipulation_targetAtFixation,jsons/v1_VE250_randls_41_rotated.json,http://54.235.29.9/FacialAge/BNav_EC2/DepthDuration/v2_depth_duration_MTurk/v2_DepthDuration_HTML.html#54,54,1517,631,1366,768,8-20-2022,16-5-52,66,depth_duration_stimuli/001540_2014-06-20_17-01-05_260595134347_rgbf000086-resize_2/001540_2014-06-20_17-01-05_260595134347_rgbf000086-resize-original.jpg,250,1.459,0,6104,248,feet,jsons/v1_VE250_randls_41_rotated.json,1245676,1507880,39,Woman
66,871278,DepthScenes,duration_manipulation_targetAtFixation,jsons/v1_VE250_randls_41_rotated.json,http://54.235.29.9/FacialAge/BNav_EC2/DepthDuration/v2_depth_duration_MTurk/v2_DepthDuration_HTML.html#54,54,1517,631,1366,768,8-20-2022,16-5-52,67,depth_duration_stimuli/002875_2014-06-01_15-19-00_094959634447_rgbf000151-resize_1/002875_2014-06-01_15-19-00_094959634447_rgbf000151-resize_1-target.png,250,1.9675,3,8110,264,feet,jsons/v1_VE250_randls_41_rotated.json,1245676,1507880,39,Woman
67,871278,DepthScenes,duration_manipulation_targetAtFixation,jsons/v1_VE250_randls_41_rotated.json,http://54.235.29.9/FacialAge/BNav_EC2/DepthDuration/v2_depth_duration_MTurk/v2_DepthDuration_HTML.html#54,54,1517,631,1366,768,8-20-2022,16-5-52,68,depth_duration_stimuli/001011_2014-06-08_23-18-54_260595134347_rgbf000044-resize_4/001011_2014-06-08_23-18-54_260595134347_rgbf000044-resize_4-target.png,250,2.4730000000000003,5,6077,251,feet,jsons/v1_VE250_randls_41_rotated.json,1245676,1507880,39,Woman
68,871278,DepthScenes,duration_manipulation_targetAtFixation,jsons/v1_VE250_randls_41_rotated.json,http://54.235.29.9/FacialAge/BNav_EC2/DepthDuration/v2_depth_duration_MTurk/v2_DepthDuration_HTML.html#54,54,1517,631,1366,768,8-20-2022,16-5-52,69,depth_duration_stimuli/002323_2014-06-28_20-01-54_260595134347_rgbf000051-resize_4/002323_2014-06-28_20-01-54_260595134347_rgbf000051-resize_4-target.png,250,3.7310000000000003,7,6899,248,feet,jsons/v1_VE250_randls_41_rotated.json,1245676,1507880,39,Woman
69,871278,DepthScenes,duration_manipulation_targetAtFixation,jsons/v1_VE250_randls_41_rotated.json,http://54.235.29.9/FacialAge/BNav_EC2/DepthDuration/v2_depth_duration_MTurk/v2_DepthDuration_HTML.html#54,54,1517,631,1366,768,8-20-2022,16-5-52,70,depth_duration_stimuli/000917_2014-06-09_22-45-29_260595134347_rgbf000149-resize_3/000917_2014-06-09_22-45-29_260595134347_rgbf000149-resize_3-target.png,250,4.1865,6,5448,262,feet,jsons/v1_VE250_randls_41_rotated.json,1245676,1507880,39,Woman
70,871278,DepthScenes,duration_manipulation_targetAtFixation,jsons/v1_VE250_randls_41_rotated.json,http://54.235.29.9/FacialAge/BNav_EC2/DepthDuration/v2_depth_duration_MTurk/v2_DepthDuration_HTML.html#54,54,1517,631,1366,768,8-20-2022,16-5-52,71,depth_duration_stimuli/002949_2014-06-26_15-57-42_094959634447_rgbf000079-resize_1/002949_2014-06-26_15-57-42_094959634447_rgbf000079-resize_1-target.png,250,1.8915,3,5350,238,feet,jsons/v1_VE250_randls_41_rotated.json,1245676,1507880,39,Woman
71,871278,DepthScenes,duration_manipulation_targetAtFixation,jsons/v1_VE250_randls_41_rotated.json,http://54.235.29.9/FacialAge/BNav_EC2/DepthDuration/v2_depth_duration_MTurk/v2_DepthDuration_HTML.html#54,54,1517,631,1366,768,8-20-2022,16-5-52,72,depth_duration_stimuli/000522_2014-06-08_13-35-06_260595134347_rgbf000244-resize_1/000522_2014-06-08_13-35-06_260595134347_rgbf000244-resize_1-target.png,250,2.3715,2,8900,250,feet,jsons/v1_VE250_randls_41_rotated.json,1245676,1507880,39,Woman
72,871278,DepthScenes,duration_manipulation_targetAtFixation,jsons/v1_VE250_randls_41_rotated.json,http://54.235.29.9/FacialAge/BNav_EC2/DepthDuration/v2_depth_duration_MTurk/v2_DepthDuration_HTML.html#54,54,1517,631,1366,768,8-20-2022,16-5-52,73,depth_duration_stimuli/003129_2014-05-12_10-48-10_094959634447_rgbf000100-resize_0/003129_2014-05-12_10-48-10_094959634447_rgbf000100-resize_0-target.png,250,4.9305,6,5289,265,feet,jsons/v1_VE250_randls_41_rotated.json,1245676,1507880,39,Woman
73,871278,DepthScenes,duration_manipulation_targetAtFixation,jsons/v1_VE250_randls_41_rotated.json,http://54.235.29.9/FacialAge/BNav_EC2/DepthDuration/v2_depth_duration_MTurk/v2_DepthDuration_HTML.html#54,54,1517,631,1366,768,8-20-2022,16-5-52,74,depth_duration_stimuli/000414_2014-06-04_19-49-13_260595134347_rgbf000044-resize_0/000414_2014-06-04_19-49-13_260595134347_rgbf000044-resize_0-target.png,250,4.329,4,9756,252,feet,jsons/v1_VE250_randls_41_rotated.json,1245676,1507880,39,Woman
74,871278,DepthScenes,duration_manipulation_targetAtFixation,jsons/v1_VE250_randls_41_rotated.json,http://54.235.29.9/FacialAge/BNav_EC2/DepthDuration/v2_depth_duration_MTurk/v2_DepthDuration_HTML.html#54,54,1517,631,1366,768,8-20-2022,16-5-52,75,depth_duration_stimuli/000927_2014-06-09_16-32-30_260595134347_rgbf000123-resize_3/000927_2014-06-09_16-32-30_260595134347_rgbf000123-resize_3-target.png,250,2.6785,4,6386,249,feet,jsons/v1_VE250_randls_41_rotated.json,1245676,1507880,39,Woman
75,871278,DepthScenes,duration_manipulation_targetAtFixation,jsons/v1_VE250_randls_41_rotated.json,http://54.235.29.9/FacialAge/BNav_EC2/DepthDuration/v2_depth_duration_MTurk/v2_DepthDuration_HTML.html#54,54,1517,631,1366,768,8-20-2022,16-5-52,76,depth_duration_stimuli/001110_2014-06-15_17-25-28_260595134347_rgbf000150-resize_1/001110_2014-06-15_17-25-28_260595134347_rgbf000150-resize_1-target.png,250,1.7115,3,5049,249,feet,jsons/v1_VE250_randls_41_rotated.json,1245676,1507880,39,Woman
76,871278,DepthScenes,duration_manipulation_targetAtFixation,jsons/v1_VE250_randls_41_rotated.json,http://54.235.29.9/FacialAge/BNav_EC2/DepthDuration/v2_depth_duration_MTurk/v2_DepthDuration_HTML.html#54,54,1517,631,1366,768,8-20-2022,16-5-52,77,depth_duration_stimuli/003495_2014-05-21_16-01-51_094959634447_rgbf000100-resize_3/003495_2014-05-21_16-01-51_094959634447_rgbf000100-resize_3-target.png,250,1.6255,2,5429,249,feet,jsons/v1_VE250_randls_41_rotated.json,1245676,1507880,39,Woman
77,871278,DepthScenes,duration_manipulation_targetAtFixation,jsons/v1_VE250_randls_41_rotated.json,http://54.235.29.9/FacialAge/BNav_EC2/DepthDuration/v2_depth_duration_MTurk/v2_DepthDuration_HTML.html#54,54,1517,631,1366,768,8-20-2022,16-5-52,78,depth_duration_stimuli/001244_2014-06-17_16-47-45_260595134347_rgbf000030-resize_4/001244_2014-06-17_16-47-45_260595134347_rgbf000030-resize_4-target.png,250,2.0425,3,5809,247,feet,jsons/v1_VE250_randls_41_rotated.json,1245676,1507880,39,Woman
78,871278,DepthScenes,duration_manipulation_targetAtFixation,jsons/v1_VE250_randls_41_rotated.json,http://54.235.29.9/FacialAge/BNav_EC2/DepthDuration/v2_depth_duration_MTurk/v2_DepthDuration_HTML.html#54,54,1517,631,1366,768,8-20-2022,16-5-52,79,depth_duration_stimuli/002425_2014-06-28_20-27-29_260595134347_rgbf000031-resize_8/002425_2014-06-28_20-27-29_260595134347_rgbf000031-resize_8-target.png,250,3.8960000000000004,5,6449,259,feet,jsons/v1_VE250_randls_41_rotated.json,1245676,1507880,39,Woman
79,871278,DepthScenes,duration_manipulation_targetAtFixation,jsons/v1_VE250_randls_41_rotated.json,http://54.235.29.9/FacialAge/BNav_EC2/DepthDuration/v2_depth_duration_MTurk/v2_DepthDuration_HTML.html#54,54,1517,631,1366,768,8-20-2022,16-5-52,80,depth_duration_stimuli/000642_2014-06-08_16-59-25_260595134347_rgbf000098-resize_2/000642_2014-06-08_16-59-25_260595134347_rgbf000098-resize_2-target.png,250,2.8815,4,5387,248,feet,jsons/v1_VE250_randls_41_rotated.json,1245676,1507880,39,Woman
80,871278,DepthScenes,duration_manipulation_targetAtFixation,jsons/v1_VE250_randls_41_rotated.json,http://54.235.29.9/FacialAge/BNav_EC2/DepthDuration/v2_depth_duration_MTurk/v2_DepthDuration_HTML.html#54,54,1517,631,1366,768,8-20-2022,16-5-52,81,depth_duration_stimuli/002568_2014-06-24_13-59-21_094959634447_rgbf000062-resize_4/002568_2014-06-24_13-59-21_094959634447_rgbf000062-resize_4-target.png,250,3.015,6,5751,249,feet,jsons/v1_VE250_randls_41_rotated.json,1245676,1507880,39,Woman
81,871278,DepthScenes,duration_manipulation_targetAtFixation,jsons/v1_VE250_randls_41_rotated.json,http://54.235.29.9/FacialAge/BNav_EC2/DepthDuration/v2_depth_duration_MTurk/v2_DepthDuration_HTML.html#54,54,1517,631,1366,768,8-20-2022,16-5-52,82,depth_duration_stimuli/003492_2014-05-21_15-50-55_094959634447_rgbf000828-resize_1/003492_2014-05-21_15-50-55_094959634447_rgbf000828-resize_1-target.png,250,4.06875,8,4297,250,feet,jsons/v1_VE250_randls_41_rotated.json,1245676,1507880,39,Woman
82,871278,DepthScenes,duration_manipulation_targetAtFixation,jsons/v1_VE250_randls_41_rotated.json,http://54.235.29.9/FacialAge/BNav_EC2/DepthDuration/v2_depth_duration_MTurk/v2_DepthDuration_HTML.html#54,54,1517,631,1366,768,8-20-2022,16-5-52,83,depth_duration_stimuli/002414_2014-06-28_20-24-58_260595134347_rgbf000067-resize_4/002414_2014-06-28_20-24-58_260595134347_rgbf000067-resize_4-target.png,250,4.363,7,5374,250,feet,jsons/v1_VE250_randls_41_rotated.json,1245676,1507880,39,Woman
83,871278,DepthScenes,duration_manipulation_targetAtFixation,jsons/v1_VE250_randls_41_rotated.json,http://54.235.29.9/FacialAge/BNav_EC2/DepthDuration/v2_depth_duration_MTurk/v2_DepthDuration_HTML.html#54,54,1517,631,1366,768,8-20-2022,16-5-52,84,depth_duration_stimuli/000773_2014-06-08_22-24-54_260595134347_rgbf000093-resize_1/000773_2014-06-08_22-24-54_260595134347_rgbf000093-resize_1-target.png,250,4.973,8,4600,253,feet,jsons/v1_VE250_randls_41_rotated.json,1245676,1507880,39,Woman
84,871278,DepthScenes,duration_manipulation_targetAtFixation,jsons/v1_VE250_randls_41_rotated.json,http://54.235.29.9/FacialAge/BNav_EC2/DepthDuration/v2_depth_duration_MTurk/v2_DepthDuration_HTML.html#54,54,1517,631,1366,768,8-20-2022,16-5-52,85,depth_duration_stimuli/002805_2014-06-22_19-54-03_094959634447_rgbf000079-resize_1/002805_2014-06-22_19-54-03_094959634447_rgbf000079-resize_1-target.png,250,3.1439999999999997,6,4265,247,feet,jsons/v1_VE250_randls_41_rotated.json,1245676,1507880,39,Woman
85,871278,DepthScenes,duration_manipulation_targetAtFixation,jsons/v1_VE250_randls_41_rotated.json,http://54.235.29.9/FacialAge/BNav_EC2/DepthDuration/v2_depth_duration_MTurk/v2_DepthDuration_HTML.html#54,54,1517,631,1366,768,8-20-2022,16-5-52,86,depth_duration_stimuli/000906_2014-06-08_13-35-43_260595134347_rgbf000155-resize_1/000906_2014-06-08_13-35-43_260595134347_rgbf000155-resize_1-target.png,250,2.8489999999999998,6,5142,250,feet,jsons/v1_VE250_randls_41_rotated.json,1245676,1507880,39,Woman
86,871278,DepthScenes,duration_manipulation_targetAtFixation,jsons/v1_VE250_randls_41_rotated.json,http://54.235.29.9/FacialAge/BNav_EC2/DepthDuration/v2_depth_duration_MTurk/v2_DepthDuration_HTML.html#54,54,1517,631,1366,768,8-20-2022,16-5-52,87,depth_duration_stimuli/003048_2014-06-15_13-49-43_094959634447_rgbf000150-resize_1/003048_2014-06-15_13-49-43_094959634447_rgbf000150-resize_1-target.png,250,4.0035,5,5933,248,feet,jsons/v1_VE250_randls_41_rotated.json,1245676,1507880,39,Woman
87,871278,DepthScenes,duration_manipulation_targetAtFixation,jsons/v1_VE250_randls_41_rotated.json,http://54.235.29.9/FacialAge/BNav_EC2/DepthDuration/v2_depth_duration_MTurk/v2_DepthDuration_HTML.html#54,54,1517,631,1366,768,8-20-2022,16-5-52,88,depth_duration_stimuli/002043_2014-06-24_20-29-38_260595134347_rgbf000039-resize_4/002043_2014-06-24_20-29-38_260595134347_rgbf000039-resize_4-target.png,250,2.8435,5,6427,245,feet,jsons/v1_VE250_randls_41_rotated.json,1245676,1507880,39,Woman
88,871278,DepthScenes,duration_manipulation_targetAtFixation,jsons/v1_VE250_randls_41_rotated.json,http://54.235.29.9/FacialAge/BNav_EC2/DepthDuration/v2_depth_duration_MTurk/v2_DepthDuration_HTML.html#54,54,1517,631,1366,768,8-20-2022,16-5-52,89,depth_duration_stimuli/001100_2014-06-15_17-46-26_260595134347_rgbf000225-resize_2/001100_2014-06-15_17-46-26_260595134347_rgbf000225-resize_2-target.png,250,2.24,7,5731,249,feet,jsons/v1_VE250_randls_41_rotated.json,1245676,1507880,39,Woman
89,871278,DepthScenes,duration_manipulation_targetAtFixation,jsons/v1_VE250_randls_41_rotated.json,http://54.235.29.9/FacialAge/BNav_EC2/DepthDuration/v2_depth_duration_MTurk/v2_DepthDuration_HTML.html#54,54,1517,631,1366,768,8-20-2022,16-5-52,90,depth_duration_stimuli/002784_2014-06-22_19-26-30_094959634447_rgbf000083-resize_3/002784_2014-06-22_19-26-30_094959634447_rgbf000083-resize_3-target.png,250,1.8046666666667,3,8046,250,feet,jsons/v1_VE250_randls_41_rotated.json,1245676,1507880,39,Woman
90,871278,DepthScenes,duration_manipulation_targetAtFixation,jsons/v1_VE250_randls_41_rotated.json,http://54.235.29.9/FacialAge/BNav_EC2/DepthDuration/v2_depth_duration_MTurk/v2_DepthDuration_HTML.html#54,54,1517,631,1366,768,8-20-2022,16-5-52,91,depth_duration_stimuli/001235_2014-06-17_16-37-36_260595134347_rgbf000084-resize_4/001235_2014-06-17_16-37-36_260595134347_rgbf000084-resize_4-target.png,250,3.6605,4,6167,250,feet,jsons/v1_VE250_randls_41_rotated.json,1245676,1507880,39,Woman
91,871278,DepthScenes,duration_manipulation_targetAtFixation,jsons/v1_VE250_randls_41_rotated.json,http://54.235.29.9/FacialAge/BNav_EC2/DepthDuration/v2_depth_duration_MTurk/v2_DepthDuration_HTML.html#54,54,1517,631,1366,768,8-20-2022,16-5-52,92,depth_duration_stimuli/000788_2014-06-08_22-34-36_260595134347_rgbf000131-resize_1/000788_2014-06-08_22-34-36_260595134347_rgbf000131-resize_1-target.png,250,3.359,5,4988,248,feet,jsons/v1_VE250_randls_41_rotated.json,1245676,1507880,39,Woman
92,871278,DepthScenes,duration_manipulation_targetAtFixation,jsons/v1_VE250_randls_41_rotated.json,http://54.235.29.9/FacialAge/BNav_EC2/DepthDuration/v2_depth_duration_MTurk/v2_DepthDuration_HTML.html#54,54,1517,631,1366,768,8-20-2022,16-5-52,93,depth_duration_stimuli/000709_2014-06-08_13-51-55_260595134347_rgbf000068-resize_3/000709_2014-06-08_13-51-55_260595134347_rgbf000068-resize_3-target.png,250,1.8030000000000002,4,5894,255,feet,jsons/v1_VE250_randls_41_rotated.json,1245676,1507880,39,Woman
93,871278,DepthScenes,duration_manipulation_targetAtFixation,jsons/v1_VE250_randls_41_rotated.json,http://54.235.29.9/FacialAge/BNav_EC2/DepthDuration/v2_depth_duration_MTurk/v2_DepthDuration_HTML.html#54,54,1517,631,1366,768,8-20-2022,16-5-52,94,depth_duration_stimuli/002057_2014-06-24_21-00-13_260595134347_rgbf000120-resize_1/002057_2014-06-24_21-00-13_260595134347_rgbf000120-resize_1-target.png,250,2.967,5,26843,250,feet,jsons/v1_VE250_randls_41_rotated.json,1245676,1507880,39,Woman
94,871278,DepthScenes,duration_manipulation_targetAtFixation,jsons/v1_VE250_randls_41_rotated.json,http://54.235.29.9/FacialAge/BNav_EC2/DepthDuration/v2_depth_duration_MTurk/v2_DepthDuration_HTML.html#54,54,1517,631,1366,768,8-20-2022,16-5-52,95,depth_duration_stimuli/003010_2014-06-15_12-54-35_094959634447_rgbf000112-resize_0/003010_2014-06-15_12-54-35_094959634447_rgbf000112-resize_0-target.png,250,3.1185,5,5572,247,feet,jsons/v1_VE250_randls_41_rotated.json,1245676,1507880,39,Woman
95,871278,DepthScenes,duration_manipulation_targetAtFixation,jsons/v1_VE250_randls_41_rotated.json,http://54.235.29.9/FacialAge/BNav_EC2/DepthDuration/v2_depth_duration_MTurk/v2_DepthDuration_HTML.html#54,54,1517,631,1366,768,8-20-2022,16-5-52,96,depth_duration_stimuli/001810_2014-06-26_20-51-35_260595134347_rgbf000040-resize_3/001810_2014-06-26_20-51-35_260595134347_rgbf000040-resize_3-target.png,250,2.2525,3,6690,249,feet,jsons/v1_VE250_randls_41_rotated.json,1245676,1507880,39,Woman
96,871278,DepthScenes,duration_manipulation_targetAtFixation,jsons/v1_VE250_randls_41_rotated.json,http://54.235.29.9/FacialAge/BNav_EC2/DepthDuration/v2_depth_duration_MTurk/v2_DepthDuration_HTML.html#54,54,1517,631,1366,768,8-20-2022,16-5-52,97,depth_duration_stimuli/000137_2014-05-20_17-04-49_260595134347_rgbf000120-resize_1/000137_2014-05-20_17-04-49_260595134347_rgbf000120-resize_1-target.png,250,3.786,4,5584,248,feet,jsons/v1_VE250_randls_41_rotated.json,1245676,1507880,39,Woman
97,871278,DepthScenes,duration_manipulation_targetAtFixation,jsons/v1_VE250_randls_41_rotated.json,http://54.235.29.9/FacialAge/BNav_EC2/DepthDuration/v2_depth_duration_MTurk/v2_DepthDuration_HTML.html#54,54,1517,631,1366,768,8-20-2022,16-5-52,98,depth_duration_stimuli/000736_2014-06-08_18-24-15_260595134347_rgbf000206-resize_3/000736_2014-06-08_18-24-15_260595134347_rgbf000206-resize_3-target.png,250,3.515,4,6151,251,feet,jsons/v1_VE250_randls_41_rotated.json,1245676,1507880,39,Woman
98,871278,DepthScenes,duration_manipulation_targetAtFixation,jsons/v1_VE250_randls_41_rotated.json,http://54.235.29.9/FacialAge/BNav_EC2/DepthDuration/v2_depth_duration_MTurk/v2_DepthDuration_HTML.html#54,54,1517,631,1366,768,8-20-2022,16-5-52,99,depth_duration_stimuli/001222_2014-06-17_16-24-06_260595134347_rgbf000073-resize_0/001222_2014-06-17_16-24-06_260595134347_rgbf000073-resize-original.jpg,250,1.4385,0,4928,249,feet,jsons/v1_VE250_randls_41_rotated.json,1245676,1507880,39,Woman
99,871278,DepthScenes,duration_manipulation_targetAtFixation,jsons/v1_VE250_randls_41_rotated.json,http://54.235.29.9/FacialAge/BNav_EC2/DepthDuration/v2_depth_duration_MTurk/v2_DepthDuration_HTML.html#54,54,1517,631,1366,768,8-20-2022,16-5-52,100,depth_duration_stimuli/001828_2014-06-26_21-40-03_260595134347_rgbf000024-resize_0/001828_2014-06-26_21-40-03_260595134347_rgbf000024-resize_0-target.png,250,4.8260000000000005,4,5271,249,feet,jsons/v1_VE250_randls_41_rotated.json,1245676,1507880,39,Woman
100,871278,DepthScenes,duration_manipulation_targetAtFixation,jsons/v1_VE250_randls_41_rotated.json,http://54.235.29.9/FacialAge/BNav_EC2/DepthDuration/v2_depth_duration_MTurk/v2_DepthDuration_HTML.html#54,54,1517,631,1366,768,8-20-2022,16-5-52,101,depth_duration_stimuli/000009_2014-05-26_14-32-05_260595134347_rgbf000034-resize_3/000009_2014-05-26_14-32-05_260595134347_rgbf000034-resize_3-target.png,250,3.8715,6,7216,254,feet,jsons/v1_VE250_randls_41_rotated.json,1245676,1507880,39,Woman
101,871278,DepthScenes,duration_manipulation_targetAtFixation,jsons/v1_VE250_randls_41_rotated.json,http://54.235.29.9/FacialAge/BNav_EC2/DepthDuration/v2_depth_duration_MTurk/v2_DepthDuration_HTML.html#54,54,1517,631,1366,768,8-20-2022,16-5-52,102,depth_duration_stimuli/000635_2014-06-08_16-38-42_260595134347_rgbf000106-resize_1/000635_2014-06-08_16-38-42_260595134347_rgbf000106-resize_1-target.png,250,2.074,4,5613,251,feet,jsons/v1_VE250_randls_41_rotated.json,1245676,1507880,39,Woman
102,871278,DepthScenes,duration_manipulation_targetAtFixation,jsons/v1_VE250_randls_41_rotated.json,http://54.235.29.9/FacialAge/BNav_EC2/DepthDuration/v2_depth_duration_MTurk/v2_DepthDuration_HTML.html#54,54,1517,631,1366,768,8-20-2022,16-5-52,103,depth_duration_stimuli/002279_2014-06-28_18-55-32_260595134347_rgbf000040-resize_5/002279_2014-06-28_18-55-32_260595134347_rgbf000040-resize_5-target.png,250,1.5043333333333,3,12140,246,feet,jsons/v1_VE250_randls_41_rotated.json,1245676,1507880,39,Woman
103,871278,DepthScenes,duration_manipulation_targetAtFixation,jsons/v1_VE250_randls_41_rotated.json,http://54.235.29.9/FacialAge/BNav_EC2/DepthDuration/v2_depth_duration_MTurk/v2_DepthDuration_HTML.html#54,54,1517,631,1366,768,8-20-2022,16-5-52,104,depth_duration_stimuli/000191_2014-05-12_17-07-38_260595134347_rgbf000199-resize_0/000191_2014-05-12_17-07-38_260595134347_rgbf000199-resize_0-target.png,250,3.7995,6,5127,250,feet,jsons/v1_VE250_randls_41_rotated.json,1245676,1507880,39,Woman
104,871278,DepthScenes,duration_manipulation_targetAtFixation,jsons/v1_VE250_randls_41_rotated.json,http://54.235.29.9/FacialAge/BNav_EC2/DepthDuration/v2_depth_duration_MTurk/v2_DepthDuration_HTML.html#54,54,1517,631,1366,768,8-20-2022,16-5-52,105,depth_duration_stimuli/000493_2014-06-09_21-01-18_260595134347_rgbf000196-resize_3/000493_2014-06-09_21-01-18_260595134347_rgbf000196-resize_3-target.png,250,3.44,5,5456,247,feet,jsons/v1_VE250_randls_41_rotated.json,1245676,1507880,39,Woman
105,871278,DepthScenes,duration_manipulation_targetAtFixation,jsons/v1_VE250_randls_41_rotated.json,http://54.235.29.9/FacialAge/BNav_EC2/DepthDuration/v2_depth_duration_MTurk/v2_DepthDuration_HTML.html#54,54,1517,631,1366,768,8-20-2022,16-5-52,106,depth_duration_stimuli/000742_2014-06-08_18-48-09_260595134347_rgbf000164-resize_4/000742_2014-06-08_18-48-09_260595134347_rgbf000164-resize_4-target.png,250,4.632,8,4827,247,feet,jsons/v1_VE250_randls_41_rotated.json,1245676,1507880,39,Woman
106,871278,DepthScenes,duration_manipulation_targetAtFixation,jsons/v1_VE250_randls_41_rotated.json,http://54.235.29.9/FacialAge/BNav_EC2/DepthDuration/v2_depth_duration_MTurk/v2_DepthDuration_HTML.html#54,54,1517,631,1366,768,8-20-2022,16-5-52,107,depth_duration_stimuli/001066_2014-06-08_22-03-20_260595134347_rgbf000066-resize_4/001066_2014-06-08_22-03-20_260595134347_rgbf000066-resize_4-target.png,250,4.2330000000000005,7,4944,246,feet,jsons/v1_VE250_randls_41_rotated.json,1245676,1507880,39,Woman
107,871278,DepthScenes,duration_manipulation_targetAtFixation,jsons/v1_VE250_randls_41_rotated.json,http://54.235.29.9/FacialAge/BNav_EC2/DepthDuration/v2_depth_duration_MTurk/v2_DepthDuration_HTML.html#54,54,1517,631,1366,768,8-20-2022,16-5-52,108,depth_duration_stimuli/002103_2014-06-25_20-00-40_260595134347_rgbf000049-resize_0/002103_2014-06-25_20-00-40_260595134347_rgbf000049-resize_0-target.png,250,4.105,3,6121,250,feet,jsons/v1_VE250_randls_41_rotated.json,1245676,1507880,39,Woman
108,871278,DepthScenes,duration_manipulation_targetAtFixation,jsons/v1_VE250_randls_41_rotated.json,http://54.235.29.9/FacialAge/BNav_EC2/DepthDuration/v2_depth_duration_MTurk/v2_DepthDuration_HTML.html#54,54,1517,631,1366,768,8-20-2022,16-5-52,109,depth_duration_stimuli/002039_2014-06-24_20-22-38_260595134347_rgbf000084-resize_1/002039_2014-06-24_20-22-38_260595134347_rgbf000084-resize_1-target.png,250,4.408,5,5807,242,feet,jsons/v1_VE250_randls_41_rotated.json,1245676,1507880,39,Woman
109,871278,DepthScenes,duration_manipulation_targetAtFixation,jsons/v1_VE250_randls_41_rotated.json,http://54.235.29.9/FacialAge/BNav_EC2/DepthDuration/v2_depth_duration_MTurk/v2_DepthDuration_HTML.html#54,54,1517,631,1366,768,8-20-2022,16-5-52,110,depth_duration_stimuli/001516_2014-06-20_16-25-09_260595134347_rgbf000076-resize_2/001516_2014-06-20_16-25-09_260595134347_rgbf000076-resize_2-target.png,250,1.7445,4,4967,253,feet,jsons/v1_VE250_randls_41_rotated.json,1245676,1507880,39,Woman
110,871278,DepthScenes,duration_manipulation_targetAtFixation,jsons/v1_VE250_randls_41_rotated.json,http://54.235.29.9/FacialAge/BNav_EC2/DepthDuration/v2_depth_duration_MTurk/v2_DepthDuration_HTML.html#54,54,1517,631,1366,768,8-20-2022,16-5-52,111,depth_duration_stimuli/002118_2014-06-25_20-32-08_260595134347_rgbf000078-resize_1/002118_2014-06-25_20-32-08_260595134347_rgbf000078-resize_1-target.png,250,2.6460000000000004,5,6265,249,feet,jsons/v1_VE250_randls_41_rotated.json,1245676,1507880,39,Woman
111,871278,DepthScenes,duration_manipulation_targetAtFixation,jsons/v1_VE250_randls_41_rotated.json,http://54.235.29.9/FacialAge/BNav_EC2/DepthDuration/v2_depth_duration_MTurk/v2_DepthDuration_HTML.html#54,54,1517,631,1366,768,8-20-2022,16-5-52,112,depth_duration_stimuli/000409_2014-06-04_19-23-33_260595134347_rgbf000067-resize_0/000409_2014-06-04_19-23-33_260595134347_rgbf000067-resize_0-target.png,250,3.7335,6,5259,248,feet,jsons/v1_VE250_randls_41_rotated.json,1245676,1507880,39,Woman
112,871278,DepthScenes,duration_manipulation_targetAtFixation,jsons/v1_VE250_randls_41_rotated.json,http://54.235.29.9/FacialAge/BNav_EC2/DepthDuration/v2_depth_duration_MTurk/v2_DepthDuration_HTML.html#54,54,1517,631,1366,768,8-20-2022,16-5-52,113,depth_duration_stimuli/002663_2014-06-13_15-50-26_094959634447_rgbf000075-resize_1/002663_2014-06-13_15-50-26_094959634447_rgbf000075-resize_1-target.png,250,4.7495,6,5563,254,feet,jsons/v1_VE250_randls_41_rotated.json,1245676,1507880,39,Woman
113,871278,DepthScenes,duration_manipulation_targetAtFixation,jsons/v1_VE250_randls_41_rotated.json,http://54.235.29.9/FacialAge/BNav_EC2/DepthDuration/v2_depth_duration_MTurk/v2_DepthDuration_HTML.html#54,54,1517,631,1366,768,8-20-2022,16-5-52,114,depth_duration_stimuli/000109_2014-05-14_23-41-52_260595134347_rgbf000035-resize_9/000109_2014-05-14_23-41-52_260595134347_rgbf000035-resize_9-target.png,250,1.3545,3,5081,247,feet,jsons/v1_VE250_randls_41_rotated.json,1245676,1507880,39,Woman
114,871278,DepthScenes,duration_manipulation_targetAtFixation,jsons/v1_VE250_randls_41_rotated.json,http://54.235.29.9/FacialAge/BNav_EC2/DepthDuration/v2_depth_duration_MTurk/v2_DepthDuration_HTML.html#54,54,1517,631,1366,768,8-20-2022,16-5-52,115,depth_duration_stimuli/000470_2014-06-09_19-42-40_260595134347_rgbf000094-resize_1/000470_2014-06-09_19-42-40_260595134347_rgbf000094-resize_1-target.png,250,1.831,2,5813,247,feet,jsons/v1_VE250_randls_41_rotated.json,1245676,1507880,39,Woman
115,871278,DepthScenes,duration_manipulation_targetAtFixation,jsons/v1_VE250_randls_41_rotated.json,http://54.235.29.9/FacialAge/BNav_EC2/DepthDuration/v2_depth_duration_MTurk/v2_DepthDuration_HTML.html#54,54,1517,631,1366,768,8-20-2022,16-5-52,116,depth_duration_stimuli/001617_2014-06-20_11-35-32_260595134347_rgbf000066-resize_1/001617_2014-06-20_11-35-32_260595134347_rgbf000066-resize_1-target.png,250,3.7910000000000004,6,4748,247,feet,jsons/v1_VE250_randls_41_rotated.json,1245676,1507880,39,Woman
116,871278,DepthScenes,duration_manipulation_targetAtFixation,jsons/v1_VE250_randls_41_rotated.json,http://54.235.29.9/FacialAge/BNav_EC2/DepthDuration/v2_depth_duration_MTurk/v2_DepthDuration_HTML.html#54,54,1517,631,1366,768,8-20-2022,16-5-52,117,depth_duration_stimuli/001806_2014-06-26_20-50-20_260595134347_rgbf000091-resize_1/001806_2014-06-26_20-50-20_260595134347_rgbf000091-resize_1-target.png,250,2.7305,3,5324,247,feet,jsons/v1_VE250_randls_41_rotated.json,1245676,1507880,39,Woman
117,871278,DepthScenes,duration_manipulation_targetAtFixation,jsons/v1_VE250_randls_41_rotated.json,http://54.235.29.9/FacialAge/BNav_EC2/DepthDuration/v2_depth_duration_MTurk/v2_DepthDuration_HTML.html#54,54,1517,631,1366,768,8-20-2022,16-5-52,118,depth_duration_stimuli/001392_2014-06-19_16-07-59_260595134347_rgbf000046-resize_1/001392_2014-06-19_16-07-59_260595134347_rgbf000046-resize_1-target.png,250,4.135,6,4907,240,feet,jsons/v1_VE250_randls_41_rotated.json,1245676,1507880,39,Woman
118,871278,DepthScenes,duration_manipulation_targetAtFixation,jsons/v1_VE250_randls_41_rotated.json,http://54.235.29.9/FacialAge/BNav_EC2/DepthDuration/v2_depth_duration_MTurk/v2_DepthDuration_HTML.html#54,54,1517,631,1366,768,8-20-2022,16-5-52,119,depth_duration_stimuli/001570_2014-06-20_17-21-09_260595134347_rgbf000135-resize_4/001570_2014-06-20_17-21-09_260595134347_rgbf000135-resize_4-target.png,250,4.467,5,5340,247,feet,jsons/v1_VE250_randls_41_rotated.json,1245676,1507880,39,Woman
119,871278,DepthScenes,duration_manipulation_targetAtFixation,jsons/v1_VE250_randls_41_rotated.json,http://54.235.29.9/FacialAge/BNav_EC2/DepthDuration/v2_depth_duration_MTurk/v2_DepthDuration_HTML.html#54,54,1517,631,1366,768,8-20-2022,16-5-52,120,depth_duration_stimuli/000787_2014-06-08_22-33-53_260595134347_rgbf000175-resize_1/000787_2014-06-08_22-33-53_260595134347_rgbf000175-resize-original.jpg,250,4.784,0,5366,245,feet,jsons/v1_VE250_randls_41_rotated.json,1245676,1507880,39,Woman
120,871278,DepthScenes,duration_manipulation_targetAtFixation,jsons/v1_VE250_randls_41_rotated.json,http://54.235.29.9/FacialAge/BNav_EC2/DepthDuration/v2_depth_duration_MTurk/v2_DepthDuration_HTML.html#54,54,1517,631,1366,768,8-20-2022,16-5-52,121,depth_duration_stimuli/003423_2014-05-21_10-23-26_094959634447_rgbf002665-resize_2/003423_2014-05-21_10-23-26_094959634447_rgbf002665-resize_2-target.png,250,3.2575,5,5052,247,feet,jsons/v1_VE250_randls_41_rotated.json,1245676,1507880,39,Woman
121,871278,DepthScenes,duration_manipulation_targetAtFixation,jsons/v1_VE250_randls_41_rotated.json,http://54.235.29.9/FacialAge/BNav_EC2/DepthDuration/v2_depth_duration_MTurk/v2_DepthDuration_HTML.html#54,54,1517,631,1366,768,8-20-2022,16-5-52,122,depth_duration_stimuli/002905_2014-06-03_18-04-43_094959634447_rgbf000151-resize_2/002905_2014-06-03_18-04-43_094959634447_rgbf000151-resize_2-target.png,250,2.0295,3,5347,249,feet,jsons/v1_VE250_randls_41_rotated.json,1245676,1507880,39,Woman
122,871278,DepthScenes,duration_manipulation_targetAtFixation,jsons/v1_VE250_randls_41_rotated.json,http://54.235.29.9/FacialAge/BNav_EC2/DepthDuration/v2_depth_duration_MTurk/v2_DepthDuration_HTML.html#54,54,1517,631,1366,768,8-20-2022,16-5-52,123,depth_duration_stimuli/000556_2014-06-09_22-42-56_260595134347_rgbf000214-resize_1/000556_2014-06-09_22-42-56_260595134347_rgbf000214-resize_1-target.png,250,4.8415,7,5504,249,feet,jsons/v1_VE250_randls_41_rotated.json,1245676,1507880,39,Woman
123,871278,DepthScenes,duration_manipulation_targetAtFixation,jsons/v1_VE250_randls_41_rotated.json,http://54.235.29.9/FacialAge/BNav_EC2/DepthDuration/v2_depth_duration_MTurk/v2_DepthDuration_HTML.html#54,54,1517,631,1366,768,8-20-2022,16-5-52,124,depth_duration_stimuli/001158_2014-06-17_15-32-16_260595134347_rgbf000138-resize_2/001158_2014-06-17_15-32-16_260595134347_rgbf000138-resize_2-target.png,250,4.5315,6,8407,248,feet,jsons/v1_VE250_randls_41_rotated.json,1245676,1507880,39,Woman
124,871278,DepthScenes,duration_manipulation_targetAtFixation,jsons/v1_VE250_randls_41_rotated.json,http://54.235.29.9/FacialAge/BNav_EC2/DepthDuration/v2_depth_duration_MTurk/v2_DepthDuration_HTML.html#54,54,1517,631,1366,768,8-20-2022,16-5-52,125,depth_duration_stimuli/000103_2014-05-14_22-01-17_260595134347_rgbf000152-resize_5/000103_2014-05-14_22-01-17_260595134347_rgbf000152-resize_5-target.png,250,1.993,6,5361,248,feet,jsons/v1_VE250_randls_41_rotated.json,1245676,1507880,39,Woman
125,871278,DepthScenes,duration_manipulation_targetAtFixation,jsons/v1_VE250_randls_41_rotated.json,http://54.235.29.9/FacialAge/BNav_EC2/DepthDuration/v2_depth_duration_MTurk/v2_DepthDuration_HTML.html#54,54,1517,631,1366,768,8-20-2022,16-5-52,126,depth_duration_stimuli/001555_2014-06-20_17-12-10_260595134347_rgbf000065-resize_4/001555_2014-06-20_17-12-10_260595134347_rgbf000065-resize_4-target.png,250,1.633,2,6157,258,feet,jsons/v1_VE250_randls_41_rotated.json,1245676,1507880,39,Woman
126,871278,DepthScenes,duration_manipulation_targetAtFixation,jsons/v1_VE250_randls_41_rotated.json,http://54.235.29.9/FacialAge/BNav_EC2/DepthDuration/v2_depth_duration_MTurk/v2_DepthDuration_HTML.html#54,54,1517,631,1366,768,8-20-2022,16-5-52,127,depth_duration_stimuli/002639_2014-06-24_14-51-37_094959634447_rgbf000074-resize_4/002639_2014-06-24_14-51-37_094959634447_rgbf000074-resize_4-target.png,250,4.0375,5,5537,246,feet,jsons/v1_VE250_randls_41_rotated.json,1245676,1507880,39,Woman
127,871278,DepthScenes,duration_manipulation_targetAtFixation,jsons/v1_VE250_randls_41_rotated.json,http://54.235.29.9/FacialAge/BNav_EC2/DepthDuration/v2_depth_duration_MTurk/v2_DepthDuration_HTML.html#54,54,1517,631,1366,768,8-20-2022,16-5-52,128,depth_duration_stimuli/003292_2014-05-14_21-53-49_094959634447_rgbf000100-resize_2/003292_2014-05-14_21-53-49_094959634447_rgbf000100-resize_2-target.png,250,3.4815,4,18381,250,feet,jsons/v1_VE250_randls_41_rotated.json,1245676,1507880,39,Woman
128,871278,DepthScenes,duration_manipulation_targetAtFixation,jsons/v1_VE250_randls_41_rotated.json,http://54.235.29.9/FacialAge/BNav_EC2/DepthDuration/v2_depth_duration_MTurk/v2_DepthDuration_HTML.html#54,54,1517,631,1366,768,8-20-2022,16-5-52,129,depth_duration_stimuli/000665_2014-06-09_20-42-35_260595134347_rgbf000110-resize_1/000665_2014-06-09_20-42-35_260595134347_rgbf000110-resize_1-target.png,250,3.057,4,7030,249,feet,jsons/v1_VE250_randls_41_rotated.json,1245676,1507880,39,Woman
129,871278,DepthScenes,duration_manipulation_targetAtFixation,jsons/v1_VE250_randls_41_rotated.json,http://54.235.29.9/FacialAge/BNav_EC2/DepthDuration/v2_depth_duration_MTurk/v2_DepthDuration_HTML.html#54,54,1517,631,1366,768,8-20-2022,16-5-52,130,depth_duration_stimuli/001150_2014-06-17_15-27-34_260595134347_rgbf000108-resize_2/001150_2014-06-17_15-27-34_260595134347_rgbf000108-resize_2-target.png,250,4.0325,6,6870,248,feet,jsons/v1_VE250_randls_41_rotated.json,1245676,1507880,39,Woman
130,871278,DepthScenes,duration_manipulation_targetAtFixation,jsons/v1_VE250_randls_41_rotated.json,http://54.235.29.9/FacialAge/BNav_EC2/DepthDuration/v2_depth_duration_MTurk/v2_DepthDuration_HTML.html#54,54,1517,631,1366,768,8-20-2022,16-5-52,131,depth_duration_stimuli/001214_2014-06-17_16-13-55_260595134347_rgbf000111-resize_0/001214_2014-06-17_16-13-55_260595134347_rgbf000111-resize_0-target.png,250,2.6505,4,5284,249,feet,jsons/v1_VE250_randls_41_rotated.json,1245676,1507880,39,Woman
131,871278,DepthScenes,duration_manipulation_targetAtFixation,jsons/v1_VE250_randls_41_rotated.json,http://54.235.29.9/FacialAge/BNav_EC2/DepthDuration/v2_depth_duration_MTurk/v2_DepthDuration_HTML.html#54,54,1517,631,1366,768,8-20-2022,16-5-52,132,depth_duration_stimuli/000810_2014-06-08_17-20-01_260595134347_rgbf000105-resize_0/000810_2014-06-08_17-20-01_260595134347_rgbf000105-resize_0-target.png,250,1.4865,3,5186,248,feet,jsons/v1_VE250_randls_41_rotated.json,1245676,1507880,39,Woman
132,871278,DepthScenes,duration_manipulation_targetAtFixation,jsons/v1_VE250_randls_41_rotated.json,http://54.235.29.9/FacialAge/BNav_EC2/DepthDuration/v2_depth_duration_MTurk/v2_DepthDuration_HTML.html#54,54,1517,631,1366,768,8-20-2022,16-5-52,133,depth_duration_stimuli/002995_2014-06-15_12-31-26_094959634447_rgbf000150-resize_1/002995_2014-06-15_12-31-26_094959634447_rgbf000150-resize_1-target.png,250,3.8360000000000003,7,6460,248,feet,jsons/v1_VE250_randls_41_rotated.json,1245676,1507880,39,Woman
133,871278,DepthScenes,duration_manipulation_targetAtFixation,jsons/v1_VE250_randls_41_rotated.json,http://54.235.29.9/FacialAge/BNav_EC2/DepthDuration/v2_depth_duration_MTurk/v2_DepthDuration_HTML.html#54,54,1517,631,1366,768,8-20-2022,16-5-52,134,depth_duration_stimuli/002748_2014-06-22_19-07-22_094959634447_rgbf000078-resize_1/002748_2014-06-22_19-07-22_094959634447_rgbf000078-resize_1-target.png,250,4.6705,7,5200,247,feet,jsons/v1_VE250_randls_41_rotated.json,1245676,1507880,39,Woman
134,871278,DepthScenes,duration_manipulation_targetAtFixation,jsons/v1_VE250_randls_41_rotated.json,http://54.235.29.9/FacialAge/BNav_EC2/DepthDuration/v2_depth_duration_MTurk/v2_DepthDuration_HTML.html#54,54,1517,631,1366,768,8-20-2022,16-5-52,135,depth_duration_stimuli/000375_2014-06-08_11-17-29_260595134347_rgbf000133-resize_2/000375_2014-06-08_11-17-29_260595134347_rgbf000133-resize-original.jpg,250,4.718,0,9234,249,feet,jsons/v1_VE250_randls_41_rotated.json,1245676,1507880,39,Woman
135,871278,DepthScenes,duration_manipulation_targetAtFixation,jsons/v1_VE250_randls_41_rotated.json,http://54.235.29.9/FacialAge/BNav_EC2/DepthDuration/v2_depth_duration_MTurk/v2_DepthDuration_HTML.html#54,54,1517,631,1366,768,8-20-2022,16-5-52,136,depth_duration_stimuli/001136_2014-06-17_15-19-41_260595134347_rgbf000076-resize_3/001136_2014-06-17_15-19-41_260595134347_rgbf000076-resize_3-target.png,250,1.8655,6,6169,248,feet,jsons/v1_VE250_randls_41_rotated.json,1245676,1507880,39,Woman
136,871278,DepthScenes,duration_manipulation_targetAtFixation,jsons/v1_VE250_randls_41_rotated.json,http://54.235.29.9/FacialAge/BNav_EC2/DepthDuration/v2_depth_duration_MTurk/v2_DepthDuration_HTML.html#54,54,1517,631,1366,768,8-20-2022,16-5-52,137,depth_duration_stimuli/001164_2014-06-17_15-35-46_260595134347_rgbf000085-resize_3/001164_2014-06-17_15-35-46_260595134347_rgbf000085-resize_3-target.png,250,2.354,4,5359,250,feet,jsons/v1_VE250_randls_41_rotated.json,1245676,1507880,39,Woman
137,871278,DepthScenes,duration_manipulation_targetAtFixation,jsons/v1_VE250_randls_41_rotated.json,http://54.235.29.9/FacialAge/BNav_EC2/DepthDuration/v2_depth_duration_MTurk/v2_DepthDuration_HTML.html#54,54,1517,631,1366,768,8-20-2022,16-5-52,138,depth_duration_stimuli/003490_2014-05-21_15-50-11_094959634447_rgbf000101-resize_3/003490_2014-05-21_15-50-11_094959634447_rgbf000101-resize_3-target.png,250,3.6445,5,5222,249,feet,jsons/v1_VE250_randls_41_rotated.json,1245676,1507880,39,Woman
138,871278,DepthScenes,duration_manipulation_targetAtFixation,jsons/v1_VE250_randls_41_rotated.json,http://54.235.29.9/FacialAge/BNav_EC2/DepthDuration/v2_depth_duration_MTurk/v2_DepthDuration_HTML.html#54,54,1517,631,1366,768,8-20-2022,16-5-52,139,depth_duration_stimuli/001175_2014-06-17_15-45-55_260595134347_rgbf000129-resize_4/001175_2014-06-17_15-45-55_260595134347_rgbf000129-resize_4-target.png,250,4.255,7,4381,250,feet,jsons/v1_VE250_randls_41_rotated.json,1245676,1507880,39,Woman
139,871278,DepthScenes,duration_manipulation_targetAtFixation,jsons/v1_VE250_randls_41_rotated.json,http://54.235.29.9/FacialAge/BNav_EC2/DepthDuration/v2_depth_duration_MTurk/v2_DepthDuration_HTML.html#54,54,1517,631,1366,768,8-20-2022,16-5-52,140,depth_duration_stimuli/003228_2014-05-14_13-42-35_094959634447_rgbf000101-resize_1/003228_2014-05-14_13-42-35_094959634447_rgbf000101-resize_1-target.png,250,1.9680000000000002,3,14884,250,feet,jsons/v1_VE250_randls_41_rotated.json,1245676,1507880,39,Woman
140,871278,DepthScenes,duration_manipulation_targetAtFixation,jsons/v1_VE250_randls_41_rotated.json,http://54.235.29.9/FacialAge/BNav_EC2/DepthDuration/v2_depth_duration_MTurk/v2_DepthDuration_HTML.html#54,54,1517,631,1366,768,8-20-2022,16-5-52,141,depth_duration_stimuli/002600_2014-06-24_14-27-04_094959634447_rgbf000074-resize_2/002600_2014-06-24_14-27-04_094959634447_rgbf000074-resize_2-target.png,250,2.7575,4,5594,249,feet,jsons/v1_VE250_randls_41_rotated.json,1245676,1507880,39,Woman
141,871278,DepthScenes,duration_manipulation_targetAtFixation,jsons/v1_VE250_randls_41_rotated.json,http://54.235.29.9/FacialAge/BNav_EC2/DepthDuration/v2_depth_duration_MTurk/v2_DepthDuration_HTML.html#54,54,1517,631,1366,768,8-20-2022,16-5-52,142,depth_duration_stimuli/002444_2014-06-28_20-32-08_260595134347_rgbf000027-resize_0/002444_2014-06-28_20-32-08_260595134347_rgbf000027-resize_0-target.png,250,4.388999999999999,6,5634,251,feet,jsons/v1_VE250_randls_41_rotated.json,1245676,1507880,39,Woman
142,871278,DepthScenes,duration_manipulation_targetAtFixation,jsons/v1_VE250_randls_41_rotated.json,http://54.235.29.9/FacialAge/BNav_EC2/DepthDuration/v2_depth_duration_MTurk/v2_DepthDuration_HTML.html#54,54,1517,631,1366,768,8-20-2022,16-5-52,143,depth_duration_stimuli/000436_2014-06-09_22-25-11_260595134347_rgbf000137-resize_1/000436_2014-06-09_22-25-11_260595134347_rgbf000137-resize_1-target.png,250,4.0705,7,5098,248,feet,jsons/v1_VE250_randls_41_rotated.json,1245676,1507880,39,Woman
143,871278,DepthScenes,duration_manipulation_targetAtFixation,jsons/v1_VE250_randls_41_rotated.json,http://54.235.29.9/FacialAge/BNav_EC2/DepthDuration/v2_depth_duration_MTurk/v2_DepthDuration_HTML.html#54,54,1517,631,1366,768,8-20-2022,16-5-52,144,depth_duration_stimuli/000749_2014-06-08_21-55-06_260595134347_rgbf000070-resize_2/000749_2014-06-08_21-55-06_260595134347_rgbf000070-resize_2-target.png,250,2.331,6,5483,252,feet,jsons/v1_VE250_randls_41_rotated.json,1245676,1507880,39,Woman
144,871278,DepthScenes,duration_manipulation_targetAtFixation,jsons/v1_VE250_randls_41_rotated.json,http://54.235.29.9/FacialAge/BNav_EC2/DepthDuration/v2_depth_duration_MTurk/v2_DepthDuration_HTML.html#54,54,1517,631,1366,768,8-20-2022,16-5-52,145,depth_duration_stimuli/002788_2014-06-22_19-36-03_094959634447_rgbf000088-resize_2/002788_2014-06-22_19-36-03_094959634447_rgbf000088-resize_2-target.png,250,1.6465,5,45756,248,feet,jsons/v1_VE250_randls_41_rotated.json,1245676,1507880,39,Woman
145,871278,DepthScenes,duration_manipulation_targetAtFixation,jsons/v1_VE250_randls_41_rotated.json,http://54.235.29.9/FacialAge/BNav_EC2/DepthDuration/v2_depth_duration_MTurk/v2_DepthDuration_HTML.html#54,54,1517,631,1366,768,8-20-2022,16-5-52,146,depth_duration_stimuli/002340_2014-06-28_20-05-46_260595134347_rgbf000113-resize_0/002340_2014-06-28_20-05-46_260595134347_rgbf000113-resize_0-target.png,250,2.4735,5,7857,248,feet,jsons/v1_VE250_randls_41_rotated.json,1245676,1507880,39,Woman
146,871278,DepthScenes,duration_manipulation_targetAtFixation,jsons/v1_VE250_randls_41_rotated.json,http://54.235.29.9/FacialAge/BNav_EC2/DepthDuration/v2_depth_duration_MTurk/v2_DepthDuration_HTML.html#54,54,1517,631,1366,768,8-20-2022,16-5-52,147,depth_duration_stimuli/001016_2014-06-09_16-16-10_260595134347_rgbf000112-resize_5/001016_2014-06-09_16-16-10_260595134347_rgbf000112-resize_5-target.png,250,1.6565,4,6186,247,feet,jsons/v1_VE250_randls_41_rotated.json,1245676,1507880,39,Woman
147,871278,DepthScenes,duration_manipulation_targetAtFixation,jsons/v1_VE250_randls_41_rotated.json,http://54.235.29.9/FacialAge/BNav_EC2/DepthDuration/v2_depth_duration_MTurk/v2_DepthDuration_HTML.html#54,54,1517,631,1366,768,8-20-2022,16-5-52,148,depth_duration_stimuli/002657_2014-06-13_15-29-54_094959634447_rgbf000150-resize_1/002657_2014-06-13_15-29-54_094959634447_rgbf000150-resize_1-target.png,250,4.919,7,6117,247,feet,jsons/v1_VE250_randls_41_rotated.json,1245676,1507880,39,Woman
148,871278,DepthScenes,duration_manipulation_targetAtFixation,jsons/v1_VE250_randls_41_rotated.json,http://54.235.29.9/FacialAge/BNav_EC2/DepthDuration/v2_depth_duration_MTurk/v2_DepthDuration_HTML.html#54,54,1517,631,1366,768,8-20-2022,16-5-52,149,depth_duration_stimuli/002375_2014-06-28_20-13-44_260595134347_rgbf000032-resize_1/002375_2014-06-28_20-13-44_260595134347_rgbf000032-resize_1-target.png,250,4.0175,6,23292,249,feet,jsons/v1_VE250_randls_41_rotated.json,1245676,1507880,39,Woman
149,871278,DepthScenes,duration_manipulation_targetAtFixation,jsons/v1_VE250_randls_41_rotated.json,http://54.235.29.9/FacialAge/BNav_EC2/DepthDuration/v2_depth_duration_MTurk/v2_DepthDuration_HTML.html#54,54,1517,631,1366,768,8-20-2022,16-5-52,150,depth_duration_stimuli/001447_2014-06-19_17-00-32_260595134347_rgbf000082-resize_5/001447_2014-06-19_17-00-32_260595134347_rgbf000082-resize_5-target.png,250,4.13775,5,10418,250,feet,jsons/v1_VE250_randls_41_rotated.json,1245676,1507880,39,Woman
150,871278,DepthScenes,duration_manipulation_targetAtFixation,jsons/v1_VE250_randls_41_rotated.json,http://54.235.29.9/FacialAge/BNav_EC2/DepthDuration/v2_depth_duration_MTurk/v2_DepthDuration_HTML.html#54,54,1517,631,1366,768,8-20-2022,16-5-52,151,depth_duration_stimuli/000447_2014-06-08_16-15-46_260595134347_rgbf000130-resize_1/000447_2014-06-08_16-15-46_260595134347_rgbf000130-resize_1-target.png,250,4.479,6,6790,263,feet,jsons/v1_VE250_randls_41_rotated.json,1245676,1507880,39,Woman
151,871278,DepthScenes,duration_manipulation_targetAtFixation,jsons/v1_VE250_randls_41_rotated.json,http://54.235.29.9/FacialAge/BNav_EC2/DepthDuration/v2_depth_duration_MTurk/v2_DepthDuration_HTML.html#54,54,1517,631,1366,768,8-20-2022,16-5-52,152,depth_duration_stimuli/000569_2014-06-09_22-51-47_260595134347_rgbf000141-resize_3/000569_2014-06-09_22-51-47_260595134347_rgbf000141-resize-original.jpg,250,4.512,0,4814,264,feet,jsons/v1_VE250_randls_41_rotated.json,1245676,1507880,39,Woman
152,871278,DepthScenes,duration_manipulation_targetAtFixation,jsons/v1_VE250_randls_41_rotated.json,http://54.235.29.9/FacialAge/BNav_EC2/DepthDuration/v2_depth_duration_MTurk/v2_DepthDuration_HTML.html#54,54,1517,631,1366,768,8-20-2022,16-5-52,153,depth_duration_stimuli/000457_2014-06-08_16-52-43_260595134347_rgbf000199-resize_1/000457_2014-06-08_16-52-43_260595134347_rgbf000199-resize_1-target.png,250,3.6489999999999996,5,5130,253,feet,jsons/v1_VE250_randls_41_rotated.json,1245676,1507880,39,Woman
153,871278,DepthScenes,duration_manipulation_targetAtFixation,jsons/v1_VE250_randls_41_rotated.json,http://54.235.29.9/FacialAge/BNav_EC2/DepthDuration/v2_depth_duration_MTurk/v2_DepthDuration_HTML.html#54,54,1517,631,1366,768,8-20-2022,16-5-52,154,depth_duration_stimuli/000929_2014-06-09_16-33-19_260595134347_rgbf000139-resize_0/000929_2014-06-09_16-33-19_260595134347_rgbf000139-resize_0-target.png,250,2.8680000000000003,4,4667,247,feet,jsons/v1_VE250_randls_41_rotated.json,1245676,1507880,39,Woman
154,871278,DepthScenes,duration_manipulation_targetAtFixation,jsons/v1_VE250_randls_41_rotated.json,http://54.235.29.9/FacialAge/BNav_EC2/DepthDuration/v2_depth_duration_MTurk/v2_DepthDuration_HTML.html#54,54,1517,631,1366,768,8-20-2022,16-5-52,155,depth_duration_stimuli/000780_2014-06-08_22-28-29_260595134347_rgbf000126-resize_1/000780_2014-06-08_22-28-29_260595134347_rgbf000126-resize_1-target.png,250,3.3825,5,5280,250,feet,jsons/v1_VE250_randls_41_rotated.json,1245676,1507880,39,Woman
155,871278,DepthScenes,duration_manipulation_targetAtFixation,jsons/v1_VE250_randls_41_rotated.json,http://54.235.29.9/FacialAge/BNav_EC2/DepthDuration/v2_depth_duration_MTurk/v2_DepthDuration_HTML.html#54,54,1517,631,1366,768,8-20-2022,16-5-52,156,depth_duration_stimuli/002445_2014-06-28_20-32-16_260595134347_rgbf000029-resize_4/002445_2014-06-28_20-32-16_260595134347_rgbf000029-resize_4-target.png,250,2.5315,3,5563,246,feet,jsons/v1_VE250_randls_41_rotated.json,1245676,1507880,39,Woman
156,871278,DepthScenes,duration_manipulation_targetAtFixation,jsons/v1_VE250_randls_41_rotated.json,http://54.235.29.9/FacialAge/BNav_EC2/DepthDuration/v2_depth_duration_MTurk/v2_DepthDuration_HTML.html#54,54,1517,631,1366,768,8-20-2022,16-5-52,157,depth_duration_stimuli/003587_2014-05-23_16-48-02_094959634447_rgbf002384-resize_2/003587_2014-05-23_16-48-02_094959634447_rgbf002384-resize_2-target.png,250,1.357,2,5327,249,feet,jsons/v1_VE250_randls_41_rotated.json,1245676,1507880,39,Woman
157,871278,DepthScenes,duration_manipulation_targetAtFixation,jsons/v1_VE250_randls_41_rotated.json,http://54.235.29.9/FacialAge/BNav_EC2/DepthDuration/v2_depth_duration_MTurk/v2_DepthDuration_HTML.html#54,54,1517,631,1366,768,8-20-2022,16-5-52,158,depth_duration_stimuli/001167_2014-06-17_15-38-07_260595134347_rgbf000108-resize_0/001167_2014-06-17_15-38-07_260595134347_rgbf000108-resize_0-target.png,250,1.8505,2,7617,249,feet,jsons/v1_VE250_randls_41_rotated.json,1245676,1507880,39,Woman
158,871278,DepthScenes,duration_manipulation_targetAtFixation,jsons/v1_VE250_randls_41_rotated.json,http://54.235.29.9/FacialAge/BNav_EC2/DepthDuration/v2_depth_duration_MTurk/v2_DepthDuration_HTML.html#54,54,1517,631,1366,768,8-20-2022,16-5-52,159,depth_duration_stimuli/003338_2014-05-20_11-01-23_094959634447_rgbf000051-resize_6/003338_2014-05-20_11-01-23_094959634447_rgbf000051-resize_6-target.png,250,1.693,2,5733,264,feet,jsons/v1_VE250_randls_41_rotated.json,1245676,1507880,39,Woman
159,871278,DepthScenes,duration_manipulation_targetAtFixation,jsons/v1_VE250_randls_41_rotated.json,http://54.235.29.9/FacialAge/BNav_EC2/DepthDuration/v2_depth_duration_MTurk/v2_DepthDuration_HTML.html#54,54,1517,631,1366,768,8-20-2022,16-5-52,160,depth_duration_stimuli/002509_2014-06-24_13-19-22_094959634447_rgbf000077-resize_0/002509_2014-06-24_13-19-22_094959634447_rgbf000077-resize_0-target.png,250,1.3065,2,6962,248,feet,jsons/v1_VE250_randls_41_rotated.json,1245676,1507880,39,Woman
160,871278,DepthScenes,duration_manipulation_targetAtFixation,jsons/v1_VE250_randls_41_rotated.json,http://54.235.29.9/FacialAge/BNav_EC2/DepthDuration/v2_depth_duration_MTurk/v2_DepthDuration_HTML.html#54,54,1517,631,1366,768,8-20-2022,16-5-52,161,depth_duration_stimuli/000549_2014-06-08_22-10-24_260595134347_rgbf000247-resize_3/000549_2014-06-08_22-10-24_260595134347_rgbf000247-resize_3-target.png,250,1.841,2,5463,249,feet,jsons/v1_VE250_randls_41_rotated.json,1245676,1507880,39,Woman
161,871278,DepthScenes,duration_manipulation_targetAtFixation,jsons/v1_VE250_randls_41_rotated.json,http://54.235.29.9/FacialAge/BNav_EC2/DepthDuration/v2_depth_duration_MTurk/v2_DepthDuration_HTML.html#54,54,1517,631,1366,768,8-20-2022,16-5-52,162,depth_duration_stimuli/001055_2014-06-08_18-45-35_260595134347_rgbf000111-resize_4/001055_2014-06-08_18-45-35_260595134347_rgbf000111-resize_4-target.png,250,2.4290000000000003,4,4886,250,feet,jsons/v1_VE250_randls_41_rotated.json,1245676,1507880,39,Woman
162,871278,DepthScenes,duration_manipulation_targetAtFixation,jsons/v1_VE250_randls_41_rotated.json,http://54.235.29.9/FacialAge/BNav_EC2/DepthDuration/v2_depth_duration_MTurk/v2_DepthDuration_HTML.html#54,54,1517,631,1366,768,8-20-2022,16-5-52,163,depth_duration_stimuli/000691_2014-06-08_13-08-50_260595134347_rgbf000132-resize_3/000691_2014-06-08_13-08-50_260595134347_rgbf000132-resize_3-target.png,250,4.1530000000000005,5,4541,272,feet,jsons/v1_VE250_randls_41_rotated.json,1245676,1507880,39,Woman
163,871278,DepthScenes,duration_manipulation_targetAtFixation,jsons/v1_VE250_randls_41_rotated.json,http://54.235.29.9/FacialAge/BNav_EC2/DepthDuration/v2_depth_duration_MTurk/v2_DepthDuration_HTML.html#54,54,1517,631,1366,768,8-20-2022,16-5-52,164,depth_duration_stimuli/002213_2014-06-28_18-37-58_260595134347_rgbf000055-resize_1/002213_2014-06-28_18-37-58_260595134347_rgbf000055-resize_1-target.png,250,3.62,6,5115,248,feet,jsons/v1_VE250_randls_41_rotated.json,1245676,1507880,39,Woman
