,subjID,experimentName,versionName,sequenceName,url,selected_row,windowWidth,windowHeight,screenWidth,screenHeight,startDate,startTime,trial,stimulus,duration,actual_depth,depth_estimate,trial_RT,log_sceneDuration,unitSelection,seq_filepath,experimentTime,totalTime,age,gender
0,872827,DepthScenes,duration_manipulation_targetAtFixation,jsons/v1_VE250_randls_61.json,http://54.235.29.9/FacialAge/BNav_EC2/DepthDuration/v2_depth_duration_MTurk/v2_DepthDuration_HTML.html#381,381,1200,900,800,600,10-7-2022,14-17-56,1,depth_duration_stimuli/000447_2014-06-08_16-15-46_260595134347_rgbf000130-resize_1/000447_2014-06-08_16-15-46_260595134347_rgbf000130-resize_1-target.png,250,4.479,3,4594,238,feet,jsons/v1_VE250_randls_61.json,1143528,1886598,34,Man
1,872827,DepthScenes,duration_manipulation_targetAtFixation,jsons/v1_VE250_randls_61.json,http://54.235.29.9/FacialAge/BNav_EC2/DepthDuration/v2_depth_duration_MTurk/v2_DepthDuration_HTML.html#381,381,1200,900,800,600,10-7-2022,14-17-56,2,depth_duration_stimuli/001447_2014-06-19_17-00-32_260595134347_rgbf000082-resize_5/001447_2014-06-19_17-00-32_260595134347_rgbf000082-resize_5-target.png,250,4.13775,2,4299,305,feet,jsons/v1_VE250_randls_61.json,1143528,1886598,34,Man
2,872827,DepthScenes,duration_manipulation_targetAtFixation,jsons/v1_VE250_randls_61.json,http://54.235.29.9/FacialAge/BNav_EC2/DepthDuration/v2_depth_duration_MTurk/v2_DepthDuration_HTML.html#381,381,1200,900,800,600,10-7-2022,14-17-56,3,depth_duration_stimuli/001244_2014-06-17_16-47-45_260595134347_rgbf000030-resize_4/001244_2014-06-17_16-47-45_260595134347_rgbf000030-resize_4-target.png,250,2.0425,2,4752,248,feet,jsons/v1_VE250_randls_61.json,1143528,1886598,34,Man
3,872827,DepthScenes,duration_manipulation_targetAtFixation,jsons/v1_VE250_randls_61.json,http://54.235.29.9/FacialAge/BNav_EC2/DepthDuration/v2_depth_duration_MTurk/v2_DepthDuration_HTML.html#381,381,1200,900,800,600,10-7-2022,14-17-56,4,depth_duration_stimuli/003495_2014-05-21_16-01-51_094959634447_rgbf000100-resize_3/003495_2014-05-21_16-01-51_094959634447_rgbf000100-resize_3-target.png,250,1.6255,1,3930,245,feet,jsons/v1_VE250_randls_61.json,1143528,1886598,34,Man
4,872827,DepthScenes,duration_manipulation_targetAtFixation,jsons/v1_VE250_randls_61.json,http://54.235.29.9/FacialAge/BNav_EC2/DepthDuration/v2_depth_duration_MTurk/v2_DepthDuration_HTML.html#381,381,1200,900,800,600,10-7-2022,14-17-56,5,depth_duration_stimuli/001066_2014-06-08_22-03-20_260595134347_rgbf000066-resize_4/001066_2014-06-08_22-03-20_260595134347_rgbf000066-resize_4-target.png,250,4.2330000000000005,3,3537,247,feet,jsons/v1_VE250_randls_61.json,1143528,1886598,34,Man
5,872827,DepthScenes,duration_manipulation_targetAtFixation,jsons/v1_VE250_randls_61.json,http://54.235.29.9/FacialAge/BNav_EC2/DepthDuration/v2_depth_duration_MTurk/v2_DepthDuration_HTML.html#381,381,1200,900,800,600,10-7-2022,14-17-56,6,depth_duration_stimuli/000742_2014-06-08_18-48-09_260595134347_rgbf000164-resize_4/000742_2014-06-08_18-48-09_260595134347_rgbf000164-resize_4-target.png,250,4.632,2,3260,243,feet,jsons/v1_VE250_randls_61.json,1143528,1886598,34,Man
6,872827,DepthScenes,duration_manipulation_targetAtFixation,jsons/v1_VE250_randls_61.json,http://54.235.29.9/FacialAge/BNav_EC2/DepthDuration/v2_depth_duration_MTurk/v2_DepthDuration_HTML.html#381,381,1200,900,800,600,10-7-2022,14-17-56,7,depth_duration_stimuli/002905_2014-06-03_18-04-43_094959634447_rgbf000151-resize_2/002905_2014-06-03_18-04-43_094959634447_rgbf000151-resize_2-target.png,250,2.0295,1,4891,263,feet,jsons/v1_VE250_randls_61.json,1143528,1886598,34,Man
7,872827,DepthScenes,duration_manipulation_targetAtFixation,jsons/v1_VE250_randls_61.json,http://54.235.29.9/FacialAge/BNav_EC2/DepthDuration/v2_depth_duration_MTurk/v2_DepthDuration_HTML.html#381,381,1200,900,800,600,10-7-2022,14-17-56,8,depth_duration_stimuli/003423_2014-05-21_10-23-26_094959634447_rgbf002665-resize_2/003423_2014-05-21_10-23-26_094959634447_rgbf002665-resize_2-target.png,250,3.2575,4,3211,249,feet,jsons/v1_VE250_randls_61.json,1143528,1886598,34,Man
8,872827,DepthScenes,duration_manipulation_targetAtFixation,jsons/v1_VE250_randls_61.json,http://54.235.29.9/FacialAge/BNav_EC2/DepthDuration/v2_depth_duration_MTurk/v2_DepthDuration_HTML.html#381,381,1200,900,800,600,10-7-2022,14-17-56,9,depth_duration_stimuli/000692_2014-06-08_13-09-42_260595134347_rgbf000199-resize_2/000692_2014-06-08_13-09-42_260595134347_rgbf000199-resize_2-target.png,250,3.661,5,5593,232,feet,jsons/v1_VE250_randls_61.json,1143528,1886598,34,Man
9,872827,DepthScenes,duration_manipulation_targetAtFixation,jsons/v1_VE250_randls_61.json,http://54.235.29.9/FacialAge/BNav_EC2/DepthDuration/v2_depth_duration_MTurk/v2_DepthDuration_HTML.html#381,381,1200,900,800,600,10-7-2022,14-17-56,10,depth_duration_stimuli/001094_2014-06-15_17-36-00_260595134347_rgbf000205-resize_0/001094_2014-06-15_17-36-00_260595134347_rgbf000205-resize_0-target.png,250,4.2175,0,3657,198,feet,jsons/v1_VE250_randls_61.json,1143528,1886598,34,Man
10,872827,DepthScenes,duration_manipulation_targetAtFixation,jsons/v1_VE250_randls_61.json,http://54.235.29.9/FacialAge/BNav_EC2/DepthDuration/v2_depth_duration_MTurk/v2_DepthDuration_HTML.html#381,381,1200,900,800,600,10-7-2022,14-17-56,11,depth_duration_stimuli/002600_2014-06-24_14-27-04_094959634447_rgbf000074-resize_2/002600_2014-06-24_14-27-04_094959634447_rgbf000074-resize_2-target.png,250,2.7575,2,3733,259,feet,jsons/v1_VE250_randls_61.json,1143528,1886598,34,Man
11,872827,DepthScenes,duration_manipulation_targetAtFixation,jsons/v1_VE250_randls_61.json,http://54.235.29.9/FacialAge/BNav_EC2/DepthDuration/v2_depth_duration_MTurk/v2_DepthDuration_HTML.html#381,381,1200,900,800,600,10-7-2022,14-17-56,12,depth_duration_stimuli/003228_2014-05-14_13-42-35_094959634447_rgbf000101-resize_1/003228_2014-05-14_13-42-35_094959634447_rgbf000101-resize_1-target.png,250,1.9680000000000002,6,4853,259,feet,jsons/v1_VE250_randls_61.json,1143528,1886598,34,Man
12,872827,DepthScenes,duration_manipulation_targetAtFixation,jsons/v1_VE250_randls_61.json,http://54.235.29.9/FacialAge/BNav_EC2/DepthDuration/v2_depth_duration_MTurk/v2_DepthDuration_HTML.html#381,381,1200,900,800,600,10-7-2022,14-17-56,13,depth_duration_stimuli/000569_2014-06-09_22-51-47_260595134347_rgbf000141-resize_3/000569_2014-06-09_22-51-47_260595134347_rgbf000141-resize-original.jpg,250,4.512,0,3166,249,feet,jsons/v1_VE250_randls_61.json,1143528,1886598,34,Man
13,872827,DepthScenes,duration_manipulation_targetAtFixation,jsons/v1_VE250_randls_61.json,http://54.235.29.9/FacialAge/BNav_EC2/DepthDuration/v2_depth_duration_MTurk/v2_DepthDuration_HTML.html#381,381,1200,900,800,600,10-7-2022,14-17-56,14,depth_duration_stimuli/001449_2014-06-19_17-01-27_260595134347_rgbf000116-resize_2/001449_2014-06-19_17-01-27_260595134347_rgbf000116-resize_2-target.png,250,3.452,2,3051,247,feet,jsons/v1_VE250_randls_61.json,1143528,1886598,34,Man
14,872827,DepthScenes,duration_manipulation_targetAtFixation,jsons/v1_VE250_randls_61.json,http://54.235.29.9/FacialAge/BNav_EC2/DepthDuration/v2_depth_duration_MTurk/v2_DepthDuration_HTML.html#381,381,1200,900,800,600,10-7-2022,14-17-56,15,depth_duration_stimuli/001450_2014-06-19_17-02-03_260595134347_rgbf000203-resize_4/001450_2014-06-19_17-02-03_260595134347_rgbf000203-resize_4-target.png,250,4.0106666666667,0,3262,238,feet,jsons/v1_VE250_randls_61.json,1143528,1886598,34,Man
15,872827,DepthScenes,duration_manipulation_targetAtFixation,jsons/v1_VE250_randls_61.json,http://54.235.29.9/FacialAge/BNav_EC2/DepthDuration/v2_depth_duration_MTurk/v2_DepthDuration_HTML.html#381,381,1200,900,800,600,10-7-2022,14-17-56,16,depth_duration_stimuli/002725_2014-06-22_11-47-51_094959634447_rgbf000070-resize_1/002725_2014-06-22_11-47-51_094959634447_rgbf000070-resize_1-target.png,250,2.195,2,3427,252,feet,jsons/v1_VE250_randls_61.json,1143528,1886598,34,Man
16,872827,DepthScenes,duration_manipulation_targetAtFixation,jsons/v1_VE250_randls_61.json,http://54.235.29.9/FacialAge/BNav_EC2/DepthDuration/v2_depth_duration_MTurk/v2_DepthDuration_HTML.html#381,381,1200,900,800,600,10-7-2022,14-17-56,17,depth_duration_stimuli/002344_2014-06-28_20-06-29_260595134347_rgbf000030-resize_1/002344_2014-06-28_20-06-29_260595134347_rgbf000030-resize_1-target.png,250,1.5795,3,2914,212,feet,jsons/v1_VE250_randls_61.json,1143528,1886598,34,Man
17,872827,DepthScenes,duration_manipulation_targetAtFixation,jsons/v1_VE250_randls_61.json,http://54.235.29.9/FacialAge/BNav_EC2/DepthDuration/v2_depth_duration_MTurk/v2_DepthDuration_HTML.html#381,381,1200,900,800,600,10-7-2022,14-17-56,18,depth_duration_stimuli/002213_2014-06-28_18-37-58_260595134347_rgbf000055-resize_1/002213_2014-06-28_18-37-58_260595134347_rgbf000055-resize_1-target.png,250,3.62,5,3345,247,feet,jsons/v1_VE250_randls_61.json,1143528,1886598,34,Man
18,872827,DepthScenes,duration_manipulation_targetAtFixation,jsons/v1_VE250_randls_61.json,http://54.235.29.9/FacialAge/BNav_EC2/DepthDuration/v2_depth_duration_MTurk/v2_DepthDuration_HTML.html#381,381,1200,900,800,600,10-7-2022,14-17-56,19,depth_duration_stimuli/000691_2014-06-08_13-08-50_260595134347_rgbf000132-resize_3/000691_2014-06-08_13-08-50_260595134347_rgbf000132-resize_3-target.png,250,4.1530000000000005,4,3110,249,feet,jsons/v1_VE250_randls_61.json,1143528,1886598,34,Man
19,872827,DepthScenes,duration_manipulation_targetAtFixation,jsons/v1_VE250_randls_61.json,http://54.235.29.9/FacialAge/BNav_EC2/DepthDuration/v2_depth_duration_MTurk/v2_DepthDuration_HTML.html#381,381,1200,900,800,600,10-7-2022,14-17-56,20,depth_duration_stimuli/000436_2014-06-09_22-25-11_260595134347_rgbf000137-resize_1/000436_2014-06-09_22-25-11_260595134347_rgbf000137-resize_1-target.png,250,4.0705,6,6484,235,feet,jsons/v1_VE250_randls_61.json,1143528,1886598,34,Man
20,872827,DepthScenes,duration_manipulation_targetAtFixation,jsons/v1_VE250_randls_61.json,http://54.235.29.9/FacialAge/BNav_EC2/DepthDuration/v2_depth_duration_MTurk/v2_DepthDuration_HTML.html#381,381,1200,900,800,600,10-7-2022,14-17-56,21,depth_duration_stimuli/002444_2014-06-28_20-32-08_260595134347_rgbf000027-resize_0/002444_2014-06-28_20-32-08_260595134347_rgbf000027-resize_0-target.png,250,4.388999999999999,5,3701,294,feet,jsons/v1_VE250_randls_61.json,1143528,1886598,34,Man
21,872827,DepthScenes,duration_manipulation_targetAtFixation,jsons/v1_VE250_randls_61.json,http://54.235.29.9/FacialAge/BNav_EC2/DepthDuration/v2_depth_duration_MTurk/v2_DepthDuration_HTML.html#381,381,1200,900,800,600,10-7-2022,14-17-56,22,depth_duration_stimuli/000758_2014-06-08_22-05-08_260595134347_rgbf000085-resize_0/000758_2014-06-08_22-05-08_260595134347_rgbf000085-resize_0-target.png,250,3.3810000000000002,7,6231,427,feet,jsons/v1_VE250_randls_61.json,1143528,1886598,34,Man
22,872827,DepthScenes,duration_manipulation_targetAtFixation,jsons/v1_VE250_randls_61.json,http://54.235.29.9/FacialAge/BNav_EC2/DepthDuration/v2_depth_duration_MTurk/v2_DepthDuration_HTML.html#381,381,1200,900,800,600,10-7-2022,14-17-56,23,depth_duration_stimuli/000854_2014-06-09_19-43-13_260595134347_rgbf000066-resize_0/000854_2014-06-09_19-43-13_260595134347_rgbf000066-resize_0-target.png,250,3.068,5,4047,264,feet,jsons/v1_VE250_randls_61.json,1143528,1886598,34,Man
23,872827,DepthScenes,duration_manipulation_targetAtFixation,jsons/v1_VE250_randls_61.json,http://54.235.29.9/FacialAge/BNav_EC2/DepthDuration/v2_depth_duration_MTurk/v2_DepthDuration_HTML.html#381,381,1200,900,800,600,10-7-2022,14-17-56,24,depth_duration_stimuli/001570_2014-06-20_17-21-09_260595134347_rgbf000135-resize_4/001570_2014-06-20_17-21-09_260595134347_rgbf000135-resize_4-target.png,250,4.467,4,4085,273,feet,jsons/v1_VE250_randls_61.json,1143528,1886598,34,Man
24,872827,DepthScenes,duration_manipulation_targetAtFixation,jsons/v1_VE250_randls_61.json,http://54.235.29.9/FacialAge/BNav_EC2/DepthDuration/v2_depth_duration_MTurk/v2_DepthDuration_HTML.html#381,381,1200,900,800,600,10-7-2022,14-17-56,25,depth_duration_stimuli/001392_2014-06-19_16-07-59_260595134347_rgbf000046-resize_1/001392_2014-06-19_16-07-59_260595134347_rgbf000046-resize_1-target.png,250,4.135,0,3906,247,feet,jsons/v1_VE250_randls_61.json,1143528,1886598,34,Man
25,872827,DepthScenes,duration_manipulation_targetAtFixation,jsons/v1_VE250_randls_61.json,http://54.235.29.9/FacialAge/BNav_EC2/DepthDuration/v2_depth_duration_MTurk/v2_DepthDuration_HTML.html#381,381,1200,900,800,600,10-7-2022,14-17-56,26,depth_duration_stimuli/000682_2014-06-08_23-14-58_260595134347_rgbf000041-resize_5/000682_2014-06-08_23-14-58_260595134347_rgbf000041-resize_5-target.png,250,2.7239999999999998,3,5211,244,feet,jsons/v1_VE250_randls_61.json,1143528,1886598,34,Man
26,872827,DepthScenes,duration_manipulation_targetAtFixation,jsons/v1_VE250_randls_61.json,http://54.235.29.9/FacialAge/BNav_EC2/DepthDuration/v2_depth_duration_MTurk/v2_DepthDuration_HTML.html#381,381,1200,900,800,600,10-7-2022,14-17-56,27,depth_duration_stimuli/001650_2014-06-20_12-09-00_260595134347_rgbf000087-resize_3/001650_2014-06-20_12-09-00_260595134347_rgbf000087-resize_3-target.png,250,1.9505,2,4311,247,feet,jsons/v1_VE250_randls_61.json,1143528,1886598,34,Man
27,872827,DepthScenes,duration_manipulation_targetAtFixation,jsons/v1_VE250_randls_61.json,http://54.235.29.9/FacialAge/BNav_EC2/DepthDuration/v2_depth_duration_MTurk/v2_DepthDuration_HTML.html#381,381,1200,900,800,600,10-7-2022,14-17-56,28,depth_duration_stimuli/001175_2014-06-17_15-45-55_260595134347_rgbf000129-resize_4/001175_2014-06-17_15-45-55_260595134347_rgbf000129-resize_4-target.png,250,4.255,6,4118,250,feet,jsons/v1_VE250_randls_61.json,1143528,1886598,34,Man
28,872827,DepthScenes,duration_manipulation_targetAtFixation,jsons/v1_VE250_randls_61.json,http://54.235.29.9/FacialAge/BNav_EC2/DepthDuration/v2_depth_duration_MTurk/v2_DepthDuration_HTML.html#381,381,1200,900,800,600,10-7-2022,14-17-56,29,depth_duration_stimuli/003490_2014-05-21_15-50-11_094959634447_rgbf000101-resize_3/003490_2014-05-21_15-50-11_094959634447_rgbf000101-resize_3-target.png,250,3.6445,4,4739,237,feet,jsons/v1_VE250_randls_61.json,1143528,1886598,34,Man
29,872827,DepthScenes,duration_manipulation_targetAtFixation,jsons/v1_VE250_randls_61.json,http://54.235.29.9/FacialAge/BNav_EC2/DepthDuration/v2_depth_duration_MTurk/v2_DepthDuration_HTML.html#381,381,1200,900,800,600,10-7-2022,14-17-56,30,depth_duration_stimuli/000375_2014-06-08_11-17-29_260595134347_rgbf000133-resize_2/000375_2014-06-08_11-17-29_260595134347_rgbf000133-resize-original.jpg,250,4.718,0,3406,249,feet,jsons/v1_VE250_randls_61.json,1143528,1886598,34,Man
30,872827,DepthScenes,duration_manipulation_targetAtFixation,jsons/v1_VE250_randls_61.json,http://54.235.29.9/FacialAge/BNav_EC2/DepthDuration/v2_depth_duration_MTurk/v2_DepthDuration_HTML.html#381,381,1200,900,800,600,10-7-2022,14-17-56,31,depth_duration_stimuli/001011_2014-06-08_23-18-54_260595134347_rgbf000044-resize_4/001011_2014-06-08_23-18-54_260595134347_rgbf000044-resize_4-target.png,250,2.4730000000000003,2,3253,246,feet,jsons/v1_VE250_randls_61.json,1143528,1886598,34,Man
31,872827,DepthScenes,duration_manipulation_targetAtFixation,jsons/v1_VE250_randls_61.json,http://54.235.29.9/FacialAge/BNav_EC2/DepthDuration/v2_depth_duration_MTurk/v2_DepthDuration_HTML.html#381,381,1200,900,800,600,10-7-2022,14-17-56,32,depth_duration_stimuli/002875_2014-06-01_15-19-00_094959634447_rgbf000151-resize_1/002875_2014-06-01_15-19-00_094959634447_rgbf000151-resize_1-target.png,250,1.9675,1,4002,252,feet,jsons/v1_VE250_randls_61.json,1143528,1886598,34,Man
32,872827,DepthScenes,duration_manipulation_targetAtFixation,jsons/v1_VE250_randls_61.json,http://54.235.29.9/FacialAge/BNav_EC2/DepthDuration/v2_depth_duration_MTurk/v2_DepthDuration_HTML.html#381,381,1200,900,800,600,10-7-2022,14-17-56,33,depth_duration_stimuli/002988_2014-06-15_12-24-20_094959634447_rgbf000150-resize_1/002988_2014-06-15_12-24-20_094959634447_rgbf000150-resize_1-target.png,250,4.7669999999999995,4,3097,246,feet,jsons/v1_VE250_randls_61.json,1143528,1886598,34,Man
33,872827,DepthScenes,duration_manipulation_targetAtFixation,jsons/v1_VE250_randls_61.json,http://54.235.29.9/FacialAge/BNav_EC2/DepthDuration/v2_depth_duration_MTurk/v2_DepthDuration_HTML.html#381,381,1200,900,800,600,10-7-2022,14-17-56,34,depth_duration_stimuli/001052_2014-06-08_18-24-54_260595134347_rgbf000130-resize_1/001052_2014-06-08_18-24-54_260595134347_rgbf000130-resize_1-target.png,250,4.1045,5,5864,257,feet,jsons/v1_VE250_randls_61.json,1143528,1886598,34,Man
34,872827,DepthScenes,duration_manipulation_targetAtFixation,jsons/v1_VE250_randls_61.json,http://54.235.29.9/FacialAge/BNav_EC2/DepthDuration/v2_depth_duration_MTurk/v2_DepthDuration_HTML.html#381,381,1200,900,800,600,10-7-2022,14-17-56,35,depth_duration_stimuli/002549_2014-06-24_13-41-39_094959634447_rgbf000022-resize_3/002549_2014-06-24_13-41-39_094959634447_rgbf000022-resize_3-target.png,250,1.476,3,4376,252,feet,jsons/v1_VE250_randls_61.json,1143528,1886598,34,Man
35,872827,DepthScenes,duration_manipulation_targetAtFixation,jsons/v1_VE250_randls_61.json,http://54.235.29.9/FacialAge/BNav_EC2/DepthDuration/v2_depth_duration_MTurk/v2_DepthDuration_HTML.html#381,381,1200,900,800,600,10-7-2022,14-17-56,36,depth_duration_stimuli/002750_2014-06-22_19-08-03_094959634447_rgbf000094-resize_4/002750_2014-06-22_19-08-03_094959634447_rgbf000094-resize_4-target.png,250,2.354,4,2944,232,feet,jsons/v1_VE250_randls_61.json,1143528,1886598,34,Man
36,872827,DepthScenes,duration_manipulation_targetAtFixation,jsons/v1_VE250_randls_61.json,http://54.235.29.9/FacialAge/BNav_EC2/DepthDuration/v2_depth_duration_MTurk/v2_DepthDuration_HTML.html#381,381,1200,900,800,600,10-7-2022,14-17-56,37,depth_duration_stimuli/002118_2014-06-25_20-32-08_260595134347_rgbf000078-resize_1/002118_2014-06-25_20-32-08_260595134347_rgbf000078-resize_1-target.png,250,2.6460000000000004,8,4774,239,feet,jsons/v1_VE250_randls_61.json,1143528,1886598,34,Man
37,872827,DepthScenes,duration_manipulation_targetAtFixation,jsons/v1_VE250_randls_61.json,http://54.235.29.9/FacialAge/BNav_EC2/DepthDuration/v2_depth_duration_MTurk/v2_DepthDuration_HTML.html#381,381,1200,900,800,600,10-7-2022,14-17-56,38,depth_duration_stimuli/001516_2014-06-20_16-25-09_260595134347_rgbf000076-resize_2/001516_2014-06-20_16-25-09_260595134347_rgbf000076-resize_2-target.png,250,1.7445,5,3863,250,feet,jsons/v1_VE250_randls_61.json,1143528,1886598,34,Man
38,872827,DepthScenes,duration_manipulation_targetAtFixation,jsons/v1_VE250_randls_61.json,http://54.235.29.9/FacialAge/BNav_EC2/DepthDuration/v2_depth_duration_MTurk/v2_DepthDuration_HTML.html#381,381,1200,900,800,600,10-7-2022,14-17-56,39,depth_duration_stimuli/002788_2014-06-22_19-36-03_094959634447_rgbf000088-resize_2/002788_2014-06-22_19-36-03_094959634447_rgbf000088-resize_2-target.png,250,1.6465,4,6590,237,feet,jsons/v1_VE250_randls_61.json,1143528,1886598,34,Man
39,872827,DepthScenes,duration_manipulation_targetAtFixation,jsons/v1_VE250_randls_61.json,http://54.235.29.9/FacialAge/BNav_EC2/DepthDuration/v2_depth_duration_MTurk/v2_DepthDuration_HTML.html#381,381,1200,900,800,600,10-7-2022,14-17-56,40,depth_duration_stimuli/000749_2014-06-08_21-55-06_260595134347_rgbf000070-resize_2/000749_2014-06-08_21-55-06_260595134347_rgbf000070-resize_2-target.png,250,2.331,6,5824,632,feet,jsons/v1_VE250_randls_61.json,1143528,1886598,34,Man
40,872827,DepthScenes,duration_manipulation_targetAtFixation,jsons/v1_VE250_randls_61.json,http://54.235.29.9/FacialAge/BNav_EC2/DepthDuration/v2_depth_duration_MTurk/v2_DepthDuration_HTML.html#381,381,1200,900,800,600,10-7-2022,14-17-56,41,depth_duration_stimuli/002445_2014-06-28_20-32-16_260595134347_rgbf000029-resize_4/002445_2014-06-28_20-32-16_260595134347_rgbf000029-resize_4-target.png,250,2.5315,2,3128,248,feet,jsons/v1_VE250_randls_61.json,1143528,1886598,34,Man
41,872827,DepthScenes,duration_manipulation_targetAtFixation,jsons/v1_VE250_randls_61.json,http://54.235.29.9/FacialAge/BNav_EC2/DepthDuration/v2_depth_duration_MTurk/v2_DepthDuration_HTML.html#381,381,1200,900,800,600,10-7-2022,14-17-56,42,depth_duration_stimuli/000780_2014-06-08_22-28-29_260595134347_rgbf000126-resize_1/000780_2014-06-08_22-28-29_260595134347_rgbf000126-resize_1-target.png,250,3.3825,5,5045,249,feet,jsons/v1_VE250_randls_61.json,1143528,1886598,34,Man
42,872827,DepthScenes,duration_manipulation_targetAtFixation,jsons/v1_VE250_randls_61.json,http://54.235.29.9/FacialAge/BNav_EC2/DepthDuration/v2_depth_duration_MTurk/v2_DepthDuration_HTML.html#381,381,1200,900,800,600,10-7-2022,14-17-56,43,depth_duration_stimuli/001055_2014-06-08_18-45-35_260595134347_rgbf000111-resize_4/001055_2014-06-08_18-45-35_260595134347_rgbf000111-resize_4-target.png,250,2.4290000000000003,4,4626,251,feet,jsons/v1_VE250_randls_61.json,1143528,1886598,34,Man
43,872827,DepthScenes,duration_manipulation_targetAtFixation,jsons/v1_VE250_randls_61.json,http://54.235.29.9/FacialAge/BNav_EC2/DepthDuration/v2_depth_duration_MTurk/v2_DepthDuration_HTML.html#381,381,1200,900,800,600,10-7-2022,14-17-56,44,depth_duration_stimuli/000549_2014-06-08_22-10-24_260595134347_rgbf000247-resize_3/000549_2014-06-08_22-10-24_260595134347_rgbf000247-resize_3-target.png,250,1.841,2,10353,240,feet,jsons/v1_VE250_randls_61.json,1143528,1886598,34,Man
44,872827,DepthScenes,duration_manipulation_targetAtFixation,jsons/v1_VE250_randls_61.json,http://54.235.29.9/FacialAge/BNav_EC2/DepthDuration/v2_depth_duration_MTurk/v2_DepthDuration_HTML.html#381,381,1200,900,800,600,10-7-2022,14-17-56,45,depth_duration_stimuli/000787_2014-06-08_22-33-53_260595134347_rgbf000175-resize_1/000787_2014-06-08_22-33-53_260595134347_rgbf000175-resize-original.jpg,250,4.784,0,8392,260,feet,jsons/v1_VE250_randls_61.json,1143528,1886598,34,Man
45,872827,DepthScenes,duration_manipulation_targetAtFixation,jsons/v1_VE250_randls_61.json,http://54.235.29.9/FacialAge/BNav_EC2/DepthDuration/v2_depth_duration_MTurk/v2_DepthDuration_HTML.html#381,381,1200,900,800,600,10-7-2022,14-17-56,46,depth_duration_stimuli/002570_2014-06-24_13-59-54_094959634447_rgbf000059-resize_0/002570_2014-06-24_13-59-54_094959634447_rgbf000059-resize_0-target.png,250,4.037,4,24946,253,feet,jsons/v1_VE250_randls_61.json,1143528,1886598,34,Man
46,872827,DepthScenes,duration_manipulation_targetAtFixation,jsons/v1_VE250_randls_61.json,http://54.235.29.9/FacialAge/BNav_EC2/DepthDuration/v2_depth_duration_MTurk/v2_DepthDuration_HTML.html#381,381,1200,900,800,600,10-7-2022,14-17-56,47,depth_duration_stimuli/002467_2014-06-28_20-38-07_260595134347_rgbf000026-resize_2/002467_2014-06-28_20-38-07_260595134347_rgbf000026-resize_2-target.png,250,4.742,3,6648,250,feet,jsons/v1_VE250_randls_61.json,1143528,1886598,34,Man
47,872827,DepthScenes,duration_manipulation_targetAtFixation,jsons/v1_VE250_randls_61.json,http://54.235.29.9/FacialAge/BNav_EC2/DepthDuration/v2_depth_duration_MTurk/v2_DepthDuration_HTML.html#381,381,1200,900,800,600,10-7-2022,14-17-56,48,depth_duration_stimuli/003534_2014-05-22_15-06-10_094959634447_rgbf000102-resize_4/003534_2014-05-22_15-06-10_094959634447_rgbf000102-resize_4-target.png,250,1.426,2,3203,248,feet,jsons/v1_VE250_randls_61.json,1143528,1886598,34,Man
48,872827,DepthScenes,duration_manipulation_targetAtFixation,jsons/v1_VE250_randls_61.json,http://54.235.29.9/FacialAge/BNav_EC2/DepthDuration/v2_depth_duration_MTurk/v2_DepthDuration_HTML.html#381,381,1200,900,800,600,10-7-2022,14-17-56,49,depth_duration_stimuli/002637_2014-06-24_14-51-13_094959634447_rgbf000066-resize_4/002637_2014-06-24_14-51-13_094959634447_rgbf000066-resize_4-target.png,250,1.9955,4,42814,261,feet,jsons/v1_VE250_randls_61.json,1143528,1886598,34,Man
49,872827,DepthScenes,duration_manipulation_targetAtFixation,jsons/v1_VE250_randls_61.json,http://54.235.29.9/FacialAge/BNav_EC2/DepthDuration/v2_depth_duration_MTurk/v2_DepthDuration_HTML.html#381,381,1200,900,800,600,10-7-2022,14-17-56,50,depth_duration_stimuli/000486_2014-06-09_20-47-20_260595134347_rgbf000143-resize_2/000486_2014-06-09_20-47-20_260595134347_rgbf000143-resize_2-target.png,250,4.8325,3,3579,323,feet,jsons/v1_VE250_randls_61.json,1143528,1886598,34,Man
50,872827,DepthScenes,duration_manipulation_targetAtFixation,jsons/v1_VE250_randls_61.json,http://54.235.29.9/FacialAge/BNav_EC2/DepthDuration/v2_depth_duration_MTurk/v2_DepthDuration_HTML.html#381,381,1200,900,800,600,10-7-2022,14-17-56,51,depth_duration_stimuli/003083_2014-06-15_15-21-03_094959634447_rgbf000063-resize_1/003083_2014-06-15_15-21-03_094959634447_rgbf000063-resize_1-target.png,250,4.1405,7,3821,241,feet,jsons/v1_VE250_randls_61.json,1143528,1886598,34,Man
51,872827,DepthScenes,duration_manipulation_targetAtFixation,jsons/v1_VE250_randls_61.json,http://54.235.29.9/FacialAge/BNav_EC2/DepthDuration/v2_depth_duration_MTurk/v2_DepthDuration_HTML.html#381,381,1200,900,800,600,10-7-2022,14-17-56,52,depth_duration_stimuli/000773_2014-06-08_22-24-54_260595134347_rgbf000093-resize_1/000773_2014-06-08_22-24-54_260595134347_rgbf000093-resize_1-target.png,250,4.973,3,3628,241,feet,jsons/v1_VE250_randls_61.json,1143528,1886598,34,Man
52,872827,DepthScenes,duration_manipulation_targetAtFixation,jsons/v1_VE250_randls_61.json,http://54.235.29.9/FacialAge/BNav_EC2/DepthDuration/v2_depth_duration_MTurk/v2_DepthDuration_HTML.html#381,381,1200,900,800,600,10-7-2022,14-17-56,53,depth_duration_stimuli/002414_2014-06-28_20-24-58_260595134347_rgbf000067-resize_4/002414_2014-06-28_20-24-58_260595134347_rgbf000067-resize_4-target.png,250,4.363,0,2800,128,feet,jsons/v1_VE250_randls_61.json,1143528,1886598,34,Man
53,872827,DepthScenes,duration_manipulation_targetAtFixation,jsons/v1_VE250_randls_61.json,http://54.235.29.9/FacialAge/BNav_EC2/DepthDuration/v2_depth_duration_MTurk/v2_DepthDuration_HTML.html#381,381,1200,900,800,600,10-7-2022,14-17-56,54,depth_duration_stimuli/000506_2014-06-08_23-21-00_260595134347_rgbf000070-resize_7/000506_2014-06-08_23-21-00_260595134347_rgbf000070-resize_7-target.png,250,4.0585,6,7500,251,feet,jsons/v1_VE250_randls_61.json,1143528,1886598,34,Man
54,872827,DepthScenes,duration_manipulation_targetAtFixation,jsons/v1_VE250_randls_61.json,http://54.235.29.9/FacialAge/BNav_EC2/DepthDuration/v2_depth_duration_MTurk/v2_DepthDuration_HTML.html#381,381,1200,900,800,600,10-7-2022,14-17-56,55,depth_duration_stimuli/003079_2014-06-15_15-18-20_094959634447_rgbf000152-resize_8/003079_2014-06-15_15-18-20_094959634447_rgbf000152-resize_8-target.png,250,2.8775,5,4779,381,feet,jsons/v1_VE250_randls_61.json,1143528,1886598,34,Man
55,872827,DepthScenes,duration_manipulation_targetAtFixation,jsons/v1_VE250_randls_61.json,http://54.235.29.9/FacialAge/BNav_EC2/DepthDuration/v2_depth_duration_MTurk/v2_DepthDuration_HTML.html#381,381,1200,900,800,600,10-7-2022,14-17-56,56,depth_duration_stimuli/000642_2014-06-08_16-59-25_260595134347_rgbf000098-resize_2/000642_2014-06-08_16-59-25_260595134347_rgbf000098-resize_2-target.png,250,2.8815,4,7583,257,feet,jsons/v1_VE250_randls_61.json,1143528,1886598,34,Man
56,872827,DepthScenes,duration_manipulation_targetAtFixation,jsons/v1_VE250_randls_61.json,http://54.235.29.9/FacialAge/BNav_EC2/DepthDuration/v2_depth_duration_MTurk/v2_DepthDuration_HTML.html#381,381,1200,900,800,600,10-7-2022,14-17-56,57,depth_duration_stimuli/002425_2014-06-28_20-27-29_260595134347_rgbf000031-resize_8/002425_2014-06-28_20-27-29_260595134347_rgbf000031-resize_8-target.png,250,3.8960000000000004,2,11722,369,feet,jsons/v1_VE250_randls_61.json,1143528,1886598,34,Man
57,872827,DepthScenes,duration_manipulation_targetAtFixation,jsons/v1_VE250_randls_61.json,http://54.235.29.9/FacialAge/BNav_EC2/DepthDuration/v2_depth_duration_MTurk/v2_DepthDuration_HTML.html#381,381,1200,900,800,600,10-7-2022,14-17-56,58,depth_duration_stimuli/001110_2014-06-15_17-25-28_260595134347_rgbf000150-resize_1/001110_2014-06-15_17-25-28_260595134347_rgbf000150-resize_1-target.png,250,1.7115,5,5038,234,feet,jsons/v1_VE250_randls_61.json,1143528,1886598,34,Man
58,872827,DepthScenes,duration_manipulation_targetAtFixation,jsons/v1_VE250_randls_61.json,http://54.235.29.9/FacialAge/BNav_EC2/DepthDuration/v2_depth_duration_MTurk/v2_DepthDuration_HTML.html#381,381,1200,900,800,600,10-7-2022,14-17-56,59,depth_duration_stimuli/000927_2014-06-09_16-32-30_260595134347_rgbf000123-resize_3/000927_2014-06-09_16-32-30_260595134347_rgbf000123-resize_3-target.png,250,2.6785,3,5600,252,feet,jsons/v1_VE250_randls_61.json,1143528,1886598,34,Man
59,872827,DepthScenes,duration_manipulation_targetAtFixation,jsons/v1_VE250_randls_61.json,http://54.235.29.9/FacialAge/BNav_EC2/DepthDuration/v2_depth_duration_MTurk/v2_DepthDuration_HTML.html#381,381,1200,900,800,600,10-7-2022,14-17-56,60,depth_duration_stimuli/001056_2014-06-08_18-46-44_260595134347_rgbf000068-resize_0/001056_2014-06-08_18-46-44_260595134347_rgbf000068-resize_0-target.png,250,2.6625,6,4460,249,feet,jsons/v1_VE250_randls_61.json,1143528,1886598,34,Man
60,872827,DepthScenes,duration_manipulation_targetAtFixation,jsons/v1_VE250_randls_61.json,http://54.235.29.9/FacialAge/BNav_EC2/DepthDuration/v2_depth_duration_MTurk/v2_DepthDuration_HTML.html#381,381,1200,900,800,600,10-7-2022,14-17-56,61,depth_duration_stimuli/002199_2014-06-28_18-33-56_260595134347_rgbf000074-resize_0/002199_2014-06-28_18-33-56_260595134347_rgbf000074-resize_0-target.png,250,1.996,1,4043,260,feet,jsons/v1_VE250_randls_61.json,1143528,1886598,34,Man
61,872827,DepthScenes,duration_manipulation_targetAtFixation,jsons/v1_VE250_randls_61.json,http://54.235.29.9/FacialAge/BNav_EC2/DepthDuration/v2_depth_duration_MTurk/v2_DepthDuration_HTML.html#381,381,1200,900,800,600,10-7-2022,14-17-56,62,depth_duration_stimuli/002057_2014-06-24_21-00-13_260595134347_rgbf000120-resize_1/002057_2014-06-24_21-00-13_260595134347_rgbf000120-resize_1-target.png,250,2.967,4,3580,250,feet,jsons/v1_VE250_randls_61.json,1143528,1886598,34,Man
62,872827,DepthScenes,duration_manipulation_targetAtFixation,jsons/v1_VE250_randls_61.json,http://54.235.29.9/FacialAge/BNav_EC2/DepthDuration/v2_depth_duration_MTurk/v2_DepthDuration_HTML.html#381,381,1200,900,800,600,10-7-2022,14-17-56,63,depth_duration_stimuli/000709_2014-06-08_13-51-55_260595134347_rgbf000068-resize_3/000709_2014-06-08_13-51-55_260595134347_rgbf000068-resize_3-target.png,250,1.8030000000000002,3,4931,426,feet,jsons/v1_VE250_randls_61.json,1143528,1886598,34,Man
63,872827,DepthScenes,duration_manipulation_targetAtFixation,jsons/v1_VE250_randls_61.json,http://54.235.29.9/FacialAge/BNav_EC2/DepthDuration/v2_depth_duration_MTurk/v2_DepthDuration_HTML.html#381,381,1200,900,800,600,10-7-2022,14-17-56,64,depth_duration_stimuli/002784_2014-06-22_19-26-30_094959634447_rgbf000083-resize_3/002784_2014-06-22_19-26-30_094959634447_rgbf000083-resize_3-target.png,250,1.8046666666667,4,5577,437,feet,jsons/v1_VE250_randls_61.json,1143528,1886598,34,Man
64,872827,DepthScenes,duration_manipulation_targetAtFixation,jsons/v1_VE250_randls_61.json,http://54.235.29.9/FacialAge/BNav_EC2/DepthDuration/v2_depth_duration_MTurk/v2_DepthDuration_HTML.html#381,381,1200,900,800,600,10-7-2022,14-17-56,65,depth_duration_stimuli/001100_2014-06-15_17-46-26_260595134347_rgbf000225-resize_2/001100_2014-06-15_17-46-26_260595134347_rgbf000225-resize_2-target.png,250,2.24,5,3730,258,feet,jsons/v1_VE250_randls_61.json,1143528,1886598,34,Man
65,872827,DepthScenes,duration_manipulation_targetAtFixation,jsons/v1_VE250_randls_61.json,http://54.235.29.9/FacialAge/BNav_EC2/DepthDuration/v2_depth_duration_MTurk/v2_DepthDuration_HTML.html#381,381,1200,900,800,600,10-7-2022,14-17-56,66,depth_duration_stimuli/001222_2014-06-17_16-24-06_260595134347_rgbf000073-resize_0/001222_2014-06-17_16-24-06_260595134347_rgbf000073-resize-original.jpg,250,1.4385,0,3487,250,feet,jsons/v1_VE250_randls_61.json,1143528,1886598,34,Man
66,872827,DepthScenes,duration_manipulation_targetAtFixation,jsons/v1_VE250_randls_61.json,http://54.235.29.9/FacialAge/BNav_EC2/DepthDuration/v2_depth_duration_MTurk/v2_DepthDuration_HTML.html#381,381,1200,900,800,600,10-7-2022,14-17-56,67,depth_duration_stimuli/002630_2014-06-24_14-47-50_094959634447_rgbf000055-resize_1/002630_2014-06-24_14-47-50_094959634447_rgbf000055-resize_1-target.png,250,3.0095,2,11259,200,feet,jsons/v1_VE250_randls_61.json,1143528,1886598,34,Man
67,872827,DepthScenes,duration_manipulation_targetAtFixation,jsons/v1_VE250_randls_61.json,http://54.235.29.9/FacialAge/BNav_EC2/DepthDuration/v2_depth_duration_MTurk/v2_DepthDuration_HTML.html#381,381,1200,900,800,600,10-7-2022,14-17-56,68,depth_duration_stimuli/002758_2014-06-22_19-11-20_094959634447_rgbf000128-resize_1/002758_2014-06-22_19-11-20_094959634447_rgbf000128-resize_1-target.png,250,2.555,6,5525,250,feet,jsons/v1_VE250_randls_61.json,1143528,1886598,34,Man
68,872827,DepthScenes,duration_manipulation_targetAtFixation,jsons/v1_VE250_randls_61.json,http://54.235.29.9/FacialAge/BNav_EC2/DepthDuration/v2_depth_duration_MTurk/v2_DepthDuration_HTML.html#381,381,1200,900,800,600,10-7-2022,14-17-56,69,depth_duration_stimuli/002375_2014-06-28_20-13-44_260595134347_rgbf000032-resize_1/002375_2014-06-28_20-13-44_260595134347_rgbf000032-resize_1-target.png,250,4.0175,4,4484,249,feet,jsons/v1_VE250_randls_61.json,1143528,1886598,34,Man
69,872827,DepthScenes,duration_manipulation_targetAtFixation,jsons/v1_VE250_randls_61.json,http://54.235.29.9/FacialAge/BNav_EC2/DepthDuration/v2_depth_duration_MTurk/v2_DepthDuration_HTML.html#381,381,1200,900,800,600,10-7-2022,14-17-56,70,depth_duration_stimuli/002657_2014-06-13_15-29-54_094959634447_rgbf000150-resize_1/002657_2014-06-13_15-29-54_094959634447_rgbf000150-resize_1-target.png,250,4.919,7,3178,249,feet,jsons/v1_VE250_randls_61.json,1143528,1886598,34,Man
70,872827,DepthScenes,duration_manipulation_targetAtFixation,jsons/v1_VE250_randls_61.json,http://54.235.29.9/FacialAge/BNav_EC2/DepthDuration/v2_depth_duration_MTurk/v2_DepthDuration_HTML.html#381,381,1200,900,800,600,10-7-2022,14-17-56,71,depth_duration_stimuli/003492_2014-05-21_15-50-55_094959634447_rgbf000828-resize_1/003492_2014-05-21_15-50-55_094959634447_rgbf000828-resize_1-target.png,250,4.06875,9,3969,250,feet,jsons/v1_VE250_randls_61.json,1143528,1886598,34,Man
71,872827,DepthScenes,duration_manipulation_targetAtFixation,jsons/v1_VE250_randls_61.json,http://54.235.29.9/FacialAge/BNav_EC2/DepthDuration/v2_depth_duration_MTurk/v2_DepthDuration_HTML.html#381,381,1200,900,800,600,10-7-2022,14-17-56,72,depth_duration_stimuli/002568_2014-06-24_13-59-21_094959634447_rgbf000062-resize_4/002568_2014-06-24_13-59-21_094959634447_rgbf000062-resize_4-target.png,250,3.015,8,2816,468,feet,jsons/v1_VE250_randls_61.json,1143528,1886598,34,Man
72,872827,DepthScenes,duration_manipulation_targetAtFixation,jsons/v1_VE250_randls_61.json,http://54.235.29.9/FacialAge/BNav_EC2/DepthDuration/v2_depth_duration_MTurk/v2_DepthDuration_HTML.html#381,381,1200,900,800,600,10-7-2022,14-17-56,73,depth_duration_stimuli/002763_2014-06-22_19-13-10_094959634447_rgbf000075-resize_4/002763_2014-06-22_19-13-10_094959634447_rgbf000075-resize_4-target.png,250,1.68375,5,3072,243,feet,jsons/v1_VE250_randls_61.json,1143528,1886598,34,Man
73,872827,DepthScenes,duration_manipulation_targetAtFixation,jsons/v1_VE250_randls_61.json,http://54.235.29.9/FacialAge/BNav_EC2/DepthDuration/v2_depth_duration_MTurk/v2_DepthDuration_HTML.html#381,381,1200,900,800,600,10-7-2022,14-17-56,74,depth_duration_stimuli/002209_2014-06-28_18-36-10_260595134347_rgbf000051-resize_1/002209_2014-06-28_18-36-10_260595134347_rgbf000051-resize_1-target.png,250,2.057,3,2802,225,feet,jsons/v1_VE250_randls_61.json,1143528,1886598,34,Man
74,872827,DepthScenes,duration_manipulation_targetAtFixation,jsons/v1_VE250_randls_61.json,http://54.235.29.9/FacialAge/BNav_EC2/DepthDuration/v2_depth_duration_MTurk/v2_DepthDuration_HTML.html#381,381,1200,900,800,600,10-7-2022,14-17-56,75,depth_duration_stimuli/001808_2014-06-26_20-50-58_260595134347_rgbf000029-resize_1/001808_2014-06-26_20-50-58_260595134347_rgbf000029-resize_1-target.png,250,4.249,4,5568,249,feet,jsons/v1_VE250_randls_61.json,1143528,1886598,34,Man
75,872827,DepthScenes,duration_manipulation_targetAtFixation,jsons/v1_VE250_randls_61.json,http://54.235.29.9/FacialAge/BNav_EC2/DepthDuration/v2_depth_duration_MTurk/v2_DepthDuration_HTML.html#381,381,1200,900,800,600,10-7-2022,14-17-56,76,depth_duration_stimuli/001815_2014-06-26_20-52-55_260595134347_rgbf000020-resize_0/001815_2014-06-26_20-52-55_260595134347_rgbf000020-resize_0-target.png,250,3.3865,7,3358,250,feet,jsons/v1_VE250_randls_61.json,1143528,1886598,34,Man
76,872827,DepthScenes,duration_manipulation_targetAtFixation,jsons/v1_VE250_randls_61.json,http://54.235.29.9/FacialAge/BNav_EC2/DepthDuration/v2_depth_duration_MTurk/v2_DepthDuration_HTML.html#381,381,1200,900,800,600,10-7-2022,14-17-56,77,depth_duration_stimuli/000788_2014-06-08_22-34-36_260595134347_rgbf000131-resize_1/000788_2014-06-08_22-34-36_260595134347_rgbf000131-resize_1-target.png,250,3.359,8,3934,239,feet,jsons/v1_VE250_randls_61.json,1143528,1886598,34,Man
77,872827,DepthScenes,duration_manipulation_targetAtFixation,jsons/v1_VE250_randls_61.json,http://54.235.29.9/FacialAge/BNav_EC2/DepthDuration/v2_depth_duration_MTurk/v2_DepthDuration_HTML.html#381,381,1200,900,800,600,10-7-2022,14-17-56,78,depth_duration_stimuli/001235_2014-06-17_16-37-36_260595134347_rgbf000084-resize_4/001235_2014-06-17_16-37-36_260595134347_rgbf000084-resize_4-target.png,250,3.6605,0,3187,22,feet,jsons/v1_VE250_randls_61.json,1143528,1886598,34,Man
78,872827,DepthScenes,duration_manipulation_targetAtFixation,jsons/v1_VE250_randls_61.json,http://54.235.29.9/FacialAge/BNav_EC2/DepthDuration/v2_depth_duration_MTurk/v2_DepthDuration_HTML.html#381,381,1200,900,800,600,10-7-2022,14-17-56,79,depth_duration_stimuli/000470_2014-06-09_19-42-40_260595134347_rgbf000094-resize_1/000470_2014-06-09_19-42-40_260595134347_rgbf000094-resize_1-target.png,250,1.831,3,6317,258,feet,jsons/v1_VE250_randls_61.json,1143528,1886598,34,Man
79,872827,DepthScenes,duration_manipulation_targetAtFixation,jsons/v1_VE250_randls_61.json,http://54.235.29.9/FacialAge/BNav_EC2/DepthDuration/v2_depth_duration_MTurk/v2_DepthDuration_HTML.html#381,381,1200,900,800,600,10-7-2022,14-17-56,80,depth_duration_stimuli/000109_2014-05-14_23-41-52_260595134347_rgbf000035-resize_9/000109_2014-05-14_23-41-52_260595134347_rgbf000035-resize_9-target.png,250,1.3545,5,3302,250,feet,jsons/v1_VE250_randls_61.json,1143528,1886598,34,Man
80,872827,DepthScenes,duration_manipulation_targetAtFixation,jsons/v1_VE250_randls_61.json,http://54.235.29.9/FacialAge/BNav_EC2/DepthDuration/v2_depth_duration_MTurk/v2_DepthDuration_HTML.html#381,381,1200,900,800,600,10-7-2022,14-17-56,81,depth_duration_stimuli/001150_2014-06-17_15-27-34_260595134347_rgbf000108-resize_2/001150_2014-06-17_15-27-34_260595134347_rgbf000108-resize_2-target.png,250,4.0325,6,6570,248,feet,jsons/v1_VE250_randls_61.json,1143528,1886598,34,Man
81,872827,DepthScenes,duration_manipulation_targetAtFixation,jsons/v1_VE250_randls_61.json,http://54.235.29.9/FacialAge/BNav_EC2/DepthDuration/v2_depth_duration_MTurk/v2_DepthDuration_HTML.html#381,381,1200,900,800,600,10-7-2022,14-17-56,82,depth_duration_stimuli/000665_2014-06-09_20-42-35_260595134347_rgbf000110-resize_1/000665_2014-06-09_20-42-35_260595134347_rgbf000110-resize_1-target.png,250,3.057,0,3858,28,feet,jsons/v1_VE250_randls_61.json,1143528,1886598,34,Man
82,872827,DepthScenes,duration_manipulation_targetAtFixation,jsons/v1_VE250_randls_61.json,http://54.235.29.9/FacialAge/BNav_EC2/DepthDuration/v2_depth_duration_MTurk/v2_DepthDuration_HTML.html#381,381,1200,900,800,600,10-7-2022,14-17-56,83,depth_duration_stimuli/000522_2014-06-08_13-35-06_260595134347_rgbf000244-resize_1/000522_2014-06-08_13-35-06_260595134347_rgbf000244-resize_1-target.png,250,2.3715,2,4977,252,feet,jsons/v1_VE250_randls_61.json,1143528,1886598,34,Man
83,872827,DepthScenes,duration_manipulation_targetAtFixation,jsons/v1_VE250_randls_61.json,http://54.235.29.9/FacialAge/BNav_EC2/DepthDuration/v2_depth_duration_MTurk/v2_DepthDuration_HTML.html#381,381,1200,900,800,600,10-7-2022,14-17-56,84,depth_duration_stimuli/002949_2014-06-26_15-57-42_094959634447_rgbf000079-resize_1/002949_2014-06-26_15-57-42_094959634447_rgbf000079-resize_1-target.png,250,1.8915,3,3231,247,feet,jsons/v1_VE250_randls_61.json,1143528,1886598,34,Man
84,872827,DepthScenes,duration_manipulation_targetAtFixation,jsons/v1_VE250_randls_61.json,http://54.235.29.9/FacialAge/BNav_EC2/DepthDuration/v2_depth_duration_MTurk/v2_DepthDuration_HTML.html#381,381,1200,900,800,600,10-7-2022,14-17-56,85,depth_duration_stimuli/000929_2014-06-09_16-33-19_260595134347_rgbf000139-resize_0/000929_2014-06-09_16-33-19_260595134347_rgbf000139-resize_0-target.png,250,2.8680000000000003,5,3688,247,feet,jsons/v1_VE250_randls_61.json,1143528,1886598,34,Man
85,872827,DepthScenes,duration_manipulation_targetAtFixation,jsons/v1_VE250_randls_61.json,http://54.235.29.9/FacialAge/BNav_EC2/DepthDuration/v2_depth_duration_MTurk/v2_DepthDuration_HTML.html#381,381,1200,900,800,600,10-7-2022,14-17-56,86,depth_duration_stimuli/000457_2014-06-08_16-52-43_260595134347_rgbf000199-resize_1/000457_2014-06-08_16-52-43_260595134347_rgbf000199-resize_1-target.png,250,3.6489999999999996,0,3837,4,feet,jsons/v1_VE250_randls_61.json,1143528,1886598,34,Man
86,872827,DepthScenes,duration_manipulation_targetAtFixation,jsons/v1_VE250_randls_61.json,http://54.235.29.9/FacialAge/BNav_EC2/DepthDuration/v2_depth_duration_MTurk/v2_DepthDuration_HTML.html#381,381,1200,900,800,600,10-7-2022,14-17-56,87,depth_duration_stimuli/001555_2014-06-20_17-12-10_260595134347_rgbf000065-resize_4/001555_2014-06-20_17-12-10_260595134347_rgbf000065-resize_4-target.png,250,1.633,2,4111,241,feet,jsons/v1_VE250_randls_61.json,1143528,1886598,34,Man
87,872827,DepthScenes,duration_manipulation_targetAtFixation,jsons/v1_VE250_randls_61.json,http://54.235.29.9/FacialAge/BNav_EC2/DepthDuration/v2_depth_duration_MTurk/v2_DepthDuration_HTML.html#381,381,1200,900,800,600,10-7-2022,14-17-56,88,depth_duration_stimuli/000103_2014-05-14_22-01-17_260595134347_rgbf000152-resize_5/000103_2014-05-14_22-01-17_260595134347_rgbf000152-resize_5-target.png,250,1.993,0,3705,250,feet,jsons/v1_VE250_randls_61.json,1143528,1886598,34,Man
88,872827,DepthScenes,duration_manipulation_targetAtFixation,jsons/v1_VE250_randls_61.json,http://54.235.29.9/FacialAge/BNav_EC2/DepthDuration/v2_depth_duration_MTurk/v2_DepthDuration_HTML.html#381,381,1200,900,800,600,10-7-2022,14-17-56,89,depth_duration_stimuli/002989_2014-06-15_12-25-03_094959634447_rgbf000150-resize_3/002989_2014-06-15_12-25-03_094959634447_rgbf000150-resize_3-target.png,250,4.1975,7,6825,237,feet,jsons/v1_VE250_randls_61.json,1143528,1886598,34,Man
89,872827,DepthScenes,duration_manipulation_targetAtFixation,jsons/v1_VE250_randls_61.json,http://54.235.29.9/FacialAge/BNav_EC2/DepthDuration/v2_depth_duration_MTurk/v2_DepthDuration_HTML.html#381,381,1200,900,800,600,10-7-2022,14-17-56,90,depth_duration_stimuli/000866_2014-06-09_20-45-42_260595134347_rgbf000139-resize_1/000866_2014-06-09_20-45-42_260595134347_rgbf000139-resize_1-target.png,250,3.2155,5,6096,261,feet,jsons/v1_VE250_randls_61.json,1143528,1886598,34,Man
90,872827,DepthScenes,duration_manipulation_targetAtFixation,jsons/v1_VE250_randls_61.json,http://54.235.29.9/FacialAge/BNav_EC2/DepthDuration/v2_depth_duration_MTurk/v2_DepthDuration_HTML.html#381,381,1200,900,800,600,10-7-2022,14-17-56,91,depth_duration_stimuli/001806_2014-06-26_20-50-20_260595134347_rgbf000091-resize_1/001806_2014-06-26_20-50-20_260595134347_rgbf000091-resize_1-target.png,250,2.7305,3,4260,253,feet,jsons/v1_VE250_randls_61.json,1143528,1886598,34,Man
91,872827,DepthScenes,duration_manipulation_targetAtFixation,jsons/v1_VE250_randls_61.json,http://54.235.29.9/FacialAge/BNav_EC2/DepthDuration/v2_depth_duration_MTurk/v2_DepthDuration_HTML.html#381,381,1200,900,800,600,10-7-2022,14-17-56,92,depth_duration_stimuli/001617_2014-06-20_11-35-32_260595134347_rgbf000066-resize_1/001617_2014-06-20_11-35-32_260595134347_rgbf000066-resize_1-target.png,250,3.7910000000000004,0,3371,363,feet,jsons/v1_VE250_randls_61.json,1143528,1886598,34,Man
92,872827,DepthScenes,duration_manipulation_targetAtFixation,jsons/v1_VE250_randls_61.json,http://54.235.29.9/FacialAge/BNav_EC2/DepthDuration/v2_depth_duration_MTurk/v2_DepthDuration_HTML.html#381,381,1200,900,800,600,10-7-2022,14-17-56,93,depth_duration_stimuli/000736_2014-06-08_18-24-15_260595134347_rgbf000206-resize_3/000736_2014-06-08_18-24-15_260595134347_rgbf000206-resize_3-target.png,250,3.515,0,8401,18,feet,jsons/v1_VE250_randls_61.json,1143528,1886598,34,Man
93,872827,DepthScenes,duration_manipulation_targetAtFixation,jsons/v1_VE250_randls_61.json,http://54.235.29.9/FacialAge/BNav_EC2/DepthDuration/v2_depth_duration_MTurk/v2_DepthDuration_HTML.html#381,381,1200,900,800,600,10-7-2022,14-17-56,94,depth_duration_stimuli/000137_2014-05-20_17-04-49_260595134347_rgbf000120-resize_1/000137_2014-05-20_17-04-49_260595134347_rgbf000120-resize_1-target.png,250,3.786,0,9780,6,feet,jsons/v1_VE250_randls_61.json,1143528,1886598,34,Man
94,872827,DepthScenes,duration_manipulation_targetAtFixation,jsons/v1_VE250_randls_61.json,http://54.235.29.9/FacialAge/BNav_EC2/DepthDuration/v2_depth_duration_MTurk/v2_DepthDuration_HTML.html#381,381,1200,733,800,600,10-7-2022,14-17-56,95,depth_duration_stimuli/002509_2014-06-24_13-19-22_094959634447_rgbf000077-resize_0/002509_2014-06-24_13-19-22_094959634447_rgbf000077-resize_0-target.png,250,1.3065,5,49777,252,feet,jsons/v1_VE250_randls_61.json,1143528,1886598,34,Man
95,872827,DepthScenes,duration_manipulation_targetAtFixation,jsons/v1_VE250_randls_61.json,http://54.235.29.9/FacialAge/BNav_EC2/DepthDuration/v2_depth_duration_MTurk/v2_DepthDuration_HTML.html#381,381,1200,733,800,600,10-7-2022,14-17-56,96,depth_duration_stimuli/003338_2014-05-20_11-01-23_094959634447_rgbf000051-resize_6/003338_2014-05-20_11-01-23_094959634447_rgbf000051-resize_6-target.png,250,1.693,4,7534,230,feet,jsons/v1_VE250_randls_61.json,1143528,1886598,34,Man
96,872827,DepthScenes,duration_manipulation_targetAtFixation,jsons/v1_VE250_randls_61.json,http://54.235.29.9/FacialAge/BNav_EC2/DepthDuration/v2_depth_duration_MTurk/v2_DepthDuration_HTML.html#381,381,1200,733,800,600,10-7-2022,14-17-56,97,depth_duration_stimuli/001417_2014-06-19_16-25-36_260595134347_rgbf000115-resize_5/001417_2014-06-19_16-25-36_260595134347_rgbf000115-resize_5-target.png,250,4.6255,7,4697,320,feet,jsons/v1_VE250_randls_61.json,1143528,1886598,34,Man
97,872827,DepthScenes,duration_manipulation_targetAtFixation,jsons/v1_VE250_randls_61.json,http://54.235.29.9/FacialAge/BNav_EC2/DepthDuration/v2_depth_duration_MTurk/v2_DepthDuration_HTML.html#381,381,1200,733,800,600,10-7-2022,14-17-56,98,depth_duration_stimuli/003081_2014-06-15_15-19-16_094959634447_rgbf000150-resize_1/003081_2014-06-15_15-19-16_094959634447_rgbf000150-resize_1-target.png,250,3.9125,2,3514,237,feet,jsons/v1_VE250_randls_61.json,1143528,1886598,34,Man
98,872827,DepthScenes,duration_manipulation_targetAtFixation,jsons/v1_VE250_randls_61.json,http://54.235.29.9/FacialAge/BNav_EC2/DepthDuration/v2_depth_duration_MTurk/v2_DepthDuration_HTML.html#381,381,1200,733,800,600,10-7-2022,14-17-56,99,depth_duration_stimuli/001540_2014-06-20_17-01-05_260595134347_rgbf000086-resize_2/001540_2014-06-20_17-01-05_260595134347_rgbf000086-resize-original.jpg,250,1.459,0,4213,396,feet,jsons/v1_VE250_randls_61.json,1143528,1886598,34,Man
99,872827,DepthScenes,duration_manipulation_targetAtFixation,jsons/v1_VE250_randls_61.json,http://54.235.29.9/FacialAge/BNav_EC2/DepthDuration/v2_depth_duration_MTurk/v2_DepthDuration_HTML.html#381,381,1200,733,800,600,10-7-2022,14-17-56,100,depth_duration_stimuli/002663_2014-06-13_15-50-26_094959634447_rgbf000075-resize_1/002663_2014-06-13_15-50-26_094959634447_rgbf000075-resize_1-target.png,250,4.7495,5,26686,68,feet,jsons/v1_VE250_randls_61.json,1143528,1886598,34,Man
100,872827,DepthScenes,duration_manipulation_targetAtFixation,jsons/v1_VE250_randls_61.json,http://54.235.29.9/FacialAge/BNav_EC2/DepthDuration/v2_depth_duration_MTurk/v2_DepthDuration_HTML.html#381,381,1200,733,800,600,10-7-2022,14-17-56,101,depth_duration_stimuli/000409_2014-06-04_19-23-33_260595134347_rgbf000067-resize_0/000409_2014-06-04_19-23-33_260595134347_rgbf000067-resize_0-target.png,250,3.7335,9,3968,248,feet,jsons/v1_VE250_randls_61.json,1143528,1886598,34,Man
101,872827,DepthScenes,duration_manipulation_targetAtFixation,jsons/v1_VE250_randls_61.json,http://54.235.29.9/FacialAge/BNav_EC2/DepthDuration/v2_depth_duration_MTurk/v2_DepthDuration_HTML.html#381,381,1200,733,800,600,10-7-2022,14-17-56,102,depth_duration_stimuli/002043_2014-06-24_20-29-38_260595134347_rgbf000039-resize_4/002043_2014-06-24_20-29-38_260595134347_rgbf000039-resize_4-target.png,250,2.8435,5,3916,123,feet,jsons/v1_VE250_randls_61.json,1143528,1886598,34,Man
102,872827,DepthScenes,duration_manipulation_targetAtFixation,jsons/v1_VE250_randls_61.json,http://54.235.29.9/FacialAge/BNav_EC2/DepthDuration/v2_depth_duration_MTurk/v2_DepthDuration_HTML.html#381,381,1200,733,800,600,10-7-2022,14-17-56,103,depth_duration_stimuli/003048_2014-06-15_13-49-43_094959634447_rgbf000150-resize_1/003048_2014-06-15_13-49-43_094959634447_rgbf000150-resize_1-target.png,250,4.0035,0,4895,250,feet,jsons/v1_VE250_randls_61.json,1143528,1886598,34,Man
103,872827,DepthScenes,duration_manipulation_targetAtFixation,jsons/v1_VE250_randls_61.json,http://54.235.29.9/FacialAge/BNav_EC2/DepthDuration/v2_depth_duration_MTurk/v2_DepthDuration_HTML.html#381,381,1200,733,800,600,10-7-2022,14-17-56,104,depth_duration_stimuli/000414_2014-06-04_19-49-13_260595134347_rgbf000044-resize_0/000414_2014-06-04_19-49-13_260595134347_rgbf000044-resize_0-target.png,250,4.329,10,6116,248,feet,jsons/v1_VE250_randls_61.json,1143528,1886598,34,Man
104,872827,DepthScenes,duration_manipulation_targetAtFixation,jsons/v1_VE250_randls_61.json,http://54.235.29.9/FacialAge/BNav_EC2/DepthDuration/v2_depth_duration_MTurk/v2_DepthDuration_HTML.html#381,381,1200,733,800,600,10-7-2022,14-17-56,105,depth_duration_stimuli/003129_2014-05-12_10-48-10_094959634447_rgbf000100-resize_0/003129_2014-05-12_10-48-10_094959634447_rgbf000100-resize_0-target.png,250,4.9305,6,3097,353,feet,jsons/v1_VE250_randls_61.json,1143528,1886598,34,Man
105,872827,DepthScenes,duration_manipulation_targetAtFixation,jsons/v1_VE250_randls_61.json,http://54.235.29.9/FacialAge/BNav_EC2/DepthDuration/v2_depth_duration_MTurk/v2_DepthDuration_HTML.html#381,381,1200,733,800,600,10-7-2022,14-17-56,106,depth_duration_stimuli/002748_2014-06-22_19-07-22_094959634447_rgbf000078-resize_1/002748_2014-06-22_19-07-22_094959634447_rgbf000078-resize_1-target.png,250,4.6705,8,3451,244,feet,jsons/v1_VE250_randls_61.json,1143528,1886598,34,Man
106,872827,DepthScenes,duration_manipulation_targetAtFixation,jsons/v1_VE250_randls_61.json,http://54.235.29.9/FacialAge/BNav_EC2/DepthDuration/v2_depth_duration_MTurk/v2_DepthDuration_HTML.html#381,381,1200,733,800,600,10-7-2022,14-17-56,107,depth_duration_stimuli/002995_2014-06-15_12-31-26_094959634447_rgbf000150-resize_1/002995_2014-06-15_12-31-26_094959634447_rgbf000150-resize_1-target.png,250,3.8360000000000003,7,3690,260,feet,jsons/v1_VE250_randls_61.json,1143528,1886598,34,Man
107,872827,DepthScenes,duration_manipulation_targetAtFixation,jsons/v1_VE250_randls_61.json,http://54.235.29.9/FacialAge/BNav_EC2/DepthDuration/v2_depth_duration_MTurk/v2_DepthDuration_HTML.html#381,381,1200,733,800,600,10-7-2022,14-17-56,108,depth_duration_stimuli/000917_2014-06-09_22-45-29_260595134347_rgbf000149-resize_3/000917_2014-06-09_22-45-29_260595134347_rgbf000149-resize_3-target.png,250,4.1865,6,3627,250,feet,jsons/v1_VE250_randls_61.json,1143528,1886598,34,Man
108,872827,DepthScenes,duration_manipulation_targetAtFixation,jsons/v1_VE250_randls_61.json,http://54.235.29.9/FacialAge/BNav_EC2/DepthDuration/v2_depth_duration_MTurk/v2_DepthDuration_HTML.html#381,381,1200,733,800,600,10-7-2022,14-17-56,109,depth_duration_stimuli/002323_2014-06-28_20-01-54_260595134347_rgbf000051-resize_4/002323_2014-06-28_20-01-54_260595134347_rgbf000051-resize_4-target.png,250,3.7310000000000003,4,4094,433,feet,jsons/v1_VE250_randls_61.json,1143528,1886598,34,Man
109,872827,DepthScenes,duration_manipulation_targetAtFixation,jsons/v1_VE250_randls_61.json,http://54.235.29.9/FacialAge/BNav_EC2/DepthDuration/v2_depth_duration_MTurk/v2_DepthDuration_HTML.html#381,381,1200,733,800,600,10-7-2022,14-17-56,110,depth_duration_stimuli/000368_2014-06-09_15-53-01_260595134347_rgbf000155-resize_2/000368_2014-06-09_15-53-01_260595134347_rgbf000155-resize_2-target.png,250,2.4859999999999998,9,6177,250,feet,jsons/v1_VE250_randls_61.json,1143528,1886598,34,Man
110,872827,DepthScenes,duration_manipulation_targetAtFixation,jsons/v1_VE250_randls_61.json,http://54.235.29.9/FacialAge/BNav_EC2/DepthDuration/v2_depth_duration_MTurk/v2_DepthDuration_HTML.html#381,381,1200,733,800,600,10-7-2022,14-17-56,111,depth_duration_stimuli/002678_2014-06-13_16-15-32_094959634447_rgbf000151-resize_6/002678_2014-06-13_16-15-32_094959634447_rgbf000151-resize_6-target.png,250,2.1830000000000003,3,3545,178,feet,jsons/v1_VE250_randls_61.json,1143528,1886598,34,Man
111,872827,DepthScenes,duration_manipulation_targetAtFixation,jsons/v1_VE250_randls_61.json,http://54.235.29.9/FacialAge/BNav_EC2/DepthDuration/v2_depth_duration_MTurk/v2_DepthDuration_HTML.html#381,381,1200,733,800,600,10-7-2022,14-17-56,112,depth_duration_stimuli/003621_2014-05-23_18-06-08_094959634447_rgbf000101-resize_1/003621_2014-05-23_18-06-08_094959634447_rgbf000101-resize_1-target.png,250,3.9835,8,5055,249,feet,jsons/v1_VE250_randls_61.json,1143528,1886598,34,Man
112,872827,DepthScenes,duration_manipulation_targetAtFixation,jsons/v1_VE250_randls_61.json,http://54.235.29.9/FacialAge/BNav_EC2/DepthDuration/v2_depth_duration_MTurk/v2_DepthDuration_HTML.html#381,381,1200,733,800,600,10-7-2022,14-17-56,113,depth_duration_stimuli/001584_2014-06-20_11-07-43_260595134347_rgbf000002-resize_1/001584_2014-06-20_11-07-43_260595134347_rgbf000002-resize_1-target.png,250,3.53,0,3413,22,feet,jsons/v1_VE250_randls_61.json,1143528,1886598,34,Man
113,872827,DepthScenes,duration_manipulation_targetAtFixation,jsons/v1_VE250_randls_61.json,http://54.235.29.9/FacialAge/BNav_EC2/DepthDuration/v2_depth_duration_MTurk/v2_DepthDuration_HTML.html#381,381,1200,733,800,600,10-7-2022,14-17-56,114,depth_duration_stimuli/000878_2014-06-08_22-52-45_260595134347_rgbf000045-resize_2/000878_2014-06-08_22-52-45_260595134347_rgbf000045-resize_2-target.png,250,2.092,6,3744,250,feet,jsons/v1_VE250_randls_61.json,1143528,1886598,34,Man
114,872827,DepthScenes,duration_manipulation_targetAtFixation,jsons/v1_VE250_randls_61.json,http://54.235.29.9/FacialAge/BNav_EC2/DepthDuration/v2_depth_duration_MTurk/v2_DepthDuration_HTML.html#381,381,1200,733,800,600,10-7-2022,14-17-56,115,depth_duration_stimuli/002953_2014-06-08_17-32-18_094959634447_rgbf000059-resize_5/002953_2014-06-08_17-32-18_094959634447_rgbf000059-resize_5-target.png,250,1.551,6,6421,253,feet,jsons/v1_VE250_randls_61.json,1143528,1886598,34,Man
115,872827,DepthScenes,duration_manipulation_targetAtFixation,jsons/v1_VE250_randls_61.json,http://54.235.29.9/FacialAge/BNav_EC2/DepthDuration/v2_depth_duration_MTurk/v2_DepthDuration_HTML.html#381,381,1200,733,800,600,10-7-2022,14-17-56,116,depth_duration_stimuli/001170_2014-06-17_15-43-44_260595134347_rgbf000096-resize_6/001170_2014-06-17_15-43-44_260595134347_rgbf000096-resize-original.jpg,250,1.1909999999999998,3,4907,387,feet,jsons/v1_VE250_randls_61.json,1143528,1886598,34,Man
116,872827,DepthScenes,duration_manipulation_targetAtFixation,jsons/v1_VE250_randls_61.json,http://54.235.29.9/FacialAge/BNav_EC2/DepthDuration/v2_depth_duration_MTurk/v2_DepthDuration_HTML.html#381,381,1200,733,800,600,10-7-2022,14-17-56,117,depth_duration_stimuli/001164_2014-06-17_15-35-46_260595134347_rgbf000085-resize_3/001164_2014-06-17_15-35-46_260595134347_rgbf000085-resize_3-target.png,250,2.354,6,15573,425,feet,jsons/v1_VE250_randls_61.json,1143528,1886598,34,Man
117,872827,DepthScenes,duration_manipulation_targetAtFixation,jsons/v1_VE250_randls_61.json,http://54.235.29.9/FacialAge/BNav_EC2/DepthDuration/v2_depth_duration_MTurk/v2_DepthDuration_HTML.html#381,381,1200,733,800,600,10-7-2022,14-17-56,118,depth_duration_stimuli/001136_2014-06-17_15-19-41_260595134347_rgbf000076-resize_3/001136_2014-06-17_15-19-41_260595134347_rgbf000076-resize_3-target.png,250,1.8655,5,6116,250,feet,jsons/v1_VE250_randls_61.json,1143528,1886598,34,Man
118,872827,DepthScenes,duration_manipulation_targetAtFixation,jsons/v1_VE250_randls_61.json,http://54.235.29.9/FacialAge/BNav_EC2/DepthDuration/v2_depth_duration_MTurk/v2_DepthDuration_HTML.html#381,381,1200,733,800,600,10-7-2022,14-17-56,119,depth_duration_stimuli/000009_2014-05-26_14-32-05_260595134347_rgbf000034-resize_3/000009_2014-05-26_14-32-05_260595134347_rgbf000034-resize_3-target.png,250,3.8715,5,4916,231,feet,jsons/v1_VE250_randls_61.json,1143528,1886598,34,Man
119,872827,DepthScenes,duration_manipulation_targetAtFixation,jsons/v1_VE250_randls_61.json,http://54.235.29.9/FacialAge/BNav_EC2/DepthDuration/v2_depth_duration_MTurk/v2_DepthDuration_HTML.html#381,381,1200,733,800,600,10-7-2022,14-17-56,120,depth_duration_stimuli/001828_2014-06-26_21-40-03_260595134347_rgbf000024-resize_0/001828_2014-06-26_21-40-03_260595134347_rgbf000024-resize_0-target.png,250,4.8260000000000005,4,5374,251,feet,jsons/v1_VE250_randls_61.json,1143528,1886598,34,Man
120,872827,DepthScenes,duration_manipulation_targetAtFixation,jsons/v1_VE250_randls_61.json,http://54.235.29.9/FacialAge/BNav_EC2/DepthDuration/v2_depth_duration_MTurk/v2_DepthDuration_HTML.html#381,381,1200,733,800,600,10-7-2022,14-17-56,121,depth_duration_stimuli/001133_2014-06-17_14-49-16_260595134347_rgbf000100-resize_0/001133_2014-06-17_14-49-16_260595134347_rgbf000100-resize_0-target.png,250,4.2115,5,23134,251,feet,jsons/v1_VE250_randls_61.json,1143528,1886598,34,Man
121,872827,DepthScenes,duration_manipulation_targetAtFixation,jsons/v1_VE250_randls_61.json,http://54.235.29.9/FacialAge/BNav_EC2/DepthDuration/v2_depth_duration_MTurk/v2_DepthDuration_HTML.html#381,381,1200,733,800,600,10-7-2022,14-17-56,122,depth_duration_stimuli/001132_2014-06-17_14-48-54_260595134347_rgbf000100-resize_2/001132_2014-06-17_14-48-54_260595134347_rgbf000100-resize_2-target.png,250,3.753,4,7508,248,feet,jsons/v1_VE250_randls_61.json,1143528,1886598,34,Man
122,872827,DepthScenes,duration_manipulation_targetAtFixation,jsons/v1_VE250_randls_61.json,http://54.235.29.9/FacialAge/BNav_EC2/DepthDuration/v2_depth_duration_MTurk/v2_DepthDuration_HTML.html#381,381,1200,733,800,600,10-7-2022,14-17-56,123,depth_duration_stimuli/003292_2014-05-14_21-53-49_094959634447_rgbf000100-resize_2/003292_2014-05-14_21-53-49_094959634447_rgbf000100-resize_2-target.png,250,3.4815,6,12035,251,feet,jsons/v1_VE250_randls_61.json,1143528,1886598,34,Man
123,872827,DepthScenes,duration_manipulation_targetAtFixation,jsons/v1_VE250_randls_61.json,http://54.235.29.9/FacialAge/BNav_EC2/DepthDuration/v2_depth_duration_MTurk/v2_DepthDuration_HTML.html#381,381,1200,733,800,600,10-7-2022,14-17-56,124,depth_duration_stimuli/002639_2014-06-24_14-51-37_094959634447_rgbf000074-resize_4/002639_2014-06-24_14-51-37_094959634447_rgbf000074-resize_4-target.png,250,4.0375,5,4936,179,feet,jsons/v1_VE250_randls_61.json,1143528,1886598,34,Man
124,872827,DepthScenes,duration_manipulation_targetAtFixation,jsons/v1_VE250_randls_61.json,http://54.235.29.9/FacialAge/BNav_EC2/DepthDuration/v2_depth_duration_MTurk/v2_DepthDuration_HTML.html#381,381,1200,733,800,600,10-7-2022,14-17-56,125,depth_duration_stimuli/001167_2014-06-17_15-38-07_260595134347_rgbf000108-resize_0/001167_2014-06-17_15-38-07_260595134347_rgbf000108-resize_0-target.png,250,1.8505,3,3734,210,feet,jsons/v1_VE250_randls_61.json,1143528,1886598,34,Man
125,872827,DepthScenes,duration_manipulation_targetAtFixation,jsons/v1_VE250_randls_61.json,http://54.235.29.9/FacialAge/BNav_EC2/DepthDuration/v2_depth_duration_MTurk/v2_DepthDuration_HTML.html#381,381,1200,733,800,600,10-7-2022,14-17-56,126,depth_duration_stimuli/003587_2014-05-23_16-48-02_094959634447_rgbf002384-resize_2/003587_2014-05-23_16-48-02_094959634447_rgbf002384-resize_2-target.png,250,1.357,4,3470,249,feet,jsons/v1_VE250_randls_61.json,1143528,1886598,34,Man
126,872827,DepthScenes,duration_manipulation_targetAtFixation,jsons/v1_VE250_randls_61.json,http://54.235.29.9/FacialAge/BNav_EC2/DepthDuration/v2_depth_duration_MTurk/v2_DepthDuration_HTML.html#381,381,1200,733,800,600,10-7-2022,14-17-56,127,depth_duration_stimuli/001158_2014-06-17_15-32-16_260595134347_rgbf000138-resize_2/001158_2014-06-17_15-32-16_260595134347_rgbf000138-resize_2-target.png,250,4.5315,4,5754,253,feet,jsons/v1_VE250_randls_61.json,1143528,1886598,34,Man
127,872827,DepthScenes,duration_manipulation_targetAtFixation,jsons/v1_VE250_randls_61.json,http://54.235.29.9/FacialAge/BNav_EC2/DepthDuration/v2_depth_duration_MTurk/v2_DepthDuration_HTML.html#381,381,1200,733,800,600,10-7-2022,14-17-56,128,depth_duration_stimuli/000556_2014-06-09_22-42-56_260595134347_rgbf000214-resize_1/000556_2014-06-09_22-42-56_260595134347_rgbf000214-resize_1-target.png,250,4.8415,5,3850,249,feet,jsons/v1_VE250_randls_61.json,1143528,1886598,34,Man
128,872827,DepthScenes,duration_manipulation_targetAtFixation,jsons/v1_VE250_randls_61.json,http://54.235.29.9/FacialAge/BNav_EC2/DepthDuration/v2_depth_duration_MTurk/v2_DepthDuration_HTML.html#381,381,1200,733,800,600,10-7-2022,14-17-56,129,depth_duration_stimuli/000469_2014-06-09_19-42-10_260595134347_rgbf000081-resize_1/000469_2014-06-09_19-42-10_260595134347_rgbf000081-resize_1-target.png,250,1.652,0,3050,14,feet,jsons/v1_VE250_randls_61.json,1143528,1886598,34,Man
129,872827,DepthScenes,duration_manipulation_targetAtFixation,jsons/v1_VE250_randls_61.json,http://54.235.29.9/FacialAge/BNav_EC2/DepthDuration/v2_depth_duration_MTurk/v2_DepthDuration_HTML.html#381,381,1200,733,800,600,10-7-2022,14-17-56,130,depth_duration_stimuli/000483_2014-06-09_20-41-45_260595134347_rgbf000116-resize_4/000483_2014-06-09_20-41-45_260595134347_rgbf000116-resize_4-target.png,250,1.337,0,3064,248,feet,jsons/v1_VE250_randls_61.json,1143528,1886598,34,Man
130,872827,DepthScenes,duration_manipulation_targetAtFixation,jsons/v1_VE250_randls_61.json,http://54.235.29.9/FacialAge/BNav_EC2/DepthDuration/v2_depth_duration_MTurk/v2_DepthDuration_HTML.html#381,381,1200,733,800,600,10-7-2022,14-17-56,131,depth_duration_stimuli/002272_2014-06-28_18-53-56_260595134347_rgbf000067-resize_2/002272_2014-06-28_18-53-56_260595134347_rgbf000067-resize_2-target.png,250,1.138,3,7029,249,feet,jsons/v1_VE250_randls_61.json,1143528,1886598,34,Man
131,872827,DepthScenes,duration_manipulation_targetAtFixation,jsons/v1_VE250_randls_61.json,http://54.235.29.9/FacialAge/BNav_EC2/DepthDuration/v2_depth_duration_MTurk/v2_DepthDuration_HTML.html#381,381,1200,733,800,600,10-7-2022,14-17-56,132,depth_duration_stimuli/001571_2014-06-20_17-21-32_260595134347_rgbf000089-resize_1/001571_2014-06-20_17-21-32_260595134347_rgbf000089-resize_1-target.png,250,1.86,6,4274,415,feet,jsons/v1_VE250_randls_61.json,1143528,1886598,34,Man
132,872827,DepthScenes,duration_manipulation_targetAtFixation,jsons/v1_VE250_randls_61.json,http://54.235.29.9/FacialAge/BNav_EC2/DepthDuration/v2_depth_duration_MTurk/v2_DepthDuration_HTML.html#381,381,1200,733,800,600,10-7-2022,14-17-56,133,depth_duration_stimuli/000906_2014-06-08_13-35-43_260595134347_rgbf000155-resize_1/000906_2014-06-08_13-35-43_260595134347_rgbf000155-resize_1-target.png,250,2.8489999999999998,5,44933,52,feet,jsons/v1_VE250_randls_61.json,1143528,1886598,34,Man
133,872827,DepthScenes,duration_manipulation_targetAtFixation,jsons/v1_VE250_randls_61.json,http://54.235.29.9/FacialAge/BNav_EC2/DepthDuration/v2_depth_duration_MTurk/v2_DepthDuration_HTML.html#381,381,1200,733,800,600,10-7-2022,14-17-56,134,depth_duration_stimuli/002805_2014-06-22_19-54-03_094959634447_rgbf000079-resize_1/002805_2014-06-22_19-54-03_094959634447_rgbf000079-resize_1-target.png,250,3.1439999999999997,4,17571,249,feet,jsons/v1_VE250_randls_61.json,1143528,1886598,34,Man
134,872827,DepthScenes,duration_manipulation_targetAtFixation,jsons/v1_VE250_randls_61.json,http://54.235.29.9/FacialAge/BNav_EC2/DepthDuration/v2_depth_duration_MTurk/v2_DepthDuration_HTML.html#381,381,1200,733,800,600,10-7-2022,14-17-56,135,depth_duration_stimuli/002072_2014-06-24_21-48-06_260595134347_rgbf000115-resize_0/002072_2014-06-24_21-48-06_260595134347_rgbf000115-resize-original.jpg,250,4.702,5,5560,251,feet,jsons/v1_VE250_randls_61.json,1143528,1886598,34,Man
135,872827,DepthScenes,duration_manipulation_targetAtFixation,jsons/v1_VE250_randls_61.json,http://54.235.29.9/FacialAge/BNav_EC2/DepthDuration/v2_depth_duration_MTurk/v2_DepthDuration_HTML.html#381,381,1200,733,800,600,10-7-2022,14-17-56,136,depth_duration_stimuli/001016_2014-06-09_16-16-10_260595134347_rgbf000112-resize_5/001016_2014-06-09_16-16-10_260595134347_rgbf000112-resize_5-target.png,250,1.6565,4,51945,234,feet,jsons/v1_VE250_randls_61.json,1143528,1886598,34,Man
136,872827,DepthScenes,duration_manipulation_targetAtFixation,jsons/v1_VE250_randls_61.json,http://54.235.29.9/FacialAge/BNav_EC2/DepthDuration/v2_depth_duration_MTurk/v2_DepthDuration_HTML.html#381,381,1200,733,800,600,10-7-2022,14-17-56,137,depth_duration_stimuli/002340_2014-06-28_20-05-46_260595134347_rgbf000113-resize_0/002340_2014-06-28_20-05-46_260595134347_rgbf000113-resize_0-target.png,250,2.4735,3,8335,239,feet,jsons/v1_VE250_randls_61.json,1143528,1886598,34,Man
137,872827,DepthScenes,duration_manipulation_targetAtFixation,jsons/v1_VE250_randls_61.json,http://54.235.29.9/FacialAge/BNav_EC2/DepthDuration/v2_depth_duration_MTurk/v2_DepthDuration_HTML.html#381,381,1200,733,800,600,10-7-2022,14-17-56,138,depth_duration_stimuli/000810_2014-06-08_17-20-01_260595134347_rgbf000105-resize_0/000810_2014-06-08_17-20-01_260595134347_rgbf000105-resize_0-target.png,250,1.4865,5,5221,251,feet,jsons/v1_VE250_randls_61.json,1143528,1886598,34,Man
138,872827,DepthScenes,duration_manipulation_targetAtFixation,jsons/v1_VE250_randls_61.json,http://54.235.29.9/FacialAge/BNav_EC2/DepthDuration/v2_depth_duration_MTurk/v2_DepthDuration_HTML.html#381,381,1200,733,800,600,10-7-2022,14-17-56,139,depth_duration_stimuli/001214_2014-06-17_16-13-55_260595134347_rgbf000111-resize_0/001214_2014-06-17_16-13-55_260595134347_rgbf000111-resize_0-target.png,250,2.6505,5,3423,188,feet,jsons/v1_VE250_randls_61.json,1143528,1886598,34,Man
139,872827,DepthScenes,duration_manipulation_targetAtFixation,jsons/v1_VE250_randls_61.json,http://54.235.29.9/FacialAge/BNav_EC2/DepthDuration/v2_depth_duration_MTurk/v2_DepthDuration_HTML.html#381,381,1200,733,800,600,10-7-2022,14-17-56,140,depth_duration_stimuli/001810_2014-06-26_20-51-35_260595134347_rgbf000040-resize_3/001810_2014-06-26_20-51-35_260595134347_rgbf000040-resize_3-target.png,250,2.2525,5,22163,250,feet,jsons/v1_VE250_randls_61.json,1143528,1886598,34,Man
140,872827,DepthScenes,duration_manipulation_targetAtFixation,jsons/v1_VE250_randls_61.json,http://54.235.29.9/FacialAge/BNav_EC2/DepthDuration/v2_depth_duration_MTurk/v2_DepthDuration_HTML.html#381,381,1200,733,800,600,10-7-2022,14-17-56,141,depth_duration_stimuli/003010_2014-06-15_12-54-35_094959634447_rgbf000112-resize_0/003010_2014-06-15_12-54-35_094959634447_rgbf000112-resize_0-target.png,250,3.1185,3,3722,240,feet,jsons/v1_VE250_randls_61.json,1143528,1886598,34,Man
141,872827,DepthScenes,duration_manipulation_targetAtFixation,jsons/v1_VE250_randls_61.json,http://54.235.29.9/FacialAge/BNav_EC2/DepthDuration/v2_depth_duration_MTurk/v2_DepthDuration_HTML.html#381,381,1200,733,800,600,10-7-2022,14-17-56,142,depth_duration_stimuli/001059_2014-06-08_21-53-27_260595134347_rgbf000061-resize_4/001059_2014-06-08_21-53-27_260595134347_rgbf000061-resize_4-target.png,250,2.4185,4,9985,433,feet,jsons/v1_VE250_randls_61.json,1143528,1886598,34,Man
142,872827,DepthScenes,duration_manipulation_targetAtFixation,jsons/v1_VE250_randls_61.json,http://54.235.29.9/FacialAge/BNav_EC2/DepthDuration/v2_depth_duration_MTurk/v2_DepthDuration_HTML.html#381,381,1200,733,800,600,10-7-2022,14-17-56,143,depth_duration_stimuli/001032_2014-06-08_13-23-17_260595134347_rgbf000021-resize_3/001032_2014-06-08_13-23-17_260595134347_rgbf000021-resize_3-target.png,250,3.2725,3,3335,239,feet,jsons/v1_VE250_randls_61.json,1143528,1886598,34,Man
143,872827,DepthScenes,duration_manipulation_targetAtFixation,jsons/v1_VE250_randls_61.json,http://54.235.29.9/FacialAge/BNav_EC2/DepthDuration/v2_depth_duration_MTurk/v2_DepthDuration_HTML.html#381,381,1200,733,800,600,10-7-2022,14-17-56,144,depth_duration_stimuli/003070_2014-06-15_14-58-27_094959634447_rgbf000150-resize_3/003070_2014-06-15_14-58-27_094959634447_rgbf000150-resize_3-target.png,250,2.9415,5,5343,179,feet,jsons/v1_VE250_randls_61.json,1143528,1886598,34,Man
144,872827,DepthScenes,duration_manipulation_targetAtFixation,jsons/v1_VE250_randls_61.json,http://54.235.29.9/FacialAge/BNav_EC2/DepthDuration/v2_depth_duration_MTurk/v2_DepthDuration_HTML.html#381,381,1200,733,800,600,10-7-2022,14-17-56,145,depth_duration_stimuli/000943_2014-06-09_19-31-07_260595134347_rgbf000128-resize_1/000943_2014-06-09_19-31-07_260595134347_rgbf000128-resize_1-target.png,250,1.9765,0,3195,224,feet,jsons/v1_VE250_randls_61.json,1143528,1886598,34,Man
145,872827,DepthScenes,duration_manipulation_targetAtFixation,jsons/v1_VE250_randls_61.json,http://54.235.29.9/FacialAge/BNav_EC2/DepthDuration/v2_depth_duration_MTurk/v2_DepthDuration_HTML.html#381,381,1200,733,800,600,10-7-2022,14-17-56,146,depth_duration_stimuli/001498_2014-06-19_17-45-14_260595134347_rgbf000129-resize_4/001498_2014-06-19_17-45-14_260595134347_rgbf000129-resize-original.jpg,250,1.4075,0,3336,250,feet,jsons/v1_VE250_randls_61.json,1143528,1886598,34,Man
146,872827,DepthScenes,duration_manipulation_targetAtFixation,jsons/v1_VE250_randls_61.json,http://54.235.29.9/FacialAge/BNav_EC2/DepthDuration/v2_depth_duration_MTurk/v2_DepthDuration_HTML.html#381,381,1200,733,800,600,10-7-2022,14-17-56,147,depth_duration_stimuli/002964_2014-06-08_17-46-11_094959634447_rgbf000091-resize_4/002964_2014-06-08_17-46-11_094959634447_rgbf000091-resize_4-target.png,250,1.6909999999999998,3,3612,243,feet,jsons/v1_VE250_randls_61.json,1143528,1886598,34,Man
147,872827,DepthScenes,duration_manipulation_targetAtFixation,jsons/v1_VE250_randls_61.json,http://54.235.29.9/FacialAge/BNav_EC2/DepthDuration/v2_depth_duration_MTurk/v2_DepthDuration_HTML.html#381,381,1200,733,800,600,10-7-2022,14-17-56,148,depth_duration_stimuli/002136_2014-06-25_21-18-03_260595134347_rgbf000109-resize_3/002136_2014-06-25_21-18-03_260595134347_rgbf000109-resize_3-target.png,250,1.9569999999999999,0,2955,247,feet,jsons/v1_VE250_randls_61.json,1143528,1886598,34,Man
148,872827,DepthScenes,duration_manipulation_targetAtFixation,jsons/v1_VE250_randls_61.json,http://54.235.29.9/FacialAge/BNav_EC2/DepthDuration/v2_depth_duration_MTurk/v2_DepthDuration_HTML.html#381,381,1200,733,800,600,10-7-2022,14-17-56,149,depth_duration_stimuli/002039_2014-06-24_20-22-38_260595134347_rgbf000084-resize_1/002039_2014-06-24_20-22-38_260595134347_rgbf000084-resize_1-target.png,250,4.408,4,14985,247,feet,jsons/v1_VE250_randls_61.json,1143528,1886598,34,Man
149,872827,DepthScenes,duration_manipulation_targetAtFixation,jsons/v1_VE250_randls_61.json,http://54.235.29.9/FacialAge/BNav_EC2/DepthDuration/v2_depth_duration_MTurk/v2_DepthDuration_HTML.html#381,381,1200,733,800,600,10-7-2022,14-17-56,150,depth_duration_stimuli/002103_2014-06-25_20-00-40_260595134347_rgbf000049-resize_0/002103_2014-06-25_20-00-40_260595134347_rgbf000049-resize_0-target.png,250,4.105,2,3520,251,feet,jsons/v1_VE250_randls_61.json,1143528,1886598,34,Man
150,872827,DepthScenes,duration_manipulation_targetAtFixation,jsons/v1_VE250_randls_61.json,http://54.235.29.9/FacialAge/BNav_EC2/DepthDuration/v2_depth_duration_MTurk/v2_DepthDuration_HTML.html#381,381,1200,733,800,600,10-7-2022,14-17-56,151,depth_duration_stimuli/001029_2014-06-08_13-17-57_260595134347_rgbf000065-resize_1/001029_2014-06-08_13-17-57_260595134347_rgbf000065-resize_1-target.png,250,3.0835,4,5373,239,feet,jsons/v1_VE250_randls_61.json,1143528,1886598,34,Man
151,872827,DepthScenes,duration_manipulation_targetAtFixation,jsons/v1_VE250_randls_61.json,http://54.235.29.9/FacialAge/BNav_EC2/DepthDuration/v2_depth_duration_MTurk/v2_DepthDuration_HTML.html#381,381,1200,733,800,600,10-7-2022,14-17-56,152,depth_duration_stimuli/000677_2014-06-08_23-10-32_260595134347_rgbf000158-resize_6/000677_2014-06-08_23-10-32_260595134347_rgbf000158-resize_6-target.png,250,3.556,0,3050,248,feet,jsons/v1_VE250_randls_61.json,1143528,1886598,34,Man
152,872827,DepthScenes,duration_manipulation_targetAtFixation,jsons/v1_VE250_randls_61.json,http://54.235.29.9/FacialAge/BNav_EC2/DepthDuration/v2_depth_duration_MTurk/v2_DepthDuration_HTML.html#381,381,1200,733,800,600,10-7-2022,14-17-56,153,depth_duration_stimuli/001199_2014-06-17_16-03-48_260595134347_rgbf000077-resize_0/001199_2014-06-17_16-03-48_260595134347_rgbf000077-resize_0-target.png,250,3.4375,5,5390,249,feet,jsons/v1_VE250_randls_61.json,1143528,1886598,34,Man
153,872827,DepthScenes,duration_manipulation_targetAtFixation,jsons/v1_VE250_randls_61.json,http://54.235.29.9/FacialAge/BNav_EC2/DepthDuration/v2_depth_duration_MTurk/v2_DepthDuration_HTML.html#381,381,1200,733,800,600,10-7-2022,14-17-56,154,depth_duration_stimuli/000502_2014-06-08_23-02-32_260595134347_rgbf000063-resize_4/000502_2014-06-08_23-02-32_260595134347_rgbf000063-resize_4-target.png,250,2.431,3,3218,248,feet,jsons/v1_VE250_randls_61.json,1143528,1886598,34,Man
154,872827,DepthScenes,duration_manipulation_targetAtFixation,jsons/v1_VE250_randls_61.json,http://54.235.29.9/FacialAge/BNav_EC2/DepthDuration/v2_depth_duration_MTurk/v2_DepthDuration_HTML.html#381,381,1200,733,800,600,10-7-2022,14-17-56,155,depth_duration_stimuli/001092_2014-06-15_17-34-58_260595134347_rgbf000171-resize_3/001092_2014-06-15_17-34-58_260595134347_rgbf000171-resize_3-target.png,250,2.6935,6,3468,260,feet,jsons/v1_VE250_randls_61.json,1143528,1886598,34,Man
155,872827,DepthScenes,duration_manipulation_targetAtFixation,jsons/v1_VE250_randls_61.json,http://54.235.29.9/FacialAge/BNav_EC2/DepthDuration/v2_depth_duration_MTurk/v2_DepthDuration_HTML.html#381,381,1200,733,800,600,10-7-2022,14-17-56,156,depth_duration_stimuli/002545_2014-06-24_13-38-53_094959634447_rgbf000080-resize_4/002545_2014-06-24_13-38-53_094959634447_rgbf000080-resize_4-target.png,250,1.9205,4,7404,250,feet,jsons/v1_VE250_randls_61.json,1143528,1886598,34,Man
156,872827,DepthScenes,duration_manipulation_targetAtFixation,jsons/v1_VE250_randls_61.json,http://54.235.29.9/FacialAge/BNav_EC2/DepthDuration/v2_depth_duration_MTurk/v2_DepthDuration_HTML.html#381,381,1200,733,800,600,10-7-2022,14-17-56,157,depth_duration_stimuli/002279_2014-06-28_18-55-32_260595134347_rgbf000040-resize_5/002279_2014-06-28_18-55-32_260595134347_rgbf000040-resize_5-target.png,250,1.5043333333333,5,3238,173,feet,jsons/v1_VE250_randls_61.json,1143528,1886598,34,Man
157,872827,DepthScenes,duration_manipulation_targetAtFixation,jsons/v1_VE250_randls_61.json,http://54.235.29.9/FacialAge/BNav_EC2/DepthDuration/v2_depth_duration_MTurk/v2_DepthDuration_HTML.html#381,381,1200,733,800,600,10-7-2022,14-17-56,158,depth_duration_stimuli/000635_2014-06-08_16-38-42_260595134347_rgbf000106-resize_1/000635_2014-06-08_16-38-42_260595134347_rgbf000106-resize_1-target.png,250,2.074,3,3587,248,feet,jsons/v1_VE250_randls_61.json,1143528,1886598,34,Man
158,872827,DepthScenes,duration_manipulation_targetAtFixation,jsons/v1_VE250_randls_61.json,http://54.235.29.9/FacialAge/BNav_EC2/DepthDuration/v2_depth_duration_MTurk/v2_DepthDuration_HTML.html#381,381,1200,733,800,600,10-7-2022,14-17-56,159,depth_duration_stimuli/002153_2014-06-25_21-27-18_260595134347_rgbf000038-resize_5/002153_2014-06-25_21-27-18_260595134347_rgbf000038-resize_5-target.png,250,2.505,5,3668,257,feet,jsons/v1_VE250_randls_61.json,1143528,1886598,34,Man
159,872827,DepthScenes,duration_manipulation_targetAtFixation,jsons/v1_VE250_randls_61.json,http://54.235.29.9/FacialAge/BNav_EC2/DepthDuration/v2_depth_duration_MTurk/v2_DepthDuration_HTML.html#381,381,1200,733,800,600,10-7-2022,14-17-56,160,depth_duration_stimuli/002660_2014-06-13_15-44-18_094959634447_rgbf001878-resize_2/002660_2014-06-13_15-44-18_094959634447_rgbf001878-resize_2-target.png,250,3.576,7,3434,239,feet,jsons/v1_VE250_randls_61.json,1143528,1886598,34,Man
160,872827,DepthScenes,duration_manipulation_targetAtFixation,jsons/v1_VE250_randls_61.json,http://54.235.29.9/FacialAge/BNav_EC2/DepthDuration/v2_depth_duration_MTurk/v2_DepthDuration_HTML.html#381,381,1200,733,800,600,10-7-2022,14-17-56,161,depth_duration_stimuli/000493_2014-06-09_21-01-18_260595134347_rgbf000196-resize_3/000493_2014-06-09_21-01-18_260595134347_rgbf000196-resize_3-target.png,250,3.44,5,6909,362,feet,jsons/v1_VE250_randls_61.json,1143528,1886598,34,Man
161,872827,DepthScenes,duration_manipulation_targetAtFixation,jsons/v1_VE250_randls_61.json,http://54.235.29.9/FacialAge/BNav_EC2/DepthDuration/v2_depth_duration_MTurk/v2_DepthDuration_HTML.html#381,381,1200,733,800,600,10-7-2022,14-17-56,162,depth_duration_stimuli/000191_2014-05-12_17-07-38_260595134347_rgbf000199-resize_0/000191_2014-05-12_17-07-38_260595134347_rgbf000199-resize_0-target.png,250,3.7995,6,4296,255,feet,jsons/v1_VE250_randls_61.json,1143528,1886598,34,Man
162,872827,DepthScenes,duration_manipulation_targetAtFixation,jsons/v1_VE250_randls_61.json,http://54.235.29.9/FacialAge/BNav_EC2/DepthDuration/v2_depth_duration_MTurk/v2_DepthDuration_HTML.html#381,381,1200,733,800,600,10-7-2022,14-17-56,163,depth_duration_stimuli/000739_2014-06-08_18-45-58_260595134347_rgbf000068-resize_1/000739_2014-06-08_18-45-58_260595134347_rgbf000068-resize_1-target.png,250,3.534,9,3823,245,feet,jsons/v1_VE250_randls_61.json,1143528,1886598,34,Man
163,872827,DepthScenes,duration_manipulation_targetAtFixation,jsons/v1_VE250_randls_61.json,http://54.235.29.9/FacialAge/BNav_EC2/DepthDuration/v2_depth_duration_MTurk/v2_DepthDuration_HTML.html#381,381,1200,733,800,600,10-7-2022,14-17-56,164,depth_duration_stimuli/000734_2014-06-08_17-39-11_260595134347_rgbf000128-resize_2/000734_2014-06-08_17-39-11_260595134347_rgbf000128-resize_2-target.png,250,4.098,6,7360,259,feet,jsons/v1_VE250_randls_61.json,1143528,1886598,34,Man
