,subjID,experimentName,versionName,sequenceName,url,selected_row,windowWidth,windowHeight,screenWidth,screenHeight,startDate,startTime,trial,stimulus,duration,actual_depth,depth_estimate,trial_RT,log_sceneDuration,unitSelection,seq_filepath,experimentTime,totalTime,age,gender
0,873209,DepthScenes,duration_manipulation_targetAtFixation,jsons/v1_VE250_randls_41_rotated.json,http://54.235.29.9/FacialAge/BNav_EC2/DepthDuration/v2_depth_duration_MTurk/v2_DepthDuration_HTML.html#114,114,1364,768,1364,768,9-4-2022,11-36-24,1,depth_duration_stimuli/003081_2014-06-15_15-19-16_094959634447_rgbf000150-resize_1/003081_2014-06-15_15-19-16_094959634447_rgbf000150-resize_1-target.png,250,3.9125,5.0,17036,250,feet,jsons/v1_VE250_randls_41_rotated.json,1823163,1963509,39,Woman
1,873209,DepthScenes,duration_manipulation_targetAtFixation,jsons/v1_VE250_randls_41_rotated.json,http://54.235.29.9/FacialAge/BNav_EC2/DepthDuration/v2_depth_duration_MTurk/v2_DepthDuration_HTML.html#114,114,1364,768,1364,768,9-4-2022,11-36-24,2,depth_duration_stimuli/001417_2014-06-19_16-25-36_260595134347_rgbf000115-resize_5/001417_2014-06-19_16-25-36_260595134347_rgbf000115-resize_5-target.png,250,4.6255,5.0,3569,249,feet,jsons/v1_VE250_randls_41_rotated.json,1823163,1963509,39,Woman
2,873209,DepthScenes,duration_manipulation_targetAtFixation,jsons/v1_VE250_randls_41_rotated.json,http://54.235.29.9/FacialAge/BNav_EC2/DepthDuration/v2_depth_duration_MTurk/v2_DepthDuration_HTML.html#114,114,1364,768,1364,768,9-4-2022,11-36-24,3,depth_duration_stimuli/002199_2014-06-28_18-33-56_260595134347_rgbf000074-resize_0/002199_2014-06-28_18-33-56_260595134347_rgbf000074-resize_0-target.png,250,1.996,2.0,9177,251,feet,jsons/v1_VE250_randls_41_rotated.json,1823163,1963509,39,Woman
3,873209,DepthScenes,duration_manipulation_targetAtFixation,jsons/v1_VE250_randls_41_rotated.json,http://54.235.29.9/FacialAge/BNav_EC2/DepthDuration/v2_depth_duration_MTurk/v2_DepthDuration_HTML.html#114,114,1364,768,1364,768,9-4-2022,11-36-24,4,depth_duration_stimuli/001056_2014-06-08_18-46-44_260595134347_rgbf000068-resize_0/001056_2014-06-08_18-46-44_260595134347_rgbf000068-resize_0-target.png,250,2.6625,5.0,4795,249,feet,jsons/v1_VE250_randls_41_rotated.json,1823163,1963509,39,Woman
4,873209,DepthScenes,duration_manipulation_targetAtFixation,jsons/v1_VE250_randls_41_rotated.json,http://54.235.29.9/FacialAge/BNav_EC2/DepthDuration/v2_depth_duration_MTurk/v2_DepthDuration_HTML.html#114,114,1364,768,1364,768,9-4-2022,11-36-24,5,depth_duration_stimuli/000866_2014-06-09_20-45-42_260595134347_rgbf000139-resize_1/000866_2014-06-09_20-45-42_260595134347_rgbf000139-resize_1-target.png,250,3.2155,4.0,11315,251,feet,jsons/v1_VE250_randls_41_rotated.json,1823163,1963509,39,Woman
5,873209,DepthScenes,duration_manipulation_targetAtFixation,jsons/v1_VE250_randls_41_rotated.json,http://54.235.29.9/FacialAge/BNav_EC2/DepthDuration/v2_depth_duration_MTurk/v2_DepthDuration_HTML.html#114,114,1364,768,1364,768,9-4-2022,11-36-24,6,depth_duration_stimuli/002989_2014-06-15_12-25-03_094959634447_rgbf000150-resize_3/002989_2014-06-15_12-25-03_094959634447_rgbf000150-resize_3-target.png,250,4.1975,6.0,5623,250,feet,jsons/v1_VE250_randls_41_rotated.json,1823163,1963509,39,Woman
6,873209,DepthScenes,duration_manipulation_targetAtFixation,jsons/v1_VE250_randls_41_rotated.json,http://54.235.29.9/FacialAge/BNav_EC2/DepthDuration/v2_depth_duration_MTurk/v2_DepthDuration_HTML.html#114,114,1364,768,1364,768,9-4-2022,11-36-24,7,depth_duration_stimuli/002344_2014-06-28_20-06-29_260595134347_rgbf000030-resize_1/002344_2014-06-28_20-06-29_260595134347_rgbf000030-resize_1-target.png,250,1.5795,1.0,12696,250,feet,jsons/v1_VE250_randls_41_rotated.json,1823163,1963509,39,Woman
7,873209,DepthScenes,duration_manipulation_targetAtFixation,jsons/v1_VE250_randls_41_rotated.json,http://54.235.29.9/FacialAge/BNav_EC2/DepthDuration/v2_depth_duration_MTurk/v2_DepthDuration_HTML.html#114,114,1364,768,1364,768,9-4-2022,11-36-24,8,depth_duration_stimuli/002725_2014-06-22_11-47-51_094959634447_rgbf000070-resize_1/002725_2014-06-22_11-47-51_094959634447_rgbf000070-resize_1-target.png,250,2.195,5.0,5640,249,feet,jsons/v1_VE250_randls_41_rotated.json,1823163,1963509,39,Woman
8,873209,DepthScenes,duration_manipulation_targetAtFixation,jsons/v1_VE250_randls_41_rotated.json,http://54.235.29.9/FacialAge/BNav_EC2/DepthDuration/v2_depth_duration_MTurk/v2_DepthDuration_HTML.html#114,114,1364,768,1364,768,9-4-2022,11-36-24,9,depth_duration_stimuli/002750_2014-06-22_19-08-03_094959634447_rgbf000094-resize_4/002750_2014-06-22_19-08-03_094959634447_rgbf000094-resize_4-target.png,250,2.354,5.0,12671,239,feet,jsons/v1_VE250_randls_41_rotated.json,1823163,1963509,39,Woman
9,873209,DepthScenes,duration_manipulation_targetAtFixation,jsons/v1_VE250_randls_41_rotated.json,http://54.235.29.9/FacialAge/BNav_EC2/DepthDuration/v2_depth_duration_MTurk/v2_DepthDuration_HTML.html#114,114,1364,768,1364,768,9-4-2022,11-36-24,10,depth_duration_stimuli/002549_2014-06-24_13-41-39_094959634447_rgbf000022-resize_3/002549_2014-06-24_13-41-39_094959634447_rgbf000022-resize_3-target.png,250,1.476,3.0,5825,254,feet,jsons/v1_VE250_randls_41_rotated.json,1823163,1963509,39,Woman
10,873209,DepthScenes,duration_manipulation_targetAtFixation,jsons/v1_VE250_randls_41_rotated.json,http://54.235.29.9/FacialAge/BNav_EC2/DepthDuration/v2_depth_duration_MTurk/v2_DepthDuration_HTML.html#114,114,1364,768,1364,768,9-4-2022,11-36-24,11,depth_duration_stimuli/000483_2014-06-09_20-41-45_260595134347_rgbf000116-resize_4/000483_2014-06-09_20-41-45_260595134347_rgbf000116-resize_4-target.png,250,1.337,2.0,8293,248,feet,jsons/v1_VE250_randls_41_rotated.json,1823163,1963509,39,Woman
11,873209,DepthScenes,duration_manipulation_targetAtFixation,jsons/v1_VE250_randls_41_rotated.json,http://54.235.29.9/FacialAge/BNav_EC2/DepthDuration/v2_depth_duration_MTurk/v2_DepthDuration_HTML.html#114,114,1364,768,1364,768,9-4-2022,11-36-24,12,depth_duration_stimuli/000469_2014-06-09_19-42-10_260595134347_rgbf000081-resize_1/000469_2014-06-09_19-42-10_260595134347_rgbf000081-resize_1-target.png,250,1.652,3.5,4677,249,feet,jsons/v1_VE250_randls_41_rotated.json,1823163,1963509,39,Woman
12,873209,DepthScenes,duration_manipulation_targetAtFixation,jsons/v1_VE250_randls_41_rotated.json,http://54.235.29.9/FacialAge/BNav_EC2/DepthDuration/v2_depth_duration_MTurk/v2_DepthDuration_HTML.html#114,114,1364,768,1364,768,9-4-2022,11-36-24,13,depth_duration_stimuli/001650_2014-06-20_12-09-00_260595134347_rgbf000087-resize_3/001650_2014-06-20_12-09-00_260595134347_rgbf000087-resize_3-target.png,250,1.9505,1.0,7656,249,feet,jsons/v1_VE250_randls_41_rotated.json,1823163,1963509,39,Woman
13,873209,DepthScenes,duration_manipulation_targetAtFixation,jsons/v1_VE250_randls_41_rotated.json,http://54.235.29.9/FacialAge/BNav_EC2/DepthDuration/v2_depth_duration_MTurk/v2_DepthDuration_HTML.html#114,114,1364,768,1364,768,9-4-2022,11-36-24,14,depth_duration_stimuli/000682_2014-06-08_23-14-58_260595134347_rgbf000041-resize_5/000682_2014-06-08_23-14-58_260595134347_rgbf000041-resize_5-target.png,250,2.7239999999999998,3.5,5019,249,feet,jsons/v1_VE250_randls_41_rotated.json,1823163,1963509,39,Woman
14,873209,DepthScenes,duration_manipulation_targetAtFixation,jsons/v1_VE250_randls_41_rotated.json,http://54.235.29.9/FacialAge/BNav_EC2/DepthDuration/v2_depth_duration_MTurk/v2_DepthDuration_HTML.html#114,114,1364,768,1364,768,9-4-2022,11-36-24,15,depth_duration_stimuli/002545_2014-06-24_13-38-53_094959634447_rgbf000080-resize_4/002545_2014-06-24_13-38-53_094959634447_rgbf000080-resize_4-target.png,250,1.9205,4.0,11676,249,feet,jsons/v1_VE250_randls_41_rotated.json,1823163,1963509,39,Woman
15,873209,DepthScenes,duration_manipulation_targetAtFixation,jsons/v1_VE250_randls_41_rotated.json,http://54.235.29.9/FacialAge/BNav_EC2/DepthDuration/v2_depth_duration_MTurk/v2_DepthDuration_HTML.html#114,114,1364,768,1364,768,9-4-2022,11-36-24,16,depth_duration_stimuli/001092_2014-06-15_17-34-58_260595134347_rgbf000171-resize_3/001092_2014-06-15_17-34-58_260595134347_rgbf000171-resize_3-target.png,250,2.6935,4.0,6512,249,feet,jsons/v1_VE250_randls_41_rotated.json,1823163,1963509,39,Woman
16,873209,DepthScenes,duration_manipulation_targetAtFixation,jsons/v1_VE250_randls_41_rotated.json,http://54.235.29.9/FacialAge/BNav_EC2/DepthDuration/v2_depth_duration_MTurk/v2_DepthDuration_HTML.html#114,114,1364,768,1364,768,9-4-2022,11-36-24,17,depth_duration_stimuli/001032_2014-06-08_13-23-17_260595134347_rgbf000021-resize_3/001032_2014-06-08_13-23-17_260595134347_rgbf000021-resize_3-target.png,250,3.2725,3.5,9114,248,feet,jsons/v1_VE250_randls_41_rotated.json,1823163,1963509,39,Woman
17,873209,DepthScenes,duration_manipulation_targetAtFixation,jsons/v1_VE250_randls_41_rotated.json,http://54.235.29.9/FacialAge/BNav_EC2/DepthDuration/v2_depth_duration_MTurk/v2_DepthDuration_HTML.html#114,114,1364,768,1364,768,9-4-2022,11-36-24,18,depth_duration_stimuli/001059_2014-06-08_21-53-27_260595134347_rgbf000061-resize_4/001059_2014-06-08_21-53-27_260595134347_rgbf000061-resize_4-target.png,250,2.4185,4.0,3633,249,feet,jsons/v1_VE250_randls_41_rotated.json,1823163,1963509,39,Woman
18,873209,DepthScenes,duration_manipulation_targetAtFixation,jsons/v1_VE250_randls_41_rotated.json,http://54.235.29.9/FacialAge/BNav_EC2/DepthDuration/v2_depth_duration_MTurk/v2_DepthDuration_HTML.html#114,114,1364,768,1364,768,9-4-2022,11-36-24,19,depth_duration_stimuli/001498_2014-06-19_17-45-14_260595134347_rgbf000129-resize_4/001498_2014-06-19_17-45-14_260595134347_rgbf000129-resize-original.jpg,250,1.4075,0.0,8438,252,feet,jsons/v1_VE250_randls_41_rotated.json,1823163,1963509,39,Woman
19,873209,DepthScenes,duration_manipulation_targetAtFixation,jsons/v1_VE250_randls_41_rotated.json,http://54.235.29.9/FacialAge/BNav_EC2/DepthDuration/v2_depth_duration_MTurk/v2_DepthDuration_HTML.html#114,114,1364,768,1364,768,9-4-2022,11-36-24,20,depth_duration_stimuli/002953_2014-06-08_17-32-18_094959634447_rgbf000059-resize_5/002953_2014-06-08_17-32-18_094959634447_rgbf000059-resize_5-target.png,250,1.551,2.0,9079,249,feet,jsons/v1_VE250_randls_41_rotated.json,1823163,1963509,39,Woman
20,873209,DepthScenes,duration_manipulation_targetAtFixation,jsons/v1_VE250_randls_41_rotated.json,http://54.235.29.9/FacialAge/BNav_EC2/DepthDuration/v2_depth_duration_MTurk/v2_DepthDuration_HTML.html#114,114,1364,768,1364,768,9-4-2022,11-36-24,21,depth_duration_stimuli/000878_2014-06-08_22-52-45_260595134347_rgbf000045-resize_2/000878_2014-06-08_22-52-45_260595134347_rgbf000045-resize_2-target.png,250,2.092,4.5,6336,249,feet,jsons/v1_VE250_randls_41_rotated.json,1823163,1963509,39,Woman
21,873209,DepthScenes,duration_manipulation_targetAtFixation,jsons/v1_VE250_randls_41_rotated.json,http://54.235.29.9/FacialAge/BNav_EC2/DepthDuration/v2_depth_duration_MTurk/v2_DepthDuration_HTML.html#114,114,1364,768,1364,768,9-4-2022,11-36-24,22,depth_duration_stimuli/000677_2014-06-08_23-10-32_260595134347_rgbf000158-resize_6/000677_2014-06-08_23-10-32_260595134347_rgbf000158-resize_6-target.png,250,3.556,5.0,13041,253,feet,jsons/v1_VE250_randls_41_rotated.json,1823163,1963509,39,Woman
22,873209,DepthScenes,duration_manipulation_targetAtFixation,jsons/v1_VE250_randls_41_rotated.json,http://54.235.29.9/FacialAge/BNav_EC2/DepthDuration/v2_depth_duration_MTurk/v2_DepthDuration_HTML.html#114,114,1364,768,1364,768,9-4-2022,11-36-24,23,depth_duration_stimuli/001029_2014-06-08_13-17-57_260595134347_rgbf000065-resize_1/001029_2014-06-08_13-17-57_260595134347_rgbf000065-resize_1-target.png,250,3.0835,4.0,5532,248,feet,jsons/v1_VE250_randls_41_rotated.json,1823163,1963509,39,Woman
23,873209,DepthScenes,duration_manipulation_targetAtFixation,jsons/v1_VE250_randls_41_rotated.json,http://54.235.29.9/FacialAge/BNav_EC2/DepthDuration/v2_depth_duration_MTurk/v2_DepthDuration_HTML.html#114,114,1364,768,1364,768,9-4-2022,11-36-24,24,depth_duration_stimuli/001052_2014-06-08_18-24-54_260595134347_rgbf000130-resize_1/001052_2014-06-08_18-24-54_260595134347_rgbf000130-resize_1-target.png,250,4.1045,6.0,12566,250,feet,jsons/v1_VE250_randls_41_rotated.json,1823163,1963509,39,Woman
24,873209,DepthScenes,duration_manipulation_targetAtFixation,jsons/v1_VE250_randls_41_rotated.json,http://54.235.29.9/FacialAge/BNav_EC2/DepthDuration/v2_depth_duration_MTurk/v2_DepthDuration_HTML.html#114,114,1364,768,1364,768,9-4-2022,11-36-24,25,depth_duration_stimuli/002988_2014-06-15_12-24-20_094959634447_rgbf000150-resize_1/002988_2014-06-15_12-24-20_094959634447_rgbf000150-resize_1-target.png,250,4.7669999999999995,6.0,5349,251,feet,jsons/v1_VE250_randls_41_rotated.json,1823163,1963509,39,Woman
25,873209,DepthScenes,duration_manipulation_targetAtFixation,jsons/v1_VE250_randls_41_rotated.json,http://54.235.29.9/FacialAge/BNav_EC2/DepthDuration/v2_depth_duration_MTurk/v2_DepthDuration_HTML.html#114,114,1364,768,1364,768,9-4-2022,11-36-24,26,depth_duration_stimuli/002678_2014-06-13_16-15-32_094959634447_rgbf000151-resize_6/002678_2014-06-13_16-15-32_094959634447_rgbf000151-resize_6-target.png,250,2.1830000000000003,4.0,17594,250,feet,jsons/v1_VE250_randls_41_rotated.json,1823163,1963509,39,Woman
26,873209,DepthScenes,duration_manipulation_targetAtFixation,jsons/v1_VE250_randls_41_rotated.json,http://54.235.29.9/FacialAge/BNav_EC2/DepthDuration/v2_depth_duration_MTurk/v2_DepthDuration_HTML.html#114,114,1364,768,1364,768,9-4-2022,11-36-24,27,depth_duration_stimuli/000368_2014-06-09_15-53-01_260595134347_rgbf000155-resize_2/000368_2014-06-09_15-53-01_260595134347_rgbf000155-resize_2-target.png,250,2.4859999999999998,3.0,8881,250,feet,jsons/v1_VE250_randls_41_rotated.json,1823163,1963509,39,Woman
27,873209,DepthScenes,duration_manipulation_targetAtFixation,jsons/v1_VE250_randls_41_rotated.json,http://54.235.29.9/FacialAge/BNav_EC2/DepthDuration/v2_depth_duration_MTurk/v2_DepthDuration_HTML.html#114,114,1364,768,1364,768,9-4-2022,11-36-24,28,depth_duration_stimuli/002660_2014-06-13_15-44-18_094959634447_rgbf001878-resize_2/002660_2014-06-13_15-44-18_094959634447_rgbf001878-resize_2-target.png,250,3.576,4.5,11805,250,feet,jsons/v1_VE250_randls_41_rotated.json,1823163,1963509,39,Woman
28,873209,DepthScenes,duration_manipulation_targetAtFixation,jsons/v1_VE250_randls_41_rotated.json,http://54.235.29.9/FacialAge/BNav_EC2/DepthDuration/v2_depth_duration_MTurk/v2_DepthDuration_HTML.html#114,114,1364,768,1364,768,9-4-2022,11-36-24,29,depth_duration_stimuli/002153_2014-06-25_21-27-18_260595134347_rgbf000038-resize_5/002153_2014-06-25_21-27-18_260595134347_rgbf000038-resize_5-target.png,250,2.505,3.0,10321,250,feet,jsons/v1_VE250_randls_41_rotated.json,1823163,1963509,39,Woman
29,873209,DepthScenes,duration_manipulation_targetAtFixation,jsons/v1_VE250_randls_41_rotated.json,http://54.235.29.9/FacialAge/BNav_EC2/DepthDuration/v2_depth_duration_MTurk/v2_DepthDuration_HTML.html#114,114,1364,768,1364,768,9-4-2022,11-36-24,30,depth_duration_stimuli/002072_2014-06-24_21-48-06_260595134347_rgbf000115-resize_0/002072_2014-06-24_21-48-06_260595134347_rgbf000115-resize-original.jpg,250,4.702,0.0,13759,249,feet,jsons/v1_VE250_randls_41_rotated.json,1823163,1963509,39,Woman
30,873209,DepthScenes,duration_manipulation_targetAtFixation,jsons/v1_VE250_randls_41_rotated.json,http://54.235.29.9/FacialAge/BNav_EC2/DepthDuration/v2_depth_duration_MTurk/v2_DepthDuration_HTML.html#114,114,1364,768,1364,768,9-4-2022,11-36-24,31,depth_duration_stimuli/001094_2014-06-15_17-36-00_260595134347_rgbf000205-resize_0/001094_2014-06-15_17-36-00_260595134347_rgbf000205-resize_0-target.png,250,4.2175,5.5,16057,250,feet,jsons/v1_VE250_randls_41_rotated.json,1823163,1963509,39,Woman
31,873209,DepthScenes,duration_manipulation_targetAtFixation,jsons/v1_VE250_randls_41_rotated.json,http://54.235.29.9/FacialAge/BNav_EC2/DepthDuration/v2_depth_duration_MTurk/v2_DepthDuration_HTML.html#114,114,1364,768,1364,768,9-4-2022,11-36-24,32,depth_duration_stimuli/000692_2014-06-08_13-09-42_260595134347_rgbf000199-resize_2/000692_2014-06-08_13-09-42_260595134347_rgbf000199-resize_2-target.png,250,3.661,5.0,4489,249,feet,jsons/v1_VE250_randls_41_rotated.json,1823163,1963509,39,Woman
32,873209,DepthScenes,duration_manipulation_targetAtFixation,jsons/v1_VE250_randls_41_rotated.json,http://54.235.29.9/FacialAge/BNav_EC2/DepthDuration/v2_depth_duration_MTurk/v2_DepthDuration_HTML.html#114,114,1364,768,1364,768,9-4-2022,11-36-24,33,depth_duration_stimuli/001584_2014-06-20_11-07-43_260595134347_rgbf000002-resize_1/001584_2014-06-20_11-07-43_260595134347_rgbf000002-resize_1-target.png,250,3.53,5.0,13576,249,feet,jsons/v1_VE250_randls_41_rotated.json,1823163,1963509,39,Woman
33,873209,DepthScenes,duration_manipulation_targetAtFixation,jsons/v1_VE250_randls_41_rotated.json,http://54.235.29.9/FacialAge/BNav_EC2/DepthDuration/v2_depth_duration_MTurk/v2_DepthDuration_HTML.html#114,114,1364,768,1364,768,9-4-2022,11-36-24,34,depth_duration_stimuli/003621_2014-05-23_18-06-08_094959634447_rgbf000101-resize_1/003621_2014-05-23_18-06-08_094959634447_rgbf000101-resize_1-target.png,250,3.9835,6.0,4925,250,feet,jsons/v1_VE250_randls_41_rotated.json,1823163,1963509,39,Woman
34,873209,DepthScenes,duration_manipulation_targetAtFixation,jsons/v1_VE250_randls_41_rotated.json,http://54.235.29.9/FacialAge/BNav_EC2/DepthDuration/v2_depth_duration_MTurk/v2_DepthDuration_HTML.html#114,114,1364,768,1364,768,9-4-2022,11-36-24,35,depth_duration_stimuli/000943_2014-06-09_19-31-07_260595134347_rgbf000128-resize_1/000943_2014-06-09_19-31-07_260595134347_rgbf000128-resize_1-target.png,250,1.9765,3.5,20486,250,feet,jsons/v1_VE250_randls_41_rotated.json,1823163,1963509,39,Woman
35,873209,DepthScenes,duration_manipulation_targetAtFixation,jsons/v1_VE250_randls_41_rotated.json,http://54.235.29.9/FacialAge/BNav_EC2/DepthDuration/v2_depth_duration_MTurk/v2_DepthDuration_HTML.html#114,114,1364,768,1364,768,9-4-2022,11-36-24,36,depth_duration_stimuli/003070_2014-06-15_14-58-27_094959634447_rgbf000150-resize_3/003070_2014-06-15_14-58-27_094959634447_rgbf000150-resize_3-target.png,250,2.9415,4.0,6326,250,feet,jsons/v1_VE250_randls_41_rotated.json,1823163,1963509,39,Woman
36,873209,DepthScenes,duration_manipulation_targetAtFixation,jsons/v1_VE250_randls_41_rotated.json,http://54.235.29.9/FacialAge/BNav_EC2/DepthDuration/v2_depth_duration_MTurk/v2_DepthDuration_HTML.html#114,114,1364,768,1364,768,9-4-2022,11-36-24,37,depth_duration_stimuli/003079_2014-06-15_15-18-20_094959634447_rgbf000152-resize_8/003079_2014-06-15_15-18-20_094959634447_rgbf000152-resize_8-target.png,250,2.8775,5.0,9029,255,feet,jsons/v1_VE250_randls_41_rotated.json,1823163,1963509,39,Woman
37,873209,DepthScenes,duration_manipulation_targetAtFixation,jsons/v1_VE250_randls_41_rotated.json,http://54.235.29.9/FacialAge/BNav_EC2/DepthDuration/v2_depth_duration_MTurk/v2_DepthDuration_HTML.html#114,114,1364,768,1364,768,9-4-2022,11-36-24,38,depth_duration_stimuli/000506_2014-06-08_23-21-00_260595134347_rgbf000070-resize_7/000506_2014-06-08_23-21-00_260595134347_rgbf000070-resize_7-target.png,250,4.0585,5.0,4064,249,feet,jsons/v1_VE250_randls_41_rotated.json,1823163,1963509,39,Woman
38,873209,DepthScenes,duration_manipulation_targetAtFixation,jsons/v1_VE250_randls_41_rotated.json,http://54.235.29.9/FacialAge/BNav_EC2/DepthDuration/v2_depth_duration_MTurk/v2_DepthDuration_HTML.html#114,114,1364,768,1364,768,9-4-2022,11-36-24,39,depth_duration_stimuli/001571_2014-06-20_17-21-32_260595134347_rgbf000089-resize_1/001571_2014-06-20_17-21-32_260595134347_rgbf000089-resize_1-target.png,250,1.86,3.0,9309,250,feet,jsons/v1_VE250_randls_41_rotated.json,1823163,1963509,39,Woman
39,873209,DepthScenes,duration_manipulation_targetAtFixation,jsons/v1_VE250_randls_41_rotated.json,http://54.235.29.9/FacialAge/BNav_EC2/DepthDuration/v2_depth_duration_MTurk/v2_DepthDuration_HTML.html#114,114,1364,768,1364,768,9-4-2022,11-36-24,40,depth_duration_stimuli/002272_2014-06-28_18-53-56_260595134347_rgbf000067-resize_2/002272_2014-06-28_18-53-56_260595134347_rgbf000067-resize_2-target.png,250,1.138,2.5,9801,249,feet,jsons/v1_VE250_randls_41_rotated.json,1823163,1963509,39,Woman
40,873209,DepthScenes,duration_manipulation_targetAtFixation,jsons/v1_VE250_randls_41_rotated.json,http://54.235.29.9/FacialAge/BNav_EC2/DepthDuration/v2_depth_duration_MTurk/v2_DepthDuration_HTML.html#114,114,1364,768,1364,768,9-4-2022,11-36-24,41,depth_duration_stimuli/003083_2014-06-15_15-21-03_094959634447_rgbf000063-resize_1/003083_2014-06-15_15-21-03_094959634447_rgbf000063-resize_1-target.png,250,4.1405,6.5,17859,251,feet,jsons/v1_VE250_randls_41_rotated.json,1823163,1963509,39,Woman
41,873209,DepthScenes,duration_manipulation_targetAtFixation,jsons/v1_VE250_randls_41_rotated.json,http://54.235.29.9/FacialAge/BNav_EC2/DepthDuration/v2_depth_duration_MTurk/v2_DepthDuration_HTML.html#114,114,1364,768,1364,768,9-4-2022,11-36-24,42,depth_duration_stimuli/000486_2014-06-09_20-47-20_260595134347_rgbf000143-resize_2/000486_2014-06-09_20-47-20_260595134347_rgbf000143-resize_2-target.png,250,4.8325,4.5,14705,249,feet,jsons/v1_VE250_randls_41_rotated.json,1823163,1963509,39,Woman
42,873209,DepthScenes,duration_manipulation_targetAtFixation,jsons/v1_VE250_randls_41_rotated.json,http://54.235.29.9/FacialAge/BNav_EC2/DepthDuration/v2_depth_duration_MTurk/v2_DepthDuration_HTML.html#114,114,1364,768,1364,768,9-4-2022,11-36-24,43,depth_duration_stimuli/000502_2014-06-08_23-02-32_260595134347_rgbf000063-resize_4/000502_2014-06-08_23-02-32_260595134347_rgbf000063-resize_4-target.png,250,2.431,3.0,28160,249,feet,jsons/v1_VE250_randls_41_rotated.json,1823163,1963509,39,Woman
43,873209,DepthScenes,duration_manipulation_targetAtFixation,jsons/v1_VE250_randls_41_rotated.json,http://54.235.29.9/FacialAge/BNav_EC2/DepthDuration/v2_depth_duration_MTurk/v2_DepthDuration_HTML.html#114,114,1364,768,1364,768,9-4-2022,11-36-24,44,depth_duration_stimuli/001199_2014-06-17_16-03-48_260595134347_rgbf000077-resize_0/001199_2014-06-17_16-03-48_260595134347_rgbf000077-resize_0-target.png,250,3.4375,5.0,9303,250,feet,jsons/v1_VE250_randls_41_rotated.json,1823163,1963509,39,Woman
44,873209,DepthScenes,duration_manipulation_targetAtFixation,jsons/v1_VE250_randls_41_rotated.json,http://54.235.29.9/FacialAge/BNav_EC2/DepthDuration/v2_depth_duration_MTurk/v2_DepthDuration_HTML.html#114,114,1364,768,1364,768,9-4-2022,11-36-24,45,depth_duration_stimuli/000854_2014-06-09_19-43-13_260595134347_rgbf000066-resize_0/000854_2014-06-09_19-43-13_260595134347_rgbf000066-resize_0-target.png,250,3.068,4.0,14685,249,feet,jsons/v1_VE250_randls_41_rotated.json,1823163,1963509,39,Woman
45,873209,DepthScenes,duration_manipulation_targetAtFixation,jsons/v1_VE250_randls_41_rotated.json,http://54.235.29.9/FacialAge/BNav_EC2/DepthDuration/v2_depth_duration_MTurk/v2_DepthDuration_HTML.html#114,114,1364,768,1364,768,9-4-2022,11-36-24,46,depth_duration_stimuli/000758_2014-06-08_22-05-08_260595134347_rgbf000085-resize_0/000758_2014-06-08_22-05-08_260595134347_rgbf000085-resize_0-target.png,250,3.3810000000000002,6.5,7617,250,feet,jsons/v1_VE250_randls_41_rotated.json,1823163,1963509,39,Woman
46,873209,DepthScenes,duration_manipulation_targetAtFixation,jsons/v1_VE250_randls_41_rotated.json,http://54.235.29.9/FacialAge/BNav_EC2/DepthDuration/v2_depth_duration_MTurk/v2_DepthDuration_HTML.html#114,114,1364,768,1364,768,9-4-2022,11-36-24,47,depth_duration_stimuli/001450_2014-06-19_17-02-03_260595134347_rgbf000203-resize_4/001450_2014-06-19_17-02-03_260595134347_rgbf000203-resize_4-target.png,250,4.0106666666667,6.0,11581,251,feet,jsons/v1_VE250_randls_41_rotated.json,1823163,1963509,39,Woman
47,873209,DepthScenes,duration_manipulation_targetAtFixation,jsons/v1_VE250_randls_41_rotated.json,http://54.235.29.9/FacialAge/BNav_EC2/DepthDuration/v2_depth_duration_MTurk/v2_DepthDuration_HTML.html#114,114,1364,768,1364,768,9-4-2022,11-36-24,48,depth_duration_stimuli/001449_2014-06-19_17-01-27_260595134347_rgbf000116-resize_2/001449_2014-06-19_17-01-27_260595134347_rgbf000116-resize_2-target.png,250,3.452,5.5,10063,250,feet,jsons/v1_VE250_randls_41_rotated.json,1823163,1963509,39,Woman
48,873209,DepthScenes,duration_manipulation_targetAtFixation,jsons/v1_VE250_randls_41_rotated.json,http://54.235.29.9/FacialAge/BNav_EC2/DepthDuration/v2_depth_duration_MTurk/v2_DepthDuration_HTML.html#114,114,1364,768,1364,768,9-4-2022,11-36-24,49,depth_duration_stimuli/001170_2014-06-17_15-43-44_260595134347_rgbf000096-resize_6/001170_2014-06-17_15-43-44_260595134347_rgbf000096-resize-original.jpg,250,1.1909999999999998,0.0,14344,291,feet,jsons/v1_VE250_randls_41_rotated.json,1823163,1963509,39,Woman
49,873209,DepthScenes,duration_manipulation_targetAtFixation,jsons/v1_VE250_randls_41_rotated.json,http://54.235.29.9/FacialAge/BNav_EC2/DepthDuration/v2_depth_duration_MTurk/v2_DepthDuration_HTML.html#114,114,1364,768,1364,768,9-4-2022,11-36-24,50,depth_duration_stimuli/001132_2014-06-17_14-48-54_260595134347_rgbf000100-resize_2/001132_2014-06-17_14-48-54_260595134347_rgbf000100-resize_2-target.png,250,3.753,6.0,8435,251,feet,jsons/v1_VE250_randls_41_rotated.json,1823163,1963509,39,Woman
50,873209,DepthScenes,duration_manipulation_targetAtFixation,jsons/v1_VE250_randls_41_rotated.json,http://54.235.29.9/FacialAge/BNav_EC2/DepthDuration/v2_depth_duration_MTurk/v2_DepthDuration_HTML.html#114,114,1364,768,1364,768,9-4-2022,11-36-24,51,depth_duration_stimuli/001133_2014-06-17_14-49-16_260595134347_rgbf000100-resize_0/001133_2014-06-17_14-49-16_260595134347_rgbf000100-resize_0-target.png,250,4.2115,6.0,6149,248,feet,jsons/v1_VE250_randls_41_rotated.json,1823163,1963509,39,Woman
51,873209,DepthScenes,duration_manipulation_targetAtFixation,jsons/v1_VE250_randls_41_rotated.json,http://54.235.29.9/FacialAge/BNav_EC2/DepthDuration/v2_depth_duration_MTurk/v2_DepthDuration_HTML.html#114,114,1364,768,1364,768,9-4-2022,11-36-24,52,depth_duration_stimuli/000734_2014-06-08_17-39-11_260595134347_rgbf000128-resize_2/000734_2014-06-08_17-39-11_260595134347_rgbf000128-resize_2-target.png,250,4.098,4.0,20149,250,feet,jsons/v1_VE250_randls_41_rotated.json,1823163,1963509,39,Woman
52,873209,DepthScenes,duration_manipulation_targetAtFixation,jsons/v1_VE250_randls_41_rotated.json,http://54.235.29.9/FacialAge/BNav_EC2/DepthDuration/v2_depth_duration_MTurk/v2_DepthDuration_HTML.html#114,114,1364,768,1364,768,9-4-2022,11-36-24,53,depth_duration_stimuli/000739_2014-06-08_18-45-58_260595134347_rgbf000068-resize_1/000739_2014-06-08_18-45-58_260595134347_rgbf000068-resize_1-target.png,250,3.534,5.0,6549,250,feet,jsons/v1_VE250_randls_41_rotated.json,1823163,1963509,39,Woman
53,873209,DepthScenes,duration_manipulation_targetAtFixation,jsons/v1_VE250_randls_41_rotated.json,http://54.235.29.9/FacialAge/BNav_EC2/DepthDuration/v2_depth_duration_MTurk/v2_DepthDuration_HTML.html#114,114,1364,768,1364,768,9-4-2022,11-36-24,54,depth_duration_stimuli/002637_2014-06-24_14-51-13_094959634447_rgbf000066-resize_4/002637_2014-06-24_14-51-13_094959634447_rgbf000066-resize_4-target.png,250,1.9955,5.5,15002,249,feet,jsons/v1_VE250_randls_41_rotated.json,1823163,1963509,39,Woman
54,873209,DepthScenes,duration_manipulation_targetAtFixation,jsons/v1_VE250_randls_41_rotated.json,http://54.235.29.9/FacialAge/BNav_EC2/DepthDuration/v2_depth_duration_MTurk/v2_DepthDuration_HTML.html#114,114,1364,768,1364,768,9-4-2022,11-36-24,55,depth_duration_stimuli/003534_2014-05-22_15-06-10_094959634447_rgbf000102-resize_4/003534_2014-05-22_15-06-10_094959634447_rgbf000102-resize_4-target.png,250,1.426,2.0,4611,249,feet,jsons/v1_VE250_randls_41_rotated.json,1823163,1963509,39,Woman
55,873209,DepthScenes,duration_manipulation_targetAtFixation,jsons/v1_VE250_randls_41_rotated.json,http://54.235.29.9/FacialAge/BNav_EC2/DepthDuration/v2_depth_duration_MTurk/v2_DepthDuration_HTML.html#114,114,1364,768,1364,768,9-4-2022,11-36-24,56,depth_duration_stimuli/002136_2014-06-25_21-18-03_260595134347_rgbf000109-resize_3/002136_2014-06-25_21-18-03_260595134347_rgbf000109-resize_3-target.png,250,1.9569999999999999,3.5,17119,252,feet,jsons/v1_VE250_randls_41_rotated.json,1823163,1963509,39,Woman
56,873209,DepthScenes,duration_manipulation_targetAtFixation,jsons/v1_VE250_randls_41_rotated.json,http://54.235.29.9/FacialAge/BNav_EC2/DepthDuration/v2_depth_duration_MTurk/v2_DepthDuration_HTML.html#114,114,1364,768,1364,768,9-4-2022,11-36-24,57,depth_duration_stimuli/002964_2014-06-08_17-46-11_094959634447_rgbf000091-resize_4/002964_2014-06-08_17-46-11_094959634447_rgbf000091-resize_4-target.png,250,1.6909999999999998,1.5,7423,251,feet,jsons/v1_VE250_randls_41_rotated.json,1823163,1963509,39,Woman
57,873209,DepthScenes,duration_manipulation_targetAtFixation,jsons/v1_VE250_randls_41_rotated.json,http://54.235.29.9/FacialAge/BNav_EC2/DepthDuration/v2_depth_duration_MTurk/v2_DepthDuration_HTML.html#114,114,1364,768,1364,768,9-4-2022,11-36-24,58,depth_duration_stimuli/001815_2014-06-26_20-52-55_260595134347_rgbf000020-resize_0/001815_2014-06-26_20-52-55_260595134347_rgbf000020-resize_0-target.png,250,3.3865,5.0,18254,269,feet,jsons/v1_VE250_randls_41_rotated.json,1823163,1963509,39,Woman
58,873209,DepthScenes,duration_manipulation_targetAtFixation,jsons/v1_VE250_randls_41_rotated.json,http://54.235.29.9/FacialAge/BNav_EC2/DepthDuration/v2_depth_duration_MTurk/v2_DepthDuration_HTML.html#114,114,1364,768,1364,768,9-4-2022,11-36-24,59,depth_duration_stimuli/001808_2014-06-26_20-50-58_260595134347_rgbf000029-resize_1/001808_2014-06-26_20-50-58_260595134347_rgbf000029-resize_1-target.png,250,4.249,6.0,5384,248,feet,jsons/v1_VE250_randls_41_rotated.json,1823163,1963509,39,Woman
59,873209,DepthScenes,duration_manipulation_targetAtFixation,jsons/v1_VE250_randls_41_rotated.json,http://54.235.29.9/FacialAge/BNav_EC2/DepthDuration/v2_depth_duration_MTurk/v2_DepthDuration_HTML.html#114,114,1364,768,1364,768,9-4-2022,11-36-24,60,depth_duration_stimuli/002467_2014-06-28_20-38-07_260595134347_rgbf000026-resize_2/002467_2014-06-28_20-38-07_260595134347_rgbf000026-resize_2-target.png,250,4.742,5.5,15922,256,feet,jsons/v1_VE250_randls_41_rotated.json,1823163,1963509,39,Woman
60,873209,DepthScenes,duration_manipulation_targetAtFixation,jsons/v1_VE250_randls_41_rotated.json,http://54.235.29.9/FacialAge/BNav_EC2/DepthDuration/v2_depth_duration_MTurk/v2_DepthDuration_HTML.html#114,114,1364,768,1364,768,9-4-2022,11-36-24,61,depth_duration_stimuli/002570_2014-06-24_13-59-54_094959634447_rgbf000059-resize_0/002570_2014-06-24_13-59-54_094959634447_rgbf000059-resize_0-target.png,250,4.037,4.0,3537,250,feet,jsons/v1_VE250_randls_41_rotated.json,1823163,1963509,39,Woman
61,873209,DepthScenes,duration_manipulation_targetAtFixation,jsons/v1_VE250_randls_41_rotated.json,http://54.235.29.9/FacialAge/BNav_EC2/DepthDuration/v2_depth_duration_MTurk/v2_DepthDuration_HTML.html#114,114,1364,768,1364,768,9-4-2022,11-36-24,62,depth_duration_stimuli/002209_2014-06-28_18-36-10_260595134347_rgbf000051-resize_1/002209_2014-06-28_18-36-10_260595134347_rgbf000051-resize_1-target.png,250,2.057,3.5,12571,251,feet,jsons/v1_VE250_randls_41_rotated.json,1823163,1963509,39,Woman
62,873209,DepthScenes,duration_manipulation_targetAtFixation,jsons/v1_VE250_randls_41_rotated.json,http://54.235.29.9/FacialAge/BNav_EC2/DepthDuration/v2_depth_duration_MTurk/v2_DepthDuration_HTML.html#114,114,1364,768,1364,768,9-4-2022,11-36-24,63,depth_duration_stimuli/002763_2014-06-22_19-13-10_094959634447_rgbf000075-resize_4/002763_2014-06-22_19-13-10_094959634447_rgbf000075-resize_4-target.png,250,1.68375,4.0,5783,248,feet,jsons/v1_VE250_randls_41_rotated.json,1823163,1963509,39,Woman
63,873209,DepthScenes,duration_manipulation_targetAtFixation,jsons/v1_VE250_randls_41_rotated.json,http://54.235.29.9/FacialAge/BNav_EC2/DepthDuration/v2_depth_duration_MTurk/v2_DepthDuration_HTML.html#114,114,1364,768,1364,768,9-4-2022,11-36-24,64,depth_duration_stimuli/002758_2014-06-22_19-11-20_094959634447_rgbf000128-resize_1/002758_2014-06-22_19-11-20_094959634447_rgbf000128-resize_1-target.png,250,2.555,4.0,17243,250,feet,jsons/v1_VE250_randls_41_rotated.json,1823163,1963509,39,Woman
64,873209,DepthScenes,duration_manipulation_targetAtFixation,jsons/v1_VE250_randls_41_rotated.json,http://54.235.29.9/FacialAge/BNav_EC2/DepthDuration/v2_depth_duration_MTurk/v2_DepthDuration_HTML.html#114,114,1364,768,1364,768,9-4-2022,11-36-24,65,depth_duration_stimuli/002630_2014-06-24_14-47-50_094959634447_rgbf000055-resize_1/002630_2014-06-24_14-47-50_094959634447_rgbf000055-resize_1-target.png,250,3.0095,6.0,9037,251,feet,jsons/v1_VE250_randls_41_rotated.json,1823163,1963509,39,Woman
65,873209,DepthScenes,duration_manipulation_targetAtFixation,jsons/v1_VE250_randls_41_rotated.json,http://54.235.29.9/FacialAge/BNav_EC2/DepthDuration/v2_depth_duration_MTurk/v2_DepthDuration_HTML.html#114,114,1364,768,1364,768,9-4-2022,11-36-24,66,depth_duration_stimuli/001540_2014-06-20_17-01-05_260595134347_rgbf000086-resize_2/001540_2014-06-20_17-01-05_260595134347_rgbf000086-resize-original.jpg,250,1.459,0.0,8137,250,feet,jsons/v1_VE250_randls_41_rotated.json,1823163,1963509,39,Woman
66,873209,DepthScenes,duration_manipulation_targetAtFixation,jsons/v1_VE250_randls_41_rotated.json,http://54.235.29.9/FacialAge/BNav_EC2/DepthDuration/v2_depth_duration_MTurk/v2_DepthDuration_HTML.html#114,114,1364,768,1364,768,9-4-2022,11-36-24,67,depth_duration_stimuli/002875_2014-06-01_15-19-00_094959634447_rgbf000151-resize_1/002875_2014-06-01_15-19-00_094959634447_rgbf000151-resize_1-target.png,250,1.9675,4.0,77365,248,feet,jsons/v1_VE250_randls_41_rotated.json,1823163,1963509,39,Woman
67,873209,DepthScenes,duration_manipulation_targetAtFixation,jsons/v1_VE250_randls_41_rotated.json,http://54.235.29.9/FacialAge/BNav_EC2/DepthDuration/v2_depth_duration_MTurk/v2_DepthDuration_HTML.html#114,114,1364,768,1364,768,9-4-2022,11-36-24,68,depth_duration_stimuli/001011_2014-06-08_23-18-54_260595134347_rgbf000044-resize_4/001011_2014-06-08_23-18-54_260595134347_rgbf000044-resize_4-target.png,250,2.4730000000000003,6.0,8826,249,feet,jsons/v1_VE250_randls_41_rotated.json,1823163,1963509,39,Woman
68,873209,DepthScenes,duration_manipulation_targetAtFixation,jsons/v1_VE250_randls_41_rotated.json,http://54.235.29.9/FacialAge/BNav_EC2/DepthDuration/v2_depth_duration_MTurk/v2_DepthDuration_HTML.html#114,114,1364,768,1364,768,9-4-2022,11-36-24,69,depth_duration_stimuli/002323_2014-06-28_20-01-54_260595134347_rgbf000051-resize_4/002323_2014-06-28_20-01-54_260595134347_rgbf000051-resize_4-target.png,250,3.7310000000000003,6.0,14857,250,feet,jsons/v1_VE250_randls_41_rotated.json,1823163,1963509,39,Woman
69,873209,DepthScenes,duration_manipulation_targetAtFixation,jsons/v1_VE250_randls_41_rotated.json,http://54.235.29.9/FacialAge/BNav_EC2/DepthDuration/v2_depth_duration_MTurk/v2_DepthDuration_HTML.html#114,114,1364,768,1364,768,9-4-2022,11-36-24,70,depth_duration_stimuli/000917_2014-06-09_22-45-29_260595134347_rgbf000149-resize_3/000917_2014-06-09_22-45-29_260595134347_rgbf000149-resize_3-target.png,250,4.1865,5.5,7522,251,feet,jsons/v1_VE250_randls_41_rotated.json,1823163,1963509,39,Woman
70,873209,DepthScenes,duration_manipulation_targetAtFixation,jsons/v1_VE250_randls_41_rotated.json,http://54.235.29.9/FacialAge/BNav_EC2/DepthDuration/v2_depth_duration_MTurk/v2_DepthDuration_HTML.html#114,114,1364,768,1364,768,9-4-2022,11-36-24,71,depth_duration_stimuli/002949_2014-06-26_15-57-42_094959634447_rgbf000079-resize_1/002949_2014-06-26_15-57-42_094959634447_rgbf000079-resize_1-target.png,250,1.8915,4.0,16155,251,feet,jsons/v1_VE250_randls_41_rotated.json,1823163,1963509,39,Woman
71,873209,DepthScenes,duration_manipulation_targetAtFixation,jsons/v1_VE250_randls_41_rotated.json,http://54.235.29.9/FacialAge/BNav_EC2/DepthDuration/v2_depth_duration_MTurk/v2_DepthDuration_HTML.html#114,114,1364,768,1364,768,9-4-2022,11-36-24,72,depth_duration_stimuli/000522_2014-06-08_13-35-06_260595134347_rgbf000244-resize_1/000522_2014-06-08_13-35-06_260595134347_rgbf000244-resize_1-target.png,250,2.3715,3.0,4633,250,feet,jsons/v1_VE250_randls_41_rotated.json,1823163,1963509,39,Woman
72,873209,DepthScenes,duration_manipulation_targetAtFixation,jsons/v1_VE250_randls_41_rotated.json,http://54.235.29.9/FacialAge/BNav_EC2/DepthDuration/v2_depth_duration_MTurk/v2_DepthDuration_HTML.html#114,114,1364,768,1364,768,9-4-2022,11-36-24,73,depth_duration_stimuli/003129_2014-05-12_10-48-10_094959634447_rgbf000100-resize_0/003129_2014-05-12_10-48-10_094959634447_rgbf000100-resize_0-target.png,250,4.9305,6.0,7158,251,feet,jsons/v1_VE250_randls_41_rotated.json,1823163,1963509,39,Woman
73,873209,DepthScenes,duration_manipulation_targetAtFixation,jsons/v1_VE250_randls_41_rotated.json,http://54.235.29.9/FacialAge/BNav_EC2/DepthDuration/v2_depth_duration_MTurk/v2_DepthDuration_HTML.html#114,114,1364,768,1364,768,9-4-2022,11-36-24,74,depth_duration_stimuli/000414_2014-06-04_19-49-13_260595134347_rgbf000044-resize_0/000414_2014-06-04_19-49-13_260595134347_rgbf000044-resize_0-target.png,250,4.329,5.0,3990,250,feet,jsons/v1_VE250_randls_41_rotated.json,1823163,1963509,39,Woman
74,873209,DepthScenes,duration_manipulation_targetAtFixation,jsons/v1_VE250_randls_41_rotated.json,http://54.235.29.9/FacialAge/BNav_EC2/DepthDuration/v2_depth_duration_MTurk/v2_DepthDuration_HTML.html#114,114,1364,768,1364,768,9-4-2022,11-36-24,75,depth_duration_stimuli/000927_2014-06-09_16-32-30_260595134347_rgbf000123-resize_3/000927_2014-06-09_16-32-30_260595134347_rgbf000123-resize_3-target.png,250,2.6785,5.0,6508,251,feet,jsons/v1_VE250_randls_41_rotated.json,1823163,1963509,39,Woman
75,873209,DepthScenes,duration_manipulation_targetAtFixation,jsons/v1_VE250_randls_41_rotated.json,http://54.235.29.9/FacialAge/BNav_EC2/DepthDuration/v2_depth_duration_MTurk/v2_DepthDuration_HTML.html#114,114,1364,768,1364,768,9-4-2022,11-36-24,76,depth_duration_stimuli/001110_2014-06-15_17-25-28_260595134347_rgbf000150-resize_1/001110_2014-06-15_17-25-28_260595134347_rgbf000150-resize_1-target.png,250,1.7115,4.0,3361,249,feet,jsons/v1_VE250_randls_41_rotated.json,1823163,1963509,39,Woman
76,873209,DepthScenes,duration_manipulation_targetAtFixation,jsons/v1_VE250_randls_41_rotated.json,http://54.235.29.9/FacialAge/BNav_EC2/DepthDuration/v2_depth_duration_MTurk/v2_DepthDuration_HTML.html#114,114,1364,768,1364,768,9-4-2022,11-36-24,77,depth_duration_stimuli/003495_2014-05-21_16-01-51_094959634447_rgbf000100-resize_3/003495_2014-05-21_16-01-51_094959634447_rgbf000100-resize_3-target.png,250,1.6255,2.0,6136,250,feet,jsons/v1_VE250_randls_41_rotated.json,1823163,1963509,39,Woman
77,873209,DepthScenes,duration_manipulation_targetAtFixation,jsons/v1_VE250_randls_41_rotated.json,http://54.235.29.9/FacialAge/BNav_EC2/DepthDuration/v2_depth_duration_MTurk/v2_DepthDuration_HTML.html#114,114,1364,768,1364,768,9-4-2022,11-36-24,78,depth_duration_stimuli/001244_2014-06-17_16-47-45_260595134347_rgbf000030-resize_4/001244_2014-06-17_16-47-45_260595134347_rgbf000030-resize_4-target.png,250,2.0425,4.0,7258,251,feet,jsons/v1_VE250_randls_41_rotated.json,1823163,1963509,39,Woman
78,873209,DepthScenes,duration_manipulation_targetAtFixation,jsons/v1_VE250_randls_41_rotated.json,http://54.235.29.9/FacialAge/BNav_EC2/DepthDuration/v2_depth_duration_MTurk/v2_DepthDuration_HTML.html#114,114,1364,768,1364,768,9-4-2022,11-36-24,79,depth_duration_stimuli/002425_2014-06-28_20-27-29_260595134347_rgbf000031-resize_8/002425_2014-06-28_20-27-29_260595134347_rgbf000031-resize_8-target.png,250,3.8960000000000004,5.5,9522,251,feet,jsons/v1_VE250_randls_41_rotated.json,1823163,1963509,39,Woman
79,873209,DepthScenes,duration_manipulation_targetAtFixation,jsons/v1_VE250_randls_41_rotated.json,http://54.235.29.9/FacialAge/BNav_EC2/DepthDuration/v2_depth_duration_MTurk/v2_DepthDuration_HTML.html#114,114,1364,768,1364,768,9-4-2022,11-36-24,80,depth_duration_stimuli/000642_2014-06-08_16-59-25_260595134347_rgbf000098-resize_2/000642_2014-06-08_16-59-25_260595134347_rgbf000098-resize_2-target.png,250,2.8815,4.0,3852,250,feet,jsons/v1_VE250_randls_41_rotated.json,1823163,1963509,39,Woman
80,873209,DepthScenes,duration_manipulation_targetAtFixation,jsons/v1_VE250_randls_41_rotated.json,http://54.235.29.9/FacialAge/BNav_EC2/DepthDuration/v2_depth_duration_MTurk/v2_DepthDuration_HTML.html#114,114,1364,768,1364,768,9-4-2022,11-36-24,81,depth_duration_stimuli/002568_2014-06-24_13-59-21_094959634447_rgbf000062-resize_4/002568_2014-06-24_13-59-21_094959634447_rgbf000062-resize_4-target.png,250,3.015,4.0,7571,251,feet,jsons/v1_VE250_randls_41_rotated.json,1823163,1963509,39,Woman
81,873209,DepthScenes,duration_manipulation_targetAtFixation,jsons/v1_VE250_randls_41_rotated.json,http://54.235.29.9/FacialAge/BNav_EC2/DepthDuration/v2_depth_duration_MTurk/v2_DepthDuration_HTML.html#114,114,1364,768,1364,768,9-4-2022,11-36-24,82,depth_duration_stimuli/003492_2014-05-21_15-50-55_094959634447_rgbf000828-resize_1/003492_2014-05-21_15-50-55_094959634447_rgbf000828-resize_1-target.png,250,4.06875,6.0,6452,249,feet,jsons/v1_VE250_randls_41_rotated.json,1823163,1963509,39,Woman
82,873209,DepthScenes,duration_manipulation_targetAtFixation,jsons/v1_VE250_randls_41_rotated.json,http://54.235.29.9/FacialAge/BNav_EC2/DepthDuration/v2_depth_duration_MTurk/v2_DepthDuration_HTML.html#114,114,1364,768,1364,768,9-4-2022,11-36-24,83,depth_duration_stimuli/002414_2014-06-28_20-24-58_260595134347_rgbf000067-resize_4/002414_2014-06-28_20-24-58_260595134347_rgbf000067-resize_4-target.png,250,4.363,5.0,32143,236,feet,jsons/v1_VE250_randls_41_rotated.json,1823163,1963509,39,Woman
83,873209,DepthScenes,duration_manipulation_targetAtFixation,jsons/v1_VE250_randls_41_rotated.json,http://54.235.29.9/FacialAge/BNav_EC2/DepthDuration/v2_depth_duration_MTurk/v2_DepthDuration_HTML.html#114,114,1364,768,1364,768,9-4-2022,11-36-24,84,depth_duration_stimuli/000773_2014-06-08_22-24-54_260595134347_rgbf000093-resize_1/000773_2014-06-08_22-24-54_260595134347_rgbf000093-resize_1-target.png,250,4.973,6.0,5818,248,feet,jsons/v1_VE250_randls_41_rotated.json,1823163,1963509,39,Woman
84,873209,DepthScenes,duration_manipulation_targetAtFixation,jsons/v1_VE250_randls_41_rotated.json,http://54.235.29.9/FacialAge/BNav_EC2/DepthDuration/v2_depth_duration_MTurk/v2_DepthDuration_HTML.html#114,114,1364,768,1364,768,9-4-2022,11-36-24,85,depth_duration_stimuli/002805_2014-06-22_19-54-03_094959634447_rgbf000079-resize_1/002805_2014-06-22_19-54-03_094959634447_rgbf000079-resize_1-target.png,250,3.1439999999999997,6.0,13966,251,feet,jsons/v1_VE250_randls_41_rotated.json,1823163,1963509,39,Woman
85,873209,DepthScenes,duration_manipulation_targetAtFixation,jsons/v1_VE250_randls_41_rotated.json,http://54.235.29.9/FacialAge/BNav_EC2/DepthDuration/v2_depth_duration_MTurk/v2_DepthDuration_HTML.html#114,114,1364,768,1364,768,9-4-2022,11-36-24,86,depth_duration_stimuli/000906_2014-06-08_13-35-43_260595134347_rgbf000155-resize_1/000906_2014-06-08_13-35-43_260595134347_rgbf000155-resize_1-target.png,250,2.8489999999999998,5.0,7651,249,feet,jsons/v1_VE250_randls_41_rotated.json,1823163,1963509,39,Woman
86,873209,DepthScenes,duration_manipulation_targetAtFixation,jsons/v1_VE250_randls_41_rotated.json,http://54.235.29.9/FacialAge/BNav_EC2/DepthDuration/v2_depth_duration_MTurk/v2_DepthDuration_HTML.html#114,114,1364,768,1364,768,9-4-2022,11-36-24,87,depth_duration_stimuli/003048_2014-06-15_13-49-43_094959634447_rgbf000150-resize_1/003048_2014-06-15_13-49-43_094959634447_rgbf000150-resize_1-target.png,250,4.0035,5.0,11793,250,feet,jsons/v1_VE250_randls_41_rotated.json,1823163,1963509,39,Woman
87,873209,DepthScenes,duration_manipulation_targetAtFixation,jsons/v1_VE250_randls_41_rotated.json,http://54.235.29.9/FacialAge/BNav_EC2/DepthDuration/v2_depth_duration_MTurk/v2_DepthDuration_HTML.html#114,114,1364,768,1364,768,9-4-2022,11-36-24,88,depth_duration_stimuli/002043_2014-06-24_20-29-38_260595134347_rgbf000039-resize_4/002043_2014-06-24_20-29-38_260595134347_rgbf000039-resize_4-target.png,250,2.8435,4.0,12452,251,feet,jsons/v1_VE250_randls_41_rotated.json,1823163,1963509,39,Woman
88,873209,DepthScenes,duration_manipulation_targetAtFixation,jsons/v1_VE250_randls_41_rotated.json,http://54.235.29.9/FacialAge/BNav_EC2/DepthDuration/v2_depth_duration_MTurk/v2_DepthDuration_HTML.html#114,114,1364,768,1364,768,9-4-2022,11-36-24,89,depth_duration_stimuli/001100_2014-06-15_17-46-26_260595134347_rgbf000225-resize_2/001100_2014-06-15_17-46-26_260595134347_rgbf000225-resize_2-target.png,250,2.24,2.0,13651,250,feet,jsons/v1_VE250_randls_41_rotated.json,1823163,1963509,39,Woman
89,873209,DepthScenes,duration_manipulation_targetAtFixation,jsons/v1_VE250_randls_41_rotated.json,http://54.235.29.9/FacialAge/BNav_EC2/DepthDuration/v2_depth_duration_MTurk/v2_DepthDuration_HTML.html#114,114,1364,768,1364,768,9-4-2022,11-36-24,90,depth_duration_stimuli/002784_2014-06-22_19-26-30_094959634447_rgbf000083-resize_3/002784_2014-06-22_19-26-30_094959634447_rgbf000083-resize_3-target.png,250,1.8046666666667,2.0,7295,249,feet,jsons/v1_VE250_randls_41_rotated.json,1823163,1963509,39,Woman
90,873209,DepthScenes,duration_manipulation_targetAtFixation,jsons/v1_VE250_randls_41_rotated.json,http://54.235.29.9/FacialAge/BNav_EC2/DepthDuration/v2_depth_duration_MTurk/v2_DepthDuration_HTML.html#114,114,1364,768,1364,768,9-4-2022,11-36-24,91,depth_duration_stimuli/001235_2014-06-17_16-37-36_260595134347_rgbf000084-resize_4/001235_2014-06-17_16-37-36_260595134347_rgbf000084-resize_4-target.png,250,3.6605,4.0,12111,250,feet,jsons/v1_VE250_randls_41_rotated.json,1823163,1963509,39,Woman
91,873209,DepthScenes,duration_manipulation_targetAtFixation,jsons/v1_VE250_randls_41_rotated.json,http://54.235.29.9/FacialAge/BNav_EC2/DepthDuration/v2_depth_duration_MTurk/v2_DepthDuration_HTML.html#114,114,1364,768,1364,768,9-4-2022,11-36-24,92,depth_duration_stimuli/000788_2014-06-08_22-34-36_260595134347_rgbf000131-resize_1/000788_2014-06-08_22-34-36_260595134347_rgbf000131-resize_1-target.png,250,3.359,4.5,5498,250,feet,jsons/v1_VE250_randls_41_rotated.json,1823163,1963509,39,Woman
92,873209,DepthScenes,duration_manipulation_targetAtFixation,jsons/v1_VE250_randls_41_rotated.json,http://54.235.29.9/FacialAge/BNav_EC2/DepthDuration/v2_depth_duration_MTurk/v2_DepthDuration_HTML.html#114,114,1364,768,1364,768,9-4-2022,11-36-24,93,depth_duration_stimuli/000709_2014-06-08_13-51-55_260595134347_rgbf000068-resize_3/000709_2014-06-08_13-51-55_260595134347_rgbf000068-resize_3-target.png,250,1.8030000000000002,4.0,14938,248,feet,jsons/v1_VE250_randls_41_rotated.json,1823163,1963509,39,Woman
93,873209,DepthScenes,duration_manipulation_targetAtFixation,jsons/v1_VE250_randls_41_rotated.json,http://54.235.29.9/FacialAge/BNav_EC2/DepthDuration/v2_depth_duration_MTurk/v2_DepthDuration_HTML.html#114,114,1364,768,1364,768,9-4-2022,11-36-24,94,depth_duration_stimuli/002057_2014-06-24_21-00-13_260595134347_rgbf000120-resize_1/002057_2014-06-24_21-00-13_260595134347_rgbf000120-resize_1-target.png,250,2.967,6.0,5713,249,feet,jsons/v1_VE250_randls_41_rotated.json,1823163,1963509,39,Woman
94,873209,DepthScenes,duration_manipulation_targetAtFixation,jsons/v1_VE250_randls_41_rotated.json,http://54.235.29.9/FacialAge/BNav_EC2/DepthDuration/v2_depth_duration_MTurk/v2_DepthDuration_HTML.html#114,114,1364,768,1364,768,9-4-2022,11-36-24,95,depth_duration_stimuli/003010_2014-06-15_12-54-35_094959634447_rgbf000112-resize_0/003010_2014-06-15_12-54-35_094959634447_rgbf000112-resize_0-target.png,250,3.1185,6.0,11238,250,feet,jsons/v1_VE250_randls_41_rotated.json,1823163,1963509,39,Woman
95,873209,DepthScenes,duration_manipulation_targetAtFixation,jsons/v1_VE250_randls_41_rotated.json,http://54.235.29.9/FacialAge/BNav_EC2/DepthDuration/v2_depth_duration_MTurk/v2_DepthDuration_HTML.html#114,114,1364,768,1364,768,9-4-2022,11-36-24,96,depth_duration_stimuli/001810_2014-06-26_20-51-35_260595134347_rgbf000040-resize_3/001810_2014-06-26_20-51-35_260595134347_rgbf000040-resize_3-target.png,250,2.2525,4.0,7364,249,feet,jsons/v1_VE250_randls_41_rotated.json,1823163,1963509,39,Woman
96,873209,DepthScenes,duration_manipulation_targetAtFixation,jsons/v1_VE250_randls_41_rotated.json,http://54.235.29.9/FacialAge/BNav_EC2/DepthDuration/v2_depth_duration_MTurk/v2_DepthDuration_HTML.html#114,114,1364,768,1364,768,9-4-2022,11-36-24,97,depth_duration_stimuli/000137_2014-05-20_17-04-49_260595134347_rgbf000120-resize_1/000137_2014-05-20_17-04-49_260595134347_rgbf000120-resize_1-target.png,250,3.786,5.5,13993,251,feet,jsons/v1_VE250_randls_41_rotated.json,1823163,1963509,39,Woman
97,873209,DepthScenes,duration_manipulation_targetAtFixation,jsons/v1_VE250_randls_41_rotated.json,http://54.235.29.9/FacialAge/BNav_EC2/DepthDuration/v2_depth_duration_MTurk/v2_DepthDuration_HTML.html#114,114,1364,768,1364,768,9-4-2022,11-36-24,98,depth_duration_stimuli/000736_2014-06-08_18-24-15_260595134347_rgbf000206-resize_3/000736_2014-06-08_18-24-15_260595134347_rgbf000206-resize_3-target.png,250,3.515,4.0,5146,250,feet,jsons/v1_VE250_randls_41_rotated.json,1823163,1963509,39,Woman
98,873209,DepthScenes,duration_manipulation_targetAtFixation,jsons/v1_VE250_randls_41_rotated.json,http://54.235.29.9/FacialAge/BNav_EC2/DepthDuration/v2_depth_duration_MTurk/v2_DepthDuration_HTML.html#114,114,1364,768,1364,768,9-4-2022,11-36-24,99,depth_duration_stimuli/001222_2014-06-17_16-24-06_260595134347_rgbf000073-resize_0/001222_2014-06-17_16-24-06_260595134347_rgbf000073-resize-original.jpg,250,1.4385,0.0,7951,251,feet,jsons/v1_VE250_randls_41_rotated.json,1823163,1963509,39,Woman
99,873209,DepthScenes,duration_manipulation_targetAtFixation,jsons/v1_VE250_randls_41_rotated.json,http://54.235.29.9/FacialAge/BNav_EC2/DepthDuration/v2_depth_duration_MTurk/v2_DepthDuration_HTML.html#114,114,1364,768,1364,768,9-4-2022,11-36-24,100,depth_duration_stimuli/001828_2014-06-26_21-40-03_260595134347_rgbf000024-resize_0/001828_2014-06-26_21-40-03_260595134347_rgbf000024-resize_0-target.png,250,4.8260000000000005,5.5,15974,249,feet,jsons/v1_VE250_randls_41_rotated.json,1823163,1963509,39,Woman
100,873209,DepthScenes,duration_manipulation_targetAtFixation,jsons/v1_VE250_randls_41_rotated.json,http://54.235.29.9/FacialAge/BNav_EC2/DepthDuration/v2_depth_duration_MTurk/v2_DepthDuration_HTML.html#114,114,1364,768,1364,768,9-4-2022,11-36-24,101,depth_duration_stimuli/000009_2014-05-26_14-32-05_260595134347_rgbf000034-resize_3/000009_2014-05-26_14-32-05_260595134347_rgbf000034-resize_3-target.png,250,3.8715,6.0,4717,250,feet,jsons/v1_VE250_randls_41_rotated.json,1823163,1963509,39,Woman
101,873209,DepthScenes,duration_manipulation_targetAtFixation,jsons/v1_VE250_randls_41_rotated.json,http://54.235.29.9/FacialAge/BNav_EC2/DepthDuration/v2_depth_duration_MTurk/v2_DepthDuration_HTML.html#114,114,1364,768,1364,768,9-4-2022,11-36-24,102,depth_duration_stimuli/000635_2014-06-08_16-38-42_260595134347_rgbf000106-resize_1/000635_2014-06-08_16-38-42_260595134347_rgbf000106-resize_1-target.png,250,2.074,5.5,15055,250,feet,jsons/v1_VE250_randls_41_rotated.json,1823163,1963509,39,Woman
102,873209,DepthScenes,duration_manipulation_targetAtFixation,jsons/v1_VE250_randls_41_rotated.json,http://54.235.29.9/FacialAge/BNav_EC2/DepthDuration/v2_depth_duration_MTurk/v2_DepthDuration_HTML.html#114,114,1364,768,1364,768,9-4-2022,11-36-24,103,depth_duration_stimuli/002279_2014-06-28_18-55-32_260595134347_rgbf000040-resize_5/002279_2014-06-28_18-55-32_260595134347_rgbf000040-resize_5-target.png,250,1.5043333333333,2.5,7038,250,feet,jsons/v1_VE250_randls_41_rotated.json,1823163,1963509,39,Woman
103,873209,DepthScenes,duration_manipulation_targetAtFixation,jsons/v1_VE250_randls_41_rotated.json,http://54.235.29.9/FacialAge/BNav_EC2/DepthDuration/v2_depth_duration_MTurk/v2_DepthDuration_HTML.html#114,114,1364,768,1364,768,9-4-2022,11-36-24,104,depth_duration_stimuli/000191_2014-05-12_17-07-38_260595134347_rgbf000199-resize_0/000191_2014-05-12_17-07-38_260595134347_rgbf000199-resize_0-target.png,250,3.7995,6.0,17969,250,feet,jsons/v1_VE250_randls_41_rotated.json,1823163,1963509,39,Woman
104,873209,DepthScenes,duration_manipulation_targetAtFixation,jsons/v1_VE250_randls_41_rotated.json,http://54.235.29.9/FacialAge/BNav_EC2/DepthDuration/v2_depth_duration_MTurk/v2_DepthDuration_HTML.html#114,114,1364,768,1364,768,9-4-2022,11-36-24,105,depth_duration_stimuli/000493_2014-06-09_21-01-18_260595134347_rgbf000196-resize_3/000493_2014-06-09_21-01-18_260595134347_rgbf000196-resize_3-target.png,250,3.44,5.5,6047,250,feet,jsons/v1_VE250_randls_41_rotated.json,1823163,1963509,39,Woman
105,873209,DepthScenes,duration_manipulation_targetAtFixation,jsons/v1_VE250_randls_41_rotated.json,http://54.235.29.9/FacialAge/BNav_EC2/DepthDuration/v2_depth_duration_MTurk/v2_DepthDuration_HTML.html#114,114,1364,768,1364,768,9-4-2022,11-36-24,106,depth_duration_stimuli/000742_2014-06-08_18-48-09_260595134347_rgbf000164-resize_4/000742_2014-06-08_18-48-09_260595134347_rgbf000164-resize_4-target.png,250,4.632,5.0,9213,250,feet,jsons/v1_VE250_randls_41_rotated.json,1823163,1963509,39,Woman
106,873209,DepthScenes,duration_manipulation_targetAtFixation,jsons/v1_VE250_randls_41_rotated.json,http://54.235.29.9/FacialAge/BNav_EC2/DepthDuration/v2_depth_duration_MTurk/v2_DepthDuration_HTML.html#114,114,1364,768,1364,768,9-4-2022,11-36-24,107,depth_duration_stimuli/001066_2014-06-08_22-03-20_260595134347_rgbf000066-resize_4/001066_2014-06-08_22-03-20_260595134347_rgbf000066-resize_4-target.png,250,4.2330000000000005,6.0,6092,246,feet,jsons/v1_VE250_randls_41_rotated.json,1823163,1963509,39,Woman
107,873209,DepthScenes,duration_manipulation_targetAtFixation,jsons/v1_VE250_randls_41_rotated.json,http://54.235.29.9/FacialAge/BNav_EC2/DepthDuration/v2_depth_duration_MTurk/v2_DepthDuration_HTML.html#114,114,1364,768,1364,768,9-4-2022,11-36-24,108,depth_duration_stimuli/002103_2014-06-25_20-00-40_260595134347_rgbf000049-resize_0/002103_2014-06-25_20-00-40_260595134347_rgbf000049-resize_0-target.png,250,4.105,4.0,15685,260,feet,jsons/v1_VE250_randls_41_rotated.json,1823163,1963509,39,Woman
108,873209,DepthScenes,duration_manipulation_targetAtFixation,jsons/v1_VE250_randls_41_rotated.json,http://54.235.29.9/FacialAge/BNav_EC2/DepthDuration/v2_depth_duration_MTurk/v2_DepthDuration_HTML.html#114,114,1364,768,1364,768,9-4-2022,11-36-24,109,depth_duration_stimuli/002039_2014-06-24_20-22-38_260595134347_rgbf000084-resize_1/002039_2014-06-24_20-22-38_260595134347_rgbf000084-resize_1-target.png,250,4.408,6.0,14478,249,feet,jsons/v1_VE250_randls_41_rotated.json,1823163,1963509,39,Woman
109,873209,DepthScenes,duration_manipulation_targetAtFixation,jsons/v1_VE250_randls_41_rotated.json,http://54.235.29.9/FacialAge/BNav_EC2/DepthDuration/v2_depth_duration_MTurk/v2_DepthDuration_HTML.html#114,114,1364,768,1364,768,9-4-2022,11-36-24,110,depth_duration_stimuli/001516_2014-06-20_16-25-09_260595134347_rgbf000076-resize_2/001516_2014-06-20_16-25-09_260595134347_rgbf000076-resize_2-target.png,250,1.7445,4.0,10996,250,feet,jsons/v1_VE250_randls_41_rotated.json,1823163,1963509,39,Woman
110,873209,DepthScenes,duration_manipulation_targetAtFixation,jsons/v1_VE250_randls_41_rotated.json,http://54.235.29.9/FacialAge/BNav_EC2/DepthDuration/v2_depth_duration_MTurk/v2_DepthDuration_HTML.html#114,114,1364,768,1364,768,9-4-2022,11-36-24,111,depth_duration_stimuli/002118_2014-06-25_20-32-08_260595134347_rgbf000078-resize_1/002118_2014-06-25_20-32-08_260595134347_rgbf000078-resize_1-target.png,250,2.6460000000000004,0.0,3625,250,feet,jsons/v1_VE250_randls_41_rotated.json,1823163,1963509,39,Woman
111,873209,DepthScenes,duration_manipulation_targetAtFixation,jsons/v1_VE250_randls_41_rotated.json,http://54.235.29.9/FacialAge/BNav_EC2/DepthDuration/v2_depth_duration_MTurk/v2_DepthDuration_HTML.html#114,114,1364,768,1364,768,9-4-2022,11-36-24,112,depth_duration_stimuli/000409_2014-06-04_19-23-33_260595134347_rgbf000067-resize_0/000409_2014-06-04_19-23-33_260595134347_rgbf000067-resize_0-target.png,250,3.7335,4.5,22643,263,feet,jsons/v1_VE250_randls_41_rotated.json,1823163,1963509,39,Woman
112,873209,DepthScenes,duration_manipulation_targetAtFixation,jsons/v1_VE250_randls_41_rotated.json,http://54.235.29.9/FacialAge/BNav_EC2/DepthDuration/v2_depth_duration_MTurk/v2_DepthDuration_HTML.html#114,114,1364,768,1364,768,9-4-2022,11-36-24,113,depth_duration_stimuli/002663_2014-06-13_15-50-26_094959634447_rgbf000075-resize_1/002663_2014-06-13_15-50-26_094959634447_rgbf000075-resize_1-target.png,250,4.7495,5.5,15113,253,feet,jsons/v1_VE250_randls_41_rotated.json,1823163,1963509,39,Woman
113,873209,DepthScenes,duration_manipulation_targetAtFixation,jsons/v1_VE250_randls_41_rotated.json,http://54.235.29.9/FacialAge/BNav_EC2/DepthDuration/v2_depth_duration_MTurk/v2_DepthDuration_HTML.html#114,114,1364,768,1364,768,9-4-2022,11-36-24,114,depth_duration_stimuli/000109_2014-05-14_23-41-52_260595134347_rgbf000035-resize_9/000109_2014-05-14_23-41-52_260595134347_rgbf000035-resize_9-target.png,250,1.3545,2.0,23659,249,feet,jsons/v1_VE250_randls_41_rotated.json,1823163,1963509,39,Woman
114,873209,DepthScenes,duration_manipulation_targetAtFixation,jsons/v1_VE250_randls_41_rotated.json,http://54.235.29.9/FacialAge/BNav_EC2/DepthDuration/v2_depth_duration_MTurk/v2_DepthDuration_HTML.html#114,114,1364,768,1364,768,9-4-2022,11-36-24,115,depth_duration_stimuli/000470_2014-06-09_19-42-40_260595134347_rgbf000094-resize_1/000470_2014-06-09_19-42-40_260595134347_rgbf000094-resize_1-target.png,250,1.831,4.5,6306,251,feet,jsons/v1_VE250_randls_41_rotated.json,1823163,1963509,39,Woman
115,873209,DepthScenes,duration_manipulation_targetAtFixation,jsons/v1_VE250_randls_41_rotated.json,http://54.235.29.9/FacialAge/BNav_EC2/DepthDuration/v2_depth_duration_MTurk/v2_DepthDuration_HTML.html#114,114,1364,768,1364,768,9-4-2022,11-36-24,116,depth_duration_stimuli/001617_2014-06-20_11-35-32_260595134347_rgbf000066-resize_1/001617_2014-06-20_11-35-32_260595134347_rgbf000066-resize_1-target.png,250,3.7910000000000004,6.0,21742,248,feet,jsons/v1_VE250_randls_41_rotated.json,1823163,1963509,39,Woman
116,873209,DepthScenes,duration_manipulation_targetAtFixation,jsons/v1_VE250_randls_41_rotated.json,http://54.235.29.9/FacialAge/BNav_EC2/DepthDuration/v2_depth_duration_MTurk/v2_DepthDuration_HTML.html#114,114,1364,768,1364,768,9-4-2022,11-36-24,117,depth_duration_stimuli/001806_2014-06-26_20-50-20_260595134347_rgbf000091-resize_1/001806_2014-06-26_20-50-20_260595134347_rgbf000091-resize_1-target.png,250,2.7305,4.0,12980,250,feet,jsons/v1_VE250_randls_41_rotated.json,1823163,1963509,39,Woman
117,873209,DepthScenes,duration_manipulation_targetAtFixation,jsons/v1_VE250_randls_41_rotated.json,http://54.235.29.9/FacialAge/BNav_EC2/DepthDuration/v2_depth_duration_MTurk/v2_DepthDuration_HTML.html#114,114,1364,768,1364,768,9-4-2022,11-36-24,118,depth_duration_stimuli/001392_2014-06-19_16-07-59_260595134347_rgbf000046-resize_1/001392_2014-06-19_16-07-59_260595134347_rgbf000046-resize_1-target.png,250,4.135,5.5,19199,250,feet,jsons/v1_VE250_randls_41_rotated.json,1823163,1963509,39,Woman
118,873209,DepthScenes,duration_manipulation_targetAtFixation,jsons/v1_VE250_randls_41_rotated.json,http://54.235.29.9/FacialAge/BNav_EC2/DepthDuration/v2_depth_duration_MTurk/v2_DepthDuration_HTML.html#114,114,1364,768,1364,768,9-4-2022,11-36-24,119,depth_duration_stimuli/001570_2014-06-20_17-21-09_260595134347_rgbf000135-resize_4/001570_2014-06-20_17-21-09_260595134347_rgbf000135-resize_4-target.png,250,4.467,6.0,8423,251,feet,jsons/v1_VE250_randls_41_rotated.json,1823163,1963509,39,Woman
119,873209,DepthScenes,duration_manipulation_targetAtFixation,jsons/v1_VE250_randls_41_rotated.json,http://54.235.29.9/FacialAge/BNav_EC2/DepthDuration/v2_depth_duration_MTurk/v2_DepthDuration_HTML.html#114,114,1364,768,1364,768,9-4-2022,11-36-24,120,depth_duration_stimuli/000787_2014-06-08_22-33-53_260595134347_rgbf000175-resize_1/000787_2014-06-08_22-33-53_260595134347_rgbf000175-resize-original.jpg,250,4.784,0.0,22170,249,feet,jsons/v1_VE250_randls_41_rotated.json,1823163,1963509,39,Woman
120,873209,DepthScenes,duration_manipulation_targetAtFixation,jsons/v1_VE250_randls_41_rotated.json,http://54.235.29.9/FacialAge/BNav_EC2/DepthDuration/v2_depth_duration_MTurk/v2_DepthDuration_HTML.html#114,114,1364,768,1364,768,9-4-2022,11-36-24,121,depth_duration_stimuli/003423_2014-05-21_10-23-26_094959634447_rgbf002665-resize_2/003423_2014-05-21_10-23-26_094959634447_rgbf002665-resize_2-target.png,250,3.2575,4.0,18593,252,feet,jsons/v1_VE250_randls_41_rotated.json,1823163,1963509,39,Woman
121,873209,DepthScenes,duration_manipulation_targetAtFixation,jsons/v1_VE250_randls_41_rotated.json,http://54.235.29.9/FacialAge/BNav_EC2/DepthDuration/v2_depth_duration_MTurk/v2_DepthDuration_HTML.html#114,114,1364,768,1364,768,9-4-2022,11-36-24,122,depth_duration_stimuli/002905_2014-06-03_18-04-43_094959634447_rgbf000151-resize_2/002905_2014-06-03_18-04-43_094959634447_rgbf000151-resize_2-target.png,250,2.0295,4.0,8402,252,feet,jsons/v1_VE250_randls_41_rotated.json,1823163,1963509,39,Woman
122,873209,DepthScenes,duration_manipulation_targetAtFixation,jsons/v1_VE250_randls_41_rotated.json,http://54.235.29.9/FacialAge/BNav_EC2/DepthDuration/v2_depth_duration_MTurk/v2_DepthDuration_HTML.html#114,114,1364,768,1364,768,9-4-2022,11-36-24,123,depth_duration_stimuli/000556_2014-06-09_22-42-56_260595134347_rgbf000214-resize_1/000556_2014-06-09_22-42-56_260595134347_rgbf000214-resize_1-target.png,250,4.8415,5.5,15480,251,feet,jsons/v1_VE250_randls_41_rotated.json,1823163,1963509,39,Woman
123,873209,DepthScenes,duration_manipulation_targetAtFixation,jsons/v1_VE250_randls_41_rotated.json,http://54.235.29.9/FacialAge/BNav_EC2/DepthDuration/v2_depth_duration_MTurk/v2_DepthDuration_HTML.html#114,114,1364,768,1364,768,9-4-2022,11-36-24,124,depth_duration_stimuli/001158_2014-06-17_15-32-16_260595134347_rgbf000138-resize_2/001158_2014-06-17_15-32-16_260595134347_rgbf000138-resize_2-target.png,250,4.5315,6.5,5658,249,feet,jsons/v1_VE250_randls_41_rotated.json,1823163,1963509,39,Woman
124,873209,DepthScenes,duration_manipulation_targetAtFixation,jsons/v1_VE250_randls_41_rotated.json,http://54.235.29.9/FacialAge/BNav_EC2/DepthDuration/v2_depth_duration_MTurk/v2_DepthDuration_HTML.html#114,114,1364,768,1364,768,9-4-2022,11-36-24,125,depth_duration_stimuli/000103_2014-05-14_22-01-17_260595134347_rgbf000152-resize_5/000103_2014-05-14_22-01-17_260595134347_rgbf000152-resize_5-target.png,250,1.993,4.0,21963,249,feet,jsons/v1_VE250_randls_41_rotated.json,1823163,1963509,39,Woman
125,873209,DepthScenes,duration_manipulation_targetAtFixation,jsons/v1_VE250_randls_41_rotated.json,http://54.235.29.9/FacialAge/BNav_EC2/DepthDuration/v2_depth_duration_MTurk/v2_DepthDuration_HTML.html#114,114,1364,768,1364,768,9-4-2022,11-36-24,126,depth_duration_stimuli/001555_2014-06-20_17-12-10_260595134347_rgbf000065-resize_4/001555_2014-06-20_17-12-10_260595134347_rgbf000065-resize_4-target.png,250,1.633,5.0,9457,249,feet,jsons/v1_VE250_randls_41_rotated.json,1823163,1963509,39,Woman
126,873209,DepthScenes,duration_manipulation_targetAtFixation,jsons/v1_VE250_randls_41_rotated.json,http://54.235.29.9/FacialAge/BNav_EC2/DepthDuration/v2_depth_duration_MTurk/v2_DepthDuration_HTML.html#114,114,1364,768,1364,768,9-4-2022,11-36-24,127,depth_duration_stimuli/002639_2014-06-24_14-51-37_094959634447_rgbf000074-resize_4/002639_2014-06-24_14-51-37_094959634447_rgbf000074-resize_4-target.png,250,4.0375,5.5,9143,250,feet,jsons/v1_VE250_randls_41_rotated.json,1823163,1963509,39,Woman
127,873209,DepthScenes,duration_manipulation_targetAtFixation,jsons/v1_VE250_randls_41_rotated.json,http://54.235.29.9/FacialAge/BNav_EC2/DepthDuration/v2_depth_duration_MTurk/v2_DepthDuration_HTML.html#114,114,1364,768,1364,768,9-4-2022,11-36-24,128,depth_duration_stimuli/003292_2014-05-14_21-53-49_094959634447_rgbf000100-resize_2/003292_2014-05-14_21-53-49_094959634447_rgbf000100-resize_2-target.png,250,3.4815,4.0,4232,249,feet,jsons/v1_VE250_randls_41_rotated.json,1823163,1963509,39,Woman
128,873209,DepthScenes,duration_manipulation_targetAtFixation,jsons/v1_VE250_randls_41_rotated.json,http://54.235.29.9/FacialAge/BNav_EC2/DepthDuration/v2_depth_duration_MTurk/v2_DepthDuration_HTML.html#114,114,1364,768,1364,768,9-4-2022,11-36-24,129,depth_duration_stimuli/000665_2014-06-09_20-42-35_260595134347_rgbf000110-resize_1/000665_2014-06-09_20-42-35_260595134347_rgbf000110-resize_1-target.png,250,3.057,4.5,10319,248,feet,jsons/v1_VE250_randls_41_rotated.json,1823163,1963509,39,Woman
129,873209,DepthScenes,duration_manipulation_targetAtFixation,jsons/v1_VE250_randls_41_rotated.json,http://54.235.29.9/FacialAge/BNav_EC2/DepthDuration/v2_depth_duration_MTurk/v2_DepthDuration_HTML.html#114,114,1364,768,1364,768,9-4-2022,11-36-24,130,depth_duration_stimuli/001150_2014-06-17_15-27-34_260595134347_rgbf000108-resize_2/001150_2014-06-17_15-27-34_260595134347_rgbf000108-resize_2-target.png,250,4.0325,5.5,4689,251,feet,jsons/v1_VE250_randls_41_rotated.json,1823163,1963509,39,Woman
130,873209,DepthScenes,duration_manipulation_targetAtFixation,jsons/v1_VE250_randls_41_rotated.json,http://54.235.29.9/FacialAge/BNav_EC2/DepthDuration/v2_depth_duration_MTurk/v2_DepthDuration_HTML.html#114,114,1364,768,1364,768,9-4-2022,11-36-24,131,depth_duration_stimuli/001214_2014-06-17_16-13-55_260595134347_rgbf000111-resize_0/001214_2014-06-17_16-13-55_260595134347_rgbf000111-resize_0-target.png,250,2.6505,3.5,9740,250,feet,jsons/v1_VE250_randls_41_rotated.json,1823163,1963509,39,Woman
131,873209,DepthScenes,duration_manipulation_targetAtFixation,jsons/v1_VE250_randls_41_rotated.json,http://54.235.29.9/FacialAge/BNav_EC2/DepthDuration/v2_depth_duration_MTurk/v2_DepthDuration_HTML.html#114,114,1364,768,1364,768,9-4-2022,11-36-24,132,depth_duration_stimuli/000810_2014-06-08_17-20-01_260595134347_rgbf000105-resize_0/000810_2014-06-08_17-20-01_260595134347_rgbf000105-resize_0-target.png,250,1.4865,4.0,3941,250,feet,jsons/v1_VE250_randls_41_rotated.json,1823163,1963509,39,Woman
132,873209,DepthScenes,duration_manipulation_targetAtFixation,jsons/v1_VE250_randls_41_rotated.json,http://54.235.29.9/FacialAge/BNav_EC2/DepthDuration/v2_depth_duration_MTurk/v2_DepthDuration_HTML.html#114,114,1364,768,1364,768,9-4-2022,11-36-24,133,depth_duration_stimuli/002995_2014-06-15_12-31-26_094959634447_rgbf000150-resize_1/002995_2014-06-15_12-31-26_094959634447_rgbf000150-resize_1-target.png,250,3.8360000000000003,5.0,10488,249,feet,jsons/v1_VE250_randls_41_rotated.json,1823163,1963509,39,Woman
133,873209,DepthScenes,duration_manipulation_targetAtFixation,jsons/v1_VE250_randls_41_rotated.json,http://54.235.29.9/FacialAge/BNav_EC2/DepthDuration/v2_depth_duration_MTurk/v2_DepthDuration_HTML.html#114,114,1364,768,1364,768,9-4-2022,11-36-24,134,depth_duration_stimuli/002748_2014-06-22_19-07-22_094959634447_rgbf000078-resize_1/002748_2014-06-22_19-07-22_094959634447_rgbf000078-resize_1-target.png,250,4.6705,6.5,4798,249,feet,jsons/v1_VE250_randls_41_rotated.json,1823163,1963509,39,Woman
134,873209,DepthScenes,duration_manipulation_targetAtFixation,jsons/v1_VE250_randls_41_rotated.json,http://54.235.29.9/FacialAge/BNav_EC2/DepthDuration/v2_depth_duration_MTurk/v2_DepthDuration_HTML.html#114,114,1364,768,1364,768,9-4-2022,11-36-24,135,depth_duration_stimuli/000375_2014-06-08_11-17-29_260595134347_rgbf000133-resize_2/000375_2014-06-08_11-17-29_260595134347_rgbf000133-resize-original.jpg,250,4.718,0.0,8267,250,feet,jsons/v1_VE250_randls_41_rotated.json,1823163,1963509,39,Woman
135,873209,DepthScenes,duration_manipulation_targetAtFixation,jsons/v1_VE250_randls_41_rotated.json,http://54.235.29.9/FacialAge/BNav_EC2/DepthDuration/v2_depth_duration_MTurk/v2_DepthDuration_HTML.html#114,114,1364,768,1364,768,9-4-2022,11-36-24,136,depth_duration_stimuli/001136_2014-06-17_15-19-41_260595134347_rgbf000076-resize_3/001136_2014-06-17_15-19-41_260595134347_rgbf000076-resize_3-target.png,250,1.8655,4.0,7751,241,feet,jsons/v1_VE250_randls_41_rotated.json,1823163,1963509,39,Woman
136,873209,DepthScenes,duration_manipulation_targetAtFixation,jsons/v1_VE250_randls_41_rotated.json,http://54.235.29.9/FacialAge/BNav_EC2/DepthDuration/v2_depth_duration_MTurk/v2_DepthDuration_HTML.html#114,114,1364,768,1364,768,9-4-2022,11-36-24,137,depth_duration_stimuli/001164_2014-06-17_15-35-46_260595134347_rgbf000085-resize_3/001164_2014-06-17_15-35-46_260595134347_rgbf000085-resize_3-target.png,250,2.354,4.5,7178,251,feet,jsons/v1_VE250_randls_41_rotated.json,1823163,1963509,39,Woman
137,873209,DepthScenes,duration_manipulation_targetAtFixation,jsons/v1_VE250_randls_41_rotated.json,http://54.235.29.9/FacialAge/BNav_EC2/DepthDuration/v2_depth_duration_MTurk/v2_DepthDuration_HTML.html#114,114,1364,768,1364,768,9-4-2022,11-36-24,138,depth_duration_stimuli/003490_2014-05-21_15-50-11_094959634447_rgbf000101-resize_3/003490_2014-05-21_15-50-11_094959634447_rgbf000101-resize_3-target.png,250,3.6445,5.0,13117,248,feet,jsons/v1_VE250_randls_41_rotated.json,1823163,1963509,39,Woman
138,873209,DepthScenes,duration_manipulation_targetAtFixation,jsons/v1_VE250_randls_41_rotated.json,http://54.235.29.9/FacialAge/BNav_EC2/DepthDuration/v2_depth_duration_MTurk/v2_DepthDuration_HTML.html#114,114,1364,768,1364,768,9-4-2022,11-36-24,139,depth_duration_stimuli/001175_2014-06-17_15-45-55_260595134347_rgbf000129-resize_4/001175_2014-06-17_15-45-55_260595134347_rgbf000129-resize_4-target.png,250,4.255,6.0,6331,249,feet,jsons/v1_VE250_randls_41_rotated.json,1823163,1963509,39,Woman
139,873209,DepthScenes,duration_manipulation_targetAtFixation,jsons/v1_VE250_randls_41_rotated.json,http://54.235.29.9/FacialAge/BNav_EC2/DepthDuration/v2_depth_duration_MTurk/v2_DepthDuration_HTML.html#114,114,1364,768,1364,768,9-4-2022,11-36-24,140,depth_duration_stimuli/003228_2014-05-14_13-42-35_094959634447_rgbf000101-resize_1/003228_2014-05-14_13-42-35_094959634447_rgbf000101-resize_1-target.png,250,1.9680000000000002,2.5,8976,250,feet,jsons/v1_VE250_randls_41_rotated.json,1823163,1963509,39,Woman
140,873209,DepthScenes,duration_manipulation_targetAtFixation,jsons/v1_VE250_randls_41_rotated.json,http://54.235.29.9/FacialAge/BNav_EC2/DepthDuration/v2_depth_duration_MTurk/v2_DepthDuration_HTML.html#114,114,1364,768,1364,768,9-4-2022,11-36-24,141,depth_duration_stimuli/002600_2014-06-24_14-27-04_094959634447_rgbf000074-resize_2/002600_2014-06-24_14-27-04_094959634447_rgbf000074-resize_2-target.png,250,2.7575,4.5,5629,249,feet,jsons/v1_VE250_randls_41_rotated.json,1823163,1963509,39,Woman
141,873209,DepthScenes,duration_manipulation_targetAtFixation,jsons/v1_VE250_randls_41_rotated.json,http://54.235.29.9/FacialAge/BNav_EC2/DepthDuration/v2_depth_duration_MTurk/v2_DepthDuration_HTML.html#114,114,1364,768,1364,768,9-4-2022,11-36-24,142,depth_duration_stimuli/002444_2014-06-28_20-32-08_260595134347_rgbf000027-resize_0/002444_2014-06-28_20-32-08_260595134347_rgbf000027-resize_0-target.png,250,4.388999999999999,6.0,10816,250,feet,jsons/v1_VE250_randls_41_rotated.json,1823163,1963509,39,Woman
142,873209,DepthScenes,duration_manipulation_targetAtFixation,jsons/v1_VE250_randls_41_rotated.json,http://54.235.29.9/FacialAge/BNav_EC2/DepthDuration/v2_depth_duration_MTurk/v2_DepthDuration_HTML.html#114,114,1364,768,1364,768,9-4-2022,11-36-24,143,depth_duration_stimuli/000436_2014-06-09_22-25-11_260595134347_rgbf000137-resize_1/000436_2014-06-09_22-25-11_260595134347_rgbf000137-resize_1-target.png,250,4.0705,6.0,4674,249,feet,jsons/v1_VE250_randls_41_rotated.json,1823163,1963509,39,Woman
143,873209,DepthScenes,duration_manipulation_targetAtFixation,jsons/v1_VE250_randls_41_rotated.json,http://54.235.29.9/FacialAge/BNav_EC2/DepthDuration/v2_depth_duration_MTurk/v2_DepthDuration_HTML.html#114,114,1364,768,1364,768,9-4-2022,11-36-24,144,depth_duration_stimuli/000749_2014-06-08_21-55-06_260595134347_rgbf000070-resize_2/000749_2014-06-08_21-55-06_260595134347_rgbf000070-resize_2-target.png,250,2.331,4.5,7309,250,feet,jsons/v1_VE250_randls_41_rotated.json,1823163,1963509,39,Woman
144,873209,DepthScenes,duration_manipulation_targetAtFixation,jsons/v1_VE250_randls_41_rotated.json,http://54.235.29.9/FacialAge/BNav_EC2/DepthDuration/v2_depth_duration_MTurk/v2_DepthDuration_HTML.html#114,114,1364,768,1364,768,9-4-2022,11-36-24,145,depth_duration_stimuli/002788_2014-06-22_19-36-03_094959634447_rgbf000088-resize_2/002788_2014-06-22_19-36-03_094959634447_rgbf000088-resize_2-target.png,250,1.6465,4.0,4129,250,feet,jsons/v1_VE250_randls_41_rotated.json,1823163,1963509,39,Woman
145,873209,DepthScenes,duration_manipulation_targetAtFixation,jsons/v1_VE250_randls_41_rotated.json,http://54.235.29.9/FacialAge/BNav_EC2/DepthDuration/v2_depth_duration_MTurk/v2_DepthDuration_HTML.html#114,114,1364,768,1364,768,9-4-2022,11-36-24,146,depth_duration_stimuli/002340_2014-06-28_20-05-46_260595134347_rgbf000113-resize_0/002340_2014-06-28_20-05-46_260595134347_rgbf000113-resize_0-target.png,250,2.4735,4.5,7913,248,feet,jsons/v1_VE250_randls_41_rotated.json,1823163,1963509,39,Woman
146,873209,DepthScenes,duration_manipulation_targetAtFixation,jsons/v1_VE250_randls_41_rotated.json,http://54.235.29.9/FacialAge/BNav_EC2/DepthDuration/v2_depth_duration_MTurk/v2_DepthDuration_HTML.html#114,114,1364,768,1364,768,9-4-2022,11-36-24,147,depth_duration_stimuli/001016_2014-06-09_16-16-10_260595134347_rgbf000112-resize_5/001016_2014-06-09_16-16-10_260595134347_rgbf000112-resize_5-target.png,250,1.6565,5.0,4756,254,feet,jsons/v1_VE250_randls_41_rotated.json,1823163,1963509,39,Woman
147,873209,DepthScenes,duration_manipulation_targetAtFixation,jsons/v1_VE250_randls_41_rotated.json,http://54.235.29.9/FacialAge/BNav_EC2/DepthDuration/v2_depth_duration_MTurk/v2_DepthDuration_HTML.html#114,114,1364,768,1364,768,9-4-2022,11-36-24,148,depth_duration_stimuli/002657_2014-06-13_15-29-54_094959634447_rgbf000150-resize_1/002657_2014-06-13_15-29-54_094959634447_rgbf000150-resize_1-target.png,250,4.919,5.0,9951,246,feet,jsons/v1_VE250_randls_41_rotated.json,1823163,1963509,39,Woman
148,873209,DepthScenes,duration_manipulation_targetAtFixation,jsons/v1_VE250_randls_41_rotated.json,http://54.235.29.9/FacialAge/BNav_EC2/DepthDuration/v2_depth_duration_MTurk/v2_DepthDuration_HTML.html#114,114,1364,768,1364,768,9-4-2022,11-36-24,149,depth_duration_stimuli/002375_2014-06-28_20-13-44_260595134347_rgbf000032-resize_1/002375_2014-06-28_20-13-44_260595134347_rgbf000032-resize_1-target.png,250,4.0175,4.0,4210,250,feet,jsons/v1_VE250_randls_41_rotated.json,1823163,1963509,39,Woman
149,873209,DepthScenes,duration_manipulation_targetAtFixation,jsons/v1_VE250_randls_41_rotated.json,http://54.235.29.9/FacialAge/BNav_EC2/DepthDuration/v2_depth_duration_MTurk/v2_DepthDuration_HTML.html#114,114,1364,768,1364,768,9-4-2022,11-36-24,150,depth_duration_stimuli/001447_2014-06-19_17-00-32_260595134347_rgbf000082-resize_5/001447_2014-06-19_17-00-32_260595134347_rgbf000082-resize_5-target.png,250,4.13775,4.5,13432,250,feet,jsons/v1_VE250_randls_41_rotated.json,1823163,1963509,39,Woman
150,873209,DepthScenes,duration_manipulation_targetAtFixation,jsons/v1_VE250_randls_41_rotated.json,http://54.235.29.9/FacialAge/BNav_EC2/DepthDuration/v2_depth_duration_MTurk/v2_DepthDuration_HTML.html#114,114,1364,768,1364,768,9-4-2022,11-36-24,151,depth_duration_stimuli/000447_2014-06-08_16-15-46_260595134347_rgbf000130-resize_1/000447_2014-06-08_16-15-46_260595134347_rgbf000130-resize_1-target.png,250,4.479,5.0,3924,250,feet,jsons/v1_VE250_randls_41_rotated.json,1823163,1963509,39,Woman
151,873209,DepthScenes,duration_manipulation_targetAtFixation,jsons/v1_VE250_randls_41_rotated.json,http://54.235.29.9/FacialAge/BNav_EC2/DepthDuration/v2_depth_duration_MTurk/v2_DepthDuration_HTML.html#114,114,1364,768,1364,768,9-4-2022,11-36-24,152,depth_duration_stimuli/000569_2014-06-09_22-51-47_260595134347_rgbf000141-resize_3/000569_2014-06-09_22-51-47_260595134347_rgbf000141-resize-original.jpg,250,4.512,0.0,17221,250,feet,jsons/v1_VE250_randls_41_rotated.json,1823163,1963509,39,Woman
152,873209,DepthScenes,duration_manipulation_targetAtFixation,jsons/v1_VE250_randls_41_rotated.json,http://54.235.29.9/FacialAge/BNav_EC2/DepthDuration/v2_depth_duration_MTurk/v2_DepthDuration_HTML.html#114,114,1364,768,1364,768,9-4-2022,11-36-24,153,depth_duration_stimuli/000457_2014-06-08_16-52-43_260595134347_rgbf000199-resize_1/000457_2014-06-08_16-52-43_260595134347_rgbf000199-resize_1-target.png,250,3.6489999999999996,5.0,20119,250,feet,jsons/v1_VE250_randls_41_rotated.json,1823163,1963509,39,Woman
153,873209,DepthScenes,duration_manipulation_targetAtFixation,jsons/v1_VE250_randls_41_rotated.json,http://54.235.29.9/FacialAge/BNav_EC2/DepthDuration/v2_depth_duration_MTurk/v2_DepthDuration_HTML.html#114,114,1364,768,1364,768,9-4-2022,11-36-24,154,depth_duration_stimuli/000929_2014-06-09_16-33-19_260595134347_rgbf000139-resize_0/000929_2014-06-09_16-33-19_260595134347_rgbf000139-resize_0-target.png,250,2.8680000000000003,4.0,5720,249,feet,jsons/v1_VE250_randls_41_rotated.json,1823163,1963509,39,Woman
154,873209,DepthScenes,duration_manipulation_targetAtFixation,jsons/v1_VE250_randls_41_rotated.json,http://54.235.29.9/FacialAge/BNav_EC2/DepthDuration/v2_depth_duration_MTurk/v2_DepthDuration_HTML.html#114,114,1364,768,1364,768,9-4-2022,11-36-24,155,depth_duration_stimuli/000780_2014-06-08_22-28-29_260595134347_rgbf000126-resize_1/000780_2014-06-08_22-28-29_260595134347_rgbf000126-resize_1-target.png,250,3.3825,5.0,12161,250,feet,jsons/v1_VE250_randls_41_rotated.json,1823163,1963509,39,Woman
155,873209,DepthScenes,duration_manipulation_targetAtFixation,jsons/v1_VE250_randls_41_rotated.json,http://54.235.29.9/FacialAge/BNav_EC2/DepthDuration/v2_depth_duration_MTurk/v2_DepthDuration_HTML.html#114,114,1364,768,1364,768,9-4-2022,11-36-24,156,depth_duration_stimuli/002445_2014-06-28_20-32-16_260595134347_rgbf000029-resize_4/002445_2014-06-28_20-32-16_260595134347_rgbf000029-resize_4-target.png,250,2.5315,3.0,6540,249,feet,jsons/v1_VE250_randls_41_rotated.json,1823163,1963509,39,Woman
156,873209,DepthScenes,duration_manipulation_targetAtFixation,jsons/v1_VE250_randls_41_rotated.json,http://54.235.29.9/FacialAge/BNav_EC2/DepthDuration/v2_depth_duration_MTurk/v2_DepthDuration_HTML.html#114,114,1364,768,1364,768,9-4-2022,11-36-24,157,depth_duration_stimuli/003587_2014-05-23_16-48-02_094959634447_rgbf002384-resize_2/003587_2014-05-23_16-48-02_094959634447_rgbf002384-resize_2-target.png,250,1.357,1.5,14267,251,feet,jsons/v1_VE250_randls_41_rotated.json,1823163,1963509,39,Woman
157,873209,DepthScenes,duration_manipulation_targetAtFixation,jsons/v1_VE250_randls_41_rotated.json,http://54.235.29.9/FacialAge/BNav_EC2/DepthDuration/v2_depth_duration_MTurk/v2_DepthDuration_HTML.html#114,114,1364,768,1364,768,9-4-2022,11-36-24,158,depth_duration_stimuli/001167_2014-06-17_15-38-07_260595134347_rgbf000108-resize_0/001167_2014-06-17_15-38-07_260595134347_rgbf000108-resize_0-target.png,250,1.8505,2.5,8753,250,feet,jsons/v1_VE250_randls_41_rotated.json,1823163,1963509,39,Woman
158,873209,DepthScenes,duration_manipulation_targetAtFixation,jsons/v1_VE250_randls_41_rotated.json,http://54.235.29.9/FacialAge/BNav_EC2/DepthDuration/v2_depth_duration_MTurk/v2_DepthDuration_HTML.html#114,114,1364,768,1364,768,9-4-2022,11-36-24,159,depth_duration_stimuli/003338_2014-05-20_11-01-23_094959634447_rgbf000051-resize_6/003338_2014-05-20_11-01-23_094959634447_rgbf000051-resize_6-target.png,250,1.693,2.5,13979,250,feet,jsons/v1_VE250_randls_41_rotated.json,1823163,1963509,39,Woman
159,873209,DepthScenes,duration_manipulation_targetAtFixation,jsons/v1_VE250_randls_41_rotated.json,http://54.235.29.9/FacialAge/BNav_EC2/DepthDuration/v2_depth_duration_MTurk/v2_DepthDuration_HTML.html#114,114,1364,768,1364,768,9-4-2022,11-36-24,160,depth_duration_stimuli/002509_2014-06-24_13-19-22_094959634447_rgbf000077-resize_0/002509_2014-06-24_13-19-22_094959634447_rgbf000077-resize_0-target.png,250,1.3065,2.0,4800,251,feet,jsons/v1_VE250_randls_41_rotated.json,1823163,1963509,39,Woman
160,873209,DepthScenes,duration_manipulation_targetAtFixation,jsons/v1_VE250_randls_41_rotated.json,http://54.235.29.9/FacialAge/BNav_EC2/DepthDuration/v2_depth_duration_MTurk/v2_DepthDuration_HTML.html#114,114,1364,768,1364,768,9-4-2022,11-36-24,161,depth_duration_stimuli/000549_2014-06-08_22-10-24_260595134347_rgbf000247-resize_3/000549_2014-06-08_22-10-24_260595134347_rgbf000247-resize_3-target.png,250,1.841,2.0,10922,287,feet,jsons/v1_VE250_randls_41_rotated.json,1823163,1963509,39,Woman
161,873209,DepthScenes,duration_manipulation_targetAtFixation,jsons/v1_VE250_randls_41_rotated.json,http://54.235.29.9/FacialAge/BNav_EC2/DepthDuration/v2_depth_duration_MTurk/v2_DepthDuration_HTML.html#114,114,1364,768,1364,768,9-4-2022,11-36-24,162,depth_duration_stimuli/001055_2014-06-08_18-45-35_260595134347_rgbf000111-resize_4/001055_2014-06-08_18-45-35_260595134347_rgbf000111-resize_4-target.png,250,2.4290000000000003,5.0,7057,247,feet,jsons/v1_VE250_randls_41_rotated.json,1823163,1963509,39,Woman
162,873209,DepthScenes,duration_manipulation_targetAtFixation,jsons/v1_VE250_randls_41_rotated.json,http://54.235.29.9/FacialAge/BNav_EC2/DepthDuration/v2_depth_duration_MTurk/v2_DepthDuration_HTML.html#114,114,1364,768,1364,768,9-4-2022,11-36-24,163,depth_duration_stimuli/000691_2014-06-08_13-08-50_260595134347_rgbf000132-resize_3/000691_2014-06-08_13-08-50_260595134347_rgbf000132-resize_3-target.png,250,4.1530000000000005,5.0,11618,249,feet,jsons/v1_VE250_randls_41_rotated.json,1823163,1963509,39,Woman
163,873209,DepthScenes,duration_manipulation_targetAtFixation,jsons/v1_VE250_randls_41_rotated.json,http://54.235.29.9/FacialAge/BNav_EC2/DepthDuration/v2_depth_duration_MTurk/v2_DepthDuration_HTML.html#114,114,1364,768,1364,768,9-4-2022,11-36-24,164,depth_duration_stimuli/002213_2014-06-28_18-37-58_260595134347_rgbf000055-resize_1/002213_2014-06-28_18-37-58_260595134347_rgbf000055-resize_1-target.png,250,3.62,6.0,8146,253,feet,jsons/v1_VE250_randls_41_rotated.json,1823163,1963509,39,Woman
