,subjID,experimentName,versionName,sequenceName,url,selected_row,windowWidth,windowHeight,screenWidth,screenHeight,startDate,startTime,trial,stimulus,duration,actual_depth,depth_estimate,trial_RT,log_sceneDuration,unitSelection,seq_filepath,experimentTime,totalTime,age,gender
0,874520,DepthScenes,duration_manipulation_targetAtFixation,jsons/VE125_randls_62_rotated.json,http://54.235.29.9/FacialAge/BNav_EC2/DepthDuration/v2_depth_duration_MTurk/v2_DepthDuration_HTML.html#47,47,1364,768,1364,768,8-21-2022,12-24-5,1,depth_duration_stimuli/001214_2014-06-17_16-13-55_260595134347_rgbf000111-resize_0/001214_2014-06-17_16-13-55_260595134347_rgbf000111-resize_0-target.png,125,2.6505,1.0,10394,124,meters,jsons/VE125_randls_62_rotated.json,2121358,2459012,32,Man
1,874520,DepthScenes,duration_manipulation_targetAtFixation,jsons/VE125_randls_62_rotated.json,http://54.235.29.9/FacialAge/BNav_EC2/DepthDuration/v2_depth_duration_MTurk/v2_DepthDuration_HTML.html#47,47,1364,768,1364,768,8-21-2022,12-24-5,2,depth_duration_stimuli/000810_2014-06-08_17-20-01_260595134347_rgbf000105-resize_0/000810_2014-06-08_17-20-01_260595134347_rgbf000105-resize_0-target.png,125,1.4865,4.0,4344,123,meters,jsons/VE125_randls_62_rotated.json,2121358,2459012,32,Man
2,874520,DepthScenes,duration_manipulation_targetAtFixation,jsons/VE125_randls_62_rotated.json,http://54.235.29.9/FacialAge/BNav_EC2/DepthDuration/v2_depth_duration_MTurk/v2_DepthDuration_HTML.html#47,47,1364,768,1364,768,8-21-2022,12-24-5,3,depth_duration_stimuli/002953_2014-06-08_17-32-18_094959634447_rgbf000059-resize_5/002953_2014-06-08_17-32-18_094959634447_rgbf000059-resize_5-target.png,125,1.551,5.0,7256,120,meters,jsons/VE125_randls_62_rotated.json,2121358,2459012,32,Man
3,874520,DepthScenes,duration_manipulation_targetAtFixation,jsons/VE125_randls_62_rotated.json,http://54.235.29.9/FacialAge/BNav_EC2/DepthDuration/v2_depth_duration_MTurk/v2_DepthDuration_HTML.html#47,47,1364,768,1364,768,8-21-2022,12-24-5,4,depth_duration_stimuli/000878_2014-06-08_22-52-45_260595134347_rgbf000045-resize_2/000878_2014-06-08_22-52-45_260595134347_rgbf000045-resize_2-target.png,125,2.092,4.0,4064,125,meters,jsons/VE125_randls_62_rotated.json,2121358,2459012,32,Man
4,874520,DepthScenes,duration_manipulation_targetAtFixation,jsons/VE125_randls_62_rotated.json,http://54.235.29.9/FacialAge/BNav_EC2/DepthDuration/v2_depth_duration_MTurk/v2_DepthDuration_HTML.html#47,47,1364,768,1364,768,8-21-2022,12-24-5,5,depth_duration_stimuli/001516_2014-06-20_16-25-09_260595134347_rgbf000076-resize_2/001516_2014-06-20_16-25-09_260595134347_rgbf000076-resize_2-target.png,125,1.7445,6.0,5389,125,meters,jsons/VE125_randls_62_rotated.json,2121358,2459012,32,Man
5,874520,DepthScenes,duration_manipulation_targetAtFixation,jsons/VE125_randls_62_rotated.json,http://54.235.29.9/FacialAge/BNav_EC2/DepthDuration/v2_depth_duration_MTurk/v2_DepthDuration_HTML.html#47,47,1364,768,1364,768,8-21-2022,12-24-5,6,depth_duration_stimuli/002118_2014-06-25_20-32-08_260595134347_rgbf000078-resize_1/002118_2014-06-25_20-32-08_260595134347_rgbf000078-resize_1-target.png,125,2.6460000000000004,0.0,5554,142,meters,jsons/VE125_randls_62_rotated.json,2121358,2459012,32,Man
6,874520,DepthScenes,duration_manipulation_targetAtFixation,jsons/VE125_randls_62_rotated.json,http://54.235.29.9/FacialAge/BNav_EC2/DepthDuration/v2_depth_duration_MTurk/v2_DepthDuration_HTML.html#47,47,1364,768,1364,768,8-21-2022,12-24-5,7,depth_duration_stimuli/003490_2014-05-21_15-50-11_094959634447_rgbf000101-resize_3/003490_2014-05-21_15-50-11_094959634447_rgbf000101-resize_3-target.png,125,3.6445,2.0,5096,148,meters,jsons/VE125_randls_62_rotated.json,2121358,2459012,32,Man
7,874520,DepthScenes,duration_manipulation_targetAtFixation,jsons/VE125_randls_62_rotated.json,http://54.235.29.9/FacialAge/BNav_EC2/DepthDuration/v2_depth_duration_MTurk/v2_DepthDuration_HTML.html#47,47,1364,768,1364,768,8-21-2022,12-24-5,8,depth_duration_stimuli/001175_2014-06-17_15-45-55_260595134347_rgbf000129-resize_4/001175_2014-06-17_15-45-55_260595134347_rgbf000129-resize_4-target.png,125,4.255,1.0,25632,139,meters,jsons/VE125_randls_62_rotated.json,2121358,2459012,32,Man
8,874520,DepthScenes,duration_manipulation_targetAtFixation,jsons/VE125_randls_62_rotated.json,http://54.235.29.9/FacialAge/BNav_EC2/DepthDuration/v2_depth_duration_MTurk/v2_DepthDuration_HTML.html#47,47,1364,768,1364,768,8-21-2022,12-24-5,9,depth_duration_stimuli/001450_2014-06-19_17-02-03_260595134347_rgbf000203-resize_4/001450_2014-06-19_17-02-03_260595134347_rgbf000203-resize_4-target.png,125,4.0106666666667,2.0,107357,117,meters,jsons/VE125_randls_62_rotated.json,2121358,2459012,32,Man
9,874520,DepthScenes,duration_manipulation_targetAtFixation,jsons/VE125_randls_62_rotated.json,http://54.235.29.9/FacialAge/BNav_EC2/DepthDuration/v2_depth_duration_MTurk/v2_DepthDuration_HTML.html#47,47,1364,768,1364,768,8-21-2022,12-24-5,10,depth_duration_stimuli/001449_2014-06-19_17-01-27_260595134347_rgbf000116-resize_2/001449_2014-06-19_17-01-27_260595134347_rgbf000116-resize_2-target.png,125,3.452,4.0,7200,124,meters,jsons/VE125_randls_62_rotated.json,2121358,2459012,32,Man
10,874520,DepthScenes,duration_manipulation_targetAtFixation,jsons/VE125_randls_62_rotated.json,http://54.235.29.9/FacialAge/BNav_EC2/DepthDuration/v2_depth_duration_MTurk/v2_DepthDuration_HTML.html#47,47,1364,768,1364,768,8-21-2022,12-24-5,11,depth_duration_stimuli/003083_2014-06-15_15-21-03_094959634447_rgbf000063-resize_1/003083_2014-06-15_15-21-03_094959634447_rgbf000063-resize_1-target.png,125,4.1405,4.0,6758,125,meters,jsons/VE125_randls_62_rotated.json,2121358,2459012,32,Man
11,874520,DepthScenes,duration_manipulation_targetAtFixation,jsons/VE125_randls_62_rotated.json,http://54.235.29.9/FacialAge/BNav_EC2/DepthDuration/v2_depth_duration_MTurk/v2_DepthDuration_HTML.html#47,47,1364,768,1364,768,8-21-2022,12-24-5,12,depth_duration_stimuli/000486_2014-06-09_20-47-20_260595134347_rgbf000143-resize_2/000486_2014-06-09_20-47-20_260595134347_rgbf000143-resize_2-target.png,125,4.8325,2.0,7317,125,meters,jsons/VE125_randls_62_rotated.json,2121358,2459012,32,Man
12,874520,DepthScenes,duration_manipulation_targetAtFixation,jsons/VE125_randls_62_rotated.json,http://54.235.29.9/FacialAge/BNav_EC2/DepthDuration/v2_depth_duration_MTurk/v2_DepthDuration_HTML.html#47,47,1364,768,1364,768,8-21-2022,12-24-5,13,depth_duration_stimuli/000556_2014-06-09_22-42-56_260595134347_rgbf000214-resize_1/000556_2014-06-09_22-42-56_260595134347_rgbf000214-resize_1-target.png,125,4.8415,5.0,6345,126,meters,jsons/VE125_randls_62_rotated.json,2121358,2459012,32,Man
13,874520,DepthScenes,duration_manipulation_targetAtFixation,jsons/VE125_randls_62_rotated.json,http://54.235.29.9/FacialAge/BNav_EC2/DepthDuration/v2_depth_duration_MTurk/v2_DepthDuration_HTML.html#47,47,1364,768,1364,768,8-21-2022,12-24-5,14,depth_duration_stimuli/001158_2014-06-17_15-32-16_260595134347_rgbf000138-resize_2/001158_2014-06-17_15-32-16_260595134347_rgbf000138-resize_2-target.png,125,4.5315,2.0,3291,124,meters,jsons/VE125_randls_62_rotated.json,2121358,2459012,32,Man
14,874520,DepthScenes,duration_manipulation_targetAtFixation,jsons/VE125_randls_62_rotated.json,http://54.235.29.9/FacialAge/BNav_EC2/DepthDuration/v2_depth_duration_MTurk/v2_DepthDuration_HTML.html#47,47,1364,768,1364,768,8-21-2022,12-24-5,15,depth_duration_stimuli/000457_2014-06-08_16-52-43_260595134347_rgbf000199-resize_1/000457_2014-06-08_16-52-43_260595134347_rgbf000199-resize_1-target.png,125,3.6489999999999996,1.0,6314,130,meters,jsons/VE125_randls_62_rotated.json,2121358,2459012,32,Man
15,874520,DepthScenes,duration_manipulation_targetAtFixation,jsons/VE125_randls_62_rotated.json,http://54.235.29.9/FacialAge/BNav_EC2/DepthDuration/v2_depth_duration_MTurk/v2_DepthDuration_HTML.html#47,47,1364,768,1364,768,8-21-2022,12-24-5,16,depth_duration_stimuli/000929_2014-06-09_16-33-19_260595134347_rgbf000139-resize_0/000929_2014-06-09_16-33-19_260595134347_rgbf000139-resize_0-target.png,125,2.8680000000000003,0.0,5059,124,meters,jsons/VE125_randls_62_rotated.json,2121358,2459012,32,Man
16,874520,DepthScenes,duration_manipulation_targetAtFixation,jsons/VE125_randls_62_rotated.json,http://54.235.29.9/FacialAge/BNav_EC2/DepthDuration/v2_depth_duration_MTurk/v2_DepthDuration_HTML.html#47,47,1364,768,1364,768,8-21-2022,12-24-5,17,depth_duration_stimuli/002340_2014-06-28_20-05-46_260595134347_rgbf000113-resize_0/002340_2014-06-28_20-05-46_260595134347_rgbf000113-resize_0-target.png,125,2.4735,3.0,6209,123,meters,jsons/VE125_randls_62_rotated.json,2121358,2459012,32,Man
17,874520,DepthScenes,duration_manipulation_targetAtFixation,jsons/VE125_randls_62_rotated.json,http://54.235.29.9/FacialAge/BNav_EC2/DepthDuration/v2_depth_duration_MTurk/v2_DepthDuration_HTML.html#47,47,1364,768,1364,768,8-21-2022,12-24-5,18,depth_duration_stimuli/001016_2014-06-09_16-16-10_260595134347_rgbf000112-resize_5/001016_2014-06-09_16-16-10_260595134347_rgbf000112-resize_5-target.png,125,1.6565,1.0,3844,124,meters,jsons/VE125_randls_62_rotated.json,2121358,2459012,32,Man
18,874520,DepthScenes,duration_manipulation_targetAtFixation,jsons/VE125_randls_62_rotated.json,http://54.235.29.9/FacialAge/BNav_EC2/DepthDuration/v2_depth_duration_MTurk/v2_DepthDuration_HTML.html#47,47,1364,768,1364,768,8-21-2022,12-24-5,19,depth_duration_stimuli/001498_2014-06-19_17-45-14_260595134347_rgbf000129-resize_4/001498_2014-06-19_17-45-14_260595134347_rgbf000129-resize-original.jpg,125,1.4075,0.0,5920,126,meters,jsons/VE125_randls_62_rotated.json,2121358,2459012,32,Man
19,874520,DepthScenes,duration_manipulation_targetAtFixation,jsons/VE125_randls_62_rotated.json,http://54.235.29.9/FacialAge/BNav_EC2/DepthDuration/v2_depth_duration_MTurk/v2_DepthDuration_HTML.html#47,47,1364,768,1364,768,8-21-2022,12-24-5,20,depth_duration_stimuli/000854_2014-06-09_19-43-13_260595134347_rgbf000066-resize_0/000854_2014-06-09_19-43-13_260595134347_rgbf000066-resize_0-target.png,125,3.068,6.0,5923,124,meters,jsons/VE125_randls_62_rotated.json,2121358,2459012,32,Man
20,874520,DepthScenes,duration_manipulation_targetAtFixation,jsons/VE125_randls_62_rotated.json,http://54.235.29.9/FacialAge/BNav_EC2/DepthDuration/v2_depth_duration_MTurk/v2_DepthDuration_HTML.html#47,47,1364,768,1364,768,8-21-2022,12-24-5,21,depth_duration_stimuli/000758_2014-06-08_22-05-08_260595134347_rgbf000085-resize_0/000758_2014-06-08_22-05-08_260595134347_rgbf000085-resize_0-target.png,125,3.3810000000000002,4.0,3859,125,meters,jsons/VE125_randls_62_rotated.json,2121358,2459012,32,Man
21,874520,DepthScenes,duration_manipulation_targetAtFixation,jsons/VE125_randls_62_rotated.json,http://54.235.29.9/FacialAge/BNav_EC2/DepthDuration/v2_depth_duration_MTurk/v2_DepthDuration_HTML.html#47,47,1364,768,1364,768,8-21-2022,12-24-5,22,depth_duration_stimuli/001650_2014-06-20_12-09-00_260595134347_rgbf000087-resize_3/001650_2014-06-20_12-09-00_260595134347_rgbf000087-resize_3-target.png,125,1.9505,4.0,7936,124,meters,jsons/VE125_randls_62_rotated.json,2121358,2459012,32,Man
22,874520,DepthScenes,duration_manipulation_targetAtFixation,jsons/VE125_randls_62_rotated.json,http://54.235.29.9/FacialAge/BNav_EC2/DepthDuration/v2_depth_duration_MTurk/v2_DepthDuration_HTML.html#47,47,1364,768,1364,768,8-21-2022,12-24-5,23,depth_duration_stimuli/000682_2014-06-08_23-14-58_260595134347_rgbf000041-resize_5/000682_2014-06-08_23-14-58_260595134347_rgbf000041-resize_5-target.png,125,2.7239999999999998,5.0,4293,124,meters,jsons/VE125_randls_62_rotated.json,2121358,2459012,32,Man
23,874520,DepthScenes,duration_manipulation_targetAtFixation,jsons/VE125_randls_62_rotated.json,http://54.235.29.9/FacialAge/BNav_EC2/DepthDuration/v2_depth_duration_MTurk/v2_DepthDuration_HTML.html#47,47,1364,768,1364,768,8-21-2022,12-24-5,24,depth_duration_stimuli/001617_2014-06-20_11-35-32_260595134347_rgbf000066-resize_1/001617_2014-06-20_11-35-32_260595134347_rgbf000066-resize_1-target.png,125,3.7910000000000004,3.0,28881,120,meters,jsons/VE125_randls_62_rotated.json,2121358,2459012,32,Man
24,874520,DepthScenes,duration_manipulation_targetAtFixation,jsons/VE125_randls_62_rotated.json,http://54.235.29.9/FacialAge/BNav_EC2/DepthDuration/v2_depth_duration_MTurk/v2_DepthDuration_HTML.html#47,47,1364,768,1364,768,8-21-2022,12-24-5,25,depth_duration_stimuli/001806_2014-06-26_20-50-20_260595134347_rgbf000091-resize_1/001806_2014-06-26_20-50-20_260595134347_rgbf000091-resize_1-target.png,125,2.7305,3.0,5842,115,meters,jsons/VE125_randls_62_rotated.json,2121358,2459012,32,Man
25,874520,DepthScenes,duration_manipulation_targetAtFixation,jsons/VE125_randls_62_rotated.json,http://54.235.29.9/FacialAge/BNav_EC2/DepthDuration/v2_depth_duration_MTurk/v2_DepthDuration_HTML.html#47,47,1364,768,1364,768,8-21-2022,12-24-5,26,depth_duration_stimuli/001815_2014-06-26_20-52-55_260595134347_rgbf000020-resize_0/001815_2014-06-26_20-52-55_260595134347_rgbf000020-resize_0-target.png,125,3.3865,4.0,98004,123,meters,jsons/VE125_randls_62_rotated.json,2121358,2459012,32,Man
26,874520,DepthScenes,duration_manipulation_targetAtFixation,jsons/VE125_randls_62_rotated.json,http://54.235.29.9/FacialAge/BNav_EC2/DepthDuration/v2_depth_duration_MTurk/v2_DepthDuration_HTML.html#47,47,1364,768,1364,768,8-21-2022,12-24-5,27,depth_duration_stimuli/001808_2014-06-26_20-50-58_260595134347_rgbf000029-resize_1/001808_2014-06-26_20-50-58_260595134347_rgbf000029-resize_1-target.png,125,4.249,5.0,6741,113,meters,jsons/VE125_randls_62_rotated.json,2121358,2459012,32,Man
27,874520,DepthScenes,duration_manipulation_targetAtFixation,jsons/VE125_randls_62_rotated.json,http://54.235.29.9/FacialAge/BNav_EC2/DepthDuration/v2_depth_duration_MTurk/v2_DepthDuration_HTML.html#47,47,1364,768,1364,768,8-21-2022,12-24-5,28,depth_duration_stimuli/002444_2014-06-28_20-32-08_260595134347_rgbf000027-resize_0/002444_2014-06-28_20-32-08_260595134347_rgbf000027-resize_0-target.png,125,4.388999999999999,5.0,63169,124,meters,jsons/VE125_randls_62_rotated.json,2121358,2459012,32,Man
28,874520,DepthScenes,duration_manipulation_targetAtFixation,jsons/VE125_randls_62_rotated.json,http://54.235.29.9/FacialAge/BNav_EC2/DepthDuration/v2_depth_duration_MTurk/v2_DepthDuration_HTML.html#47,47,1364,768,1364,768,8-21-2022,12-24-5,29,depth_duration_stimuli/000436_2014-06-09_22-25-11_260595134347_rgbf000137-resize_1/000436_2014-06-09_22-25-11_260595134347_rgbf000137-resize_1-target.png,125,4.0705,4.0,5395,125,meters,jsons/VE125_randls_62_rotated.json,2121358,2459012,32,Man
29,874520,DepthScenes,duration_manipulation_targetAtFixation,jsons/VE125_randls_62_rotated.json,http://54.235.29.9/FacialAge/BNav_EC2/DepthDuration/v2_depth_duration_MTurk/v2_DepthDuration_HTML.html#47,47,1364,768,1364,768,8-21-2022,12-24-5,30,depth_duration_stimuli/002072_2014-06-24_21-48-06_260595134347_rgbf000115-resize_0/002072_2014-06-24_21-48-06_260595134347_rgbf000115-resize-original.jpg,125,4.702,0.0,9403,135,meters,jsons/VE125_randls_62_rotated.json,2121358,2459012,32,Man
30,874520,DepthScenes,duration_manipulation_targetAtFixation,jsons/VE125_randls_62_rotated.json,http://54.235.29.9/FacialAge/BNav_EC2/DepthDuration/v2_depth_duration_MTurk/v2_DepthDuration_HTML.html#47,47,1364,768,1364,768,8-21-2022,12-24-5,31,depth_duration_stimuli/000665_2014-06-09_20-42-35_260595134347_rgbf000110-resize_1/000665_2014-06-09_20-42-35_260595134347_rgbf000110-resize_1-target.png,125,3.057,0.0,167267,124,meters,jsons/VE125_randls_62_rotated.json,2121358,2459012,32,Man
31,874520,DepthScenes,duration_manipulation_targetAtFixation,jsons/VE125_randls_62_rotated.json,http://54.235.29.9/FacialAge/BNav_EC2/DepthDuration/v2_depth_duration_MTurk/v2_DepthDuration_HTML.html#47,47,1364,768,1364,768,8-21-2022,12-24-5,32,depth_duration_stimuli/001150_2014-06-17_15-27-34_260595134347_rgbf000108-resize_2/001150_2014-06-17_15-27-34_260595134347_rgbf000108-resize_2-target.png,125,4.0325,3.0,4118,124,meters,jsons/VE125_randls_62_rotated.json,2121358,2459012,32,Man
32,874520,DepthScenes,duration_manipulation_targetAtFixation,jsons/VE125_randls_62_rotated.json,http://54.235.29.9/FacialAge/BNav_EC2/DepthDuration/v2_depth_duration_MTurk/v2_DepthDuration_HTML.html#47,47,1364,768,1364,768,8-21-2022,12-24-5,33,depth_duration_stimuli/000691_2014-06-08_13-08-50_260595134347_rgbf000132-resize_3/000691_2014-06-08_13-08-50_260595134347_rgbf000132-resize_3-target.png,125,4.1530000000000005,2.5,7670,123,meters,jsons/VE125_randls_62_rotated.json,2121358,2459012,32,Man
33,874520,DepthScenes,duration_manipulation_targetAtFixation,jsons/VE125_randls_62_rotated.json,http://54.235.29.9/FacialAge/BNav_EC2/DepthDuration/v2_depth_duration_MTurk/v2_DepthDuration_HTML.html#47,47,1364,768,1364,768,8-21-2022,12-24-5,34,depth_duration_stimuli/002213_2014-06-28_18-37-58_260595134347_rgbf000055-resize_1/002213_2014-06-28_18-37-58_260595134347_rgbf000055-resize_1-target.png,125,3.62,0.0,4065,139,meters,jsons/VE125_randls_62_rotated.json,2121358,2459012,32,Man
34,874520,DepthScenes,duration_manipulation_targetAtFixation,jsons/VE125_randls_62_rotated.json,http://54.235.29.9/FacialAge/BNav_EC2/DepthDuration/v2_depth_duration_MTurk/v2_DepthDuration_HTML.html#47,47,1364,768,1364,768,8-21-2022,12-24-5,35,depth_duration_stimuli/000409_2014-06-04_19-23-33_260595134347_rgbf000067-resize_0/000409_2014-06-04_19-23-33_260595134347_rgbf000067-resize_0-target.png,125,3.7335,3.0,12720,124,meters,jsons/VE125_randls_62_rotated.json,2121358,2459012,32,Man
35,874520,DepthScenes,duration_manipulation_targetAtFixation,jsons/VE125_randls_62_rotated.json,http://54.235.29.9/FacialAge/BNav_EC2/DepthDuration/v2_depth_duration_MTurk/v2_DepthDuration_HTML.html#47,47,1364,768,1364,768,8-21-2022,12-24-5,36,depth_duration_stimuli/002663_2014-06-13_15-50-26_094959634447_rgbf000075-resize_1/002663_2014-06-13_15-50-26_094959634447_rgbf000075-resize_1-target.png,125,4.7495,3.0,6730,125,meters,jsons/VE125_randls_62_rotated.json,2121358,2459012,32,Man
36,874520,DepthScenes,duration_manipulation_targetAtFixation,jsons/VE125_randls_62_rotated.json,http://54.235.29.9/FacialAge/BNav_EC2/DepthDuration/v2_depth_duration_MTurk/v2_DepthDuration_HTML.html#47,47,1364,768,1364,768,8-21-2022,12-24-5,37,depth_duration_stimuli/002660_2014-06-13_15-44-18_094959634447_rgbf001878-resize_2/002660_2014-06-13_15-44-18_094959634447_rgbf001878-resize_2-target.png,125,3.576,5.0,8186,125,meters,jsons/VE125_randls_62_rotated.json,2121358,2459012,32,Man
37,874520,DepthScenes,duration_manipulation_targetAtFixation,jsons/VE125_randls_62_rotated.json,http://54.235.29.9/FacialAge/BNav_EC2/DepthDuration/v2_depth_duration_MTurk/v2_DepthDuration_HTML.html#47,47,1364,768,1364,768,8-21-2022,12-24-5,38,depth_duration_stimuli/002153_2014-06-25_21-27-18_260595134347_rgbf000038-resize_5/002153_2014-06-25_21-27-18_260595134347_rgbf000038-resize_5-target.png,125,2.505,3.0,5202,123,meters,jsons/VE125_randls_62_rotated.json,2121358,2459012,32,Man
38,874520,DepthScenes,duration_manipulation_targetAtFixation,jsons/VE125_randls_62_rotated.json,http://54.235.29.9/FacialAge/BNav_EC2/DepthDuration/v2_depth_duration_MTurk/v2_DepthDuration_HTML.html#47,47,1364,768,1364,768,8-21-2022,12-24-5,39,depth_duration_stimuli/002875_2014-06-01_15-19-00_094959634447_rgbf000151-resize_1/002875_2014-06-01_15-19-00_094959634447_rgbf000151-resize_1-target.png,125,1.9675,2.0,5217,125,meters,jsons/VE125_randls_62_rotated.json,2121358,2459012,32,Man
39,874520,DepthScenes,duration_manipulation_targetAtFixation,jsons/VE125_randls_62_rotated.json,http://54.235.29.9/FacialAge/BNav_EC2/DepthDuration/v2_depth_duration_MTurk/v2_DepthDuration_HTML.html#47,47,1364,768,1364,768,8-21-2022,12-24-5,40,depth_duration_stimuli/001011_2014-06-08_23-18-54_260595134347_rgbf000044-resize_4/001011_2014-06-08_23-18-54_260595134347_rgbf000044-resize_4-target.png,125,2.4730000000000003,5.0,421204,123,meters,jsons/VE125_randls_62_rotated.json,2121358,2459012,32,Man
40,874520,DepthScenes,duration_manipulation_targetAtFixation,jsons/VE125_randls_62_rotated.json,http://54.235.29.9/FacialAge/BNav_EC2/DepthDuration/v2_depth_duration_MTurk/v2_DepthDuration_HTML.html#47,47,1364,768,1364,768,8-21-2022,12-24-5,41,depth_duration_stimuli/002657_2014-06-13_15-29-54_094959634447_rgbf000150-resize_1/002657_2014-06-13_15-29-54_094959634447_rgbf000150-resize_1-target.png,125,4.919,3.0,8948,139,meters,jsons/VE125_randls_62_rotated.json,2121358,2459012,32,Man
41,874520,DepthScenes,duration_manipulation_targetAtFixation,jsons/VE125_randls_62_rotated.json,http://54.235.29.9/FacialAge/BNav_EC2/DepthDuration/v2_depth_duration_MTurk/v2_DepthDuration_HTML.html#47,47,1364,768,1364,768,8-21-2022,12-24-5,42,depth_duration_stimuli/002375_2014-06-28_20-13-44_260595134347_rgbf000032-resize_1/002375_2014-06-28_20-13-44_260595134347_rgbf000032-resize_1-target.png,125,4.0175,2.0,4697,123,meters,jsons/VE125_randls_62_rotated.json,2121358,2459012,32,Man
42,874520,DepthScenes,duration_manipulation_targetAtFixation,jsons/VE125_randls_62_rotated.json,http://54.235.29.9/FacialAge/BNav_EC2/DepthDuration/v2_depth_duration_MTurk/v2_DepthDuration_HTML.html#47,47,1364,768,1364,768,8-21-2022,12-24-5,43,depth_duration_stimuli/002425_2014-06-28_20-27-29_260595134347_rgbf000031-resize_8/002425_2014-06-28_20-27-29_260595134347_rgbf000031-resize_8-target.png,125,3.8960000000000004,5.0,7124,125,meters,jsons/VE125_randls_62_rotated.json,2121358,2459012,32,Man
43,874520,DepthScenes,duration_manipulation_targetAtFixation,jsons/VE125_randls_62_rotated.json,http://54.235.29.9/FacialAge/BNav_EC2/DepthDuration/v2_depth_duration_MTurk/v2_DepthDuration_HTML.html#47,47,1364,768,1364,768,8-21-2022,12-24-5,44,depth_duration_stimuli/000642_2014-06-08_16-59-25_260595134347_rgbf000098-resize_2/000642_2014-06-08_16-59-25_260595134347_rgbf000098-resize_2-target.png,125,2.8815,5.0,11708,125,meters,jsons/VE125_randls_62_rotated.json,2121358,2459012,32,Man
44,874520,DepthScenes,duration_manipulation_targetAtFixation,jsons/VE125_randls_62_rotated.json,http://54.235.29.9/FacialAge/BNav_EC2/DepthDuration/v2_depth_duration_MTurk/v2_DepthDuration_HTML.html#47,47,1364,768,1364,768,8-21-2022,12-24-5,45,depth_duration_stimuli/002805_2014-06-22_19-54-03_094959634447_rgbf000079-resize_1/002805_2014-06-22_19-54-03_094959634447_rgbf000079-resize_1-target.png,125,3.1439999999999997,6.0,57793,150,meters,jsons/VE125_randls_62_rotated.json,2121358,2459012,32,Man
45,874520,DepthScenes,duration_manipulation_targetAtFixation,jsons/VE125_randls_62_rotated.json,http://54.235.29.9/FacialAge/BNav_EC2/DepthDuration/v2_depth_duration_MTurk/v2_DepthDuration_HTML.html#47,47,1364,768,1364,768,8-21-2022,12-24-5,46,depth_duration_stimuli/000906_2014-06-08_13-35-43_260595134347_rgbf000155-resize_1/000906_2014-06-08_13-35-43_260595134347_rgbf000155-resize_1-target.png,125,2.8489999999999998,6.0,9889,125,meters,jsons/VE125_randls_62_rotated.json,2121358,2459012,32,Man
46,874520,DepthScenes,duration_manipulation_targetAtFixation,jsons/VE125_randls_62_rotated.json,http://54.235.29.9/FacialAge/BNav_EC2/DepthDuration/v2_depth_duration_MTurk/v2_DepthDuration_HTML.html#47,47,1364,768,1364,768,8-21-2022,12-24-5,47,depth_duration_stimuli/003495_2014-05-21_16-01-51_094959634447_rgbf000100-resize_3/003495_2014-05-21_16-01-51_094959634447_rgbf000100-resize_3-target.png,125,1.6255,3.0,5464,113,meters,jsons/VE125_randls_62_rotated.json,2121358,2459012,32,Man
47,874520,DepthScenes,duration_manipulation_targetAtFixation,jsons/VE125_randls_62_rotated.json,http://54.235.29.9/FacialAge/BNav_EC2/DepthDuration/v2_depth_duration_MTurk/v2_DepthDuration_HTML.html#47,47,1364,768,1364,768,8-21-2022,12-24-5,48,depth_duration_stimuli/001244_2014-06-17_16-47-45_260595134347_rgbf000030-resize_4/001244_2014-06-17_16-47-45_260595134347_rgbf000030-resize_4-target.png,125,2.0425,5.0,5858,124,meters,jsons/VE125_randls_62_rotated.json,2121358,2459012,32,Man
48,874520,DepthScenes,duration_manipulation_targetAtFixation,jsons/VE125_randls_62_rotated.json,http://54.235.29.9/FacialAge/BNav_EC2/DepthDuration/v2_depth_duration_MTurk/v2_DepthDuration_HTML.html#47,47,1364,768,1364,768,8-21-2022,12-24-5,49,depth_duration_stimuli/001170_2014-06-17_15-43-44_260595134347_rgbf000096-resize_6/001170_2014-06-17_15-43-44_260595134347_rgbf000096-resize-original.jpg,125,1.1909999999999998,0.0,11364,124,meters,jsons/VE125_randls_62_rotated.json,2121358,2459012,32,Man
49,874520,DepthScenes,duration_manipulation_targetAtFixation,jsons/VE125_randls_62_rotated.json,http://54.235.29.9/FacialAge/BNav_EC2/DepthDuration/v2_depth_duration_MTurk/v2_DepthDuration_HTML.html#47,47,1364,768,1364,768,8-21-2022,12-24-5,50,depth_duration_stimuli/003228_2014-05-14_13-42-35_094959634447_rgbf000101-resize_1/003228_2014-05-14_13-42-35_094959634447_rgbf000101-resize_1-target.png,125,1.9680000000000002,3.0,8264,133,meters,jsons/VE125_randls_62_rotated.json,2121358,2459012,32,Man
50,874520,DepthScenes,duration_manipulation_targetAtFixation,jsons/VE125_randls_62_rotated.json,http://54.235.29.9/FacialAge/BNav_EC2/DepthDuration/v2_depth_duration_MTurk/v2_DepthDuration_HTML.html#47,47,1364,768,1364,768,8-21-2022,12-24-5,51,depth_duration_stimuli/002600_2014-06-24_14-27-04_094959634447_rgbf000074-resize_2/002600_2014-06-24_14-27-04_094959634447_rgbf000074-resize_2-target.png,125,2.7575,2.0,4239,108,meters,jsons/VE125_randls_62_rotated.json,2121358,2459012,32,Man
51,874520,DepthScenes,duration_manipulation_targetAtFixation,jsons/VE125_randls_62_rotated.json,http://54.235.29.9/FacialAge/BNav_EC2/DepthDuration/v2_depth_duration_MTurk/v2_DepthDuration_HTML.html#47,47,1364,768,1364,768,8-21-2022,12-24-5,52,depth_duration_stimuli/000866_2014-06-09_20-45-42_260595134347_rgbf000139-resize_1/000866_2014-06-09_20-45-42_260595134347_rgbf000139-resize_1-target.png,125,3.2155,5.5,8006,125,meters,jsons/VE125_randls_62_rotated.json,2121358,2459012,32,Man
52,874520,DepthScenes,duration_manipulation_targetAtFixation,jsons/VE125_randls_62_rotated.json,http://54.235.29.9/FacialAge/BNav_EC2/DepthDuration/v2_depth_duration_MTurk/v2_DepthDuration_HTML.html#47,47,1364,768,1364,768,8-21-2022,12-24-5,53,depth_duration_stimuli/002989_2014-06-15_12-25-03_094959634447_rgbf000150-resize_3/002989_2014-06-15_12-25-03_094959634447_rgbf000150-resize_3-target.png,125,4.1975,0.0,12737,120,meters,jsons/VE125_randls_62_rotated.json,2121358,2459012,32,Man
53,874520,DepthScenes,duration_manipulation_targetAtFixation,jsons/VE125_randls_62_rotated.json,http://54.235.29.9/FacialAge/BNav_EC2/DepthDuration/v2_depth_duration_MTurk/v2_DepthDuration_HTML.html#47,47,1364,768,1364,768,8-21-2022,12-24-5,54,depth_duration_stimuli/001571_2014-06-20_17-21-32_260595134347_rgbf000089-resize_1/001571_2014-06-20_17-21-32_260595134347_rgbf000089-resize_1-target.png,125,1.86,3.0,6218,137,meters,jsons/VE125_randls_62_rotated.json,2121358,2459012,32,Man
54,874520,DepthScenes,duration_manipulation_targetAtFixation,jsons/VE125_randls_62_rotated.json,http://54.235.29.9/FacialAge/BNav_EC2/DepthDuration/v2_depth_duration_MTurk/v2_DepthDuration_HTML.html#47,47,1364,768,1364,768,8-21-2022,12-24-5,55,depth_duration_stimuli/002272_2014-06-28_18-53-56_260595134347_rgbf000067-resize_2/002272_2014-06-28_18-53-56_260595134347_rgbf000067-resize_2-target.png,125,1.138,5.0,10868,125,meters,jsons/VE125_randls_62_rotated.json,2121358,2459012,32,Man
55,874520,DepthScenes,duration_manipulation_targetAtFixation,jsons/VE125_randls_62_rotated.json,http://54.235.29.9/FacialAge/BNav_EC2/DepthDuration/v2_depth_duration_MTurk/v2_DepthDuration_HTML.html#47,47,1364,768,1364,768,8-21-2022,12-24-5,56,depth_duration_stimuli/000677_2014-06-08_23-10-32_260595134347_rgbf000158-resize_6/000677_2014-06-08_23-10-32_260595134347_rgbf000158-resize_6-target.png,125,3.556,3.0,4407,124,meters,jsons/VE125_randls_62_rotated.json,2121358,2459012,32,Man
56,874520,DepthScenes,duration_manipulation_targetAtFixation,jsons/VE125_randls_62_rotated.json,http://54.235.29.9/FacialAge/BNav_EC2/DepthDuration/v2_depth_duration_MTurk/v2_DepthDuration_HTML.html#47,47,1364,768,1364,768,8-21-2022,12-24-5,57,depth_duration_stimuli/001029_2014-06-08_13-17-57_260595134347_rgbf000065-resize_1/001029_2014-06-08_13-17-57_260595134347_rgbf000065-resize_1-target.png,125,3.0835,4.0,6798,125,meters,jsons/VE125_randls_62_rotated.json,2121358,2459012,32,Man
57,874520,DepthScenes,duration_manipulation_targetAtFixation,jsons/VE125_randls_62_rotated.json,http://54.235.29.9/FacialAge/BNav_EC2/DepthDuration/v2_depth_duration_MTurk/v2_DepthDuration_HTML.html#47,47,1364,768,1364,768,8-21-2022,12-24-5,58,depth_duration_stimuli/002199_2014-06-28_18-33-56_260595134347_rgbf000074-resize_0/002199_2014-06-28_18-33-56_260595134347_rgbf000074-resize_0-target.png,125,1.996,3.0,5179,124,meters,jsons/VE125_randls_62_rotated.json,2121358,2459012,32,Man
58,874520,DepthScenes,duration_manipulation_targetAtFixation,jsons/VE125_randls_62_rotated.json,http://54.235.29.9/FacialAge/BNav_EC2/DepthDuration/v2_depth_duration_MTurk/v2_DepthDuration_HTML.html#47,47,1364,768,1364,768,8-21-2022,12-24-5,59,depth_duration_stimuli/001056_2014-06-08_18-46-44_260595134347_rgbf000068-resize_0/001056_2014-06-08_18-46-44_260595134347_rgbf000068-resize_0-target.png,125,2.6625,4.0,6373,125,meters,jsons/VE125_randls_62_rotated.json,2121358,2459012,32,Man
59,874520,DepthScenes,duration_manipulation_targetAtFixation,jsons/VE125_randls_62_rotated.json,http://54.235.29.9/FacialAge/BNav_EC2/DepthDuration/v2_depth_duration_MTurk/v2_DepthDuration_HTML.html#47,47,1364,768,1364,768,8-21-2022,12-24-5,60,depth_duration_stimuli/002995_2014-06-15_12-31-26_094959634447_rgbf000150-resize_1/002995_2014-06-15_12-31-26_094959634447_rgbf000150-resize_1-target.png,125,3.8360000000000003,4.0,6076,122,meters,jsons/VE125_randls_62_rotated.json,2121358,2459012,32,Man
60,874520,DepthScenes,duration_manipulation_targetAtFixation,jsons/VE125_randls_62_rotated.json,http://54.235.29.9/FacialAge/BNav_EC2/DepthDuration/v2_depth_duration_MTurk/v2_DepthDuration_HTML.html#47,47,1364,768,1364,768,8-21-2022,12-24-5,61,depth_duration_stimuli/002748_2014-06-22_19-07-22_094959634447_rgbf000078-resize_1/002748_2014-06-22_19-07-22_094959634447_rgbf000078-resize_1-target.png,125,4.6705,5.0,4255,123,meters,jsons/VE125_randls_62_rotated.json,2121358,2459012,32,Man
61,874520,DepthScenes,duration_manipulation_targetAtFixation,jsons/VE125_randls_62_rotated.json,http://54.235.29.9/FacialAge/BNav_EC2/DepthDuration/v2_depth_duration_MTurk/v2_DepthDuration_HTML.html#47,47,1364,768,1364,768,8-21-2022,12-24-5,62,depth_duration_stimuli/002637_2014-06-24_14-51-13_094959634447_rgbf000066-resize_4/002637_2014-06-24_14-51-13_094959634447_rgbf000066-resize_4-target.png,125,1.9955,5.0,5744,125,meters,jsons/VE125_randls_62_rotated.json,2121358,2459012,32,Man
62,874520,DepthScenes,duration_manipulation_targetAtFixation,jsons/VE125_randls_62_rotated.json,http://54.235.29.9/FacialAge/BNav_EC2/DepthDuration/v2_depth_duration_MTurk/v2_DepthDuration_HTML.html#47,47,1364,768,1364,768,8-21-2022,12-24-5,63,depth_duration_stimuli/003534_2014-05-22_15-06-10_094959634447_rgbf000102-resize_4/003534_2014-05-22_15-06-10_094959634447_rgbf000102-resize_4-target.png,125,1.426,5.0,5310,139,meters,jsons/VE125_randls_62_rotated.json,2121358,2459012,32,Man
63,874520,DepthScenes,duration_manipulation_targetAtFixation,jsons/VE125_randls_62_rotated.json,http://54.235.29.9/FacialAge/BNav_EC2/DepthDuration/v2_depth_duration_MTurk/v2_DepthDuration_HTML.html#47,47,1364,768,1364,768,8-21-2022,12-24-5,64,depth_duration_stimuli/002414_2014-06-28_20-24-58_260595134347_rgbf000067-resize_4/002414_2014-06-28_20-24-58_260595134347_rgbf000067-resize_4-target.png,125,4.363,4.0,6619,141,meters,jsons/VE125_randls_62_rotated.json,2121358,2459012,32,Man
64,874520,DepthScenes,duration_manipulation_targetAtFixation,jsons/VE125_randls_62_rotated.json,http://54.235.29.9/FacialAge/BNav_EC2/DepthDuration/v2_depth_duration_MTurk/v2_DepthDuration_HTML.html#47,47,1364,768,1364,768,8-21-2022,12-24-5,65,depth_duration_stimuli/000773_2014-06-08_22-24-54_260595134347_rgbf000093-resize_1/000773_2014-06-08_22-24-54_260595134347_rgbf000093-resize_1-target.png,125,4.973,4.0,5261,124,meters,jsons/VE125_randls_62_rotated.json,2121358,2459012,32,Man
65,874520,DepthScenes,duration_manipulation_targetAtFixation,jsons/VE125_randls_62_rotated.json,http://54.235.29.9/FacialAge/BNav_EC2/DepthDuration/v2_depth_duration_MTurk/v2_DepthDuration_HTML.html#47,47,1364,768,1364,768,8-21-2022,12-24-5,66,depth_duration_stimuli/001540_2014-06-20_17-01-05_260595134347_rgbf000086-resize_2/001540_2014-06-20_17-01-05_260595134347_rgbf000086-resize-original.jpg,125,1.459,0.0,8511,123,meters,jsons/VE125_randls_62_rotated.json,2121358,2459012,32,Man
66,874520,DepthScenes,duration_manipulation_targetAtFixation,jsons/VE125_randls_62_rotated.json,http://54.235.29.9/FacialAge/BNav_EC2/DepthDuration/v2_depth_duration_MTurk/v2_DepthDuration_HTML.html#47,47,1364,768,1364,768,8-21-2022,12-24-5,67,depth_duration_stimuli/000549_2014-06-08_22-10-24_260595134347_rgbf000247-resize_3/000549_2014-06-08_22-10-24_260595134347_rgbf000247-resize_3-target.png,125,1.841,4.0,6907,124,meters,jsons/VE125_randls_62_rotated.json,2121358,2459012,32,Man
67,874520,DepthScenes,duration_manipulation_targetAtFixation,jsons/VE125_randls_62_rotated.json,http://54.235.29.9/FacialAge/BNav_EC2/DepthDuration/v2_depth_duration_MTurk/v2_DepthDuration_HTML.html#47,47,1364,768,1364,768,8-21-2022,12-24-5,68,depth_duration_stimuli/001055_2014-06-08_18-45-35_260595134347_rgbf000111-resize_4/001055_2014-06-08_18-45-35_260595134347_rgbf000111-resize_4-target.png,125,2.4290000000000003,0.0,4620,139,meters,jsons/VE125_randls_62_rotated.json,2121358,2459012,32,Man
68,874520,DepthScenes,duration_manipulation_targetAtFixation,jsons/VE125_randls_62_rotated.json,http://54.235.29.9/FacialAge/BNav_EC2/DepthDuration/v2_depth_duration_MTurk/v2_DepthDuration_HTML.html#47,47,1364,768,1364,768,8-21-2022,12-24-5,69,depth_duration_stimuli/000927_2014-06-09_16-32-30_260595134347_rgbf000123-resize_3/000927_2014-06-09_16-32-30_260595134347_rgbf000123-resize_3-target.png,125,2.6785,6.0,7655,90,meters,jsons/VE125_randls_62_rotated.json,2121358,2459012,32,Man
69,874520,DepthScenes,duration_manipulation_targetAtFixation,jsons/VE125_randls_62_rotated.json,http://54.235.29.9/FacialAge/BNav_EC2/DepthDuration/v2_depth_duration_MTurk/v2_DepthDuration_HTML.html#47,47,1364,768,1364,768,8-21-2022,12-24-5,70,depth_duration_stimuli/001110_2014-06-15_17-25-28_260595134347_rgbf000150-resize_1/001110_2014-06-15_17-25-28_260595134347_rgbf000150-resize_1-target.png,125,1.7115,5.0,5734,124,meters,jsons/VE125_randls_62_rotated.json,2121358,2459012,32,Man
70,874520,DepthScenes,duration_manipulation_targetAtFixation,jsons/VE125_randls_62_rotated.json,http://54.235.29.9/FacialAge/BNav_EC2/DepthDuration/v2_depth_duration_MTurk/v2_DepthDuration_HTML.html#47,47,1364,768,1364,768,8-21-2022,12-24-5,71,depth_duration_stimuli/000483_2014-06-09_20-41-45_260595134347_rgbf000116-resize_4/000483_2014-06-09_20-41-45_260595134347_rgbf000116-resize_4-target.png,125,1.337,5.0,6128,139,meters,jsons/VE125_randls_62_rotated.json,2121358,2459012,32,Man
71,874520,DepthScenes,duration_manipulation_targetAtFixation,jsons/VE125_randls_62_rotated.json,http://54.235.29.9/FacialAge/BNav_EC2/DepthDuration/v2_depth_duration_MTurk/v2_DepthDuration_HTML.html#47,47,1364,768,1364,768,8-21-2022,12-24-5,72,depth_duration_stimuli/000469_2014-06-09_19-42-10_260595134347_rgbf000081-resize_1/000469_2014-06-09_19-42-10_260595134347_rgbf000081-resize_1-target.png,125,1.652,2.0,4467,125,meters,jsons/VE125_randls_62_rotated.json,2121358,2459012,32,Man
72,874520,DepthScenes,duration_manipulation_targetAtFixation,jsons/VE125_randls_62_rotated.json,http://54.235.29.9/FacialAge/BNav_EC2/DepthDuration/v2_depth_duration_MTurk/v2_DepthDuration_HTML.html#47,47,1364,768,1364,768,8-21-2022,12-24-5,73,depth_duration_stimuli/000749_2014-06-08_21-55-06_260595134347_rgbf000070-resize_2/000749_2014-06-08_21-55-06_260595134347_rgbf000070-resize_2-target.png,125,2.331,5.0,5280,122,meters,jsons/VE125_randls_62_rotated.json,2121358,2459012,32,Man
73,874520,DepthScenes,duration_manipulation_targetAtFixation,jsons/VE125_randls_62_rotated.json,http://54.235.29.9/FacialAge/BNav_EC2/DepthDuration/v2_depth_duration_MTurk/v2_DepthDuration_HTML.html#47,47,1364,768,1364,768,8-21-2022,12-24-5,74,depth_duration_stimuli/002788_2014-06-22_19-36-03_094959634447_rgbf000088-resize_2/002788_2014-06-22_19-36-03_094959634447_rgbf000088-resize_2-target.png,125,1.6465,7.0,4846,123,meters,jsons/VE125_randls_62_rotated.json,2121358,2459012,32,Man
74,874520,DepthScenes,duration_manipulation_targetAtFixation,jsons/VE125_randls_62_rotated.json,http://54.235.29.9/FacialAge/BNav_EC2/DepthDuration/v2_depth_duration_MTurk/v2_DepthDuration_HTML.html#47,47,1364,768,1364,768,8-21-2022,12-24-5,75,depth_duration_stimuli/001584_2014-06-20_11-07-43_260595134347_rgbf000002-resize_1/001584_2014-06-20_11-07-43_260595134347_rgbf000002-resize_1-target.png,125,3.53,0.0,5779,124,meters,jsons/VE125_randls_62_rotated.json,2121358,2459012,32,Man
75,874520,DepthScenes,duration_manipulation_targetAtFixation,jsons/VE125_randls_62_rotated.json,http://54.235.29.9/FacialAge/BNav_EC2/DepthDuration/v2_depth_duration_MTurk/v2_DepthDuration_HTML.html#47,47,1364,768,1364,768,8-21-2022,12-24-5,76,depth_duration_stimuli/003621_2014-05-23_18-06-08_094959634447_rgbf000101-resize_1/003621_2014-05-23_18-06-08_094959634447_rgbf000101-resize_1-target.png,125,3.9835,5.0,9107,124,meters,jsons/VE125_randls_62_rotated.json,2121358,2459012,32,Man
76,874520,DepthScenes,duration_manipulation_targetAtFixation,jsons/VE125_randls_62_rotated.json,http://54.235.29.9/FacialAge/BNav_EC2/DepthDuration/v2_depth_duration_MTurk/v2_DepthDuration_HTML.html#47,47,1364,768,1364,768,8-21-2022,12-24-5,77,depth_duration_stimuli/000109_2014-05-14_23-41-52_260595134347_rgbf000035-resize_9/000109_2014-05-14_23-41-52_260595134347_rgbf000035-resize_9-target.png,125,1.3545,3.0,5529,123,meters,jsons/VE125_randls_62_rotated.json,2121358,2459012,32,Man
77,874520,DepthScenes,duration_manipulation_targetAtFixation,jsons/VE125_randls_62_rotated.json,http://54.235.29.9/FacialAge/BNav_EC2/DepthDuration/v2_depth_duration_MTurk/v2_DepthDuration_HTML.html#47,47,1364,768,1364,768,8-21-2022,12-24-5,78,depth_duration_stimuli/000470_2014-06-09_19-42-40_260595134347_rgbf000094-resize_1/000470_2014-06-09_19-42-40_260595134347_rgbf000094-resize_1-target.png,125,1.831,0.0,3793,123,meters,jsons/VE125_randls_62_rotated.json,2121358,2459012,32,Man
78,874520,DepthScenes,duration_manipulation_targetAtFixation,jsons/VE125_randls_62_rotated.json,http://54.235.29.9/FacialAge/BNav_EC2/DepthDuration/v2_depth_duration_MTurk/v2_DepthDuration_HTML.html#47,47,1364,768,1364,768,8-21-2022,12-24-5,79,depth_duration_stimuli/003587_2014-05-23_16-48-02_094959634447_rgbf002384-resize_2/003587_2014-05-23_16-48-02_094959634447_rgbf002384-resize_2-target.png,125,1.357,3.0,5694,123,meters,jsons/VE125_randls_62_rotated.json,2121358,2459012,32,Man
79,874520,DepthScenes,duration_manipulation_targetAtFixation,jsons/VE125_randls_62_rotated.json,http://54.235.29.9/FacialAge/BNav_EC2/DepthDuration/v2_depth_duration_MTurk/v2_DepthDuration_HTML.html#47,47,1364,768,1364,768,8-21-2022,12-24-5,80,depth_duration_stimuli/001167_2014-06-17_15-38-07_260595134347_rgbf000108-resize_0/001167_2014-06-17_15-38-07_260595134347_rgbf000108-resize_0-target.png,125,1.8505,5.0,4609,124,meters,jsons/VE125_randls_62_rotated.json,2121358,2459012,32,Man
80,874520,DepthScenes,duration_manipulation_targetAtFixation,jsons/VE125_randls_62_rotated.json,http://54.235.29.9/FacialAge/BNav_EC2/DepthDuration/v2_depth_duration_MTurk/v2_DepthDuration_HTML.html#47,47,1364,768,1364,768,8-21-2022,12-24-5,81,depth_duration_stimuli/002639_2014-06-24_14-51-37_094959634447_rgbf000074-resize_4/002639_2014-06-24_14-51-37_094959634447_rgbf000074-resize_4-target.png,125,4.0375,5.0,6407,123,meters,jsons/VE125_randls_62_rotated.json,2121358,2459012,32,Man
81,874520,DepthScenes,duration_manipulation_targetAtFixation,jsons/VE125_randls_62_rotated.json,http://54.235.29.9/FacialAge/BNav_EC2/DepthDuration/v2_depth_duration_MTurk/v2_DepthDuration_HTML.html#47,47,1364,768,1364,768,8-21-2022,12-24-5,82,depth_duration_stimuli/003292_2014-05-14_21-53-49_094959634447_rgbf000100-resize_2/003292_2014-05-14_21-53-49_094959634447_rgbf000100-resize_2-target.png,125,3.4815,3.0,4945,125,meters,jsons/VE125_randls_62_rotated.json,2121358,2459012,32,Man
82,874520,DepthScenes,duration_manipulation_targetAtFixation,jsons/VE125_randls_62_rotated.json,http://54.235.29.9/FacialAge/BNav_EC2/DepthDuration/v2_depth_duration_MTurk/v2_DepthDuration_HTML.html#47,47,1364,768,1364,768,8-21-2022,12-24-5,83,depth_duration_stimuli/003079_2014-06-15_15-18-20_094959634447_rgbf000152-resize_8/003079_2014-06-15_15-18-20_094959634447_rgbf000152-resize_8-target.png,125,2.8775,8.0,5648,93,meters,jsons/VE125_randls_62_rotated.json,2121358,2459012,32,Man
83,874520,DepthScenes,duration_manipulation_targetAtFixation,jsons/VE125_randls_62_rotated.json,http://54.235.29.9/FacialAge/BNav_EC2/DepthDuration/v2_depth_duration_MTurk/v2_DepthDuration_HTML.html#47,47,1364,768,1364,768,8-21-2022,12-24-5,84,depth_duration_stimuli/000506_2014-06-08_23-21-00_260595134347_rgbf000070-resize_7/000506_2014-06-08_23-21-00_260595134347_rgbf000070-resize_7-target.png,125,4.0585,5.0,3910,108,meters,jsons/VE125_randls_62_rotated.json,2121358,2459012,32,Man
84,874520,DepthScenes,duration_manipulation_targetAtFixation,jsons/VE125_randls_62_rotated.json,http://54.235.29.9/FacialAge/BNav_EC2/DepthDuration/v2_depth_duration_MTurk/v2_DepthDuration_HTML.html#47,47,1364,768,1364,768,8-21-2022,12-24-5,85,depth_duration_stimuli/001392_2014-06-19_16-07-59_260595134347_rgbf000046-resize_1/001392_2014-06-19_16-07-59_260595134347_rgbf000046-resize_1-target.png,125,4.135,6.0,4760,124,meters,jsons/VE125_randls_62_rotated.json,2121358,2459012,32,Man
85,874520,DepthScenes,duration_manipulation_targetAtFixation,jsons/VE125_randls_62_rotated.json,http://54.235.29.9/FacialAge/BNav_EC2/DepthDuration/v2_depth_duration_MTurk/v2_DepthDuration_HTML.html#47,47,1364,768,1364,768,8-21-2022,12-24-5,86,depth_duration_stimuli/001570_2014-06-20_17-21-09_260595134347_rgbf000135-resize_4/001570_2014-06-20_17-21-09_260595134347_rgbf000135-resize_4-target.png,125,4.467,0.0,3652,140,meters,jsons/VE125_randls_62_rotated.json,2121358,2459012,32,Man
86,874520,DepthScenes,duration_manipulation_targetAtFixation,jsons/VE125_randls_62_rotated.json,http://54.235.29.9/FacialAge/BNav_EC2/DepthDuration/v2_depth_duration_MTurk/v2_DepthDuration_HTML.html#47,47,1364,768,1364,768,8-21-2022,12-24-5,87,depth_duration_stimuli/002136_2014-06-25_21-18-03_260595134347_rgbf000109-resize_3/002136_2014-06-25_21-18-03_260595134347_rgbf000109-resize_3-target.png,125,1.9569999999999999,5.0,11416,125,meters,jsons/VE125_randls_62_rotated.json,2121358,2459012,32,Man
87,874520,DepthScenes,duration_manipulation_targetAtFixation,jsons/VE125_randls_62_rotated.json,http://54.235.29.9/FacialAge/BNav_EC2/DepthDuration/v2_depth_duration_MTurk/v2_DepthDuration_HTML.html#47,47,1364,768,1364,768,8-21-2022,12-24-5,88,depth_duration_stimuli/002964_2014-06-08_17-46-11_094959634447_rgbf000091-resize_4/002964_2014-06-08_17-46-11_094959634447_rgbf000091-resize_4-target.png,125,1.6909999999999998,7.0,4235,123,meters,jsons/VE125_randls_62_rotated.json,2121358,2459012,32,Man
88,874520,DepthScenes,duration_manipulation_targetAtFixation,jsons/VE125_randls_62_rotated.json,http://54.235.29.9/FacialAge/BNav_EC2/DepthDuration/v2_depth_duration_MTurk/v2_DepthDuration_HTML.html#47,47,1364,768,1364,768,8-21-2022,12-24-5,89,depth_duration_stimuli/000191_2014-05-12_17-07-38_260595134347_rgbf000199-resize_0/000191_2014-05-12_17-07-38_260595134347_rgbf000199-resize_0-target.png,125,3.7995,8.0,5181,111,meters,jsons/VE125_randls_62_rotated.json,2121358,2459012,32,Man
89,874520,DepthScenes,duration_manipulation_targetAtFixation,jsons/VE125_randls_62_rotated.json,http://54.235.29.9/FacialAge/BNav_EC2/DepthDuration/v2_depth_duration_MTurk/v2_DepthDuration_HTML.html#47,47,1364,768,1364,768,8-21-2022,12-24-5,90,depth_duration_stimuli/000493_2014-06-09_21-01-18_260595134347_rgbf000196-resize_3/000493_2014-06-09_21-01-18_260595134347_rgbf000196-resize_3-target.png,125,3.44,6.0,3177,134,meters,jsons/VE125_randls_62_rotated.json,2121358,2459012,32,Man
90,874520,DepthScenes,duration_manipulation_targetAtFixation,jsons/VE125_randls_62_rotated.json,http://54.235.29.9/FacialAge/BNav_EC2/DepthDuration/v2_depth_duration_MTurk/v2_DepthDuration_HTML.html#47,47,1364,768,1364,768,8-21-2022,12-24-5,91,depth_duration_stimuli/000943_2014-06-09_19-31-07_260595134347_rgbf000128-resize_1/000943_2014-06-09_19-31-07_260595134347_rgbf000128-resize_1-target.png,125,1.9765,8.0,4218,123,meters,jsons/VE125_randls_62_rotated.json,2121358,2459012,32,Man
91,874520,DepthScenes,duration_manipulation_targetAtFixation,jsons/VE125_randls_62_rotated.json,http://54.235.29.9/FacialAge/BNav_EC2/DepthDuration/v2_depth_duration_MTurk/v2_DepthDuration_HTML.html#47,47,1364,768,1364,768,8-21-2022,12-24-5,92,depth_duration_stimuli/003070_2014-06-15_14-58-27_094959634447_rgbf000150-resize_3/003070_2014-06-15_14-58-27_094959634447_rgbf000150-resize_3-target.png,125,2.9415,6.0,3338,124,meters,jsons/VE125_randls_62_rotated.json,2121358,2459012,32,Man
92,874520,DepthScenes,duration_manipulation_targetAtFixation,jsons/VE125_randls_62_rotated.json,http://54.235.29.9/FacialAge/BNav_EC2/DepthDuration/v2_depth_duration_MTurk/v2_DepthDuration_HTML.html#47,47,1364,768,1364,768,8-21-2022,12-24-5,93,depth_duration_stimuli/001132_2014-06-17_14-48-54_260595134347_rgbf000100-resize_2/001132_2014-06-17_14-48-54_260595134347_rgbf000100-resize_2-target.png,125,3.753,7.0,4751,119,meters,jsons/VE125_randls_62_rotated.json,2121358,2459012,32,Man
93,874520,DepthScenes,duration_manipulation_targetAtFixation,jsons/VE125_randls_62_rotated.json,http://54.235.29.9/FacialAge/BNav_EC2/DepthDuration/v2_depth_duration_MTurk/v2_DepthDuration_HTML.html#47,47,1364,768,1364,768,8-21-2022,12-24-5,94,depth_duration_stimuli/001133_2014-06-17_14-49-16_260595134347_rgbf000100-resize_0/001133_2014-06-17_14-49-16_260595134347_rgbf000100-resize_0-target.png,125,4.2115,0.0,3324,111,meters,jsons/VE125_randls_62_rotated.json,2121358,2459012,32,Man
94,874520,DepthScenes,duration_manipulation_targetAtFixation,jsons/VE125_randls_62_rotated.json,http://54.235.29.9/FacialAge/BNav_EC2/DepthDuration/v2_depth_duration_MTurk/v2_DepthDuration_HTML.html#47,47,1364,768,1364,768,8-21-2022,12-24-5,95,depth_duration_stimuli/002323_2014-06-28_20-01-54_260595134347_rgbf000051-resize_4/002323_2014-06-28_20-01-54_260595134347_rgbf000051-resize_4-target.png,125,3.7310000000000003,7.0,3939,128,meters,jsons/VE125_randls_62_rotated.json,2121358,2459012,32,Man
95,874520,DepthScenes,duration_manipulation_targetAtFixation,jsons/VE125_randls_62_rotated.json,http://54.235.29.9/FacialAge/BNav_EC2/DepthDuration/v2_depth_duration_MTurk/v2_DepthDuration_HTML.html#47,47,1364,768,1364,768,8-21-2022,12-24-5,96,depth_duration_stimuli/000917_2014-06-09_22-45-29_260595134347_rgbf000149-resize_3/000917_2014-06-09_22-45-29_260595134347_rgbf000149-resize_3-target.png,125,4.1865,0.0,4427,112,meters,jsons/VE125_randls_62_rotated.json,2121358,2459012,32,Man
96,874520,DepthScenes,duration_manipulation_targetAtFixation,jsons/VE125_randls_62_rotated.json,http://54.235.29.9/FacialAge/BNav_EC2/DepthDuration/v2_depth_duration_MTurk/v2_DepthDuration_HTML.html#47,47,1364,768,1364,768,8-21-2022,12-24-5,97,depth_duration_stimuli/002209_2014-06-28_18-36-10_260595134347_rgbf000051-resize_1/002209_2014-06-28_18-36-10_260595134347_rgbf000051-resize_1-target.png,125,2.057,6.0,3946,124,meters,jsons/VE125_randls_62_rotated.json,2121358,2459012,32,Man
97,874520,DepthScenes,duration_manipulation_targetAtFixation,jsons/VE125_randls_62_rotated.json,http://54.235.29.9/FacialAge/BNav_EC2/DepthDuration/v2_depth_duration_MTurk/v2_DepthDuration_HTML.html#47,47,1364,768,1364,768,8-21-2022,12-24-5,98,depth_duration_stimuli/002763_2014-06-22_19-13-10_094959634447_rgbf000075-resize_4/002763_2014-06-22_19-13-10_094959634447_rgbf000075-resize_4-target.png,125,1.68375,6.0,14822,124,meters,jsons/VE125_randls_62_rotated.json,2121358,2459012,32,Man
98,874520,DepthScenes,duration_manipulation_targetAtFixation,jsons/VE125_randls_62_rotated.json,http://54.235.29.9/FacialAge/BNav_EC2/DepthDuration/v2_depth_duration_MTurk/v2_DepthDuration_HTML.html#47,47,1364,768,1364,768,8-21-2022,12-24-5,99,depth_duration_stimuli/001222_2014-06-17_16-24-06_260595134347_rgbf000073-resize_0/001222_2014-06-17_16-24-06_260595134347_rgbf000073-resize-original.jpg,125,1.4385,0.0,5479,120,meters,jsons/VE125_randls_62_rotated.json,2121358,2459012,32,Man
99,874520,DepthScenes,duration_manipulation_targetAtFixation,jsons/VE125_randls_62_rotated.json,http://54.235.29.9/FacialAge/BNav_EC2/DepthDuration/v2_depth_duration_MTurk/v2_DepthDuration_HTML.html#47,47,1364,768,1364,768,8-21-2022,12-24-5,100,depth_duration_stimuli/000137_2014-05-20_17-04-49_260595134347_rgbf000120-resize_1/000137_2014-05-20_17-04-49_260595134347_rgbf000120-resize_1-target.png,125,3.786,8.0,3965,119,meters,jsons/VE125_randls_62_rotated.json,2121358,2459012,32,Man
100,874520,DepthScenes,duration_manipulation_targetAtFixation,jsons/VE125_randls_62_rotated.json,http://54.235.29.9/FacialAge/BNav_EC2/DepthDuration/v2_depth_duration_MTurk/v2_DepthDuration_HTML.html#47,47,1364,768,1364,768,8-21-2022,12-24-5,101,depth_duration_stimuli/000736_2014-06-08_18-24-15_260595134347_rgbf000206-resize_3/000736_2014-06-08_18-24-15_260595134347_rgbf000206-resize_3-target.png,125,3.515,0.0,3526,123,meters,jsons/VE125_randls_62_rotated.json,2121358,2459012,32,Man
101,874520,DepthScenes,duration_manipulation_targetAtFixation,jsons/VE125_randls_62_rotated.json,http://54.235.29.9/FacialAge/BNav_EC2/DepthDuration/v2_depth_duration_MTurk/v2_DepthDuration_HTML.html#47,47,1364,768,1364,768,8-21-2022,12-24-5,102,depth_duration_stimuli/002678_2014-06-13_16-15-32_094959634447_rgbf000151-resize_6/002678_2014-06-13_16-15-32_094959634447_rgbf000151-resize_6-target.png,125,2.1830000000000003,8.0,4471,140,meters,jsons/VE125_randls_62_rotated.json,2121358,2459012,32,Man
102,874520,DepthScenes,duration_manipulation_targetAtFixation,jsons/VE125_randls_62_rotated.json,http://54.235.29.9/FacialAge/BNav_EC2/DepthDuration/v2_depth_duration_MTurk/v2_DepthDuration_HTML.html#47,47,1364,768,1364,768,8-21-2022,12-24-5,103,depth_duration_stimuli/000368_2014-06-09_15-53-01_260595134347_rgbf000155-resize_2/000368_2014-06-09_15-53-01_260595134347_rgbf000155-resize_2-target.png,125,2.4859999999999998,5.0,5624,124,meters,jsons/VE125_randls_62_rotated.json,2121358,2459012,32,Man
103,874520,DepthScenes,duration_manipulation_targetAtFixation,jsons/VE125_randls_62_rotated.json,http://54.235.29.9/FacialAge/BNav_EC2/DepthDuration/v2_depth_duration_MTurk/v2_DepthDuration_HTML.html#47,47,1364,768,1364,768,8-21-2022,12-24-5,104,depth_duration_stimuli/003010_2014-06-15_12-54-35_094959634447_rgbf000112-resize_0/003010_2014-06-15_12-54-35_094959634447_rgbf000112-resize_0-target.png,125,3.1185,0.0,5314,125,meters,jsons/VE125_randls_62_rotated.json,2121358,2459012,32,Man
104,874520,DepthScenes,duration_manipulation_targetAtFixation,jsons/VE125_randls_62_rotated.json,http://54.235.29.9/FacialAge/BNav_EC2/DepthDuration/v2_depth_duration_MTurk/v2_DepthDuration_HTML.html#47,47,1364,768,1364,768,8-21-2022,12-24-5,105,depth_duration_stimuli/001810_2014-06-26_20-51-35_260595134347_rgbf000040-resize_3/001810_2014-06-26_20-51-35_260595134347_rgbf000040-resize_3-target.png,125,2.2525,4.0,8899,124,meters,jsons/VE125_randls_62_rotated.json,2121358,2459012,32,Man
105,874520,DepthScenes,duration_manipulation_targetAtFixation,jsons/VE125_randls_62_rotated.json,http://54.235.29.9/FacialAge/BNav_EC2/DepthDuration/v2_depth_duration_MTurk/v2_DepthDuration_HTML.html#47,47,1364,768,1364,768,8-21-2022,12-24-5,106,depth_duration_stimuli/000780_2014-06-08_22-28-29_260595134347_rgbf000126-resize_1/000780_2014-06-08_22-28-29_260595134347_rgbf000126-resize_1-target.png,125,3.3825,3.0,5039,123,meters,jsons/VE125_randls_62_rotated.json,2121358,2459012,32,Man
106,874520,DepthScenes,duration_manipulation_targetAtFixation,jsons/VE125_randls_62_rotated.json,http://54.235.29.9/FacialAge/BNav_EC2/DepthDuration/v2_depth_duration_MTurk/v2_DepthDuration_HTML.html#47,47,1364,768,1364,768,8-21-2022,12-24-5,107,depth_duration_stimuli/002445_2014-06-28_20-32-16_260595134347_rgbf000029-resize_4/002445_2014-06-28_20-32-16_260595134347_rgbf000029-resize_4-target.png,125,2.5315,5.0,3552,125,meters,jsons/VE125_randls_62_rotated.json,2121358,2459012,32,Man
107,874520,DepthScenes,duration_manipulation_targetAtFixation,jsons/VE125_randls_62_rotated.json,http://54.235.29.9/FacialAge/BNav_EC2/DepthDuration/v2_depth_duration_MTurk/v2_DepthDuration_HTML.html#47,47,1364,768,1364,768,8-21-2022,12-24-5,108,depth_duration_stimuli/003338_2014-05-20_11-01-23_094959634447_rgbf000051-resize_6/003338_2014-05-20_11-01-23_094959634447_rgbf000051-resize_6-target.png,125,1.693,3.0,5506,124,meters,jsons/VE125_randls_62_rotated.json,2121358,2459012,32,Man
108,874520,DepthScenes,duration_manipulation_targetAtFixation,jsons/VE125_randls_62_rotated.json,http://54.235.29.9/FacialAge/BNav_EC2/DepthDuration/v2_depth_duration_MTurk/v2_DepthDuration_HTML.html#47,47,1364,768,1364,768,8-21-2022,12-24-5,109,depth_duration_stimuli/002509_2014-06-24_13-19-22_094959634447_rgbf000077-resize_0/002509_2014-06-24_13-19-22_094959634447_rgbf000077-resize_0-target.png,125,1.3065,7.0,4332,139,meters,jsons/VE125_randls_62_rotated.json,2121358,2459012,32,Man
109,874520,DepthScenes,duration_manipulation_targetAtFixation,jsons/VE125_randls_62_rotated.json,http://54.235.29.9/FacialAge/BNav_EC2/DepthDuration/v2_depth_duration_MTurk/v2_DepthDuration_HTML.html#47,47,1364,768,1364,768,8-21-2022,12-24-5,110,depth_duration_stimuli/001136_2014-06-17_15-19-41_260595134347_rgbf000076-resize_3/001136_2014-06-17_15-19-41_260595134347_rgbf000076-resize_3-target.png,125,1.8655,6.0,5713,125,meters,jsons/VE125_randls_62_rotated.json,2121358,2459012,32,Man
110,874520,DepthScenes,duration_manipulation_targetAtFixation,jsons/VE125_randls_62_rotated.json,http://54.235.29.9/FacialAge/BNav_EC2/DepthDuration/v2_depth_duration_MTurk/v2_DepthDuration_HTML.html#47,47,1364,768,1364,768,8-21-2022,12-24-5,111,depth_duration_stimuli/001164_2014-06-17_15-35-46_260595134347_rgbf000085-resize_3/001164_2014-06-17_15-35-46_260595134347_rgbf000085-resize_3-target.png,125,2.354,6.0,4778,124,meters,jsons/VE125_randls_62_rotated.json,2121358,2459012,32,Man
111,874520,DepthScenes,duration_manipulation_targetAtFixation,jsons/VE125_randls_62_rotated.json,http://54.235.29.9/FacialAge/BNav_EC2/DepthDuration/v2_depth_duration_MTurk/v2_DepthDuration_HTML.html#47,47,1364,768,1364,768,8-21-2022,12-24-5,112,depth_duration_stimuli/000502_2014-06-08_23-02-32_260595134347_rgbf000063-resize_4/000502_2014-06-08_23-02-32_260595134347_rgbf000063-resize_4-target.png,125,2.431,3.0,6097,125,meters,jsons/VE125_randls_62_rotated.json,2121358,2459012,32,Man
112,874520,DepthScenes,duration_manipulation_targetAtFixation,jsons/VE125_randls_62_rotated.json,http://54.235.29.9/FacialAge/BNav_EC2/DepthDuration/v2_depth_duration_MTurk/v2_DepthDuration_HTML.html#47,47,1364,768,1364,768,8-21-2022,12-24-5,113,depth_duration_stimuli/001199_2014-06-17_16-03-48_260595134347_rgbf000077-resize_0/001199_2014-06-17_16-03-48_260595134347_rgbf000077-resize_0-target.png,125,3.4375,3.0,3334,123,meters,jsons/VE125_randls_62_rotated.json,2121358,2459012,32,Man
113,874520,DepthScenes,duration_manipulation_targetAtFixation,jsons/VE125_randls_62_rotated.json,http://54.235.29.9/FacialAge/BNav_EC2/DepthDuration/v2_depth_duration_MTurk/v2_DepthDuration_HTML.html#47,47,1364,768,1364,768,8-21-2022,12-24-5,114,depth_duration_stimuli/002758_2014-06-22_19-11-20_094959634447_rgbf000128-resize_1/002758_2014-06-22_19-11-20_094959634447_rgbf000128-resize_1-target.png,125,2.555,4.0,11359,125,meters,jsons/VE125_randls_62_rotated.json,2121358,2459012,32,Man
114,874520,DepthScenes,duration_manipulation_targetAtFixation,jsons/VE125_randls_62_rotated.json,http://54.235.29.9/FacialAge/BNav_EC2/DepthDuration/v2_depth_duration_MTurk/v2_DepthDuration_HTML.html#47,47,1364,768,1364,768,8-21-2022,12-24-5,115,depth_duration_stimuli/002630_2014-06-24_14-47-50_094959634447_rgbf000055-resize_1/002630_2014-06-24_14-47-50_094959634447_rgbf000055-resize_1-target.png,125,3.0095,5.0,3657,100,meters,jsons/VE125_randls_62_rotated.json,2121358,2459012,32,Man
115,874520,DepthScenes,duration_manipulation_targetAtFixation,jsons/VE125_randls_62_rotated.json,http://54.235.29.9/FacialAge/BNav_EC2/DepthDuration/v2_depth_duration_MTurk/v2_DepthDuration_HTML.html#47,47,1364,768,1364,768,8-21-2022,12-24-5,116,depth_duration_stimuli/002344_2014-06-28_20-06-29_260595134347_rgbf000030-resize_1/002344_2014-06-28_20-06-29_260595134347_rgbf000030-resize_1-target.png,125,1.5795,3.0,17127,124,meters,jsons/VE125_randls_62_rotated.json,2121358,2459012,32,Man
116,874520,DepthScenes,duration_manipulation_targetAtFixation,jsons/VE125_randls_62_rotated.json,http://54.235.29.9/FacialAge/BNav_EC2/DepthDuration/v2_depth_duration_MTurk/v2_DepthDuration_HTML.html#47,47,1364,768,1364,768,8-21-2022,12-24-5,117,depth_duration_stimuli/002725_2014-06-22_11-47-51_094959634447_rgbf000070-resize_1/002725_2014-06-22_11-47-51_094959634447_rgbf000070-resize_1-target.png,125,2.195,5.0,14552,124,meters,jsons/VE125_randls_62_rotated.json,2121358,2459012,32,Man
117,874520,DepthScenes,duration_manipulation_targetAtFixation,jsons/VE125_randls_62_rotated.json,http://54.235.29.9/FacialAge/BNav_EC2/DepthDuration/v2_depth_duration_MTurk/v2_DepthDuration_HTML.html#47,47,1364,768,1364,768,8-21-2022,12-24-5,118,depth_duration_stimuli/001447_2014-06-19_17-00-32_260595134347_rgbf000082-resize_5/001447_2014-06-19_17-00-32_260595134347_rgbf000082-resize_5-target.png,125,4.13775,3.0,9396,114,meters,jsons/VE125_randls_62_rotated.json,2121358,2459012,32,Man
118,874520,DepthScenes,duration_manipulation_targetAtFixation,jsons/VE125_randls_62_rotated.json,http://54.235.29.9/FacialAge/BNav_EC2/DepthDuration/v2_depth_duration_MTurk/v2_DepthDuration_HTML.html#47,47,1364,768,1364,768,8-21-2022,12-24-5,119,depth_duration_stimuli/000447_2014-06-08_16-15-46_260595134347_rgbf000130-resize_1/000447_2014-06-08_16-15-46_260595134347_rgbf000130-resize_1-target.png,125,4.479,0.0,3558,125,meters,jsons/VE125_randls_62_rotated.json,2121358,2459012,32,Man
119,874520,DepthScenes,duration_manipulation_targetAtFixation,jsons/VE125_randls_62_rotated.json,http://54.235.29.9/FacialAge/BNav_EC2/DepthDuration/v2_depth_duration_MTurk/v2_DepthDuration_HTML.html#47,47,1364,768,1364,768,8-21-2022,12-24-5,120,depth_duration_stimuli/000787_2014-06-08_22-33-53_260595134347_rgbf000175-resize_1/000787_2014-06-08_22-33-53_260595134347_rgbf000175-resize-original.jpg,125,4.784,0.0,5395,122,meters,jsons/VE125_randls_62_rotated.json,2121358,2459012,32,Man
120,874520,DepthScenes,duration_manipulation_targetAtFixation,jsons/VE125_randls_62_rotated.json,http://54.235.29.9/FacialAge/BNav_EC2/DepthDuration/v2_depth_duration_MTurk/v2_DepthDuration_HTML.html#47,47,1364,768,1364,768,8-21-2022,12-24-5,121,depth_duration_stimuli/001052_2014-06-08_18-24-54_260595134347_rgbf000130-resize_1/001052_2014-06-08_18-24-54_260595134347_rgbf000130-resize_1-target.png,125,4.1045,7.0,5238,115,meters,jsons/VE125_randls_62_rotated.json,2121358,2459012,32,Man
121,874520,DepthScenes,duration_manipulation_targetAtFixation,jsons/VE125_randls_62_rotated.json,http://54.235.29.9/FacialAge/BNav_EC2/DepthDuration/v2_depth_duration_MTurk/v2_DepthDuration_HTML.html#47,47,1364,768,1364,768,8-21-2022,12-24-5,122,depth_duration_stimuli/002988_2014-06-15_12-24-20_094959634447_rgbf000150-resize_1/002988_2014-06-15_12-24-20_094959634447_rgbf000150-resize_1-target.png,125,4.7669999999999995,7.0,11550,114,meters,jsons/VE125_randls_62_rotated.json,2121358,2459012,32,Man
122,874520,DepthScenes,duration_manipulation_targetAtFixation,jsons/VE125_randls_62_rotated.json,http://54.235.29.9/FacialAge/BNav_EC2/DepthDuration/v2_depth_duration_MTurk/v2_DepthDuration_HTML.html#47,47,1364,768,1364,768,8-21-2022,12-24-5,123,depth_duration_stimuli/000734_2014-06-08_17-39-11_260595134347_rgbf000128-resize_2/000734_2014-06-08_17-39-11_260595134347_rgbf000128-resize_2-target.png,125,4.098,4.0,5039,114,meters,jsons/VE125_randls_62_rotated.json,2121358,2459012,32,Man
123,874520,DepthScenes,duration_manipulation_targetAtFixation,jsons/VE125_randls_62_rotated.json,http://54.235.29.9/FacialAge/BNav_EC2/DepthDuration/v2_depth_duration_MTurk/v2_DepthDuration_HTML.html#47,47,1364,768,1364,768,8-21-2022,12-24-5,124,depth_duration_stimuli/000739_2014-06-08_18-45-58_260595134347_rgbf000068-resize_1/000739_2014-06-08_18-45-58_260595134347_rgbf000068-resize_1-target.png,125,3.534,6.0,15667,124,meters,jsons/VE125_randls_62_rotated.json,2121358,2459012,32,Man
124,874520,DepthScenes,duration_manipulation_targetAtFixation,jsons/VE125_randls_62_rotated.json,http://54.235.29.9/FacialAge/BNav_EC2/DepthDuration/v2_depth_duration_MTurk/v2_DepthDuration_HTML.html#47,47,1364,768,1364,768,8-21-2022,12-24-5,125,depth_duration_stimuli/003048_2014-06-15_13-49-43_094959634447_rgbf000150-resize_1/003048_2014-06-15_13-49-43_094959634447_rgbf000150-resize_1-target.png,125,4.0035,6.0,12587,124,meters,jsons/VE125_randls_62_rotated.json,2121358,2459012,32,Man
125,874520,DepthScenes,duration_manipulation_targetAtFixation,jsons/VE125_randls_62_rotated.json,http://54.235.29.9/FacialAge/BNav_EC2/DepthDuration/v2_depth_duration_MTurk/v2_DepthDuration_HTML.html#47,47,1364,768,1364,768,8-21-2022,12-24-5,126,depth_duration_stimuli/002043_2014-06-24_20-29-38_260595134347_rgbf000039-resize_4/002043_2014-06-24_20-29-38_260595134347_rgbf000039-resize_4-target.png,125,2.8435,7.0,11876,118,meters,jsons/VE125_randls_62_rotated.json,2121358,2459012,32,Man
126,874520,DepthScenes,duration_manipulation_targetAtFixation,jsons/VE125_randls_62_rotated.json,http://54.235.29.9/FacialAge/BNav_EC2/DepthDuration/v2_depth_duration_MTurk/v2_DepthDuration_HTML.html#47,47,1364,768,1364,768,8-21-2022,12-24-5,127,depth_duration_stimuli/001094_2014-06-15_17-36-00_260595134347_rgbf000205-resize_0/001094_2014-06-15_17-36-00_260595134347_rgbf000205-resize_0-target.png,125,4.2175,3.9,14136,125,meters,jsons/VE125_randls_62_rotated.json,2121358,2459012,32,Man
127,874520,DepthScenes,duration_manipulation_targetAtFixation,jsons/VE125_randls_62_rotated.json,http://54.235.29.9/FacialAge/BNav_EC2/DepthDuration/v2_depth_duration_MTurk/v2_DepthDuration_HTML.html#47,47,1364,768,1364,768,8-21-2022,12-24-5,128,depth_duration_stimuli/000692_2014-06-08_13-09-42_260595134347_rgbf000199-resize_2/000692_2014-06-08_13-09-42_260595134347_rgbf000199-resize_2-target.png,125,3.661,0.0,6496,123,meters,jsons/VE125_randls_62_rotated.json,2121358,2459012,32,Man
128,874520,DepthScenes,duration_manipulation_targetAtFixation,jsons/VE125_randls_62_rotated.json,http://54.235.29.9/FacialAge/BNav_EC2/DepthDuration/v2_depth_duration_MTurk/v2_DepthDuration_HTML.html#47,47,1364,768,1364,768,8-21-2022,12-24-5,129,depth_duration_stimuli/001100_2014-06-15_17-46-26_260595134347_rgbf000225-resize_2/001100_2014-06-15_17-46-26_260595134347_rgbf000225-resize_2-target.png,125,2.24,5.0,6310,123,meters,jsons/VE125_randls_62_rotated.json,2121358,2459012,32,Man
129,874520,DepthScenes,duration_manipulation_targetAtFixation,jsons/VE125_randls_62_rotated.json,http://54.235.29.9/FacialAge/BNav_EC2/DepthDuration/v2_depth_duration_MTurk/v2_DepthDuration_HTML.html#47,47,1364,768,1364,768,8-21-2022,12-24-5,130,depth_duration_stimuli/002784_2014-06-22_19-26-30_094959634447_rgbf000083-resize_3/002784_2014-06-22_19-26-30_094959634447_rgbf000083-resize_3-target.png,125,1.8046666666667,4.0,12955,124,meters,jsons/VE125_randls_62_rotated.json,2121358,2459012,32,Man
130,874520,DepthScenes,duration_manipulation_targetAtFixation,jsons/VE125_randls_62_rotated.json,http://54.235.29.9/FacialAge/BNav_EC2/DepthDuration/v2_depth_duration_MTurk/v2_DepthDuration_HTML.html#47,47,1364,768,1364,768,8-21-2022,12-24-5,131,depth_duration_stimuli/002467_2014-06-28_20-38-07_260595134347_rgbf000026-resize_2/002467_2014-06-28_20-38-07_260595134347_rgbf000026-resize_2-target.png,125,4.742,5.0,6296,123,meters,jsons/VE125_randls_62_rotated.json,2121358,2459012,32,Man
131,874520,DepthScenes,duration_manipulation_targetAtFixation,jsons/VE125_randls_62_rotated.json,http://54.235.29.9/FacialAge/BNav_EC2/DepthDuration/v2_depth_duration_MTurk/v2_DepthDuration_HTML.html#47,47,1364,768,1364,768,8-21-2022,12-24-5,132,depth_duration_stimuli/002570_2014-06-24_13-59-54_094959634447_rgbf000059-resize_0/002570_2014-06-24_13-59-54_094959634447_rgbf000059-resize_0-target.png,125,4.037,4.0,4287,124,meters,jsons/VE125_randls_62_rotated.json,2121358,2459012,32,Man
132,874520,DepthScenes,duration_manipulation_targetAtFixation,jsons/VE125_randls_62_rotated.json,http://54.235.29.9/FacialAge/BNav_EC2/DepthDuration/v2_depth_duration_MTurk/v2_DepthDuration_HTML.html#47,47,1364,768,1364,768,8-21-2022,12-24-5,133,depth_duration_stimuli/001032_2014-06-08_13-23-17_260595134347_rgbf000021-resize_3/001032_2014-06-08_13-23-17_260595134347_rgbf000021-resize_3-target.png,125,3.2725,6.0,31363,125,meters,jsons/VE125_randls_62_rotated.json,2121358,2459012,32,Man
133,874520,DepthScenes,duration_manipulation_targetAtFixation,jsons/VE125_randls_62_rotated.json,http://54.235.29.9/FacialAge/BNav_EC2/DepthDuration/v2_depth_duration_MTurk/v2_DepthDuration_HTML.html#47,47,1364,768,1364,768,8-21-2022,12-24-5,134,depth_duration_stimuli/001059_2014-06-08_21-53-27_260595134347_rgbf000061-resize_4/001059_2014-06-08_21-53-27_260595134347_rgbf000061-resize_4-target.png,125,2.4185,0.0,6710,141,meters,jsons/VE125_randls_62_rotated.json,2121358,2459012,32,Man
134,874520,DepthScenes,duration_manipulation_targetAtFixation,jsons/VE125_randls_62_rotated.json,http://54.235.29.9/FacialAge/BNav_EC2/DepthDuration/v2_depth_duration_MTurk/v2_DepthDuration_HTML.html#47,47,1364,768,1364,768,8-21-2022,12-24-5,135,depth_duration_stimuli/000375_2014-06-08_11-17-29_260595134347_rgbf000133-resize_2/000375_2014-06-08_11-17-29_260595134347_rgbf000133-resize-original.jpg,125,4.718,7.0,8251,116,meters,jsons/VE125_randls_62_rotated.json,2121358,2459012,32,Man
135,874520,DepthScenes,duration_manipulation_targetAtFixation,jsons/VE125_randls_62_rotated.json,http://54.235.29.9/FacialAge/BNav_EC2/DepthDuration/v2_depth_duration_MTurk/v2_DepthDuration_HTML.html#47,47,1364,768,1364,768,8-21-2022,12-24-5,136,depth_duration_stimuli/000635_2014-06-08_16-38-42_260595134347_rgbf000106-resize_1/000635_2014-06-08_16-38-42_260595134347_rgbf000106-resize_1-target.png,125,2.074,6.0,6303,113,meters,jsons/VE125_randls_62_rotated.json,2121358,2459012,32,Man
136,874520,DepthScenes,duration_manipulation_targetAtFixation,jsons/VE125_randls_62_rotated.json,http://54.235.29.9/FacialAge/BNav_EC2/DepthDuration/v2_depth_duration_MTurk/v2_DepthDuration_HTML.html#47,47,1364,768,1364,768,8-21-2022,12-24-5,137,depth_duration_stimuli/002279_2014-06-28_18-55-32_260595134347_rgbf000040-resize_5/002279_2014-06-28_18-55-32_260595134347_rgbf000040-resize_5-target.png,125,1.5043333333333,6.0,8930,124,meters,jsons/VE125_randls_62_rotated.json,2121358,2459012,32,Man
137,874520,DepthScenes,duration_manipulation_targetAtFixation,jsons/VE125_randls_62_rotated.json,http://54.235.29.9/FacialAge/BNav_EC2/DepthDuration/v2_depth_duration_MTurk/v2_DepthDuration_HTML.html#47,47,1364,768,1364,768,8-21-2022,12-24-5,138,depth_duration_stimuli/001235_2014-06-17_16-37-36_260595134347_rgbf000084-resize_4/001235_2014-06-17_16-37-36_260595134347_rgbf000084-resize_4-target.png,125,3.6605,6.0,7006,120,meters,jsons/VE125_randls_62_rotated.json,2121358,2459012,32,Man
138,874520,DepthScenes,duration_manipulation_targetAtFixation,jsons/VE125_randls_62_rotated.json,http://54.235.29.9/FacialAge/BNav_EC2/DepthDuration/v2_depth_duration_MTurk/v2_DepthDuration_HTML.html#47,47,1364,768,1364,768,8-21-2022,12-24-5,139,depth_duration_stimuli/000788_2014-06-08_22-34-36_260595134347_rgbf000131-resize_1/000788_2014-06-08_22-34-36_260595134347_rgbf000131-resize_1-target.png,125,3.359,6.0,8582,115,meters,jsons/VE125_randls_62_rotated.json,2121358,2459012,32,Man
139,874520,DepthScenes,duration_manipulation_targetAtFixation,jsons/VE125_randls_62_rotated.json,http://54.235.29.9/FacialAge/BNav_EC2/DepthDuration/v2_depth_duration_MTurk/v2_DepthDuration_HTML.html#47,47,1364,768,1364,768,8-21-2022,12-24-5,140,depth_duration_stimuli/002750_2014-06-22_19-08-03_094959634447_rgbf000094-resize_4/002750_2014-06-22_19-08-03_094959634447_rgbf000094-resize_4-target.png,125,2.354,0.0,5433,125,meters,jsons/VE125_randls_62_rotated.json,2121358,2459012,32,Man
140,874520,DepthScenes,duration_manipulation_targetAtFixation,jsons/VE125_randls_62_rotated.json,http://54.235.29.9/FacialAge/BNav_EC2/DepthDuration/v2_depth_duration_MTurk/v2_DepthDuration_HTML.html#47,47,1364,768,1364,768,8-21-2022,12-24-5,141,depth_duration_stimuli/002549_2014-06-24_13-41-39_094959634447_rgbf000022-resize_3/002549_2014-06-24_13-41-39_094959634447_rgbf000022-resize_3-target.png,125,1.476,6.0,12029,111,meters,jsons/VE125_randls_62_rotated.json,2121358,2459012,32,Man
141,874520,DepthScenes,duration_manipulation_targetAtFixation,jsons/VE125_randls_62_rotated.json,http://54.235.29.9/FacialAge/BNav_EC2/DepthDuration/v2_depth_duration_MTurk/v2_DepthDuration_HTML.html#47,47,1364,768,1364,768,8-21-2022,12-24-5,142,depth_duration_stimuli/000709_2014-06-08_13-51-55_260595134347_rgbf000068-resize_3/000709_2014-06-08_13-51-55_260595134347_rgbf000068-resize_3-target.png,125,1.8030000000000002,6.0,5905,126,meters,jsons/VE125_randls_62_rotated.json,2121358,2459012,32,Man
142,874520,DepthScenes,duration_manipulation_targetAtFixation,jsons/VE125_randls_62_rotated.json,http://54.235.29.9/FacialAge/BNav_EC2/DepthDuration/v2_depth_duration_MTurk/v2_DepthDuration_HTML.html#47,47,1364,768,1364,768,8-21-2022,12-24-5,143,depth_duration_stimuli/002057_2014-06-24_21-00-13_260595134347_rgbf000120-resize_1/002057_2014-06-24_21-00-13_260595134347_rgbf000120-resize_1-target.png,125,2.967,6.0,5603,125,meters,jsons/VE125_randls_62_rotated.json,2121358,2459012,32,Man
143,874520,DepthScenes,duration_manipulation_targetAtFixation,jsons/VE125_randls_62_rotated.json,http://54.235.29.9/FacialAge/BNav_EC2/DepthDuration/v2_depth_duration_MTurk/v2_DepthDuration_HTML.html#47,47,1364,768,1364,768,8-21-2022,12-24-5,144,depth_duration_stimuli/000742_2014-06-08_18-48-09_260595134347_rgbf000164-resize_4/000742_2014-06-08_18-48-09_260595134347_rgbf000164-resize_4-target.png,125,4.632,5.0,4539,124,meters,jsons/VE125_randls_62_rotated.json,2121358,2459012,32,Man
144,874520,DepthScenes,duration_manipulation_targetAtFixation,jsons/VE125_randls_62_rotated.json,http://54.235.29.9/FacialAge/BNav_EC2/DepthDuration/v2_depth_duration_MTurk/v2_DepthDuration_HTML.html#47,47,1364,768,1364,768,8-21-2022,12-24-5,145,depth_duration_stimuli/001066_2014-06-08_22-03-20_260595134347_rgbf000066-resize_4/001066_2014-06-08_22-03-20_260595134347_rgbf000066-resize_4-target.png,125,4.2330000000000005,8.0,5477,124,meters,jsons/VE125_randls_62_rotated.json,2121358,2459012,32,Man
145,874520,DepthScenes,duration_manipulation_targetAtFixation,jsons/VE125_randls_62_rotated.json,http://54.235.29.9/FacialAge/BNav_EC2/DepthDuration/v2_depth_duration_MTurk/v2_DepthDuration_HTML.html#47,47,1364,768,1364,768,8-21-2022,12-24-5,146,depth_duration_stimuli/003129_2014-05-12_10-48-10_094959634447_rgbf000100-resize_0/003129_2014-05-12_10-48-10_094959634447_rgbf000100-resize_0-target.png,125,4.9305,5.0,7043,125,meters,jsons/VE125_randls_62_rotated.json,2121358,2459012,32,Man
146,874520,DepthScenes,duration_manipulation_targetAtFixation,jsons/VE125_randls_62_rotated.json,http://54.235.29.9/FacialAge/BNav_EC2/DepthDuration/v2_depth_duration_MTurk/v2_DepthDuration_HTML.html#47,47,1364,768,1364,768,8-21-2022,12-24-5,147,depth_duration_stimuli/000414_2014-06-04_19-49-13_260595134347_rgbf000044-resize_0/000414_2014-06-04_19-49-13_260595134347_rgbf000044-resize_0-target.png,125,4.329,4.0,7614,123,meters,jsons/VE125_randls_62_rotated.json,2121358,2459012,32,Man
147,874520,DepthScenes,duration_manipulation_targetAtFixation,jsons/VE125_randls_62_rotated.json,http://54.235.29.9/FacialAge/BNav_EC2/DepthDuration/v2_depth_duration_MTurk/v2_DepthDuration_HTML.html#47,47,1364,768,1364,768,8-21-2022,12-24-5,148,depth_duration_stimuli/002103_2014-06-25_20-00-40_260595134347_rgbf000049-resize_0/002103_2014-06-25_20-00-40_260595134347_rgbf000049-resize_0-target.png,125,4.105,5.0,5761,125,meters,jsons/VE125_randls_62_rotated.json,2121358,2459012,32,Man
148,874520,DepthScenes,duration_manipulation_targetAtFixation,jsons/VE125_randls_62_rotated.json,http://54.235.29.9/FacialAge/BNav_EC2/DepthDuration/v2_depth_duration_MTurk/v2_DepthDuration_HTML.html#47,47,1364,768,1364,768,8-21-2022,12-24-5,149,depth_duration_stimuli/002039_2014-06-24_20-22-38_260595134347_rgbf000084-resize_1/002039_2014-06-24_20-22-38_260595134347_rgbf000084-resize_1-target.png,125,4.408,3.0,4907,121,meters,jsons/VE125_randls_62_rotated.json,2121358,2459012,32,Man
149,874520,DepthScenes,duration_manipulation_targetAtFixation,jsons/VE125_randls_62_rotated.json,http://54.235.29.9/FacialAge/BNav_EC2/DepthDuration/v2_depth_duration_MTurk/v2_DepthDuration_HTML.html#47,47,1364,768,1364,768,8-21-2022,12-24-5,150,depth_duration_stimuli/001828_2014-06-26_21-40-03_260595134347_rgbf000024-resize_0/001828_2014-06-26_21-40-03_260595134347_rgbf000024-resize_0-target.png,125,4.8260000000000005,4.0,5383,111,meters,jsons/VE125_randls_62_rotated.json,2121358,2459012,32,Man
150,874520,DepthScenes,duration_manipulation_targetAtFixation,jsons/VE125_randls_62_rotated.json,http://54.235.29.9/FacialAge/BNav_EC2/DepthDuration/v2_depth_duration_MTurk/v2_DepthDuration_HTML.html#47,47,1364,768,1364,768,8-21-2022,12-24-5,151,depth_duration_stimuli/000009_2014-05-26_14-32-05_260595134347_rgbf000034-resize_3/000009_2014-05-26_14-32-05_260595134347_rgbf000034-resize_3-target.png,125,3.8715,6.0,6170,124,meters,jsons/VE125_randls_62_rotated.json,2121358,2459012,32,Man
151,874520,DepthScenes,duration_manipulation_targetAtFixation,jsons/VE125_randls_62_rotated.json,http://54.235.29.9/FacialAge/BNav_EC2/DepthDuration/v2_depth_duration_MTurk/v2_DepthDuration_HTML.html#47,47,1364,768,1364,768,8-21-2022,12-24-5,152,depth_duration_stimuli/000569_2014-06-09_22-51-47_260595134347_rgbf000141-resize_3/000569_2014-06-09_22-51-47_260595134347_rgbf000141-resize-original.jpg,125,4.512,0.0,5018,125,meters,jsons/VE125_randls_62_rotated.json,2121358,2459012,32,Man
152,874520,DepthScenes,duration_manipulation_targetAtFixation,jsons/VE125_randls_62_rotated.json,http://54.235.29.9/FacialAge/BNav_EC2/DepthDuration/v2_depth_duration_MTurk/v2_DepthDuration_HTML.html#47,47,1343,569,1364,768,8-21-2022,12-24-5,153,depth_duration_stimuli/002545_2014-06-24_13-38-53_094959634447_rgbf000080-resize_4/002545_2014-06-24_13-38-53_094959634447_rgbf000080-resize_4-target.png,125,1.9205,7.0,27247,138,meters,jsons/VE125_randls_62_rotated.json,2121358,2459012,32,Man
153,874520,DepthScenes,duration_manipulation_targetAtFixation,jsons/VE125_randls_62_rotated.json,http://54.235.29.9/FacialAge/BNav_EC2/DepthDuration/v2_depth_duration_MTurk/v2_DepthDuration_HTML.html#47,47,1343,569,1364,768,8-21-2022,12-24-5,154,depth_duration_stimuli/001092_2014-06-15_17-34-58_260595134347_rgbf000171-resize_3/001092_2014-06-15_17-34-58_260595134347_rgbf000171-resize_3-target.png,125,2.6935,5.0,23938,124,meters,jsons/VE125_randls_62_rotated.json,2121358,2459012,32,Man
154,874520,DepthScenes,duration_manipulation_targetAtFixation,jsons/VE125_randls_62_rotated.json,http://54.235.29.9/FacialAge/BNav_EC2/DepthDuration/v2_depth_duration_MTurk/v2_DepthDuration_HTML.html#47,47,1343,569,1364,768,8-21-2022,12-24-5,155,depth_duration_stimuli/003423_2014-05-21_10-23-26_094959634447_rgbf002665-resize_2/003423_2014-05-21_10-23-26_094959634447_rgbf002665-resize_2-target.png,125,3.2575,3.0,3850,124,meters,jsons/VE125_randls_62_rotated.json,2121358,2459012,32,Man
155,874520,DepthScenes,duration_manipulation_targetAtFixation,jsons/VE125_randls_62_rotated.json,http://54.235.29.9/FacialAge/BNav_EC2/DepthDuration/v2_depth_duration_MTurk/v2_DepthDuration_HTML.html#47,47,1343,569,1364,768,8-21-2022,12-24-5,156,depth_duration_stimuli/002905_2014-06-03_18-04-43_094959634447_rgbf000151-resize_2/002905_2014-06-03_18-04-43_094959634447_rgbf000151-resize_2-target.png,125,2.0295,4.0,7194,124,meters,jsons/VE125_randls_62_rotated.json,2121358,2459012,32,Man
156,874520,DepthScenes,duration_manipulation_targetAtFixation,jsons/VE125_randls_62_rotated.json,http://54.235.29.9/FacialAge/BNav_EC2/DepthDuration/v2_depth_duration_MTurk/v2_DepthDuration_HTML.html#47,47,1343,569,1364,768,8-21-2022,12-24-5,157,depth_duration_stimuli/002568_2014-06-24_13-59-21_094959634447_rgbf000062-resize_4/002568_2014-06-24_13-59-21_094959634447_rgbf000062-resize_4-target.png,125,3.015,4.0,5661,139,meters,jsons/VE125_randls_62_rotated.json,2121358,2459012,32,Man
157,874520,DepthScenes,duration_manipulation_targetAtFixation,jsons/VE125_randls_62_rotated.json,http://54.235.29.9/FacialAge/BNav_EC2/DepthDuration/v2_depth_duration_MTurk/v2_DepthDuration_HTML.html#47,47,1343,569,1364,768,8-21-2022,12-24-5,158,depth_duration_stimuli/003492_2014-05-21_15-50-55_094959634447_rgbf000828-resize_1/003492_2014-05-21_15-50-55_094959634447_rgbf000828-resize_1-target.png,125,4.06875,3.0,3072,125,meters,jsons/VE125_randls_62_rotated.json,2121358,2459012,32,Man
158,874520,DepthScenes,duration_manipulation_targetAtFixation,jsons/VE125_randls_62_rotated.json,http://54.235.29.9/FacialAge/BNav_EC2/DepthDuration/v2_depth_duration_MTurk/v2_DepthDuration_HTML.html#47,47,1343,569,1364,768,8-21-2022,12-24-5,159,depth_duration_stimuli/003081_2014-06-15_15-19-16_094959634447_rgbf000150-resize_1/003081_2014-06-15_15-19-16_094959634447_rgbf000150-resize_1-target.png,125,3.9125,5.0,4197,125,meters,jsons/VE125_randls_62_rotated.json,2121358,2459012,32,Man
159,874520,DepthScenes,duration_manipulation_targetAtFixation,jsons/VE125_randls_62_rotated.json,http://54.235.29.9/FacialAge/BNav_EC2/DepthDuration/v2_depth_duration_MTurk/v2_DepthDuration_HTML.html#47,47,1343,569,1364,768,8-21-2022,12-24-5,160,depth_duration_stimuli/001417_2014-06-19_16-25-36_260595134347_rgbf000115-resize_5/001417_2014-06-19_16-25-36_260595134347_rgbf000115-resize_5-target.png,125,4.6255,4.0,5191,120,meters,jsons/VE125_randls_62_rotated.json,2121358,2459012,32,Man
160,874520,DepthScenes,duration_manipulation_targetAtFixation,jsons/VE125_randls_62_rotated.json,http://54.235.29.9/FacialAge/BNav_EC2/DepthDuration/v2_depth_duration_MTurk/v2_DepthDuration_HTML.html#47,47,1343,569,1364,768,8-21-2022,12-24-5,161,depth_duration_stimuli/002949_2014-06-26_15-57-42_094959634447_rgbf000079-resize_1/002949_2014-06-26_15-57-42_094959634447_rgbf000079-resize_1-target.png,125,1.8915,4.0,3966,125,meters,jsons/VE125_randls_62_rotated.json,2121358,2459012,32,Man
161,874520,DepthScenes,duration_manipulation_targetAtFixation,jsons/VE125_randls_62_rotated.json,http://54.235.29.9/FacialAge/BNav_EC2/DepthDuration/v2_depth_duration_MTurk/v2_DepthDuration_HTML.html#47,47,1343,569,1364,768,8-21-2022,12-24-5,162,depth_duration_stimuli/000522_2014-06-08_13-35-06_260595134347_rgbf000244-resize_1/000522_2014-06-08_13-35-06_260595134347_rgbf000244-resize_1-target.png,125,2.3715,4.0,6719,124,meters,jsons/VE125_randls_62_rotated.json,2121358,2459012,32,Man
162,874520,DepthScenes,duration_manipulation_targetAtFixation,jsons/VE125_randls_62_rotated.json,http://54.235.29.9/FacialAge/BNav_EC2/DepthDuration/v2_depth_duration_MTurk/v2_DepthDuration_HTML.html#47,47,1343,569,1364,768,8-21-2022,12-24-5,163,depth_duration_stimuli/000103_2014-05-14_22-01-17_260595134347_rgbf000152-resize_5/000103_2014-05-14_22-01-17_260595134347_rgbf000152-resize_5-target.png,125,1.993,6.0,3843,123,meters,jsons/VE125_randls_62_rotated.json,2121358,2459012,32,Man
163,874520,DepthScenes,duration_manipulation_targetAtFixation,jsons/VE125_randls_62_rotated.json,http://54.235.29.9/FacialAge/BNav_EC2/DepthDuration/v2_depth_duration_MTurk/v2_DepthDuration_HTML.html#47,47,1343,569,1364,768,8-21-2022,12-24-5,164,depth_duration_stimuli/001555_2014-06-20_17-12-10_260595134347_rgbf000065-resize_4/001555_2014-06-20_17-12-10_260595134347_rgbf000065-resize_4-target.png,125,1.633,0.0,2995,93,meters,jsons/VE125_randls_62_rotated.json,2121358,2459012,32,Man
