,subjID,experimentName,versionName,sequenceName,url,selected_row,windowWidth,windowHeight,screenWidth,screenHeight,startDate,startTime,trial,stimulus,duration,actual_depth,depth_estimate,trial_RT,log_sceneDuration,unitSelection,seq_filepath,experimentTime,totalTime,age,gender
0,876757,DepthScenes,duration_manipulation_targetAtFixation,jsons/VE125_randls_6.json,http://54.235.29.9/FacialAge/BNav_EC2/DepthDuration/v2_depth_duration_MTurk/v2_DepthDuration_HTML.html#91,91,1366,643,1366,768,9-18-2022,11-26-43,1,depth_duration_stimuli/002663_2014-06-13_15-50-26_094959634447_rgbf000075-resize_1/002663_2014-06-13_15-50-26_094959634447_rgbf000075-resize_1-target.png,125,4.7495,4,6310,123,meters,jsons/VE125_randls_6.json,548874,1048996,35,Man
1,876757,DepthScenes,duration_manipulation_targetAtFixation,jsons/VE125_randls_6.json,http://54.235.29.9/FacialAge/BNav_EC2/DepthDuration/v2_depth_duration_MTurk/v2_DepthDuration_HTML.html#91,91,1366,643,1366,768,9-18-2022,11-26-43,2,depth_duration_stimuli/000409_2014-06-04_19-23-33_260595134347_rgbf000067-resize_0/000409_2014-06-04_19-23-33_260595134347_rgbf000067-resize_0-target.png,125,3.7335,6,4724,124,meters,jsons/VE125_randls_6.json,548874,1048996,35,Man
2,876757,DepthScenes,duration_manipulation_targetAtFixation,jsons/VE125_randls_6.json,http://54.235.29.9/FacialAge/BNav_EC2/DepthDuration/v2_depth_duration_MTurk/v2_DepthDuration_HTML.html#91,91,1366,643,1366,768,9-18-2022,11-26-43,3,depth_duration_stimuli/002905_2014-06-03_18-04-43_094959634447_rgbf000151-resize_2/002905_2014-06-03_18-04-43_094959634447_rgbf000151-resize_2-target.png,125,2.0295,2,5952,126,meters,jsons/VE125_randls_6.json,548874,1048996,35,Man
3,876757,DepthScenes,duration_manipulation_targetAtFixation,jsons/VE125_randls_6.json,http://54.235.29.9/FacialAge/BNav_EC2/DepthDuration/v2_depth_duration_MTurk/v2_DepthDuration_HTML.html#91,91,1366,643,1366,768,9-18-2022,11-26-43,4,depth_duration_stimuli/003423_2014-05-21_10-23-26_094959634447_rgbf002665-resize_2/003423_2014-05-21_10-23-26_094959634447_rgbf002665-resize_2-target.png,125,3.2575,3,6227,125,meters,jsons/VE125_randls_6.json,548874,1048996,35,Man
4,876757,DepthScenes,duration_manipulation_targetAtFixation,jsons/VE125_randls_6.json,http://54.235.29.9/FacialAge/BNav_EC2/DepthDuration/v2_depth_duration_MTurk/v2_DepthDuration_HTML.html#91,91,1366,643,1366,768,9-18-2022,11-26-43,5,depth_duration_stimuli/000642_2014-06-08_16-59-25_260595134347_rgbf000098-resize_2/000642_2014-06-08_16-59-25_260595134347_rgbf000098-resize_2-target.png,125,2.8815,1,5124,124,meters,jsons/VE125_randls_6.json,548874,1048996,35,Man
5,876757,DepthScenes,duration_manipulation_targetAtFixation,jsons/VE125_randls_6.json,http://54.235.29.9/FacialAge/BNav_EC2/DepthDuration/v2_depth_duration_MTurk/v2_DepthDuration_HTML.html#91,91,1366,643,1366,768,9-18-2022,11-26-43,6,depth_duration_stimuli/002425_2014-06-28_20-27-29_260595134347_rgbf000031-resize_8/002425_2014-06-28_20-27-29_260595134347_rgbf000031-resize_8-target.png,125,3.8960000000000004,3,4437,123,meters,jsons/VE125_randls_6.json,548874,1048996,35,Man
6,876757,DepthScenes,duration_manipulation_targetAtFixation,jsons/VE125_randls_6.json,http://54.235.29.9/FacialAge/BNav_EC2/DepthDuration/v2_depth_duration_MTurk/v2_DepthDuration_HTML.html#91,91,1366,643,1366,768,9-18-2022,11-26-43,7,depth_duration_stimuli/001449_2014-06-19_17-01-27_260595134347_rgbf000116-resize_2/001449_2014-06-19_17-01-27_260595134347_rgbf000116-resize_2-target.png,125,3.452,1,3773,124,meters,jsons/VE125_randls_6.json,548874,1048996,35,Man
7,876757,DepthScenes,duration_manipulation_targetAtFixation,jsons/VE125_randls_6.json,http://54.235.29.9/FacialAge/BNav_EC2/DepthDuration/v2_depth_duration_MTurk/v2_DepthDuration_HTML.html#91,91,1366,643,1366,768,9-18-2022,11-26-43,8,depth_duration_stimuli/001450_2014-06-19_17-02-03_260595134347_rgbf000203-resize_4/001450_2014-06-19_17-02-03_260595134347_rgbf000203-resize_4-target.png,125,4.0106666666667,2,3730,124,meters,jsons/VE125_randls_6.json,548874,1048996,35,Man
8,876757,DepthScenes,duration_manipulation_targetAtFixation,jsons/VE125_randls_6.json,http://54.235.29.9/FacialAge/BNav_EC2/DepthDuration/v2_depth_duration_MTurk/v2_DepthDuration_HTML.html#91,91,1366,643,1366,768,9-18-2022,11-26-43,9,depth_duration_stimuli/002272_2014-06-28_18-53-56_260595134347_rgbf000067-resize_2/002272_2014-06-28_18-53-56_260595134347_rgbf000067-resize_2-target.png,125,1.138,1,4520,125,meters,jsons/VE125_randls_6.json,548874,1048996,35,Man
9,876757,DepthScenes,duration_manipulation_targetAtFixation,jsons/VE125_randls_6.json,http://54.235.29.9/FacialAge/BNav_EC2/DepthDuration/v2_depth_duration_MTurk/v2_DepthDuration_HTML.html#91,91,1366,643,1366,768,9-18-2022,11-26-43,10,depth_duration_stimuli/001571_2014-06-20_17-21-32_260595134347_rgbf000089-resize_1/001571_2014-06-20_17-21-32_260595134347_rgbf000089-resize_1-target.png,125,1.86,2,3568,125,meters,jsons/VE125_randls_6.json,548874,1048996,35,Man
10,876757,DepthScenes,duration_manipulation_targetAtFixation,jsons/VE125_randls_6.json,http://54.235.29.9/FacialAge/BNav_EC2/DepthDuration/v2_depth_duration_MTurk/v2_DepthDuration_HTML.html#91,91,1366,643,1366,768,9-18-2022,11-26-43,11,depth_duration_stimuli/002630_2014-06-24_14-47-50_094959634447_rgbf000055-resize_1/002630_2014-06-24_14-47-50_094959634447_rgbf000055-resize_1-target.png,125,3.0095,3,3787,125,meters,jsons/VE125_randls_6.json,548874,1048996,35,Man
11,876757,DepthScenes,duration_manipulation_targetAtFixation,jsons/VE125_randls_6.json,http://54.235.29.9/FacialAge/BNav_EC2/DepthDuration/v2_depth_duration_MTurk/v2_DepthDuration_HTML.html#91,91,1366,643,1366,768,9-18-2022,11-26-43,12,depth_duration_stimuli/002758_2014-06-22_19-11-20_094959634447_rgbf000128-resize_1/002758_2014-06-22_19-11-20_094959634447_rgbf000128-resize_1-target.png,125,2.555,2,3432,143,meters,jsons/VE125_randls_6.json,548874,1048996,35,Man
12,876757,DepthScenes,duration_manipulation_targetAtFixation,jsons/VE125_randls_6.json,http://54.235.29.9/FacialAge/BNav_EC2/DepthDuration/v2_depth_duration_MTurk/v2_DepthDuration_HTML.html#91,91,1366,643,1366,768,9-18-2022,11-26-43,13,depth_duration_stimuli/000569_2014-06-09_22-51-47_260595134347_rgbf000141-resize_3/000569_2014-06-09_22-51-47_260595134347_rgbf000141-resize-original.jpg,125,4.512,3,3784,108,meters,jsons/VE125_randls_6.json,548874,1048996,35,Man
13,876757,DepthScenes,duration_manipulation_targetAtFixation,jsons/VE125_randls_6.json,http://54.235.29.9/FacialAge/BNav_EC2/DepthDuration/v2_depth_duration_MTurk/v2_DepthDuration_HTML.html#91,91,1366,643,1366,768,9-18-2022,11-26-43,14,depth_duration_stimuli/002784_2014-06-22_19-26-30_094959634447_rgbf000083-resize_3/002784_2014-06-22_19-26-30_094959634447_rgbf000083-resize_3-target.png,125,1.8046666666667,1,4043,128,meters,jsons/VE125_randls_6.json,548874,1048996,35,Man
14,876757,DepthScenes,duration_manipulation_targetAtFixation,jsons/VE125_randls_6.json,http://54.235.29.9/FacialAge/BNav_EC2/DepthDuration/v2_depth_duration_MTurk/v2_DepthDuration_HTML.html#91,91,1366,643,1366,768,9-18-2022,11-26-43,15,depth_duration_stimuli/001100_2014-06-15_17-46-26_260595134347_rgbf000225-resize_2/001100_2014-06-15_17-46-26_260595134347_rgbf000225-resize_2-target.png,125,2.24,1,3517,124,meters,jsons/VE125_randls_6.json,548874,1048996,35,Man
15,876757,DepthScenes,duration_manipulation_targetAtFixation,jsons/VE125_randls_6.json,http://54.235.29.9/FacialAge/BNav_EC2/DepthDuration/v2_depth_duration_MTurk/v2_DepthDuration_HTML.html#91,91,1366,643,1366,768,9-18-2022,11-26-43,16,depth_duration_stimuli/002988_2014-06-15_12-24-20_094959634447_rgbf000150-resize_1/002988_2014-06-15_12-24-20_094959634447_rgbf000150-resize_1-target.png,125,4.7669999999999995,2,3350,125,meters,jsons/VE125_randls_6.json,548874,1048996,35,Man
16,876757,DepthScenes,duration_manipulation_targetAtFixation,jsons/VE125_randls_6.json,http://54.235.29.9/FacialAge/BNav_EC2/DepthDuration/v2_depth_duration_MTurk/v2_DepthDuration_HTML.html#91,91,1366,643,1366,768,9-18-2022,11-26-43,17,depth_duration_stimuli/001052_2014-06-08_18-24-54_260595134347_rgbf000130-resize_1/001052_2014-06-08_18-24-54_260595134347_rgbf000130-resize_1-target.png,125,4.1045,2,3260,118,meters,jsons/VE125_randls_6.json,548874,1048996,35,Man
17,876757,DepthScenes,duration_manipulation_targetAtFixation,jsons/VE125_randls_6.json,http://54.235.29.9/FacialAge/BNav_EC2/DepthDuration/v2_depth_duration_MTurk/v2_DepthDuration_HTML.html#91,91,1366,643,1366,768,9-18-2022,11-26-43,18,depth_duration_stimuli/002748_2014-06-22_19-07-22_094959634447_rgbf000078-resize_1/002748_2014-06-22_19-07-22_094959634447_rgbf000078-resize_1-target.png,125,4.6705,3,3554,125,meters,jsons/VE125_randls_6.json,548874,1048996,35,Man
18,876757,DepthScenes,duration_manipulation_targetAtFixation,jsons/VE125_randls_6.json,http://54.235.29.9/FacialAge/BNav_EC2/DepthDuration/v2_depth_duration_MTurk/v2_DepthDuration_HTML.html#91,91,1366,643,1366,768,9-18-2022,11-26-43,19,depth_duration_stimuli/002995_2014-06-15_12-31-26_094959634447_rgbf000150-resize_1/002995_2014-06-15_12-31-26_094959634447_rgbf000150-resize_1-target.png,125,3.8360000000000003,3,3374,133,meters,jsons/VE125_randls_6.json,548874,1048996,35,Man
19,876757,DepthScenes,duration_manipulation_targetAtFixation,jsons/VE125_randls_6.json,http://54.235.29.9/FacialAge/BNav_EC2/DepthDuration/v2_depth_duration_MTurk/v2_DepthDuration_HTML.html#91,91,1366,643,1366,768,9-18-2022,11-26-43,20,depth_duration_stimuli/002213_2014-06-28_18-37-58_260595134347_rgbf000055-resize_1/002213_2014-06-28_18-37-58_260595134347_rgbf000055-resize_1-target.png,125,3.62,4,3763,124,meters,jsons/VE125_randls_6.json,548874,1048996,35,Man
20,876757,DepthScenes,duration_manipulation_targetAtFixation,jsons/VE125_randls_6.json,http://54.235.29.9/FacialAge/BNav_EC2/DepthDuration/v2_depth_duration_MTurk/v2_DepthDuration_HTML.html#91,91,1366,643,1366,768,9-18-2022,11-26-43,21,depth_duration_stimuli/000691_2014-06-08_13-08-50_260595134347_rgbf000132-resize_3/000691_2014-06-08_13-08-50_260595134347_rgbf000132-resize_3-target.png,125,4.1530000000000005,2,3287,125,meters,jsons/VE125_randls_6.json,548874,1048996,35,Man
21,876757,DepthScenes,duration_manipulation_targetAtFixation,jsons/VE125_randls_6.json,http://54.235.29.9/FacialAge/BNav_EC2/DepthDuration/v2_depth_duration_MTurk/v2_DepthDuration_HTML.html#91,91,1366,643,1366,768,9-18-2022,11-26-43,22,depth_duration_stimuli/003492_2014-05-21_15-50-55_094959634447_rgbf000828-resize_1/003492_2014-05-21_15-50-55_094959634447_rgbf000828-resize_1-target.png,125,4.06875,3,3244,124,meters,jsons/VE125_randls_6.json,548874,1048996,35,Man
22,876757,DepthScenes,duration_manipulation_targetAtFixation,jsons/VE125_randls_6.json,http://54.235.29.9/FacialAge/BNav_EC2/DepthDuration/v2_depth_duration_MTurk/v2_DepthDuration_HTML.html#91,91,1366,643,1366,768,9-18-2022,11-26-43,23,depth_duration_stimuli/002568_2014-06-24_13-59-21_094959634447_rgbf000062-resize_4/002568_2014-06-24_13-59-21_094959634447_rgbf000062-resize_4-target.png,125,3.015,3,3408,125,meters,jsons/VE125_randls_6.json,548874,1048996,35,Man
23,876757,DepthScenes,duration_manipulation_targetAtFixation,jsons/VE125_randls_6.json,http://54.235.29.9/FacialAge/BNav_EC2/DepthDuration/v2_depth_duration_MTurk/v2_DepthDuration_HTML.html#91,91,1366,643,1366,768,9-18-2022,11-26-43,24,depth_duration_stimuli/001011_2014-06-08_23-18-54_260595134347_rgbf000044-resize_4/001011_2014-06-08_23-18-54_260595134347_rgbf000044-resize_4-target.png,125,2.4730000000000003,2,4053,124,meters,jsons/VE125_randls_6.json,548874,1048996,35,Man
24,876757,DepthScenes,duration_manipulation_targetAtFixation,jsons/VE125_randls_6.json,http://54.235.29.9/FacialAge/BNav_EC2/DepthDuration/v2_depth_duration_MTurk/v2_DepthDuration_HTML.html#91,91,1366,643,1366,768,9-18-2022,11-26-43,25,depth_duration_stimuli/002875_2014-06-01_15-19-00_094959634447_rgbf000151-resize_1/002875_2014-06-01_15-19-00_094959634447_rgbf000151-resize_1-target.png,125,1.9675,2,3987,134,meters,jsons/VE125_randls_6.json,548874,1048996,35,Man
25,876757,DepthScenes,duration_manipulation_targetAtFixation,jsons/VE125_randls_6.json,http://54.235.29.9/FacialAge/BNav_EC2/DepthDuration/v2_depth_duration_MTurk/v2_DepthDuration_HTML.html#91,91,1366,643,1366,768,9-18-2022,11-26-43,26,depth_duration_stimuli/002964_2014-06-08_17-46-11_094959634447_rgbf000091-resize_4/002964_2014-06-08_17-46-11_094959634447_rgbf000091-resize_4-target.png,125,1.6909999999999998,1,3558,125,meters,jsons/VE125_randls_6.json,548874,1048996,35,Man
26,876757,DepthScenes,duration_manipulation_targetAtFixation,jsons/VE125_randls_6.json,http://54.235.29.9/FacialAge/BNav_EC2/DepthDuration/v2_depth_duration_MTurk/v2_DepthDuration_HTML.html#91,91,1366,643,1366,768,9-18-2022,11-26-43,27,depth_duration_stimuli/002136_2014-06-25_21-18-03_260595134347_rgbf000109-resize_3/002136_2014-06-25_21-18-03_260595134347_rgbf000109-resize_3-target.png,125,1.9569999999999999,1,3438,113,meters,jsons/VE125_randls_6.json,548874,1048996,35,Man
27,876757,DepthScenes,duration_manipulation_targetAtFixation,jsons/VE125_randls_6.json,http://54.235.29.9/FacialAge/BNav_EC2/DepthDuration/v2_depth_duration_MTurk/v2_DepthDuration_HTML.html#91,91,1366,643,1366,768,9-18-2022,11-26-43,28,depth_duration_stimuli/001555_2014-06-20_17-12-10_260595134347_rgbf000065-resize_4/001555_2014-06-20_17-12-10_260595134347_rgbf000065-resize_4-target.png,125,1.633,4,3596,125,meters,jsons/VE125_randls_6.json,548874,1048996,35,Man
28,876757,DepthScenes,duration_manipulation_targetAtFixation,jsons/VE125_randls_6.json,http://54.235.29.9/FacialAge/BNav_EC2/DepthDuration/v2_depth_duration_MTurk/v2_DepthDuration_HTML.html#91,91,1366,643,1366,768,9-18-2022,11-26-43,29,depth_duration_stimuli/000103_2014-05-14_22-01-17_260595134347_rgbf000152-resize_5/000103_2014-05-14_22-01-17_260595134347_rgbf000152-resize_5-target.png,125,1.993,3,3506,126,meters,jsons/VE125_randls_6.json,548874,1048996,35,Man
29,876757,DepthScenes,duration_manipulation_targetAtFixation,jsons/VE125_randls_6.json,http://54.235.29.9/FacialAge/BNav_EC2/DepthDuration/v2_depth_duration_MTurk/v2_DepthDuration_HTML.html#91,91,1366,643,1366,768,9-18-2022,11-26-43,30,depth_duration_stimuli/000375_2014-06-08_11-17-29_260595134347_rgbf000133-resize_2/000375_2014-06-08_11-17-29_260595134347_rgbf000133-resize-original.jpg,125,4.718,4,4290,125,meters,jsons/VE125_randls_6.json,548874,1048996,35,Man
30,876757,DepthScenes,duration_manipulation_targetAtFixation,jsons/VE125_randls_6.json,http://54.235.29.9/FacialAge/BNav_EC2/DepthDuration/v2_depth_duration_MTurk/v2_DepthDuration_HTML.html#91,91,1366,643,1366,768,9-18-2022,11-26-43,31,depth_duration_stimuli/001175_2014-06-17_15-45-55_260595134347_rgbf000129-resize_4/001175_2014-06-17_15-45-55_260595134347_rgbf000129-resize_4-target.png,125,4.255,4,3175,124,meters,jsons/VE125_randls_6.json,548874,1048996,35,Man
31,876757,DepthScenes,duration_manipulation_targetAtFixation,jsons/VE125_randls_6.json,http://54.235.29.9/FacialAge/BNav_EC2/DepthDuration/v2_depth_duration_MTurk/v2_DepthDuration_HTML.html#91,91,1366,643,1366,768,9-18-2022,11-26-43,32,depth_duration_stimuli/003490_2014-05-21_15-50-11_094959634447_rgbf000101-resize_3/003490_2014-05-21_15-50-11_094959634447_rgbf000101-resize_3-target.png,125,3.6445,3,3281,122,meters,jsons/VE125_randls_6.json,548874,1048996,35,Man
32,876757,DepthScenes,duration_manipulation_targetAtFixation,jsons/VE125_randls_6.json,http://54.235.29.9/FacialAge/BNav_EC2/DepthDuration/v2_depth_duration_MTurk/v2_DepthDuration_HTML.html#91,91,1366,643,1366,768,9-18-2022,11-26-43,33,depth_duration_stimuli/003534_2014-05-22_15-06-10_094959634447_rgbf000102-resize_4/003534_2014-05-22_15-06-10_094959634447_rgbf000102-resize_4-target.png,125,1.426,2,3546,125,meters,jsons/VE125_randls_6.json,548874,1048996,35,Man
33,876757,DepthScenes,duration_manipulation_targetAtFixation,jsons/VE125_randls_6.json,http://54.235.29.9/FacialAge/BNav_EC2/DepthDuration/v2_depth_duration_MTurk/v2_DepthDuration_HTML.html#91,91,1366,643,1366,768,9-18-2022,11-26-43,34,depth_duration_stimuli/002637_2014-06-24_14-51-13_094959634447_rgbf000066-resize_4/002637_2014-06-24_14-51-13_094959634447_rgbf000066-resize_4-target.png,125,1.9955,3,5194,123,meters,jsons/VE125_randls_6.json,548874,1048996,35,Man
34,876757,DepthScenes,duration_manipulation_targetAtFixation,jsons/VE125_randls_6.json,http://54.235.29.9/FacialAge/BNav_EC2/DepthDuration/v2_depth_duration_MTurk/v2_DepthDuration_HTML.html#91,91,1366,643,1366,768,9-18-2022,11-26-43,35,depth_duration_stimuli/001110_2014-06-15_17-25-28_260595134347_rgbf000150-resize_1/001110_2014-06-15_17-25-28_260595134347_rgbf000150-resize_1-target.png,125,1.7115,2,3357,124,meters,jsons/VE125_randls_6.json,548874,1048996,35,Man
35,876757,DepthScenes,duration_manipulation_targetAtFixation,jsons/VE125_randls_6.json,http://54.235.29.9/FacialAge/BNav_EC2/DepthDuration/v2_depth_duration_MTurk/v2_DepthDuration_HTML.html#91,91,1366,643,1366,768,9-18-2022,11-26-43,36,depth_duration_stimuli/000927_2014-06-09_16-32-30_260595134347_rgbf000123-resize_3/000927_2014-06-09_16-32-30_260595134347_rgbf000123-resize_3-target.png,125,2.6785,2,3160,124,meters,jsons/VE125_randls_6.json,548874,1048996,35,Man
36,876757,DepthScenes,duration_manipulation_targetAtFixation,jsons/VE125_randls_6.json,http://54.235.29.9/FacialAge/BNav_EC2/DepthDuration/v2_depth_duration_MTurk/v2_DepthDuration_HTML.html#91,91,1366,643,1366,768,9-18-2022,11-26-43,37,depth_duration_stimuli/001810_2014-06-26_20-51-35_260595134347_rgbf000040-resize_3/001810_2014-06-26_20-51-35_260595134347_rgbf000040-resize_3-target.png,125,2.2525,1,3320,124,meters,jsons/VE125_randls_6.json,548874,1048996,35,Man
37,876757,DepthScenes,duration_manipulation_targetAtFixation,jsons/VE125_randls_6.json,http://54.235.29.9/FacialAge/BNav_EC2/DepthDuration/v2_depth_duration_MTurk/v2_DepthDuration_HTML.html#91,91,1366,643,1366,768,9-18-2022,11-26-43,38,depth_duration_stimuli/003010_2014-06-15_12-54-35_094959634447_rgbf000112-resize_0/003010_2014-06-15_12-54-35_094959634447_rgbf000112-resize_0-target.png,125,3.1185,1,4654,126,meters,jsons/VE125_randls_6.json,548874,1048996,35,Man
38,876757,DepthScenes,duration_manipulation_targetAtFixation,jsons/VE125_randls_6.json,http://54.235.29.9/FacialAge/BNav_EC2/DepthDuration/v2_depth_duration_MTurk/v2_DepthDuration_HTML.html#91,91,1366,643,1366,768,9-18-2022,11-26-43,39,depth_duration_stimuli/002445_2014-06-28_20-32-16_260595134347_rgbf000029-resize_4/002445_2014-06-28_20-32-16_260595134347_rgbf000029-resize_4-target.png,125,2.5315,2,3426,126,meters,jsons/VE125_randls_6.json,548874,1048996,35,Man
39,876757,DepthScenes,duration_manipulation_targetAtFixation,jsons/VE125_randls_6.json,http://54.235.29.9/FacialAge/BNav_EC2/DepthDuration/v2_depth_duration_MTurk/v2_DepthDuration_HTML.html#91,91,1366,643,1366,768,9-18-2022,11-26-43,40,depth_duration_stimuli/000780_2014-06-08_22-28-29_260595134347_rgbf000126-resize_1/000780_2014-06-08_22-28-29_260595134347_rgbf000126-resize_1-target.png,125,3.3825,3,3424,123,meters,jsons/VE125_randls_6.json,548874,1048996,35,Man
40,876757,DepthScenes,duration_manipulation_targetAtFixation,jsons/VE125_randls_6.json,http://54.235.29.9/FacialAge/BNav_EC2/DepthDuration/v2_depth_duration_MTurk/v2_DepthDuration_HTML.html#91,91,1366,643,1366,768,9-18-2022,11-26-43,41,depth_duration_stimuli/002763_2014-06-22_19-13-10_094959634447_rgbf000075-resize_4/002763_2014-06-22_19-13-10_094959634447_rgbf000075-resize_4-target.png,125,1.68375,1,3372,123,meters,jsons/VE125_randls_6.json,548874,1048996,35,Man
41,876757,DepthScenes,duration_manipulation_targetAtFixation,jsons/VE125_randls_6.json,http://54.235.29.9/FacialAge/BNav_EC2/DepthDuration/v2_depth_duration_MTurk/v2_DepthDuration_HTML.html#91,91,1366,643,1366,768,9-18-2022,11-26-43,42,depth_duration_stimuli/002209_2014-06-28_18-36-10_260595134347_rgbf000051-resize_1/002209_2014-06-28_18-36-10_260595134347_rgbf000051-resize_1-target.png,125,2.057,2,3484,137,meters,jsons/VE125_randls_6.json,548874,1048996,35,Man
42,876757,DepthScenes,duration_manipulation_targetAtFixation,jsons/VE125_randls_6.json,http://54.235.29.9/FacialAge/BNav_EC2/DepthDuration/v2_depth_duration_MTurk/v2_DepthDuration_HTML.html#91,91,1366,643,1366,768,9-18-2022,11-26-43,43,depth_duration_stimuli/000009_2014-05-26_14-32-05_260595134347_rgbf000034-resize_3/000009_2014-05-26_14-32-05_260595134347_rgbf000034-resize_3-target.png,125,3.8715,2,4065,124,meters,jsons/VE125_randls_6.json,548874,1048996,35,Man
43,876757,DepthScenes,duration_manipulation_targetAtFixation,jsons/VE125_randls_6.json,http://54.235.29.9/FacialAge/BNav_EC2/DepthDuration/v2_depth_duration_MTurk/v2_DepthDuration_HTML.html#91,91,1366,643,1366,768,9-18-2022,11-26-43,44,depth_duration_stimuli/001828_2014-06-26_21-40-03_260595134347_rgbf000024-resize_0/001828_2014-06-26_21-40-03_260595134347_rgbf000024-resize_0-target.png,125,4.8260000000000005,1,3472,127,meters,jsons/VE125_randls_6.json,548874,1048996,35,Man
44,876757,DepthScenes,duration_manipulation_targetAtFixation,jsons/VE125_randls_6.json,http://54.235.29.9/FacialAge/BNav_EC2/DepthDuration/v2_depth_duration_MTurk/v2_DepthDuration_HTML.html#91,91,1366,643,1366,768,9-18-2022,11-26-43,45,depth_duration_stimuli/000787_2014-06-08_22-33-53_260595134347_rgbf000175-resize_1/000787_2014-06-08_22-33-53_260595134347_rgbf000175-resize-original.jpg,125,4.784,3,4542,124,meters,jsons/VE125_randls_6.json,548874,1048996,35,Man
45,876757,DepthScenes,duration_manipulation_targetAtFixation,jsons/VE125_randls_6.json,http://54.235.29.9/FacialAge/BNav_EC2/DepthDuration/v2_depth_duration_MTurk/v2_DepthDuration_HTML.html#91,91,1366,643,1366,768,9-18-2022,11-26-43,46,depth_duration_stimuli/000917_2014-06-09_22-45-29_260595134347_rgbf000149-resize_3/000917_2014-06-09_22-45-29_260595134347_rgbf000149-resize_3-target.png,125,4.1865,2,4104,137,meters,jsons/VE125_randls_6.json,548874,1048996,35,Man
46,876757,DepthScenes,duration_manipulation_targetAtFixation,jsons/VE125_randls_6.json,http://54.235.29.9/FacialAge/BNav_EC2/DepthDuration/v2_depth_duration_MTurk/v2_DepthDuration_HTML.html#91,91,1366,643,1366,768,9-18-2022,11-26-43,47,depth_duration_stimuli/002323_2014-06-28_20-01-54_260595134347_rgbf000051-resize_4/002323_2014-06-28_20-01-54_260595134347_rgbf000051-resize_4-target.png,125,3.7310000000000003,1,4127,125,meters,jsons/VE125_randls_6.json,548874,1048996,35,Man
47,876757,DepthScenes,duration_manipulation_targetAtFixation,jsons/VE125_randls_6.json,http://54.235.29.9/FacialAge/BNav_EC2/DepthDuration/v2_depth_duration_MTurk/v2_DepthDuration_HTML.html#91,91,1366,643,1366,768,9-18-2022,11-26-43,48,depth_duration_stimuli/001570_2014-06-20_17-21-09_260595134347_rgbf000135-resize_4/001570_2014-06-20_17-21-09_260595134347_rgbf000135-resize_4-target.png,125,4.467,2,4662,130,meters,jsons/VE125_randls_6.json,548874,1048996,35,Man
48,876757,DepthScenes,duration_manipulation_targetAtFixation,jsons/VE125_randls_6.json,http://54.235.29.9/FacialAge/BNav_EC2/DepthDuration/v2_depth_duration_MTurk/v2_DepthDuration_HTML.html#91,91,1366,643,1366,768,9-18-2022,11-26-43,49,depth_duration_stimuli/001392_2014-06-19_16-07-59_260595134347_rgbf000046-resize_1/001392_2014-06-19_16-07-59_260595134347_rgbf000046-resize_1-target.png,125,4.135,2,5110,126,meters,jsons/VE125_randls_6.json,548874,1048996,35,Man
49,876757,DepthScenes,duration_manipulation_targetAtFixation,jsons/VE125_randls_6.json,http://54.235.29.9/FacialAge/BNav_EC2/DepthDuration/v2_depth_duration_MTurk/v2_DepthDuration_HTML.html#91,91,1366,643,1366,768,9-18-2022,11-26-43,50,depth_duration_stimuli/000788_2014-06-08_22-34-36_260595134347_rgbf000131-resize_1/000788_2014-06-08_22-34-36_260595134347_rgbf000131-resize_1-target.png,125,3.359,3,4283,109,meters,jsons/VE125_randls_6.json,548874,1048996,35,Man
50,876757,DepthScenes,duration_manipulation_targetAtFixation,jsons/VE125_randls_6.json,http://54.235.29.9/FacialAge/BNav_EC2/DepthDuration/v2_depth_duration_MTurk/v2_DepthDuration_HTML.html#91,91,1366,643,1366,768,9-18-2022,11-26-43,51,depth_duration_stimuli/001235_2014-06-17_16-37-36_260595134347_rgbf000084-resize_4/001235_2014-06-17_16-37-36_260595134347_rgbf000084-resize_4-target.png,125,3.6605,2,3939,130,meters,jsons/VE125_randls_6.json,548874,1048996,35,Man
51,876757,DepthScenes,duration_manipulation_targetAtFixation,jsons/VE125_randls_6.json,http://54.235.29.9/FacialAge/BNav_EC2/DepthDuration/v2_depth_duration_MTurk/v2_DepthDuration_HTML.html#91,91,1366,643,1366,768,9-18-2022,11-26-43,52,depth_duration_stimuli/000739_2014-06-08_18-45-58_260595134347_rgbf000068-resize_1/000739_2014-06-08_18-45-58_260595134347_rgbf000068-resize_1-target.png,125,3.534,2,4120,131,meters,jsons/VE125_randls_6.json,548874,1048996,35,Man
52,876757,DepthScenes,duration_manipulation_targetAtFixation,jsons/VE125_randls_6.json,http://54.235.29.9/FacialAge/BNav_EC2/DepthDuration/v2_depth_duration_MTurk/v2_DepthDuration_HTML.html#91,91,1366,643,1366,768,9-18-2022,11-26-43,53,depth_duration_stimuli/000734_2014-06-08_17-39-11_260595134347_rgbf000128-resize_2/000734_2014-06-08_17-39-11_260595134347_rgbf000128-resize_2-target.png,125,4.098,3,3879,124,meters,jsons/VE125_randls_6.json,548874,1048996,35,Man
53,876757,DepthScenes,duration_manipulation_targetAtFixation,jsons/VE125_randls_6.json,http://54.235.29.9/FacialAge/BNav_EC2/DepthDuration/v2_depth_duration_MTurk/v2_DepthDuration_HTML.html#91,91,1366,643,1366,768,9-18-2022,11-26-43,54,depth_duration_stimuli/000736_2014-06-08_18-24-15_260595134347_rgbf000206-resize_3/000736_2014-06-08_18-24-15_260595134347_rgbf000206-resize_3-target.png,125,3.515,2,4824,123,meters,jsons/VE125_randls_6.json,548874,1048996,35,Man
54,876757,DepthScenes,duration_manipulation_targetAtFixation,jsons/VE125_randls_6.json,http://54.235.29.9/FacialAge/BNav_EC2/DepthDuration/v2_depth_duration_MTurk/v2_DepthDuration_HTML.html#91,91,1366,643,1366,768,9-18-2022,11-26-43,55,depth_duration_stimuli/000137_2014-05-20_17-04-49_260595134347_rgbf000120-resize_1/000137_2014-05-20_17-04-49_260595134347_rgbf000120-resize_1-target.png,125,3.786,1,3552,108,meters,jsons/VE125_randls_6.json,548874,1048996,35,Man
55,876757,DepthScenes,duration_manipulation_targetAtFixation,jsons/VE125_randls_6.json,http://54.235.29.9/FacialAge/BNav_EC2/DepthDuration/v2_depth_duration_MTurk/v2_DepthDuration_HTML.html#91,91,1366,643,1366,768,9-18-2022,11-26-43,56,depth_duration_stimuli/001244_2014-06-17_16-47-45_260595134347_rgbf000030-resize_4/001244_2014-06-17_16-47-45_260595134347_rgbf000030-resize_4-target.png,125,2.0425,2,3802,132,meters,jsons/VE125_randls_6.json,548874,1048996,35,Man
56,876757,DepthScenes,duration_manipulation_targetAtFixation,jsons/VE125_randls_6.json,http://54.235.29.9/FacialAge/BNav_EC2/DepthDuration/v2_depth_duration_MTurk/v2_DepthDuration_HTML.html#91,91,1366,643,1366,768,9-18-2022,11-26-43,57,depth_duration_stimuli/003495_2014-05-21_16-01-51_094959634447_rgbf000100-resize_3/003495_2014-05-21_16-01-51_094959634447_rgbf000100-resize_3-target.png,125,1.6255,3,3755,139,meters,jsons/VE125_randls_6.json,548874,1048996,35,Man
57,876757,DepthScenes,duration_manipulation_targetAtFixation,jsons/VE125_randls_6.json,http://54.235.29.9/FacialAge/BNav_EC2/DepthDuration/v2_depth_duration_MTurk/v2_DepthDuration_HTML.html#91,91,1366,643,1366,768,9-18-2022,11-26-43,58,depth_duration_stimuli/002039_2014-06-24_20-22-38_260595134347_rgbf000084-resize_1/002039_2014-06-24_20-22-38_260595134347_rgbf000084-resize_1-target.png,125,4.408,5,4237,135,meters,jsons/VE125_randls_6.json,548874,1048996,35,Man
58,876757,DepthScenes,duration_manipulation_targetAtFixation,jsons/VE125_randls_6.json,http://54.235.29.9/FacialAge/BNav_EC2/DepthDuration/v2_depth_duration_MTurk/v2_DepthDuration_HTML.html#91,91,1366,643,1366,768,9-18-2022,11-26-43,59,depth_duration_stimuli/002103_2014-06-25_20-00-40_260595134347_rgbf000049-resize_0/002103_2014-06-25_20-00-40_260595134347_rgbf000049-resize_0-target.png,125,4.105,4,3834,123,meters,jsons/VE125_randls_6.json,548874,1048996,35,Man
59,876757,DepthScenes,duration_manipulation_targetAtFixation,jsons/VE125_randls_6.json,http://54.235.29.9/FacialAge/BNav_EC2/DepthDuration/v2_depth_duration_MTurk/v2_DepthDuration_HTML.html#91,91,1366,643,1366,768,9-18-2022,11-26-43,60,depth_duration_stimuli/003070_2014-06-15_14-58-27_094959634447_rgbf000150-resize_3/003070_2014-06-15_14-58-27_094959634447_rgbf000150-resize_3-target.png,125,2.9415,3,4001,129,meters,jsons/VE125_randls_6.json,548874,1048996,35,Man
60,876757,DepthScenes,duration_manipulation_targetAtFixation,jsons/VE125_randls_6.json,http://54.235.29.9/FacialAge/BNav_EC2/DepthDuration/v2_depth_duration_MTurk/v2_DepthDuration_HTML.html#91,91,1366,643,1366,768,9-18-2022,11-26-43,61,depth_duration_stimuli/000943_2014-06-09_19-31-07_260595134347_rgbf000128-resize_1/000943_2014-06-09_19-31-07_260595134347_rgbf000128-resize_1-target.png,125,1.9765,3,2452,129,meters,jsons/VE125_randls_6.json,548874,1048996,35,Man
61,876757,DepthScenes,duration_manipulation_targetAtFixation,jsons/VE125_randls_6.json,http://54.235.29.9/FacialAge/BNav_EC2/DepthDuration/v2_depth_duration_MTurk/v2_DepthDuration_HTML.html#91,91,1366,643,1366,768,9-18-2022,11-26-43,62,depth_duration_stimuli/001150_2014-06-17_15-27-34_260595134347_rgbf000108-resize_2/001150_2014-06-17_15-27-34_260595134347_rgbf000108-resize_2-target.png,125,4.0325,3,3708,126,meters,jsons/VE125_randls_6.json,548874,1048996,35,Man
62,876757,DepthScenes,duration_manipulation_targetAtFixation,jsons/VE125_randls_6.json,http://54.235.29.9/FacialAge/BNav_EC2/DepthDuration/v2_depth_duration_MTurk/v2_DepthDuration_HTML.html#91,91,1366,643,1366,768,9-18-2022,11-26-43,63,depth_duration_stimuli/000665_2014-06-09_20-42-35_260595134347_rgbf000110-resize_1/000665_2014-06-09_20-42-35_260595134347_rgbf000110-resize_1-target.png,125,3.057,4,5096,125,meters,jsons/VE125_randls_6.json,548874,1048996,35,Man
63,876757,DepthScenes,duration_manipulation_targetAtFixation,jsons/VE125_randls_6.json,http://54.235.29.9/FacialAge/BNav_EC2/DepthDuration/v2_depth_duration_MTurk/v2_DepthDuration_HTML.html#91,91,1366,643,1366,768,9-18-2022,11-26-43,64,depth_duration_stimuli/000414_2014-06-04_19-49-13_260595134347_rgbf000044-resize_0/000414_2014-06-04_19-49-13_260595134347_rgbf000044-resize_0-target.png,125,4.329,3,3721,123,meters,jsons/VE125_randls_6.json,548874,1048996,35,Man
64,876757,DepthScenes,duration_manipulation_targetAtFixation,jsons/VE125_randls_6.json,http://54.235.29.9/FacialAge/BNav_EC2/DepthDuration/v2_depth_duration_MTurk/v2_DepthDuration_HTML.html#91,91,1366,643,1366,768,9-18-2022,11-26-43,65,depth_duration_stimuli/003129_2014-05-12_10-48-10_094959634447_rgbf000100-resize_0/003129_2014-05-12_10-48-10_094959634447_rgbf000100-resize_0-target.png,125,4.9305,5,2226,124,meters,jsons/VE125_randls_6.json,548874,1048996,35,Man
65,876757,DepthScenes,duration_manipulation_targetAtFixation,jsons/VE125_randls_6.json,http://54.235.29.9/FacialAge/BNav_EC2/DepthDuration/v2_depth_duration_MTurk/v2_DepthDuration_HTML.html#91,91,1366,643,1366,768,9-18-2022,11-26-43,66,depth_duration_stimuli/001222_2014-06-17_16-24-06_260595134347_rgbf000073-resize_0/001222_2014-06-17_16-24-06_260595134347_rgbf000073-resize-original.jpg,125,1.4385,4,3408,123,meters,jsons/VE125_randls_6.json,548874,1048996,35,Man
66,876757,DepthScenes,duration_manipulation_targetAtFixation,jsons/VE125_randls_6.json,http://54.235.29.9/FacialAge/BNav_EC2/DepthDuration/v2_depth_duration_MTurk/v2_DepthDuration_HTML.html#91,91,1366,643,1366,768,9-18-2022,11-26-43,67,depth_duration_stimuli/000368_2014-06-09_15-53-01_260595134347_rgbf000155-resize_2/000368_2014-06-09_15-53-01_260595134347_rgbf000155-resize_2-target.png,125,2.4859999999999998,2,2220,124,meters,jsons/VE125_randls_6.json,548874,1048996,35,Man
67,876757,DepthScenes,duration_manipulation_targetAtFixation,jsons/VE125_randls_6.json,http://54.235.29.9/FacialAge/BNav_EC2/DepthDuration/v2_depth_duration_MTurk/v2_DepthDuration_HTML.html#91,91,1366,643,1366,768,9-18-2022,11-26-43,68,depth_duration_stimuli/002678_2014-06-13_16-15-32_094959634447_rgbf000151-resize_6/002678_2014-06-13_16-15-32_094959634447_rgbf000151-resize_6-target.png,125,2.1830000000000003,2,2229,124,meters,jsons/VE125_randls_6.json,548874,1048996,35,Man
68,876757,DepthScenes,duration_manipulation_targetAtFixation,jsons/VE125_randls_6.json,http://54.235.29.9/FacialAge/BNav_EC2/DepthDuration/v2_depth_duration_MTurk/v2_DepthDuration_HTML.html#91,91,1366,643,1366,768,9-18-2022,11-26-43,69,depth_duration_stimuli/002043_2014-06-24_20-29-38_260595134347_rgbf000039-resize_4/002043_2014-06-24_20-29-38_260595134347_rgbf000039-resize_4-target.png,125,2.8435,3,2927,124,meters,jsons/VE125_randls_6.json,548874,1048996,35,Man
69,876757,DepthScenes,duration_manipulation_targetAtFixation,jsons/VE125_randls_6.json,http://54.235.29.9/FacialAge/BNav_EC2/DepthDuration/v2_depth_duration_MTurk/v2_DepthDuration_HTML.html#91,91,1366,643,1366,768,9-18-2022,11-26-43,70,depth_duration_stimuli/003048_2014-06-15_13-49-43_094959634447_rgbf000150-resize_1/003048_2014-06-15_13-49-43_094959634447_rgbf000150-resize_1-target.png,125,4.0035,4,4275,120,meters,jsons/VE125_randls_6.json,548874,1048996,35,Man
70,876757,DepthScenes,duration_manipulation_targetAtFixation,jsons/VE125_randls_6.json,http://54.235.29.9/FacialAge/BNav_EC2/DepthDuration/v2_depth_duration_MTurk/v2_DepthDuration_HTML.html#91,91,1366,643,1366,768,9-18-2022,11-26-43,71,depth_duration_stimuli/000810_2014-06-08_17-20-01_260595134347_rgbf000105-resize_0/000810_2014-06-08_17-20-01_260595134347_rgbf000105-resize_0-target.png,125,1.4865,5,2131,124,meters,jsons/VE125_randls_6.json,548874,1048996,35,Man
71,876757,DepthScenes,duration_manipulation_targetAtFixation,jsons/VE125_randls_6.json,http://54.235.29.9/FacialAge/BNav_EC2/DepthDuration/v2_depth_duration_MTurk/v2_DepthDuration_HTML.html#91,91,1366,643,1366,768,9-18-2022,11-26-43,72,depth_duration_stimuli/001214_2014-06-17_16-13-55_260595134347_rgbf000111-resize_0/001214_2014-06-17_16-13-55_260595134347_rgbf000111-resize_0-target.png,125,2.6505,2,2084,133,meters,jsons/VE125_randls_6.json,548874,1048996,35,Man
72,876757,DepthScenes,duration_manipulation_targetAtFixation,jsons/VE125_randls_6.json,http://54.235.29.9/FacialAge/BNav_EC2/DepthDuration/v2_depth_duration_MTurk/v2_DepthDuration_HTML.html#91,91,1366,643,1366,768,9-18-2022,11-26-43,73,depth_duration_stimuli/001029_2014-06-08_13-17-57_260595134347_rgbf000065-resize_1/001029_2014-06-08_13-17-57_260595134347_rgbf000065-resize_1-target.png,125,3.0835,3,2554,124,meters,jsons/VE125_randls_6.json,548874,1048996,35,Man
73,876757,DepthScenes,duration_manipulation_targetAtFixation,jsons/VE125_randls_6.json,http://54.235.29.9/FacialAge/BNav_EC2/DepthDuration/v2_depth_duration_MTurk/v2_DepthDuration_HTML.html#91,91,1366,643,1366,768,9-18-2022,11-26-43,74,depth_duration_stimuli/000677_2014-06-08_23-10-32_260595134347_rgbf000158-resize_6/000677_2014-06-08_23-10-32_260595134347_rgbf000158-resize_6-target.png,125,3.556,4,2985,122,meters,jsons/VE125_randls_6.json,548874,1048996,35,Man
74,876757,DepthScenes,duration_manipulation_targetAtFixation,jsons/VE125_randls_6.json,http://54.235.29.9/FacialAge/BNav_EC2/DepthDuration/v2_depth_duration_MTurk/v2_DepthDuration_HTML.html#91,91,1366,643,1366,768,9-18-2022,11-26-43,75,depth_duration_stimuli/000506_2014-06-08_23-21-00_260595134347_rgbf000070-resize_7/000506_2014-06-08_23-21-00_260595134347_rgbf000070-resize_7-target.png,125,4.0585,5,2160,125,meters,jsons/VE125_randls_6.json,548874,1048996,35,Man
75,876757,DepthScenes,duration_manipulation_targetAtFixation,jsons/VE125_randls_6.json,http://54.235.29.9/FacialAge/BNav_EC2/DepthDuration/v2_depth_duration_MTurk/v2_DepthDuration_HTML.html#91,91,1366,643,1366,768,9-18-2022,11-26-43,76,depth_duration_stimuli/003079_2014-06-15_15-18-20_094959634447_rgbf000152-resize_8/003079_2014-06-15_15-18-20_094959634447_rgbf000152-resize_8-target.png,125,2.8775,5,1884,121,meters,jsons/VE125_randls_6.json,548874,1048996,35,Man
76,876757,DepthScenes,duration_manipulation_targetAtFixation,jsons/VE125_randls_6.json,http://54.235.29.9/FacialAge/BNav_EC2/DepthDuration/v2_depth_duration_MTurk/v2_DepthDuration_HTML.html#91,91,1366,643,1366,768,9-18-2022,11-26-43,77,depth_duration_stimuli/001417_2014-06-19_16-25-36_260595134347_rgbf000115-resize_5/001417_2014-06-19_16-25-36_260595134347_rgbf000115-resize_5-target.png,125,4.6255,4,1866,125,meters,jsons/VE125_randls_6.json,548874,1048996,35,Man
77,876757,DepthScenes,duration_manipulation_targetAtFixation,jsons/VE125_randls_6.json,http://54.235.29.9/FacialAge/BNav_EC2/DepthDuration/v2_depth_duration_MTurk/v2_DepthDuration_HTML.html#91,91,1366,643,1366,768,9-18-2022,11-26-43,78,depth_duration_stimuli/003081_2014-06-15_15-19-16_094959634447_rgbf000150-resize_1/003081_2014-06-15_15-19-16_094959634447_rgbf000150-resize_1-target.png,125,3.9125,4,1748,125,meters,jsons/VE125_randls_6.json,548874,1048996,35,Man
78,876757,DepthScenes,duration_manipulation_targetAtFixation,jsons/VE125_randls_6.json,http://54.235.29.9/FacialAge/BNav_EC2/DepthDuration/v2_depth_duration_MTurk/v2_DepthDuration_HTML.html#91,91,1366,643,1366,768,9-18-2022,11-26-43,79,depth_duration_stimuli/003621_2014-05-23_18-06-08_094959634447_rgbf000101-resize_1/003621_2014-05-23_18-06-08_094959634447_rgbf000101-resize_1-target.png,125,3.9835,4,1943,123,meters,jsons/VE125_randls_6.json,548874,1048996,35,Man
79,876757,DepthScenes,duration_manipulation_targetAtFixation,jsons/VE125_randls_6.json,http://54.235.29.9/FacialAge/BNav_EC2/DepthDuration/v2_depth_duration_MTurk/v2_DepthDuration_HTML.html#91,91,1366,643,1366,768,9-18-2022,11-26-43,80,depth_duration_stimuli/001584_2014-06-20_11-07-43_260595134347_rgbf000002-resize_1/001584_2014-06-20_11-07-43_260595134347_rgbf000002-resize_1-target.png,125,3.53,3,2078,125,meters,jsons/VE125_randls_6.json,548874,1048996,35,Man
80,876757,DepthScenes,duration_manipulation_targetAtFixation,jsons/VE125_randls_6.json,http://54.235.29.9/FacialAge/BNav_EC2/DepthDuration/v2_depth_duration_MTurk/v2_DepthDuration_HTML.html#91,91,1366,643,1366,768,9-18-2022,11-26-43,81,depth_duration_stimuli/002375_2014-06-28_20-13-44_260595134347_rgbf000032-resize_1/002375_2014-06-28_20-13-44_260595134347_rgbf000032-resize_1-target.png,125,4.0175,3,1777,121,meters,jsons/VE125_randls_6.json,548874,1048996,35,Man
81,876757,DepthScenes,duration_manipulation_targetAtFixation,jsons/VE125_randls_6.json,http://54.235.29.9/FacialAge/BNav_EC2/DepthDuration/v2_depth_duration_MTurk/v2_DepthDuration_HTML.html#91,91,1366,643,1366,768,9-18-2022,11-26-43,82,depth_duration_stimuli/002657_2014-06-13_15-29-54_094959634447_rgbf000150-resize_1/002657_2014-06-13_15-29-54_094959634447_rgbf000150-resize_1-target.png,125,4.919,3,1762,125,meters,jsons/VE125_randls_6.json,548874,1048996,35,Man
82,876757,DepthScenes,duration_manipulation_targetAtFixation,jsons/VE125_randls_6.json,http://54.235.29.9/FacialAge/BNav_EC2/DepthDuration/v2_depth_duration_MTurk/v2_DepthDuration_HTML.html#91,91,1366,643,1366,768,9-18-2022,11-26-43,83,depth_duration_stimuli/002509_2014-06-24_13-19-22_094959634447_rgbf000077-resize_0/002509_2014-06-24_13-19-22_094959634447_rgbf000077-resize_0-target.png,125,1.3065,2,2107,125,meters,jsons/VE125_randls_6.json,548874,1048996,35,Man
83,876757,DepthScenes,duration_manipulation_targetAtFixation,jsons/VE125_randls_6.json,http://54.235.29.9/FacialAge/BNav_EC2/DepthDuration/v2_depth_duration_MTurk/v2_DepthDuration_HTML.html#91,91,1366,643,1366,768,9-18-2022,11-26-43,84,depth_duration_stimuli/003338_2014-05-20_11-01-23_094959634447_rgbf000051-resize_6/003338_2014-05-20_11-01-23_094959634447_rgbf000051-resize_6-target.png,125,1.693,3,1685,124,meters,jsons/VE125_randls_6.json,548874,1048996,35,Man
84,876757,DepthScenes,duration_manipulation_targetAtFixation,jsons/VE125_randls_6.json,http://54.235.29.9/FacialAge/BNav_EC2/DepthDuration/v2_depth_duration_MTurk/v2_DepthDuration_HTML.html#91,91,1366,643,1366,768,9-18-2022,11-26-43,85,depth_duration_stimuli/002549_2014-06-24_13-41-39_094959634447_rgbf000022-resize_3/002549_2014-06-24_13-41-39_094959634447_rgbf000022-resize_3-target.png,125,1.476,3,1834,124,meters,jsons/VE125_randls_6.json,548874,1048996,35,Man
85,876757,DepthScenes,duration_manipulation_targetAtFixation,jsons/VE125_randls_6.json,http://54.235.29.9/FacialAge/BNav_EC2/DepthDuration/v2_depth_duration_MTurk/v2_DepthDuration_HTML.html#91,91,1366,643,1366,768,9-18-2022,11-26-43,86,depth_duration_stimuli/002750_2014-06-22_19-08-03_094959634447_rgbf000094-resize_4/002750_2014-06-22_19-08-03_094959634447_rgbf000094-resize_4-target.png,125,2.354,3,1978,124,meters,jsons/VE125_randls_6.json,548874,1048996,35,Man
86,876757,DepthScenes,duration_manipulation_targetAtFixation,jsons/VE125_randls_6.json,http://54.235.29.9/FacialAge/BNav_EC2/DepthDuration/v2_depth_duration_MTurk/v2_DepthDuration_HTML.html#91,91,1366,643,1366,768,9-18-2022,11-26-43,87,depth_duration_stimuli/002057_2014-06-24_21-00-13_260595134347_rgbf000120-resize_1/002057_2014-06-24_21-00-13_260595134347_rgbf000120-resize_1-target.png,125,2.967,3,1854,125,meters,jsons/VE125_randls_6.json,548874,1048996,35,Man
87,876757,DepthScenes,duration_manipulation_targetAtFixation,jsons/VE125_randls_6.json,http://54.235.29.9/FacialAge/BNav_EC2/DepthDuration/v2_depth_duration_MTurk/v2_DepthDuration_HTML.html#91,91,1366,643,1366,768,9-18-2022,11-26-43,88,depth_duration_stimuli/000709_2014-06-08_13-51-55_260595134347_rgbf000068-resize_3/000709_2014-06-08_13-51-55_260595134347_rgbf000068-resize_3-target.png,125,1.8030000000000002,2,1935,136,meters,jsons/VE125_randls_6.json,548874,1048996,35,Man
88,876757,DepthScenes,duration_manipulation_targetAtFixation,jsons/VE125_randls_6.json,http://54.235.29.9/FacialAge/BNav_EC2/DepthDuration/v2_depth_duration_MTurk/v2_DepthDuration_HTML.html#91,91,1366,643,1366,768,9-18-2022,11-26-43,89,depth_duration_stimuli/000773_2014-06-08_22-24-54_260595134347_rgbf000093-resize_1/000773_2014-06-08_22-24-54_260595134347_rgbf000093-resize_1-target.png,125,4.973,2,1977,124,meters,jsons/VE125_randls_6.json,548874,1048996,35,Man
89,876757,DepthScenes,duration_manipulation_targetAtFixation,jsons/VE125_randls_6.json,http://54.235.29.9/FacialAge/BNav_EC2/DepthDuration/v2_depth_duration_MTurk/v2_DepthDuration_HTML.html#91,91,1366,643,1366,768,9-18-2022,11-26-43,90,depth_duration_stimuli/002414_2014-06-28_20-24-58_260595134347_rgbf000067-resize_4/002414_2014-06-28_20-24-58_260595134347_rgbf000067-resize_4-target.png,125,4.363,3,1700,123,meters,jsons/VE125_randls_6.json,548874,1048996,35,Man
90,876757,DepthScenes,duration_manipulation_targetAtFixation,jsons/VE125_randls_6.json,http://54.235.29.9/FacialAge/BNav_EC2/DepthDuration/v2_depth_duration_MTurk/v2_DepthDuration_HTML.html#91,91,1366,643,1366,768,9-18-2022,11-26-43,91,depth_duration_stimuli/000906_2014-06-08_13-35-43_260595134347_rgbf000155-resize_1/000906_2014-06-08_13-35-43_260595134347_rgbf000155-resize_1-target.png,125,2.8489999999999998,3,1705,125,meters,jsons/VE125_randls_6.json,548874,1048996,35,Man
91,876757,DepthScenes,duration_manipulation_targetAtFixation,jsons/VE125_randls_6.json,http://54.235.29.9/FacialAge/BNav_EC2/DepthDuration/v2_depth_duration_MTurk/v2_DepthDuration_HTML.html#91,91,1366,643,1366,768,9-18-2022,11-26-43,92,depth_duration_stimuli/002805_2014-06-22_19-54-03_094959634447_rgbf000079-resize_1/002805_2014-06-22_19-54-03_094959634447_rgbf000079-resize_1-target.png,125,3.1439999999999997,5,3454,125,meters,jsons/VE125_randls_6.json,548874,1048996,35,Man
92,876757,DepthScenes,duration_manipulation_targetAtFixation,jsons/VE125_randls_6.json,http://54.235.29.9/FacialAge/BNav_EC2/DepthDuration/v2_depth_duration_MTurk/v2_DepthDuration_HTML.html#91,91,1366,643,1366,768,9-18-2022,11-26-43,93,depth_duration_stimuli/002570_2014-06-24_13-59-54_094959634447_rgbf000059-resize_0/002570_2014-06-24_13-59-54_094959634447_rgbf000059-resize_0-target.png,125,4.037,4,2223,125,meters,jsons/VE125_randls_6.json,548874,1048996,35,Man
93,876757,DepthScenes,duration_manipulation_targetAtFixation,jsons/VE125_randls_6.json,http://54.235.29.9/FacialAge/BNav_EC2/DepthDuration/v2_depth_duration_MTurk/v2_DepthDuration_HTML.html#91,91,1366,643,1366,768,9-18-2022,11-26-43,94,depth_duration_stimuli/002467_2014-06-28_20-38-07_260595134347_rgbf000026-resize_2/002467_2014-06-28_20-38-07_260595134347_rgbf000026-resize_2-target.png,125,4.742,2,5391,124,meters,jsons/VE125_randls_6.json,548874,1048996,35,Man
94,876757,DepthScenes,duration_manipulation_targetAtFixation,jsons/VE125_randls_6.json,http://54.235.29.9/FacialAge/BNav_EC2/DepthDuration/v2_depth_duration_MTurk/v2_DepthDuration_HTML.html#91,91,1366,643,1366,768,9-18-2022,11-26-43,95,depth_duration_stimuli/001806_2014-06-26_20-50-20_260595134347_rgbf000091-resize_1/001806_2014-06-26_20-50-20_260595134347_rgbf000091-resize_1-target.png,125,2.7305,3,2376,121,meters,jsons/VE125_randls_6.json,548874,1048996,35,Man
95,876757,DepthScenes,duration_manipulation_targetAtFixation,jsons/VE125_randls_6.json,http://54.235.29.9/FacialAge/BNav_EC2/DepthDuration/v2_depth_duration_MTurk/v2_DepthDuration_HTML.html#91,91,1366,643,1366,768,9-18-2022,11-26-43,96,depth_duration_stimuli/001617_2014-06-20_11-35-32_260595134347_rgbf000066-resize_1/001617_2014-06-20_11-35-32_260595134347_rgbf000066-resize_1-target.png,125,3.7910000000000004,2,2395,125,meters,jsons/VE125_randls_6.json,548874,1048996,35,Man
96,876757,DepthScenes,duration_manipulation_targetAtFixation,jsons/VE125_randls_6.json,http://54.235.29.9/FacialAge/BNav_EC2/DepthDuration/v2_depth_duration_MTurk/v2_DepthDuration_HTML.html#91,91,1366,643,1366,768,9-18-2022,11-26-43,97,depth_duration_stimuli/002153_2014-06-25_21-27-18_260595134347_rgbf000038-resize_5/002153_2014-06-25_21-27-18_260595134347_rgbf000038-resize_5-target.png,125,2.505,3,1997,124,meters,jsons/VE125_randls_6.json,548874,1048996,35,Man
97,876757,DepthScenes,duration_manipulation_targetAtFixation,jsons/VE125_randls_6.json,http://54.235.29.9/FacialAge/BNav_EC2/DepthDuration/v2_depth_duration_MTurk/v2_DepthDuration_HTML.html#91,91,1366,643,1366,768,9-18-2022,11-26-43,98,depth_duration_stimuli/002660_2014-06-13_15-44-18_094959634447_rgbf001878-resize_2/002660_2014-06-13_15-44-18_094959634447_rgbf001878-resize_2-target.png,125,3.576,2,2270,124,meters,jsons/VE125_randls_6.json,548874,1048996,35,Man
98,876757,DepthScenes,duration_manipulation_targetAtFixation,jsons/VE125_randls_6.json,http://54.235.29.9/FacialAge/BNav_EC2/DepthDuration/v2_depth_duration_MTurk/v2_DepthDuration_HTML.html#91,91,1366,643,1366,768,9-18-2022,11-26-43,99,depth_duration_stimuli/001540_2014-06-20_17-01-05_260595134347_rgbf000086-resize_2/001540_2014-06-20_17-01-05_260595134347_rgbf000086-resize-original.jpg,125,1.459,4,2761,124,meters,jsons/VE125_randls_6.json,548874,1048996,35,Man
99,876757,DepthScenes,duration_manipulation_targetAtFixation,jsons/VE125_randls_6.json,http://54.235.29.9/FacialAge/BNav_EC2/DepthDuration/v2_depth_duration_MTurk/v2_DepthDuration_HTML.html#91,91,1366,643,1366,768,9-18-2022,11-26-43,100,depth_duration_stimuli/001055_2014-06-08_18-45-35_260595134347_rgbf000111-resize_4/001055_2014-06-08_18-45-35_260595134347_rgbf000111-resize_4-target.png,125,2.4290000000000003,4,2103,128,meters,jsons/VE125_randls_6.json,548874,1048996,35,Man
100,876757,DepthScenes,duration_manipulation_targetAtFixation,jsons/VE125_randls_6.json,http://54.235.29.9/FacialAge/BNav_EC2/DepthDuration/v2_depth_duration_MTurk/v2_DepthDuration_HTML.html#91,91,1366,643,1366,768,9-18-2022,11-26-43,101,depth_duration_stimuli/000549_2014-06-08_22-10-24_260595134347_rgbf000247-resize_3/000549_2014-06-08_22-10-24_260595134347_rgbf000247-resize_3-target.png,125,1.841,3,1917,124,meters,jsons/VE125_randls_6.json,548874,1048996,35,Man
101,876757,DepthScenes,duration_manipulation_targetAtFixation,jsons/VE125_randls_6.json,http://54.235.29.9/FacialAge/BNav_EC2/DepthDuration/v2_depth_duration_MTurk/v2_DepthDuration_HTML.html#91,91,1366,643,1366,768,9-18-2022,11-26-43,102,depth_duration_stimuli/000470_2014-06-09_19-42-40_260595134347_rgbf000094-resize_1/000470_2014-06-09_19-42-40_260595134347_rgbf000094-resize_1-target.png,125,1.831,3,1758,125,meters,jsons/VE125_randls_6.json,548874,1048996,35,Man
102,876757,DepthScenes,duration_manipulation_targetAtFixation,jsons/VE125_randls_6.json,http://54.235.29.9/FacialAge/BNav_EC2/DepthDuration/v2_depth_duration_MTurk/v2_DepthDuration_HTML.html#91,91,1366,643,1366,768,9-18-2022,11-26-43,103,depth_duration_stimuli/000109_2014-05-14_23-41-52_260595134347_rgbf000035-resize_9/000109_2014-05-14_23-41-52_260595134347_rgbf000035-resize_9-target.png,125,1.3545,3,1741,125,meters,jsons/VE125_randls_6.json,548874,1048996,35,Man
103,876757,DepthScenes,duration_manipulation_targetAtFixation,jsons/VE125_randls_6.json,http://54.235.29.9/FacialAge/BNav_EC2/DepthDuration/v2_depth_duration_MTurk/v2_DepthDuration_HTML.html#91,91,1366,643,1366,768,9-18-2022,11-26-43,104,depth_duration_stimuli/000469_2014-06-09_19-42-10_260595134347_rgbf000081-resize_1/000469_2014-06-09_19-42-10_260595134347_rgbf000081-resize_1-target.png,125,1.652,2,1716,125,meters,jsons/VE125_randls_6.json,548874,1048996,35,Man
104,876757,DepthScenes,duration_manipulation_targetAtFixation,jsons/VE125_randls_6.json,http://54.235.29.9/FacialAge/BNav_EC2/DepthDuration/v2_depth_duration_MTurk/v2_DepthDuration_HTML.html#91,91,1366,643,1366,768,9-18-2022,11-26-43,105,depth_duration_stimuli/000483_2014-06-09_20-41-45_260595134347_rgbf000116-resize_4/000483_2014-06-09_20-41-45_260595134347_rgbf000116-resize_4-target.png,125,1.337,2,1841,142,meters,jsons/VE125_randls_6.json,548874,1048996,35,Man
105,876757,DepthScenes,duration_manipulation_targetAtFixation,jsons/VE125_randls_6.json,http://54.235.29.9/FacialAge/BNav_EC2/DepthDuration/v2_depth_duration_MTurk/v2_DepthDuration_HTML.html#91,91,1366,643,1366,768,9-18-2022,11-26-43,106,depth_duration_stimuli/001164_2014-06-17_15-35-46_260595134347_rgbf000085-resize_3/001164_2014-06-17_15-35-46_260595134347_rgbf000085-resize_3-target.png,125,2.354,3,1795,123,meters,jsons/VE125_randls_6.json,548874,1048996,35,Man
106,876757,DepthScenes,duration_manipulation_targetAtFixation,jsons/VE125_randls_6.json,http://54.235.29.9/FacialAge/BNav_EC2/DepthDuration/v2_depth_duration_MTurk/v2_DepthDuration_HTML.html#91,91,1366,643,1366,768,9-18-2022,11-26-43,107,depth_duration_stimuli/001136_2014-06-17_15-19-41_260595134347_rgbf000076-resize_3/001136_2014-06-17_15-19-41_260595134347_rgbf000076-resize_3-target.png,125,1.8655,2,2248,124,meters,jsons/VE125_randls_6.json,548874,1048996,35,Man
107,876757,DepthScenes,duration_manipulation_targetAtFixation,jsons/VE125_randls_6.json,http://54.235.29.9/FacialAge/BNav_EC2/DepthDuration/v2_depth_duration_MTurk/v2_DepthDuration_HTML.html#91,91,1366,643,1366,768,9-18-2022,11-26-43,108,depth_duration_stimuli/003292_2014-05-14_21-53-49_094959634447_rgbf000100-resize_2/003292_2014-05-14_21-53-49_094959634447_rgbf000100-resize_2-target.png,125,3.4815,2,1811,124,meters,jsons/VE125_randls_6.json,548874,1048996,35,Man
108,876757,DepthScenes,duration_manipulation_targetAtFixation,jsons/VE125_randls_6.json,http://54.235.29.9/FacialAge/BNav_EC2/DepthDuration/v2_depth_duration_MTurk/v2_DepthDuration_HTML.html#91,91,1366,643,1366,768,9-18-2022,11-26-43,109,depth_duration_stimuli/002639_2014-06-24_14-51-37_094959634447_rgbf000074-resize_4/002639_2014-06-24_14-51-37_094959634447_rgbf000074-resize_4-target.png,125,4.0375,3,1858,124,meters,jsons/VE125_randls_6.json,548874,1048996,35,Man
109,876757,DepthScenes,duration_manipulation_targetAtFixation,jsons/VE125_randls_6.json,http://54.235.29.9/FacialAge/BNav_EC2/DepthDuration/v2_depth_duration_MTurk/v2_DepthDuration_HTML.html#91,91,1366,643,1366,768,9-18-2022,11-26-43,110,depth_duration_stimuli/002725_2014-06-22_11-47-51_094959634447_rgbf000070-resize_1/002725_2014-06-22_11-47-51_094959634447_rgbf000070-resize_1-target.png,125,2.195,3,1932,140,meters,jsons/VE125_randls_6.json,548874,1048996,35,Man
110,876757,DepthScenes,duration_manipulation_targetAtFixation,jsons/VE125_randls_6.json,http://54.235.29.9/FacialAge/BNav_EC2/DepthDuration/v2_depth_duration_MTurk/v2_DepthDuration_HTML.html#91,91,1366,643,1366,768,9-18-2022,11-26-43,111,depth_duration_stimuli/002344_2014-06-28_20-06-29_260595134347_rgbf000030-resize_1/002344_2014-06-28_20-06-29_260595134347_rgbf000030-resize_1-target.png,125,1.5795,2,1709,124,meters,jsons/VE125_randls_6.json,548874,1048996,35,Man
111,876757,DepthScenes,duration_manipulation_targetAtFixation,jsons/VE125_randls_6.json,http://54.235.29.9/FacialAge/BNav_EC2/DepthDuration/v2_depth_duration_MTurk/v2_DepthDuration_HTML.html#91,91,1366,643,1366,768,9-18-2022,11-26-43,112,depth_duration_stimuli/000929_2014-06-09_16-33-19_260595134347_rgbf000139-resize_0/000929_2014-06-09_16-33-19_260595134347_rgbf000139-resize_0-target.png,125,2.8680000000000003,2,1868,124,meters,jsons/VE125_randls_6.json,548874,1048996,35,Man
112,876757,DepthScenes,duration_manipulation_targetAtFixation,jsons/VE125_randls_6.json,http://54.235.29.9/FacialAge/BNav_EC2/DepthDuration/v2_depth_duration_MTurk/v2_DepthDuration_HTML.html#91,91,1366,643,1366,768,9-18-2022,11-26-43,113,depth_duration_stimuli/000457_2014-06-08_16-52-43_260595134347_rgbf000199-resize_1/000457_2014-06-08_16-52-43_260595134347_rgbf000199-resize_1-target.png,125,3.6489999999999996,4,1892,140,meters,jsons/VE125_randls_6.json,548874,1048996,35,Man
113,876757,DepthScenes,duration_manipulation_targetAtFixation,jsons/VE125_randls_6.json,http://54.235.29.9/FacialAge/BNav_EC2/DepthDuration/v2_depth_duration_MTurk/v2_DepthDuration_HTML.html#91,91,1366,643,1366,768,9-18-2022,11-26-43,114,depth_duration_stimuli/002279_2014-06-28_18-55-32_260595134347_rgbf000040-resize_5/002279_2014-06-28_18-55-32_260595134347_rgbf000040-resize_5-target.png,125,1.5043333333333,3,1885,118,meters,jsons/VE125_randls_6.json,548874,1048996,35,Man
114,876757,DepthScenes,duration_manipulation_targetAtFixation,jsons/VE125_randls_6.json,http://54.235.29.9/FacialAge/BNav_EC2/DepthDuration/v2_depth_duration_MTurk/v2_DepthDuration_HTML.html#91,91,1366,643,1366,768,9-18-2022,11-26-43,115,depth_duration_stimuli/000635_2014-06-08_16-38-42_260595134347_rgbf000106-resize_1/000635_2014-06-08_16-38-42_260595134347_rgbf000106-resize_1-target.png,125,2.074,3,2063,137,meters,jsons/VE125_randls_6.json,548874,1048996,35,Man
115,876757,DepthScenes,duration_manipulation_targetAtFixation,jsons/VE125_randls_6.json,http://54.235.29.9/FacialAge/BNav_EC2/DepthDuration/v2_depth_duration_MTurk/v2_DepthDuration_HTML.html#91,91,1366,643,1366,768,9-18-2022,11-26-43,116,depth_duration_stimuli/001170_2014-06-17_15-43-44_260595134347_rgbf000096-resize_6/001170_2014-06-17_15-43-44_260595134347_rgbf000096-resize-original.jpg,125,1.1909999999999998,2,1741,124,meters,jsons/VE125_randls_6.json,548874,1048996,35,Man
116,876757,DepthScenes,duration_manipulation_targetAtFixation,jsons/VE125_randls_6.json,http://54.235.29.9/FacialAge/BNav_EC2/DepthDuration/v2_depth_duration_MTurk/v2_DepthDuration_HTML.html#91,91,1366,643,1366,768,9-18-2022,11-26-43,117,depth_duration_stimuli/000692_2014-06-08_13-09-42_260595134347_rgbf000199-resize_2/000692_2014-06-08_13-09-42_260595134347_rgbf000199-resize_2-target.png,125,3.661,5,1763,125,meters,jsons/VE125_randls_6.json,548874,1048996,35,Man
117,876757,DepthScenes,duration_manipulation_targetAtFixation,jsons/VE125_randls_6.json,http://54.235.29.9/FacialAge/BNav_EC2/DepthDuration/v2_depth_duration_MTurk/v2_DepthDuration_HTML.html#91,91,1366,643,1366,768,9-18-2022,11-26-43,118,depth_duration_stimuli/001094_2014-06-15_17-36-00_260595134347_rgbf000205-resize_0/001094_2014-06-15_17-36-00_260595134347_rgbf000205-resize_0-target.png,125,4.2175,4,1608,123,meters,jsons/VE125_randls_6.json,548874,1048996,35,Man
118,876757,DepthScenes,duration_manipulation_targetAtFixation,jsons/VE125_randls_6.json,http://54.235.29.9/FacialAge/BNav_EC2/DepthDuration/v2_depth_duration_MTurk/v2_DepthDuration_HTML.html#91,91,1366,643,1366,768,9-18-2022,11-26-43,119,depth_duration_stimuli/001199_2014-06-17_16-03-48_260595134347_rgbf000077-resize_0/001199_2014-06-17_16-03-48_260595134347_rgbf000077-resize_0-target.png,125,3.4375,3,2556,109,meters,jsons/VE125_randls_6.json,548874,1048996,35,Man
119,876757,DepthScenes,duration_manipulation_targetAtFixation,jsons/VE125_randls_6.json,http://54.235.29.9/FacialAge/BNav_EC2/DepthDuration/v2_depth_duration_MTurk/v2_DepthDuration_HTML.html#91,91,1366,643,1366,768,9-18-2022,11-26-43,120,depth_duration_stimuli/000502_2014-06-08_23-02-32_260595134347_rgbf000063-resize_4/000502_2014-06-08_23-02-32_260595134347_rgbf000063-resize_4-target.png,125,2.431,3,1678,129,meters,jsons/VE125_randls_6.json,548874,1048996,35,Man
120,876757,DepthScenes,duration_manipulation_targetAtFixation,jsons/VE125_randls_6.json,http://54.235.29.9/FacialAge/BNav_EC2/DepthDuration/v2_depth_duration_MTurk/v2_DepthDuration_HTML.html#91,91,1366,643,1366,768,9-18-2022,11-26-43,121,depth_duration_stimuli/002788_2014-06-22_19-36-03_094959634447_rgbf000088-resize_2/002788_2014-06-22_19-36-03_094959634447_rgbf000088-resize_2-target.png,125,1.6465,3,2058,136,meters,jsons/VE125_randls_6.json,548874,1048996,35,Man
121,876757,DepthScenes,duration_manipulation_targetAtFixation,jsons/VE125_randls_6.json,http://54.235.29.9/FacialAge/BNav_EC2/DepthDuration/v2_depth_duration_MTurk/v2_DepthDuration_HTML.html#91,91,1366,643,1366,768,9-18-2022,11-26-43,122,depth_duration_stimuli/000749_2014-06-08_21-55-06_260595134347_rgbf000070-resize_2/000749_2014-06-08_21-55-06_260595134347_rgbf000070-resize_2-target.png,125,2.331,4,1775,125,meters,jsons/VE125_randls_6.json,548874,1048996,35,Man
122,876757,DepthScenes,duration_manipulation_targetAtFixation,jsons/VE125_randls_6.json,http://54.235.29.9/FacialAge/BNav_EC2/DepthDuration/v2_depth_duration_MTurk/v2_DepthDuration_HTML.html#91,91,1366,643,1366,768,9-18-2022,11-26-43,123,depth_duration_stimuli/001092_2014-06-15_17-34-58_260595134347_rgbf000171-resize_3/001092_2014-06-15_17-34-58_260595134347_rgbf000171-resize_3-target.png,125,2.6935,2,1598,126,meters,jsons/VE125_randls_6.json,548874,1048996,35,Man
123,876757,DepthScenes,duration_manipulation_targetAtFixation,jsons/VE125_randls_6.json,http://54.235.29.9/FacialAge/BNav_EC2/DepthDuration/v2_depth_duration_MTurk/v2_DepthDuration_HTML.html#91,91,1366,643,1366,768,9-18-2022,11-26-43,124,depth_duration_stimuli/002545_2014-06-24_13-38-53_094959634447_rgbf000080-resize_4/002545_2014-06-24_13-38-53_094959634447_rgbf000080-resize_4-target.png,125,1.9205,4,1529,117,meters,jsons/VE125_randls_6.json,548874,1048996,35,Man
124,876757,DepthScenes,duration_manipulation_targetAtFixation,jsons/VE125_randls_6.json,http://54.235.29.9/FacialAge/BNav_EC2/DepthDuration/v2_depth_duration_MTurk/v2_DepthDuration_HTML.html#91,91,1366,643,1366,768,9-18-2022,11-26-43,125,depth_duration_stimuli/002989_2014-06-15_12-25-03_094959634447_rgbf000150-resize_3/002989_2014-06-15_12-25-03_094959634447_rgbf000150-resize_3-target.png,125,4.1975,5,1786,108,meters,jsons/VE125_randls_6.json,548874,1048996,35,Man
125,876757,DepthScenes,duration_manipulation_targetAtFixation,jsons/VE125_randls_6.json,http://54.235.29.9/FacialAge/BNav_EC2/DepthDuration/v2_depth_duration_MTurk/v2_DepthDuration_HTML.html#91,91,1366,643,1366,768,9-18-2022,11-26-43,126,depth_duration_stimuli/000866_2014-06-09_20-45-42_260595134347_rgbf000139-resize_1/000866_2014-06-09_20-45-42_260595134347_rgbf000139-resize_1-target.png,125,3.2155,2,1841,131,meters,jsons/VE125_randls_6.json,548874,1048996,35,Man
126,876757,DepthScenes,duration_manipulation_targetAtFixation,jsons/VE125_randls_6.json,http://54.235.29.9/FacialAge/BNav_EC2/DepthDuration/v2_depth_duration_MTurk/v2_DepthDuration_HTML.html#91,91,1366,643,1366,768,9-18-2022,11-26-43,127,depth_duration_stimuli/000878_2014-06-08_22-52-45_260595134347_rgbf000045-resize_2/000878_2014-06-08_22-52-45_260595134347_rgbf000045-resize_2-target.png,125,2.092,4,1770,125,meters,jsons/VE125_randls_6.json,548874,1048996,35,Man
127,876757,DepthScenes,duration_manipulation_targetAtFixation,jsons/VE125_randls_6.json,http://54.235.29.9/FacialAge/BNav_EC2/DepthDuration/v2_depth_duration_MTurk/v2_DepthDuration_HTML.html#91,91,1366,643,1366,768,9-18-2022,11-26-43,128,depth_duration_stimuli/002953_2014-06-08_17-32-18_094959634447_rgbf000059-resize_5/002953_2014-06-08_17-32-18_094959634447_rgbf000059-resize_5-target.png,125,1.551,3,1856,113,meters,jsons/VE125_randls_6.json,548874,1048996,35,Man
128,876757,DepthScenes,duration_manipulation_targetAtFixation,jsons/VE125_randls_6.json,http://54.235.29.9/FacialAge/BNav_EC2/DepthDuration/v2_depth_duration_MTurk/v2_DepthDuration_HTML.html#91,91,1366,643,1366,768,9-18-2022,11-26-43,129,depth_duration_stimuli/000447_2014-06-08_16-15-46_260595134347_rgbf000130-resize_1/000447_2014-06-08_16-15-46_260595134347_rgbf000130-resize_1-target.png,125,4.479,2,2326,120,meters,jsons/VE125_randls_6.json,548874,1048996,35,Man
129,876757,DepthScenes,duration_manipulation_targetAtFixation,jsons/VE125_randls_6.json,http://54.235.29.9/FacialAge/BNav_EC2/DepthDuration/v2_depth_duration_MTurk/v2_DepthDuration_HTML.html#91,91,1366,643,1366,768,9-18-2022,11-26-43,130,depth_duration_stimuli/001447_2014-06-19_17-00-32_260595134347_rgbf000082-resize_5/001447_2014-06-19_17-00-32_260595134347_rgbf000082-resize_5-target.png,125,4.13775,4,1868,130,meters,jsons/VE125_randls_6.json,548874,1048996,35,Man
130,876757,DepthScenes,duration_manipulation_targetAtFixation,jsons/VE125_randls_6.json,http://54.235.29.9/FacialAge/BNav_EC2/DepthDuration/v2_depth_duration_MTurk/v2_DepthDuration_HTML.html#91,91,1366,643,1366,768,9-18-2022,11-26-43,131,depth_duration_stimuli/000493_2014-06-09_21-01-18_260595134347_rgbf000196-resize_3/000493_2014-06-09_21-01-18_260595134347_rgbf000196-resize_3-target.png,125,3.44,5,1646,125,meters,jsons/VE125_randls_6.json,548874,1048996,35,Man
131,876757,DepthScenes,duration_manipulation_targetAtFixation,jsons/VE125_randls_6.json,http://54.235.29.9/FacialAge/BNav_EC2/DepthDuration/v2_depth_duration_MTurk/v2_DepthDuration_HTML.html#91,91,1366,643,1366,768,9-18-2022,11-26-43,132,depth_duration_stimuli/000191_2014-05-12_17-07-38_260595134347_rgbf000199-resize_0/000191_2014-05-12_17-07-38_260595134347_rgbf000199-resize_0-target.png,125,3.7995,3,2403,108,meters,jsons/VE125_randls_6.json,548874,1048996,35,Man
132,876757,DepthScenes,duration_manipulation_targetAtFixation,jsons/VE125_randls_6.json,http://54.235.29.9/FacialAge/BNav_EC2/DepthDuration/v2_depth_duration_MTurk/v2_DepthDuration_HTML.html#91,91,1366,643,1366,768,9-18-2022,11-26-43,133,depth_duration_stimuli/001059_2014-06-08_21-53-27_260595134347_rgbf000061-resize_4/001059_2014-06-08_21-53-27_260595134347_rgbf000061-resize_4-target.png,125,2.4185,5,2514,124,meters,jsons/VE125_randls_6.json,548874,1048996,35,Man
133,876757,DepthScenes,duration_manipulation_targetAtFixation,jsons/VE125_randls_6.json,http://54.235.29.9/FacialAge/BNav_EC2/DepthDuration/v2_depth_duration_MTurk/v2_DepthDuration_HTML.html#91,91,1366,643,1366,768,9-18-2022,11-26-43,134,depth_duration_stimuli/001032_2014-06-08_13-23-17_260595134347_rgbf000021-resize_3/001032_2014-06-08_13-23-17_260595134347_rgbf000021-resize_3-target.png,125,3.2725,4,2457,124,meters,jsons/VE125_randls_6.json,548874,1048996,35,Man
134,876757,DepthScenes,duration_manipulation_targetAtFixation,jsons/VE125_randls_6.json,http://54.235.29.9/FacialAge/BNav_EC2/DepthDuration/v2_depth_duration_MTurk/v2_DepthDuration_HTML.html#91,91,1366,643,1366,768,9-18-2022,11-26-43,135,depth_duration_stimuli/002072_2014-06-24_21-48-06_260595134347_rgbf000115-resize_0/002072_2014-06-24_21-48-06_260595134347_rgbf000115-resize-original.jpg,125,4.702,3,1960,122,meters,jsons/VE125_randls_6.json,548874,1048996,35,Man
135,876757,DepthScenes,duration_manipulation_targetAtFixation,jsons/VE125_randls_6.json,http://54.235.29.9/FacialAge/BNav_EC2/DepthDuration/v2_depth_duration_MTurk/v2_DepthDuration_HTML.html#91,91,1366,643,1366,768,9-18-2022,11-26-43,136,depth_duration_stimuli/001066_2014-06-08_22-03-20_260595134347_rgbf000066-resize_4/001066_2014-06-08_22-03-20_260595134347_rgbf000066-resize_4-target.png,125,4.2330000000000005,2,2334,125,meters,jsons/VE125_randls_6.json,548874,1048996,35,Man
136,876757,DepthScenes,duration_manipulation_targetAtFixation,jsons/VE125_randls_6.json,http://54.235.29.9/FacialAge/BNav_EC2/DepthDuration/v2_depth_duration_MTurk/v2_DepthDuration_HTML.html#91,91,1366,643,1366,768,9-18-2022,11-26-43,137,depth_duration_stimuli/000742_2014-06-08_18-48-09_260595134347_rgbf000164-resize_4/000742_2014-06-08_18-48-09_260595134347_rgbf000164-resize_4-target.png,125,4.632,5,1880,125,meters,jsons/VE125_randls_6.json,548874,1048996,35,Man
137,876757,DepthScenes,duration_manipulation_targetAtFixation,jsons/VE125_randls_6.json,http://54.235.29.9/FacialAge/BNav_EC2/DepthDuration/v2_depth_duration_MTurk/v2_DepthDuration_HTML.html#91,91,1366,643,1366,768,9-18-2022,11-26-43,138,depth_duration_stimuli/001056_2014-06-08_18-46-44_260595134347_rgbf000068-resize_0/001056_2014-06-08_18-46-44_260595134347_rgbf000068-resize_0-target.png,125,2.6625,4,2286,124,meters,jsons/VE125_randls_6.json,548874,1048996,35,Man
138,876757,DepthScenes,duration_manipulation_targetAtFixation,jsons/VE125_randls_6.json,http://54.235.29.9/FacialAge/BNav_EC2/DepthDuration/v2_depth_duration_MTurk/v2_DepthDuration_HTML.html#91,91,1366,643,1366,768,9-18-2022,11-26-43,139,depth_duration_stimuli/002199_2014-06-28_18-33-56_260595134347_rgbf000074-resize_0/002199_2014-06-28_18-33-56_260595134347_rgbf000074-resize_0-target.png,125,1.996,3,2028,124,meters,jsons/VE125_randls_6.json,548874,1048996,35,Man
139,876757,DepthScenes,duration_manipulation_targetAtFixation,jsons/VE125_randls_6.json,http://54.235.29.9/FacialAge/BNav_EC2/DepthDuration/v2_depth_duration_MTurk/v2_DepthDuration_HTML.html#91,91,1366,643,1366,768,9-18-2022,11-26-43,140,depth_duration_stimuli/000436_2014-06-09_22-25-11_260595134347_rgbf000137-resize_1/000436_2014-06-09_22-25-11_260595134347_rgbf000137-resize_1-target.png,125,4.0705,3,3145,125,meters,jsons/VE125_randls_6.json,548874,1048996,35,Man
140,876757,DepthScenes,duration_manipulation_targetAtFixation,jsons/VE125_randls_6.json,http://54.235.29.9/FacialAge/BNav_EC2/DepthDuration/v2_depth_duration_MTurk/v2_DepthDuration_HTML.html#91,91,1366,643,1366,768,9-18-2022,11-26-43,141,depth_duration_stimuli/002444_2014-06-28_20-32-08_260595134347_rgbf000027-resize_0/002444_2014-06-28_20-32-08_260595134347_rgbf000027-resize_0-target.png,125,4.388999999999999,2,3463,55,meters,jsons/VE125_randls_6.json,548874,1048996,35,Man
141,876757,DepthScenes,duration_manipulation_targetAtFixation,jsons/VE125_randls_6.json,http://54.235.29.9/FacialAge/BNav_EC2/DepthDuration/v2_depth_duration_MTurk/v2_DepthDuration_HTML.html#91,91,1366,643,1366,768,9-18-2022,11-26-43,142,depth_duration_stimuli/001158_2014-06-17_15-32-16_260595134347_rgbf000138-resize_2/001158_2014-06-17_15-32-16_260595134347_rgbf000138-resize_2-target.png,125,4.5315,3,4291,123,meters,jsons/VE125_randls_6.json,548874,1048996,35,Man
142,876757,DepthScenes,duration_manipulation_targetAtFixation,jsons/VE125_randls_6.json,http://54.235.29.9/FacialAge/BNav_EC2/DepthDuration/v2_depth_duration_MTurk/v2_DepthDuration_HTML.html#91,91,1366,643,1366,768,9-18-2022,11-26-43,143,depth_duration_stimuli/000556_2014-06-09_22-42-56_260595134347_rgbf000214-resize_1/000556_2014-06-09_22-42-56_260595134347_rgbf000214-resize_1-target.png,125,4.8415,3,1701,127,meters,jsons/VE125_randls_6.json,548874,1048996,35,Man
143,876757,DepthScenes,duration_manipulation_targetAtFixation,jsons/VE125_randls_6.json,http://54.235.29.9/FacialAge/BNav_EC2/DepthDuration/v2_depth_duration_MTurk/v2_DepthDuration_HTML.html#91,91,1366,643,1366,768,9-18-2022,11-26-43,144,depth_duration_stimuli/001808_2014-06-26_20-50-58_260595134347_rgbf000029-resize_1/001808_2014-06-26_20-50-58_260595134347_rgbf000029-resize_1-target.png,125,4.249,5,2203,125,meters,jsons/VE125_randls_6.json,548874,1048996,35,Man
144,876757,DepthScenes,duration_manipulation_targetAtFixation,jsons/VE125_randls_6.json,http://54.235.29.9/FacialAge/BNav_EC2/DepthDuration/v2_depth_duration_MTurk/v2_DepthDuration_HTML.html#91,91,1366,643,1366,768,9-18-2022,11-26-43,145,depth_duration_stimuli/001815_2014-06-26_20-52-55_260595134347_rgbf000020-resize_0/001815_2014-06-26_20-52-55_260595134347_rgbf000020-resize_0-target.png,125,3.3865,5,1939,108,meters,jsons/VE125_randls_6.json,548874,1048996,35,Man
145,876757,DepthScenes,duration_manipulation_targetAtFixation,jsons/VE125_randls_6.json,http://54.235.29.9/FacialAge/BNav_EC2/DepthDuration/v2_depth_duration_MTurk/v2_DepthDuration_HTML.html#91,91,1366,643,1366,768,9-18-2022,11-26-43,146,depth_duration_stimuli/001498_2014-06-19_17-45-14_260595134347_rgbf000129-resize_4/001498_2014-06-19_17-45-14_260595134347_rgbf000129-resize-original.jpg,125,1.4075,3,3166,125,meters,jsons/VE125_randls_6.json,548874,1048996,35,Man
146,876757,DepthScenes,duration_manipulation_targetAtFixation,jsons/VE125_randls_6.json,http://54.235.29.9/FacialAge/BNav_EC2/DepthDuration/v2_depth_duration_MTurk/v2_DepthDuration_HTML.html#91,91,1366,643,1366,768,9-18-2022,11-26-43,147,depth_duration_stimuli/000682_2014-06-08_23-14-58_260595134347_rgbf000041-resize_5/000682_2014-06-08_23-14-58_260595134347_rgbf000041-resize_5-target.png,125,2.7239999999999998,2,1886,132,meters,jsons/VE125_randls_6.json,548874,1048996,35,Man
147,876757,DepthScenes,duration_manipulation_targetAtFixation,jsons/VE125_randls_6.json,http://54.235.29.9/FacialAge/BNav_EC2/DepthDuration/v2_depth_duration_MTurk/v2_DepthDuration_HTML.html#91,91,1366,643,1366,768,9-18-2022,11-26-43,148,depth_duration_stimuli/001650_2014-06-20_12-09-00_260595134347_rgbf000087-resize_3/001650_2014-06-20_12-09-00_260595134347_rgbf000087-resize_3-target.png,125,1.9505,2,1767,124,meters,jsons/VE125_randls_6.json,548874,1048996,35,Man
148,876757,DepthScenes,duration_manipulation_targetAtFixation,jsons/VE125_randls_6.json,http://54.235.29.9/FacialAge/BNav_EC2/DepthDuration/v2_depth_duration_MTurk/v2_DepthDuration_HTML.html#91,91,1366,643,1366,768,9-18-2022,11-26-43,149,depth_duration_stimuli/000758_2014-06-08_22-05-08_260595134347_rgbf000085-resize_0/000758_2014-06-08_22-05-08_260595134347_rgbf000085-resize_0-target.png,125,3.3810000000000002,2,1790,124,meters,jsons/VE125_randls_6.json,548874,1048996,35,Man
149,876757,DepthScenes,duration_manipulation_targetAtFixation,jsons/VE125_randls_6.json,http://54.235.29.9/FacialAge/BNav_EC2/DepthDuration/v2_depth_duration_MTurk/v2_DepthDuration_HTML.html#91,91,1366,643,1366,768,9-18-2022,11-26-43,150,depth_duration_stimuli/000854_2014-06-09_19-43-13_260595134347_rgbf000066-resize_0/000854_2014-06-09_19-43-13_260595134347_rgbf000066-resize_0-target.png,125,3.068,3,1540,109,meters,jsons/VE125_randls_6.json,548874,1048996,35,Man
150,876757,DepthScenes,duration_manipulation_targetAtFixation,jsons/VE125_randls_6.json,http://54.235.29.9/FacialAge/BNav_EC2/DepthDuration/v2_depth_duration_MTurk/v2_DepthDuration_HTML.html#91,91,1366,643,1366,768,9-18-2022,11-26-43,151,depth_duration_stimuli/002600_2014-06-24_14-27-04_094959634447_rgbf000074-resize_2/002600_2014-06-24_14-27-04_094959634447_rgbf000074-resize_2-target.png,125,2.7575,3,1598,123,meters,jsons/VE125_randls_6.json,548874,1048996,35,Man
151,876757,DepthScenes,duration_manipulation_targetAtFixation,jsons/VE125_randls_6.json,http://54.235.29.9/FacialAge/BNav_EC2/DepthDuration/v2_depth_duration_MTurk/v2_DepthDuration_HTML.html#91,91,1366,643,1366,768,9-18-2022,11-26-43,152,depth_duration_stimuli/003228_2014-05-14_13-42-35_094959634447_rgbf000101-resize_1/003228_2014-05-14_13-42-35_094959634447_rgbf000101-resize_1-target.png,125,1.9680000000000002,2,2258,124,meters,jsons/VE125_randls_6.json,548874,1048996,35,Man
152,876757,DepthScenes,duration_manipulation_targetAtFixation,jsons/VE125_randls_6.json,http://54.235.29.9/FacialAge/BNav_EC2/DepthDuration/v2_depth_duration_MTurk/v2_DepthDuration_HTML.html#91,91,1366,643,1366,768,9-18-2022,11-26-43,153,depth_duration_stimuli/001016_2014-06-09_16-16-10_260595134347_rgbf000112-resize_5/001016_2014-06-09_16-16-10_260595134347_rgbf000112-resize_5-target.png,125,1.6565,2,2567,108,meters,jsons/VE125_randls_6.json,548874,1048996,35,Man
153,876757,DepthScenes,duration_manipulation_targetAtFixation,jsons/VE125_randls_6.json,http://54.235.29.9/FacialAge/BNav_EC2/DepthDuration/v2_depth_duration_MTurk/v2_DepthDuration_HTML.html#91,91,1366,643,1366,768,9-18-2022,11-26-43,154,depth_duration_stimuli/002340_2014-06-28_20-05-46_260595134347_rgbf000113-resize_0/002340_2014-06-28_20-05-46_260595134347_rgbf000113-resize_0-target.png,125,2.4735,4,1773,140,meters,jsons/VE125_randls_6.json,548874,1048996,35,Man
154,876757,DepthScenes,duration_manipulation_targetAtFixation,jsons/VE125_randls_6.json,http://54.235.29.9/FacialAge/BNav_EC2/DepthDuration/v2_depth_duration_MTurk/v2_DepthDuration_HTML.html#91,91,1366,643,1366,768,9-18-2022,11-26-43,155,depth_duration_stimuli/002118_2014-06-25_20-32-08_260595134347_rgbf000078-resize_1/002118_2014-06-25_20-32-08_260595134347_rgbf000078-resize_1-target.png,125,2.6460000000000004,3,1926,125,meters,jsons/VE125_randls_6.json,548874,1048996,35,Man
155,876757,DepthScenes,duration_manipulation_targetAtFixation,jsons/VE125_randls_6.json,http://54.235.29.9/FacialAge/BNav_EC2/DepthDuration/v2_depth_duration_MTurk/v2_DepthDuration_HTML.html#91,91,1366,643,1366,768,9-18-2022,11-26-43,156,depth_duration_stimuli/001516_2014-06-20_16-25-09_260595134347_rgbf000076-resize_2/001516_2014-06-20_16-25-09_260595134347_rgbf000076-resize_2-target.png,125,1.7445,4,1879,113,meters,jsons/VE125_randls_6.json,548874,1048996,35,Man
156,876757,DepthScenes,duration_manipulation_targetAtFixation,jsons/VE125_randls_6.json,http://54.235.29.9/FacialAge/BNav_EC2/DepthDuration/v2_depth_duration_MTurk/v2_DepthDuration_HTML.html#91,91,1366,643,1366,768,9-18-2022,11-26-43,157,depth_duration_stimuli/001167_2014-06-17_15-38-07_260595134347_rgbf000108-resize_0/001167_2014-06-17_15-38-07_260595134347_rgbf000108-resize_0-target.png,125,1.8505,3,1560,136,meters,jsons/VE125_randls_6.json,548874,1048996,35,Man
157,876757,DepthScenes,duration_manipulation_targetAtFixation,jsons/VE125_randls_6.json,http://54.235.29.9/FacialAge/BNav_EC2/DepthDuration/v2_depth_duration_MTurk/v2_DepthDuration_HTML.html#91,91,1366,643,1366,768,9-18-2022,11-26-43,158,depth_duration_stimuli/003587_2014-05-23_16-48-02_094959634447_rgbf002384-resize_2/003587_2014-05-23_16-48-02_094959634447_rgbf002384-resize_2-target.png,125,1.357,3,1546,126,meters,jsons/VE125_randls_6.json,548874,1048996,35,Man
158,876757,DepthScenes,duration_manipulation_targetAtFixation,jsons/VE125_randls_6.json,http://54.235.29.9/FacialAge/BNav_EC2/DepthDuration/v2_depth_duration_MTurk/v2_DepthDuration_HTML.html#91,91,1366,643,1366,768,9-18-2022,11-26-43,159,depth_duration_stimuli/000486_2014-06-09_20-47-20_260595134347_rgbf000143-resize_2/000486_2014-06-09_20-47-20_260595134347_rgbf000143-resize_2-target.png,125,4.8325,5,1740,132,meters,jsons/VE125_randls_6.json,548874,1048996,35,Man
159,876757,DepthScenes,duration_manipulation_targetAtFixation,jsons/VE125_randls_6.json,http://54.235.29.9/FacialAge/BNav_EC2/DepthDuration/v2_depth_duration_MTurk/v2_DepthDuration_HTML.html#91,91,1366,643,1366,768,9-18-2022,11-26-43,160,depth_duration_stimuli/003083_2014-06-15_15-21-03_094959634447_rgbf000063-resize_1/003083_2014-06-15_15-21-03_094959634447_rgbf000063-resize_1-target.png,125,4.1405,3,1579,125,meters,jsons/VE125_randls_6.json,548874,1048996,35,Man
160,876757,DepthScenes,duration_manipulation_targetAtFixation,jsons/VE125_randls_6.json,http://54.235.29.9/FacialAge/BNav_EC2/DepthDuration/v2_depth_duration_MTurk/v2_DepthDuration_HTML.html#91,91,1366,643,1366,768,9-18-2022,11-26-43,161,depth_duration_stimuli/000522_2014-06-08_13-35-06_260595134347_rgbf000244-resize_1/000522_2014-06-08_13-35-06_260595134347_rgbf000244-resize_1-target.png,125,2.3715,4,2269,125,meters,jsons/VE125_randls_6.json,548874,1048996,35,Man
161,876757,DepthScenes,duration_manipulation_targetAtFixation,jsons/VE125_randls_6.json,http://54.235.29.9/FacialAge/BNav_EC2/DepthDuration/v2_depth_duration_MTurk/v2_DepthDuration_HTML.html#91,91,1366,643,1366,768,9-18-2022,11-26-43,162,depth_duration_stimuli/002949_2014-06-26_15-57-42_094959634447_rgbf000079-resize_1/002949_2014-06-26_15-57-42_094959634447_rgbf000079-resize_1-target.png,125,1.8915,4,1800,124,meters,jsons/VE125_randls_6.json,548874,1048996,35,Man
162,876757,DepthScenes,duration_manipulation_targetAtFixation,jsons/VE125_randls_6.json,http://54.235.29.9/FacialAge/BNav_EC2/DepthDuration/v2_depth_duration_MTurk/v2_DepthDuration_HTML.html#91,91,1366,643,1366,768,9-18-2022,11-26-43,163,depth_duration_stimuli/001133_2014-06-17_14-49-16_260595134347_rgbf000100-resize_0/001133_2014-06-17_14-49-16_260595134347_rgbf000100-resize_0-target.png,125,4.2115,5,1639,124,meters,jsons/VE125_randls_6.json,548874,1048996,35,Man
163,876757,DepthScenes,duration_manipulation_targetAtFixation,jsons/VE125_randls_6.json,http://54.235.29.9/FacialAge/BNav_EC2/DepthDuration/v2_depth_duration_MTurk/v2_DepthDuration_HTML.html#91,91,1366,643,1366,768,9-18-2022,11-26-43,164,depth_duration_stimuli/001132_2014-06-17_14-48-54_260595134347_rgbf000100-resize_2/001132_2014-06-17_14-48-54_260595134347_rgbf000100-resize_2-target.png,125,3.753,5,1715,124,meters,jsons/VE125_randls_6.json,548874,1048996,35,Man
