,subjID,experimentName,versionName,sequenceName,url,selected_row,windowWidth,windowHeight,screenWidth,screenHeight,startDate,startTime,trial,stimulus,duration,actual_depth,depth_estimate,trial_RT,log_sceneDuration,unitSelection,seq_filepath,experimentTime,totalTime,age,gender
0,876886,DepthScenes,duration_manipulation_targetAtFixation,jsons/v1_VE250_randls_4_rotated.json,http://54.235.29.9/FacialAge/BNav_EC2/DepthDuration/v2_depth_duration_MTurk/v2_DepthDuration_HTML.html#104,104,1366,625,1366,768,8-29-2022,9-49-52,1,depth_duration_stimuli/001450_2014-06-19_17-02-03_260595134347_rgbf000203-resize_4/001450_2014-06-19_17-02-03_260595134347_rgbf000203-resize_4-target.png,250,4.0106666666667,1,3881,250,feet,jsons/v1_VE250_randls_4_rotated.json,1637807,1965593,27,Woman
1,876886,DepthScenes,duration_manipulation_targetAtFixation,jsons/v1_VE250_randls_4_rotated.json,http://54.235.29.9/FacialAge/BNav_EC2/DepthDuration/v2_depth_duration_MTurk/v2_DepthDuration_HTML.html#104,104,1366,625,1366,768,8-29-2022,9-49-52,2,depth_duration_stimuli/001449_2014-06-19_17-01-27_260595134347_rgbf000116-resize_2/001449_2014-06-19_17-01-27_260595134347_rgbf000116-resize_2-target.png,250,3.452,1,3260,250,feet,jsons/v1_VE250_randls_4_rotated.json,1637807,1965593,27,Woman
2,876886,DepthScenes,duration_manipulation_targetAtFixation,jsons/v1_VE250_randls_4_rotated.json,http://54.235.29.9/FacialAge/BNav_EC2/DepthDuration/v2_depth_duration_MTurk/v2_DepthDuration_HTML.html#104,104,1366,625,1366,768,8-29-2022,9-49-52,3,depth_duration_stimuli/002750_2014-06-22_19-08-03_094959634447_rgbf000094-resize_4/002750_2014-06-22_19-08-03_094959634447_rgbf000094-resize_4-target.png,250,2.354,0,3712,249,feet,jsons/v1_VE250_randls_4_rotated.json,1637807,1965593,27,Woman
3,876886,DepthScenes,duration_manipulation_targetAtFixation,jsons/v1_VE250_randls_4_rotated.json,http://54.235.29.9/FacialAge/BNav_EC2/DepthDuration/v2_depth_duration_MTurk/v2_DepthDuration_HTML.html#104,104,1366,625,1366,768,8-29-2022,9-49-52,4,depth_duration_stimuli/002549_2014-06-24_13-41-39_094959634447_rgbf000022-resize_3/002549_2014-06-24_13-41-39_094959634447_rgbf000022-resize_3-target.png,250,1.476,1,3307,250,feet,jsons/v1_VE250_randls_4_rotated.json,1637807,1965593,27,Woman
4,876886,DepthScenes,duration_manipulation_targetAtFixation,jsons/v1_VE250_randls_4_rotated.json,http://54.235.29.9/FacialAge/BNav_EC2/DepthDuration/v2_depth_duration_MTurk/v2_DepthDuration_HTML.html#104,104,1366,625,1366,768,8-29-2022,9-49-52,5,depth_duration_stimuli/000191_2014-05-12_17-07-38_260595134347_rgbf000199-resize_0/000191_2014-05-12_17-07-38_260595134347_rgbf000199-resize_0-target.png,250,3.7995,2,3611,251,feet,jsons/v1_VE250_randls_4_rotated.json,1637807,1965593,27,Woman
5,876886,DepthScenes,duration_manipulation_targetAtFixation,jsons/v1_VE250_randls_4_rotated.json,http://54.235.29.9/FacialAge/BNav_EC2/DepthDuration/v2_depth_duration_MTurk/v2_DepthDuration_HTML.html#104,104,1366,625,1366,768,8-29-2022,9-49-52,6,depth_duration_stimuli/000493_2014-06-09_21-01-18_260595134347_rgbf000196-resize_3/000493_2014-06-09_21-01-18_260595134347_rgbf000196-resize_3-target.png,250,3.44,0,3915,251,feet,jsons/v1_VE250_randls_4_rotated.json,1637807,1965593,27,Woman
6,876886,DepthScenes,duration_manipulation_targetAtFixation,jsons/v1_VE250_randls_4_rotated.json,http://54.235.29.9/FacialAge/BNav_EC2/DepthDuration/v2_depth_duration_MTurk/v2_DepthDuration_HTML.html#104,104,1366,625,1366,768,8-29-2022,9-49-52,7,depth_duration_stimuli/003048_2014-06-15_13-49-43_094959634447_rgbf000150-resize_1/003048_2014-06-15_13-49-43_094959634447_rgbf000150-resize_1-target.png,250,4.0035,2,6094,251,feet,jsons/v1_VE250_randls_4_rotated.json,1637807,1965593,27,Woman
7,876886,DepthScenes,duration_manipulation_targetAtFixation,jsons/v1_VE250_randls_4_rotated.json,http://54.235.29.9/FacialAge/BNav_EC2/DepthDuration/v2_depth_duration_MTurk/v2_DepthDuration_HTML.html#104,104,1366,625,1366,768,8-29-2022,9-49-52,8,depth_duration_stimuli/002043_2014-06-24_20-29-38_260595134347_rgbf000039-resize_4/002043_2014-06-24_20-29-38_260595134347_rgbf000039-resize_4-target.png,250,2.8435,1,3312,250,feet,jsons/v1_VE250_randls_4_rotated.json,1637807,1965593,27,Woman
8,876886,DepthScenes,duration_manipulation_targetAtFixation,jsons/v1_VE250_randls_4_rotated.json,http://54.235.29.9/FacialAge/BNav_EC2/DepthDuration/v2_depth_duration_MTurk/v2_DepthDuration_HTML.html#104,104,1366,625,1366,768,8-29-2022,9-49-52,9,depth_duration_stimuli/002639_2014-06-24_14-51-37_094959634447_rgbf000074-resize_4/002639_2014-06-24_14-51-37_094959634447_rgbf000074-resize_4-target.png,250,4.0375,2,5427,251,feet,jsons/v1_VE250_randls_4_rotated.json,1637807,1965593,27,Woman
9,876886,DepthScenes,duration_manipulation_targetAtFixation,jsons/v1_VE250_randls_4_rotated.json,http://54.235.29.9/FacialAge/BNav_EC2/DepthDuration/v2_depth_duration_MTurk/v2_DepthDuration_HTML.html#104,104,1366,625,1366,768,8-29-2022,9-49-52,10,depth_duration_stimuli/003292_2014-05-14_21-53-49_094959634447_rgbf000100-resize_2/003292_2014-05-14_21-53-49_094959634447_rgbf000100-resize_2-target.png,250,3.4815,2,3603,250,feet,jsons/v1_VE250_randls_4_rotated.json,1637807,1965593,27,Woman
10,876886,DepthScenes,duration_manipulation_targetAtFixation,jsons/v1_VE250_randls_4_rotated.json,http://54.235.29.9/FacialAge/BNav_EC2/DepthDuration/v2_depth_duration_MTurk/v2_DepthDuration_HTML.html#104,104,1366,625,1366,768,8-29-2022,9-49-52,11,depth_duration_stimuli/000927_2014-06-09_16-32-30_260595134347_rgbf000123-resize_3/000927_2014-06-09_16-32-30_260595134347_rgbf000123-resize_3-target.png,250,2.6785,2,4731,250,feet,jsons/v1_VE250_randls_4_rotated.json,1637807,1965593,27,Woman
11,876886,DepthScenes,duration_manipulation_targetAtFixation,jsons/v1_VE250_randls_4_rotated.json,http://54.235.29.9/FacialAge/BNav_EC2/DepthDuration/v2_depth_duration_MTurk/v2_DepthDuration_HTML.html#104,104,1366,625,1366,768,8-29-2022,9-49-52,12,depth_duration_stimuli/001110_2014-06-15_17-25-28_260595134347_rgbf000150-resize_1/001110_2014-06-15_17-25-28_260595134347_rgbf000150-resize_1-target.png,250,1.7115,0,78844,251,feet,jsons/v1_VE250_randls_4_rotated.json,1637807,1965593,27,Woman
12,876886,DepthScenes,duration_manipulation_targetAtFixation,jsons/v1_VE250_randls_4_rotated.json,http://54.235.29.9/FacialAge/BNav_EC2/DepthDuration/v2_depth_duration_MTurk/v2_DepthDuration_HTML.html#104,104,1366,625,1366,768,8-29-2022,9-49-52,13,depth_duration_stimuli/000742_2014-06-08_18-48-09_260595134347_rgbf000164-resize_4/000742_2014-06-08_18-48-09_260595134347_rgbf000164-resize_4-target.png,250,4.632,2,6307,249,feet,jsons/v1_VE250_randls_4_rotated.json,1637807,1965593,27,Woman
13,876886,DepthScenes,duration_manipulation_targetAtFixation,jsons/v1_VE250_randls_4_rotated.json,http://54.235.29.9/FacialAge/BNav_EC2/DepthDuration/v2_depth_duration_MTurk/v2_DepthDuration_HTML.html#104,104,1366,625,1366,768,8-29-2022,9-49-52,14,depth_duration_stimuli/001066_2014-06-08_22-03-20_260595134347_rgbf000066-resize_4/001066_2014-06-08_22-03-20_260595134347_rgbf000066-resize_4-target.png,250,4.2330000000000005,2,5218,249,feet,jsons/v1_VE250_randls_4_rotated.json,1637807,1965593,27,Woman
14,876886,DepthScenes,duration_manipulation_targetAtFixation,jsons/v1_VE250_randls_4_rotated.json,http://54.235.29.9/FacialAge/BNav_EC2/DepthDuration/v2_depth_duration_MTurk/v2_DepthDuration_HTML.html#104,104,1366,625,1366,768,8-29-2022,9-49-52,15,depth_duration_stimuli/000103_2014-05-14_22-01-17_260595134347_rgbf000152-resize_5/000103_2014-05-14_22-01-17_260595134347_rgbf000152-resize_5-target.png,250,1.993,2,3371,251,feet,jsons/v1_VE250_randls_4_rotated.json,1637807,1965593,27,Woman
15,876886,DepthScenes,duration_manipulation_targetAtFixation,jsons/v1_VE250_randls_4_rotated.json,http://54.235.29.9/FacialAge/BNav_EC2/DepthDuration/v2_depth_duration_MTurk/v2_DepthDuration_HTML.html#104,104,1366,625,1366,768,8-29-2022,9-49-52,16,depth_duration_stimuli/001555_2014-06-20_17-12-10_260595134347_rgbf000065-resize_4/001555_2014-06-20_17-12-10_260595134347_rgbf000065-resize_4-target.png,250,1.633,0,6403,251,feet,jsons/v1_VE250_randls_4_rotated.json,1637807,1965593,27,Woman
16,876886,DepthScenes,duration_manipulation_targetAtFixation,jsons/v1_VE250_randls_4_rotated.json,http://54.235.29.9/FacialAge/BNav_EC2/DepthDuration/v2_depth_duration_MTurk/v2_DepthDuration_HTML.html#104,104,1366,625,1366,768,8-29-2022,9-49-52,17,depth_duration_stimuli/002678_2014-06-13_16-15-32_094959634447_rgbf000151-resize_6/002678_2014-06-13_16-15-32_094959634447_rgbf000151-resize_6-target.png,250,2.1830000000000003,2,8601,249,feet,jsons/v1_VE250_randls_4_rotated.json,1637807,1965593,27,Woman
17,876886,DepthScenes,duration_manipulation_targetAtFixation,jsons/v1_VE250_randls_4_rotated.json,http://54.235.29.9/FacialAge/BNav_EC2/DepthDuration/v2_depth_duration_MTurk/v2_DepthDuration_HTML.html#104,104,1366,625,1366,768,8-29-2022,9-49-52,18,depth_duration_stimuli/000368_2014-06-09_15-53-01_260595134347_rgbf000155-resize_2/000368_2014-06-09_15-53-01_260595134347_rgbf000155-resize_2-target.png,250,2.4859999999999998,0,20734,251,feet,jsons/v1_VE250_randls_4_rotated.json,1637807,1965593,27,Woman
18,876886,DepthScenes,duration_manipulation_targetAtFixation,jsons/v1_VE250_randls_4_rotated.json,http://54.235.29.9/FacialAge/BNav_EC2/DepthDuration/v2_depth_duration_MTurk/v2_DepthDuration_HTML.html#104,104,1366,625,1366,768,8-29-2022,9-49-52,19,depth_duration_stimuli/001498_2014-06-19_17-45-14_260595134347_rgbf000129-resize_4/001498_2014-06-19_17-45-14_260595134347_rgbf000129-resize-original.jpg,250,1.4075,0,21359,248,feet,jsons/v1_VE250_randls_4_rotated.json,1637807,1965593,27,Woman
19,876886,DepthScenes,duration_manipulation_targetAtFixation,jsons/v1_VE250_randls_4_rotated.json,http://54.235.29.9/FacialAge/BNav_EC2/DepthDuration/v2_depth_duration_MTurk/v2_DepthDuration_HTML.html#104,104,1366,625,1366,768,8-29-2022,9-49-52,20,depth_duration_stimuli/001032_2014-06-08_13-23-17_260595134347_rgbf000021-resize_3/001032_2014-06-08_13-23-17_260595134347_rgbf000021-resize_3-target.png,250,3.2725,2,6938,249,feet,jsons/v1_VE250_randls_4_rotated.json,1637807,1965593,27,Woman
20,876886,DepthScenes,duration_manipulation_targetAtFixation,jsons/v1_VE250_randls_4_rotated.json,http://54.235.29.9/FacialAge/BNav_EC2/DepthDuration/v2_depth_duration_MTurk/v2_DepthDuration_HTML.html#104,104,1366,625,1366,768,8-29-2022,9-49-52,21,depth_duration_stimuli/001059_2014-06-08_21-53-27_260595134347_rgbf000061-resize_4/001059_2014-06-08_21-53-27_260595134347_rgbf000061-resize_4-target.png,250,2.4185,1,4380,251,feet,jsons/v1_VE250_randls_4_rotated.json,1637807,1965593,27,Woman
21,876886,DepthScenes,duration_manipulation_targetAtFixation,jsons/v1_VE250_randls_4_rotated.json,http://54.235.29.9/FacialAge/BNav_EC2/DepthDuration/v2_depth_duration_MTurk/v2_DepthDuration_HTML.html#104,104,1366,625,1366,768,8-29-2022,9-49-52,22,depth_duration_stimuli/003010_2014-06-15_12-54-35_094959634447_rgbf000112-resize_0/003010_2014-06-15_12-54-35_094959634447_rgbf000112-resize_0-target.png,250,3.1185,1,34338,249,feet,jsons/v1_VE250_randls_4_rotated.json,1637807,1965593,27,Woman
22,876886,DepthScenes,duration_manipulation_targetAtFixation,jsons/v1_VE250_randls_4_rotated.json,http://54.235.29.9/FacialAge/BNav_EC2/DepthDuration/v2_depth_duration_MTurk/v2_DepthDuration_HTML.html#104,104,1366,625,1366,768,8-29-2022,9-49-52,23,depth_duration_stimuli/001810_2014-06-26_20-51-35_260595134347_rgbf000040-resize_3/001810_2014-06-26_20-51-35_260595134347_rgbf000040-resize_3-target.png,250,2.2525,2,4716,250,feet,jsons/v1_VE250_randls_4_rotated.json,1637807,1965593,27,Woman
23,876886,DepthScenes,duration_manipulation_targetAtFixation,jsons/v1_VE250_randls_4_rotated.json,http://54.235.29.9/FacialAge/BNav_EC2/DepthDuration/v2_depth_duration_MTurk/v2_DepthDuration_HTML.html#104,104,1366,625,1366,768,8-29-2022,9-49-52,24,depth_duration_stimuli/001100_2014-06-15_17-46-26_260595134347_rgbf000225-resize_2/001100_2014-06-15_17-46-26_260595134347_rgbf000225-resize_2-target.png,250,2.24,1,7841,249,feet,jsons/v1_VE250_randls_4_rotated.json,1637807,1965593,27,Woman
24,876886,DepthScenes,duration_manipulation_targetAtFixation,jsons/v1_VE250_randls_4_rotated.json,http://54.235.29.9/FacialAge/BNav_EC2/DepthDuration/v2_depth_duration_MTurk/v2_DepthDuration_HTML.html#104,104,1366,625,1366,768,8-29-2022,9-49-52,25,depth_duration_stimuli/002784_2014-06-22_19-26-30_094959634447_rgbf000083-resize_3/002784_2014-06-22_19-26-30_094959634447_rgbf000083-resize_3-target.png,250,1.8046666666667,2,5278,250,feet,jsons/v1_VE250_randls_4_rotated.json,1637807,1965593,27,Woman
25,876886,DepthScenes,duration_manipulation_targetAtFixation,jsons/v1_VE250_randls_4_rotated.json,http://54.235.29.9/FacialAge/BNav_EC2/DepthDuration/v2_depth_duration_MTurk/v2_DepthDuration_HTML.html#104,104,1366,625,1366,768,8-29-2022,9-49-52,26,depth_duration_stimuli/002660_2014-06-13_15-44-18_094959634447_rgbf001878-resize_2/002660_2014-06-13_15-44-18_094959634447_rgbf001878-resize_2-target.png,250,3.576,2,4434,249,feet,jsons/v1_VE250_randls_4_rotated.json,1637807,1965593,27,Woman
26,876886,DepthScenes,duration_manipulation_targetAtFixation,jsons/v1_VE250_randls_4_rotated.json,http://54.235.29.9/FacialAge/BNav_EC2/DepthDuration/v2_depth_duration_MTurk/v2_DepthDuration_HTML.html#104,104,1366,625,1366,768,8-29-2022,9-49-52,27,depth_duration_stimuli/002153_2014-06-25_21-27-18_260595134347_rgbf000038-resize_5/002153_2014-06-25_21-27-18_260595134347_rgbf000038-resize_5-target.png,250,2.505,2,36178,250,feet,jsons/v1_VE250_randls_4_rotated.json,1637807,1965593,27,Woman
27,876886,DepthScenes,duration_manipulation_targetAtFixation,jsons/v1_VE250_randls_4_rotated.json,http://54.235.29.9/FacialAge/BNav_EC2/DepthDuration/v2_depth_duration_MTurk/v2_DepthDuration_HTML.html#104,104,1366,625,1366,768,8-29-2022,9-49-52,28,depth_duration_stimuli/002568_2014-06-24_13-59-21_094959634447_rgbf000062-resize_4/002568_2014-06-24_13-59-21_094959634447_rgbf000062-resize_4-target.png,250,3.015,0,73148,251,feet,jsons/v1_VE250_randls_4_rotated.json,1637807,1965593,27,Woman
28,876886,DepthScenes,duration_manipulation_targetAtFixation,jsons/v1_VE250_randls_4_rotated.json,http://54.235.29.9/FacialAge/BNav_EC2/DepthDuration/v2_depth_duration_MTurk/v2_DepthDuration_HTML.html#104,104,1366,625,1366,768,8-29-2022,9-49-52,29,depth_duration_stimuli/003492_2014-05-21_15-50-55_094959634447_rgbf000828-resize_1/003492_2014-05-21_15-50-55_094959634447_rgbf000828-resize_1-target.png,250,4.06875,1,4099,250,feet,jsons/v1_VE250_randls_4_rotated.json,1637807,1965593,27,Woman
29,876886,DepthScenes,duration_manipulation_targetAtFixation,jsons/v1_VE250_randls_4_rotated.json,http://54.235.29.9/FacialAge/BNav_EC2/DepthDuration/v2_depth_duration_MTurk/v2_DepthDuration_HTML.html#104,104,1366,625,1366,768,8-29-2022,9-49-52,30,depth_duration_stimuli/002072_2014-06-24_21-48-06_260595134347_rgbf000115-resize_0/002072_2014-06-24_21-48-06_260595134347_rgbf000115-resize-original.jpg,250,4.702,0,94795,249,feet,jsons/v1_VE250_randls_4_rotated.json,1637807,1965593,27,Woman
30,876886,DepthScenes,duration_manipulation_targetAtFixation,jsons/v1_VE250_randls_4_rotated.json,http://54.235.29.9/FacialAge/BNav_EC2/DepthDuration/v2_depth_duration_MTurk/v2_DepthDuration_HTML.html#104,104,1366,625,1366,768,8-29-2022,9-49-52,31,depth_duration_stimuli/002949_2014-06-26_15-57-42_094959634447_rgbf000079-resize_1/002949_2014-06-26_15-57-42_094959634447_rgbf000079-resize_1-target.png,250,1.8915,1,3306,250,feet,jsons/v1_VE250_randls_4_rotated.json,1637807,1965593,27,Woman
31,876886,DepthScenes,duration_manipulation_targetAtFixation,jsons/v1_VE250_randls_4_rotated.json,http://54.235.29.9/FacialAge/BNav_EC2/DepthDuration/v2_depth_duration_MTurk/v2_DepthDuration_HTML.html#104,104,1366,625,1366,768,8-29-2022,9-49-52,32,depth_duration_stimuli/000522_2014-06-08_13-35-06_260595134347_rgbf000244-resize_1/000522_2014-06-08_13-35-06_260595134347_rgbf000244-resize_1-target.png,250,2.3715,1,3370,251,feet,jsons/v1_VE250_randls_4_rotated.json,1637807,1965593,27,Woman
32,876886,DepthScenes,duration_manipulation_targetAtFixation,jsons/v1_VE250_randls_4_rotated.json,http://54.235.29.9/FacialAge/BNav_EC2/DepthDuration/v2_depth_duration_MTurk/v2_DepthDuration_HTML.html#104,104,1366,625,1366,768,8-29-2022,9-49-52,33,depth_duration_stimuli/002103_2014-06-25_20-00-40_260595134347_rgbf000049-resize_0/002103_2014-06-25_20-00-40_260595134347_rgbf000049-resize_0-target.png,250,4.105,2,126996,250,feet,jsons/v1_VE250_randls_4_rotated.json,1637807,1965593,27,Woman
33,876886,DepthScenes,duration_manipulation_targetAtFixation,jsons/v1_VE250_randls_4_rotated.json,http://54.235.29.9/FacialAge/BNav_EC2/DepthDuration/v2_depth_duration_MTurk/v2_DepthDuration_HTML.html#104,104,1366,625,1366,768,8-29-2022,9-49-52,34,depth_duration_stimuli/002039_2014-06-24_20-22-38_260595134347_rgbf000084-resize_1/002039_2014-06-24_20-22-38_260595134347_rgbf000084-resize_1-target.png,250,4.408,1,3750,249,feet,jsons/v1_VE250_randls_4_rotated.json,1637807,1965593,27,Woman
34,876886,DepthScenes,duration_manipulation_targetAtFixation,jsons/v1_VE250_randls_4_rotated.json,http://54.235.29.9/FacialAge/BNav_EC2/DepthDuration/v2_depth_duration_MTurk/v2_DepthDuration_HTML.html#104,104,1366,625,1366,768,8-29-2022,9-49-52,35,depth_duration_stimuli/002467_2014-06-28_20-38-07_260595134347_rgbf000026-resize_2/002467_2014-06-28_20-38-07_260595134347_rgbf000026-resize_2-target.png,250,4.742,0,43888,249,feet,jsons/v1_VE250_randls_4_rotated.json,1637807,1965593,27,Woman
35,876886,DepthScenes,duration_manipulation_targetAtFixation,jsons/v1_VE250_randls_4_rotated.json,http://54.235.29.9/FacialAge/BNav_EC2/DepthDuration/v2_depth_duration_MTurk/v2_DepthDuration_HTML.html#104,104,1366,625,1366,768,8-29-2022,9-49-52,36,depth_duration_stimuli/002570_2014-06-24_13-59-54_094959634447_rgbf000059-resize_0/002570_2014-06-24_13-59-54_094959634447_rgbf000059-resize_0-target.png,250,4.037,2,6329,250,feet,jsons/v1_VE250_randls_4_rotated.json,1637807,1965593,27,Woman
36,876886,DepthScenes,duration_manipulation_targetAtFixation,jsons/v1_VE250_randls_4_rotated.json,http://54.235.29.9/FacialAge/BNav_EC2/DepthDuration/v2_depth_duration_MTurk/v2_DepthDuration_HTML.html#104,104,1366,625,1366,768,8-29-2022,9-49-52,37,depth_duration_stimuli/000109_2014-05-14_23-41-52_260595134347_rgbf000035-resize_9/000109_2014-05-14_23-41-52_260595134347_rgbf000035-resize_9-target.png,250,1.3545,1,4627,251,feet,jsons/v1_VE250_randls_4_rotated.json,1637807,1965593,27,Woman
37,876886,DepthScenes,duration_manipulation_targetAtFixation,jsons/v1_VE250_randls_4_rotated.json,http://54.235.29.9/FacialAge/BNav_EC2/DepthDuration/v2_depth_duration_MTurk/v2_DepthDuration_HTML.html#104,104,1366,625,1366,768,8-29-2022,9-49-52,38,depth_duration_stimuli/000470_2014-06-09_19-42-40_260595134347_rgbf000094-resize_1/000470_2014-06-09_19-42-40_260595134347_rgbf000094-resize_1-target.png,250,1.831,1,28074,250,feet,jsons/v1_VE250_randls_4_rotated.json,1637807,1965593,27,Woman
38,876886,DepthScenes,duration_manipulation_targetAtFixation,jsons/v1_VE250_randls_4_rotated.json,http://54.235.29.9/FacialAge/BNav_EC2/DepthDuration/v2_depth_duration_MTurk/v2_DepthDuration_HTML.html#104,104,1366,625,1366,768,8-29-2022,9-49-52,39,depth_duration_stimuli/000749_2014-06-08_21-55-06_260595134347_rgbf000070-resize_2/000749_2014-06-08_21-55-06_260595134347_rgbf000070-resize_2-target.png,250,2.331,1,3769,248,feet,jsons/v1_VE250_randls_4_rotated.json,1637807,1965593,27,Woman
39,876886,DepthScenes,duration_manipulation_targetAtFixation,jsons/v1_VE250_randls_4_rotated.json,http://54.235.29.9/FacialAge/BNav_EC2/DepthDuration/v2_depth_duration_MTurk/v2_DepthDuration_HTML.html#104,104,1366,625,1366,768,8-29-2022,9-49-52,40,depth_duration_stimuli/002788_2014-06-22_19-36-03_094959634447_rgbf000088-resize_2/002788_2014-06-22_19-36-03_094959634447_rgbf000088-resize_2-target.png,250,1.6465,0,53773,250,feet,jsons/v1_VE250_randls_4_rotated.json,1637807,1965593,27,Woman
40,876886,DepthScenes,duration_manipulation_targetAtFixation,jsons/v1_VE250_randls_4_rotated.json,http://54.235.29.9/FacialAge/BNav_EC2/DepthDuration/v2_depth_duration_MTurk/v2_DepthDuration_HTML.html#104,104,1366,625,1366,768,8-29-2022,9-49-52,41,depth_duration_stimuli/002414_2014-06-28_20-24-58_260595134347_rgbf000067-resize_4/002414_2014-06-28_20-24-58_260595134347_rgbf000067-resize_4-target.png,250,4.363,2,3601,249,feet,jsons/v1_VE250_randls_4_rotated.json,1637807,1965593,27,Woman
41,876886,DepthScenes,duration_manipulation_targetAtFixation,jsons/v1_VE250_randls_4_rotated.json,http://54.235.29.9/FacialAge/BNav_EC2/DepthDuration/v2_depth_duration_MTurk/v2_DepthDuration_HTML.html#104,104,1366,625,1366,768,8-29-2022,9-49-52,42,depth_duration_stimuli/000773_2014-06-08_22-24-54_260595134347_rgbf000093-resize_1/000773_2014-06-08_22-24-54_260595134347_rgbf000093-resize_1-target.png,250,4.973,2,2666,250,feet,jsons/v1_VE250_randls_4_rotated.json,1637807,1965593,27,Woman
42,876886,DepthScenes,duration_manipulation_targetAtFixation,jsons/v1_VE250_randls_4_rotated.json,http://54.235.29.9/FacialAge/BNav_EC2/DepthDuration/v2_depth_duration_MTurk/v2_DepthDuration_HTML.html#104,104,1366,625,1366,768,8-29-2022,9-49-52,43,depth_duration_stimuli/000457_2014-06-08_16-52-43_260595134347_rgbf000199-resize_1/000457_2014-06-08_16-52-43_260595134347_rgbf000199-resize_1-target.png,250,3.6489999999999996,2,3339,250,feet,jsons/v1_VE250_randls_4_rotated.json,1637807,1965593,27,Woman
43,876886,DepthScenes,duration_manipulation_targetAtFixation,jsons/v1_VE250_randls_4_rotated.json,http://54.235.29.9/FacialAge/BNav_EC2/DepthDuration/v2_depth_duration_MTurk/v2_DepthDuration_HTML.html#104,104,1366,625,1366,768,8-29-2022,9-49-52,44,depth_duration_stimuli/000929_2014-06-09_16-33-19_260595134347_rgbf000139-resize_0/000929_2014-06-09_16-33-19_260595134347_rgbf000139-resize_0-target.png,250,2.8680000000000003,1,2708,250,feet,jsons/v1_VE250_randls_4_rotated.json,1637807,1965593,27,Woman
44,876886,DepthScenes,duration_manipulation_targetAtFixation,jsons/v1_VE250_randls_4_rotated.json,http://54.235.29.9/FacialAge/BNav_EC2/DepthDuration/v2_depth_duration_MTurk/v2_DepthDuration_HTML.html#104,104,1366,625,1366,768,8-29-2022,9-49-52,45,depth_duration_stimuli/001214_2014-06-17_16-13-55_260595134347_rgbf000111-resize_0/001214_2014-06-17_16-13-55_260595134347_rgbf000111-resize_0-target.png,250,2.6505,0,4881,249,feet,jsons/v1_VE250_randls_4_rotated.json,1637807,1965593,27,Woman
45,876886,DepthScenes,duration_manipulation_targetAtFixation,jsons/v1_VE250_randls_4_rotated.json,http://54.235.29.9/FacialAge/BNav_EC2/DepthDuration/v2_depth_duration_MTurk/v2_DepthDuration_HTML.html#104,104,1366,625,1366,768,8-29-2022,9-49-52,46,depth_duration_stimuli/000810_2014-06-08_17-20-01_260595134347_rgbf000105-resize_0/000810_2014-06-08_17-20-01_260595134347_rgbf000105-resize_0-target.png,250,1.4865,2,3964,250,feet,jsons/v1_VE250_randls_4_rotated.json,1637807,1965593,27,Woman
46,876886,DepthScenes,duration_manipulation_targetAtFixation,jsons/v1_VE250_randls_4_rotated.json,http://54.235.29.9/FacialAge/BNav_EC2/DepthDuration/v2_depth_duration_MTurk/v2_DepthDuration_HTML.html#104,104,1366,625,1366,768,8-29-2022,9-49-52,47,depth_duration_stimuli/001052_2014-06-08_18-24-54_260595134347_rgbf000130-resize_1/001052_2014-06-08_18-24-54_260595134347_rgbf000130-resize_1-target.png,250,4.1045,1,3762,250,feet,jsons/v1_VE250_randls_4_rotated.json,1637807,1965593,27,Woman
47,876886,DepthScenes,duration_manipulation_targetAtFixation,jsons/v1_VE250_randls_4_rotated.json,http://54.235.29.9/FacialAge/BNav_EC2/DepthDuration/v2_depth_duration_MTurk/v2_DepthDuration_HTML.html#104,104,1366,625,1366,768,8-29-2022,9-49-52,48,depth_duration_stimuli/002988_2014-06-15_12-24-20_094959634447_rgbf000150-resize_1/002988_2014-06-15_12-24-20_094959634447_rgbf000150-resize_1-target.png,250,4.7669999999999995,0,97502,251,feet,jsons/v1_VE250_randls_4_rotated.json,1637807,1965593,27,Woman
48,876886,DepthScenes,duration_manipulation_targetAtFixation,jsons/v1_VE250_randls_4_rotated.json,http://54.235.29.9/FacialAge/BNav_EC2/DepthDuration/v2_depth_duration_MTurk/v2_DepthDuration_HTML.html#104,104,1366,625,1366,768,8-29-2022,9-49-52,49,depth_duration_stimuli/001170_2014-06-17_15-43-44_260595134347_rgbf000096-resize_6/001170_2014-06-17_15-43-44_260595134347_rgbf000096-resize-original.jpg,250,1.1909999999999998,1,3498,251,feet,jsons/v1_VE250_randls_4_rotated.json,1637807,1965593,27,Woman
49,876886,DepthScenes,duration_manipulation_targetAtFixation,jsons/v1_VE250_randls_4_rotated.json,http://54.235.29.9/FacialAge/BNav_EC2/DepthDuration/v2_depth_duration_MTurk/v2_DepthDuration_HTML.html#104,104,1366,625,1366,768,8-29-2022,9-49-52,50,depth_duration_stimuli/002323_2014-06-28_20-01-54_260595134347_rgbf000051-resize_4/002323_2014-06-28_20-01-54_260595134347_rgbf000051-resize_4-target.png,250,3.7310000000000003,2,3826,250,feet,jsons/v1_VE250_randls_4_rotated.json,1637807,1965593,27,Woman
50,876886,DepthScenes,duration_manipulation_targetAtFixation,jsons/v1_VE250_randls_4_rotated.json,http://54.235.29.9/FacialAge/BNav_EC2/DepthDuration/v2_depth_duration_MTurk/v2_DepthDuration_HTML.html#104,104,1366,625,1366,768,8-29-2022,9-49-52,51,depth_duration_stimuli/000917_2014-06-09_22-45-29_260595134347_rgbf000149-resize_3/000917_2014-06-09_22-45-29_260595134347_rgbf000149-resize_3-target.png,250,4.1865,2,3692,251,feet,jsons/v1_VE250_randls_4_rotated.json,1637807,1965593,27,Woman
51,876886,DepthScenes,duration_manipulation_targetAtFixation,jsons/v1_VE250_randls_4_rotated.json,http://54.235.29.9/FacialAge/BNav_EC2/DepthDuration/v2_depth_duration_MTurk/v2_DepthDuration_HTML.html#104,104,1366,625,1366,768,8-29-2022,9-49-52,52,depth_duration_stimuli/003587_2014-05-23_16-48-02_094959634447_rgbf002384-resize_2/003587_2014-05-23_16-48-02_094959634447_rgbf002384-resize_2-target.png,250,1.357,0,3352,250,feet,jsons/v1_VE250_randls_4_rotated.json,1637807,1965593,27,Woman
52,876886,DepthScenes,duration_manipulation_targetAtFixation,jsons/v1_VE250_randls_4_rotated.json,http://54.235.29.9/FacialAge/BNav_EC2/DepthDuration/v2_depth_duration_MTurk/v2_DepthDuration_HTML.html#104,104,1366,625,1366,768,8-29-2022,9-49-52,53,depth_duration_stimuli/001167_2014-06-17_15-38-07_260595134347_rgbf000108-resize_0/001167_2014-06-17_15-38-07_260595134347_rgbf000108-resize_0-target.png,250,1.8505,1,3188,251,feet,jsons/v1_VE250_randls_4_rotated.json,1637807,1965593,27,Woman
53,876886,DepthScenes,duration_manipulation_targetAtFixation,jsons/v1_VE250_randls_4_rotated.json,http://54.235.29.9/FacialAge/BNav_EC2/DepthDuration/v2_depth_duration_MTurk/v2_DepthDuration_HTML.html#104,104,1366,625,1366,768,8-29-2022,9-49-52,54,depth_duration_stimuli/003490_2014-05-21_15-50-11_094959634447_rgbf000101-resize_3/003490_2014-05-21_15-50-11_094959634447_rgbf000101-resize_3-target.png,250,3.6445,1,2928,250,feet,jsons/v1_VE250_randls_4_rotated.json,1637807,1965593,27,Woman
54,876886,DepthScenes,duration_manipulation_targetAtFixation,jsons/v1_VE250_randls_4_rotated.json,http://54.235.29.9/FacialAge/BNav_EC2/DepthDuration/v2_depth_duration_MTurk/v2_DepthDuration_HTML.html#104,104,1366,625,1366,768,8-29-2022,9-49-52,55,depth_duration_stimuli/001175_2014-06-17_15-45-55_260595134347_rgbf000129-resize_4/001175_2014-06-17_15-45-55_260595134347_rgbf000129-resize_4-target.png,250,4.255,2,2642,249,feet,jsons/v1_VE250_randls_4_rotated.json,1637807,1965593,27,Woman
55,876886,DepthScenes,duration_manipulation_targetAtFixation,jsons/v1_VE250_randls_4_rotated.json,http://54.235.29.9/FacialAge/BNav_EC2/DepthDuration/v2_depth_duration_MTurk/v2_DepthDuration_HTML.html#104,104,1366,625,1366,768,8-29-2022,9-49-52,56,depth_duration_stimuli/001617_2014-06-20_11-35-32_260595134347_rgbf000066-resize_1/001617_2014-06-20_11-35-32_260595134347_rgbf000066-resize_1-target.png,250,3.7910000000000004,2,3372,250,feet,jsons/v1_VE250_randls_4_rotated.json,1637807,1965593,27,Woman
56,876886,DepthScenes,duration_manipulation_targetAtFixation,jsons/v1_VE250_randls_4_rotated.json,http://54.235.29.9/FacialAge/BNav_EC2/DepthDuration/v2_depth_duration_MTurk/v2_DepthDuration_HTML.html#104,104,1366,625,1366,768,8-29-2022,9-49-52,57,depth_duration_stimuli/001806_2014-06-26_20-50-20_260595134347_rgbf000091-resize_1/001806_2014-06-26_20-50-20_260595134347_rgbf000091-resize_1-target.png,250,2.7305,2,2803,249,feet,jsons/v1_VE250_randls_4_rotated.json,1637807,1965593,27,Woman
57,876886,DepthScenes,duration_manipulation_targetAtFixation,jsons/v1_VE250_randls_4_rotated.json,http://54.235.29.9/FacialAge/BNav_EC2/DepthDuration/v2_depth_duration_MTurk/v2_DepthDuration_HTML.html#104,104,1366,625,1366,768,8-29-2022,9-49-52,58,depth_duration_stimuli/002545_2014-06-24_13-38-53_094959634447_rgbf000080-resize_4/002545_2014-06-24_13-38-53_094959634447_rgbf000080-resize_4-target.png,250,1.9205,2,2953,249,feet,jsons/v1_VE250_randls_4_rotated.json,1637807,1965593,27,Woman
58,876886,DepthScenes,duration_manipulation_targetAtFixation,jsons/v1_VE250_randls_4_rotated.json,http://54.235.29.9/FacialAge/BNav_EC2/DepthDuration/v2_depth_duration_MTurk/v2_DepthDuration_HTML.html#104,104,1366,625,1366,768,8-29-2022,9-49-52,59,depth_duration_stimuli/001092_2014-06-15_17-34-58_260595134347_rgbf000171-resize_3/001092_2014-06-15_17-34-58_260595134347_rgbf000171-resize_3-target.png,250,2.6935,1,4785,249,feet,jsons/v1_VE250_randls_4_rotated.json,1637807,1965593,27,Woman
59,876886,DepthScenes,duration_manipulation_targetAtFixation,jsons/v1_VE250_randls_4_rotated.json,http://54.235.29.9/FacialAge/BNav_EC2/DepthDuration/v2_depth_duration_MTurk/v2_DepthDuration_HTML.html#104,104,1366,625,1366,768,8-29-2022,9-49-52,60,depth_duration_stimuli/001815_2014-06-26_20-52-55_260595134347_rgbf000020-resize_0/001815_2014-06-26_20-52-55_260595134347_rgbf000020-resize_0-target.png,250,3.3865,1,3284,251,feet,jsons/v1_VE250_randls_4_rotated.json,1637807,1965593,27,Woman
60,876886,DepthScenes,duration_manipulation_targetAtFixation,jsons/v1_VE250_randls_4_rotated.json,http://54.235.29.9/FacialAge/BNav_EC2/DepthDuration/v2_depth_duration_MTurk/v2_DepthDuration_HTML.html#104,104,1366,625,1366,768,8-29-2022,9-49-52,61,depth_duration_stimuli/001808_2014-06-26_20-50-58_260595134347_rgbf000029-resize_1/001808_2014-06-26_20-50-58_260595134347_rgbf000029-resize_1-target.png,250,4.249,1,3682,249,feet,jsons/v1_VE250_randls_4_rotated.json,1637807,1965593,27,Woman
61,876886,DepthScenes,duration_manipulation_targetAtFixation,jsons/v1_VE250_randls_4_rotated.json,http://54.235.29.9/FacialAge/BNav_EC2/DepthDuration/v2_depth_duration_MTurk/v2_DepthDuration_HTML.html#104,104,1366,625,1366,768,8-29-2022,9-49-52,62,depth_duration_stimuli/000549_2014-06-08_22-10-24_260595134347_rgbf000247-resize_3/000549_2014-06-08_22-10-24_260595134347_rgbf000247-resize_3-target.png,250,1.841,0,2922,250,feet,jsons/v1_VE250_randls_4_rotated.json,1637807,1965593,27,Woman
62,876886,DepthScenes,duration_manipulation_targetAtFixation,jsons/v1_VE250_randls_4_rotated.json,http://54.235.29.9/FacialAge/BNav_EC2/DepthDuration/v2_depth_duration_MTurk/v2_DepthDuration_HTML.html#104,104,1366,625,1366,768,8-29-2022,9-49-52,63,depth_duration_stimuli/001055_2014-06-08_18-45-35_260595134347_rgbf000111-resize_4/001055_2014-06-08_18-45-35_260595134347_rgbf000111-resize_4-target.png,250,2.4290000000000003,1,4723,250,feet,jsons/v1_VE250_randls_4_rotated.json,1637807,1965593,27,Woman
63,876886,DepthScenes,duration_manipulation_targetAtFixation,jsons/v1_VE250_randls_4_rotated.json,http://54.235.29.9/FacialAge/BNav_EC2/DepthDuration/v2_depth_duration_MTurk/v2_DepthDuration_HTML.html#104,104,1366,625,1366,768,8-29-2022,9-49-52,64,depth_duration_stimuli/000677_2014-06-08_23-10-32_260595134347_rgbf000158-resize_6/000677_2014-06-08_23-10-32_260595134347_rgbf000158-resize_6-target.png,250,3.556,2,70748,250,feet,jsons/v1_VE250_randls_4_rotated.json,1637807,1965593,27,Woman
64,876886,DepthScenes,duration_manipulation_targetAtFixation,jsons/v1_VE250_randls_4_rotated.json,http://54.235.29.9/FacialAge/BNav_EC2/DepthDuration/v2_depth_duration_MTurk/v2_DepthDuration_HTML.html#104,104,1366,625,1366,768,8-29-2022,9-49-52,65,depth_duration_stimuli/001029_2014-06-08_13-17-57_260595134347_rgbf000065-resize_1/001029_2014-06-08_13-17-57_260595134347_rgbf000065-resize_1-target.png,250,3.0835,2,3453,250,feet,jsons/v1_VE250_randls_4_rotated.json,1637807,1965593,27,Woman
65,876886,DepthScenes,duration_manipulation_targetAtFixation,jsons/v1_VE250_randls_4_rotated.json,http://54.235.29.9/FacialAge/BNav_EC2/DepthDuration/v2_depth_duration_MTurk/v2_DepthDuration_HTML.html#104,104,1366,625,1366,768,8-29-2022,9-49-52,66,depth_duration_stimuli/001540_2014-06-20_17-01-05_260595134347_rgbf000086-resize_2/001540_2014-06-20_17-01-05_260595134347_rgbf000086-resize-original.jpg,250,1.459,0,2688,251,feet,jsons/v1_VE250_randls_4_rotated.json,1637807,1965593,27,Woman
66,876886,DepthScenes,duration_manipulation_targetAtFixation,jsons/v1_VE250_randls_4_rotated.json,http://54.235.29.9/FacialAge/BNav_EC2/DepthDuration/v2_depth_duration_MTurk/v2_DepthDuration_HTML.html#104,104,1366,625,1366,768,8-29-2022,9-49-52,67,depth_duration_stimuli/000409_2014-06-04_19-23-33_260595134347_rgbf000067-resize_0/000409_2014-06-04_19-23-33_260595134347_rgbf000067-resize_0-target.png,250,3.7335,1,2909,251,feet,jsons/v1_VE250_randls_4_rotated.json,1637807,1965593,27,Woman
67,876886,DepthScenes,duration_manipulation_targetAtFixation,jsons/v1_VE250_randls_4_rotated.json,http://54.235.29.9/FacialAge/BNav_EC2/DepthDuration/v2_depth_duration_MTurk/v2_DepthDuration_HTML.html#104,104,1366,625,1366,768,8-29-2022,9-49-52,68,depth_duration_stimuli/002663_2014-06-13_15-50-26_094959634447_rgbf000075-resize_1/002663_2014-06-13_15-50-26_094959634447_rgbf000075-resize_1-target.png,250,4.7495,1,11313,249,feet,jsons/v1_VE250_randls_4_rotated.json,1637807,1965593,27,Woman
68,876886,DepthScenes,duration_manipulation_targetAtFixation,jsons/v1_VE250_randls_4_rotated.json,http://54.235.29.9/FacialAge/BNav_EC2/DepthDuration/v2_depth_duration_MTurk/v2_DepthDuration_HTML.html#104,104,1366,625,1366,768,8-29-2022,9-49-52,69,depth_duration_stimuli/003081_2014-06-15_15-19-16_094959634447_rgbf000150-resize_1/003081_2014-06-15_15-19-16_094959634447_rgbf000150-resize_1-target.png,250,3.9125,2,3065,250,feet,jsons/v1_VE250_randls_4_rotated.json,1637807,1965593,27,Woman
69,876886,DepthScenes,duration_manipulation_targetAtFixation,jsons/v1_VE250_randls_4_rotated.json,http://54.235.29.9/FacialAge/BNav_EC2/DepthDuration/v2_depth_duration_MTurk/v2_DepthDuration_HTML.html#104,104,1366,625,1366,768,8-29-2022,9-49-52,70,depth_duration_stimuli/001417_2014-06-19_16-25-36_260595134347_rgbf000115-resize_5/001417_2014-06-19_16-25-36_260595134347_rgbf000115-resize_5-target.png,250,4.6255,2,2791,250,feet,jsons/v1_VE250_randls_4_rotated.json,1637807,1965593,27,Woman
70,876886,DepthScenes,duration_manipulation_targetAtFixation,jsons/v1_VE250_randls_4_rotated.json,http://54.235.29.9/FacialAge/BNav_EC2/DepthDuration/v2_depth_duration_MTurk/v2_DepthDuration_HTML.html#104,104,1366,625,1366,768,8-29-2022,9-49-52,71,depth_duration_stimuli/002425_2014-06-28_20-27-29_260595134347_rgbf000031-resize_8/002425_2014-06-28_20-27-29_260595134347_rgbf000031-resize_8-target.png,250,3.8960000000000004,2,2672,249,feet,jsons/v1_VE250_randls_4_rotated.json,1637807,1965593,27,Woman
71,876886,DepthScenes,duration_manipulation_targetAtFixation,jsons/v1_VE250_randls_4_rotated.json,http://54.235.29.9/FacialAge/BNav_EC2/DepthDuration/v2_depth_duration_MTurk/v2_DepthDuration_HTML.html#104,104,1366,625,1366,768,8-29-2022,9-49-52,72,depth_duration_stimuli/000642_2014-06-08_16-59-25_260595134347_rgbf000098-resize_2/000642_2014-06-08_16-59-25_260595134347_rgbf000098-resize_2-target.png,250,2.8815,2,2691,249,feet,jsons/v1_VE250_randls_4_rotated.json,1637807,1965593,27,Woman
72,876886,DepthScenes,duration_manipulation_targetAtFixation,jsons/v1_VE250_randls_4_rotated.json,http://54.235.29.9/FacialAge/BNav_EC2/DepthDuration/v2_depth_duration_MTurk/v2_DepthDuration_HTML.html#104,104,1366,625,1366,768,8-29-2022,9-49-52,73,depth_duration_stimuli/000502_2014-06-08_23-02-32_260595134347_rgbf000063-resize_4/000502_2014-06-08_23-02-32_260595134347_rgbf000063-resize_4-target.png,250,2.431,2,2650,250,feet,jsons/v1_VE250_randls_4_rotated.json,1637807,1965593,27,Woman
73,876886,DepthScenes,duration_manipulation_targetAtFixation,jsons/v1_VE250_randls_4_rotated.json,http://54.235.29.9/FacialAge/BNav_EC2/DepthDuration/v2_depth_duration_MTurk/v2_DepthDuration_HTML.html#104,104,1366,625,1366,768,8-29-2022,9-49-52,74,depth_duration_stimuli/001199_2014-06-17_16-03-48_260595134347_rgbf000077-resize_0/001199_2014-06-17_16-03-48_260595134347_rgbf000077-resize_0-target.png,250,3.4375,3,3498,250,feet,jsons/v1_VE250_randls_4_rotated.json,1637807,1965593,27,Woman
74,876886,DepthScenes,duration_manipulation_targetAtFixation,jsons/v1_VE250_randls_4_rotated.json,http://54.235.29.9/FacialAge/BNav_EC2/DepthDuration/v2_depth_duration_MTurk/v2_DepthDuration_HTML.html#104,104,1366,625,1366,768,8-29-2022,9-49-52,75,depth_duration_stimuli/000780_2014-06-08_22-28-29_260595134347_rgbf000126-resize_1/000780_2014-06-08_22-28-29_260595134347_rgbf000126-resize_1-target.png,250,3.3825,3,3509,250,feet,jsons/v1_VE250_randls_4_rotated.json,1637807,1965593,27,Woman
75,876886,DepthScenes,duration_manipulation_targetAtFixation,jsons/v1_VE250_randls_4_rotated.json,http://54.235.29.9/FacialAge/BNav_EC2/DepthDuration/v2_depth_duration_MTurk/v2_DepthDuration_HTML.html#104,104,1366,625,1366,768,8-29-2022,9-49-52,76,depth_duration_stimuli/002445_2014-06-28_20-32-16_260595134347_rgbf000029-resize_4/002445_2014-06-28_20-32-16_260595134347_rgbf000029-resize_4-target.png,250,2.5315,1,3330,250,feet,jsons/v1_VE250_randls_4_rotated.json,1637807,1965593,27,Woman
76,876886,DepthScenes,duration_manipulation_targetAtFixation,jsons/v1_VE250_randls_4_rotated.json,http://54.235.29.9/FacialAge/BNav_EC2/DepthDuration/v2_depth_duration_MTurk/v2_DepthDuration_HTML.html#104,104,1366,625,1366,768,8-29-2022,9-49-52,77,depth_duration_stimuli/002805_2014-06-22_19-54-03_094959634447_rgbf000079-resize_1/002805_2014-06-22_19-54-03_094959634447_rgbf000079-resize_1-target.png,250,3.1439999999999997,0,4148,251,feet,jsons/v1_VE250_randls_4_rotated.json,1637807,1965593,27,Woman
77,876886,DepthScenes,duration_manipulation_targetAtFixation,jsons/v1_VE250_randls_4_rotated.json,http://54.235.29.9/FacialAge/BNav_EC2/DepthDuration/v2_depth_duration_MTurk/v2_DepthDuration_HTML.html#104,104,1366,625,1366,768,8-29-2022,9-49-52,78,depth_duration_stimuli/000906_2014-06-08_13-35-43_260595134347_rgbf000155-resize_1/000906_2014-06-08_13-35-43_260595134347_rgbf000155-resize_1-target.png,250,2.8489999999999998,0,7356,251,feet,jsons/v1_VE250_randls_4_rotated.json,1637807,1965593,27,Woman
78,876886,DepthScenes,duration_manipulation_targetAtFixation,jsons/v1_VE250_randls_4_rotated.json,http://54.235.29.9/FacialAge/BNav_EC2/DepthDuration/v2_depth_duration_MTurk/v2_DepthDuration_HTML.html#104,104,1366,625,1366,768,8-29-2022,9-49-52,79,depth_duration_stimuli/002199_2014-06-28_18-33-56_260595134347_rgbf000074-resize_0/002199_2014-06-28_18-33-56_260595134347_rgbf000074-resize_0-target.png,250,1.996,2,3048,249,feet,jsons/v1_VE250_randls_4_rotated.json,1637807,1965593,27,Woman
79,876886,DepthScenes,duration_manipulation_targetAtFixation,jsons/v1_VE250_randls_4_rotated.json,http://54.235.29.9/FacialAge/BNav_EC2/DepthDuration/v2_depth_duration_MTurk/v2_DepthDuration_HTML.html#104,104,1366,625,1366,768,8-29-2022,9-49-52,80,depth_duration_stimuli/001056_2014-06-08_18-46-44_260595134347_rgbf000068-resize_0/001056_2014-06-08_18-46-44_260595134347_rgbf000068-resize_0-target.png,250,2.6625,3,3227,251,feet,jsons/v1_VE250_randls_4_rotated.json,1637807,1965593,27,Woman
80,876886,DepthScenes,duration_manipulation_targetAtFixation,jsons/v1_VE250_randls_4_rotated.json,http://54.235.29.9/FacialAge/BNav_EC2/DepthDuration/v2_depth_duration_MTurk/v2_DepthDuration_HTML.html#104,104,1366,625,1366,768,8-29-2022,9-49-52,81,depth_duration_stimuli/000483_2014-06-09_20-41-45_260595134347_rgbf000116-resize_4/000483_2014-06-09_20-41-45_260595134347_rgbf000116-resize_4-target.png,250,1.337,2,3107,250,feet,jsons/v1_VE250_randls_4_rotated.json,1637807,1965593,27,Woman
81,876886,DepthScenes,duration_manipulation_targetAtFixation,jsons/v1_VE250_randls_4_rotated.json,http://54.235.29.9/FacialAge/BNav_EC2/DepthDuration/v2_depth_duration_MTurk/v2_DepthDuration_HTML.html#104,104,1366,625,1366,768,8-29-2022,9-49-52,82,depth_duration_stimuli/000469_2014-06-09_19-42-10_260595134347_rgbf000081-resize_1/000469_2014-06-09_19-42-10_260595134347_rgbf000081-resize_1-target.png,250,1.652,3,3118,251,feet,jsons/v1_VE250_randls_4_rotated.json,1637807,1965593,27,Woman
82,876886,DepthScenes,duration_manipulation_targetAtFixation,jsons/v1_VE250_randls_4_rotated.json,http://54.235.29.9/FacialAge/BNav_EC2/DepthDuration/v2_depth_duration_MTurk/v2_DepthDuration_HTML.html#104,104,1366,625,1366,768,8-29-2022,9-49-52,83,depth_duration_stimuli/003495_2014-05-21_16-01-51_094959634447_rgbf000100-resize_3/003495_2014-05-21_16-01-51_094959634447_rgbf000100-resize_3-target.png,250,1.6255,3,3617,250,feet,jsons/v1_VE250_randls_4_rotated.json,1637807,1965593,27,Woman
83,876886,DepthScenes,duration_manipulation_targetAtFixation,jsons/v1_VE250_randls_4_rotated.json,http://54.235.29.9/FacialAge/BNav_EC2/DepthDuration/v2_depth_duration_MTurk/v2_DepthDuration_HTML.html#104,104,1366,625,1366,768,8-29-2022,9-49-52,84,depth_duration_stimuli/001244_2014-06-17_16-47-45_260595134347_rgbf000030-resize_4/001244_2014-06-17_16-47-45_260595134347_rgbf000030-resize_4-target.png,250,2.0425,3,3094,249,feet,jsons/v1_VE250_randls_4_rotated.json,1637807,1965593,27,Woman
84,876886,DepthScenes,duration_manipulation_targetAtFixation,jsons/v1_VE250_randls_4_rotated.json,http://54.235.29.9/FacialAge/BNav_EC2/DepthDuration/v2_depth_duration_MTurk/v2_DepthDuration_HTML.html#104,104,1366,625,1366,768,8-29-2022,9-49-52,85,depth_duration_stimuli/000691_2014-06-08_13-08-50_260595134347_rgbf000132-resize_3/000691_2014-06-08_13-08-50_260595134347_rgbf000132-resize_3-target.png,250,4.1530000000000005,2,4288,251,feet,jsons/v1_VE250_randls_4_rotated.json,1637807,1965593,27,Woman
85,876886,DepthScenes,duration_manipulation_targetAtFixation,jsons/v1_VE250_randls_4_rotated.json,http://54.235.29.9/FacialAge/BNav_EC2/DepthDuration/v2_depth_duration_MTurk/v2_DepthDuration_HTML.html#104,104,1366,625,1366,768,8-29-2022,9-49-52,86,depth_duration_stimuli/002213_2014-06-28_18-37-58_260595134347_rgbf000055-resize_1/002213_2014-06-28_18-37-58_260595134347_rgbf000055-resize_1-target.png,250,3.62,2,4689,248,feet,jsons/v1_VE250_randls_4_rotated.json,1637807,1965593,27,Woman
86,876886,DepthScenes,duration_manipulation_targetAtFixation,jsons/v1_VE250_randls_4_rotated.json,http://54.235.29.9/FacialAge/BNav_EC2/DepthDuration/v2_depth_duration_MTurk/v2_DepthDuration_HTML.html#104,104,1366,625,1366,768,8-29-2022,9-49-52,87,depth_duration_stimuli/001447_2014-06-19_17-00-32_260595134347_rgbf000082-resize_5/001447_2014-06-19_17-00-32_260595134347_rgbf000082-resize_5-target.png,250,4.13775,2,2681,249,feet,jsons/v1_VE250_randls_4_rotated.json,1637807,1965593,27,Woman
87,876886,DepthScenes,duration_manipulation_targetAtFixation,jsons/v1_VE250_randls_4_rotated.json,http://54.235.29.9/FacialAge/BNav_EC2/DepthDuration/v2_depth_duration_MTurk/v2_DepthDuration_HTML.html#104,104,1366,625,1366,768,8-29-2022,9-49-52,88,depth_duration_stimuli/000447_2014-06-08_16-15-46_260595134347_rgbf000130-resize_1/000447_2014-06-08_16-15-46_260595134347_rgbf000130-resize_1-target.png,250,4.479,3,3931,250,feet,jsons/v1_VE250_randls_4_rotated.json,1637807,1965593,27,Woman
88,876886,DepthScenes,duration_manipulation_targetAtFixation,jsons/v1_VE250_randls_4_rotated.json,http://54.235.29.9/FacialAge/BNav_EC2/DepthDuration/v2_depth_duration_MTurk/v2_DepthDuration_HTML.html#104,104,1366,625,1366,768,8-29-2022,9-49-52,89,depth_duration_stimuli/002209_2014-06-28_18-36-10_260595134347_rgbf000051-resize_1/002209_2014-06-28_18-36-10_260595134347_rgbf000051-resize_1-target.png,250,2.057,2,3877,251,feet,jsons/v1_VE250_randls_4_rotated.json,1637807,1965593,27,Woman
89,876886,DepthScenes,duration_manipulation_targetAtFixation,jsons/v1_VE250_randls_4_rotated.json,http://54.235.29.9/FacialAge/BNav_EC2/DepthDuration/v2_depth_duration_MTurk/v2_DepthDuration_HTML.html#104,104,1366,625,1366,768,8-29-2022,9-49-52,90,depth_duration_stimuli/002763_2014-06-22_19-13-10_094959634447_rgbf000075-resize_4/002763_2014-06-22_19-13-10_094959634447_rgbf000075-resize_4-target.png,250,1.68375,3,3057,249,feet,jsons/v1_VE250_randls_4_rotated.json,1637807,1965593,27,Woman
90,876886,DepthScenes,duration_manipulation_targetAtFixation,jsons/v1_VE250_randls_4_rotated.json,http://54.235.29.9/FacialAge/BNav_EC2/DepthDuration/v2_depth_duration_MTurk/v2_DepthDuration_HTML.html#104,104,1366,625,1366,768,8-29-2022,9-49-52,91,depth_duration_stimuli/002637_2014-06-24_14-51-13_094959634447_rgbf000066-resize_4/002637_2014-06-24_14-51-13_094959634447_rgbf000066-resize_4-target.png,250,1.9955,3,2858,249,feet,jsons/v1_VE250_randls_4_rotated.json,1637807,1965593,27,Woman
91,876886,DepthScenes,duration_manipulation_targetAtFixation,jsons/v1_VE250_randls_4_rotated.json,http://54.235.29.9/FacialAge/BNav_EC2/DepthDuration/v2_depth_duration_MTurk/v2_DepthDuration_HTML.html#104,104,1366,625,1366,768,8-29-2022,9-49-52,92,depth_duration_stimuli/003534_2014-05-22_15-06-10_094959634447_rgbf000102-resize_4/003534_2014-05-22_15-06-10_094959634447_rgbf000102-resize_4-target.png,250,1.426,3,3979,251,feet,jsons/v1_VE250_randls_4_rotated.json,1637807,1965593,27,Woman
92,876886,DepthScenes,duration_manipulation_targetAtFixation,jsons/v1_VE250_randls_4_rotated.json,http://54.235.29.9/FacialAge/BNav_EC2/DepthDuration/v2_depth_duration_MTurk/v2_DepthDuration_HTML.html#104,104,1366,625,1366,768,8-29-2022,9-49-52,93,depth_duration_stimuli/001828_2014-06-26_21-40-03_260595134347_rgbf000024-resize_0/001828_2014-06-26_21-40-03_260595134347_rgbf000024-resize_0-target.png,250,4.8260000000000005,3,3123,250,feet,jsons/v1_VE250_randls_4_rotated.json,1637807,1965593,27,Woman
93,876886,DepthScenes,duration_manipulation_targetAtFixation,jsons/v1_VE250_randls_4_rotated.json,http://54.235.29.9/FacialAge/BNav_EC2/DepthDuration/v2_depth_duration_MTurk/v2_DepthDuration_HTML.html#104,104,1366,625,1366,768,8-29-2022,9-49-52,94,depth_duration_stimuli/000009_2014-05-26_14-32-05_260595134347_rgbf000034-resize_3/000009_2014-05-26_14-32-05_260595134347_rgbf000034-resize_3-target.png,250,3.8715,3,3226,249,feet,jsons/v1_VE250_randls_4_rotated.json,1637807,1965593,27,Woman
94,876886,DepthScenes,duration_manipulation_targetAtFixation,jsons/v1_VE250_randls_4_rotated.json,http://54.235.29.9/FacialAge/BNav_EC2/DepthDuration/v2_depth_duration_MTurk/v2_DepthDuration_HTML.html#104,104,1366,625,1366,768,8-29-2022,9-49-52,95,depth_duration_stimuli/000635_2014-06-08_16-38-42_260595134347_rgbf000106-resize_1/000635_2014-06-08_16-38-42_260595134347_rgbf000106-resize_1-target.png,250,2.074,3,3099,250,feet,jsons/v1_VE250_randls_4_rotated.json,1637807,1965593,27,Woman
95,876886,DepthScenes,duration_manipulation_targetAtFixation,jsons/v1_VE250_randls_4_rotated.json,http://54.235.29.9/FacialAge/BNav_EC2/DepthDuration/v2_depth_duration_MTurk/v2_DepthDuration_HTML.html#104,104,1366,625,1366,768,8-29-2022,9-49-52,96,depth_duration_stimuli/002279_2014-06-28_18-55-32_260595134347_rgbf000040-resize_5/002279_2014-06-28_18-55-32_260595134347_rgbf000040-resize_5-target.png,250,1.5043333333333,2,3435,250,feet,jsons/v1_VE250_randls_4_rotated.json,1637807,1965593,27,Woman
96,876886,DepthScenes,duration_manipulation_targetAtFixation,jsons/v1_VE250_randls_4_rotated.json,http://54.235.29.9/FacialAge/BNav_EC2/DepthDuration/v2_depth_duration_MTurk/v2_DepthDuration_HTML.html#104,104,1366,625,1366,768,8-29-2022,9-49-52,97,depth_duration_stimuli/000943_2014-06-09_19-31-07_260595134347_rgbf000128-resize_1/000943_2014-06-09_19-31-07_260595134347_rgbf000128-resize_1-target.png,250,1.9765,2,2947,251,feet,jsons/v1_VE250_randls_4_rotated.json,1637807,1965593,27,Woman
97,876886,DepthScenes,duration_manipulation_targetAtFixation,jsons/v1_VE250_randls_4_rotated.json,http://54.235.29.9/FacialAge/BNav_EC2/DepthDuration/v2_depth_duration_MTurk/v2_DepthDuration_HTML.html#104,104,1366,625,1366,768,8-29-2022,9-49-52,98,depth_duration_stimuli/003070_2014-06-15_14-58-27_094959634447_rgbf000150-resize_3/003070_2014-06-15_14-58-27_094959634447_rgbf000150-resize_3-target.png,250,2.9415,3,4033,249,feet,jsons/v1_VE250_randls_4_rotated.json,1637807,1965593,27,Woman
98,876886,DepthScenes,duration_manipulation_targetAtFixation,jsons/v1_VE250_randls_4_rotated.json,http://54.235.29.9/FacialAge/BNav_EC2/DepthDuration/v2_depth_duration_MTurk/v2_DepthDuration_HTML.html#104,104,1366,625,1366,768,8-29-2022,9-49-52,99,depth_duration_stimuli/001222_2014-06-17_16-24-06_260595134347_rgbf000073-resize_0/001222_2014-06-17_16-24-06_260595134347_rgbf000073-resize-original.jpg,250,1.4385,2,3418,250,feet,jsons/v1_VE250_randls_4_rotated.json,1637807,1965593,27,Woman
99,876886,DepthScenes,duration_manipulation_targetAtFixation,jsons/v1_VE250_randls_4_rotated.json,http://54.235.29.9/FacialAge/BNav_EC2/DepthDuration/v2_depth_duration_MTurk/v2_DepthDuration_HTML.html#104,104,1366,625,1366,768,8-29-2022,9-49-52,100,depth_duration_stimuli/002444_2014-06-28_20-32-08_260595134347_rgbf000027-resize_0/002444_2014-06-28_20-32-08_260595134347_rgbf000027-resize_0-target.png,250,4.388999999999999,2,4547,251,feet,jsons/v1_VE250_randls_4_rotated.json,1637807,1965593,27,Woman
100,876886,DepthScenes,duration_manipulation_targetAtFixation,jsons/v1_VE250_randls_4_rotated.json,http://54.235.29.9/FacialAge/BNav_EC2/DepthDuration/v2_depth_duration_MTurk/v2_DepthDuration_HTML.html#104,104,1366,625,1366,768,8-29-2022,9-49-52,101,depth_duration_stimuli/000436_2014-06-09_22-25-11_260595134347_rgbf000137-resize_1/000436_2014-06-09_22-25-11_260595134347_rgbf000137-resize_1-target.png,250,4.0705,2,2671,250,feet,jsons/v1_VE250_randls_4_rotated.json,1637807,1965593,27,Woman
101,876886,DepthScenes,duration_manipulation_targetAtFixation,jsons/v1_VE250_randls_4_rotated.json,http://54.235.29.9/FacialAge/BNav_EC2/DepthDuration/v2_depth_duration_MTurk/v2_DepthDuration_HTML.html#104,104,1366,625,1366,768,8-29-2022,9-49-52,102,depth_duration_stimuli/003423_2014-05-21_10-23-26_094959634447_rgbf002665-resize_2/003423_2014-05-21_10-23-26_094959634447_rgbf002665-resize_2-target.png,250,3.2575,2,3169,249,feet,jsons/v1_VE250_randls_4_rotated.json,1637807,1965593,27,Woman
102,876886,DepthScenes,duration_manipulation_targetAtFixation,jsons/v1_VE250_randls_4_rotated.json,http://54.235.29.9/FacialAge/BNav_EC2/DepthDuration/v2_depth_duration_MTurk/v2_DepthDuration_HTML.html#104,104,1366,625,1366,768,8-29-2022,9-49-52,103,depth_duration_stimuli/002905_2014-06-03_18-04-43_094959634447_rgbf000151-resize_2/002905_2014-06-03_18-04-43_094959634447_rgbf000151-resize_2-target.png,250,2.0295,2,2923,251,feet,jsons/v1_VE250_randls_4_rotated.json,1637807,1965593,27,Woman
103,876886,DepthScenes,duration_manipulation_targetAtFixation,jsons/v1_VE250_randls_4_rotated.json,http://54.235.29.9/FacialAge/BNav_EC2/DepthDuration/v2_depth_duration_MTurk/v2_DepthDuration_HTML.html#104,104,1366,625,1366,768,8-29-2022,9-49-52,104,depth_duration_stimuli/002995_2014-06-15_12-31-26_094959634447_rgbf000150-resize_1/002995_2014-06-15_12-31-26_094959634447_rgbf000150-resize_1-target.png,250,3.8360000000000003,2,3119,250,feet,jsons/v1_VE250_randls_4_rotated.json,1637807,1965593,27,Woman
104,876886,DepthScenes,duration_manipulation_targetAtFixation,jsons/v1_VE250_randls_4_rotated.json,http://54.235.29.9/FacialAge/BNav_EC2/DepthDuration/v2_depth_duration_MTurk/v2_DepthDuration_HTML.html#104,104,1366,625,1366,768,8-29-2022,9-49-52,105,depth_duration_stimuli/002748_2014-06-22_19-07-22_094959634447_rgbf000078-resize_1/002748_2014-06-22_19-07-22_094959634447_rgbf000078-resize_1-target.png,250,4.6705,5,3893,251,feet,jsons/v1_VE250_randls_4_rotated.json,1637807,1965593,27,Woman
105,876886,DepthScenes,duration_manipulation_targetAtFixation,jsons/v1_VE250_randls_4_rotated.json,http://54.235.29.9/FacialAge/BNav_EC2/DepthDuration/v2_depth_duration_MTurk/v2_DepthDuration_HTML.html#104,104,1366,625,1366,768,8-29-2022,9-49-52,106,depth_duration_stimuli/002953_2014-06-08_17-32-18_094959634447_rgbf000059-resize_5/002953_2014-06-08_17-32-18_094959634447_rgbf000059-resize_5-target.png,250,1.551,4,3571,250,feet,jsons/v1_VE250_randls_4_rotated.json,1637807,1965593,27,Woman
106,876886,DepthScenes,duration_manipulation_targetAtFixation,jsons/v1_VE250_randls_4_rotated.json,http://54.235.29.9/FacialAge/BNav_EC2/DepthDuration/v2_depth_duration_MTurk/v2_DepthDuration_HTML.html#104,104,1366,625,1366,768,8-29-2022,9-49-52,107,depth_duration_stimuli/000878_2014-06-08_22-52-45_260595134347_rgbf000045-resize_2/000878_2014-06-08_22-52-45_260595134347_rgbf000045-resize_2-target.png,250,2.092,4,3002,250,feet,jsons/v1_VE250_randls_4_rotated.json,1637807,1965593,27,Woman
107,876886,DepthScenes,duration_manipulation_targetAtFixation,jsons/v1_VE250_randls_4_rotated.json,http://54.235.29.9/FacialAge/BNav_EC2/DepthDuration/v2_depth_duration_MTurk/v2_DepthDuration_HTML.html#104,104,1366,625,1366,768,8-29-2022,9-49-52,108,depth_duration_stimuli/002344_2014-06-28_20-06-29_260595134347_rgbf000030-resize_1/002344_2014-06-28_20-06-29_260595134347_rgbf000030-resize_1-target.png,250,1.5795,4,6802,250,feet,jsons/v1_VE250_randls_4_rotated.json,1637807,1965593,27,Woman
108,876886,DepthScenes,duration_manipulation_targetAtFixation,jsons/v1_VE250_randls_4_rotated.json,http://54.235.29.9/FacialAge/BNav_EC2/DepthDuration/v2_depth_duration_MTurk/v2_DepthDuration_HTML.html#104,104,1366,625,1366,768,8-29-2022,9-49-52,109,depth_duration_stimuli/002725_2014-06-22_11-47-51_094959634447_rgbf000070-resize_1/002725_2014-06-22_11-47-51_094959634447_rgbf000070-resize_1-target.png,250,2.195,4,5611,250,feet,jsons/v1_VE250_randls_4_rotated.json,1637807,1965593,27,Woman
109,876886,DepthScenes,duration_manipulation_targetAtFixation,jsons/v1_VE250_randls_4_rotated.json,http://54.235.29.9/FacialAge/BNav_EC2/DepthDuration/v2_depth_duration_MTurk/v2_DepthDuration_HTML.html#104,104,1366,625,1366,768,8-29-2022,9-49-52,110,depth_duration_stimuli/001650_2014-06-20_12-09-00_260595134347_rgbf000087-resize_3/001650_2014-06-20_12-09-00_260595134347_rgbf000087-resize_3-target.png,250,1.9505,1,9817,250,feet,jsons/v1_VE250_randls_4_rotated.json,1637807,1965593,27,Woman
110,876886,DepthScenes,duration_manipulation_targetAtFixation,jsons/v1_VE250_randls_4_rotated.json,http://54.235.29.9/FacialAge/BNav_EC2/DepthDuration/v2_depth_duration_MTurk/v2_DepthDuration_HTML.html#104,104,1366,625,1366,768,8-29-2022,9-49-52,111,depth_duration_stimuli/000682_2014-06-08_23-14-58_260595134347_rgbf000041-resize_5/000682_2014-06-08_23-14-58_260595134347_rgbf000041-resize_5-target.png,250,2.7239999999999998,2,3275,248,feet,jsons/v1_VE250_randls_4_rotated.json,1637807,1965593,27,Woman
111,876886,DepthScenes,duration_manipulation_targetAtFixation,jsons/v1_VE250_randls_4_rotated.json,http://54.235.29.9/FacialAge/BNav_EC2/DepthDuration/v2_depth_duration_MTurk/v2_DepthDuration_HTML.html#104,104,1366,625,1366,768,8-29-2022,9-49-52,112,depth_duration_stimuli/001571_2014-06-20_17-21-32_260595134347_rgbf000089-resize_1/001571_2014-06-20_17-21-32_260595134347_rgbf000089-resize_1-target.png,250,1.86,3,5397,251,feet,jsons/v1_VE250_randls_4_rotated.json,1637807,1965593,27,Woman
112,876886,DepthScenes,duration_manipulation_targetAtFixation,jsons/v1_VE250_randls_4_rotated.json,http://54.235.29.9/FacialAge/BNav_EC2/DepthDuration/v2_depth_duration_MTurk/v2_DepthDuration_HTML.html#104,104,1366,625,1366,768,8-29-2022,9-49-52,113,depth_duration_stimuli/002272_2014-06-28_18-53-56_260595134347_rgbf000067-resize_2/002272_2014-06-28_18-53-56_260595134347_rgbf000067-resize_2-target.png,250,1.138,2,13791,251,feet,jsons/v1_VE250_randls_4_rotated.json,1637807,1965593,27,Woman
113,876886,DepthScenes,duration_manipulation_targetAtFixation,jsons/v1_VE250_randls_4_rotated.json,http://54.235.29.9/FacialAge/BNav_EC2/DepthDuration/v2_depth_duration_MTurk/v2_DepthDuration_HTML.html#104,104,1366,625,1366,768,8-29-2022,9-49-52,114,depth_duration_stimuli/002657_2014-06-13_15-29-54_094959634447_rgbf000150-resize_1/002657_2014-06-13_15-29-54_094959634447_rgbf000150-resize_1-target.png,250,4.919,5,3132,249,feet,jsons/v1_VE250_randls_4_rotated.json,1637807,1965593,27,Woman
114,876886,DepthScenes,duration_manipulation_targetAtFixation,jsons/v1_VE250_randls_4_rotated.json,http://54.235.29.9/FacialAge/BNav_EC2/DepthDuration/v2_depth_duration_MTurk/v2_DepthDuration_HTML.html#104,104,1366,625,1366,768,8-29-2022,9-49-52,115,depth_duration_stimuli/002375_2014-06-28_20-13-44_260595134347_rgbf000032-resize_1/002375_2014-06-28_20-13-44_260595134347_rgbf000032-resize_1-target.png,250,4.0175,2,8227,251,feet,jsons/v1_VE250_randls_4_rotated.json,1637807,1965593,27,Woman
115,876886,DepthScenes,duration_manipulation_targetAtFixation,jsons/v1_VE250_randls_4_rotated.json,http://54.235.29.9/FacialAge/BNav_EC2/DepthDuration/v2_depth_duration_MTurk/v2_DepthDuration_HTML.html#104,104,1366,625,1366,768,8-29-2022,9-49-52,116,depth_duration_stimuli/003079_2014-06-15_15-18-20_094959634447_rgbf000152-resize_8/003079_2014-06-15_15-18-20_094959634447_rgbf000152-resize_8-target.png,250,2.8775,5,3386,248,feet,jsons/v1_VE250_randls_4_rotated.json,1637807,1965593,27,Woman
116,876886,DepthScenes,duration_manipulation_targetAtFixation,jsons/v1_VE250_randls_4_rotated.json,http://54.235.29.9/FacialAge/BNav_EC2/DepthDuration/v2_depth_duration_MTurk/v2_DepthDuration_HTML.html#104,104,1366,625,1366,768,8-29-2022,9-49-52,117,depth_duration_stimuli/000506_2014-06-08_23-21-00_260595134347_rgbf000070-resize_7/000506_2014-06-08_23-21-00_260595134347_rgbf000070-resize_7-target.png,250,4.0585,2,3995,250,feet,jsons/v1_VE250_randls_4_rotated.json,1637807,1965593,27,Woman
117,876886,DepthScenes,duration_manipulation_targetAtFixation,jsons/v1_VE250_randls_4_rotated.json,http://54.235.29.9/FacialAge/BNav_EC2/DepthDuration/v2_depth_duration_MTurk/v2_DepthDuration_HTML.html#104,104,1366,625,1366,768,8-29-2022,9-49-52,118,depth_duration_stimuli/001094_2014-06-15_17-36-00_260595134347_rgbf000205-resize_0/001094_2014-06-15_17-36-00_260595134347_rgbf000205-resize_0-target.png,250,4.2175,2,4810,249,feet,jsons/v1_VE250_randls_4_rotated.json,1637807,1965593,27,Woman
118,876886,DepthScenes,duration_manipulation_targetAtFixation,jsons/v1_VE250_randls_4_rotated.json,http://54.235.29.9/FacialAge/BNav_EC2/DepthDuration/v2_depth_duration_MTurk/v2_DepthDuration_HTML.html#104,104,1366,625,1366,768,8-29-2022,9-49-52,119,depth_duration_stimuli/000692_2014-06-08_13-09-42_260595134347_rgbf000199-resize_2/000692_2014-06-08_13-09-42_260595134347_rgbf000199-resize_2-target.png,250,3.661,3,3159,250,feet,jsons/v1_VE250_randls_4_rotated.json,1637807,1965593,27,Woman
119,876886,DepthScenes,duration_manipulation_targetAtFixation,jsons/v1_VE250_randls_4_rotated.json,http://54.235.29.9/FacialAge/BNav_EC2/DepthDuration/v2_depth_duration_MTurk/v2_DepthDuration_HTML.html#104,104,1366,625,1366,768,8-29-2022,9-49-52,120,depth_duration_stimuli/000787_2014-06-08_22-33-53_260595134347_rgbf000175-resize_1/000787_2014-06-08_22-33-53_260595134347_rgbf000175-resize-original.jpg,250,4.784,0,3451,251,feet,jsons/v1_VE250_randls_4_rotated.json,1637807,1965593,27,Woman
120,876886,DepthScenes,duration_manipulation_targetAtFixation,jsons/v1_VE250_randls_4_rotated.json,http://54.235.29.9/FacialAge/BNav_EC2/DepthDuration/v2_depth_duration_MTurk/v2_DepthDuration_HTML.html#104,104,1366,625,1366,768,8-29-2022,9-49-52,121,depth_duration_stimuli/001584_2014-06-20_11-07-43_260595134347_rgbf000002-resize_1/001584_2014-06-20_11-07-43_260595134347_rgbf000002-resize_1-target.png,250,3.53,1,12060,250,feet,jsons/v1_VE250_randls_4_rotated.json,1637807,1965593,27,Woman
121,876886,DepthScenes,duration_manipulation_targetAtFixation,jsons/v1_VE250_randls_4_rotated.json,http://54.235.29.9/FacialAge/BNav_EC2/DepthDuration/v2_depth_duration_MTurk/v2_DepthDuration_HTML.html#104,104,1366,625,1366,768,8-29-2022,9-49-52,122,depth_duration_stimuli/003621_2014-05-23_18-06-08_094959634447_rgbf000101-resize_1/003621_2014-05-23_18-06-08_094959634447_rgbf000101-resize_1-target.png,250,3.9835,2,6393,249,feet,jsons/v1_VE250_randls_4_rotated.json,1637807,1965593,27,Woman
122,876886,DepthScenes,duration_manipulation_targetAtFixation,jsons/v1_VE250_randls_4_rotated.json,http://54.235.29.9/FacialAge/BNav_EC2/DepthDuration/v2_depth_duration_MTurk/v2_DepthDuration_HTML.html#104,104,1366,625,1366,768,8-29-2022,9-49-52,123,depth_duration_stimuli/002340_2014-06-28_20-05-46_260595134347_rgbf000113-resize_0/002340_2014-06-28_20-05-46_260595134347_rgbf000113-resize_0-target.png,250,2.4735,3,3747,249,feet,jsons/v1_VE250_randls_4_rotated.json,1637807,1965593,27,Woman
123,876886,DepthScenes,duration_manipulation_targetAtFixation,jsons/v1_VE250_randls_4_rotated.json,http://54.235.29.9/FacialAge/BNav_EC2/DepthDuration/v2_depth_duration_MTurk/v2_DepthDuration_HTML.html#104,104,1366,625,1366,768,8-29-2022,9-49-52,124,depth_duration_stimuli/001016_2014-06-09_16-16-10_260595134347_rgbf000112-resize_5/001016_2014-06-09_16-16-10_260595134347_rgbf000112-resize_5-target.png,250,1.6565,3,3167,248,feet,jsons/v1_VE250_randls_4_rotated.json,1637807,1965593,27,Woman
124,876886,DepthScenes,duration_manipulation_targetAtFixation,jsons/v1_VE250_randls_4_rotated.json,http://54.235.29.9/FacialAge/BNav_EC2/DepthDuration/v2_depth_duration_MTurk/v2_DepthDuration_HTML.html#104,104,1366,625,1366,768,8-29-2022,9-49-52,125,depth_duration_stimuli/000854_2014-06-09_19-43-13_260595134347_rgbf000066-resize_0/000854_2014-06-09_19-43-13_260595134347_rgbf000066-resize_0-target.png,250,3.068,2,15342,251,feet,jsons/v1_VE250_randls_4_rotated.json,1637807,1965593,27,Woman
125,876886,DepthScenes,duration_manipulation_targetAtFixation,jsons/v1_VE250_randls_4_rotated.json,http://54.235.29.9/FacialAge/BNav_EC2/DepthDuration/v2_depth_duration_MTurk/v2_DepthDuration_HTML.html#104,104,1366,625,1366,768,8-29-2022,9-49-52,126,depth_duration_stimuli/000758_2014-06-08_22-05-08_260595134347_rgbf000085-resize_0/000758_2014-06-08_22-05-08_260595134347_rgbf000085-resize_0-target.png,250,3.3810000000000002,2,8889,249,feet,jsons/v1_VE250_randls_4_rotated.json,1637807,1965593,27,Woman
126,876886,DepthScenes,duration_manipulation_targetAtFixation,jsons/v1_VE250_randls_4_rotated.json,http://54.235.29.9/FacialAge/BNav_EC2/DepthDuration/v2_depth_duration_MTurk/v2_DepthDuration_HTML.html#104,104,1366,625,1366,768,8-29-2022,9-49-52,127,depth_duration_stimuli/001235_2014-06-17_16-37-36_260595134347_rgbf000084-resize_4/001235_2014-06-17_16-37-36_260595134347_rgbf000084-resize_4-target.png,250,3.6605,2,2892,250,feet,jsons/v1_VE250_randls_4_rotated.json,1637807,1965593,27,Woman
127,876886,DepthScenes,duration_manipulation_targetAtFixation,jsons/v1_VE250_randls_4_rotated.json,http://54.235.29.9/FacialAge/BNav_EC2/DepthDuration/v2_depth_duration_MTurk/v2_DepthDuration_HTML.html#104,104,1366,625,1366,768,8-29-2022,9-49-52,128,depth_duration_stimuli/000788_2014-06-08_22-34-36_260595134347_rgbf000131-resize_1/000788_2014-06-08_22-34-36_260595134347_rgbf000131-resize_1-target.png,250,3.359,0,4185,249,feet,jsons/v1_VE250_randls_4_rotated.json,1637807,1965593,27,Woman
128,876886,DepthScenes,duration_manipulation_targetAtFixation,jsons/v1_VE250_randls_4_rotated.json,http://54.235.29.9/FacialAge/BNav_EC2/DepthDuration/v2_depth_duration_MTurk/v2_DepthDuration_HTML.html#104,104,1366,625,1366,768,8-29-2022,9-49-52,129,depth_duration_stimuli/002758_2014-06-22_19-11-20_094959634447_rgbf000128-resize_1/002758_2014-06-22_19-11-20_094959634447_rgbf000128-resize_1-target.png,250,2.555,1,4787,251,feet,jsons/v1_VE250_randls_4_rotated.json,1637807,1965593,27,Woman
129,876886,DepthScenes,duration_manipulation_targetAtFixation,jsons/v1_VE250_randls_4_rotated.json,http://54.235.29.9/FacialAge/BNav_EC2/DepthDuration/v2_depth_duration_MTurk/v2_DepthDuration_HTML.html#104,104,1366,625,1366,768,8-29-2022,9-49-52,130,depth_duration_stimuli/002630_2014-06-24_14-47-50_094959634447_rgbf000055-resize_1/002630_2014-06-24_14-47-50_094959634447_rgbf000055-resize_1-target.png,250,3.0095,1,8965,251,feet,jsons/v1_VE250_randls_4_rotated.json,1637807,1965593,27,Woman
130,876886,DepthScenes,duration_manipulation_targetAtFixation,jsons/v1_VE250_randls_4_rotated.json,http://54.235.29.9/FacialAge/BNav_EC2/DepthDuration/v2_depth_duration_MTurk/v2_DepthDuration_HTML.html#104,104,1366,625,1366,768,8-29-2022,9-49-52,131,depth_duration_stimuli/003338_2014-05-20_11-01-23_094959634447_rgbf000051-resize_6/003338_2014-05-20_11-01-23_094959634447_rgbf000051-resize_6-target.png,250,1.693,1,3217,251,feet,jsons/v1_VE250_randls_4_rotated.json,1637807,1965593,27,Woman
131,876886,DepthScenes,duration_manipulation_targetAtFixation,jsons/v1_VE250_randls_4_rotated.json,http://54.235.29.9/FacialAge/BNav_EC2/DepthDuration/v2_depth_duration_MTurk/v2_DepthDuration_HTML.html#104,104,1366,625,1366,768,8-29-2022,9-49-52,132,depth_duration_stimuli/002509_2014-06-24_13-19-22_094959634447_rgbf000077-resize_0/002509_2014-06-24_13-19-22_094959634447_rgbf000077-resize_0-target.png,250,1.3065,1,3132,249,feet,jsons/v1_VE250_randls_4_rotated.json,1637807,1965593,27,Woman
132,876886,DepthScenes,duration_manipulation_targetAtFixation,jsons/v1_VE250_randls_4_rotated.json,http://54.235.29.9/FacialAge/BNav_EC2/DepthDuration/v2_depth_duration_MTurk/v2_DepthDuration_HTML.html#104,104,1366,625,1366,768,8-29-2022,9-49-52,133,depth_duration_stimuli/000709_2014-06-08_13-51-55_260595134347_rgbf000068-resize_3/000709_2014-06-08_13-51-55_260595134347_rgbf000068-resize_3-target.png,250,1.8030000000000002,1,2825,249,feet,jsons/v1_VE250_randls_4_rotated.json,1637807,1965593,27,Woman
133,876886,DepthScenes,duration_manipulation_targetAtFixation,jsons/v1_VE250_randls_4_rotated.json,http://54.235.29.9/FacialAge/BNav_EC2/DepthDuration/v2_depth_duration_MTurk/v2_DepthDuration_HTML.html#104,104,1366,625,1366,768,8-29-2022,9-49-52,134,depth_duration_stimuli/002057_2014-06-24_21-00-13_260595134347_rgbf000120-resize_1/002057_2014-06-24_21-00-13_260595134347_rgbf000120-resize_1-target.png,250,2.967,1,4944,250,feet,jsons/v1_VE250_randls_4_rotated.json,1637807,1965593,27,Woman
134,876886,DepthScenes,duration_manipulation_targetAtFixation,jsons/v1_VE250_randls_4_rotated.json,http://54.235.29.9/FacialAge/BNav_EC2/DepthDuration/v2_depth_duration_MTurk/v2_DepthDuration_HTML.html#104,104,1366,625,1366,768,8-29-2022,9-49-52,135,depth_duration_stimuli/000375_2014-06-08_11-17-29_260595134347_rgbf000133-resize_2/000375_2014-06-08_11-17-29_260595134347_rgbf000133-resize-original.jpg,250,4.718,0,2794,251,feet,jsons/v1_VE250_randls_4_rotated.json,1637807,1965593,27,Woman
135,876886,DepthScenes,duration_manipulation_targetAtFixation,jsons/v1_VE250_randls_4_rotated.json,http://54.235.29.9/FacialAge/BNav_EC2/DepthDuration/v2_depth_duration_MTurk/v2_DepthDuration_HTML.html#104,104,1366,625,1366,768,8-29-2022,9-49-52,136,depth_duration_stimuli/000665_2014-06-09_20-42-35_260595134347_rgbf000110-resize_1/000665_2014-06-09_20-42-35_260595134347_rgbf000110-resize_1-target.png,250,3.057,1,3102,249,feet,jsons/v1_VE250_randls_4_rotated.json,1637807,1965593,27,Woman
136,876886,DepthScenes,duration_manipulation_targetAtFixation,jsons/v1_VE250_randls_4_rotated.json,http://54.235.29.9/FacialAge/BNav_EC2/DepthDuration/v2_depth_duration_MTurk/v2_DepthDuration_HTML.html#104,104,1366,625,1366,768,8-29-2022,9-49-52,137,depth_duration_stimuli/001150_2014-06-17_15-27-34_260595134347_rgbf000108-resize_2/001150_2014-06-17_15-27-34_260595134347_rgbf000108-resize_2-target.png,250,4.0325,1,12164,249,feet,jsons/v1_VE250_randls_4_rotated.json,1637807,1965593,27,Woman
137,876886,DepthScenes,duration_manipulation_targetAtFixation,jsons/v1_VE250_randls_4_rotated.json,http://54.235.29.9/FacialAge/BNav_EC2/DepthDuration/v2_depth_duration_MTurk/v2_DepthDuration_HTML.html#104,104,1366,625,1366,768,8-29-2022,9-49-52,138,depth_duration_stimuli/003083_2014-06-15_15-21-03_094959634447_rgbf000063-resize_1/003083_2014-06-15_15-21-03_094959634447_rgbf000063-resize_1-target.png,250,4.1405,3,3216,249,feet,jsons/v1_VE250_randls_4_rotated.json,1637807,1965593,27,Woman
138,876886,DepthScenes,duration_manipulation_targetAtFixation,jsons/v1_VE250_randls_4_rotated.json,http://54.235.29.9/FacialAge/BNav_EC2/DepthDuration/v2_depth_duration_MTurk/v2_DepthDuration_HTML.html#104,104,1366,625,1366,768,8-29-2022,9-49-52,139,depth_duration_stimuli/000486_2014-06-09_20-47-20_260595134347_rgbf000143-resize_2/000486_2014-06-09_20-47-20_260595134347_rgbf000143-resize_2-target.png,250,4.8325,1,3900,251,feet,jsons/v1_VE250_randls_4_rotated.json,1637807,1965593,27,Woman
139,876886,DepthScenes,duration_manipulation_targetAtFixation,jsons/v1_VE250_randls_4_rotated.json,http://54.235.29.9/FacialAge/BNav_EC2/DepthDuration/v2_depth_duration_MTurk/v2_DepthDuration_HTML.html#104,104,1366,625,1366,768,8-29-2022,9-49-52,140,depth_duration_stimuli/000556_2014-06-09_22-42-56_260595134347_rgbf000214-resize_1/000556_2014-06-09_22-42-56_260595134347_rgbf000214-resize_1-target.png,250,4.8415,6,3299,251,feet,jsons/v1_VE250_randls_4_rotated.json,1637807,1965593,27,Woman
140,876886,DepthScenes,duration_manipulation_targetAtFixation,jsons/v1_VE250_randls_4_rotated.json,http://54.235.29.9/FacialAge/BNav_EC2/DepthDuration/v2_depth_duration_MTurk/v2_DepthDuration_HTML.html#104,104,1366,625,1366,768,8-29-2022,9-49-52,141,depth_duration_stimuli/001158_2014-06-17_15-32-16_260595134347_rgbf000138-resize_2/001158_2014-06-17_15-32-16_260595134347_rgbf000138-resize_2-target.png,250,4.5315,3,2924,251,feet,jsons/v1_VE250_randls_4_rotated.json,1637807,1965593,27,Woman
141,876886,DepthScenes,duration_manipulation_targetAtFixation,jsons/v1_VE250_randls_4_rotated.json,http://54.235.29.9/FacialAge/BNav_EC2/DepthDuration/v2_depth_duration_MTurk/v2_DepthDuration_HTML.html#104,104,1366,625,1366,768,8-29-2022,9-49-52,142,depth_duration_stimuli/001516_2014-06-20_16-25-09_260595134347_rgbf000076-resize_2/001516_2014-06-20_16-25-09_260595134347_rgbf000076-resize_2-target.png,250,1.7445,3,21801,250,feet,jsons/v1_VE250_randls_4_rotated.json,1637807,1965593,27,Woman
142,876886,DepthScenes,duration_manipulation_targetAtFixation,jsons/v1_VE250_randls_4_rotated.json,http://54.235.29.9/FacialAge/BNav_EC2/DepthDuration/v2_depth_duration_MTurk/v2_DepthDuration_HTML.html#104,104,1366,625,1366,768,8-29-2022,9-49-52,143,depth_duration_stimuli/002118_2014-06-25_20-32-08_260595134347_rgbf000078-resize_1/002118_2014-06-25_20-32-08_260595134347_rgbf000078-resize_1-target.png,250,2.6460000000000004,3,3589,248,feet,jsons/v1_VE250_randls_4_rotated.json,1637807,1965593,27,Woman
143,876886,DepthScenes,duration_manipulation_targetAtFixation,jsons/v1_VE250_randls_4_rotated.json,http://54.235.29.9/FacialAge/BNav_EC2/DepthDuration/v2_depth_duration_MTurk/v2_DepthDuration_HTML.html#104,104,1366,625,1366,768,8-29-2022,9-49-52,144,depth_duration_stimuli/002136_2014-06-25_21-18-03_260595134347_rgbf000109-resize_3/002136_2014-06-25_21-18-03_260595134347_rgbf000109-resize_3-target.png,250,1.9569999999999999,3,4225,249,feet,jsons/v1_VE250_randls_4_rotated.json,1637807,1965593,27,Woman
144,876886,DepthScenes,duration_manipulation_targetAtFixation,jsons/v1_VE250_randls_4_rotated.json,http://54.235.29.9/FacialAge/BNav_EC2/DepthDuration/v2_depth_duration_MTurk/v2_DepthDuration_HTML.html#104,104,1366,625,1366,768,8-29-2022,9-49-52,145,depth_duration_stimuli/002964_2014-06-08_17-46-11_094959634447_rgbf000091-resize_4/002964_2014-06-08_17-46-11_094959634447_rgbf000091-resize_4-target.png,250,1.6909999999999998,0,3210,250,feet,jsons/v1_VE250_randls_4_rotated.json,1637807,1965593,27,Woman
145,876886,DepthScenes,duration_manipulation_targetAtFixation,jsons/v1_VE250_randls_4_rotated.json,http://54.235.29.9/FacialAge/BNav_EC2/DepthDuration/v2_depth_duration_MTurk/v2_DepthDuration_HTML.html#104,104,1366,625,1366,768,8-29-2022,9-49-52,146,depth_duration_stimuli/001392_2014-06-19_16-07-59_260595134347_rgbf000046-resize_1/001392_2014-06-19_16-07-59_260595134347_rgbf000046-resize_1-target.png,250,4.135,5,2961,250,feet,jsons/v1_VE250_randls_4_rotated.json,1637807,1965593,27,Woman
146,876886,DepthScenes,duration_manipulation_targetAtFixation,jsons/v1_VE250_randls_4_rotated.json,http://54.235.29.9/FacialAge/BNav_EC2/DepthDuration/v2_depth_duration_MTurk/v2_DepthDuration_HTML.html#104,104,1366,625,1366,768,8-29-2022,9-49-52,147,depth_duration_stimuli/001570_2014-06-20_17-21-09_260595134347_rgbf000135-resize_4/001570_2014-06-20_17-21-09_260595134347_rgbf000135-resize_4-target.png,250,4.467,5,3026,250,feet,jsons/v1_VE250_randls_4_rotated.json,1637807,1965593,27,Woman
147,876886,DepthScenes,duration_manipulation_targetAtFixation,jsons/v1_VE250_randls_4_rotated.json,http://54.235.29.9/FacialAge/BNav_EC2/DepthDuration/v2_depth_duration_MTurk/v2_DepthDuration_HTML.html#104,104,1366,625,1366,768,8-29-2022,9-49-52,148,depth_duration_stimuli/001132_2014-06-17_14-48-54_260595134347_rgbf000100-resize_2/001132_2014-06-17_14-48-54_260595134347_rgbf000100-resize_2-target.png,250,3.753,5,5066,250,feet,jsons/v1_VE250_randls_4_rotated.json,1637807,1965593,27,Woman
148,876886,DepthScenes,duration_manipulation_targetAtFixation,jsons/v1_VE250_randls_4_rotated.json,http://54.235.29.9/FacialAge/BNav_EC2/DepthDuration/v2_depth_duration_MTurk/v2_DepthDuration_HTML.html#104,104,1366,625,1366,768,8-29-2022,9-49-52,149,depth_duration_stimuli/001133_2014-06-17_14-49-16_260595134347_rgbf000100-resize_0/001133_2014-06-17_14-49-16_260595134347_rgbf000100-resize_0-target.png,250,4.2115,3,3458,249,feet,jsons/v1_VE250_randls_4_rotated.json,1637807,1965593,27,Woman
149,876886,DepthScenes,duration_manipulation_targetAtFixation,jsons/v1_VE250_randls_4_rotated.json,http://54.235.29.9/FacialAge/BNav_EC2/DepthDuration/v2_depth_duration_MTurk/v2_DepthDuration_HTML.html#104,104,1366,625,1366,768,8-29-2022,9-49-52,150,depth_duration_stimuli/003129_2014-05-12_10-48-10_094959634447_rgbf000100-resize_0/003129_2014-05-12_10-48-10_094959634447_rgbf000100-resize_0-target.png,250,4.9305,5,2897,249,feet,jsons/v1_VE250_randls_4_rotated.json,1637807,1965593,27,Woman
150,876886,DepthScenes,duration_manipulation_targetAtFixation,jsons/v1_VE250_randls_4_rotated.json,http://54.235.29.9/FacialAge/BNav_EC2/DepthDuration/v2_depth_duration_MTurk/v2_DepthDuration_HTML.html#104,104,1366,625,1366,768,8-29-2022,9-49-52,151,depth_duration_stimuli/000414_2014-06-04_19-49-13_260595134347_rgbf000044-resize_0/000414_2014-06-04_19-49-13_260595134347_rgbf000044-resize_0-target.png,250,4.329,5,2995,251,feet,jsons/v1_VE250_randls_4_rotated.json,1637807,1965593,27,Woman
151,876886,DepthScenes,duration_manipulation_targetAtFixation,jsons/v1_VE250_randls_4_rotated.json,http://54.235.29.9/FacialAge/BNav_EC2/DepthDuration/v2_depth_duration_MTurk/v2_DepthDuration_HTML.html#104,104,1366,625,1366,768,8-29-2022,9-49-52,152,depth_duration_stimuli/000569_2014-06-09_22-51-47_260595134347_rgbf000141-resize_3/000569_2014-06-09_22-51-47_260595134347_rgbf000141-resize-original.jpg,250,4.512,0,3043,251,feet,jsons/v1_VE250_randls_4_rotated.json,1637807,1965593,27,Woman
152,876886,DepthScenes,duration_manipulation_targetAtFixation,jsons/v1_VE250_randls_4_rotated.json,http://54.235.29.9/FacialAge/BNav_EC2/DepthDuration/v2_depth_duration_MTurk/v2_DepthDuration_HTML.html#104,104,1366,625,1366,768,8-29-2022,9-49-52,153,depth_duration_stimuli/001136_2014-06-17_15-19-41_260595134347_rgbf000076-resize_3/001136_2014-06-17_15-19-41_260595134347_rgbf000076-resize_3-target.png,250,1.8655,5,3105,249,feet,jsons/v1_VE250_randls_4_rotated.json,1637807,1965593,27,Woman
153,876886,DepthScenes,duration_manipulation_targetAtFixation,jsons/v1_VE250_randls_4_rotated.json,http://54.235.29.9/FacialAge/BNav_EC2/DepthDuration/v2_depth_duration_MTurk/v2_DepthDuration_HTML.html#104,104,1366,625,1366,768,8-29-2022,9-49-52,154,depth_duration_stimuli/001164_2014-06-17_15-35-46_260595134347_rgbf000085-resize_3/001164_2014-06-17_15-35-46_260595134347_rgbf000085-resize_3-target.png,250,2.354,3,3443,251,feet,jsons/v1_VE250_randls_4_rotated.json,1637807,1965593,27,Woman
154,876886,DepthScenes,duration_manipulation_targetAtFixation,jsons/v1_VE250_randls_4_rotated.json,http://54.235.29.9/FacialAge/BNav_EC2/DepthDuration/v2_depth_duration_MTurk/v2_DepthDuration_HTML.html#104,104,1366,625,1366,768,8-29-2022,9-49-52,155,depth_duration_stimuli/000734_2014-06-08_17-39-11_260595134347_rgbf000128-resize_2/000734_2014-06-08_17-39-11_260595134347_rgbf000128-resize_2-target.png,250,4.098,3,3386,248,feet,jsons/v1_VE250_randls_4_rotated.json,1637807,1965593,27,Woman
155,876886,DepthScenes,duration_manipulation_targetAtFixation,jsons/v1_VE250_randls_4_rotated.json,http://54.235.29.9/FacialAge/BNav_EC2/DepthDuration/v2_depth_duration_MTurk/v2_DepthDuration_HTML.html#104,104,1366,625,1366,768,8-29-2022,9-49-52,156,depth_duration_stimuli/000739_2014-06-08_18-45-58_260595134347_rgbf000068-resize_1/000739_2014-06-08_18-45-58_260595134347_rgbf000068-resize_1-target.png,250,3.534,3,2721,249,feet,jsons/v1_VE250_randls_4_rotated.json,1637807,1965593,27,Woman
156,876886,DepthScenes,duration_manipulation_targetAtFixation,jsons/v1_VE250_randls_4_rotated.json,http://54.235.29.9/FacialAge/BNav_EC2/DepthDuration/v2_depth_duration_MTurk/v2_DepthDuration_HTML.html#104,104,1366,625,1366,768,8-29-2022,9-49-52,157,depth_duration_stimuli/003228_2014-05-14_13-42-35_094959634447_rgbf000101-resize_1/003228_2014-05-14_13-42-35_094959634447_rgbf000101-resize_1-target.png,250,1.9680000000000002,3,2531,250,feet,jsons/v1_VE250_randls_4_rotated.json,1637807,1965593,27,Woman
157,876886,DepthScenes,duration_manipulation_targetAtFixation,jsons/v1_VE250_randls_4_rotated.json,http://54.235.29.9/FacialAge/BNav_EC2/DepthDuration/v2_depth_duration_MTurk/v2_DepthDuration_HTML.html#104,104,1366,625,1366,768,8-29-2022,9-49-52,158,depth_duration_stimuli/002600_2014-06-24_14-27-04_094959634447_rgbf000074-resize_2/002600_2014-06-24_14-27-04_094959634447_rgbf000074-resize_2-target.png,250,2.7575,3,3154,250,feet,jsons/v1_VE250_randls_4_rotated.json,1637807,1965593,27,Woman
158,876886,DepthScenes,duration_manipulation_targetAtFixation,jsons/v1_VE250_randls_4_rotated.json,http://54.235.29.9/FacialAge/BNav_EC2/DepthDuration/v2_depth_duration_MTurk/v2_DepthDuration_HTML.html#104,104,1366,625,1366,768,8-29-2022,9-49-52,159,depth_duration_stimuli/000137_2014-05-20_17-04-49_260595134347_rgbf000120-resize_1/000137_2014-05-20_17-04-49_260595134347_rgbf000120-resize_1-target.png,250,3.786,0,3819,250,feet,jsons/v1_VE250_randls_4_rotated.json,1637807,1965593,27,Woman
159,876886,DepthScenes,duration_manipulation_targetAtFixation,jsons/v1_VE250_randls_4_rotated.json,http://54.235.29.9/FacialAge/BNav_EC2/DepthDuration/v2_depth_duration_MTurk/v2_DepthDuration_HTML.html#104,104,1366,625,1366,768,8-29-2022,9-49-52,160,depth_duration_stimuli/000736_2014-06-08_18-24-15_260595134347_rgbf000206-resize_3/000736_2014-06-08_18-24-15_260595134347_rgbf000206-resize_3-target.png,250,3.515,3,3186,250,feet,jsons/v1_VE250_randls_4_rotated.json,1637807,1965593,27,Woman
160,876886,DepthScenes,duration_manipulation_targetAtFixation,jsons/v1_VE250_randls_4_rotated.json,http://54.235.29.9/FacialAge/BNav_EC2/DepthDuration/v2_depth_duration_MTurk/v2_DepthDuration_HTML.html#104,104,1366,625,1366,768,8-29-2022,9-49-52,161,depth_duration_stimuli/002875_2014-06-01_15-19-00_094959634447_rgbf000151-resize_1/002875_2014-06-01_15-19-00_094959634447_rgbf000151-resize_1-target.png,250,1.9675,3,123509,251,feet,jsons/v1_VE250_randls_4_rotated.json,1637807,1965593,27,Woman
161,876886,DepthScenes,duration_manipulation_targetAtFixation,jsons/v1_VE250_randls_4_rotated.json,http://54.235.29.9/FacialAge/BNav_EC2/DepthDuration/v2_depth_duration_MTurk/v2_DepthDuration_HTML.html#104,104,1366,625,1366,768,8-29-2022,9-49-52,162,depth_duration_stimuli/001011_2014-06-08_23-18-54_260595134347_rgbf000044-resize_4/001011_2014-06-08_23-18-54_260595134347_rgbf000044-resize_4-target.png,250,2.4730000000000003,3,3907,250,feet,jsons/v1_VE250_randls_4_rotated.json,1637807,1965593,27,Woman
162,876886,DepthScenes,duration_manipulation_targetAtFixation,jsons/v1_VE250_randls_4_rotated.json,http://54.235.29.9/FacialAge/BNav_EC2/DepthDuration/v2_depth_duration_MTurk/v2_DepthDuration_HTML.html#104,104,1366,625,1366,768,8-29-2022,9-49-52,163,depth_duration_stimuli/000866_2014-06-09_20-45-42_260595134347_rgbf000139-resize_1/000866_2014-06-09_20-45-42_260595134347_rgbf000139-resize_1-target.png,250,3.2155,3,3651,250,feet,jsons/v1_VE250_randls_4_rotated.json,1637807,1965593,27,Woman
163,876886,DepthScenes,duration_manipulation_targetAtFixation,jsons/v1_VE250_randls_4_rotated.json,http://54.235.29.9/FacialAge/BNav_EC2/DepthDuration/v2_depth_duration_MTurk/v2_DepthDuration_HTML.html#104,104,1366,625,1366,768,8-29-2022,9-49-52,164,depth_duration_stimuli/002989_2014-06-15_12-25-03_094959634447_rgbf000150-resize_3/002989_2014-06-15_12-25-03_094959634447_rgbf000150-resize_3-target.png,250,4.1975,3,2721,248,feet,jsons/v1_VE250_randls_4_rotated.json,1637807,1965593,27,Woman
