,subjID,experimentName,versionName,sequenceName,url,selected_row,windowWidth,windowHeight,screenWidth,screenHeight,startDate,startTime,trial,stimulus,duration,actual_depth,depth_estimate,trial_RT,log_sceneDuration,unitSelection,seq_filepath,experimentTime,totalTime,age,gender
0,880387,DepthScenes,duration_manipulation_targetAtFixation,jsons/v1_VE1000_randls_45_rotated.json,http://54.235.29.9/FacialAge/BNav_EC2/DepthDuration/v2_depth_duration_MTurk/v2_DepthDuration_HTML.html#94,94,1366,768,1366,768,8-22-2022,7-59-44,1,depth_duration_stimuli/000943_2014-06-09_19-31-07_260595134347_rgbf000128-resize_1/000943_2014-06-09_19-31-07_260595134347_rgbf000128-resize_1-target.png,1000,1.9765,5,19476,999,meters,jsons/v1_VE1000_randls_45_rotated.json,1781045,2443092,65,Man
1,880387,DepthScenes,duration_manipulation_targetAtFixation,jsons/v1_VE1000_randls_45_rotated.json,http://54.235.29.9/FacialAge/BNav_EC2/DepthDuration/v2_depth_duration_MTurk/v2_DepthDuration_HTML.html#94,94,1366,768,1366,768,8-22-2022,7-59-44,2,depth_duration_stimuli/003070_2014-06-15_14-58-27_094959634447_rgbf000150-resize_3/003070_2014-06-15_14-58-27_094959634447_rgbf000150-resize_3-target.png,1000,2.9415,5,3664,999,meters,jsons/v1_VE1000_randls_45_rotated.json,1781045,2443092,65,Man
2,880387,DepthScenes,duration_manipulation_targetAtFixation,jsons/v1_VE1000_randls_45_rotated.json,http://54.235.29.9/FacialAge/BNav_EC2/DepthDuration/v2_depth_duration_MTurk/v2_DepthDuration_HTML.html#94,94,1366,768,1366,768,8-22-2022,7-59-44,3,depth_duration_stimuli/001571_2014-06-20_17-21-32_260595134347_rgbf000089-resize_1/001571_2014-06-20_17-21-32_260595134347_rgbf000089-resize_1-target.png,1000,1.86,5,12650,1000,meters,jsons/v1_VE1000_randls_45_rotated.json,1781045,2443092,65,Man
3,880387,DepthScenes,duration_manipulation_targetAtFixation,jsons/v1_VE1000_randls_45_rotated.json,http://54.235.29.9/FacialAge/BNav_EC2/DepthDuration/v2_depth_duration_MTurk/v2_DepthDuration_HTML.html#94,94,1366,768,1366,768,8-22-2022,7-59-44,4,depth_duration_stimuli/002272_2014-06-28_18-53-56_260595134347_rgbf000067-resize_2/002272_2014-06-28_18-53-56_260595134347_rgbf000067-resize_2-target.png,1000,1.138,5,3715,999,meters,jsons/v1_VE1000_randls_45_rotated.json,1781045,2443092,65,Man
4,880387,DepthScenes,duration_manipulation_targetAtFixation,jsons/v1_VE1000_randls_45_rotated.json,http://54.235.29.9/FacialAge/BNav_EC2/DepthDuration/v2_depth_duration_MTurk/v2_DepthDuration_HTML.html#94,94,1366,768,1366,768,8-22-2022,7-59-44,5,depth_duration_stimuli/002995_2014-06-15_12-31-26_094959634447_rgbf000150-resize_1/002995_2014-06-15_12-31-26_094959634447_rgbf000150-resize_1-target.png,1000,3.8360000000000003,5,10578,998,meters,jsons/v1_VE1000_randls_45_rotated.json,1781045,2443092,65,Man
5,880387,DepthScenes,duration_manipulation_targetAtFixation,jsons/v1_VE1000_randls_45_rotated.json,http://54.235.29.9/FacialAge/BNav_EC2/DepthDuration/v2_depth_duration_MTurk/v2_DepthDuration_HTML.html#94,94,1366,768,1366,768,8-22-2022,7-59-44,6,depth_duration_stimuli/002748_2014-06-22_19-07-22_094959634447_rgbf000078-resize_1/002748_2014-06-22_19-07-22_094959634447_rgbf000078-resize_1-target.png,1000,4.6705,5,3739,1000,meters,jsons/v1_VE1000_randls_45_rotated.json,1781045,2443092,65,Man
6,880387,DepthScenes,duration_manipulation_targetAtFixation,jsons/v1_VE1000_randls_45_rotated.json,http://54.235.29.9/FacialAge/BNav_EC2/DepthDuration/v2_depth_duration_MTurk/v2_DepthDuration_HTML.html#94,94,1366,768,1366,768,8-22-2022,7-59-44,7,depth_duration_stimuli/000780_2014-06-08_22-28-29_260595134347_rgbf000126-resize_1/000780_2014-06-08_22-28-29_260595134347_rgbf000126-resize_1-target.png,1000,3.3825,5,11301,1000,meters,jsons/v1_VE1000_randls_45_rotated.json,1781045,2443092,65,Man
7,880387,DepthScenes,duration_manipulation_targetAtFixation,jsons/v1_VE1000_randls_45_rotated.json,http://54.235.29.9/FacialAge/BNav_EC2/DepthDuration/v2_depth_duration_MTurk/v2_DepthDuration_HTML.html#94,94,1366,768,1366,768,8-22-2022,7-59-44,8,depth_duration_stimuli/002445_2014-06-28_20-32-16_260595134347_rgbf000029-resize_4/002445_2014-06-28_20-32-16_260595134347_rgbf000029-resize_4-target.png,1000,2.5315,5,3511,999,meters,jsons/v1_VE1000_randls_45_rotated.json,1781045,2443092,65,Man
8,880387,DepthScenes,duration_manipulation_targetAtFixation,jsons/v1_VE1000_randls_45_rotated.json,http://54.235.29.9/FacialAge/BNav_EC2/DepthDuration/v2_depth_duration_MTurk/v2_DepthDuration_HTML.html#94,94,1366,768,1366,768,8-22-2022,7-59-44,9,depth_duration_stimuli/001828_2014-06-26_21-40-03_260595134347_rgbf000024-resize_0/001828_2014-06-26_21-40-03_260595134347_rgbf000024-resize_0-target.png,1000,4.8260000000000005,5,10884,1000,meters,jsons/v1_VE1000_randls_45_rotated.json,1781045,2443092,65,Man
9,880387,DepthScenes,duration_manipulation_targetAtFixation,jsons/v1_VE1000_randls_45_rotated.json,http://54.235.29.9/FacialAge/BNav_EC2/DepthDuration/v2_depth_duration_MTurk/v2_DepthDuration_HTML.html#94,94,1366,768,1366,768,8-22-2022,7-59-44,10,depth_duration_stimuli/000009_2014-05-26_14-32-05_260595134347_rgbf000034-resize_3/000009_2014-05-26_14-32-05_260595134347_rgbf000034-resize_3-target.png,1000,3.8715,5,3562,998,meters,jsons/v1_VE1000_randls_45_rotated.json,1781045,2443092,65,Man
10,880387,DepthScenes,duration_manipulation_targetAtFixation,jsons/v1_VE1000_randls_45_rotated.json,http://54.235.29.9/FacialAge/BNav_EC2/DepthDuration/v2_depth_duration_MTurk/v2_DepthDuration_HTML.html#94,94,1366,768,1366,768,8-22-2022,7-59-44,11,depth_duration_stimuli/001584_2014-06-20_11-07-43_260595134347_rgbf000002-resize_1/001584_2014-06-20_11-07-43_260595134347_rgbf000002-resize_1-target.png,1000,3.53,5,10819,1000,meters,jsons/v1_VE1000_randls_45_rotated.json,1781045,2443092,65,Man
11,880387,DepthScenes,duration_manipulation_targetAtFixation,jsons/v1_VE1000_randls_45_rotated.json,http://54.235.29.9/FacialAge/BNav_EC2/DepthDuration/v2_depth_duration_MTurk/v2_DepthDuration_HTML.html#94,94,1366,768,1366,768,8-22-2022,7-59-44,12,depth_duration_stimuli/003621_2014-05-23_18-06-08_094959634447_rgbf000101-resize_1/003621_2014-05-23_18-06-08_094959634447_rgbf000101-resize_1-target.png,1000,3.9835,5,4154,1001,meters,jsons/v1_VE1000_randls_45_rotated.json,1781045,2443092,65,Man
12,880387,DepthScenes,duration_manipulation_targetAtFixation,jsons/v1_VE1000_randls_45_rotated.json,http://54.235.29.9/FacialAge/BNav_EC2/DepthDuration/v2_depth_duration_MTurk/v2_DepthDuration_HTML.html#94,94,1366,768,1366,768,8-22-2022,7-59-44,13,depth_duration_stimuli/002678_2014-06-13_16-15-32_094959634447_rgbf000151-resize_6/002678_2014-06-13_16-15-32_094959634447_rgbf000151-resize_6-target.png,1000,2.1830000000000003,5,10329,997,meters,jsons/v1_VE1000_randls_45_rotated.json,1781045,2443092,65,Man
13,880387,DepthScenes,duration_manipulation_targetAtFixation,jsons/v1_VE1000_randls_45_rotated.json,http://54.235.29.9/FacialAge/BNav_EC2/DepthDuration/v2_depth_duration_MTurk/v2_DepthDuration_HTML.html#94,94,1366,768,1366,768,8-22-2022,7-59-44,14,depth_duration_stimuli/000368_2014-06-09_15-53-01_260595134347_rgbf000155-resize_2/000368_2014-06-09_15-53-01_260595134347_rgbf000155-resize_2-target.png,1000,2.4859999999999998,5,3266,999,meters,jsons/v1_VE1000_randls_45_rotated.json,1781045,2443092,65,Man
14,880387,DepthScenes,duration_manipulation_targetAtFixation,jsons/v1_VE1000_randls_45_rotated.json,http://54.235.29.9/FacialAge/BNav_EC2/DepthDuration/v2_depth_duration_MTurk/v2_DepthDuration_HTML.html#94,94,1366,768,1366,768,8-22-2022,7-59-44,15,depth_duration_stimuli/001136_2014-06-17_15-19-41_260595134347_rgbf000076-resize_3/001136_2014-06-17_15-19-41_260595134347_rgbf000076-resize_3-target.png,1000,1.8655,5,14780,1001,meters,jsons/v1_VE1000_randls_45_rotated.json,1781045,2443092,65,Man
15,880387,DepthScenes,duration_manipulation_targetAtFixation,jsons/v1_VE1000_randls_45_rotated.json,http://54.235.29.9/FacialAge/BNav_EC2/DepthDuration/v2_depth_duration_MTurk/v2_DepthDuration_HTML.html#94,94,1366,768,1366,768,8-22-2022,7-59-44,16,depth_duration_stimuli/001164_2014-06-17_15-35-46_260595134347_rgbf000085-resize_3/001164_2014-06-17_15-35-46_260595134347_rgbf000085-resize_3-target.png,1000,2.354,5,3764,1000,meters,jsons/v1_VE1000_randls_45_rotated.json,1781045,2443092,65,Man
16,880387,DepthScenes,duration_manipulation_targetAtFixation,jsons/v1_VE1000_randls_45_rotated.json,http://54.235.29.9/FacialAge/BNav_EC2/DepthDuration/v2_depth_duration_MTurk/v2_DepthDuration_HTML.html#94,94,1366,768,1366,768,8-22-2022,7-59-44,17,depth_duration_stimuli/003079_2014-06-15_15-18-20_094959634447_rgbf000152-resize_8/003079_2014-06-15_15-18-20_094959634447_rgbf000152-resize_8-target.png,1000,2.8775,5,13450,1000,meters,jsons/v1_VE1000_randls_45_rotated.json,1781045,2443092,65,Man
17,880387,DepthScenes,duration_manipulation_targetAtFixation,jsons/v1_VE1000_randls_45_rotated.json,http://54.235.29.9/FacialAge/BNav_EC2/DepthDuration/v2_depth_duration_MTurk/v2_DepthDuration_HTML.html#94,94,1366,768,1366,768,8-22-2022,7-59-44,18,depth_duration_stimuli/000506_2014-06-08_23-21-00_260595134347_rgbf000070-resize_7/000506_2014-06-08_23-21-00_260595134347_rgbf000070-resize_7-target.png,1000,4.0585,5,3827,1000,meters,jsons/v1_VE1000_randls_45_rotated.json,1781045,2443092,65,Man
18,880387,DepthScenes,duration_manipulation_targetAtFixation,jsons/v1_VE1000_randls_45_rotated.json,http://54.235.29.9/FacialAge/BNav_EC2/DepthDuration/v2_depth_duration_MTurk/v2_DepthDuration_HTML.html#94,94,1366,768,1366,768,8-22-2022,7-59-44,19,depth_duration_stimuli/001498_2014-06-19_17-45-14_260595134347_rgbf000129-resize_4/001498_2014-06-19_17-45-14_260595134347_rgbf000129-resize-original.jpg,1000,1.4075,0,24218,1000,meters,jsons/v1_VE1000_randls_45_rotated.json,1781045,2443092,65,Man
19,880387,DepthScenes,duration_manipulation_targetAtFixation,jsons/v1_VE1000_randls_45_rotated.json,http://54.235.29.9/FacialAge/BNav_EC2/DepthDuration/v2_depth_duration_MTurk/v2_DepthDuration_HTML.html#94,94,1366,768,1366,768,8-22-2022,7-59-44,20,depth_duration_stimuli/000742_2014-06-08_18-48-09_260595134347_rgbf000164-resize_4/000742_2014-06-08_18-48-09_260595134347_rgbf000164-resize_4-target.png,1000,4.632,5,14252,999,meters,jsons/v1_VE1000_randls_45_rotated.json,1781045,2443092,65,Man
20,880387,DepthScenes,duration_manipulation_targetAtFixation,jsons/v1_VE1000_randls_45_rotated.json,http://54.235.29.9/FacialAge/BNav_EC2/DepthDuration/v2_depth_duration_MTurk/v2_DepthDuration_HTML.html#94,94,1366,768,1366,768,8-22-2022,7-59-44,21,depth_duration_stimuli/001066_2014-06-08_22-03-20_260595134347_rgbf000066-resize_4/001066_2014-06-08_22-03-20_260595134347_rgbf000066-resize_4-target.png,1000,4.2330000000000005,5,3196,1000,meters,jsons/v1_VE1000_randls_45_rotated.json,1781045,2443092,65,Man
21,880387,DepthScenes,duration_manipulation_targetAtFixation,jsons/v1_VE1000_randls_45_rotated.json,http://54.235.29.9/FacialAge/BNav_EC2/DepthDuration/v2_depth_duration_MTurk/v2_DepthDuration_HTML.html#94,94,1366,768,1366,768,8-22-2022,7-59-44,22,depth_duration_stimuli/000665_2014-06-09_20-42-35_260595134347_rgbf000110-resize_1/000665_2014-06-09_20-42-35_260595134347_rgbf000110-resize_1-target.png,1000,3.057,5,13546,999,meters,jsons/v1_VE1000_randls_45_rotated.json,1781045,2443092,65,Man
22,880387,DepthScenes,duration_manipulation_targetAtFixation,jsons/v1_VE1000_randls_45_rotated.json,http://54.235.29.9/FacialAge/BNav_EC2/DepthDuration/v2_depth_duration_MTurk/v2_DepthDuration_HTML.html#94,94,1366,768,1366,768,8-22-2022,7-59-44,23,depth_duration_stimuli/001150_2014-06-17_15-27-34_260595134347_rgbf000108-resize_2/001150_2014-06-17_15-27-34_260595134347_rgbf000108-resize_2-target.png,1000,4.0325,5,3528,1000,meters,jsons/v1_VE1000_randls_45_rotated.json,1781045,2443092,65,Man
23,880387,DepthScenes,duration_manipulation_targetAtFixation,jsons/v1_VE1000_randls_45_rotated.json,http://54.235.29.9/FacialAge/BNav_EC2/DepthDuration/v2_depth_duration_MTurk/v2_DepthDuration_HTML.html#94,94,1366,768,1366,768,8-22-2022,7-59-44,24,depth_duration_stimuli/000866_2014-06-09_20-45-42_260595134347_rgbf000139-resize_1/000866_2014-06-09_20-45-42_260595134347_rgbf000139-resize_1-target.png,1000,3.2155,5,14250,999,meters,jsons/v1_VE1000_randls_45_rotated.json,1781045,2443092,65,Man
24,880387,DepthScenes,duration_manipulation_targetAtFixation,jsons/v1_VE1000_randls_45_rotated.json,http://54.235.29.9/FacialAge/BNav_EC2/DepthDuration/v2_depth_duration_MTurk/v2_DepthDuration_HTML.html#94,94,1366,768,1366,768,8-22-2022,7-59-44,25,depth_duration_stimuli/002989_2014-06-15_12-25-03_094959634447_rgbf000150-resize_3/002989_2014-06-15_12-25-03_094959634447_rgbf000150-resize_3-target.png,1000,4.1975,5,3780,1000,meters,jsons/v1_VE1000_randls_45_rotated.json,1781045,2443092,65,Man
25,880387,DepthScenes,duration_manipulation_targetAtFixation,jsons/v1_VE1000_randls_45_rotated.json,http://54.235.29.9/FacialAge/BNav_EC2/DepthDuration/v2_depth_duration_MTurk/v2_DepthDuration_HTML.html#94,94,1366,768,1366,768,8-22-2022,7-59-44,26,depth_duration_stimuli/000677_2014-06-08_23-10-32_260595134347_rgbf000158-resize_6/000677_2014-06-08_23-10-32_260595134347_rgbf000158-resize_6-target.png,1000,3.556,5,13089,999,meters,jsons/v1_VE1000_randls_45_rotated.json,1781045,2443092,65,Man
26,880387,DepthScenes,duration_manipulation_targetAtFixation,jsons/v1_VE1000_randls_45_rotated.json,http://54.235.29.9/FacialAge/BNav_EC2/DepthDuration/v2_depth_duration_MTurk/v2_DepthDuration_HTML.html#94,94,1366,768,1366,768,8-22-2022,7-59-44,27,depth_duration_stimuli/001029_2014-06-08_13-17-57_260595134347_rgbf000065-resize_1/001029_2014-06-08_13-17-57_260595134347_rgbf000065-resize_1-target.png,1000,3.0835,5,3953,999,meters,jsons/v1_VE1000_randls_45_rotated.json,1781045,2443092,65,Man
27,880387,DepthScenes,duration_manipulation_targetAtFixation,jsons/v1_VE1000_randls_45_rotated.json,http://54.235.29.9/FacialAge/BNav_EC2/DepthDuration/v2_depth_duration_MTurk/v2_DepthDuration_HTML.html#94,94,1366,768,1366,768,8-22-2022,7-59-44,28,depth_duration_stimuli/003423_2014-05-21_10-23-26_094959634447_rgbf002665-resize_2/003423_2014-05-21_10-23-26_094959634447_rgbf002665-resize_2-target.png,1000,3.2575,5,23290,1000,meters,jsons/v1_VE1000_randls_45_rotated.json,1781045,2443092,65,Man
28,880387,DepthScenes,duration_manipulation_targetAtFixation,jsons/v1_VE1000_randls_45_rotated.json,http://54.235.29.9/FacialAge/BNav_EC2/DepthDuration/v2_depth_duration_MTurk/v2_DepthDuration_HTML.html#94,94,1366,768,1366,768,8-22-2022,7-59-44,29,depth_duration_stimuli/002905_2014-06-03_18-04-43_094959634447_rgbf000151-resize_2/002905_2014-06-03_18-04-43_094959634447_rgbf000151-resize_2-target.png,1000,2.0295,5,3842,1000,meters,jsons/v1_VE1000_randls_45_rotated.json,1781045,2443092,65,Man
29,880387,DepthScenes,duration_manipulation_targetAtFixation,jsons/v1_VE1000_randls_45_rotated.json,http://54.235.29.9/FacialAge/BNav_EC2/DepthDuration/v2_depth_duration_MTurk/v2_DepthDuration_HTML.html#94,94,1366,768,1366,768,8-22-2022,7-59-44,30,depth_duration_stimuli/002072_2014-06-24_21-48-06_260595134347_rgbf000115-resize_0/002072_2014-06-24_21-48-06_260595134347_rgbf000115-resize-original.jpg,1000,4.702,0,15586,997,meters,jsons/v1_VE1000_randls_45_rotated.json,1781045,2443092,65,Man
30,880387,DepthScenes,duration_manipulation_targetAtFixation,jsons/v1_VE1000_randls_45_rotated.json,http://54.235.29.9/FacialAge/BNav_EC2/DepthDuration/v2_depth_duration_MTurk/v2_DepthDuration_HTML.html#94,94,1366,768,1366,768,8-22-2022,7-59-44,31,depth_duration_stimuli/002953_2014-06-08_17-32-18_094959634447_rgbf000059-resize_5/002953_2014-06-08_17-32-18_094959634447_rgbf000059-resize_5-target.png,1000,1.551,5,18331,1000,meters,jsons/v1_VE1000_randls_45_rotated.json,1781045,2443092,65,Man
31,880387,DepthScenes,duration_manipulation_targetAtFixation,jsons/v1_VE1000_randls_45_rotated.json,http://54.235.29.9/FacialAge/BNav_EC2/DepthDuration/v2_depth_duration_MTurk/v2_DepthDuration_HTML.html#94,94,1366,768,1366,768,8-22-2022,7-59-44,32,depth_duration_stimuli/000878_2014-06-08_22-52-45_260595134347_rgbf000045-resize_2/000878_2014-06-08_22-52-45_260595134347_rgbf000045-resize_2-target.png,1000,2.092,5,4138,999,meters,jsons/v1_VE1000_randls_45_rotated.json,1781045,2443092,65,Man
32,880387,DepthScenes,duration_manipulation_targetAtFixation,jsons/v1_VE1000_randls_45_rotated.json,http://54.235.29.9/FacialAge/BNav_EC2/DepthDuration/v2_depth_duration_MTurk/v2_DepthDuration_HTML.html#94,94,1366,768,1366,768,8-22-2022,7-59-44,33,depth_duration_stimuli/001094_2014-06-15_17-36-00_260595134347_rgbf000205-resize_0/001094_2014-06-15_17-36-00_260595134347_rgbf000205-resize_0-target.png,1000,4.2175,5,15195,1000,meters,jsons/v1_VE1000_randls_45_rotated.json,1781045,2443092,65,Man
33,880387,DepthScenes,duration_manipulation_targetAtFixation,jsons/v1_VE1000_randls_45_rotated.json,http://54.235.29.9/FacialAge/BNav_EC2/DepthDuration/v2_depth_duration_MTurk/v2_DepthDuration_HTML.html#94,94,1366,768,1366,768,8-22-2022,7-59-44,34,depth_duration_stimuli/000692_2014-06-08_13-09-42_260595134347_rgbf000199-resize_2/000692_2014-06-08_13-09-42_260595134347_rgbf000199-resize_2-target.png,1000,3.661,5,3253,1000,meters,jsons/v1_VE1000_randls_45_rotated.json,1781045,2443092,65,Man
34,880387,DepthScenes,duration_manipulation_targetAtFixation,jsons/v1_VE1000_randls_45_rotated.json,http://54.235.29.9/FacialAge/BNav_EC2/DepthDuration/v2_depth_duration_MTurk/v2_DepthDuration_HTML.html#94,94,1366,768,1366,768,8-22-2022,7-59-44,35,depth_duration_stimuli/002545_2014-06-24_13-38-53_094959634447_rgbf000080-resize_4/002545_2014-06-24_13-38-53_094959634447_rgbf000080-resize_4-target.png,1000,1.9205,5,14025,1000,meters,jsons/v1_VE1000_randls_45_rotated.json,1781045,2443092,65,Man
35,880387,DepthScenes,duration_manipulation_targetAtFixation,jsons/v1_VE1000_randls_45_rotated.json,http://54.235.29.9/FacialAge/BNav_EC2/DepthDuration/v2_depth_duration_MTurk/v2_DepthDuration_HTML.html#94,94,1366,768,1366,768,8-22-2022,7-59-44,36,depth_duration_stimuli/001092_2014-06-15_17-34-58_260595134347_rgbf000171-resize_3/001092_2014-06-15_17-34-58_260595134347_rgbf000171-resize_3-target.png,1000,2.6935,5,3091,999,meters,jsons/v1_VE1000_randls_45_rotated.json,1781045,2443092,65,Man
36,880387,DepthScenes,duration_manipulation_targetAtFixation,jsons/v1_VE1000_randls_45_rotated.json,http://54.235.29.9/FacialAge/BNav_EC2/DepthDuration/v2_depth_duration_MTurk/v2_DepthDuration_HTML.html#94,94,1366,768,1366,768,8-22-2022,7-59-44,37,depth_duration_stimuli/001447_2014-06-19_17-00-32_260595134347_rgbf000082-resize_5/001447_2014-06-19_17-00-32_260595134347_rgbf000082-resize_5-target.png,1000,4.13775,5,21644,1000,meters,jsons/v1_VE1000_randls_45_rotated.json,1781045,2443092,65,Man
37,880387,DepthScenes,duration_manipulation_targetAtFixation,jsons/v1_VE1000_randls_45_rotated.json,http://54.235.29.9/FacialAge/BNav_EC2/DepthDuration/v2_depth_duration_MTurk/v2_DepthDuration_HTML.html#94,94,1366,768,1366,768,8-22-2022,7-59-44,38,depth_duration_stimuli/000447_2014-06-08_16-15-46_260595134347_rgbf000130-resize_1/000447_2014-06-08_16-15-46_260595134347_rgbf000130-resize_1-target.png,1000,4.479,5,3650,999,meters,jsons/v1_VE1000_randls_45_rotated.json,1781045,2443092,65,Man
38,880387,DepthScenes,duration_manipulation_targetAtFixation,jsons/v1_VE1000_randls_45_rotated.json,http://54.235.29.9/FacialAge/BNav_EC2/DepthDuration/v2_depth_duration_MTurk/v2_DepthDuration_HTML.html#94,94,1366,768,1366,768,8-22-2022,7-59-44,39,depth_duration_stimuli/002660_2014-06-13_15-44-18_094959634447_rgbf001878-resize_2/002660_2014-06-13_15-44-18_094959634447_rgbf001878-resize_2-target.png,1000,3.576,5,13507,1000,meters,jsons/v1_VE1000_randls_45_rotated.json,1781045,2443092,65,Man
39,880387,DepthScenes,duration_manipulation_targetAtFixation,jsons/v1_VE1000_randls_45_rotated.json,http://54.235.29.9/FacialAge/BNav_EC2/DepthDuration/v2_depth_duration_MTurk/v2_DepthDuration_HTML.html#94,94,1366,768,1366,768,8-22-2022,7-59-44,40,depth_duration_stimuli/002153_2014-06-25_21-27-18_260595134347_rgbf000038-resize_5/002153_2014-06-25_21-27-18_260595134347_rgbf000038-resize_5-target.png,1000,2.505,5,3312,1000,meters,jsons/v1_VE1000_randls_45_rotated.json,1781045,2443092,65,Man
40,880387,DepthScenes,duration_manipulation_targetAtFixation,jsons/v1_VE1000_randls_45_rotated.json,http://54.235.29.9/FacialAge/BNav_EC2/DepthDuration/v2_depth_duration_MTurk/v2_DepthDuration_HTML.html#94,94,1366,768,1366,768,8-22-2022,7-59-44,41,depth_duration_stimuli/000635_2014-06-08_16-38-42_260595134347_rgbf000106-resize_1/000635_2014-06-08_16-38-42_260595134347_rgbf000106-resize_1-target.png,1000,2.074,5,11564,1001,meters,jsons/v1_VE1000_randls_45_rotated.json,1781045,2443092,65,Man
41,880387,DepthScenes,duration_manipulation_targetAtFixation,jsons/v1_VE1000_randls_45_rotated.json,http://54.235.29.9/FacialAge/BNav_EC2/DepthDuration/v2_depth_duration_MTurk/v2_DepthDuration_HTML.html#94,94,1366,768,1366,768,8-22-2022,7-59-44,42,depth_duration_stimuli/002279_2014-06-28_18-55-32_260595134347_rgbf000040-resize_5/002279_2014-06-28_18-55-32_260595134347_rgbf000040-resize_5-target.png,1000,1.5043333333333,5,3802,1000,meters,jsons/v1_VE1000_randls_45_rotated.json,1781045,2443092,65,Man
42,880387,DepthScenes,duration_manipulation_targetAtFixation,jsons/v1_VE1000_randls_45_rotated.json,http://54.235.29.9/FacialAge/BNav_EC2/DepthDuration/v2_depth_duration_MTurk/v2_DepthDuration_HTML.html#94,94,1366,768,1366,768,8-22-2022,7-59-44,43,depth_duration_stimuli/003587_2014-05-23_16-48-02_094959634447_rgbf002384-resize_2/003587_2014-05-23_16-48-02_094959634447_rgbf002384-resize_2-target.png,1000,1.357,5,12779,999,meters,jsons/v1_VE1000_randls_45_rotated.json,1781045,2443092,65,Man
43,880387,DepthScenes,duration_manipulation_targetAtFixation,jsons/v1_VE1000_randls_45_rotated.json,http://54.235.29.9/FacialAge/BNav_EC2/DepthDuration/v2_depth_duration_MTurk/v2_DepthDuration_HTML.html#94,94,1366,768,1366,768,8-22-2022,7-59-44,44,depth_duration_stimuli/001167_2014-06-17_15-38-07_260595134347_rgbf000108-resize_0/001167_2014-06-17_15-38-07_260595134347_rgbf000108-resize_0-target.png,1000,1.8505,5,3612,999,meters,jsons/v1_VE1000_randls_45_rotated.json,1781045,2443092,65,Man
44,880387,DepthScenes,duration_manipulation_targetAtFixation,jsons/v1_VE1000_randls_45_rotated.json,http://54.235.29.9/FacialAge/BNav_EC2/DepthDuration/v2_depth_duration_MTurk/v2_DepthDuration_HTML.html#94,94,1366,768,1366,768,8-22-2022,7-59-44,45,depth_duration_stimuli/002199_2014-06-28_18-33-56_260595134347_rgbf000074-resize_0/002199_2014-06-28_18-33-56_260595134347_rgbf000074-resize_0-target.png,1000,1.996,5,12263,1000,meters,jsons/v1_VE1000_randls_45_rotated.json,1781045,2443092,65,Man
45,880387,DepthScenes,duration_manipulation_targetAtFixation,jsons/v1_VE1000_randls_45_rotated.json,http://54.235.29.9/FacialAge/BNav_EC2/DepthDuration/v2_depth_duration_MTurk/v2_DepthDuration_HTML.html#94,94,1366,768,1366,768,8-22-2022,7-59-44,46,depth_duration_stimuli/001056_2014-06-08_18-46-44_260595134347_rgbf000068-resize_0/001056_2014-06-08_18-46-44_260595134347_rgbf000068-resize_0-target.png,1000,2.6625,5,3720,999,meters,jsons/v1_VE1000_randls_45_rotated.json,1781045,2443092,65,Man
46,880387,DepthScenes,duration_manipulation_targetAtFixation,jsons/v1_VE1000_randls_45_rotated.json,http://54.235.29.9/FacialAge/BNav_EC2/DepthDuration/v2_depth_duration_MTurk/v2_DepthDuration_HTML.html#94,94,1366,768,1366,768,8-22-2022,7-59-44,47,depth_duration_stimuli/002136_2014-06-25_21-18-03_260595134347_rgbf000109-resize_3/002136_2014-06-25_21-18-03_260595134347_rgbf000109-resize_3-target.png,1000,1.9569999999999999,5,15302,998,meters,jsons/v1_VE1000_randls_45_rotated.json,1781045,2443092,65,Man
47,880387,DepthScenes,duration_manipulation_targetAtFixation,jsons/v1_VE1000_randls_45_rotated.json,http://54.235.29.9/FacialAge/BNav_EC2/DepthDuration/v2_depth_duration_MTurk/v2_DepthDuration_HTML.html#94,94,1366,768,1366,768,8-22-2022,7-59-44,48,depth_duration_stimuli/002964_2014-06-08_17-46-11_094959634447_rgbf000091-resize_4/002964_2014-06-08_17-46-11_094959634447_rgbf000091-resize_4-target.png,1000,1.6909999999999998,5,3491,1000,meters,jsons/v1_VE1000_randls_45_rotated.json,1781045,2443092,65,Man
48,880387,DepthScenes,duration_manipulation_targetAtFixation,jsons/v1_VE1000_randls_45_rotated.json,http://54.235.29.9/FacialAge/BNav_EC2/DepthDuration/v2_depth_duration_MTurk/v2_DepthDuration_HTML.html#94,94,1366,768,1366,768,8-22-2022,7-59-44,49,depth_duration_stimuli/001170_2014-06-17_15-43-44_260595134347_rgbf000096-resize_6/001170_2014-06-17_15-43-44_260595134347_rgbf000096-resize-original.jpg,1000,1.1909999999999998,0,13124,1000,meters,jsons/v1_VE1000_randls_45_rotated.json,1781045,2443092,65,Man
49,880387,DepthScenes,duration_manipulation_targetAtFixation,jsons/v1_VE1000_randls_45_rotated.json,http://54.235.29.9/FacialAge/BNav_EC2/DepthDuration/v2_depth_duration_MTurk/v2_DepthDuration_HTML.html#94,94,1366,768,1366,768,8-22-2022,7-59-44,50,depth_duration_stimuli/000483_2014-06-09_20-41-45_260595134347_rgbf000116-resize_4/000483_2014-06-09_20-41-45_260595134347_rgbf000116-resize_4-target.png,1000,1.337,5,23354,1001,meters,jsons/v1_VE1000_randls_45_rotated.json,1781045,2443092,65,Man
50,880387,DepthScenes,duration_manipulation_targetAtFixation,jsons/v1_VE1000_randls_45_rotated.json,http://54.235.29.9/FacialAge/BNav_EC2/DepthDuration/v2_depth_duration_MTurk/v2_DepthDuration_HTML.html#94,94,1366,768,1366,768,8-22-2022,7-59-44,51,depth_duration_stimuli/000469_2014-06-09_19-42-10_260595134347_rgbf000081-resize_1/000469_2014-06-09_19-42-10_260595134347_rgbf000081-resize_1-target.png,1000,1.652,5,3728,999,meters,jsons/v1_VE1000_randls_45_rotated.json,1781045,2443092,65,Man
51,880387,DepthScenes,duration_manipulation_targetAtFixation,jsons/v1_VE1000_randls_45_rotated.json,http://54.235.29.9/FacialAge/BNav_EC2/DepthDuration/v2_depth_duration_MTurk/v2_DepthDuration_HTML.html#94,94,1366,768,1366,768,8-22-2022,7-59-44,52,depth_duration_stimuli/000549_2014-06-08_22-10-24_260595134347_rgbf000247-resize_3/000549_2014-06-08_22-10-24_260595134347_rgbf000247-resize_3-target.png,1000,1.841,5,3221,1001,meters,jsons/v1_VE1000_randls_45_rotated.json,1781045,2443092,65,Man
52,880387,DepthScenes,duration_manipulation_targetAtFixation,jsons/v1_VE1000_randls_45_rotated.json,http://54.235.29.9/FacialAge/BNav_EC2/DepthDuration/v2_depth_duration_MTurk/v2_DepthDuration_HTML.html#94,94,1366,768,1366,768,8-22-2022,7-59-44,53,depth_duration_stimuli/001055_2014-06-08_18-45-35_260595134347_rgbf000111-resize_4/001055_2014-06-08_18-45-35_260595134347_rgbf000111-resize_4-target.png,1000,2.4290000000000003,5,16027,1000,meters,jsons/v1_VE1000_randls_45_rotated.json,1781045,2443092,65,Man
53,880387,DepthScenes,duration_manipulation_targetAtFixation,jsons/v1_VE1000_randls_45_rotated.json,http://54.235.29.9/FacialAge/BNav_EC2/DepthDuration/v2_depth_duration_MTurk/v2_DepthDuration_HTML.html#94,94,1366,768,1366,768,8-22-2022,7-59-44,54,depth_duration_stimuli/002323_2014-06-28_20-01-54_260595134347_rgbf000051-resize_4/002323_2014-06-28_20-01-54_260595134347_rgbf000051-resize_4-target.png,1000,3.7310000000000003,5,10226,1000,meters,jsons/v1_VE1000_randls_45_rotated.json,1781045,2443092,65,Man
54,880387,DepthScenes,duration_manipulation_targetAtFixation,jsons/v1_VE1000_randls_45_rotated.json,http://54.235.29.9/FacialAge/BNav_EC2/DepthDuration/v2_depth_duration_MTurk/v2_DepthDuration_HTML.html#94,94,1366,768,1366,768,8-22-2022,7-59-44,55,depth_duration_stimuli/000917_2014-06-09_22-45-29_260595134347_rgbf000149-resize_3/000917_2014-06-09_22-45-29_260595134347_rgbf000149-resize_3-target.png,1000,4.1865,5,3156,999,meters,jsons/v1_VE1000_randls_45_rotated.json,1781045,2443092,65,Man
55,880387,DepthScenes,duration_manipulation_targetAtFixation,jsons/v1_VE1000_randls_45_rotated.json,http://54.235.29.9/FacialAge/BNav_EC2/DepthDuration/v2_depth_duration_MTurk/v2_DepthDuration_HTML.html#94,94,1366,768,1366,768,8-22-2022,7-59-44,56,depth_duration_stimuli/002758_2014-06-22_19-11-20_094959634447_rgbf000128-resize_1/002758_2014-06-22_19-11-20_094959634447_rgbf000128-resize_1-target.png,1000,2.555,5,12436,1001,meters,jsons/v1_VE1000_randls_45_rotated.json,1781045,2443092,65,Man
56,880387,DepthScenes,duration_manipulation_targetAtFixation,jsons/v1_VE1000_randls_45_rotated.json,http://54.235.29.9/FacialAge/BNav_EC2/DepthDuration/v2_depth_duration_MTurk/v2_DepthDuration_HTML.html#94,94,1366,768,1366,768,8-22-2022,7-59-44,57,depth_duration_stimuli/002630_2014-06-24_14-47-50_094959634447_rgbf000055-resize_1/002630_2014-06-24_14-47-50_094959634447_rgbf000055-resize_1-target.png,1000,3.0095,5,5379,1000,meters,jsons/v1_VE1000_randls_45_rotated.json,1781045,2443092,65,Man
57,880387,DepthScenes,duration_manipulation_targetAtFixation,jsons/v1_VE1000_randls_45_rotated.json,http://54.235.29.9/FacialAge/BNav_EC2/DepthDuration/v2_depth_duration_MTurk/v2_DepthDuration_HTML.html#94,94,1366,768,1366,768,8-22-2022,7-59-44,58,depth_duration_stimuli/002340_2014-06-28_20-05-46_260595134347_rgbf000113-resize_0/002340_2014-06-28_20-05-46_260595134347_rgbf000113-resize_0-target.png,1000,2.4735,5,16586,1000,meters,jsons/v1_VE1000_randls_45_rotated.json,1781045,2443092,65,Man
58,880387,DepthScenes,duration_manipulation_targetAtFixation,jsons/v1_VE1000_randls_45_rotated.json,http://54.235.29.9/FacialAge/BNav_EC2/DepthDuration/v2_depth_duration_MTurk/v2_DepthDuration_HTML.html#94,94,1366,768,1366,768,8-22-2022,7-59-44,59,depth_duration_stimuli/001016_2014-06-09_16-16-10_260595134347_rgbf000112-resize_5/001016_2014-06-09_16-16-10_260595134347_rgbf000112-resize_5-target.png,1000,1.6565,5,3772,1000,meters,jsons/v1_VE1000_randls_45_rotated.json,1781045,2443092,65,Man
59,880387,DepthScenes,duration_manipulation_targetAtFixation,jsons/v1_VE1000_randls_45_rotated.json,http://54.235.29.9/FacialAge/BNav_EC2/DepthDuration/v2_depth_duration_MTurk/v2_DepthDuration_HTML.html#94,94,1366,768,1366,768,8-22-2022,7-59-44,60,depth_duration_stimuli/000502_2014-06-08_23-02-32_260595134347_rgbf000063-resize_4/000502_2014-06-08_23-02-32_260595134347_rgbf000063-resize_4-target.png,1000,2.431,5,12988,999,meters,jsons/v1_VE1000_randls_45_rotated.json,1781045,2443092,65,Man
60,880387,DepthScenes,duration_manipulation_targetAtFixation,jsons/v1_VE1000_randls_45_rotated.json,http://54.235.29.9/FacialAge/BNav_EC2/DepthDuration/v2_depth_duration_MTurk/v2_DepthDuration_HTML.html#94,94,1366,768,1366,768,8-22-2022,7-59-44,61,depth_duration_stimuli/001199_2014-06-17_16-03-48_260595134347_rgbf000077-resize_0/001199_2014-06-17_16-03-48_260595134347_rgbf000077-resize_0-target.png,1000,3.4375,5,4026,1000,meters,jsons/v1_VE1000_randls_45_rotated.json,1781045,2443092,65,Man
61,880387,DepthScenes,duration_manipulation_targetAtFixation,jsons/v1_VE1000_randls_45_rotated.json,http://54.235.29.9/FacialAge/BNav_EC2/DepthDuration/v2_depth_duration_MTurk/v2_DepthDuration_HTML.html#94,94,1366,768,1366,768,8-22-2022,7-59-44,62,depth_duration_stimuli/003490_2014-05-21_15-50-11_094959634447_rgbf000101-resize_3/003490_2014-05-21_15-50-11_094959634447_rgbf000101-resize_3-target.png,1000,3.6445,5,17786,999,meters,jsons/v1_VE1000_randls_45_rotated.json,1781045,2443092,65,Man
62,880387,DepthScenes,duration_manipulation_targetAtFixation,jsons/v1_VE1000_randls_45_rotated.json,http://54.235.29.9/FacialAge/BNav_EC2/DepthDuration/v2_depth_duration_MTurk/v2_DepthDuration_HTML.html#94,94,1366,768,1366,768,8-22-2022,7-59-44,63,depth_duration_stimuli/001175_2014-06-17_15-45-55_260595134347_rgbf000129-resize_4/001175_2014-06-17_15-45-55_260595134347_rgbf000129-resize_4-target.png,1000,4.255,5,13234,1000,meters,jsons/v1_VE1000_randls_45_rotated.json,1781045,2443092,65,Man
63,880387,DepthScenes,duration_manipulation_targetAtFixation,jsons/v1_VE1000_randls_45_rotated.json,http://54.235.29.9/FacialAge/BNav_EC2/DepthDuration/v2_depth_duration_MTurk/v2_DepthDuration_HTML.html#94,94,1366,768,1366,768,8-22-2022,7-59-44,64,depth_duration_stimuli/000191_2014-05-12_17-07-38_260595134347_rgbf000199-resize_0/000191_2014-05-12_17-07-38_260595134347_rgbf000199-resize_0-target.png,1000,3.7995,5,15469,1000,meters,jsons/v1_VE1000_randls_45_rotated.json,1781045,2443092,65,Man
64,880387,DepthScenes,duration_manipulation_targetAtFixation,jsons/v1_VE1000_randls_45_rotated.json,http://54.235.29.9/FacialAge/BNav_EC2/DepthDuration/v2_depth_duration_MTurk/v2_DepthDuration_HTML.html#94,94,1366,768,1366,768,8-22-2022,7-59-44,65,depth_duration_stimuli/000493_2014-06-09_21-01-18_260595134347_rgbf000196-resize_3/000493_2014-06-09_21-01-18_260595134347_rgbf000196-resize_3-target.png,1000,3.44,5,6034,999,meters,jsons/v1_VE1000_randls_45_rotated.json,1781045,2443092,65,Man
65,880387,DepthScenes,duration_manipulation_targetAtFixation,jsons/v1_VE1000_randls_45_rotated.json,http://54.235.29.9/FacialAge/BNav_EC2/DepthDuration/v2_depth_duration_MTurk/v2_DepthDuration_HTML.html#94,94,1366,768,1366,768,8-22-2022,7-59-44,66,depth_duration_stimuli/001540_2014-06-20_17-01-05_260595134347_rgbf000086-resize_2/001540_2014-06-20_17-01-05_260595134347_rgbf000086-resize-original.jpg,1000,1.459,0,18235,999,meters,jsons/v1_VE1000_randls_45_rotated.json,1781045,2443092,65,Man
66,880387,DepthScenes,duration_manipulation_targetAtFixation,jsons/v1_VE1000_randls_45_rotated.json,http://54.235.29.9/FacialAge/BNav_EC2/DepthDuration/v2_depth_duration_MTurk/v2_DepthDuration_HTML.html#94,94,1366,768,1366,768,8-22-2022,7-59-44,67,depth_duration_stimuli/001392_2014-06-19_16-07-59_260595134347_rgbf000046-resize_1/001392_2014-06-19_16-07-59_260595134347_rgbf000046-resize_1-target.png,1000,4.135,5,16387,1001,meters,jsons/v1_VE1000_randls_45_rotated.json,1781045,2443092,65,Man
67,880387,DepthScenes,duration_manipulation_targetAtFixation,jsons/v1_VE1000_randls_45_rotated.json,http://54.235.29.9/FacialAge/BNav_EC2/DepthDuration/v2_depth_duration_MTurk/v2_DepthDuration_HTML.html#94,94,1366,768,1366,768,8-22-2022,7-59-44,68,depth_duration_stimuli/001570_2014-06-20_17-21-09_260595134347_rgbf000135-resize_4/001570_2014-06-20_17-21-09_260595134347_rgbf000135-resize_4-target.png,1000,4.467,5,4690,1004,meters,jsons/v1_VE1000_randls_45_rotated.json,1781045,2443092,65,Man
68,880387,DepthScenes,duration_manipulation_targetAtFixation,jsons/v1_VE1000_randls_45_rotated.json,http://54.235.29.9/FacialAge/BNav_EC2/DepthDuration/v2_depth_duration_MTurk/v2_DepthDuration_HTML.html#94,94,1366,768,1366,768,8-22-2022,7-59-44,69,depth_duration_stimuli/000734_2014-06-08_17-39-11_260595134347_rgbf000128-resize_2/000734_2014-06-08_17-39-11_260595134347_rgbf000128-resize_2-target.png,1000,4.098,5,12936,998,meters,jsons/v1_VE1000_randls_45_rotated.json,1781045,2443092,65,Man
69,880387,DepthScenes,duration_manipulation_targetAtFixation,jsons/v1_VE1000_randls_45_rotated.json,http://54.235.29.9/FacialAge/BNav_EC2/DepthDuration/v2_depth_duration_MTurk/v2_DepthDuration_HTML.html#94,94,1366,768,1366,768,8-22-2022,7-59-44,70,depth_duration_stimuli/000739_2014-06-08_18-45-58_260595134347_rgbf000068-resize_1/000739_2014-06-08_18-45-58_260595134347_rgbf000068-resize_1-target.png,1000,3.534,5,4804,1000,meters,jsons/v1_VE1000_randls_45_rotated.json,1781045,2443092,65,Man
70,880387,DepthScenes,duration_manipulation_targetAtFixation,jsons/v1_VE1000_randls_45_rotated.json,http://54.235.29.9/FacialAge/BNav_EC2/DepthDuration/v2_depth_duration_MTurk/v2_DepthDuration_HTML.html#94,94,1366,768,1366,768,8-22-2022,7-59-44,71,depth_duration_stimuli/003338_2014-05-20_11-01-23_094959634447_rgbf000051-resize_6/003338_2014-05-20_11-01-23_094959634447_rgbf000051-resize_6-target.png,1000,1.693,5,13394,1000,meters,jsons/v1_VE1000_randls_45_rotated.json,1781045,2443092,65,Man
71,880387,DepthScenes,duration_manipulation_targetAtFixation,jsons/v1_VE1000_randls_45_rotated.json,http://54.235.29.9/FacialAge/BNav_EC2/DepthDuration/v2_depth_duration_MTurk/v2_DepthDuration_HTML.html#94,94,1366,768,1366,768,8-22-2022,7-59-44,72,depth_duration_stimuli/002509_2014-06-24_13-19-22_094959634447_rgbf000077-resize_0/002509_2014-06-24_13-19-22_094959634447_rgbf000077-resize_0-target.png,1000,1.3065,5,3979,999,meters,jsons/v1_VE1000_randls_45_rotated.json,1781045,2443092,65,Man
72,880387,DepthScenes,duration_manipulation_targetAtFixation,jsons/v1_VE1000_randls_45_rotated.json,http://54.235.29.9/FacialAge/BNav_EC2/DepthDuration/v2_depth_duration_MTurk/v2_DepthDuration_HTML.html#94,94,1366,768,1366,768,8-22-2022,7-59-44,73,depth_duration_stimuli/001100_2014-06-15_17-46-26_260595134347_rgbf000225-resize_2/001100_2014-06-15_17-46-26_260595134347_rgbf000225-resize_2-target.png,1000,2.24,5,9850,999,meters,jsons/v1_VE1000_randls_45_rotated.json,1781045,2443092,65,Man
73,880387,DepthScenes,duration_manipulation_targetAtFixation,jsons/v1_VE1000_randls_45_rotated.json,http://54.235.29.9/FacialAge/BNav_EC2/DepthDuration/v2_depth_duration_MTurk/v2_DepthDuration_HTML.html#94,94,1366,768,1366,768,8-22-2022,7-59-44,74,depth_duration_stimuli/002784_2014-06-22_19-26-30_094959634447_rgbf000083-resize_3/002784_2014-06-22_19-26-30_094959634447_rgbf000083-resize_3-target.png,1000,1.8046666666667,5,4626,999,meters,jsons/v1_VE1000_randls_45_rotated.json,1781045,2443092,65,Man
74,880387,DepthScenes,duration_manipulation_targetAtFixation,jsons/v1_VE1000_randls_45_rotated.json,http://54.235.29.9/FacialAge/BNav_EC2/DepthDuration/v2_depth_duration_MTurk/v2_DepthDuration_HTML.html#94,94,1366,768,1366,768,8-22-2022,7-59-44,75,depth_duration_stimuli/003010_2014-06-15_12-54-35_094959634447_rgbf000112-resize_0/003010_2014-06-15_12-54-35_094959634447_rgbf000112-resize_0-target.png,1000,3.1185,5,8676,999,meters,jsons/v1_VE1000_randls_45_rotated.json,1781045,2443092,65,Man
75,880387,DepthScenes,duration_manipulation_targetAtFixation,jsons/v1_VE1000_randls_45_rotated.json,http://54.235.29.9/FacialAge/BNav_EC2/DepthDuration/v2_depth_duration_MTurk/v2_DepthDuration_HTML.html#94,94,1366,768,1366,768,8-22-2022,7-59-44,76,depth_duration_stimuli/001810_2014-06-26_20-51-35_260595134347_rgbf000040-resize_3/001810_2014-06-26_20-51-35_260595134347_rgbf000040-resize_3-target.png,1000,2.2525,5,4218,1000,meters,jsons/v1_VE1000_randls_45_rotated.json,1781045,2443092,65,Man
76,880387,DepthScenes,duration_manipulation_targetAtFixation,jsons/v1_VE1000_randls_45_rotated.json,http://54.235.29.9/FacialAge/BNav_EC2/DepthDuration/v2_depth_duration_MTurk/v2_DepthDuration_HTML.html#94,94,1366,768,1366,768,8-22-2022,7-59-44,77,depth_duration_stimuli/002657_2014-06-13_15-29-54_094959634447_rgbf000150-resize_1/002657_2014-06-13_15-29-54_094959634447_rgbf000150-resize_1-target.png,1000,4.919,5,11123,1000,meters,jsons/v1_VE1000_randls_45_rotated.json,1781045,2443092,65,Man
77,880387,DepthScenes,duration_manipulation_targetAtFixation,jsons/v1_VE1000_randls_45_rotated.json,http://54.235.29.9/FacialAge/BNav_EC2/DepthDuration/v2_depth_duration_MTurk/v2_DepthDuration_HTML.html#94,94,1366,768,1366,768,8-22-2022,7-59-44,78,depth_duration_stimuli/002375_2014-06-28_20-13-44_260595134347_rgbf000032-resize_1/002375_2014-06-28_20-13-44_260595134347_rgbf000032-resize_1-target.png,1000,4.0175,5,4890,1000,meters,jsons/v1_VE1000_randls_45_rotated.json,1781045,2443092,65,Man
78,880387,DepthScenes,duration_manipulation_targetAtFixation,jsons/v1_VE1000_randls_45_rotated.json,http://54.235.29.9/FacialAge/BNav_EC2/DepthDuration/v2_depth_duration_MTurk/v2_DepthDuration_HTML.html#94,94,1366,768,1366,768,8-22-2022,7-59-44,79,depth_duration_stimuli/003081_2014-06-15_15-19-16_094959634447_rgbf000150-resize_1/003081_2014-06-15_15-19-16_094959634447_rgbf000150-resize_1-target.png,1000,3.9125,5,20706,1000,meters,jsons/v1_VE1000_randls_45_rotated.json,1781045,2443092,65,Man
79,880387,DepthScenes,duration_manipulation_targetAtFixation,jsons/v1_VE1000_randls_45_rotated.json,http://54.235.29.9/FacialAge/BNav_EC2/DepthDuration/v2_depth_duration_MTurk/v2_DepthDuration_HTML.html#94,94,1366,768,1366,768,8-22-2022,7-59-44,80,depth_duration_stimuli/001417_2014-06-19_16-25-36_260595134347_rgbf000115-resize_5/001417_2014-06-19_16-25-36_260595134347_rgbf000115-resize_5-target.png,1000,4.6255,0,4183,1000,meters,jsons/v1_VE1000_randls_45_rotated.json,1781045,2443092,65,Man
80,880387,DepthScenes,duration_manipulation_targetAtFixation,jsons/v1_VE1000_randls_45_rotated.json,http://54.235.29.9/FacialAge/BNav_EC2/DepthDuration/v2_depth_duration_MTurk/v2_DepthDuration_HTML.html#94,94,1366,768,1366,768,8-22-2022,7-59-44,81,depth_duration_stimuli/000409_2014-06-04_19-23-33_260595134347_rgbf000067-resize_0/000409_2014-06-04_19-23-33_260595134347_rgbf000067-resize_0-target.png,1000,3.7335,5,9687,999,meters,jsons/v1_VE1000_randls_45_rotated.json,1781045,2443092,65,Man
81,880387,DepthScenes,duration_manipulation_targetAtFixation,jsons/v1_VE1000_randls_45_rotated.json,http://54.235.29.9/FacialAge/BNav_EC2/DepthDuration/v2_depth_duration_MTurk/v2_DepthDuration_HTML.html#94,94,1366,768,1366,768,8-22-2022,7-59-44,82,depth_duration_stimuli/002663_2014-06-13_15-50-26_094959634447_rgbf000075-resize_1/002663_2014-06-13_15-50-26_094959634447_rgbf000075-resize_1-target.png,1000,4.7495,5,4836,1001,meters,jsons/v1_VE1000_randls_45_rotated.json,1781045,2443092,65,Man
82,880387,DepthScenes,duration_manipulation_targetAtFixation,jsons/v1_VE1000_randls_45_rotated.json,http://54.235.29.9/FacialAge/BNav_EC2/DepthDuration/v2_depth_duration_MTurk/v2_DepthDuration_HTML.html#94,94,1366,768,1366,768,8-22-2022,7-59-44,83,depth_duration_stimuli/000109_2014-05-14_23-41-52_260595134347_rgbf000035-resize_9/000109_2014-05-14_23-41-52_260595134347_rgbf000035-resize_9-target.png,1000,1.3545,5,11346,1000,meters,jsons/v1_VE1000_randls_45_rotated.json,1781045,2443092,65,Man
83,880387,DepthScenes,duration_manipulation_targetAtFixation,jsons/v1_VE1000_randls_45_rotated.json,http://54.235.29.9/FacialAge/BNav_EC2/DepthDuration/v2_depth_duration_MTurk/v2_DepthDuration_HTML.html#94,94,1366,768,1366,768,8-22-2022,7-59-44,84,depth_duration_stimuli/000470_2014-06-09_19-42-40_260595134347_rgbf000094-resize_1/000470_2014-06-09_19-42-40_260595134347_rgbf000094-resize_1-target.png,1000,1.831,5,4842,999,meters,jsons/v1_VE1000_randls_45_rotated.json,1781045,2443092,65,Man
84,880387,DepthScenes,duration_manipulation_targetAtFixation,jsons/v1_VE1000_randls_45_rotated.json,http://54.235.29.9/FacialAge/BNav_EC2/DepthDuration/v2_depth_duration_MTurk/v2_DepthDuration_HTML.html#94,94,1366,768,1366,768,8-22-2022,7-59-44,85,depth_duration_stimuli/000854_2014-06-09_19-43-13_260595134347_rgbf000066-resize_0/000854_2014-06-09_19-43-13_260595134347_rgbf000066-resize_0-target.png,1000,3.068,5,14146,1000,meters,jsons/v1_VE1000_randls_45_rotated.json,1781045,2443092,65,Man
85,880387,DepthScenes,duration_manipulation_targetAtFixation,jsons/v1_VE1000_randls_45_rotated.json,http://54.235.29.9/FacialAge/BNav_EC2/DepthDuration/v2_depth_duration_MTurk/v2_DepthDuration_HTML.html#94,94,1366,768,1366,768,8-22-2022,7-59-44,86,depth_duration_stimuli/000758_2014-06-08_22-05-08_260595134347_rgbf000085-resize_0/000758_2014-06-08_22-05-08_260595134347_rgbf000085-resize_0-target.png,1000,3.3810000000000002,5,3595,1000,meters,jsons/v1_VE1000_randls_45_rotated.json,1781045,2443092,65,Man
86,880387,DepthScenes,duration_manipulation_targetAtFixation,jsons/v1_VE1000_randls_45_rotated.json,http://54.235.29.9/FacialAge/BNav_EC2/DepthDuration/v2_depth_duration_MTurk/v2_DepthDuration_HTML.html#94,94,1366,768,1366,768,8-22-2022,7-59-44,87,depth_duration_stimuli/002750_2014-06-22_19-08-03_094959634447_rgbf000094-resize_4/002750_2014-06-22_19-08-03_094959634447_rgbf000094-resize_4-target.png,1000,2.354,5,19924,1001,meters,jsons/v1_VE1000_randls_45_rotated.json,1781045,2443092,65,Man
87,880387,DepthScenes,duration_manipulation_targetAtFixation,jsons/v1_VE1000_randls_45_rotated.json,http://54.235.29.9/FacialAge/BNav_EC2/DepthDuration/v2_depth_duration_MTurk/v2_DepthDuration_HTML.html#94,94,1366,768,1366,768,8-22-2022,7-59-44,88,depth_duration_stimuli/002549_2014-06-24_13-41-39_094959634447_rgbf000022-resize_3/002549_2014-06-24_13-41-39_094959634447_rgbf000022-resize_3-target.png,1000,1.476,5,3572,1000,meters,jsons/v1_VE1000_randls_45_rotated.json,1781045,2443092,65,Man
88,880387,DepthScenes,duration_manipulation_targetAtFixation,jsons/v1_VE1000_randls_45_rotated.json,http://54.235.29.9/FacialAge/BNav_EC2/DepthDuration/v2_depth_duration_MTurk/v2_DepthDuration_HTML.html#94,94,1366,768,1366,768,8-22-2022,7-59-44,89,depth_duration_stimuli/002103_2014-06-25_20-00-40_260595134347_rgbf000049-resize_0/002103_2014-06-25_20-00-40_260595134347_rgbf000049-resize_0-target.png,1000,4.105,5,15587,999,meters,jsons/v1_VE1000_randls_45_rotated.json,1781045,2443092,65,Man
89,880387,DepthScenes,duration_manipulation_targetAtFixation,jsons/v1_VE1000_randls_45_rotated.json,http://54.235.29.9/FacialAge/BNav_EC2/DepthDuration/v2_depth_duration_MTurk/v2_DepthDuration_HTML.html#94,94,1366,768,1366,768,8-22-2022,7-59-44,90,depth_duration_stimuli/002039_2014-06-24_20-22-38_260595134347_rgbf000084-resize_1/002039_2014-06-24_20-22-38_260595134347_rgbf000084-resize_1-target.png,1000,4.408,5,3920,1000,meters,jsons/v1_VE1000_randls_45_rotated.json,1781045,2443092,65,Man
90,880387,DepthScenes,duration_manipulation_targetAtFixation,jsons/v1_VE1000_randls_45_rotated.json,http://54.235.29.9/FacialAge/BNav_EC2/DepthDuration/v2_depth_duration_MTurk/v2_DepthDuration_HTML.html#94,94,1366,768,1366,768,8-22-2022,7-59-44,91,depth_duration_stimuli/002875_2014-06-01_15-19-00_094959634447_rgbf000151-resize_1/002875_2014-06-01_15-19-00_094959634447_rgbf000151-resize_1-target.png,1000,1.9675,5,14179,1000,meters,jsons/v1_VE1000_randls_45_rotated.json,1781045,2443092,65,Man
91,880387,DepthScenes,duration_manipulation_targetAtFixation,jsons/v1_VE1000_randls_45_rotated.json,http://54.235.29.9/FacialAge/BNav_EC2/DepthDuration/v2_depth_duration_MTurk/v2_DepthDuration_HTML.html#94,94,1366,768,1366,768,8-22-2022,7-59-44,92,depth_duration_stimuli/001011_2014-06-08_23-18-54_260595134347_rgbf000044-resize_4/001011_2014-06-08_23-18-54_260595134347_rgbf000044-resize_4-target.png,1000,2.4730000000000003,5,3458,998,meters,jsons/v1_VE1000_randls_45_rotated.json,1781045,2443092,65,Man
92,880387,DepthScenes,duration_manipulation_targetAtFixation,jsons/v1_VE1000_randls_45_rotated.json,http://54.235.29.9/FacialAge/BNav_EC2/DepthDuration/v2_depth_duration_MTurk/v2_DepthDuration_HTML.html#94,94,1366,768,1366,768,8-22-2022,7-59-44,93,depth_duration_stimuli/001235_2014-06-17_16-37-36_260595134347_rgbf000084-resize_4/001235_2014-06-17_16-37-36_260595134347_rgbf000084-resize_4-target.png,1000,3.6605,5,16130,1006,meters,jsons/v1_VE1000_randls_45_rotated.json,1781045,2443092,65,Man
93,880387,DepthScenes,duration_manipulation_targetAtFixation,jsons/v1_VE1000_randls_45_rotated.json,http://54.235.29.9/FacialAge/BNav_EC2/DepthDuration/v2_depth_duration_MTurk/v2_DepthDuration_HTML.html#94,94,1366,768,1366,768,8-22-2022,7-59-44,94,depth_duration_stimuli/000788_2014-06-08_22-34-36_260595134347_rgbf000131-resize_1/000788_2014-06-08_22-34-36_260595134347_rgbf000131-resize_1-target.png,1000,3.359,5,4004,999,meters,jsons/v1_VE1000_randls_45_rotated.json,1781045,2443092,65,Man
94,880387,DepthScenes,duration_manipulation_targetAtFixation,jsons/v1_VE1000_randls_45_rotated.json,http://54.235.29.9/FacialAge/BNav_EC2/DepthDuration/v2_depth_duration_MTurk/v2_DepthDuration_HTML.html#94,94,1366,768,1366,768,8-22-2022,7-59-44,95,depth_duration_stimuli/000457_2014-06-08_16-52-43_260595134347_rgbf000199-resize_1/000457_2014-06-08_16-52-43_260595134347_rgbf000199-resize_1-target.png,1000,3.6489999999999996,5,26244,1000,meters,jsons/v1_VE1000_randls_45_rotated.json,1781045,2443092,65,Man
95,880387,DepthScenes,duration_manipulation_targetAtFixation,jsons/v1_VE1000_randls_45_rotated.json,http://54.235.29.9/FacialAge/BNav_EC2/DepthDuration/v2_depth_duration_MTurk/v2_DepthDuration_HTML.html#94,94,1366,768,1366,768,8-22-2022,7-59-44,96,depth_duration_stimuli/000929_2014-06-09_16-33-19_260595134347_rgbf000139-resize_0/000929_2014-06-09_16-33-19_260595134347_rgbf000139-resize_0-target.png,1000,2.8680000000000003,5,3881,999,meters,jsons/v1_VE1000_randls_45_rotated.json,1781045,2443092,65,Man
96,880387,DepthScenes,duration_manipulation_targetAtFixation,jsons/v1_VE1000_randls_45_rotated.json,http://54.235.29.9/FacialAge/BNav_EC2/DepthDuration/v2_depth_duration_MTurk/v2_DepthDuration_HTML.html#94,94,1366,768,1366,768,8-22-2022,7-59-44,97,depth_duration_stimuli/000691_2014-06-08_13-08-50_260595134347_rgbf000132-resize_3/000691_2014-06-08_13-08-50_260595134347_rgbf000132-resize_3-target.png,1000,4.1530000000000005,5,30103,1001,meters,jsons/v1_VE1000_randls_45_rotated.json,1781045,2443092,65,Man
97,880387,DepthScenes,duration_manipulation_targetAtFixation,jsons/v1_VE1000_randls_45_rotated.json,http://54.235.29.9/FacialAge/BNav_EC2/DepthDuration/v2_depth_duration_MTurk/v2_DepthDuration_HTML.html#94,94,1366,768,1366,768,8-22-2022,7-59-44,98,depth_duration_stimuli/002213_2014-06-28_18-37-58_260595134347_rgbf000055-resize_1/002213_2014-06-28_18-37-58_260595134347_rgbf000055-resize_1-target.png,1000,3.62,5,3988,1000,meters,jsons/v1_VE1000_randls_45_rotated.json,1781045,2443092,65,Man
98,880387,DepthScenes,duration_manipulation_targetAtFixation,jsons/v1_VE1000_randls_45_rotated.json,http://54.235.29.9/FacialAge/BNav_EC2/DepthDuration/v2_depth_duration_MTurk/v2_DepthDuration_HTML.html#94,94,1366,768,1366,768,8-22-2022,7-59-44,99,depth_duration_stimuli/001222_2014-06-17_16-24-06_260595134347_rgbf000073-resize_0/001222_2014-06-17_16-24-06_260595134347_rgbf000073-resize-original.jpg,1000,1.4385,0,14623,1000,meters,jsons/v1_VE1000_randls_45_rotated.json,1781045,2443092,65,Man
99,880387,DepthScenes,duration_manipulation_targetAtFixation,jsons/v1_VE1000_randls_45_rotated.json,http://54.235.29.9/FacialAge/BNav_EC2/DepthDuration/v2_depth_duration_MTurk/v2_DepthDuration_HTML.html#94,94,1366,768,1366,768,8-22-2022,7-59-44,100,depth_duration_stimuli/003048_2014-06-15_13-49-43_094959634447_rgbf000150-resize_1/003048_2014-06-15_13-49-43_094959634447_rgbf000150-resize_1-target.png,1000,4.0035,5,11410,1000,meters,jsons/v1_VE1000_randls_45_rotated.json,1781045,2443092,65,Man
100,880387,DepthScenes,duration_manipulation_targetAtFixation,jsons/v1_VE1000_randls_45_rotated.json,http://54.235.29.9/FacialAge/BNav_EC2/DepthDuration/v2_depth_duration_MTurk/v2_DepthDuration_HTML.html#94,94,1366,768,1366,768,8-22-2022,7-59-44,101,depth_duration_stimuli/002043_2014-06-24_20-29-38_260595134347_rgbf000039-resize_4/002043_2014-06-24_20-29-38_260595134347_rgbf000039-resize_4-target.png,1000,2.8435,5,11403,1000,meters,jsons/v1_VE1000_randls_45_rotated.json,1781045,2443092,65,Man
101,880387,DepthScenes,duration_manipulation_targetAtFixation,jsons/v1_VE1000_randls_45_rotated.json,http://54.235.29.9/FacialAge/BNav_EC2/DepthDuration/v2_depth_duration_MTurk/v2_DepthDuration_HTML.html#94,94,1366,768,1366,768,8-22-2022,7-59-44,102,depth_duration_stimuli/001132_2014-06-17_14-48-54_260595134347_rgbf000100-resize_2/001132_2014-06-17_14-48-54_260595134347_rgbf000100-resize_2-target.png,1000,3.753,5,14213,999,meters,jsons/v1_VE1000_randls_45_rotated.json,1781045,2443092,65,Man
102,880387,DepthScenes,duration_manipulation_targetAtFixation,jsons/v1_VE1000_randls_45_rotated.json,http://54.235.29.9/FacialAge/BNav_EC2/DepthDuration/v2_depth_duration_MTurk/v2_DepthDuration_HTML.html#94,94,1366,768,1366,768,8-22-2022,7-59-44,103,depth_duration_stimuli/001133_2014-06-17_14-49-16_260595134347_rgbf000100-resize_0/001133_2014-06-17_14-49-16_260595134347_rgbf000100-resize_0-target.png,1000,4.2115,5,5354,1000,meters,jsons/v1_VE1000_randls_45_rotated.json,1781045,2443092,65,Man
103,880387,DepthScenes,duration_manipulation_targetAtFixation,jsons/v1_VE1000_randls_45_rotated.json,http://54.235.29.9/FacialAge/BNav_EC2/DepthDuration/v2_depth_duration_MTurk/v2_DepthDuration_HTML.html#94,94,1366,768,1366,768,8-22-2022,7-59-44,104,depth_duration_stimuli/001650_2014-06-20_12-09-00_260595134347_rgbf000087-resize_3/001650_2014-06-20_12-09-00_260595134347_rgbf000087-resize_3-target.png,1000,1.9505,5,13028,1001,meters,jsons/v1_VE1000_randls_45_rotated.json,1781045,2443092,65,Man
104,880387,DepthScenes,duration_manipulation_targetAtFixation,jsons/v1_VE1000_randls_45_rotated.json,http://54.235.29.9/FacialAge/BNav_EC2/DepthDuration/v2_depth_duration_MTurk/v2_DepthDuration_HTML.html#94,94,1366,768,1366,768,8-22-2022,7-59-44,105,depth_duration_stimuli/000682_2014-06-08_23-14-58_260595134347_rgbf000041-resize_5/000682_2014-06-08_23-14-58_260595134347_rgbf000041-resize_5-target.png,1000,2.7239999999999998,5,5896,1000,meters,jsons/v1_VE1000_randls_45_rotated.json,1781045,2443092,65,Man
105,880387,DepthScenes,duration_manipulation_targetAtFixation,jsons/v1_VE1000_randls_45_rotated.json,http://54.235.29.9/FacialAge/BNav_EC2/DepthDuration/v2_depth_duration_MTurk/v2_DepthDuration_HTML.html#94,94,1366,768,1366,768,8-22-2022,7-59-44,106,depth_duration_stimuli/001214_2014-06-17_16-13-55_260595134347_rgbf000111-resize_0/001214_2014-06-17_16-13-55_260595134347_rgbf000111-resize_0-target.png,1000,2.6505,5,15005,999,meters,jsons/v1_VE1000_randls_45_rotated.json,1781045,2443092,65,Man
106,880387,DepthScenes,duration_manipulation_targetAtFixation,jsons/v1_VE1000_randls_45_rotated.json,http://54.235.29.9/FacialAge/BNav_EC2/DepthDuration/v2_depth_duration_MTurk/v2_DepthDuration_HTML.html#94,94,1366,768,1366,768,8-22-2022,7-59-44,107,depth_duration_stimuli/000810_2014-06-08_17-20-01_260595134347_rgbf000105-resize_0/000810_2014-06-08_17-20-01_260595134347_rgbf000105-resize_0-target.png,1000,1.4865,5,4954,1000,meters,jsons/v1_VE1000_randls_45_rotated.json,1781045,2443092,65,Man
107,880387,DepthScenes,duration_manipulation_targetAtFixation,jsons/v1_VE1000_randls_45_rotated.json,http://54.235.29.9/FacialAge/BNav_EC2/DepthDuration/v2_depth_duration_MTurk/v2_DepthDuration_HTML.html#94,94,1366,768,1366,768,8-22-2022,7-59-44,108,depth_duration_stimuli/002444_2014-06-28_20-32-08_260595134347_rgbf000027-resize_0/002444_2014-06-28_20-32-08_260595134347_rgbf000027-resize_0-target.png,1000,4.388999999999999,5,18816,1000,meters,jsons/v1_VE1000_randls_45_rotated.json,1781045,2443092,65,Man
108,880387,DepthScenes,duration_manipulation_targetAtFixation,jsons/v1_VE1000_randls_45_rotated.json,http://54.235.29.9/FacialAge/BNav_EC2/DepthDuration/v2_depth_duration_MTurk/v2_DepthDuration_HTML.html#94,94,1366,768,1366,768,8-22-2022,7-59-44,109,depth_duration_stimuli/000436_2014-06-09_22-25-11_260595134347_rgbf000137-resize_1/000436_2014-06-09_22-25-11_260595134347_rgbf000137-resize_1-target.png,1000,4.0705,5,3515,1000,meters,jsons/v1_VE1000_randls_45_rotated.json,1781045,2443092,65,Man
109,880387,DepthScenes,duration_manipulation_targetAtFixation,jsons/v1_VE1000_randls_45_rotated.json,http://54.235.29.9/FacialAge/BNav_EC2/DepthDuration/v2_depth_duration_MTurk/v2_DepthDuration_HTML.html#94,94,1366,768,1366,768,8-22-2022,7-59-44,110,depth_duration_stimuli/002209_2014-06-28_18-36-10_260595134347_rgbf000051-resize_1/002209_2014-06-28_18-36-10_260595134347_rgbf000051-resize_1-target.png,1000,2.057,5,17411,1001,meters,jsons/v1_VE1000_randls_45_rotated.json,1781045,2443092,65,Man
110,880387,DepthScenes,duration_manipulation_targetAtFixation,jsons/v1_VE1000_randls_45_rotated.json,http://54.235.29.9/FacialAge/BNav_EC2/DepthDuration/v2_depth_duration_MTurk/v2_DepthDuration_HTML.html#94,94,1366,768,1366,768,8-22-2022,7-59-44,111,depth_duration_stimuli/002763_2014-06-22_19-13-10_094959634447_rgbf000075-resize_4/002763_2014-06-22_19-13-10_094959634447_rgbf000075-resize_4-target.png,1000,1.68375,0,6556,1000,meters,jsons/v1_VE1000_randls_45_rotated.json,1781045,2443092,65,Man
111,880387,DepthScenes,duration_manipulation_targetAtFixation,jsons/v1_VE1000_randls_45_rotated.json,http://54.235.29.9/FacialAge/BNav_EC2/DepthDuration/v2_depth_duration_MTurk/v2_DepthDuration_HTML.html#94,94,1366,768,1366,768,8-22-2022,7-59-44,112,depth_duration_stimuli/000749_2014-06-08_21-55-06_260595134347_rgbf000070-resize_2/000749_2014-06-08_21-55-06_260595134347_rgbf000070-resize_2-target.png,1000,2.331,5,16379,1000,meters,jsons/v1_VE1000_randls_45_rotated.json,1781045,2443092,65,Man
112,880387,DepthScenes,duration_manipulation_targetAtFixation,jsons/v1_VE1000_randls_45_rotated.json,http://54.235.29.9/FacialAge/BNav_EC2/DepthDuration/v2_depth_duration_MTurk/v2_DepthDuration_HTML.html#94,94,1366,768,1366,768,8-22-2022,7-59-44,113,depth_duration_stimuli/002788_2014-06-22_19-36-03_094959634447_rgbf000088-resize_2/002788_2014-06-22_19-36-03_094959634447_rgbf000088-resize_2-target.png,1000,1.6465,5,5788,1000,meters,jsons/v1_VE1000_randls_45_rotated.json,1781045,2443092,65,Man
113,880387,DepthScenes,duration_manipulation_targetAtFixation,jsons/v1_VE1000_randls_45_rotated.json,http://54.235.29.9/FacialAge/BNav_EC2/DepthDuration/v2_depth_duration_MTurk/v2_DepthDuration_HTML.html#94,94,1366,768,1366,768,8-22-2022,7-59-44,114,depth_duration_stimuli/003495_2014-05-21_16-01-51_094959634447_rgbf000100-resize_3/003495_2014-05-21_16-01-51_094959634447_rgbf000100-resize_3-target.png,1000,1.6255,5,17992,997,meters,jsons/v1_VE1000_randls_45_rotated.json,1781045,2443092,65,Man
114,880387,DepthScenes,duration_manipulation_targetAtFixation,jsons/v1_VE1000_randls_45_rotated.json,http://54.235.29.9/FacialAge/BNav_EC2/DepthDuration/v2_depth_duration_MTurk/v2_DepthDuration_HTML.html#94,94,1366,768,1366,768,8-22-2022,7-59-44,115,depth_duration_stimuli/001244_2014-06-17_16-47-45_260595134347_rgbf000030-resize_4/001244_2014-06-17_16-47-45_260595134347_rgbf000030-resize_4-target.png,1000,2.0425,5,9737,999,meters,jsons/v1_VE1000_randls_45_rotated.json,1781045,2443092,65,Man
115,880387,DepthScenes,duration_manipulation_targetAtFixation,jsons/v1_VE1000_randls_45_rotated.json,http://54.235.29.9/FacialAge/BNav_EC2/DepthDuration/v2_depth_duration_MTurk/v2_DepthDuration_HTML.html#94,94,1366,768,1366,768,8-22-2022,7-59-44,116,depth_duration_stimuli/003083_2014-06-15_15-21-03_094959634447_rgbf000063-resize_1/003083_2014-06-15_15-21-03_094959634447_rgbf000063-resize_1-target.png,1000,4.1405,5,22580,999,meters,jsons/v1_VE1000_randls_45_rotated.json,1781045,2443092,65,Man
116,880387,DepthScenes,duration_manipulation_targetAtFixation,jsons/v1_VE1000_randls_45_rotated.json,http://54.235.29.9/FacialAge/BNav_EC2/DepthDuration/v2_depth_duration_MTurk/v2_DepthDuration_HTML.html#94,94,1366,768,1366,768,8-22-2022,7-59-44,117,depth_duration_stimuli/000486_2014-06-09_20-47-20_260595134347_rgbf000143-resize_2/000486_2014-06-09_20-47-20_260595134347_rgbf000143-resize_2-target.png,1000,4.8325,5,5104,999,meters,jsons/v1_VE1000_randls_45_rotated.json,1781045,2443092,65,Man
117,880387,DepthScenes,duration_manipulation_targetAtFixation,jsons/v1_VE1000_randls_45_rotated.json,http://54.235.29.9/FacialAge/BNav_EC2/DepthDuration/v2_depth_duration_MTurk/v2_DepthDuration_HTML.html#94,94,1366,768,1366,768,8-22-2022,7-59-44,118,depth_duration_stimuli/002344_2014-06-28_20-06-29_260595134347_rgbf000030-resize_1/002344_2014-06-28_20-06-29_260595134347_rgbf000030-resize_1-target.png,1000,1.5795,5,28117,1001,meters,jsons/v1_VE1000_randls_45_rotated.json,1781045,2443092,65,Man
118,880387,DepthScenes,duration_manipulation_targetAtFixation,jsons/v1_VE1000_randls_45_rotated.json,http://54.235.29.9/FacialAge/BNav_EC2/DepthDuration/v2_depth_duration_MTurk/v2_DepthDuration_HTML.html#94,94,1366,768,1366,768,8-22-2022,7-59-44,119,depth_duration_stimuli/002725_2014-06-22_11-47-51_094959634447_rgbf000070-resize_1/002725_2014-06-22_11-47-51_094959634447_rgbf000070-resize_1-target.png,1000,2.195,5,18474,1001,meters,jsons/v1_VE1000_randls_45_rotated.json,1781045,2443092,65,Man
119,880387,DepthScenes,duration_manipulation_targetAtFixation,jsons/v1_VE1000_randls_45_rotated.json,http://54.235.29.9/FacialAge/BNav_EC2/DepthDuration/v2_depth_duration_MTurk/v2_DepthDuration_HTML.html#94,94,1366,768,1366,768,8-22-2022,7-59-44,120,depth_duration_stimuli/000787_2014-06-08_22-33-53_260595134347_rgbf000175-resize_1/000787_2014-06-08_22-33-53_260595134347_rgbf000175-resize-original.jpg,1000,4.784,5,14101,999,meters,jsons/v1_VE1000_randls_45_rotated.json,1781045,2443092,65,Man
120,880387,DepthScenes,duration_manipulation_targetAtFixation,jsons/v1_VE1000_randls_45_rotated.json,http://54.235.29.9/FacialAge/BNav_EC2/DepthDuration/v2_depth_duration_MTurk/v2_DepthDuration_HTML.html#94,94,1366,768,1366,768,8-22-2022,7-59-44,121,depth_duration_stimuli/001617_2014-06-20_11-35-32_260595134347_rgbf000066-resize_1/001617_2014-06-20_11-35-32_260595134347_rgbf000066-resize_1-target.png,1000,3.7910000000000004,5,39869,1000,meters,jsons/v1_VE1000_randls_45_rotated.json,1781045,2443092,65,Man
121,880387,DepthScenes,duration_manipulation_targetAtFixation,jsons/v1_VE1000_randls_45_rotated.json,http://54.235.29.9/FacialAge/BNav_EC2/DepthDuration/v2_depth_duration_MTurk/v2_DepthDuration_HTML.html#94,94,1366,768,1366,768,8-22-2022,7-59-44,122,depth_duration_stimuli/001806_2014-06-26_20-50-20_260595134347_rgbf000091-resize_1/001806_2014-06-26_20-50-20_260595134347_rgbf000091-resize_1-target.png,1000,2.7305,5,5899,1001,meters,jsons/v1_VE1000_randls_45_rotated.json,1781045,2443092,65,Man
122,880387,DepthScenes,duration_manipulation_targetAtFixation,jsons/v1_VE1000_randls_45_rotated.json,http://54.235.29.9/FacialAge/BNav_EC2/DepthDuration/v2_depth_duration_MTurk/v2_DepthDuration_HTML.html#94,94,1366,768,1366,768,8-22-2022,7-59-44,123,depth_duration_stimuli/001032_2014-06-08_13-23-17_260595134347_rgbf000021-resize_3/001032_2014-06-08_13-23-17_260595134347_rgbf000021-resize_3-target.png,1000,3.2725,5,12780,1001,meters,jsons/v1_VE1000_randls_45_rotated.json,1781045,2443092,65,Man
123,880387,DepthScenes,duration_manipulation_targetAtFixation,jsons/v1_VE1000_randls_45_rotated.json,http://54.235.29.9/FacialAge/BNav_EC2/DepthDuration/v2_depth_duration_MTurk/v2_DepthDuration_HTML.html#94,94,1366,768,1366,768,8-22-2022,7-59-44,124,depth_duration_stimuli/001059_2014-06-08_21-53-27_260595134347_rgbf000061-resize_4/001059_2014-06-08_21-53-27_260595134347_rgbf000061-resize_4-target.png,1000,2.4185,5,6187,1000,meters,jsons/v1_VE1000_randls_45_rotated.json,1781045,2443092,65,Man
124,880387,DepthScenes,duration_manipulation_targetAtFixation,jsons/v1_VE1000_randls_45_rotated.json,http://54.235.29.9/FacialAge/BNav_EC2/DepthDuration/v2_depth_duration_MTurk/v2_DepthDuration_HTML.html#94,94,1366,768,1366,768,8-22-2022,7-59-44,125,depth_duration_stimuli/002949_2014-06-26_15-57-42_094959634447_rgbf000079-resize_1/002949_2014-06-26_15-57-42_094959634447_rgbf000079-resize_1-target.png,1000,1.8915,5,14363,1000,meters,jsons/v1_VE1000_randls_45_rotated.json,1781045,2443092,65,Man
125,880387,DepthScenes,duration_manipulation_targetAtFixation,jsons/v1_VE1000_randls_45_rotated.json,http://54.235.29.9/FacialAge/BNav_EC2/DepthDuration/v2_depth_duration_MTurk/v2_DepthDuration_HTML.html#94,94,1366,768,1366,768,8-22-2022,7-59-44,126,depth_duration_stimuli/000522_2014-06-08_13-35-06_260595134347_rgbf000244-resize_1/000522_2014-06-08_13-35-06_260595134347_rgbf000244-resize_1-target.png,1000,2.3715,5,7252,1001,meters,jsons/v1_VE1000_randls_45_rotated.json,1781045,2443092,65,Man
126,880387,DepthScenes,duration_manipulation_targetAtFixation,jsons/v1_VE1000_randls_45_rotated.json,http://54.235.29.9/FacialAge/BNav_EC2/DepthDuration/v2_depth_duration_MTurk/v2_DepthDuration_HTML.html#94,94,1366,768,1366,768,8-22-2022,7-59-44,127,depth_duration_stimuli/000103_2014-05-14_22-01-17_260595134347_rgbf000152-resize_5/000103_2014-05-14_22-01-17_260595134347_rgbf000152-resize_5-target.png,1000,1.993,5,15195,1000,meters,jsons/v1_VE1000_randls_45_rotated.json,1781045,2443092,65,Man
127,880387,DepthScenes,duration_manipulation_targetAtFixation,jsons/v1_VE1000_randls_45_rotated.json,http://54.235.29.9/FacialAge/BNav_EC2/DepthDuration/v2_depth_duration_MTurk/v2_DepthDuration_HTML.html#94,94,1366,768,1366,768,8-22-2022,7-59-44,128,depth_duration_stimuli/001555_2014-06-20_17-12-10_260595134347_rgbf000065-resize_4/001555_2014-06-20_17-12-10_260595134347_rgbf000065-resize_4-target.png,1000,1.633,5,5725,1002,meters,jsons/v1_VE1000_randls_45_rotated.json,1781045,2443092,65,Man
128,880387,DepthScenes,duration_manipulation_targetAtFixation,jsons/v1_VE1000_randls_45_rotated.json,http://54.235.29.9/FacialAge/BNav_EC2/DepthDuration/v2_depth_duration_MTurk/v2_DepthDuration_HTML.html#94,94,1366,768,1366,768,8-22-2022,7-59-44,129,depth_duration_stimuli/000137_2014-05-20_17-04-49_260595134347_rgbf000120-resize_1/000137_2014-05-20_17-04-49_260595134347_rgbf000120-resize_1-target.png,1000,3.786,5,17648,999,meters,jsons/v1_VE1000_randls_45_rotated.json,1781045,2443092,65,Man
129,880387,DepthScenes,duration_manipulation_targetAtFixation,jsons/v1_VE1000_randls_45_rotated.json,http://54.235.29.9/FacialAge/BNav_EC2/DepthDuration/v2_depth_duration_MTurk/v2_DepthDuration_HTML.html#94,94,1366,768,1366,768,8-22-2022,7-59-44,130,depth_duration_stimuli/000736_2014-06-08_18-24-15_260595134347_rgbf000206-resize_3/000736_2014-06-08_18-24-15_260595134347_rgbf000206-resize_3-target.png,1000,3.515,5,4619,1000,meters,jsons/v1_VE1000_randls_45_rotated.json,1781045,2443092,65,Man
130,880387,DepthScenes,duration_manipulation_targetAtFixation,jsons/v1_VE1000_randls_45_rotated.json,http://54.235.29.9/FacialAge/BNav_EC2/DepthDuration/v2_depth_duration_MTurk/v2_DepthDuration_HTML.html#94,94,1366,768,1366,768,8-22-2022,7-59-44,131,depth_duration_stimuli/003228_2014-05-14_13-42-35_094959634447_rgbf000101-resize_1/003228_2014-05-14_13-42-35_094959634447_rgbf000101-resize_1-target.png,1000,1.9680000000000002,5,19530,1000,meters,jsons/v1_VE1000_randls_45_rotated.json,1781045,2443092,65,Man
131,880387,DepthScenes,duration_manipulation_targetAtFixation,jsons/v1_VE1000_randls_45_rotated.json,http://54.235.29.9/FacialAge/BNav_EC2/DepthDuration/v2_depth_duration_MTurk/v2_DepthDuration_HTML.html#94,94,1366,768,1366,768,8-22-2022,7-59-44,132,depth_duration_stimuli/002600_2014-06-24_14-27-04_094959634447_rgbf000074-resize_2/002600_2014-06-24_14-27-04_094959634447_rgbf000074-resize_2-target.png,1000,2.7575,5,4076,1000,meters,jsons/v1_VE1000_randls_45_rotated.json,1781045,2443092,65,Man
132,880387,DepthScenes,duration_manipulation_targetAtFixation,jsons/v1_VE1000_randls_45_rotated.json,http://54.235.29.9/FacialAge/BNav_EC2/DepthDuration/v2_depth_duration_MTurk/v2_DepthDuration_HTML.html#94,94,1366,768,1366,768,8-22-2022,7-59-44,133,depth_duration_stimuli/002637_2014-06-24_14-51-13_094959634447_rgbf000066-resize_4/002637_2014-06-24_14-51-13_094959634447_rgbf000066-resize_4-target.png,1000,1.9955,5,13067,999,meters,jsons/v1_VE1000_randls_45_rotated.json,1781045,2443092,65,Man
133,880387,DepthScenes,duration_manipulation_targetAtFixation,jsons/v1_VE1000_randls_45_rotated.json,http://54.235.29.9/FacialAge/BNav_EC2/DepthDuration/v2_depth_duration_MTurk/v2_DepthDuration_HTML.html#94,94,1366,768,1366,768,8-22-2022,7-59-44,134,depth_duration_stimuli/003534_2014-05-22_15-06-10_094959634447_rgbf000102-resize_4/003534_2014-05-22_15-06-10_094959634447_rgbf000102-resize_4-target.png,1000,1.426,5,3994,1000,meters,jsons/v1_VE1000_randls_45_rotated.json,1781045,2443092,65,Man
134,880387,DepthScenes,duration_manipulation_targetAtFixation,jsons/v1_VE1000_randls_45_rotated.json,http://54.235.29.9/FacialAge/BNav_EC2/DepthDuration/v2_depth_duration_MTurk/v2_DepthDuration_HTML.html#94,94,1366,768,1366,768,8-22-2022,7-59-44,135,depth_duration_stimuli/000375_2014-06-08_11-17-29_260595134347_rgbf000133-resize_2/000375_2014-06-08_11-17-29_260595134347_rgbf000133-resize-original.jpg,1000,4.718,0,11170,1000,meters,jsons/v1_VE1000_randls_45_rotated.json,1781045,2443092,65,Man
135,880387,DepthScenes,duration_manipulation_targetAtFixation,jsons/v1_VE1000_randls_45_rotated.json,http://54.235.29.9/FacialAge/BNav_EC2/DepthDuration/v2_depth_duration_MTurk/v2_DepthDuration_HTML.html#94,94,1366,768,1366,768,8-22-2022,7-59-44,136,depth_duration_stimuli/001516_2014-06-20_16-25-09_260595134347_rgbf000076-resize_2/001516_2014-06-20_16-25-09_260595134347_rgbf000076-resize_2-target.png,1000,1.7445,5,12844,1001,meters,jsons/v1_VE1000_randls_45_rotated.json,1781045,2443092,65,Man
136,880387,DepthScenes,duration_manipulation_targetAtFixation,jsons/v1_VE1000_randls_45_rotated.json,http://54.235.29.9/FacialAge/BNav_EC2/DepthDuration/v2_depth_duration_MTurk/v2_DepthDuration_HTML.html#94,94,1366,768,1366,768,8-22-2022,7-59-44,137,depth_duration_stimuli/002118_2014-06-25_20-32-08_260595134347_rgbf000078-resize_1/002118_2014-06-25_20-32-08_260595134347_rgbf000078-resize_1-target.png,1000,2.6460000000000004,5,4274,999,meters,jsons/v1_VE1000_randls_45_rotated.json,1781045,2443092,65,Man
137,880387,DepthScenes,duration_manipulation_targetAtFixation,jsons/v1_VE1000_randls_45_rotated.json,http://54.235.29.9/FacialAge/BNav_EC2/DepthDuration/v2_depth_duration_MTurk/v2_DepthDuration_HTML.html#94,94,1366,768,1366,768,8-22-2022,7-59-44,138,depth_duration_stimuli/002568_2014-06-24_13-59-21_094959634447_rgbf000062-resize_4/002568_2014-06-24_13-59-21_094959634447_rgbf000062-resize_4-target.png,1000,3.015,5,13522,1001,meters,jsons/v1_VE1000_randls_45_rotated.json,1781045,2443092,65,Man
138,880387,DepthScenes,duration_manipulation_targetAtFixation,jsons/v1_VE1000_randls_45_rotated.json,http://54.235.29.9/FacialAge/BNav_EC2/DepthDuration/v2_depth_duration_MTurk/v2_DepthDuration_HTML.html#94,94,1366,768,1366,768,8-22-2022,7-59-44,139,depth_duration_stimuli/003492_2014-05-21_15-50-55_094959634447_rgbf000828-resize_1/003492_2014-05-21_15-50-55_094959634447_rgbf000828-resize_1-target.png,1000,4.06875,5,3683,999,meters,jsons/v1_VE1000_randls_45_rotated.json,1781045,2443092,65,Man
139,880387,DepthScenes,duration_manipulation_targetAtFixation,jsons/v1_VE1000_randls_45_rotated.json,http://54.235.29.9/FacialAge/BNav_EC2/DepthDuration/v2_depth_duration_MTurk/v2_DepthDuration_HTML.html#94,94,1366,768,1366,768,8-22-2022,7-59-44,140,depth_duration_stimuli/001052_2014-06-08_18-24-54_260595134347_rgbf000130-resize_1/001052_2014-06-08_18-24-54_260595134347_rgbf000130-resize_1-target.png,1000,4.1045,5,23637,1001,meters,jsons/v1_VE1000_randls_45_rotated.json,1781045,2443092,65,Man
140,880387,DepthScenes,duration_manipulation_targetAtFixation,jsons/v1_VE1000_randls_45_rotated.json,http://54.235.29.9/FacialAge/BNav_EC2/DepthDuration/v2_depth_duration_MTurk/v2_DepthDuration_HTML.html#94,94,1366,768,1366,768,8-22-2022,7-59-44,141,depth_duration_stimuli/002988_2014-06-15_12-24-20_094959634447_rgbf000150-resize_1/002988_2014-06-15_12-24-20_094959634447_rgbf000150-resize_1-target.png,1000,4.7669999999999995,5,4234,1000,meters,jsons/v1_VE1000_randls_45_rotated.json,1781045,2443092,65,Man
141,880387,DepthScenes,duration_manipulation_targetAtFixation,jsons/v1_VE1000_randls_45_rotated.json,http://54.235.29.9/FacialAge/BNav_EC2/DepthDuration/v2_depth_duration_MTurk/v2_DepthDuration_HTML.html#94,94,1366,768,1366,768,8-22-2022,7-59-44,142,depth_duration_stimuli/003129_2014-05-12_10-48-10_094959634447_rgbf000100-resize_0/003129_2014-05-12_10-48-10_094959634447_rgbf000100-resize_0-target.png,1000,4.9305,5,14292,999,meters,jsons/v1_VE1000_randls_45_rotated.json,1781045,2443092,65,Man
142,880387,DepthScenes,duration_manipulation_targetAtFixation,jsons/v1_VE1000_randls_45_rotated.json,http://54.235.29.9/FacialAge/BNav_EC2/DepthDuration/v2_depth_duration_MTurk/v2_DepthDuration_HTML.html#94,94,1366,768,1366,768,8-22-2022,7-59-44,143,depth_duration_stimuli/000414_2014-06-04_19-49-13_260595134347_rgbf000044-resize_0/000414_2014-06-04_19-49-13_260595134347_rgbf000044-resize_0-target.png,1000,4.329,5,4491,1000,meters,jsons/v1_VE1000_randls_45_rotated.json,1781045,2443092,65,Man
143,880387,DepthScenes,duration_manipulation_targetAtFixation,jsons/v1_VE1000_randls_45_rotated.json,http://54.235.29.9/FacialAge/BNav_EC2/DepthDuration/v2_depth_duration_MTurk/v2_DepthDuration_HTML.html#94,94,1366,768,1366,768,8-22-2022,7-59-44,144,depth_duration_stimuli/002414_2014-06-28_20-24-58_260595134347_rgbf000067-resize_4/002414_2014-06-28_20-24-58_260595134347_rgbf000067-resize_4-target.png,1000,4.363,5,10995,1000,meters,jsons/v1_VE1000_randls_45_rotated.json,1781045,2443092,65,Man
144,880387,DepthScenes,duration_manipulation_targetAtFixation,jsons/v1_VE1000_randls_45_rotated.json,http://54.235.29.9/FacialAge/BNav_EC2/DepthDuration/v2_depth_duration_MTurk/v2_DepthDuration_HTML.html#94,94,1366,768,1366,768,8-22-2022,7-59-44,145,depth_duration_stimuli/000773_2014-06-08_22-24-54_260595134347_rgbf000093-resize_1/000773_2014-06-08_22-24-54_260595134347_rgbf000093-resize_1-target.png,1000,4.973,5,5145,1000,meters,jsons/v1_VE1000_randls_45_rotated.json,1781045,2443092,65,Man
145,880387,DepthScenes,duration_manipulation_targetAtFixation,jsons/v1_VE1000_randls_45_rotated.json,http://54.235.29.9/FacialAge/BNav_EC2/DepthDuration/v2_depth_duration_MTurk/v2_DepthDuration_HTML.html#94,94,1366,768,1366,768,8-22-2022,7-59-44,146,depth_duration_stimuli/000709_2014-06-08_13-51-55_260595134347_rgbf000068-resize_3/000709_2014-06-08_13-51-55_260595134347_rgbf000068-resize_3-target.png,1000,1.8030000000000002,5,9578,1000,meters,jsons/v1_VE1000_randls_45_rotated.json,1781045,2443092,65,Man
146,880387,DepthScenes,duration_manipulation_targetAtFixation,jsons/v1_VE1000_randls_45_rotated.json,http://54.235.29.9/FacialAge/BNav_EC2/DepthDuration/v2_depth_duration_MTurk/v2_DepthDuration_HTML.html#94,94,1366,768,1366,768,8-22-2022,7-59-44,147,depth_duration_stimuli/002057_2014-06-24_21-00-13_260595134347_rgbf000120-resize_1/002057_2014-06-24_21-00-13_260595134347_rgbf000120-resize_1-target.png,1000,2.967,5,4746,999,meters,jsons/v1_VE1000_randls_45_rotated.json,1781045,2443092,65,Man
147,880387,DepthScenes,duration_manipulation_targetAtFixation,jsons/v1_VE1000_randls_45_rotated.json,http://54.235.29.9/FacialAge/BNav_EC2/DepthDuration/v2_depth_duration_MTurk/v2_DepthDuration_HTML.html#94,94,1366,768,1366,768,8-22-2022,7-59-44,148,depth_duration_stimuli/002467_2014-06-28_20-38-07_260595134347_rgbf000026-resize_2/002467_2014-06-28_20-38-07_260595134347_rgbf000026-resize_2-target.png,1000,4.742,5,10867,1000,meters,jsons/v1_VE1000_randls_45_rotated.json,1781045,2443092,65,Man
148,880387,DepthScenes,duration_manipulation_targetAtFixation,jsons/v1_VE1000_randls_45_rotated.json,http://54.235.29.9/FacialAge/BNav_EC2/DepthDuration/v2_depth_duration_MTurk/v2_DepthDuration_HTML.html#94,94,1366,768,1366,768,8-22-2022,7-59-44,149,depth_duration_stimuli/002570_2014-06-24_13-59-54_094959634447_rgbf000059-resize_0/002570_2014-06-24_13-59-54_094959634447_rgbf000059-resize_0-target.png,1000,4.037,5,3849,1000,meters,jsons/v1_VE1000_randls_45_rotated.json,1781045,2443092,65,Man
149,880387,DepthScenes,duration_manipulation_targetAtFixation,jsons/v1_VE1000_randls_45_rotated.json,http://54.235.29.9/FacialAge/BNav_EC2/DepthDuration/v2_depth_duration_MTurk/v2_DepthDuration_HTML.html#94,94,1366,768,1366,768,8-22-2022,7-59-44,150,depth_duration_stimuli/002639_2014-06-24_14-51-37_094959634447_rgbf000074-resize_4/002639_2014-06-24_14-51-37_094959634447_rgbf000074-resize_4-target.png,1000,4.0375,5,10118,1000,meters,jsons/v1_VE1000_randls_45_rotated.json,1781045,2443092,65,Man
150,880387,DepthScenes,duration_manipulation_targetAtFixation,jsons/v1_VE1000_randls_45_rotated.json,http://54.235.29.9/FacialAge/BNav_EC2/DepthDuration/v2_depth_duration_MTurk/v2_DepthDuration_HTML.html#94,94,1366,768,1366,768,8-22-2022,7-59-44,151,depth_duration_stimuli/003292_2014-05-14_21-53-49_094959634447_rgbf000100-resize_2/003292_2014-05-14_21-53-49_094959634447_rgbf000100-resize_2-target.png,1000,3.4815,5,4466,1000,meters,jsons/v1_VE1000_randls_45_rotated.json,1781045,2443092,65,Man
151,880387,DepthScenes,duration_manipulation_targetAtFixation,jsons/v1_VE1000_randls_45_rotated.json,http://54.235.29.9/FacialAge/BNav_EC2/DepthDuration/v2_depth_duration_MTurk/v2_DepthDuration_HTML.html#94,94,1366,768,1366,768,8-22-2022,7-59-44,152,depth_duration_stimuli/000569_2014-06-09_22-51-47_260595134347_rgbf000141-resize_3/000569_2014-06-09_22-51-47_260595134347_rgbf000141-resize-original.jpg,1000,4.512,0,12665,999,meters,jsons/v1_VE1000_randls_45_rotated.json,1781045,2443092,65,Man
152,880387,DepthScenes,duration_manipulation_targetAtFixation,jsons/v1_VE1000_randls_45_rotated.json,http://54.235.29.9/FacialAge/BNav_EC2/DepthDuration/v2_depth_duration_MTurk/v2_DepthDuration_HTML.html#94,94,1366,768,1366,768,8-22-2022,7-59-44,153,depth_duration_stimuli/002425_2014-06-28_20-27-29_260595134347_rgbf000031-resize_8/002425_2014-06-28_20-27-29_260595134347_rgbf000031-resize_8-target.png,1000,3.8960000000000004,5,13094,999,meters,jsons/v1_VE1000_randls_45_rotated.json,1781045,2443092,65,Man
153,880387,DepthScenes,duration_manipulation_targetAtFixation,jsons/v1_VE1000_randls_45_rotated.json,http://54.235.29.9/FacialAge/BNav_EC2/DepthDuration/v2_depth_duration_MTurk/v2_DepthDuration_HTML.html#94,94,1366,768,1366,768,8-22-2022,7-59-44,154,depth_duration_stimuli/000642_2014-06-08_16-59-25_260595134347_rgbf000098-resize_2/000642_2014-06-08_16-59-25_260595134347_rgbf000098-resize_2-target.png,1000,2.8815,5,3953,999,meters,jsons/v1_VE1000_randls_45_rotated.json,1781045,2443092,65,Man
154,880387,DepthScenes,duration_manipulation_targetAtFixation,jsons/v1_VE1000_randls_45_rotated.json,http://54.235.29.9/FacialAge/BNav_EC2/DepthDuration/v2_depth_duration_MTurk/v2_DepthDuration_HTML.html#94,94,1366,768,1366,768,8-22-2022,7-59-44,155,depth_duration_stimuli/001450_2014-06-19_17-02-03_260595134347_rgbf000203-resize_4/001450_2014-06-19_17-02-03_260595134347_rgbf000203-resize_4-target.png,1000,4.0106666666667,5,12715,1000,meters,jsons/v1_VE1000_randls_45_rotated.json,1781045,2443092,65,Man
155,880387,DepthScenes,duration_manipulation_targetAtFixation,jsons/v1_VE1000_randls_45_rotated.json,http://54.235.29.9/FacialAge/BNav_EC2/DepthDuration/v2_depth_duration_MTurk/v2_DepthDuration_HTML.html#94,94,1366,768,1366,768,8-22-2022,7-59-44,156,depth_duration_stimuli/001449_2014-06-19_17-01-27_260595134347_rgbf000116-resize_2/001449_2014-06-19_17-01-27_260595134347_rgbf000116-resize_2-target.png,1000,3.452,5,3963,1002,meters,jsons/v1_VE1000_randls_45_rotated.json,1781045,2443092,65,Man
156,880387,DepthScenes,duration_manipulation_targetAtFixation,jsons/v1_VE1000_randls_45_rotated.json,http://54.235.29.9/FacialAge/BNav_EC2/DepthDuration/v2_depth_duration_MTurk/v2_DepthDuration_HTML.html#94,94,1366,768,1366,768,8-22-2022,7-59-44,157,depth_duration_stimuli/001815_2014-06-26_20-52-55_260595134347_rgbf000020-resize_0/001815_2014-06-26_20-52-55_260595134347_rgbf000020-resize_0-target.png,1000,3.3865,5,10274,1000,meters,jsons/v1_VE1000_randls_45_rotated.json,1781045,2443092,65,Man
157,880387,DepthScenes,duration_manipulation_targetAtFixation,jsons/v1_VE1000_randls_45_rotated.json,http://54.235.29.9/FacialAge/BNav_EC2/DepthDuration/v2_depth_duration_MTurk/v2_DepthDuration_HTML.html#94,94,1366,768,1366,768,8-22-2022,7-59-44,158,depth_duration_stimuli/001808_2014-06-26_20-50-58_260595134347_rgbf000029-resize_1/001808_2014-06-26_20-50-58_260595134347_rgbf000029-resize_1-target.png,1000,4.249,5,4359,999,meters,jsons/v1_VE1000_randls_45_rotated.json,1781045,2443092,65,Man
158,880387,DepthScenes,duration_manipulation_targetAtFixation,jsons/v1_VE1000_randls_45_rotated.json,http://54.235.29.9/FacialAge/BNav_EC2/DepthDuration/v2_depth_duration_MTurk/v2_DepthDuration_HTML.html#94,94,1366,768,1366,768,8-22-2022,7-59-44,159,depth_duration_stimuli/002805_2014-06-22_19-54-03_094959634447_rgbf000079-resize_1/002805_2014-06-22_19-54-03_094959634447_rgbf000079-resize_1-target.png,1000,3.1439999999999997,5,14422,1000,meters,jsons/v1_VE1000_randls_45_rotated.json,1781045,2443092,65,Man
159,880387,DepthScenes,duration_manipulation_targetAtFixation,jsons/v1_VE1000_randls_45_rotated.json,http://54.235.29.9/FacialAge/BNav_EC2/DepthDuration/v2_depth_duration_MTurk/v2_DepthDuration_HTML.html#94,94,1366,768,1366,768,8-22-2022,7-59-44,160,depth_duration_stimuli/000906_2014-06-08_13-35-43_260595134347_rgbf000155-resize_1/000906_2014-06-08_13-35-43_260595134347_rgbf000155-resize_1-target.png,1000,2.8489999999999998,5,4876,1000,meters,jsons/v1_VE1000_randls_45_rotated.json,1781045,2443092,65,Man
160,880387,DepthScenes,duration_manipulation_targetAtFixation,jsons/v1_VE1000_randls_45_rotated.json,http://54.235.29.9/FacialAge/BNav_EC2/DepthDuration/v2_depth_duration_MTurk/v2_DepthDuration_HTML.html#94,94,1366,768,1366,768,8-22-2022,7-59-44,161,depth_duration_stimuli/000927_2014-06-09_16-32-30_260595134347_rgbf000123-resize_3/000927_2014-06-09_16-32-30_260595134347_rgbf000123-resize_3-target.png,1000,2.6785,5,19961,1000,meters,jsons/v1_VE1000_randls_45_rotated.json,1781045,2443092,65,Man
161,880387,DepthScenes,duration_manipulation_targetAtFixation,jsons/v1_VE1000_randls_45_rotated.json,http://54.235.29.9/FacialAge/BNav_EC2/DepthDuration/v2_depth_duration_MTurk/v2_DepthDuration_HTML.html#94,94,1366,768,1366,768,8-22-2022,7-59-44,162,depth_duration_stimuli/001110_2014-06-15_17-25-28_260595134347_rgbf000150-resize_1/001110_2014-06-15_17-25-28_260595134347_rgbf000150-resize_1-target.png,1000,1.7115,5,3027,999,meters,jsons/v1_VE1000_randls_45_rotated.json,1781045,2443092,65,Man
162,880387,DepthScenes,duration_manipulation_targetAtFixation,jsons/v1_VE1000_randls_45_rotated.json,http://54.235.29.9/FacialAge/BNav_EC2/DepthDuration/v2_depth_duration_MTurk/v2_DepthDuration_HTML.html#94,94,1366,768,1366,768,8-22-2022,7-59-44,163,depth_duration_stimuli/000556_2014-06-09_22-42-56_260595134347_rgbf000214-resize_1/000556_2014-06-09_22-42-56_260595134347_rgbf000214-resize_1-target.png,1000,4.8415,5,20370,999,meters,jsons/v1_VE1000_randls_45_rotated.json,1781045,2443092,65,Man
163,880387,DepthScenes,duration_manipulation_targetAtFixation,jsons/v1_VE1000_randls_45_rotated.json,http://54.235.29.9/FacialAge/BNav_EC2/DepthDuration/v2_depth_duration_MTurk/v2_DepthDuration_HTML.html#94,94,1366,768,1366,768,8-22-2022,7-59-44,164,depth_duration_stimuli/001158_2014-06-17_15-32-16_260595134347_rgbf000138-resize_2/001158_2014-06-17_15-32-16_260595134347_rgbf000138-resize_2-target.png,1000,4.5315,5,5186,1000,meters,jsons/v1_VE1000_randls_45_rotated.json,1781045,2443092,65,Man
