,subjID,experimentName,versionName,sequenceName,url,selected_row,windowWidth,windowHeight,screenWidth,screenHeight,startDate,startTime,trial,stimulus,duration,actual_depth,depth_estimate,trial_RT,log_sceneDuration,unitSelection,seq_filepath,experimentTime,totalTime,age,gender
0,880565,DepthScenes,duration_manipulation_targetAtFixation,jsons/VE125_randls_55.json,http://54.235.29.9/FacialAge/BNav_EC2/DepthDuration/v2_depth_duration_MTurk/v2_DepthDuration_HTML.html#102,102,1366,768,1366,768,10-2-2022,1-51-24,1,depth_duration_stimuli/001167_2014-06-17_15-38-07_260595134347_rgbf000108-resize_0/001167_2014-06-17_15-38-07_260595134347_rgbf000108-resize_0-target.png,125,1.8505,6,8455,122,meters,jsons/VE125_randls_55.json,579304,882253,62,Man
1,880565,DepthScenes,duration_manipulation_targetAtFixation,jsons/VE125_randls_55.json,http://54.235.29.9/FacialAge/BNav_EC2/DepthDuration/v2_depth_duration_MTurk/v2_DepthDuration_HTML.html#102,102,1366,768,1366,768,10-2-2022,1-51-24,2,depth_duration_stimuli/003587_2014-05-23_16-48-02_094959634447_rgbf002384-resize_2/003587_2014-05-23_16-48-02_094959634447_rgbf002384-resize_2-target.png,125,1.357,6,3058,130,meters,jsons/VE125_randls_55.json,579304,882253,62,Man
2,880565,DepthScenes,duration_manipulation_targetAtFixation,jsons/VE125_randls_55.json,http://54.235.29.9/FacialAge/BNav_EC2/DepthDuration/v2_depth_duration_MTurk/v2_DepthDuration_HTML.html#102,102,1366,768,1366,768,10-2-2022,1-51-24,3,depth_duration_stimuli/000447_2014-06-08_16-15-46_260595134347_rgbf000130-resize_1/000447_2014-06-08_16-15-46_260595134347_rgbf000130-resize_1-target.png,125,4.479,7,2361,136,meters,jsons/VE125_randls_55.json,579304,882253,62,Man
3,880565,DepthScenes,duration_manipulation_targetAtFixation,jsons/VE125_randls_55.json,http://54.235.29.9/FacialAge/BNav_EC2/DepthDuration/v2_depth_duration_MTurk/v2_DepthDuration_HTML.html#102,102,1366,768,1366,768,10-2-2022,1-51-24,4,depth_duration_stimuli/001447_2014-06-19_17-00-32_260595134347_rgbf000082-resize_5/001447_2014-06-19_17-00-32_260595134347_rgbf000082-resize_5-target.png,125,4.13775,6,2107,109,meters,jsons/VE125_randls_55.json,579304,882253,62,Man
4,880565,DepthScenes,duration_manipulation_targetAtFixation,jsons/VE125_randls_55.json,http://54.235.29.9/FacialAge/BNav_EC2/DepthDuration/v2_depth_duration_MTurk/v2_DepthDuration_HTML.html#102,102,1366,768,1366,768,10-2-2022,1-51-24,5,depth_duration_stimuli/002375_2014-06-28_20-13-44_260595134347_rgbf000032-resize_1/002375_2014-06-28_20-13-44_260595134347_rgbf000032-resize_1-target.png,125,4.0175,6,7651,126,meters,jsons/VE125_randls_55.json,579304,882253,62,Man
5,880565,DepthScenes,duration_manipulation_targetAtFixation,jsons/VE125_randls_55.json,http://54.235.29.9/FacialAge/BNav_EC2/DepthDuration/v2_depth_duration_MTurk/v2_DepthDuration_HTML.html#102,102,1366,768,1366,768,10-2-2022,1-51-24,6,depth_duration_stimuli/002657_2014-06-13_15-29-54_094959634447_rgbf000150-resize_1/002657_2014-06-13_15-29-54_094959634447_rgbf000150-resize_1-target.png,125,4.919,7,3445,112,meters,jsons/VE125_randls_55.json,579304,882253,62,Man
6,880565,DepthScenes,duration_manipulation_targetAtFixation,jsons/VE125_randls_55.json,http://54.235.29.9/FacialAge/BNav_EC2/DepthDuration/v2_depth_duration_MTurk/v2_DepthDuration_HTML.html#102,102,1366,768,1366,768,10-2-2022,1-51-24,7,depth_duration_stimuli/002630_2014-06-24_14-47-50_094959634447_rgbf000055-resize_1/002630_2014-06-24_14-47-50_094959634447_rgbf000055-resize_1-target.png,125,3.0095,6,3599,113,meters,jsons/VE125_randls_55.json,579304,882253,62,Man
7,880565,DepthScenes,duration_manipulation_targetAtFixation,jsons/VE125_randls_55.json,http://54.235.29.9/FacialAge/BNav_EC2/DepthDuration/v2_depth_duration_MTurk/v2_DepthDuration_HTML.html#102,102,1366,768,1366,768,10-2-2022,1-51-24,8,depth_duration_stimuli/002758_2014-06-22_19-11-20_094959634447_rgbf000128-resize_1/002758_2014-06-22_19-11-20_094959634447_rgbf000128-resize_1-target.png,125,2.555,7,3354,110,meters,jsons/VE125_randls_55.json,579304,882253,62,Man
8,880565,DepthScenes,duration_manipulation_targetAtFixation,jsons/VE125_randls_55.json,http://54.235.29.9/FacialAge/BNav_EC2/DepthDuration/v2_depth_duration_MTurk/v2_DepthDuration_HTML.html#102,102,1366,768,1366,768,10-2-2022,1-51-24,9,depth_duration_stimuli/000810_2014-06-08_17-20-01_260595134347_rgbf000105-resize_0/000810_2014-06-08_17-20-01_260595134347_rgbf000105-resize_0-target.png,125,1.4865,6,8693,126,meters,jsons/VE125_randls_55.json,579304,882253,62,Man
9,880565,DepthScenes,duration_manipulation_targetAtFixation,jsons/VE125_randls_55.json,http://54.235.29.9/FacialAge/BNav_EC2/DepthDuration/v2_depth_duration_MTurk/v2_DepthDuration_HTML.html#102,102,1366,768,1366,768,10-2-2022,1-51-24,10,depth_duration_stimuli/001214_2014-06-17_16-13-55_260595134347_rgbf000111-resize_0/001214_2014-06-17_16-13-55_260595134347_rgbf000111-resize_0-target.png,125,2.6505,6,5049,121,meters,jsons/VE125_randls_55.json,579304,882253,62,Man
10,880565,DepthScenes,duration_manipulation_targetAtFixation,jsons/VE125_randls_55.json,http://54.235.29.9/FacialAge/BNav_EC2/DepthDuration/v2_depth_duration_MTurk/v2_DepthDuration_HTML.html#102,102,1366,768,1366,768,10-2-2022,1-51-24,11,depth_duration_stimuli/003534_2014-05-22_15-06-10_094959634447_rgbf000102-resize_4/003534_2014-05-22_15-06-10_094959634447_rgbf000102-resize_4-target.png,125,1.426,7,5165,128,meters,jsons/VE125_randls_55.json,579304,882253,62,Man
11,880565,DepthScenes,duration_manipulation_targetAtFixation,jsons/VE125_randls_55.json,http://54.235.29.9/FacialAge/BNav_EC2/DepthDuration/v2_depth_duration_MTurk/v2_DepthDuration_HTML.html#102,102,1366,768,1366,768,10-2-2022,1-51-24,12,depth_duration_stimuli/002637_2014-06-24_14-51-13_094959634447_rgbf000066-resize_4/002637_2014-06-24_14-51-13_094959634447_rgbf000066-resize_4-target.png,125,1.9955,7,3752,127,meters,jsons/VE125_randls_55.json,579304,882253,62,Man
12,880565,DepthScenes,duration_manipulation_targetAtFixation,jsons/VE125_randls_55.json,http://54.235.29.9/FacialAge/BNav_EC2/DepthDuration/v2_depth_duration_MTurk/v2_DepthDuration_HTML.html#102,102,1366,768,1366,768,10-2-2022,1-51-24,13,depth_duration_stimuli/000569_2014-06-09_22-51-47_260595134347_rgbf000141-resize_3/000569_2014-06-09_22-51-47_260595134347_rgbf000141-resize-original.jpg,125,4.512,6,3466,125,meters,jsons/VE125_randls_55.json,579304,882253,62,Man
13,880565,DepthScenes,duration_manipulation_targetAtFixation,jsons/VE125_randls_55.json,http://54.235.29.9/FacialAge/BNav_EC2/DepthDuration/v2_depth_duration_MTurk/v2_DepthDuration_HTML.html#102,102,1366,768,1366,768,10-2-2022,1-51-24,14,depth_duration_stimuli/000436_2014-06-09_22-25-11_260595134347_rgbf000137-resize_1/000436_2014-06-09_22-25-11_260595134347_rgbf000137-resize_1-target.png,125,4.0705,7,5686,112,meters,jsons/VE125_randls_55.json,579304,882253,62,Man
14,880565,DepthScenes,duration_manipulation_targetAtFixation,jsons/VE125_randls_55.json,http://54.235.29.9/FacialAge/BNav_EC2/DepthDuration/v2_depth_duration_MTurk/v2_DepthDuration_HTML.html#102,102,1366,768,1366,768,10-2-2022,1-51-24,15,depth_duration_stimuli/002444_2014-06-28_20-32-08_260595134347_rgbf000027-resize_0/002444_2014-06-28_20-32-08_260595134347_rgbf000027-resize_0-target.png,125,4.388999999999999,6,5253,126,meters,jsons/VE125_randls_55.json,579304,882253,62,Man
15,880565,DepthScenes,duration_manipulation_targetAtFixation,jsons/VE125_randls_55.json,http://54.235.29.9/FacialAge/BNav_EC2/DepthDuration/v2_depth_duration_MTurk/v2_DepthDuration_HTML.html#102,102,1366,768,1366,768,10-2-2022,1-51-24,16,depth_duration_stimuli/002600_2014-06-24_14-27-04_094959634447_rgbf000074-resize_2/002600_2014-06-24_14-27-04_094959634447_rgbf000074-resize_2-target.png,125,2.7575,6,9743,127,meters,jsons/VE125_randls_55.json,579304,882253,62,Man
16,880565,DepthScenes,duration_manipulation_targetAtFixation,jsons/VE125_randls_55.json,http://54.235.29.9/FacialAge/BNav_EC2/DepthDuration/v2_depth_duration_MTurk/v2_DepthDuration_HTML.html#102,102,1366,768,1366,768,10-2-2022,1-51-24,17,depth_duration_stimuli/003228_2014-05-14_13-42-35_094959634447_rgbf000101-resize_1/003228_2014-05-14_13-42-35_094959634447_rgbf000101-resize_1-target.png,125,1.9680000000000002,5,3677,127,meters,jsons/VE125_randls_55.json,579304,882253,62,Man
17,880565,DepthScenes,duration_manipulation_targetAtFixation,jsons/VE125_randls_55.json,http://54.235.29.9/FacialAge/BNav_EC2/DepthDuration/v2_depth_duration_MTurk/v2_DepthDuration_HTML.html#102,102,1366,768,1366,768,10-2-2022,1-51-24,18,depth_duration_stimuli/000758_2014-06-08_22-05-08_260595134347_rgbf000085-resize_0/000758_2014-06-08_22-05-08_260595134347_rgbf000085-resize_0-target.png,125,3.3810000000000002,6,3165,126,meters,jsons/VE125_randls_55.json,579304,882253,62,Man
18,880565,DepthScenes,duration_manipulation_targetAtFixation,jsons/VE125_randls_55.json,http://54.235.29.9/FacialAge/BNav_EC2/DepthDuration/v2_depth_duration_MTurk/v2_DepthDuration_HTML.html#102,102,1366,768,1366,768,10-2-2022,1-51-24,19,depth_duration_stimuli/000854_2014-06-09_19-43-13_260595134347_rgbf000066-resize_0/000854_2014-06-09_19-43-13_260595134347_rgbf000066-resize_0-target.png,125,3.068,7,3579,120,meters,jsons/VE125_randls_55.json,579304,882253,62,Man
19,880565,DepthScenes,duration_manipulation_targetAtFixation,jsons/VE125_randls_55.json,http://54.235.29.9/FacialAge/BNav_EC2/DepthDuration/v2_depth_duration_MTurk/v2_DepthDuration_HTML.html#102,102,1366,768,1366,768,10-2-2022,1-51-24,20,depth_duration_stimuli/001199_2014-06-17_16-03-48_260595134347_rgbf000077-resize_0/001199_2014-06-17_16-03-48_260595134347_rgbf000077-resize_0-target.png,125,3.4375,6,6493,127,meters,jsons/VE125_randls_55.json,579304,882253,62,Man
20,880565,DepthScenes,duration_manipulation_targetAtFixation,jsons/VE125_randls_55.json,http://54.235.29.9/FacialAge/BNav_EC2/DepthDuration/v2_depth_duration_MTurk/v2_DepthDuration_HTML.html#102,102,1366,768,1366,768,10-2-2022,1-51-24,21,depth_duration_stimuli/000502_2014-06-08_23-02-32_260595134347_rgbf000063-resize_4/000502_2014-06-08_23-02-32_260595134347_rgbf000063-resize_4-target.png,125,2.431,0,5418,125,meters,jsons/VE125_randls_55.json,579304,882253,62,Man
21,880565,DepthScenes,duration_manipulation_targetAtFixation,jsons/VE125_randls_55.json,http://54.235.29.9/FacialAge/BNav_EC2/DepthDuration/v2_depth_duration_MTurk/v2_DepthDuration_HTML.html#102,102,1366,768,1366,768,10-2-2022,1-51-24,22,depth_duration_stimuli/000692_2014-06-08_13-09-42_260595134347_rgbf000199-resize_2/000692_2014-06-08_13-09-42_260595134347_rgbf000199-resize_2-target.png,125,3.661,6,3249,125,meters,jsons/VE125_randls_55.json,579304,882253,62,Man
22,880565,DepthScenes,duration_manipulation_targetAtFixation,jsons/VE125_randls_55.json,http://54.235.29.9/FacialAge/BNav_EC2/DepthDuration/v2_depth_duration_MTurk/v2_DepthDuration_HTML.html#102,102,1366,768,1366,768,10-2-2022,1-51-24,23,depth_duration_stimuli/001094_2014-06-15_17-36-00_260595134347_rgbf000205-resize_0/001094_2014-06-15_17-36-00_260595134347_rgbf000205-resize_0-target.png,125,4.2175,6,6692,112,meters,jsons/VE125_randls_55.json,579304,882253,62,Man
23,880565,DepthScenes,duration_manipulation_targetAtFixation,jsons/VE125_randls_55.json,http://54.235.29.9/FacialAge/BNav_EC2/DepthDuration/v2_depth_duration_MTurk/v2_DepthDuration_HTML.html#102,102,1366,768,1366,768,10-2-2022,1-51-24,24,depth_duration_stimuli/000917_2014-06-09_22-45-29_260595134347_rgbf000149-resize_3/000917_2014-06-09_22-45-29_260595134347_rgbf000149-resize_3-target.png,125,4.1865,7,3281,136,meters,jsons/VE125_randls_55.json,579304,882253,62,Man
24,880565,DepthScenes,duration_manipulation_targetAtFixation,jsons/VE125_randls_55.json,http://54.235.29.9/FacialAge/BNav_EC2/DepthDuration/v2_depth_duration_MTurk/v2_DepthDuration_HTML.html#102,102,1366,768,1366,768,10-2-2022,1-51-24,25,depth_duration_stimuli/002323_2014-06-28_20-01-54_260595134347_rgbf000051-resize_4/002323_2014-06-28_20-01-54_260595134347_rgbf000051-resize_4-target.png,125,3.7310000000000003,6,3564,136,meters,jsons/VE125_randls_55.json,579304,882253,62,Man
25,880565,DepthScenes,duration_manipulation_targetAtFixation,jsons/VE125_randls_55.json,http://54.235.29.9/FacialAge/BNav_EC2/DepthDuration/v2_depth_duration_MTurk/v2_DepthDuration_HTML.html#102,102,1366,768,1366,768,10-2-2022,1-51-24,26,depth_duration_stimuli/002509_2014-06-24_13-19-22_094959634447_rgbf000077-resize_0/002509_2014-06-24_13-19-22_094959634447_rgbf000077-resize_0-target.png,125,1.3065,6,5073,126,meters,jsons/VE125_randls_55.json,579304,882253,62,Man
26,880565,DepthScenes,duration_manipulation_targetAtFixation,jsons/VE125_randls_55.json,http://54.235.29.9/FacialAge/BNav_EC2/DepthDuration/v2_depth_duration_MTurk/v2_DepthDuration_HTML.html#102,102,1366,768,1366,768,10-2-2022,1-51-24,27,depth_duration_stimuli/003338_2014-05-20_11-01-23_094959634447_rgbf000051-resize_6/003338_2014-05-20_11-01-23_094959634447_rgbf000051-resize_6-target.png,125,1.693,6,3244,124,meters,jsons/VE125_randls_55.json,579304,882253,62,Man
27,880565,DepthScenes,duration_manipulation_targetAtFixation,jsons/VE125_randls_55.json,http://54.235.29.9/FacialAge/BNav_EC2/DepthDuration/v2_depth_duration_MTurk/v2_DepthDuration_HTML.html#102,102,1366,768,1366,768,10-2-2022,1-51-24,28,depth_duration_stimuli/002057_2014-06-24_21-00-13_260595134347_rgbf000120-resize_1/002057_2014-06-24_21-00-13_260595134347_rgbf000120-resize_1-target.png,125,2.967,5,3908,111,meters,jsons/VE125_randls_55.json,579304,882253,62,Man
28,880565,DepthScenes,duration_manipulation_targetAtFixation,jsons/VE125_randls_55.json,http://54.235.29.9/FacialAge/BNav_EC2/DepthDuration/v2_depth_duration_MTurk/v2_DepthDuration_HTML.html#102,102,1366,768,1366,768,10-2-2022,1-51-24,29,depth_duration_stimuli/000709_2014-06-08_13-51-55_260595134347_rgbf000068-resize_3/000709_2014-06-08_13-51-55_260595134347_rgbf000068-resize_3-target.png,125,1.8030000000000002,7,3346,125,meters,jsons/VE125_randls_55.json,579304,882253,62,Man
29,880565,DepthScenes,duration_manipulation_targetAtFixation,jsons/VE125_randls_55.json,http://54.235.29.9/FacialAge/BNav_EC2/DepthDuration/v2_depth_duration_MTurk/v2_DepthDuration_HTML.html#102,102,1366,768,1366,768,10-2-2022,1-51-24,30,depth_duration_stimuli/000375_2014-06-08_11-17-29_260595134347_rgbf000133-resize_2/000375_2014-06-08_11-17-29_260595134347_rgbf000133-resize-original.jpg,125,4.718,6,3322,124,meters,jsons/VE125_randls_55.json,579304,882253,62,Man
30,880565,DepthScenes,duration_manipulation_targetAtFixation,jsons/VE125_randls_55.json,http://54.235.29.9/FacialAge/BNav_EC2/DepthDuration/v2_depth_duration_MTurk/v2_DepthDuration_HTML.html#102,102,1366,768,1366,768,10-2-2022,1-51-24,31,depth_duration_stimuli/000682_2014-06-08_23-14-58_260595134347_rgbf000041-resize_5/000682_2014-06-08_23-14-58_260595134347_rgbf000041-resize_5-target.png,125,2.7239999999999998,5,3353,115,meters,jsons/VE125_randls_55.json,579304,882253,62,Man
31,880565,DepthScenes,duration_manipulation_targetAtFixation,jsons/VE125_randls_55.json,http://54.235.29.9/FacialAge/BNav_EC2/DepthDuration/v2_depth_duration_MTurk/v2_DepthDuration_HTML.html#102,102,1366,768,1366,768,10-2-2022,1-51-24,32,depth_duration_stimuli/001650_2014-06-20_12-09-00_260595134347_rgbf000087-resize_3/001650_2014-06-20_12-09-00_260595134347_rgbf000087-resize_3-target.png,125,1.9505,6,4270,127,meters,jsons/VE125_randls_55.json,579304,882253,62,Man
32,880565,DepthScenes,duration_manipulation_targetAtFixation,jsons/VE125_randls_55.json,http://54.235.29.9/FacialAge/BNav_EC2/DepthDuration/v2_depth_duration_MTurk/v2_DepthDuration_HTML.html#102,102,1366,768,1366,768,10-2-2022,1-51-24,33,depth_duration_stimuli/001164_2014-06-17_15-35-46_260595134347_rgbf000085-resize_3/001164_2014-06-17_15-35-46_260595134347_rgbf000085-resize_3-target.png,125,2.354,7,3562,132,meters,jsons/VE125_randls_55.json,579304,882253,62,Man
33,880565,DepthScenes,duration_manipulation_targetAtFixation,jsons/VE125_randls_55.json,http://54.235.29.9/FacialAge/BNav_EC2/DepthDuration/v2_depth_duration_MTurk/v2_DepthDuration_HTML.html#102,102,1366,768,1366,768,10-2-2022,1-51-24,34,depth_duration_stimuli/001136_2014-06-17_15-19-41_260595134347_rgbf000076-resize_3/001136_2014-06-17_15-19-41_260595134347_rgbf000076-resize_3-target.png,125,1.8655,6,3252,110,meters,jsons/VE125_randls_55.json,579304,882253,62,Man
34,880565,DepthScenes,duration_manipulation_targetAtFixation,jsons/VE125_randls_55.json,http://54.235.29.9/FacialAge/BNav_EC2/DepthDuration/v2_depth_duration_MTurk/v2_DepthDuration_HTML.html#102,102,1366,768,1366,768,10-2-2022,1-51-24,35,depth_duration_stimuli/001808_2014-06-26_20-50-58_260595134347_rgbf000029-resize_1/001808_2014-06-26_20-50-58_260595134347_rgbf000029-resize_1-target.png,125,4.249,6,3355,124,meters,jsons/VE125_randls_55.json,579304,882253,62,Man
35,880565,DepthScenes,duration_manipulation_targetAtFixation,jsons/VE125_randls_55.json,http://54.235.29.9/FacialAge/BNav_EC2/DepthDuration/v2_depth_duration_MTurk/v2_DepthDuration_HTML.html#102,102,1366,768,1366,768,10-2-2022,1-51-24,36,depth_duration_stimuli/001815_2014-06-26_20-52-55_260595134347_rgbf000020-resize_0/001815_2014-06-26_20-52-55_260595134347_rgbf000020-resize_0-target.png,125,3.3865,7,3508,127,meters,jsons/VE125_randls_55.json,579304,882253,62,Man
36,880565,DepthScenes,duration_manipulation_targetAtFixation,jsons/VE125_randls_55.json,http://54.235.29.9/FacialAge/BNav_EC2/DepthDuration/v2_depth_duration_MTurk/v2_DepthDuration_HTML.html#102,102,1366,768,1366,768,10-2-2022,1-51-24,37,depth_duration_stimuli/001570_2014-06-20_17-21-09_260595134347_rgbf000135-resize_4/001570_2014-06-20_17-21-09_260595134347_rgbf000135-resize_4-target.png,125,4.467,6,3543,113,meters,jsons/VE125_randls_55.json,579304,882253,62,Man
37,880565,DepthScenes,duration_manipulation_targetAtFixation,jsons/VE125_randls_55.json,http://54.235.29.9/FacialAge/BNav_EC2/DepthDuration/v2_depth_duration_MTurk/v2_DepthDuration_HTML.html#102,102,1366,768,1366,768,10-2-2022,1-51-24,38,depth_duration_stimuli/001392_2014-06-19_16-07-59_260595134347_rgbf000046-resize_1/001392_2014-06-19_16-07-59_260595134347_rgbf000046-resize_1-target.png,125,4.135,0,3296,126,meters,jsons/VE125_randls_55.json,579304,882253,62,Man
38,880565,DepthScenes,duration_manipulation_targetAtFixation,jsons/VE125_randls_55.json,http://54.235.29.9/FacialAge/BNav_EC2/DepthDuration/v2_depth_duration_MTurk/v2_DepthDuration_HTML.html#102,102,1366,768,1366,768,10-2-2022,1-51-24,39,depth_duration_stimuli/001016_2014-06-09_16-16-10_260595134347_rgbf000112-resize_5/001016_2014-06-09_16-16-10_260595134347_rgbf000112-resize_5-target.png,125,1.6565,6,3386,129,meters,jsons/VE125_randls_55.json,579304,882253,62,Man
39,880565,DepthScenes,duration_manipulation_targetAtFixation,jsons/VE125_randls_55.json,http://54.235.29.9/FacialAge/BNav_EC2/DepthDuration/v2_depth_duration_MTurk/v2_DepthDuration_HTML.html#102,102,1366,768,1366,768,10-2-2022,1-51-24,40,depth_duration_stimuli/002340_2014-06-28_20-05-46_260595134347_rgbf000113-resize_0/002340_2014-06-28_20-05-46_260595134347_rgbf000113-resize_0-target.png,125,2.4735,7,3786,124,meters,jsons/VE125_randls_55.json,579304,882253,62,Man
40,880565,DepthScenes,duration_manipulation_targetAtFixation,jsons/VE125_randls_55.json,http://54.235.29.9/FacialAge/BNav_EC2/DepthDuration/v2_depth_duration_MTurk/v2_DepthDuration_HTML.html#102,102,1366,768,1366,768,10-2-2022,1-51-24,41,depth_duration_stimuli/002043_2014-06-24_20-29-38_260595134347_rgbf000039-resize_4/002043_2014-06-24_20-29-38_260595134347_rgbf000039-resize_4-target.png,125,2.8435,6,3451,125,meters,jsons/VE125_randls_55.json,579304,882253,62,Man
41,880565,DepthScenes,duration_manipulation_targetAtFixation,jsons/VE125_randls_55.json,http://54.235.29.9/FacialAge/BNav_EC2/DepthDuration/v2_depth_duration_MTurk/v2_DepthDuration_HTML.html#102,102,1366,768,1366,768,10-2-2022,1-51-24,42,depth_duration_stimuli/003048_2014-06-15_13-49-43_094959634447_rgbf000150-resize_1/003048_2014-06-15_13-49-43_094959634447_rgbf000150-resize_1-target.png,125,4.0035,8,3402,137,meters,jsons/VE125_randls_55.json,579304,882253,62,Man
42,880565,DepthScenes,duration_manipulation_targetAtFixation,jsons/VE125_randls_55.json,http://54.235.29.9/FacialAge/BNav_EC2/DepthDuration/v2_depth_duration_MTurk/v2_DepthDuration_HTML.html#102,102,1366,768,1366,768,10-2-2022,1-51-24,43,depth_duration_stimuli/000414_2014-06-04_19-49-13_260595134347_rgbf000044-resize_0/000414_2014-06-04_19-49-13_260595134347_rgbf000044-resize_0-target.png,125,4.329,7,3994,130,meters,jsons/VE125_randls_55.json,579304,882253,62,Man
43,880565,DepthScenes,duration_manipulation_targetAtFixation,jsons/VE125_randls_55.json,http://54.235.29.9/FacialAge/BNav_EC2/DepthDuration/v2_depth_duration_MTurk/v2_DepthDuration_HTML.html#102,102,1366,768,1366,768,10-2-2022,1-51-24,44,depth_duration_stimuli/003129_2014-05-12_10-48-10_094959634447_rgbf000100-resize_0/003129_2014-05-12_10-48-10_094959634447_rgbf000100-resize_0-target.png,125,4.9305,8,3828,126,meters,jsons/VE125_randls_55.json,579304,882253,62,Man
44,880565,DepthScenes,duration_manipulation_targetAtFixation,jsons/VE125_randls_55.json,http://54.235.29.9/FacialAge/BNav_EC2/DepthDuration/v2_depth_duration_MTurk/v2_DepthDuration_HTML.html#102,102,1366,768,1366,768,10-2-2022,1-51-24,45,depth_duration_stimuli/000787_2014-06-08_22-33-53_260595134347_rgbf000175-resize_1/000787_2014-06-08_22-33-53_260595134347_rgbf000175-resize-original.jpg,125,4.784,7,3459,118,meters,jsons/VE125_randls_55.json,579304,882253,62,Man
45,880565,DepthScenes,duration_manipulation_targetAtFixation,jsons/VE125_randls_55.json,http://54.235.29.9/FacialAge/BNav_EC2/DepthDuration/v2_depth_duration_MTurk/v2_DepthDuration_HTML.html#102,102,1366,768,1366,768,10-2-2022,1-51-24,46,depth_duration_stimuli/002663_2014-06-13_15-50-26_094959634447_rgbf000075-resize_1/002663_2014-06-13_15-50-26_094959634447_rgbf000075-resize_1-target.png,125,4.7495,7,3300,132,meters,jsons/VE125_randls_55.json,579304,882253,62,Man
46,880565,DepthScenes,duration_manipulation_targetAtFixation,jsons/VE125_randls_55.json,http://54.235.29.9/FacialAge/BNav_EC2/DepthDuration/v2_depth_duration_MTurk/v2_DepthDuration_HTML.html#102,102,1366,768,1366,768,10-2-2022,1-51-24,47,depth_duration_stimuli/000409_2014-06-04_19-23-33_260595134347_rgbf000067-resize_0/000409_2014-06-04_19-23-33_260595134347_rgbf000067-resize_0-target.png,125,3.7335,8,3253,126,meters,jsons/VE125_randls_55.json,579304,882253,62,Man
47,880565,DepthScenes,duration_manipulation_targetAtFixation,jsons/VE125_randls_55.json,http://54.235.29.9/FacialAge/BNav_EC2/DepthDuration/v2_depth_duration_MTurk/v2_DepthDuration_HTML.html#102,102,1366,768,1366,768,10-2-2022,1-51-24,48,depth_duration_stimuli/001133_2014-06-17_14-49-16_260595134347_rgbf000100-resize_0/001133_2014-06-17_14-49-16_260595134347_rgbf000100-resize_0-target.png,125,4.2115,7,3205,124,meters,jsons/VE125_randls_55.json,579304,882253,62,Man
48,880565,DepthScenes,duration_manipulation_targetAtFixation,jsons/VE125_randls_55.json,http://54.235.29.9/FacialAge/BNav_EC2/DepthDuration/v2_depth_duration_MTurk/v2_DepthDuration_HTML.html#102,102,1366,768,1366,768,10-2-2022,1-51-24,49,depth_duration_stimuli/001132_2014-06-17_14-48-54_260595134347_rgbf000100-resize_2/001132_2014-06-17_14-48-54_260595134347_rgbf000100-resize_2-target.png,125,3.753,6,3161,124,meters,jsons/VE125_randls_55.json,579304,882253,62,Man
49,880565,DepthScenes,duration_manipulation_targetAtFixation,jsons/VE125_randls_55.json,http://54.235.29.9/FacialAge/BNav_EC2/DepthDuration/v2_depth_duration_MTurk/v2_DepthDuration_HTML.html#102,102,1366,768,1366,768,10-2-2022,1-51-24,50,depth_duration_stimuli/001066_2014-06-08_22-03-20_260595134347_rgbf000066-resize_4/001066_2014-06-08_22-03-20_260595134347_rgbf000066-resize_4-target.png,125,4.2330000000000005,7,4515,125,meters,jsons/VE125_randls_55.json,579304,882253,62,Man
50,880565,DepthScenes,duration_manipulation_targetAtFixation,jsons/VE125_randls_55.json,http://54.235.29.9/FacialAge/BNav_EC2/DepthDuration/v2_depth_duration_MTurk/v2_DepthDuration_HTML.html#102,102,1366,768,1366,768,10-2-2022,1-51-24,51,depth_duration_stimuli/000742_2014-06-08_18-48-09_260595134347_rgbf000164-resize_4/000742_2014-06-08_18-48-09_260595134347_rgbf000164-resize_4-target.png,125,4.632,8,3455,126,meters,jsons/VE125_randls_55.json,579304,882253,62,Man
51,880565,DepthScenes,duration_manipulation_targetAtFixation,jsons/VE125_randls_55.json,http://54.235.29.9/FacialAge/BNav_EC2/DepthDuration/v2_depth_duration_MTurk/v2_DepthDuration_HTML.html#102,102,1366,768,1366,768,10-2-2022,1-51-24,52,depth_duration_stimuli/001417_2014-06-19_16-25-36_260595134347_rgbf000115-resize_5/001417_2014-06-19_16-25-36_260595134347_rgbf000115-resize_5-target.png,125,4.6255,8,3489,126,meters,jsons/VE125_randls_55.json,579304,882253,62,Man
52,880565,DepthScenes,duration_manipulation_targetAtFixation,jsons/VE125_randls_55.json,http://54.235.29.9/FacialAge/BNav_EC2/DepthDuration/v2_depth_duration_MTurk/v2_DepthDuration_HTML.html#102,102,1366,768,1366,768,10-2-2022,1-51-24,53,depth_duration_stimuli/003081_2014-06-15_15-19-16_094959634447_rgbf000150-resize_1/003081_2014-06-15_15-19-16_094959634447_rgbf000150-resize_1-target.png,125,3.9125,9,4043,124,meters,jsons/VE125_randls_55.json,579304,882253,62,Man
53,880565,DepthScenes,duration_manipulation_targetAtFixation,jsons/VE125_randls_55.json,http://54.235.29.9/FacialAge/BNav_EC2/DepthDuration/v2_depth_duration_MTurk/v2_DepthDuration_HTML.html#102,102,1366,768,1366,768,10-2-2022,1-51-24,54,depth_duration_stimuli/001055_2014-06-08_18-45-35_260595134347_rgbf000111-resize_4/001055_2014-06-08_18-45-35_260595134347_rgbf000111-resize_4-target.png,125,2.4290000000000003,8,3714,124,meters,jsons/VE125_randls_55.json,579304,882253,62,Man
54,880565,DepthScenes,duration_manipulation_targetAtFixation,jsons/VE125_randls_55.json,http://54.235.29.9/FacialAge/BNav_EC2/DepthDuration/v2_depth_duration_MTurk/v2_DepthDuration_HTML.html#102,102,1366,768,1366,768,10-2-2022,1-51-24,55,depth_duration_stimuli/000549_2014-06-08_22-10-24_260595134347_rgbf000247-resize_3/000549_2014-06-08_22-10-24_260595134347_rgbf000247-resize_3-target.png,125,1.841,6,4067,124,meters,jsons/VE125_randls_55.json,579304,882253,62,Man
55,880565,DepthScenes,duration_manipulation_targetAtFixation,jsons/VE125_randls_55.json,http://54.235.29.9/FacialAge/BNav_EC2/DepthDuration/v2_depth_duration_MTurk/v2_DepthDuration_HTML.html#102,102,1366,768,1366,768,10-2-2022,1-51-24,56,depth_duration_stimuli/002748_2014-06-22_19-07-22_094959634447_rgbf000078-resize_1/002748_2014-06-22_19-07-22_094959634447_rgbf000078-resize_1-target.png,125,4.6705,6,3405,111,meters,jsons/VE125_randls_55.json,579304,882253,62,Man
56,880565,DepthScenes,duration_manipulation_targetAtFixation,jsons/VE125_randls_55.json,http://54.235.29.9/FacialAge/BNav_EC2/DepthDuration/v2_depth_duration_MTurk/v2_DepthDuration_HTML.html#102,102,1366,768,1366,768,10-2-2022,1-51-24,57,depth_duration_stimuli/002995_2014-06-15_12-31-26_094959634447_rgbf000150-resize_1/002995_2014-06-15_12-31-26_094959634447_rgbf000150-resize_1-target.png,125,3.8360000000000003,7,1936,127,meters,jsons/VE125_randls_55.json,579304,882253,62,Man
57,880565,DepthScenes,duration_manipulation_targetAtFixation,jsons/VE125_randls_55.json,http://54.235.29.9/FacialAge/BNav_EC2/DepthDuration/v2_depth_duration_MTurk/v2_DepthDuration_HTML.html#102,102,1366,768,1366,768,10-2-2022,1-51-24,58,depth_duration_stimuli/003492_2014-05-21_15-50-55_094959634447_rgbf000828-resize_1/003492_2014-05-21_15-50-55_094959634447_rgbf000828-resize_1-target.png,125,4.06875,7,2358,134,meters,jsons/VE125_randls_55.json,579304,882253,62,Man
58,880565,DepthScenes,duration_manipulation_targetAtFixation,jsons/VE125_randls_55.json,http://54.235.29.9/FacialAge/BNav_EC2/DepthDuration/v2_depth_duration_MTurk/v2_DepthDuration_HTML.html#102,102,1366,768,1366,768,10-2-2022,1-51-24,59,depth_duration_stimuli/002568_2014-06-24_13-59-21_094959634447_rgbf000062-resize_4/002568_2014-06-24_13-59-21_094959634447_rgbf000062-resize_4-target.png,125,3.015,6,2003,112,meters,jsons/VE125_randls_55.json,579304,882253,62,Man
59,880565,DepthScenes,duration_manipulation_targetAtFixation,jsons/VE125_randls_55.json,http://54.235.29.9/FacialAge/BNav_EC2/DepthDuration/v2_depth_duration_MTurk/v2_DepthDuration_HTML.html#102,102,1366,768,1366,768,10-2-2022,1-51-24,60,depth_duration_stimuli/000486_2014-06-09_20-47-20_260595134347_rgbf000143-resize_2/000486_2014-06-09_20-47-20_260595134347_rgbf000143-resize_2-target.png,125,4.8325,7,2033,127,meters,jsons/VE125_randls_55.json,579304,882253,62,Man
60,880565,DepthScenes,duration_manipulation_targetAtFixation,jsons/VE125_randls_55.json,http://54.235.29.9/FacialAge/BNav_EC2/DepthDuration/v2_depth_duration_MTurk/v2_DepthDuration_HTML.html#102,102,1366,768,1366,768,10-2-2022,1-51-24,61,depth_duration_stimuli/003083_2014-06-15_15-21-03_094959634447_rgbf000063-resize_1/003083_2014-06-15_15-21-03_094959634447_rgbf000063-resize_1-target.png,125,4.1405,6,1890,136,meters,jsons/VE125_randls_55.json,579304,882253,62,Man
61,880565,DepthScenes,duration_manipulation_targetAtFixation,jsons/VE125_randls_55.json,http://54.235.29.9/FacialAge/BNav_EC2/DepthDuration/v2_depth_duration_MTurk/v2_DepthDuration_HTML.html#102,102,1366,768,1366,768,10-2-2022,1-51-24,62,depth_duration_stimuli/001555_2014-06-20_17-12-10_260595134347_rgbf000065-resize_4/001555_2014-06-20_17-12-10_260595134347_rgbf000065-resize_4-target.png,125,1.633,8,1784,118,meters,jsons/VE125_randls_55.json,579304,882253,62,Man
62,880565,DepthScenes,duration_manipulation_targetAtFixation,jsons/VE125_randls_55.json,http://54.235.29.9/FacialAge/BNav_EC2/DepthDuration/v2_depth_duration_MTurk/v2_DepthDuration_HTML.html#102,102,1366,768,1366,768,10-2-2022,1-51-24,63,depth_duration_stimuli/000103_2014-05-14_22-01-17_260595134347_rgbf000152-resize_5/000103_2014-05-14_22-01-17_260595134347_rgbf000152-resize_5-target.png,125,1.993,7,2067,123,meters,jsons/VE125_randls_55.json,579304,882253,62,Man
63,880565,DepthScenes,duration_manipulation_targetAtFixation,jsons/VE125_randls_55.json,http://54.235.29.9/FacialAge/BNav_EC2/DepthDuration/v2_depth_duration_MTurk/v2_DepthDuration_HTML.html#102,102,1366,768,1366,768,10-2-2022,1-51-24,64,depth_duration_stimuli/001175_2014-06-17_15-45-55_260595134347_rgbf000129-resize_4/001175_2014-06-17_15-45-55_260595134347_rgbf000129-resize_4-target.png,125,4.255,6,2137,129,meters,jsons/VE125_randls_55.json,579304,882253,62,Man
64,880565,DepthScenes,duration_manipulation_targetAtFixation,jsons/VE125_randls_55.json,http://54.235.29.9/FacialAge/BNav_EC2/DepthDuration/v2_depth_duration_MTurk/v2_DepthDuration_HTML.html#102,102,1366,768,1366,768,10-2-2022,1-51-24,65,depth_duration_stimuli/003490_2014-05-21_15-50-11_094959634447_rgbf000101-resize_3/003490_2014-05-21_15-50-11_094959634447_rgbf000101-resize_3-target.png,125,3.6445,7,1817,124,meters,jsons/VE125_randls_55.json,579304,882253,62,Man
65,880565,DepthScenes,duration_manipulation_targetAtFixation,jsons/VE125_randls_55.json,http://54.235.29.9/FacialAge/BNav_EC2/DepthDuration/v2_depth_duration_MTurk/v2_DepthDuration_HTML.html#102,102,1366,768,1366,768,10-2-2022,1-51-24,66,depth_duration_stimuli/001222_2014-06-17_16-24-06_260595134347_rgbf000073-resize_0/001222_2014-06-17_16-24-06_260595134347_rgbf000073-resize-original.jpg,125,1.4385,8,1806,125,meters,jsons/VE125_randls_55.json,579304,882253,62,Man
66,880565,DepthScenes,duration_manipulation_targetAtFixation,jsons/VE125_randls_55.json,http://54.235.29.9/FacialAge/BNav_EC2/DepthDuration/v2_depth_duration_MTurk/v2_DepthDuration_HTML.html#102,102,1366,768,1366,768,10-2-2022,1-51-24,67,depth_duration_stimuli/002445_2014-06-28_20-32-16_260595134347_rgbf000029-resize_4/002445_2014-06-28_20-32-16_260595134347_rgbf000029-resize_4-target.png,125,2.5315,7,1869,122,meters,jsons/VE125_randls_55.json,579304,882253,62,Man
67,880565,DepthScenes,duration_manipulation_targetAtFixation,jsons/VE125_randls_55.json,http://54.235.29.9/FacialAge/BNav_EC2/DepthDuration/v2_depth_duration_MTurk/v2_DepthDuration_HTML.html#102,102,1366,768,1366,768,10-2-2022,1-51-24,68,depth_duration_stimuli/000780_2014-06-08_22-28-29_260595134347_rgbf000126-resize_1/000780_2014-06-08_22-28-29_260595134347_rgbf000126-resize_1-target.png,125,3.3825,6,2690,124,meters,jsons/VE125_randls_55.json,579304,882253,62,Man
68,880565,DepthScenes,duration_manipulation_targetAtFixation,jsons/VE125_randls_55.json,http://54.235.29.9/FacialAge/BNav_EC2/DepthDuration/v2_depth_duration_MTurk/v2_DepthDuration_HTML.html#102,102,1366,768,1366,768,10-2-2022,1-51-24,69,depth_duration_stimuli/001244_2014-06-17_16-47-45_260595134347_rgbf000030-resize_4/001244_2014-06-17_16-47-45_260595134347_rgbf000030-resize_4-target.png,125,2.0425,7,2216,122,meters,jsons/VE125_randls_55.json,579304,882253,62,Man
69,880565,DepthScenes,duration_manipulation_targetAtFixation,jsons/VE125_randls_55.json,http://54.235.29.9/FacialAge/BNav_EC2/DepthDuration/v2_depth_duration_MTurk/v2_DepthDuration_HTML.html#102,102,1366,768,1366,768,10-2-2022,1-51-24,70,depth_duration_stimuli/003495_2014-05-21_16-01-51_094959634447_rgbf000100-resize_3/003495_2014-05-21_16-01-51_094959634447_rgbf000100-resize_3-target.png,125,1.6255,8,1958,113,meters,jsons/VE125_randls_55.json,579304,882253,62,Man
70,880565,DepthScenes,duration_manipulation_targetAtFixation,jsons/VE125_randls_55.json,http://54.235.29.9/FacialAge/BNav_EC2/DepthDuration/v2_depth_duration_MTurk/v2_DepthDuration_HTML.html#102,102,1366,768,1366,768,10-2-2022,1-51-24,71,depth_duration_stimuli/002272_2014-06-28_18-53-56_260595134347_rgbf000067-resize_2/002272_2014-06-28_18-53-56_260595134347_rgbf000067-resize_2-target.png,125,1.138,7,2035,124,meters,jsons/VE125_randls_55.json,579304,882253,62,Man
71,880565,DepthScenes,duration_manipulation_targetAtFixation,jsons/VE125_randls_55.json,http://54.235.29.9/FacialAge/BNav_EC2/DepthDuration/v2_depth_duration_MTurk/v2_DepthDuration_HTML.html#102,102,1366,768,1366,768,10-2-2022,1-51-24,72,depth_duration_stimuli/001571_2014-06-20_17-21-32_260595134347_rgbf000089-resize_1/001571_2014-06-20_17-21-32_260595134347_rgbf000089-resize_1-target.png,125,1.86,6,1841,123,meters,jsons/VE125_randls_55.json,579304,882253,62,Man
72,880565,DepthScenes,duration_manipulation_targetAtFixation,jsons/VE125_randls_55.json,http://54.235.29.9/FacialAge/BNav_EC2/DepthDuration/v2_depth_duration_MTurk/v2_DepthDuration_HTML.html#102,102,1366,768,1366,768,10-2-2022,1-51-24,73,depth_duration_stimuli/000493_2014-06-09_21-01-18_260595134347_rgbf000196-resize_3/000493_2014-06-09_21-01-18_260595134347_rgbf000196-resize_3-target.png,125,3.44,6,4513,127,meters,jsons/VE125_randls_55.json,579304,882253,62,Man
73,880565,DepthScenes,duration_manipulation_targetAtFixation,jsons/VE125_randls_55.json,http://54.235.29.9/FacialAge/BNav_EC2/DepthDuration/v2_depth_duration_MTurk/v2_DepthDuration_HTML.html#102,102,1366,768,1366,768,10-2-2022,1-51-24,74,depth_duration_stimuli/000191_2014-05-12_17-07-38_260595134347_rgbf000199-resize_0/000191_2014-05-12_17-07-38_260595134347_rgbf000199-resize_0-target.png,125,3.7995,7,2673,123,meters,jsons/VE125_randls_55.json,579304,882253,62,Man
74,880565,DepthScenes,duration_manipulation_targetAtFixation,jsons/VE125_randls_55.json,http://54.235.29.9/FacialAge/BNav_EC2/DepthDuration/v2_depth_duration_MTurk/v2_DepthDuration_HTML.html#102,102,1366,768,1366,768,10-2-2022,1-51-24,75,depth_duration_stimuli/002788_2014-06-22_19-36-03_094959634447_rgbf000088-resize_2/002788_2014-06-22_19-36-03_094959634447_rgbf000088-resize_2-target.png,125,1.6465,7,2353,126,meters,jsons/VE125_randls_55.json,579304,882253,62,Man
75,880565,DepthScenes,duration_manipulation_targetAtFixation,jsons/VE125_randls_55.json,http://54.235.29.9/FacialAge/BNav_EC2/DepthDuration/v2_depth_duration_MTurk/v2_DepthDuration_HTML.html#102,102,1366,768,1366,768,10-2-2022,1-51-24,76,depth_duration_stimuli/000749_2014-06-08_21-55-06_260595134347_rgbf000070-resize_2/000749_2014-06-08_21-55-06_260595134347_rgbf000070-resize_2-target.png,125,2.331,7,2272,125,meters,jsons/VE125_randls_55.json,579304,882253,62,Man
76,880565,DepthScenes,duration_manipulation_targetAtFixation,jsons/VE125_randls_55.json,http://54.235.29.9/FacialAge/BNav_EC2/DepthDuration/v2_depth_duration_MTurk/v2_DepthDuration_HTML.html#102,102,1366,768,1366,768,10-2-2022,1-51-24,77,depth_duration_stimuli/000009_2014-05-26_14-32-05_260595134347_rgbf000034-resize_3/000009_2014-05-26_14-32-05_260595134347_rgbf000034-resize_3-target.png,125,3.8715,8,2475,117,meters,jsons/VE125_randls_55.json,579304,882253,62,Man
77,880565,DepthScenes,duration_manipulation_targetAtFixation,jsons/VE125_randls_55.json,http://54.235.29.9/FacialAge/BNav_EC2/DepthDuration/v2_depth_duration_MTurk/v2_DepthDuration_HTML.html#102,102,1366,768,1366,768,10-2-2022,1-51-24,78,depth_duration_stimuli/001828_2014-06-26_21-40-03_260595134347_rgbf000024-resize_0/001828_2014-06-26_21-40-03_260595134347_rgbf000024-resize_0-target.png,125,4.8260000000000005,8,2073,123,meters,jsons/VE125_randls_55.json,579304,882253,62,Man
78,880565,DepthScenes,duration_manipulation_targetAtFixation,jsons/VE125_randls_55.json,http://54.235.29.9/FacialAge/BNav_EC2/DepthDuration/v2_depth_duration_MTurk/v2_DepthDuration_HTML.html#102,102,1366,768,1366,768,10-2-2022,1-51-24,79,depth_duration_stimuli/003292_2014-05-14_21-53-49_094959634447_rgbf000100-resize_2/003292_2014-05-14_21-53-49_094959634447_rgbf000100-resize_2-target.png,125,3.4815,5,4291,124,meters,jsons/VE125_randls_55.json,579304,882253,62,Man
79,880565,DepthScenes,duration_manipulation_targetAtFixation,jsons/VE125_randls_55.json,http://54.235.29.9/FacialAge/BNav_EC2/DepthDuration/v2_depth_duration_MTurk/v2_DepthDuration_HTML.html#102,102,1366,768,1366,768,10-2-2022,1-51-24,80,depth_duration_stimuli/002639_2014-06-24_14-51-37_094959634447_rgbf000074-resize_4/002639_2014-06-24_14-51-37_094959634447_rgbf000074-resize_4-target.png,125,4.0375,7,3849,126,meters,jsons/VE125_randls_55.json,579304,882253,62,Man
80,880565,DepthScenes,duration_manipulation_targetAtFixation,jsons/VE125_randls_55.json,http://54.235.29.9/FacialAge/BNav_EC2/DepthDuration/v2_depth_duration_MTurk/v2_DepthDuration_HTML.html#102,102,1366,768,1366,768,10-2-2022,1-51-24,81,depth_duration_stimuli/002964_2014-06-08_17-46-11_094959634447_rgbf000091-resize_4/002964_2014-06-08_17-46-11_094959634447_rgbf000091-resize_4-target.png,125,1.6909999999999998,5,2186,124,meters,jsons/VE125_randls_55.json,579304,882253,62,Man
81,880565,DepthScenes,duration_manipulation_targetAtFixation,jsons/VE125_randls_55.json,http://54.235.29.9/FacialAge/BNav_EC2/DepthDuration/v2_depth_duration_MTurk/v2_DepthDuration_HTML.html#102,102,1366,768,1366,768,10-2-2022,1-51-24,82,depth_duration_stimuli/002136_2014-06-25_21-18-03_260595134347_rgbf000109-resize_3/002136_2014-06-25_21-18-03_260595134347_rgbf000109-resize_3-target.png,125,1.9569999999999999,6,1978,125,meters,jsons/VE125_randls_55.json,579304,882253,62,Man
82,880565,DepthScenes,duration_manipulation_targetAtFixation,jsons/VE125_randls_55.json,http://54.235.29.9/FacialAge/BNav_EC2/DepthDuration/v2_depth_duration_MTurk/v2_DepthDuration_HTML.html#102,102,1366,768,1366,768,10-2-2022,1-51-24,83,depth_duration_stimuli/002549_2014-06-24_13-41-39_094959634447_rgbf000022-resize_3/002549_2014-06-24_13-41-39_094959634447_rgbf000022-resize_3-target.png,125,1.476,6,1690,125,meters,jsons/VE125_randls_55.json,579304,882253,62,Man
83,880565,DepthScenes,duration_manipulation_targetAtFixation,jsons/VE125_randls_55.json,http://54.235.29.9/FacialAge/BNav_EC2/DepthDuration/v2_depth_duration_MTurk/v2_DepthDuration_HTML.html#102,102,1366,768,1366,768,10-2-2022,1-51-24,84,depth_duration_stimuli/002750_2014-06-22_19-08-03_094959634447_rgbf000094-resize_4/002750_2014-06-22_19-08-03_094959634447_rgbf000094-resize_4-target.png,125,2.354,7,3812,125,meters,jsons/VE125_randls_55.json,579304,882253,62,Man
84,880565,DepthScenes,duration_manipulation_targetAtFixation,jsons/VE125_randls_55.json,http://54.235.29.9/FacialAge/BNav_EC2/DepthDuration/v2_depth_duration_MTurk/v2_DepthDuration_HTML.html#102,102,1366,768,1366,768,10-2-2022,1-51-24,85,depth_duration_stimuli/000736_2014-06-08_18-24-15_260595134347_rgbf000206-resize_3/000736_2014-06-08_18-24-15_260595134347_rgbf000206-resize_3-target.png,125,3.515,6,2182,124,meters,jsons/VE125_randls_55.json,579304,882253,62,Man
85,880565,DepthScenes,duration_manipulation_targetAtFixation,jsons/VE125_randls_55.json,http://54.235.29.9/FacialAge/BNav_EC2/DepthDuration/v2_depth_duration_MTurk/v2_DepthDuration_HTML.html#102,102,1366,768,1366,768,10-2-2022,1-51-24,86,depth_duration_stimuli/000137_2014-05-20_17-04-49_260595134347_rgbf000120-resize_1/000137_2014-05-20_17-04-49_260595134347_rgbf000120-resize_1-target.png,125,3.786,7,1906,112,meters,jsons/VE125_randls_55.json,579304,882253,62,Man
86,880565,DepthScenes,duration_manipulation_targetAtFixation,jsons/VE125_randls_55.json,http://54.235.29.9/FacialAge/BNav_EC2/DepthDuration/v2_depth_duration_MTurk/v2_DepthDuration_HTML.html#102,102,1366,768,1366,768,10-2-2022,1-51-24,87,depth_duration_stimuli/001110_2014-06-15_17-25-28_260595134347_rgbf000150-resize_1/001110_2014-06-15_17-25-28_260595134347_rgbf000150-resize_1-target.png,125,1.7115,6,2603,126,meters,jsons/VE125_randls_55.json,579304,882253,62,Man
87,880565,DepthScenes,duration_manipulation_targetAtFixation,jsons/VE125_randls_55.json,http://54.235.29.9/FacialAge/BNav_EC2/DepthDuration/v2_depth_duration_MTurk/v2_DepthDuration_HTML.html#102,102,1366,768,1366,768,10-2-2022,1-51-24,88,depth_duration_stimuli/000927_2014-06-09_16-32-30_260595134347_rgbf000123-resize_3/000927_2014-06-09_16-32-30_260595134347_rgbf000123-resize_3-target.png,125,2.6785,7,2098,137,meters,jsons/VE125_randls_55.json,579304,882253,62,Man
88,880565,DepthScenes,duration_manipulation_targetAtFixation,jsons/VE125_randls_55.json,http://54.235.29.9/FacialAge/BNav_EC2/DepthDuration/v2_depth_duration_MTurk/v2_DepthDuration_HTML.html#102,102,1366,768,1366,768,10-2-2022,1-51-24,89,depth_duration_stimuli/000739_2014-06-08_18-45-58_260595134347_rgbf000068-resize_1/000739_2014-06-08_18-45-58_260595134347_rgbf000068-resize_1-target.png,125,3.534,8,3007,114,meters,jsons/VE125_randls_55.json,579304,882253,62,Man
89,880565,DepthScenes,duration_manipulation_targetAtFixation,jsons/VE125_randls_55.json,http://54.235.29.9/FacialAge/BNav_EC2/DepthDuration/v2_depth_duration_MTurk/v2_DepthDuration_HTML.html#102,102,1366,768,1366,768,10-2-2022,1-51-24,90,depth_duration_stimuli/000734_2014-06-08_17-39-11_260595134347_rgbf000128-resize_2/000734_2014-06-08_17-39-11_260595134347_rgbf000128-resize_2-target.png,125,4.098,7,2548,120,meters,jsons/VE125_randls_55.json,579304,882253,62,Man
90,880565,DepthScenes,duration_manipulation_targetAtFixation,jsons/VE125_randls_55.json,http://54.235.29.9/FacialAge/BNav_EC2/DepthDuration/v2_depth_duration_MTurk/v2_DepthDuration_HTML.html#102,102,1366,768,1366,768,10-2-2022,1-51-24,91,depth_duration_stimuli/001092_2014-06-15_17-34-58_260595134347_rgbf000171-resize_3/001092_2014-06-15_17-34-58_260595134347_rgbf000171-resize_3-target.png,125,2.6935,6,1968,127,meters,jsons/VE125_randls_55.json,579304,882253,62,Man
91,880565,DepthScenes,duration_manipulation_targetAtFixation,jsons/VE125_randls_55.json,http://54.235.29.9/FacialAge/BNav_EC2/DepthDuration/v2_depth_duration_MTurk/v2_DepthDuration_HTML.html#102,102,1366,768,1366,768,10-2-2022,1-51-24,92,depth_duration_stimuli/002545_2014-06-24_13-38-53_094959634447_rgbf000080-resize_4/002545_2014-06-24_13-38-53_094959634447_rgbf000080-resize_4-target.png,125,1.9205,6,1954,125,meters,jsons/VE125_randls_55.json,579304,882253,62,Man
92,880565,DepthScenes,duration_manipulation_targetAtFixation,jsons/VE125_randls_55.json,http://54.235.29.9/FacialAge/BNav_EC2/DepthDuration/v2_depth_duration_MTurk/v2_DepthDuration_HTML.html#102,102,1366,768,1366,768,10-2-2022,1-51-24,93,depth_duration_stimuli/001449_2014-06-19_17-01-27_260595134347_rgbf000116-resize_2/001449_2014-06-19_17-01-27_260595134347_rgbf000116-resize_2-target.png,125,3.452,5,2235,137,meters,jsons/VE125_randls_55.json,579304,882253,62,Man
93,880565,DepthScenes,duration_manipulation_targetAtFixation,jsons/VE125_randls_55.json,http://54.235.29.9/FacialAge/BNav_EC2/DepthDuration/v2_depth_duration_MTurk/v2_DepthDuration_HTML.html#102,102,1366,768,1366,768,10-2-2022,1-51-24,94,depth_duration_stimuli/001450_2014-06-19_17-02-03_260595134347_rgbf000203-resize_4/001450_2014-06-19_17-02-03_260595134347_rgbf000203-resize_4-target.png,125,4.0106666666667,7,1925,118,meters,jsons/VE125_randls_55.json,579304,882253,62,Man
94,880565,DepthScenes,duration_manipulation_targetAtFixation,jsons/VE125_randls_55.json,http://54.235.29.9/FacialAge/BNav_EC2/DepthDuration/v2_depth_duration_MTurk/v2_DepthDuration_HTML.html#102,102,1366,768,1366,768,10-2-2022,1-51-24,95,depth_duration_stimuli/001150_2014-06-17_15-27-34_260595134347_rgbf000108-resize_2/001150_2014-06-17_15-27-34_260595134347_rgbf000108-resize_2-target.png,125,4.0325,8,2169,139,meters,jsons/VE125_randls_55.json,579304,882253,62,Man
95,880565,DepthScenes,duration_manipulation_targetAtFixation,jsons/VE125_randls_55.json,http://54.235.29.9/FacialAge/BNav_EC2/DepthDuration/v2_depth_duration_MTurk/v2_DepthDuration_HTML.html#102,102,1366,768,1366,768,10-2-2022,1-51-24,96,depth_duration_stimuli/000665_2014-06-09_20-42-35_260595134347_rgbf000110-resize_1/000665_2014-06-09_20-42-35_260595134347_rgbf000110-resize_1-target.png,125,3.057,7,2354,125,meters,jsons/VE125_randls_55.json,579304,882253,62,Man
96,880565,DepthScenes,duration_manipulation_targetAtFixation,jsons/VE125_randls_55.json,http://54.235.29.9/FacialAge/BNav_EC2/DepthDuration/v2_depth_duration_MTurk/v2_DepthDuration_HTML.html#102,102,1366,768,1366,768,10-2-2022,1-51-24,97,depth_duration_stimuli/000906_2014-06-08_13-35-43_260595134347_rgbf000155-resize_1/000906_2014-06-08_13-35-43_260595134347_rgbf000155-resize_1-target.png,125,2.8489999999999998,7,2274,124,meters,jsons/VE125_randls_55.json,579304,882253,62,Man
97,880565,DepthScenes,duration_manipulation_targetAtFixation,jsons/VE125_randls_55.json,http://54.235.29.9/FacialAge/BNav_EC2/DepthDuration/v2_depth_duration_MTurk/v2_DepthDuration_HTML.html#102,102,1366,768,1366,768,10-2-2022,1-51-24,98,depth_duration_stimuli/002805_2014-06-22_19-54-03_094959634447_rgbf000079-resize_1/002805_2014-06-22_19-54-03_094959634447_rgbf000079-resize_1-target.png,125,3.1439999999999997,6,1969,125,meters,jsons/VE125_randls_55.json,579304,882253,62,Man
98,880565,DepthScenes,duration_manipulation_targetAtFixation,jsons/VE125_randls_55.json,http://54.235.29.9/FacialAge/BNav_EC2/DepthDuration/v2_depth_duration_MTurk/v2_DepthDuration_HTML.html#102,102,1366,768,1366,768,10-2-2022,1-51-24,99,depth_duration_stimuli/001540_2014-06-20_17-01-05_260595134347_rgbf000086-resize_2/001540_2014-06-20_17-01-05_260595134347_rgbf000086-resize-original.jpg,125,1.459,7,1698,124,meters,jsons/VE125_randls_55.json,579304,882253,62,Man
99,880565,DepthScenes,duration_manipulation_targetAtFixation,jsons/VE125_randls_55.json,http://54.235.29.9/FacialAge/BNav_EC2/DepthDuration/v2_depth_duration_MTurk/v2_DepthDuration_HTML.html#102,102,1366,768,1366,768,10-2-2022,1-51-24,100,depth_duration_stimuli/000469_2014-06-09_19-42-10_260595134347_rgbf000081-resize_1/000469_2014-06-09_19-42-10_260595134347_rgbf000081-resize_1-target.png,125,1.652,6,1756,126,meters,jsons/VE125_randls_55.json,579304,882253,62,Man
100,880565,DepthScenes,duration_manipulation_targetAtFixation,jsons/VE125_randls_55.json,http://54.235.29.9/FacialAge/BNav_EC2/DepthDuration/v2_depth_duration_MTurk/v2_DepthDuration_HTML.html#102,102,1366,768,1366,768,10-2-2022,1-51-24,101,depth_duration_stimuli/000483_2014-06-09_20-41-45_260595134347_rgbf000116-resize_4/000483_2014-06-09_20-41-45_260595134347_rgbf000116-resize_4-target.png,125,1.337,5,1978,125,meters,jsons/VE125_randls_55.json,579304,882253,62,Man
101,880565,DepthScenes,duration_manipulation_targetAtFixation,jsons/VE125_randls_55.json,http://54.235.29.9/FacialAge/BNav_EC2/DepthDuration/v2_depth_duration_MTurk/v2_DepthDuration_HTML.html#102,102,1366,768,1366,768,10-2-2022,1-51-24,102,depth_duration_stimuli/002118_2014-06-25_20-32-08_260595134347_rgbf000078-resize_1/002118_2014-06-25_20-32-08_260595134347_rgbf000078-resize_1-target.png,125,2.6460000000000004,6,1738,124,meters,jsons/VE125_randls_55.json,579304,882253,62,Man
102,880565,DepthScenes,duration_manipulation_targetAtFixation,jsons/VE125_randls_55.json,http://54.235.29.9/FacialAge/BNav_EC2/DepthDuration/v2_depth_duration_MTurk/v2_DepthDuration_HTML.html#102,102,1366,768,1366,768,10-2-2022,1-51-24,103,depth_duration_stimuli/001516_2014-06-20_16-25-09_260595134347_rgbf000076-resize_2/001516_2014-06-20_16-25-09_260595134347_rgbf000076-resize_2-target.png,125,1.7445,8,2555,124,meters,jsons/VE125_randls_55.json,579304,882253,62,Man
103,880565,DepthScenes,duration_manipulation_targetAtFixation,jsons/VE125_randls_55.json,http://54.235.29.9/FacialAge/BNav_EC2/DepthDuration/v2_depth_duration_MTurk/v2_DepthDuration_HTML.html#102,102,1366,768,1366,768,10-2-2022,1-51-24,104,depth_duration_stimuli/000773_2014-06-08_22-24-54_260595134347_rgbf000093-resize_1/000773_2014-06-08_22-24-54_260595134347_rgbf000093-resize_1-target.png,125,4.973,7,1737,124,meters,jsons/VE125_randls_55.json,579304,882253,62,Man
104,880565,DepthScenes,duration_manipulation_targetAtFixation,jsons/VE125_randls_55.json,http://54.235.29.9/FacialAge/BNav_EC2/DepthDuration/v2_depth_duration_MTurk/v2_DepthDuration_HTML.html#102,102,1366,768,1366,768,10-2-2022,1-51-24,105,depth_duration_stimuli/002414_2014-06-28_20-24-58_260595134347_rgbf000067-resize_4/002414_2014-06-28_20-24-58_260595134347_rgbf000067-resize_4-target.png,125,4.363,7,1732,139,meters,jsons/VE125_randls_55.json,579304,882253,62,Man
105,880565,DepthScenes,duration_manipulation_targetAtFixation,jsons/VE125_randls_55.json,http://54.235.29.9/FacialAge/BNav_EC2/DepthDuration/v2_depth_duration_MTurk/v2_DepthDuration_HTML.html#102,102,1366,768,1366,768,10-2-2022,1-51-24,106,depth_duration_stimuli/002725_2014-06-22_11-47-51_094959634447_rgbf000070-resize_1/002725_2014-06-22_11-47-51_094959634447_rgbf000070-resize_1-target.png,125,2.195,7,1915,137,meters,jsons/VE125_randls_55.json,579304,882253,62,Man
106,880565,DepthScenes,duration_manipulation_targetAtFixation,jsons/VE125_randls_55.json,http://54.235.29.9/FacialAge/BNav_EC2/DepthDuration/v2_depth_duration_MTurk/v2_DepthDuration_HTML.html#102,102,1366,768,1366,768,10-2-2022,1-51-24,107,depth_duration_stimuli/002344_2014-06-28_20-06-29_260595134347_rgbf000030-resize_1/002344_2014-06-28_20-06-29_260595134347_rgbf000030-resize_1-target.png,125,1.5795,5,2086,132,meters,jsons/VE125_randls_55.json,579304,882253,62,Man
107,880565,DepthScenes,duration_manipulation_targetAtFixation,jsons/VE125_randls_55.json,http://54.235.29.9/FacialAge/BNav_EC2/DepthDuration/v2_depth_duration_MTurk/v2_DepthDuration_HTML.html#102,102,1366,768,1366,768,10-2-2022,1-51-24,108,depth_duration_stimuli/000470_2014-06-09_19-42-40_260595134347_rgbf000094-resize_1/000470_2014-06-09_19-42-40_260595134347_rgbf000094-resize_1-target.png,125,1.831,6,1674,124,meters,jsons/VE125_randls_55.json,579304,882253,62,Man
108,880565,DepthScenes,duration_manipulation_targetAtFixation,jsons/VE125_randls_55.json,http://54.235.29.9/FacialAge/BNav_EC2/DepthDuration/v2_depth_duration_MTurk/v2_DepthDuration_HTML.html#102,102,1366,768,1366,768,10-2-2022,1-51-24,109,depth_duration_stimuli/000109_2014-05-14_23-41-52_260595134347_rgbf000035-resize_9/000109_2014-05-14_23-41-52_260595134347_rgbf000035-resize_9-target.png,125,1.3545,6,2130,122,meters,jsons/VE125_randls_55.json,579304,882253,62,Man
109,880565,DepthScenes,duration_manipulation_targetAtFixation,jsons/VE125_randls_55.json,http://54.235.29.9/FacialAge/BNav_EC2/DepthDuration/v2_depth_duration_MTurk/v2_DepthDuration_HTML.html#102,102,1366,768,1366,768,10-2-2022,1-51-24,110,depth_duration_stimuli/002570_2014-06-24_13-59-54_094959634447_rgbf000059-resize_0/002570_2014-06-24_13-59-54_094959634447_rgbf000059-resize_0-target.png,125,4.037,7,2327,113,meters,jsons/VE125_randls_55.json,579304,882253,62,Man
110,880565,DepthScenes,duration_manipulation_targetAtFixation,jsons/VE125_randls_55.json,http://54.235.29.9/FacialAge/BNav_EC2/DepthDuration/v2_depth_duration_MTurk/v2_DepthDuration_HTML.html#102,102,1366,768,1366,768,10-2-2022,1-51-24,111,depth_duration_stimuli/002467_2014-06-28_20-38-07_260595134347_rgbf000026-resize_2/002467_2014-06-28_20-38-07_260595134347_rgbf000026-resize_2-target.png,125,4.742,6,2130,124,meters,jsons/VE125_randls_55.json,579304,882253,62,Man
111,880565,DepthScenes,duration_manipulation_targetAtFixation,jsons/VE125_randls_55.json,http://54.235.29.9/FacialAge/BNav_EC2/DepthDuration/v2_depth_duration_MTurk/v2_DepthDuration_HTML.html#102,102,1366,768,1366,768,10-2-2022,1-51-24,112,depth_duration_stimuli/002784_2014-06-22_19-26-30_094959634447_rgbf000083-resize_3/002784_2014-06-22_19-26-30_094959634447_rgbf000083-resize_3-target.png,125,1.8046666666667,4,2025,131,meters,jsons/VE125_randls_55.json,579304,882253,62,Man
112,880565,DepthScenes,duration_manipulation_targetAtFixation,jsons/VE125_randls_55.json,http://54.235.29.9/FacialAge/BNav_EC2/DepthDuration/v2_depth_duration_MTurk/v2_DepthDuration_HTML.html#102,102,1366,768,1366,768,10-2-2022,1-51-24,113,depth_duration_stimuli/001100_2014-06-15_17-46-26_260595134347_rgbf000225-resize_2/001100_2014-06-15_17-46-26_260595134347_rgbf000225-resize_2-target.png,125,2.24,7,19240,127,meters,jsons/VE125_randls_55.json,579304,882253,62,Man
113,880565,DepthScenes,duration_manipulation_targetAtFixation,jsons/VE125_randls_55.json,http://54.235.29.9/FacialAge/BNav_EC2/DepthDuration/v2_depth_duration_MTurk/v2_DepthDuration_HTML.html#102,102,1366,768,1366,768,10-2-2022,1-51-24,114,depth_duration_stimuli/000368_2014-06-09_15-53-01_260595134347_rgbf000155-resize_2/000368_2014-06-09_15-53-01_260595134347_rgbf000155-resize_2-target.png,125,2.4859999999999998,5,1729,126,meters,jsons/VE125_randls_55.json,579304,882253,62,Man
114,880565,DepthScenes,duration_manipulation_targetAtFixation,jsons/VE125_randls_55.json,http://54.235.29.9/FacialAge/BNav_EC2/DepthDuration/v2_depth_duration_MTurk/v2_DepthDuration_HTML.html#102,102,1366,768,1366,768,10-2-2022,1-51-24,115,depth_duration_stimuli/002678_2014-06-13_16-15-32_094959634447_rgbf000151-resize_6/002678_2014-06-13_16-15-32_094959634447_rgbf000151-resize_6-target.png,125,2.1830000000000003,4,2723,131,meters,jsons/VE125_randls_55.json,579304,882253,62,Man
115,880565,DepthScenes,duration_manipulation_targetAtFixation,jsons/VE125_randls_55.json,http://54.235.29.9/FacialAge/BNav_EC2/DepthDuration/v2_depth_duration_MTurk/v2_DepthDuration_HTML.html#102,102,1366,768,1366,768,10-2-2022,1-51-24,116,depth_duration_stimuli/001170_2014-06-17_15-43-44_260595134347_rgbf000096-resize_6/001170_2014-06-17_15-43-44_260595134347_rgbf000096-resize-original.jpg,125,1.1909999999999998,6,1794,125,meters,jsons/VE125_randls_55.json,579304,882253,62,Man
116,880565,DepthScenes,duration_manipulation_targetAtFixation,jsons/VE125_randls_55.json,http://54.235.29.9/FacialAge/BNav_EC2/DepthDuration/v2_depth_duration_MTurk/v2_DepthDuration_HTML.html#102,102,1366,768,1366,768,10-2-2022,1-51-24,117,depth_duration_stimuli/002039_2014-06-24_20-22-38_260595134347_rgbf000084-resize_1/002039_2014-06-24_20-22-38_260595134347_rgbf000084-resize_1-target.png,125,4.408,7,2273,125,meters,jsons/VE125_randls_55.json,579304,882253,62,Man
117,880565,DepthScenes,duration_manipulation_targetAtFixation,jsons/VE125_randls_55.json,http://54.235.29.9/FacialAge/BNav_EC2/DepthDuration/v2_depth_duration_MTurk/v2_DepthDuration_HTML.html#102,102,1366,768,1366,768,10-2-2022,1-51-24,118,depth_duration_stimuli/002103_2014-06-25_20-00-40_260595134347_rgbf000049-resize_0/002103_2014-06-25_20-00-40_260595134347_rgbf000049-resize_0-target.png,125,4.105,8,2018,135,meters,jsons/VE125_randls_55.json,579304,882253,62,Man
118,880565,DepthScenes,duration_manipulation_targetAtFixation,jsons/VE125_randls_55.json,http://54.235.29.9/FacialAge/BNav_EC2/DepthDuration/v2_depth_duration_MTurk/v2_DepthDuration_HTML.html#102,102,1366,768,1366,768,10-2-2022,1-51-24,119,depth_duration_stimuli/000788_2014-06-08_22-34-36_260595134347_rgbf000131-resize_1/000788_2014-06-08_22-34-36_260595134347_rgbf000131-resize_1-target.png,125,3.359,6,1731,125,meters,jsons/VE125_randls_55.json,579304,882253,62,Man
119,880565,DepthScenes,duration_manipulation_targetAtFixation,jsons/VE125_randls_55.json,http://54.235.29.9/FacialAge/BNav_EC2/DepthDuration/v2_depth_duration_MTurk/v2_DepthDuration_HTML.html#102,102,1366,768,1366,768,10-2-2022,1-51-24,120,depth_duration_stimuli/001235_2014-06-17_16-37-36_260595134347_rgbf000084-resize_4/001235_2014-06-17_16-37-36_260595134347_rgbf000084-resize_4-target.png,125,3.6605,5,1641,130,meters,jsons/VE125_randls_55.json,579304,882253,62,Man
120,880565,DepthScenes,duration_manipulation_targetAtFixation,jsons/VE125_randls_55.json,http://54.235.29.9/FacialAge/BNav_EC2/DepthDuration/v2_depth_duration_MTurk/v2_DepthDuration_HTML.html#102,102,1366,768,1366,768,10-2-2022,1-51-24,121,depth_duration_stimuli/000506_2014-06-08_23-21-00_260595134347_rgbf000070-resize_7/000506_2014-06-08_23-21-00_260595134347_rgbf000070-resize_7-target.png,125,4.0585,5,1659,125,meters,jsons/VE125_randls_55.json,579304,882253,62,Man
121,880565,DepthScenes,duration_manipulation_targetAtFixation,jsons/VE125_randls_55.json,http://54.235.29.9/FacialAge/BNav_EC2/DepthDuration/v2_depth_duration_MTurk/v2_DepthDuration_HTML.html#102,102,1366,768,1366,768,10-2-2022,1-51-24,122,depth_duration_stimuli/003079_2014-06-15_15-18-20_094959634447_rgbf000152-resize_8/003079_2014-06-15_15-18-20_094959634447_rgbf000152-resize_8-target.png,125,2.8775,8,4289,126,meters,jsons/VE125_randls_55.json,579304,882253,62,Man
122,880565,DepthScenes,duration_manipulation_targetAtFixation,jsons/VE125_randls_55.json,http://54.235.29.9/FacialAge/BNav_EC2/DepthDuration/v2_depth_duration_MTurk/v2_DepthDuration_HTML.html#102,102,1366,768,1366,768,10-2-2022,1-51-24,123,depth_duration_stimuli/002153_2014-06-25_21-27-18_260595134347_rgbf000038-resize_5/002153_2014-06-25_21-27-18_260595134347_rgbf000038-resize_5-target.png,125,2.505,5,2338,136,meters,jsons/VE125_randls_55.json,579304,882253,62,Man
123,880565,DepthScenes,duration_manipulation_targetAtFixation,jsons/VE125_randls_55.json,http://54.235.29.9/FacialAge/BNav_EC2/DepthDuration/v2_depth_duration_MTurk/v2_DepthDuration_HTML.html#102,102,1366,768,1366,768,10-2-2022,1-51-24,124,depth_duration_stimuli/002660_2014-06-13_15-44-18_094959634447_rgbf001878-resize_2/002660_2014-06-13_15-44-18_094959634447_rgbf001878-resize_2-target.png,125,3.576,5,1687,125,meters,jsons/VE125_randls_55.json,579304,882253,62,Man
124,880565,DepthScenes,duration_manipulation_targetAtFixation,jsons/VE125_randls_55.json,http://54.235.29.9/FacialAge/BNav_EC2/DepthDuration/v2_depth_duration_MTurk/v2_DepthDuration_HTML.html#102,102,1366,768,1366,768,10-2-2022,1-51-24,125,depth_duration_stimuli/000642_2014-06-08_16-59-25_260595134347_rgbf000098-resize_2/000642_2014-06-08_16-59-25_260595134347_rgbf000098-resize_2-target.png,125,2.8815,5,1632,127,meters,jsons/VE125_randls_55.json,579304,882253,62,Man
125,880565,DepthScenes,duration_manipulation_targetAtFixation,jsons/VE125_randls_55.json,http://54.235.29.9/FacialAge/BNav_EC2/DepthDuration/v2_depth_duration_MTurk/v2_DepthDuration_HTML.html#102,102,1366,768,1366,768,10-2-2022,1-51-24,126,depth_duration_stimuli/002425_2014-06-28_20-27-29_260595134347_rgbf000031-resize_8/002425_2014-06-28_20-27-29_260595134347_rgbf000031-resize_8-target.png,125,3.8960000000000004,7,2363,125,meters,jsons/VE125_randls_55.json,579304,882253,62,Man
126,880565,DepthScenes,duration_manipulation_targetAtFixation,jsons/VE125_randls_55.json,http://54.235.29.9/FacialAge/BNav_EC2/DepthDuration/v2_depth_duration_MTurk/v2_DepthDuration_HTML.html#102,102,1366,768,1366,768,10-2-2022,1-51-24,127,depth_duration_stimuli/001806_2014-06-26_20-50-20_260595134347_rgbf000091-resize_1/001806_2014-06-26_20-50-20_260595134347_rgbf000091-resize_1-target.png,125,2.7305,6,2362,124,meters,jsons/VE125_randls_55.json,579304,882253,62,Man
127,880565,DepthScenes,duration_manipulation_targetAtFixation,jsons/VE125_randls_55.json,http://54.235.29.9/FacialAge/BNav_EC2/DepthDuration/v2_depth_duration_MTurk/v2_DepthDuration_HTML.html#102,102,1366,768,1366,768,10-2-2022,1-51-24,128,depth_duration_stimuli/001617_2014-06-20_11-35-32_260595134347_rgbf000066-resize_1/001617_2014-06-20_11-35-32_260595134347_rgbf000066-resize_1-target.png,125,3.7910000000000004,7,2907,125,meters,jsons/VE125_randls_55.json,579304,882253,62,Man
128,880565,DepthScenes,duration_manipulation_targetAtFixation,jsons/VE125_randls_55.json,http://54.235.29.9/FacialAge/BNav_EC2/DepthDuration/v2_depth_duration_MTurk/v2_DepthDuration_HTML.html#102,102,1366,768,1366,768,10-2-2022,1-51-24,129,depth_duration_stimuli/001810_2014-06-26_20-51-35_260595134347_rgbf000040-resize_3/001810_2014-06-26_20-51-35_260595134347_rgbf000040-resize_3-target.png,125,2.2525,6,2202,124,meters,jsons/VE125_randls_55.json,579304,882253,62,Man
129,880565,DepthScenes,duration_manipulation_targetAtFixation,jsons/VE125_randls_55.json,http://54.235.29.9/FacialAge/BNav_EC2/DepthDuration/v2_depth_duration_MTurk/v2_DepthDuration_HTML.html#102,102,1366,768,1366,768,10-2-2022,1-51-24,130,depth_duration_stimuli/003010_2014-06-15_12-54-35_094959634447_rgbf000112-resize_0/003010_2014-06-15_12-54-35_094959634447_rgbf000112-resize_0-target.png,125,3.1185,8,2708,119,meters,jsons/VE125_randls_55.json,579304,882253,62,Man
130,880565,DepthScenes,duration_manipulation_targetAtFixation,jsons/VE125_randls_55.json,http://54.235.29.9/FacialAge/BNav_EC2/DepthDuration/v2_depth_duration_MTurk/v2_DepthDuration_HTML.html#102,102,1366,768,1366,768,10-2-2022,1-51-24,131,depth_duration_stimuli/000878_2014-06-08_22-52-45_260595134347_rgbf000045-resize_2/000878_2014-06-08_22-52-45_260595134347_rgbf000045-resize_2-target.png,125,2.092,7,2050,134,meters,jsons/VE125_randls_55.json,579304,882253,62,Man
131,880565,DepthScenes,duration_manipulation_targetAtFixation,jsons/VE125_randls_55.json,http://54.235.29.9/FacialAge/BNav_EC2/DepthDuration/v2_depth_duration_MTurk/v2_DepthDuration_HTML.html#102,102,1366,768,1366,768,10-2-2022,1-51-24,132,depth_duration_stimuli/002953_2014-06-08_17-32-18_094959634447_rgbf000059-resize_5/002953_2014-06-08_17-32-18_094959634447_rgbf000059-resize_5-target.png,125,1.551,5,2123,125,meters,jsons/VE125_randls_55.json,579304,882253,62,Man
132,880565,DepthScenes,duration_manipulation_targetAtFixation,jsons/VE125_randls_55.json,http://54.235.29.9/FacialAge/BNav_EC2/DepthDuration/v2_depth_duration_MTurk/v2_DepthDuration_HTML.html#102,102,1366,768,1366,768,10-2-2022,1-51-24,133,depth_duration_stimuli/001011_2014-06-08_23-18-54_260595134347_rgbf000044-resize_4/001011_2014-06-08_23-18-54_260595134347_rgbf000044-resize_4-target.png,125,2.4730000000000003,5,2294,120,meters,jsons/VE125_randls_55.json,579304,882253,62,Man
133,880565,DepthScenes,duration_manipulation_targetAtFixation,jsons/VE125_randls_55.json,http://54.235.29.9/FacialAge/BNav_EC2/DepthDuration/v2_depth_duration_MTurk/v2_DepthDuration_HTML.html#102,102,1366,768,1366,768,10-2-2022,1-51-24,134,depth_duration_stimuli/002875_2014-06-01_15-19-00_094959634447_rgbf000151-resize_1/002875_2014-06-01_15-19-00_094959634447_rgbf000151-resize_1-target.png,125,1.9675,7,2426,124,meters,jsons/VE125_randls_55.json,579304,882253,62,Man
134,880565,DepthScenes,duration_manipulation_targetAtFixation,jsons/VE125_randls_55.json,http://54.235.29.9/FacialAge/BNav_EC2/DepthDuration/v2_depth_duration_MTurk/v2_DepthDuration_HTML.html#102,102,1366,768,1366,768,10-2-2022,1-51-24,135,depth_duration_stimuli/002072_2014-06-24_21-48-06_260595134347_rgbf000115-resize_0/002072_2014-06-24_21-48-06_260595134347_rgbf000115-resize-original.jpg,125,4.702,0,2645,126,meters,jsons/VE125_randls_55.json,579304,882253,62,Man
135,880565,DepthScenes,duration_manipulation_targetAtFixation,jsons/VE125_randls_55.json,http://54.235.29.9/FacialAge/BNav_EC2/DepthDuration/v2_depth_duration_MTurk/v2_DepthDuration_HTML.html#102,102,1366,768,1366,768,10-2-2022,1-51-24,136,depth_duration_stimuli/002213_2014-06-28_18-37-58_260595134347_rgbf000055-resize_1/002213_2014-06-28_18-37-58_260595134347_rgbf000055-resize_1-target.png,125,3.62,7,2709,120,meters,jsons/VE125_randls_55.json,579304,882253,62,Man
136,880565,DepthScenes,duration_manipulation_targetAtFixation,jsons/VE125_randls_55.json,http://54.235.29.9/FacialAge/BNav_EC2/DepthDuration/v2_depth_duration_MTurk/v2_DepthDuration_HTML.html#102,102,1366,768,1366,768,10-2-2022,1-51-24,137,depth_duration_stimuli/000691_2014-06-08_13-08-50_260595134347_rgbf000132-resize_3/000691_2014-06-08_13-08-50_260595134347_rgbf000132-resize_3-target.png,125,4.1530000000000005,5,2569,115,meters,jsons/VE125_randls_55.json,579304,882253,62,Man
137,880565,DepthScenes,duration_manipulation_targetAtFixation,jsons/VE125_randls_55.json,http://54.235.29.9/FacialAge/BNav_EC2/DepthDuration/v2_depth_duration_MTurk/v2_DepthDuration_HTML.html#102,102,1366,768,1366,768,10-2-2022,1-51-24,138,depth_duration_stimuli/000929_2014-06-09_16-33-19_260595134347_rgbf000139-resize_0/000929_2014-06-09_16-33-19_260595134347_rgbf000139-resize_0-target.png,125,2.8680000000000003,4,2738,126,meters,jsons/VE125_randls_55.json,579304,882253,62,Man
138,880565,DepthScenes,duration_manipulation_targetAtFixation,jsons/VE125_randls_55.json,http://54.235.29.9/FacialAge/BNav_EC2/DepthDuration/v2_depth_duration_MTurk/v2_DepthDuration_HTML.html#102,102,1366,768,1366,768,10-2-2022,1-51-24,139,depth_duration_stimuli/000457_2014-06-08_16-52-43_260595134347_rgbf000199-resize_1/000457_2014-06-08_16-52-43_260595134347_rgbf000199-resize_1-target.png,125,3.6489999999999996,6,2107,139,meters,jsons/VE125_randls_55.json,579304,882253,62,Man
139,880565,DepthScenes,duration_manipulation_targetAtFixation,jsons/VE125_randls_55.json,http://54.235.29.9/FacialAge/BNav_EC2/DepthDuration/v2_depth_duration_MTurk/v2_DepthDuration_HTML.html#102,102,1366,768,1366,768,10-2-2022,1-51-24,140,depth_duration_stimuli/001158_2014-06-17_15-32-16_260595134347_rgbf000138-resize_2/001158_2014-06-17_15-32-16_260595134347_rgbf000138-resize_2-target.png,125,4.5315,7,2107,124,meters,jsons/VE125_randls_55.json,579304,882253,62,Man
140,880565,DepthScenes,duration_manipulation_targetAtFixation,jsons/VE125_randls_55.json,http://54.235.29.9/FacialAge/BNav_EC2/DepthDuration/v2_depth_duration_MTurk/v2_DepthDuration_HTML.html#102,102,1366,768,1366,768,10-2-2022,1-51-24,141,depth_duration_stimuli/000556_2014-06-09_22-42-56_260595134347_rgbf000214-resize_1/000556_2014-06-09_22-42-56_260595134347_rgbf000214-resize_1-target.png,125,4.8415,6,4160,127,meters,jsons/VE125_randls_55.json,579304,882253,62,Man
141,880565,DepthScenes,duration_manipulation_targetAtFixation,jsons/VE125_randls_55.json,http://54.235.29.9/FacialAge/BNav_EC2/DepthDuration/v2_depth_duration_MTurk/v2_DepthDuration_HTML.html#102,102,1366,768,1366,768,10-2-2022,1-51-24,142,depth_duration_stimuli/003621_2014-05-23_18-06-08_094959634447_rgbf000101-resize_1/003621_2014-05-23_18-06-08_094959634447_rgbf000101-resize_1-target.png,125,3.9835,7,2224,131,meters,jsons/VE125_randls_55.json,579304,882253,62,Man
142,880565,DepthScenes,duration_manipulation_targetAtFixation,jsons/VE125_randls_55.json,http://54.235.29.9/FacialAge/BNav_EC2/DepthDuration/v2_depth_duration_MTurk/v2_DepthDuration_HTML.html#102,102,1366,768,1366,768,10-2-2022,1-51-24,143,depth_duration_stimuli/001584_2014-06-20_11-07-43_260595134347_rgbf000002-resize_1/001584_2014-06-20_11-07-43_260595134347_rgbf000002-resize_1-target.png,125,3.53,8,2607,134,meters,jsons/VE125_randls_55.json,579304,882253,62,Man
143,880565,DepthScenes,duration_manipulation_targetAtFixation,jsons/VE125_randls_55.json,http://54.235.29.9/FacialAge/BNav_EC2/DepthDuration/v2_depth_duration_MTurk/v2_DepthDuration_HTML.html#102,102,1366,768,1366,768,10-2-2022,1-51-24,144,depth_duration_stimuli/002988_2014-06-15_12-24-20_094959634447_rgbf000150-resize_1/002988_2014-06-15_12-24-20_094959634447_rgbf000150-resize_1-target.png,125,4.7669999999999995,8,1668,127,meters,jsons/VE125_randls_55.json,579304,882253,62,Man
144,880565,DepthScenes,duration_manipulation_targetAtFixation,jsons/VE125_randls_55.json,http://54.235.29.9/FacialAge/BNav_EC2/DepthDuration/v2_depth_duration_MTurk/v2_DepthDuration_HTML.html#102,102,1366,768,1366,768,10-2-2022,1-51-24,145,depth_duration_stimuli/001052_2014-06-08_18-24-54_260595134347_rgbf000130-resize_1/001052_2014-06-08_18-24-54_260595134347_rgbf000130-resize_1-target.png,125,4.1045,8,2459,119,meters,jsons/VE125_randls_55.json,579304,882253,62,Man
145,880565,DepthScenes,duration_manipulation_targetAtFixation,jsons/VE125_randls_55.json,http://54.235.29.9/FacialAge/BNav_EC2/DepthDuration/v2_depth_duration_MTurk/v2_DepthDuration_HTML.html#102,102,1366,768,1366,768,10-2-2022,1-51-24,146,depth_duration_stimuli/001498_2014-06-19_17-45-14_260595134347_rgbf000129-resize_4/001498_2014-06-19_17-45-14_260595134347_rgbf000129-resize-original.jpg,125,1.4075,0,2333,124,meters,jsons/VE125_randls_55.json,579304,882253,62,Man
146,880565,DepthScenes,duration_manipulation_targetAtFixation,jsons/VE125_randls_55.json,http://54.235.29.9/FacialAge/BNav_EC2/DepthDuration/v2_depth_duration_MTurk/v2_DepthDuration_HTML.html#102,102,1366,768,1366,768,10-2-2022,1-51-24,147,depth_duration_stimuli/003070_2014-06-15_14-58-27_094959634447_rgbf000150-resize_3/003070_2014-06-15_14-58-27_094959634447_rgbf000150-resize_3-target.png,125,2.9415,6,3716,111,meters,jsons/VE125_randls_55.json,579304,882253,62,Man
147,880565,DepthScenes,duration_manipulation_targetAtFixation,jsons/VE125_randls_55.json,http://54.235.29.9/FacialAge/BNav_EC2/DepthDuration/v2_depth_duration_MTurk/v2_DepthDuration_HTML.html#102,102,1366,768,1366,768,10-2-2022,1-51-24,148,depth_duration_stimuli/000943_2014-06-09_19-31-07_260595134347_rgbf000128-resize_1/000943_2014-06-09_19-31-07_260595134347_rgbf000128-resize_1-target.png,125,1.9765,6,2139,111,meters,jsons/VE125_randls_55.json,579304,882253,62,Man
148,880565,DepthScenes,duration_manipulation_targetAtFixation,jsons/VE125_randls_55.json,http://54.235.29.9/FacialAge/BNav_EC2/DepthDuration/v2_depth_duration_MTurk/v2_DepthDuration_HTML.html#102,102,1366,768,1366,768,10-2-2022,1-51-24,149,depth_duration_stimuli/001056_2014-06-08_18-46-44_260595134347_rgbf000068-resize_0/001056_2014-06-08_18-46-44_260595134347_rgbf000068-resize_0-target.png,125,2.6625,6,2054,119,meters,jsons/VE125_randls_55.json,579304,882253,62,Man
149,880565,DepthScenes,duration_manipulation_targetAtFixation,jsons/VE125_randls_55.json,http://54.235.29.9/FacialAge/BNav_EC2/DepthDuration/v2_depth_duration_MTurk/v2_DepthDuration_HTML.html#102,102,1366,768,1366,768,10-2-2022,1-51-24,150,depth_duration_stimuli/002199_2014-06-28_18-33-56_260595134347_rgbf000074-resize_0/002199_2014-06-28_18-33-56_260595134347_rgbf000074-resize_0-target.png,125,1.996,4,4154,124,meters,jsons/VE125_randls_55.json,579304,882253,62,Man
150,880565,DepthScenes,duration_manipulation_targetAtFixation,jsons/VE125_randls_55.json,http://54.235.29.9/FacialAge/BNav_EC2/DepthDuration/v2_depth_duration_MTurk/v2_DepthDuration_HTML.html#102,102,1366,768,1366,768,10-2-2022,1-51-24,151,depth_duration_stimuli/002763_2014-06-22_19-13-10_094959634447_rgbf000075-resize_4/002763_2014-06-22_19-13-10_094959634447_rgbf000075-resize_4-target.png,125,1.68375,0,2688,128,meters,jsons/VE125_randls_55.json,579304,882253,62,Man
151,880565,DepthScenes,duration_manipulation_targetAtFixation,jsons/VE125_randls_55.json,http://54.235.29.9/FacialAge/BNav_EC2/DepthDuration/v2_depth_duration_MTurk/v2_DepthDuration_HTML.html#102,102,1366,768,1366,768,10-2-2022,1-51-24,152,depth_duration_stimuli/002209_2014-06-28_18-36-10_260595134347_rgbf000051-resize_1/002209_2014-06-28_18-36-10_260595134347_rgbf000051-resize_1-target.png,125,2.057,6,2755,137,meters,jsons/VE125_randls_55.json,579304,882253,62,Man
152,880565,DepthScenes,duration_manipulation_targetAtFixation,jsons/VE125_randls_55.json,http://54.235.29.9/FacialAge/BNav_EC2/DepthDuration/v2_depth_duration_MTurk/v2_DepthDuration_HTML.html#102,102,1366,768,1366,768,10-2-2022,1-51-24,153,depth_duration_stimuli/002279_2014-06-28_18-55-32_260595134347_rgbf000040-resize_5/002279_2014-06-28_18-55-32_260595134347_rgbf000040-resize_5-target.png,125,1.5043333333333,5,2538,132,meters,jsons/VE125_randls_55.json,579304,882253,62,Man
153,880565,DepthScenes,duration_manipulation_targetAtFixation,jsons/VE125_randls_55.json,http://54.235.29.9/FacialAge/BNav_EC2/DepthDuration/v2_depth_duration_MTurk/v2_DepthDuration_HTML.html#102,102,1366,768,1366,768,10-2-2022,1-51-24,154,depth_duration_stimuli/000635_2014-06-08_16-38-42_260595134347_rgbf000106-resize_1/000635_2014-06-08_16-38-42_260595134347_rgbf000106-resize_1-target.png,125,2.074,6,2219,125,meters,jsons/VE125_randls_55.json,579304,882253,62,Man
154,880565,DepthScenes,duration_manipulation_targetAtFixation,jsons/VE125_randls_55.json,http://54.235.29.9/FacialAge/BNav_EC2/DepthDuration/v2_depth_duration_MTurk/v2_DepthDuration_HTML.html#102,102,1366,768,1366,768,10-2-2022,1-51-24,155,depth_duration_stimuli/000522_2014-06-08_13-35-06_260595134347_rgbf000244-resize_1/000522_2014-06-08_13-35-06_260595134347_rgbf000244-resize_1-target.png,125,2.3715,4,2649,124,meters,jsons/VE125_randls_55.json,579304,882253,62,Man
155,880565,DepthScenes,duration_manipulation_targetAtFixation,jsons/VE125_randls_55.json,http://54.235.29.9/FacialAge/BNav_EC2/DepthDuration/v2_depth_duration_MTurk/v2_DepthDuration_HTML.html#102,102,1366,768,1366,768,10-2-2022,1-51-24,156,depth_duration_stimuli/002949_2014-06-26_15-57-42_094959634447_rgbf000079-resize_1/002949_2014-06-26_15-57-42_094959634447_rgbf000079-resize_1-target.png,125,1.8915,5,1874,127,meters,jsons/VE125_randls_55.json,579304,882253,62,Man
156,880565,DepthScenes,duration_manipulation_targetAtFixation,jsons/VE125_randls_55.json,http://54.235.29.9/FacialAge/BNav_EC2/DepthDuration/v2_depth_duration_MTurk/v2_DepthDuration_HTML.html#102,102,1366,768,1366,768,10-2-2022,1-51-24,157,depth_duration_stimuli/002989_2014-06-15_12-25-03_094959634447_rgbf000150-resize_3/002989_2014-06-15_12-25-03_094959634447_rgbf000150-resize_3-target.png,125,4.1975,8,2093,124,meters,jsons/VE125_randls_55.json,579304,882253,62,Man
157,880565,DepthScenes,duration_manipulation_targetAtFixation,jsons/VE125_randls_55.json,http://54.235.29.9/FacialAge/BNav_EC2/DepthDuration/v2_depth_duration_MTurk/v2_DepthDuration_HTML.html#102,102,1366,768,1366,768,10-2-2022,1-51-24,158,depth_duration_stimuli/000866_2014-06-09_20-45-42_260595134347_rgbf000139-resize_1/000866_2014-06-09_20-45-42_260595134347_rgbf000139-resize_1-target.png,125,3.2155,7,2202,111,meters,jsons/VE125_randls_55.json,579304,882253,62,Man
158,880565,DepthScenes,duration_manipulation_targetAtFixation,jsons/VE125_randls_55.json,http://54.235.29.9/FacialAge/BNav_EC2/DepthDuration/v2_depth_duration_MTurk/v2_DepthDuration_HTML.html#102,102,1366,768,1366,768,10-2-2022,1-51-24,159,depth_duration_stimuli/002905_2014-06-03_18-04-43_094959634447_rgbf000151-resize_2/002905_2014-06-03_18-04-43_094959634447_rgbf000151-resize_2-target.png,125,2.0295,6,1846,134,meters,jsons/VE125_randls_55.json,579304,882253,62,Man
159,880565,DepthScenes,duration_manipulation_targetAtFixation,jsons/VE125_randls_55.json,http://54.235.29.9/FacialAge/BNav_EC2/DepthDuration/v2_depth_duration_MTurk/v2_DepthDuration_HTML.html#102,102,1366,768,1366,768,10-2-2022,1-51-24,160,depth_duration_stimuli/003423_2014-05-21_10-23-26_094959634447_rgbf002665-resize_2/003423_2014-05-21_10-23-26_094959634447_rgbf002665-resize_2-target.png,125,3.2575,6,1859,125,meters,jsons/VE125_randls_55.json,579304,882253,62,Man
160,880565,DepthScenes,duration_manipulation_targetAtFixation,jsons/VE125_randls_55.json,http://54.235.29.9/FacialAge/BNav_EC2/DepthDuration/v2_depth_duration_MTurk/v2_DepthDuration_HTML.html#102,102,1366,768,1366,768,10-2-2022,1-51-24,161,depth_duration_stimuli/001059_2014-06-08_21-53-27_260595134347_rgbf000061-resize_4/001059_2014-06-08_21-53-27_260595134347_rgbf000061-resize_4-target.png,125,2.4185,7,1738,124,meters,jsons/VE125_randls_55.json,579304,882253,62,Man
161,880565,DepthScenes,duration_manipulation_targetAtFixation,jsons/VE125_randls_55.json,http://54.235.29.9/FacialAge/BNav_EC2/DepthDuration/v2_depth_duration_MTurk/v2_DepthDuration_HTML.html#102,102,1366,768,1366,768,10-2-2022,1-51-24,162,depth_duration_stimuli/001032_2014-06-08_13-23-17_260595134347_rgbf000021-resize_3/001032_2014-06-08_13-23-17_260595134347_rgbf000021-resize_3-target.png,125,3.2725,6,1970,124,meters,jsons/VE125_randls_55.json,579304,882253,62,Man
162,880565,DepthScenes,duration_manipulation_targetAtFixation,jsons/VE125_randls_55.json,http://54.235.29.9/FacialAge/BNav_EC2/DepthDuration/v2_depth_duration_MTurk/v2_DepthDuration_HTML.html#102,102,1366,768,1366,768,10-2-2022,1-51-24,163,depth_duration_stimuli/001029_2014-06-08_13-17-57_260595134347_rgbf000065-resize_1/001029_2014-06-08_13-17-57_260595134347_rgbf000065-resize_1-target.png,125,3.0835,7,2436,127,meters,jsons/VE125_randls_55.json,579304,882253,62,Man
163,880565,DepthScenes,duration_manipulation_targetAtFixation,jsons/VE125_randls_55.json,http://54.235.29.9/FacialAge/BNav_EC2/DepthDuration/v2_depth_duration_MTurk/v2_DepthDuration_HTML.html#102,102,1366,768,1366,768,10-2-2022,1-51-24,164,depth_duration_stimuli/000677_2014-06-08_23-10-32_260595134347_rgbf000158-resize_6/000677_2014-06-08_23-10-32_260595134347_rgbf000158-resize_6-target.png,125,3.556,7,1687,127,meters,jsons/VE125_randls_55.json,579304,882253,62,Man
