,subjID,experimentName,versionName,sequenceName,url,selected_row,windowWidth,windowHeight,screenWidth,screenHeight,startDate,startTime,trial,stimulus,duration,actual_depth,depth_estimate,trial_RT,log_sceneDuration,unitSelection,seq_filepath,experimentTime,totalTime,age,gender
0,880910,DepthScenes,duration_manipulation_targetAtFixation,jsons/v1_VE1000_randls_66_rotated.json,http://54.235.29.9/FacialAge/BNav_EC2/DepthDuration/v2_depth_duration_MTurk/v2_DepthDuration_HTML.html#251,251,1366,768,1366,768,8-29-2022,13-25-43,1,depth_duration_stimuli/003083_2014-06-15_15-21-03_094959634447_rgbf000063-resize_1/003083_2014-06-15_15-21-03_094959634447_rgbf000063-resize_1-target.png,1000,4.1405,2.5,15850,1000,meters,jsons/v1_VE1000_randls_66_rotated.json,1946245,2378146,43,Man
1,880910,DepthScenes,duration_manipulation_targetAtFixation,jsons/v1_VE1000_randls_66_rotated.json,http://54.235.29.9/FacialAge/BNav_EC2/DepthDuration/v2_depth_duration_MTurk/v2_DepthDuration_HTML.html#251,251,1366,768,1366,768,8-29-2022,13-25-43,2,depth_duration_stimuli/000486_2014-06-09_20-47-20_260595134347_rgbf000143-resize_2/000486_2014-06-09_20-47-20_260595134347_rgbf000143-resize_2-target.png,1000,4.8325,2.0,5758,1000,meters,jsons/v1_VE1000_randls_66_rotated.json,1946245,2378146,43,Man
2,880910,DepthScenes,duration_manipulation_targetAtFixation,jsons/v1_VE1000_randls_66_rotated.json,http://54.235.29.9/FacialAge/BNav_EC2/DepthDuration/v2_depth_duration_MTurk/v2_DepthDuration_HTML.html#251,251,1366,768,1366,768,8-29-2022,13-25-43,3,depth_duration_stimuli/003228_2014-05-14_13-42-35_094959634447_rgbf000101-resize_1/003228_2014-05-14_13-42-35_094959634447_rgbf000101-resize_1-target.png,1000,1.9680000000000002,0.8,14829,1000,meters,jsons/v1_VE1000_randls_66_rotated.json,1946245,2378146,43,Man
3,880910,DepthScenes,duration_manipulation_targetAtFixation,jsons/v1_VE1000_randls_66_rotated.json,http://54.235.29.9/FacialAge/BNav_EC2/DepthDuration/v2_depth_duration_MTurk/v2_DepthDuration_HTML.html#251,251,1366,768,1366,768,8-29-2022,13-25-43,4,depth_duration_stimuli/002600_2014-06-24_14-27-04_094959634447_rgbf000074-resize_2/002600_2014-06-24_14-27-04_094959634447_rgbf000074-resize_2-target.png,1000,2.7575,2.0,5675,1000,meters,jsons/v1_VE1000_randls_66_rotated.json,1946245,2378146,43,Man
4,880910,DepthScenes,duration_manipulation_targetAtFixation,jsons/v1_VE1000_randls_66_rotated.json,http://54.235.29.9/FacialAge/BNav_EC2/DepthDuration/v2_depth_duration_MTurk/v2_DepthDuration_HTML.html#251,251,1366,768,1366,768,8-29-2022,13-25-43,5,depth_duration_stimuli/000556_2014-06-09_22-42-56_260595134347_rgbf000214-resize_1/000556_2014-06-09_22-42-56_260595134347_rgbf000214-resize_1-target.png,1000,4.8415,1.5,16629,1001,meters,jsons/v1_VE1000_randls_66_rotated.json,1946245,2378146,43,Man
5,880910,DepthScenes,duration_manipulation_targetAtFixation,jsons/v1_VE1000_randls_66_rotated.json,http://54.235.29.9/FacialAge/BNav_EC2/DepthDuration/v2_depth_duration_MTurk/v2_DepthDuration_HTML.html#251,251,1366,768,1366,768,8-29-2022,13-25-43,6,depth_duration_stimuli/001158_2014-06-17_15-32-16_260595134347_rgbf000138-resize_2/001158_2014-06-17_15-32-16_260595134347_rgbf000138-resize_2-target.png,1000,4.5315,2.9,5146,1000,meters,jsons/v1_VE1000_randls_66_rotated.json,1946245,2378146,43,Man
6,880910,DepthScenes,duration_manipulation_targetAtFixation,jsons/v1_VE1000_randls_66_rotated.json,http://54.235.29.9/FacialAge/BNav_EC2/DepthDuration/v2_depth_duration_MTurk/v2_DepthDuration_HTML.html#251,251,1366,768,1366,768,8-29-2022,13-25-43,7,depth_duration_stimuli/001450_2014-06-19_17-02-03_260595134347_rgbf000203-resize_4/001450_2014-06-19_17-02-03_260595134347_rgbf000203-resize_4-target.png,1000,4.0106666666667,1.9,15318,1001,meters,jsons/v1_VE1000_randls_66_rotated.json,1946245,2378146,43,Man
7,880910,DepthScenes,duration_manipulation_targetAtFixation,jsons/v1_VE1000_randls_66_rotated.json,http://54.235.29.9/FacialAge/BNav_EC2/DepthDuration/v2_depth_duration_MTurk/v2_DepthDuration_HTML.html#251,251,1366,768,1366,768,8-29-2022,13-25-43,8,depth_duration_stimuli/001449_2014-06-19_17-01-27_260595134347_rgbf000116-resize_2/001449_2014-06-19_17-01-27_260595134347_rgbf000116-resize_2-target.png,1000,3.452,1.6,5518,1001,meters,jsons/v1_VE1000_randls_66_rotated.json,1946245,2378146,43,Man
8,880910,DepthScenes,duration_manipulation_targetAtFixation,jsons/v1_VE1000_randls_66_rotated.json,http://54.235.29.9/FacialAge/BNav_EC2/DepthDuration/v2_depth_duration_MTurk/v2_DepthDuration_HTML.html#251,251,1366,768,1366,768,8-29-2022,13-25-43,9,depth_duration_stimuli/000943_2014-06-09_19-31-07_260595134347_rgbf000128-resize_1/000943_2014-06-09_19-31-07_260595134347_rgbf000128-resize_1-target.png,1000,1.9765,1.0,21271,1001,meters,jsons/v1_VE1000_randls_66_rotated.json,1946245,2378146,43,Man
9,880910,DepthScenes,duration_manipulation_targetAtFixation,jsons/v1_VE1000_randls_66_rotated.json,http://54.235.29.9/FacialAge/BNav_EC2/DepthDuration/v2_depth_duration_MTurk/v2_DepthDuration_HTML.html#251,251,1366,768,1366,768,8-29-2022,13-25-43,10,depth_duration_stimuli/003070_2014-06-15_14-58-27_094959634447_rgbf000150-resize_3/003070_2014-06-15_14-58-27_094959634447_rgbf000150-resize_3-target.png,1000,2.9415,1.2,7644,999,meters,jsons/v1_VE1000_randls_66_rotated.json,1946245,2378146,43,Man
10,880910,DepthScenes,duration_manipulation_targetAtFixation,jsons/v1_VE1000_randls_66_rotated.json,http://54.235.29.9/FacialAge/BNav_EC2/DepthDuration/v2_depth_duration_MTurk/v2_DepthDuration_HTML.html#251,251,1366,768,1366,768,8-29-2022,13-25-43,11,depth_duration_stimuli/002637_2014-06-24_14-51-13_094959634447_rgbf000066-resize_4/002637_2014-06-24_14-51-13_094959634447_rgbf000066-resize_4-target.png,1000,1.9955,1.3,17506,998,meters,jsons/v1_VE1000_randls_66_rotated.json,1946245,2378146,43,Man
11,880910,DepthScenes,duration_manipulation_targetAtFixation,jsons/v1_VE1000_randls_66_rotated.json,http://54.235.29.9/FacialAge/BNav_EC2/DepthDuration/v2_depth_duration_MTurk/v2_DepthDuration_HTML.html#251,251,1366,768,1366,768,8-29-2022,13-25-43,12,depth_duration_stimuli/003534_2014-05-22_15-06-10_094959634447_rgbf000102-resize_4/003534_2014-05-22_15-06-10_094959634447_rgbf000102-resize_4-target.png,1000,1.426,0.5,7631,994,meters,jsons/v1_VE1000_randls_66_rotated.json,1946245,2378146,43,Man
12,880910,DepthScenes,duration_manipulation_targetAtFixation,jsons/v1_VE1000_randls_66_rotated.json,http://54.235.29.9/FacialAge/BNav_EC2/DepthDuration/v2_depth_duration_MTurk/v2_DepthDuration_HTML.html#251,251,1366,768,1366,768,8-29-2022,13-25-43,13,depth_duration_stimuli/002750_2014-06-22_19-08-03_094959634447_rgbf000094-resize_4/002750_2014-06-22_19-08-03_094959634447_rgbf000094-resize_4-target.png,1000,2.354,1.2,12976,1000,meters,jsons/v1_VE1000_randls_66_rotated.json,1946245,2378146,43,Man
13,880910,DepthScenes,duration_manipulation_targetAtFixation,jsons/v1_VE1000_randls_66_rotated.json,http://54.235.29.9/FacialAge/BNav_EC2/DepthDuration/v2_depth_duration_MTurk/v2_DepthDuration_HTML.html#251,251,1366,768,1366,768,8-29-2022,13-25-43,14,depth_duration_stimuli/002549_2014-06-24_13-41-39_094959634447_rgbf000022-resize_3/002549_2014-06-24_13-41-39_094959634447_rgbf000022-resize_3-target.png,1000,1.476,0.9,4488,992,meters,jsons/v1_VE1000_randls_66_rotated.json,1946245,2378146,43,Man
14,880910,DepthScenes,duration_manipulation_targetAtFixation,jsons/v1_VE1000_randls_66_rotated.json,http://54.235.29.9/FacialAge/BNav_EC2/DepthDuration/v2_depth_duration_MTurk/v2_DepthDuration_HTML.html#251,251,1366,768,1366,768,8-29-2022,13-25-43,15,depth_duration_stimuli/001032_2014-06-08_13-23-17_260595134347_rgbf000021-resize_3/001032_2014-06-08_13-23-17_260595134347_rgbf000021-resize_3-target.png,1000,3.2725,1.1,14128,1000,meters,jsons/v1_VE1000_randls_66_rotated.json,1946245,2378146,43,Man
15,880910,DepthScenes,duration_manipulation_targetAtFixation,jsons/v1_VE1000_randls_66_rotated.json,http://54.235.29.9/FacialAge/BNav_EC2/DepthDuration/v2_depth_duration_MTurk/v2_DepthDuration_HTML.html#251,251,1366,768,1366,768,8-29-2022,13-25-43,16,depth_duration_stimuli/001059_2014-06-08_21-53-27_260595134347_rgbf000061-resize_4/001059_2014-06-08_21-53-27_260595134347_rgbf000061-resize_4-target.png,1000,2.4185,0.9,15085,989,meters,jsons/v1_VE1000_randls_66_rotated.json,1946245,2378146,43,Man
16,880910,DepthScenes,duration_manipulation_targetAtFixation,jsons/v1_VE1000_randls_66_rotated.json,http://54.235.29.9/FacialAge/BNav_EC2/DepthDuration/v2_depth_duration_MTurk/v2_DepthDuration_HTML.html#251,251,1366,768,1366,768,8-29-2022,13-25-43,17,depth_duration_stimuli/003048_2014-06-15_13-49-43_094959634447_rgbf000150-resize_1/003048_2014-06-15_13-49-43_094959634447_rgbf000150-resize_1-target.png,1000,4.0035,2.5,12977,1000,meters,jsons/v1_VE1000_randls_66_rotated.json,1946245,2378146,43,Man
17,880910,DepthScenes,duration_manipulation_targetAtFixation,jsons/v1_VE1000_randls_66_rotated.json,http://54.235.29.9/FacialAge/BNav_EC2/DepthDuration/v2_depth_duration_MTurk/v2_DepthDuration_HTML.html#251,251,1366,768,1366,768,8-29-2022,13-25-43,18,depth_duration_stimuli/002043_2014-06-24_20-29-38_260595134347_rgbf000039-resize_4/002043_2014-06-24_20-29-38_260595134347_rgbf000039-resize_4-target.png,1000,2.8435,2.6,5558,1003,meters,jsons/v1_VE1000_randls_66_rotated.json,1946245,2378146,43,Man
18,880910,DepthScenes,duration_manipulation_targetAtFixation,jsons/v1_VE1000_randls_66_rotated.json,http://54.235.29.9/FacialAge/BNav_EC2/DepthDuration/v2_depth_duration_MTurk/v2_DepthDuration_HTML.html#251,251,1366,768,1366,768,8-29-2022,13-25-43,19,depth_duration_stimuli/001498_2014-06-19_17-45-14_260595134347_rgbf000129-resize_4/001498_2014-06-19_17-45-14_260595134347_rgbf000129-resize-original.jpg,1000,1.4075,2.0,13545,999,meters,jsons/v1_VE1000_randls_66_rotated.json,1946245,2378146,43,Man
19,880910,DepthScenes,duration_manipulation_targetAtFixation,jsons/v1_VE1000_randls_66_rotated.json,http://54.235.29.9/FacialAge/BNav_EC2/DepthDuration/v2_depth_duration_MTurk/v2_DepthDuration_HTML.html#251,251,1366,768,1366,768,8-29-2022,13-25-43,20,depth_duration_stimuli/000549_2014-06-08_22-10-24_260595134347_rgbf000247-resize_3/000549_2014-06-08_22-10-24_260595134347_rgbf000247-resize_3-target.png,1000,1.841,0.5,9753,999,meters,jsons/v1_VE1000_randls_66_rotated.json,1946245,2378146,43,Man
20,880910,DepthScenes,duration_manipulation_targetAtFixation,jsons/v1_VE1000_randls_66_rotated.json,http://54.235.29.9/FacialAge/BNav_EC2/DepthDuration/v2_depth_duration_MTurk/v2_DepthDuration_HTML.html#251,251,1366,768,1366,768,8-29-2022,13-25-43,21,depth_duration_stimuli/001055_2014-06-08_18-45-35_260595134347_rgbf000111-resize_4/001055_2014-06-08_18-45-35_260595134347_rgbf000111-resize_4-target.png,1000,2.4290000000000003,2.7,8291,998,meters,jsons/v1_VE1000_randls_66_rotated.json,1946245,2378146,43,Man
21,880910,DepthScenes,duration_manipulation_targetAtFixation,jsons/v1_VE1000_randls_66_rotated.json,http://54.235.29.9/FacialAge/BNav_EC2/DepthDuration/v2_depth_duration_MTurk/v2_DepthDuration_HTML.html#251,251,1366,768,1366,768,8-29-2022,13-25-43,22,depth_duration_stimuli/002344_2014-06-28_20-06-29_260595134347_rgbf000030-resize_1/002344_2014-06-28_20-06-29_260595134347_rgbf000030-resize_1-target.png,1000,1.5795,0.3,15732,1000,meters,jsons/v1_VE1000_randls_66_rotated.json,1946245,2378146,43,Man
22,880910,DepthScenes,duration_manipulation_targetAtFixation,jsons/v1_VE1000_randls_66_rotated.json,http://54.235.29.9/FacialAge/BNav_EC2/DepthDuration/v2_depth_duration_MTurk/v2_DepthDuration_HTML.html#251,251,1366,768,1366,768,8-29-2022,13-25-43,23,depth_duration_stimuli/002725_2014-06-22_11-47-51_094959634447_rgbf000070-resize_1/002725_2014-06-22_11-47-51_094959634447_rgbf000070-resize_1-target.png,1000,2.195,2.6,4702,979,meters,jsons/v1_VE1000_randls_66_rotated.json,1946245,2378146,43,Man
23,880910,DepthScenes,duration_manipulation_targetAtFixation,jsons/v1_VE1000_randls_66_rotated.json,http://54.235.29.9/FacialAge/BNav_EC2/DepthDuration/v2_depth_duration_MTurk/v2_DepthDuration_HTML.html#251,251,1366,768,1366,768,8-29-2022,13-25-43,24,depth_duration_stimuli/002953_2014-06-08_17-32-18_094959634447_rgbf000059-resize_5/002953_2014-06-08_17-32-18_094959634447_rgbf000059-resize_5-target.png,1000,1.551,1.5,13404,999,meters,jsons/v1_VE1000_randls_66_rotated.json,1946245,2378146,43,Man
24,880910,DepthScenes,duration_manipulation_targetAtFixation,jsons/v1_VE1000_randls_66_rotated.json,http://54.235.29.9/FacialAge/BNav_EC2/DepthDuration/v2_depth_duration_MTurk/v2_DepthDuration_HTML.html#251,251,1366,768,1366,768,8-29-2022,13-25-43,25,depth_duration_stimuli/000878_2014-06-08_22-52-45_260595134347_rgbf000045-resize_2/000878_2014-06-08_22-52-45_260595134347_rgbf000045-resize_2-target.png,1000,2.092,1.8,5301,994,meters,jsons/v1_VE1000_randls_66_rotated.json,1946245,2378146,43,Man
25,880910,DepthScenes,duration_manipulation_targetAtFixation,jsons/v1_VE1000_randls_66_rotated.json,http://54.235.29.9/FacialAge/BNav_EC2/DepthDuration/v2_depth_duration_MTurk/v2_DepthDuration_HTML.html#251,251,1366,768,1366,768,8-29-2022,13-25-43,26,depth_duration_stimuli/001392_2014-06-19_16-07-59_260595134347_rgbf000046-resize_1/001392_2014-06-19_16-07-59_260595134347_rgbf000046-resize_1-target.png,1000,4.135,1.6,12543,998,meters,jsons/v1_VE1000_randls_66_rotated.json,1946245,2378146,43,Man
26,880910,DepthScenes,duration_manipulation_targetAtFixation,jsons/v1_VE1000_randls_66_rotated.json,http://54.235.29.9/FacialAge/BNav_EC2/DepthDuration/v2_depth_duration_MTurk/v2_DepthDuration_HTML.html#251,251,1366,768,1366,768,8-29-2022,13-25-43,27,depth_duration_stimuli/001570_2014-06-20_17-21-09_260595134347_rgbf000135-resize_4/001570_2014-06-20_17-21-09_260595134347_rgbf000135-resize_4-target.png,1000,4.467,1.5,4754,999,meters,jsons/v1_VE1000_randls_66_rotated.json,1946245,2378146,43,Man
27,880910,DepthScenes,duration_manipulation_targetAtFixation,jsons/v1_VE1000_randls_66_rotated.json,http://54.235.29.9/FacialAge/BNav_EC2/DepthDuration/v2_depth_duration_MTurk/v2_DepthDuration_HTML.html#251,251,1366,768,1366,768,8-29-2022,13-25-43,28,depth_duration_stimuli/000927_2014-06-09_16-32-30_260595134347_rgbf000123-resize_3/000927_2014-06-09_16-32-30_260595134347_rgbf000123-resize_3-target.png,1000,2.6785,1.8,5892,1001,meters,jsons/v1_VE1000_randls_66_rotated.json,1946245,2378146,43,Man
28,880910,DepthScenes,duration_manipulation_targetAtFixation,jsons/v1_VE1000_randls_66_rotated.json,http://54.235.29.9/FacialAge/BNav_EC2/DepthDuration/v2_depth_duration_MTurk/v2_DepthDuration_HTML.html#251,251,1366,768,1366,768,8-29-2022,13-25-43,29,depth_duration_stimuli/001110_2014-06-15_17-25-28_260595134347_rgbf000150-resize_1/001110_2014-06-15_17-25-28_260595134347_rgbf000150-resize_1-target.png,1000,1.7115,1.2,6236,1000,meters,jsons/v1_VE1000_randls_66_rotated.json,1946245,2378146,43,Man
29,880910,DepthScenes,duration_manipulation_targetAtFixation,jsons/v1_VE1000_randls_66_rotated.json,http://54.235.29.9/FacialAge/BNav_EC2/DepthDuration/v2_depth_duration_MTurk/v2_DepthDuration_HTML.html#251,251,1366,768,1366,768,8-29-2022,13-25-43,30,depth_duration_stimuli/002072_2014-06-24_21-48-06_260595134347_rgbf000115-resize_0/002072_2014-06-24_21-48-06_260595134347_rgbf000115-resize-original.jpg,1000,4.702,0.0,10615,1000,meters,jsons/v1_VE1000_randls_66_rotated.json,1946245,2378146,43,Man
30,880910,DepthScenes,duration_manipulation_targetAtFixation,jsons/v1_VE1000_randls_66_rotated.json,http://54.235.29.9/FacialAge/BNav_EC2/DepthDuration/v2_depth_duration_MTurk/v2_DepthDuration_HTML.html#251,251,1366,768,1366,768,8-29-2022,13-25-43,31,depth_duration_stimuli/003495_2014-05-21_16-01-51_094959634447_rgbf000100-resize_3/003495_2014-05-21_16-01-51_094959634447_rgbf000100-resize_3-target.png,1000,1.6255,0.3,13496,1002,meters,jsons/v1_VE1000_randls_66_rotated.json,1946245,2378146,43,Man
31,880910,DepthScenes,duration_manipulation_targetAtFixation,jsons/v1_VE1000_randls_66_rotated.json,http://54.235.29.9/FacialAge/BNav_EC2/DepthDuration/v2_depth_duration_MTurk/v2_DepthDuration_HTML.html#251,251,1366,768,1366,768,8-29-2022,13-25-43,32,depth_duration_stimuli/001244_2014-06-17_16-47-45_260595134347_rgbf000030-resize_4/001244_2014-06-17_16-47-45_260595134347_rgbf000030-resize_4-target.png,1000,2.0425,0.5,6718,1000,meters,jsons/v1_VE1000_randls_66_rotated.json,1946245,2378146,43,Man
32,880910,DepthScenes,duration_manipulation_targetAtFixation,jsons/v1_VE1000_randls_66_rotated.json,http://54.235.29.9/FacialAge/BNav_EC2/DepthDuration/v2_depth_duration_MTurk/v2_DepthDuration_HTML.html#251,251,1366,768,1366,768,8-29-2022,13-25-43,33,depth_duration_stimuli/002660_2014-06-13_15-44-18_094959634447_rgbf001878-resize_2/002660_2014-06-13_15-44-18_094959634447_rgbf001878-resize_2-target.png,1000,3.576,1.6,14217,999,meters,jsons/v1_VE1000_randls_66_rotated.json,1946245,2378146,43,Man
33,880910,DepthScenes,duration_manipulation_targetAtFixation,jsons/v1_VE1000_randls_66_rotated.json,http://54.235.29.9/FacialAge/BNav_EC2/DepthDuration/v2_depth_duration_MTurk/v2_DepthDuration_HTML.html#251,251,1366,768,1366,768,8-29-2022,13-25-43,34,depth_duration_stimuli/002153_2014-06-25_21-27-18_260595134347_rgbf000038-resize_5/002153_2014-06-25_21-27-18_260595134347_rgbf000038-resize_5-target.png,1000,2.505,1.0,6443,1000,meters,jsons/v1_VE1000_randls_66_rotated.json,1946245,2378146,43,Man
34,880910,DepthScenes,duration_manipulation_targetAtFixation,jsons/v1_VE1000_randls_66_rotated.json,http://54.235.29.9/FacialAge/BNav_EC2/DepthDuration/v2_depth_duration_MTurk/v2_DepthDuration_HTML.html#251,251,1366,768,1366,768,8-29-2022,13-25-43,35,depth_duration_stimuli/000866_2014-06-09_20-45-42_260595134347_rgbf000139-resize_1/000866_2014-06-09_20-45-42_260595134347_rgbf000139-resize_1-target.png,1000,3.2155,1.8,11535,999,meters,jsons/v1_VE1000_randls_66_rotated.json,1946245,2378146,43,Man
35,880910,DepthScenes,duration_manipulation_targetAtFixation,jsons/v1_VE1000_randls_66_rotated.json,http://54.235.29.9/FacialAge/BNav_EC2/DepthDuration/v2_depth_duration_MTurk/v2_DepthDuration_HTML.html#251,251,1366,768,1366,768,8-29-2022,13-25-43,36,depth_duration_stimuli/002989_2014-06-15_12-25-03_094959634447_rgbf000150-resize_3/002989_2014-06-15_12-25-03_094959634447_rgbf000150-resize_3-target.png,1000,4.1975,0.5,7359,999,meters,jsons/v1_VE1000_randls_66_rotated.json,1946245,2378146,43,Man
36,880910,DepthScenes,duration_manipulation_targetAtFixation,jsons/v1_VE1000_randls_66_rotated.json,http://54.235.29.9/FacialAge/BNav_EC2/DepthDuration/v2_depth_duration_MTurk/v2_DepthDuration_HTML.html#251,251,1366,768,1366,768,8-29-2022,13-25-43,37,depth_duration_stimuli/002639_2014-06-24_14-51-37_094959634447_rgbf000074-resize_4/002639_2014-06-24_14-51-37_094959634447_rgbf000074-resize_4-target.png,1000,4.0375,1.5,13051,1002,meters,jsons/v1_VE1000_randls_66_rotated.json,1946245,2378146,43,Man
37,880910,DepthScenes,duration_manipulation_targetAtFixation,jsons/v1_VE1000_randls_66_rotated.json,http://54.235.29.9/FacialAge/BNav_EC2/DepthDuration/v2_depth_duration_MTurk/v2_DepthDuration_HTML.html#251,251,1366,768,1366,768,8-29-2022,13-25-43,38,depth_duration_stimuli/003292_2014-05-14_21-53-49_094959634447_rgbf000100-resize_2/003292_2014-05-14_21-53-49_094959634447_rgbf000100-resize_2-target.png,1000,3.4815,0.6,9434,999,meters,jsons/v1_VE1000_randls_66_rotated.json,1946245,2378146,43,Man
38,880910,DepthScenes,duration_manipulation_targetAtFixation,jsons/v1_VE1000_randls_66_rotated.json,http://54.235.29.9/FacialAge/BNav_EC2/DepthDuration/v2_depth_duration_MTurk/v2_DepthDuration_HTML.html#251,251,1366,768,1366,768,8-29-2022,13-25-43,39,depth_duration_stimuli/001650_2014-06-20_12-09-00_260595134347_rgbf000087-resize_3/001650_2014-06-20_12-09-00_260595134347_rgbf000087-resize_3-target.png,1000,1.9505,0.4,14143,1002,meters,jsons/v1_VE1000_randls_66_rotated.json,1946245,2378146,43,Man
39,880910,DepthScenes,duration_manipulation_targetAtFixation,jsons/v1_VE1000_randls_66_rotated.json,http://54.235.29.9/FacialAge/BNav_EC2/DepthDuration/v2_depth_duration_MTurk/v2_DepthDuration_HTML.html#251,251,1366,768,1366,768,8-29-2022,13-25-43,40,depth_duration_stimuli/000682_2014-06-08_23-14-58_260595134347_rgbf000041-resize_5/000682_2014-06-08_23-14-58_260595134347_rgbf000041-resize_5-target.png,1000,2.7239999999999998,0.6,7832,956,meters,jsons/v1_VE1000_randls_66_rotated.json,1946245,2378146,43,Man
40,880910,DepthScenes,duration_manipulation_targetAtFixation,jsons/v1_VE1000_randls_66_rotated.json,http://54.235.29.9/FacialAge/BNav_EC2/DepthDuration/v2_depth_duration_MTurk/v2_DepthDuration_HTML.html#251,251,1366,768,1366,768,8-29-2022,13-25-43,41,depth_duration_stimuli/000409_2014-06-04_19-23-33_260595134347_rgbf000067-resize_0/000409_2014-06-04_19-23-33_260595134347_rgbf000067-resize_0-target.png,1000,3.7335,1.0,12289,1001,meters,jsons/v1_VE1000_randls_66_rotated.json,1946245,2378146,43,Man
41,880910,DepthScenes,duration_manipulation_targetAtFixation,jsons/v1_VE1000_randls_66_rotated.json,http://54.235.29.9/FacialAge/BNav_EC2/DepthDuration/v2_depth_duration_MTurk/v2_DepthDuration_HTML.html#251,251,1366,768,1366,768,8-29-2022,13-25-43,42,depth_duration_stimuli/002663_2014-06-13_15-50-26_094959634447_rgbf000075-resize_1/002663_2014-06-13_15-50-26_094959634447_rgbf000075-resize_1-target.png,1000,4.7495,2.0,5736,1001,meters,jsons/v1_VE1000_randls_66_rotated.json,1946245,2378146,43,Man
42,880910,DepthScenes,duration_manipulation_targetAtFixation,jsons/v1_VE1000_randls_66_rotated.json,http://54.235.29.9/FacialAge/BNav_EC2/DepthDuration/v2_depth_duration_MTurk/v2_DepthDuration_HTML.html#251,251,1366,768,1366,768,8-29-2022,13-25-43,43,depth_duration_stimuli/003129_2014-05-12_10-48-10_094959634447_rgbf000100-resize_0/003129_2014-05-12_10-48-10_094959634447_rgbf000100-resize_0-target.png,1000,4.9305,2.6,18340,997,meters,jsons/v1_VE1000_randls_66_rotated.json,1946245,2378146,43,Man
43,880910,DepthScenes,duration_manipulation_targetAtFixation,jsons/v1_VE1000_randls_66_rotated.json,http://54.235.29.9/FacialAge/BNav_EC2/DepthDuration/v2_depth_duration_MTurk/v2_DepthDuration_HTML.html#251,251,1366,768,1366,768,8-29-2022,13-25-43,44,depth_duration_stimuli/000414_2014-06-04_19-49-13_260595134347_rgbf000044-resize_0/000414_2014-06-04_19-49-13_260595134347_rgbf000044-resize_0-target.png,1000,4.329,2.8,4779,976,meters,jsons/v1_VE1000_randls_66_rotated.json,1946245,2378146,43,Man
44,880910,DepthScenes,duration_manipulation_targetAtFixation,jsons/v1_VE1000_randls_66_rotated.json,http://54.235.29.9/FacialAge/BNav_EC2/DepthDuration/v2_depth_duration_MTurk/v2_DepthDuration_HTML.html#251,251,1366,768,1366,768,8-29-2022,13-25-43,45,depth_duration_stimuli/001617_2014-06-20_11-35-32_260595134347_rgbf000066-resize_1/001617_2014-06-20_11-35-32_260595134347_rgbf000066-resize_1-target.png,1000,3.7910000000000004,1.9,13584,1000,meters,jsons/v1_VE1000_randls_66_rotated.json,1946245,2378146,43,Man
45,880910,DepthScenes,duration_manipulation_targetAtFixation,jsons/v1_VE1000_randls_66_rotated.json,http://54.235.29.9/FacialAge/BNav_EC2/DepthDuration/v2_depth_duration_MTurk/v2_DepthDuration_HTML.html#251,251,1366,768,1366,768,8-29-2022,13-25-43,46,depth_duration_stimuli/001806_2014-06-26_20-50-20_260595134347_rgbf000091-resize_1/001806_2014-06-26_20-50-20_260595134347_rgbf000091-resize_1-target.png,1000,2.7305,1.5,6826,974,meters,jsons/v1_VE1000_randls_66_rotated.json,1946245,2378146,43,Man
46,880910,DepthScenes,duration_manipulation_targetAtFixation,jsons/v1_VE1000_randls_66_rotated.json,http://54.235.29.9/FacialAge/BNav_EC2/DepthDuration/v2_depth_duration_MTurk/v2_DepthDuration_HTML.html#251,251,1366,768,1366,768,8-29-2022,13-25-43,47,depth_duration_stimuli/000677_2014-06-08_23-10-32_260595134347_rgbf000158-resize_6/000677_2014-06-08_23-10-32_260595134347_rgbf000158-resize_6-target.png,1000,3.556,1.6,12091,997,meters,jsons/v1_VE1000_randls_66_rotated.json,1946245,2378146,43,Man
47,880910,DepthScenes,duration_manipulation_targetAtFixation,jsons/v1_VE1000_randls_66_rotated.json,http://54.235.29.9/FacialAge/BNav_EC2/DepthDuration/v2_depth_duration_MTurk/v2_DepthDuration_HTML.html#251,251,1366,768,1366,768,8-29-2022,13-25-43,48,depth_duration_stimuli/001029_2014-06-08_13-17-57_260595134347_rgbf000065-resize_1/001029_2014-06-08_13-17-57_260595134347_rgbf000065-resize_1-target.png,1000,3.0835,1.3,10585,1017,meters,jsons/v1_VE1000_randls_66_rotated.json,1946245,2378146,43,Man
48,880910,DepthScenes,duration_manipulation_targetAtFixation,jsons/v1_VE1000_randls_66_rotated.json,http://54.235.29.9/FacialAge/BNav_EC2/DepthDuration/v2_depth_duration_MTurk/v2_DepthDuration_HTML.html#251,251,1366,768,1366,768,8-29-2022,13-25-43,49,depth_duration_stimuli/001170_2014-06-17_15-43-44_260595134347_rgbf000096-resize_6/001170_2014-06-17_15-43-44_260595134347_rgbf000096-resize-original.jpg,1000,1.1909999999999998,0.0,18583,999,meters,jsons/v1_VE1000_randls_66_rotated.json,1946245,2378146,43,Man
49,880910,DepthScenes,duration_manipulation_targetAtFixation,jsons/v1_VE1000_randls_66_rotated.json,http://54.235.29.9/FacialAge/BNav_EC2/DepthDuration/v2_depth_duration_MTurk/v2_DepthDuration_HTML.html#251,251,1366,768,1366,768,8-29-2022,13-25-43,50,depth_duration_stimuli/002657_2014-06-13_15-29-54_094959634447_rgbf000150-resize_1/002657_2014-06-13_15-29-54_094959634447_rgbf000150-resize_1-target.png,1000,4.919,1.5,14068,1015,meters,jsons/v1_VE1000_randls_66_rotated.json,1946245,2378146,43,Man
50,880910,DepthScenes,duration_manipulation_targetAtFixation,jsons/v1_VE1000_randls_66_rotated.json,http://54.235.29.9/FacialAge/BNav_EC2/DepthDuration/v2_depth_duration_MTurk/v2_DepthDuration_HTML.html#251,251,1366,768,1366,768,8-29-2022,13-25-43,51,depth_duration_stimuli/002375_2014-06-28_20-13-44_260595134347_rgbf000032-resize_1/002375_2014-06-28_20-13-44_260595134347_rgbf000032-resize_1-target.png,1000,4.0175,1.0,5661,999,meters,jsons/v1_VE1000_randls_66_rotated.json,1946245,2378146,43,Man
51,880910,DepthScenes,duration_manipulation_targetAtFixation,jsons/v1_VE1000_randls_66_rotated.json,http://54.235.29.9/FacialAge/BNav_EC2/DepthDuration/v2_depth_duration_MTurk/v2_DepthDuration_HTML.html#251,251,1366,768,1366,768,8-29-2022,13-25-43,52,depth_duration_stimuli/000709_2014-06-08_13-51-55_260595134347_rgbf000068-resize_3/000709_2014-06-08_13-51-55_260595134347_rgbf000068-resize_3-target.png,1000,1.8030000000000002,1.0,12758,1000,meters,jsons/v1_VE1000_randls_66_rotated.json,1946245,2378146,43,Man
52,880910,DepthScenes,duration_manipulation_targetAtFixation,jsons/v1_VE1000_randls_66_rotated.json,http://54.235.29.9/FacialAge/BNav_EC2/DepthDuration/v2_depth_duration_MTurk/v2_DepthDuration_HTML.html#251,251,1366,768,1366,768,8-29-2022,13-25-43,53,depth_duration_stimuli/002057_2014-06-24_21-00-13_260595134347_rgbf000120-resize_1/002057_2014-06-24_21-00-13_260595134347_rgbf000120-resize_1-target.png,1000,2.967,1.2,7185,1001,meters,jsons/v1_VE1000_randls_66_rotated.json,1946245,2378146,43,Man
53,880910,DepthScenes,duration_manipulation_targetAtFixation,jsons/v1_VE1000_randls_66_rotated.json,http://54.235.29.9/FacialAge/BNav_EC2/DepthDuration/v2_depth_duration_MTurk/v2_DepthDuration_HTML.html#251,251,1366,768,1366,768,8-29-2022,13-25-43,54,depth_duration_stimuli/001235_2014-06-17_16-37-36_260595134347_rgbf000084-resize_4/001235_2014-06-17_16-37-36_260595134347_rgbf000084-resize_4-target.png,1000,3.6605,1.6,11437,1001,meters,jsons/v1_VE1000_randls_66_rotated.json,1946245,2378146,43,Man
54,880910,DepthScenes,duration_manipulation_targetAtFixation,jsons/v1_VE1000_randls_66_rotated.json,http://54.235.29.9/FacialAge/BNav_EC2/DepthDuration/v2_depth_duration_MTurk/v2_DepthDuration_HTML.html#251,251,1366,768,1366,768,8-29-2022,13-25-43,55,depth_duration_stimuli/000788_2014-06-08_22-34-36_260595134347_rgbf000131-resize_1/000788_2014-06-08_22-34-36_260595134347_rgbf000131-resize_1-target.png,1000,3.359,1.0,9054,992,meters,jsons/v1_VE1000_randls_66_rotated.json,1946245,2378146,43,Man
55,880910,DepthScenes,duration_manipulation_targetAtFixation,jsons/v1_VE1000_randls_66_rotated.json,http://54.235.29.9/FacialAge/BNav_EC2/DepthDuration/v2_depth_duration_MTurk/v2_DepthDuration_HTML.html#251,251,1366,768,1366,768,8-29-2022,13-25-43,56,depth_duration_stimuli/001516_2014-06-20_16-25-09_260595134347_rgbf000076-resize_2/001516_2014-06-20_16-25-09_260595134347_rgbf000076-resize_2-target.png,1000,1.7445,1.3,11781,998,meters,jsons/v1_VE1000_randls_66_rotated.json,1946245,2378146,43,Man
56,880910,DepthScenes,duration_manipulation_targetAtFixation,jsons/v1_VE1000_randls_66_rotated.json,http://54.235.29.9/FacialAge/BNav_EC2/DepthDuration/v2_depth_duration_MTurk/v2_DepthDuration_HTML.html#251,251,1366,768,1366,768,8-29-2022,13-25-43,57,depth_duration_stimuli/002118_2014-06-25_20-32-08_260595134347_rgbf000078-resize_1/002118_2014-06-25_20-32-08_260595134347_rgbf000078-resize_1-target.png,1000,2.6460000000000004,1.6,16040,1003,meters,jsons/v1_VE1000_randls_66_rotated.json,1946245,2378146,43,Man
57,880910,DepthScenes,duration_manipulation_targetAtFixation,jsons/v1_VE1000_randls_66_rotated.json,http://54.235.29.9/FacialAge/BNav_EC2/DepthDuration/v2_depth_duration_MTurk/v2_DepthDuration_HTML.html#251,251,1366,768,1366,768,8-29-2022,13-25-43,58,depth_duration_stimuli/000109_2014-05-14_23-41-52_260595134347_rgbf000035-resize_9/000109_2014-05-14_23-41-52_260595134347_rgbf000035-resize_9-target.png,1000,1.3545,1.0,5347,1000,meters,jsons/v1_VE1000_randls_66_rotated.json,1946245,2378146,43,Man
58,880910,DepthScenes,duration_manipulation_targetAtFixation,jsons/v1_VE1000_randls_66_rotated.json,http://54.235.29.9/FacialAge/BNav_EC2/DepthDuration/v2_depth_duration_MTurk/v2_DepthDuration_HTML.html#251,251,1366,768,1366,768,8-29-2022,13-25-43,59,depth_duration_stimuli/000470_2014-06-09_19-42-40_260595134347_rgbf000094-resize_1/000470_2014-06-09_19-42-40_260595134347_rgbf000094-resize_1-target.png,1000,1.831,1.0,19727,1000,meters,jsons/v1_VE1000_randls_66_rotated.json,1946245,2378146,43,Man
59,880910,DepthScenes,duration_manipulation_targetAtFixation,jsons/v1_VE1000_randls_66_rotated.json,http://54.235.29.9/FacialAge/BNav_EC2/DepthDuration/v2_depth_duration_MTurk/v2_DepthDuration_HTML.html#251,251,1366,768,1366,768,8-29-2022,13-25-43,60,depth_duration_stimuli/003081_2014-06-15_15-19-16_094959634447_rgbf000150-resize_1/003081_2014-06-15_15-19-16_094959634447_rgbf000150-resize_1-target.png,1000,3.9125,1.3,11414,987,meters,jsons/v1_VE1000_randls_66_rotated.json,1946245,2378146,43,Man
60,880910,DepthScenes,duration_manipulation_targetAtFixation,jsons/v1_VE1000_randls_66_rotated.json,http://54.235.29.9/FacialAge/BNav_EC2/DepthDuration/v2_depth_duration_MTurk/v2_DepthDuration_HTML.html#251,251,1366,768,1366,768,8-29-2022,13-25-43,61,depth_duration_stimuli/001417_2014-06-19_16-25-36_260595134347_rgbf000115-resize_5/001417_2014-06-19_16-25-36_260595134347_rgbf000115-resize_5-target.png,1000,4.6255,0.5,7971,999,meters,jsons/v1_VE1000_randls_66_rotated.json,1946245,2378146,43,Man
61,880910,DepthScenes,duration_manipulation_targetAtFixation,jsons/v1_VE1000_randls_66_rotated.json,http://54.235.29.9/FacialAge/BNav_EC2/DepthDuration/v2_depth_duration_MTurk/v2_DepthDuration_HTML.html#251,251,1366,768,1366,768,8-29-2022,13-25-43,62,depth_duration_stimuli/003079_2014-06-15_15-18-20_094959634447_rgbf000152-resize_8/003079_2014-06-15_15-18-20_094959634447_rgbf000152-resize_8-target.png,1000,2.8775,2.9,15863,1000,meters,jsons/v1_VE1000_randls_66_rotated.json,1946245,2378146,43,Man
62,880910,DepthScenes,duration_manipulation_targetAtFixation,jsons/v1_VE1000_randls_66_rotated.json,http://54.235.29.9/FacialAge/BNav_EC2/DepthDuration/v2_depth_duration_MTurk/v2_DepthDuration_HTML.html#251,251,1366,768,1366,768,8-29-2022,13-25-43,63,depth_duration_stimuli/000506_2014-06-08_23-21-00_260595134347_rgbf000070-resize_7/000506_2014-06-08_23-21-00_260595134347_rgbf000070-resize_7-target.png,1000,4.0585,1.0,6785,1003,meters,jsons/v1_VE1000_randls_66_rotated.json,1946245,2378146,43,Man
63,880910,DepthScenes,duration_manipulation_targetAtFixation,jsons/v1_VE1000_randls_66_rotated.json,http://54.235.29.9/FacialAge/BNav_EC2/DepthDuration/v2_depth_duration_MTurk/v2_DepthDuration_HTML.html#251,251,1366,768,1366,768,8-29-2022,13-25-43,64,depth_duration_stimuli/000854_2014-06-09_19-43-13_260595134347_rgbf000066-resize_0/000854_2014-06-09_19-43-13_260595134347_rgbf000066-resize_0-target.png,1000,3.068,1.4,13112,989,meters,jsons/v1_VE1000_randls_66_rotated.json,1946245,2378146,43,Man
64,880910,DepthScenes,duration_manipulation_targetAtFixation,jsons/v1_VE1000_randls_66_rotated.json,http://54.235.29.9/FacialAge/BNav_EC2/DepthDuration/v2_depth_duration_MTurk/v2_DepthDuration_HTML.html#251,251,1366,768,1366,768,8-29-2022,13-25-43,65,depth_duration_stimuli/000758_2014-06-08_22-05-08_260595134347_rgbf000085-resize_0/000758_2014-06-08_22-05-08_260595134347_rgbf000085-resize_0-target.png,1000,3.3810000000000002,1.0,6437,995,meters,jsons/v1_VE1000_randls_66_rotated.json,1946245,2378146,43,Man
65,880910,DepthScenes,duration_manipulation_targetAtFixation,jsons/v1_VE1000_randls_66_rotated.json,http://54.235.29.9/FacialAge/BNav_EC2/DepthDuration/v2_depth_duration_MTurk/v2_DepthDuration_HTML.html#251,251,1366,768,1366,768,8-29-2022,13-25-43,66,depth_duration_stimuli/001540_2014-06-20_17-01-05_260595134347_rgbf000086-resize_2/001540_2014-06-20_17-01-05_260595134347_rgbf000086-resize-original.jpg,1000,1.459,0.0,13770,987,meters,jsons/v1_VE1000_randls_66_rotated.json,1946245,2378146,43,Man
66,880910,DepthScenes,duration_manipulation_targetAtFixation,jsons/v1_VE1000_randls_66_rotated.json,http://54.235.29.9/FacialAge/BNav_EC2/DepthDuration/v2_depth_duration_MTurk/v2_DepthDuration_HTML.html#251,251,1366,768,1366,768,8-29-2022,13-25-43,67,depth_duration_stimuli/003338_2014-05-20_11-01-23_094959634447_rgbf000051-resize_6/003338_2014-05-20_11-01-23_094959634447_rgbf000051-resize_6-target.png,1000,1.693,0.8,12878,1000,meters,jsons/v1_VE1000_randls_66_rotated.json,1946245,2378146,43,Man
67,880910,DepthScenes,duration_manipulation_targetAtFixation,jsons/v1_VE1000_randls_66_rotated.json,http://54.235.29.9/FacialAge/BNav_EC2/DepthDuration/v2_depth_duration_MTurk/v2_DepthDuration_HTML.html#251,251,1366,768,1366,768,8-29-2022,13-25-43,68,depth_duration_stimuli/002509_2014-06-24_13-19-22_094959634447_rgbf000077-resize_0/002509_2014-06-24_13-19-22_094959634447_rgbf000077-resize_0-target.png,1000,1.3065,0.9,7035,998,meters,jsons/v1_VE1000_randls_66_rotated.json,1946245,2378146,43,Man
68,880910,DepthScenes,duration_manipulation_targetAtFixation,jsons/v1_VE1000_randls_66_rotated.json,http://54.235.29.9/FacialAge/BNav_EC2/DepthDuration/v2_depth_duration_MTurk/v2_DepthDuration_HTML.html#251,251,1366,768,1366,768,8-29-2022,13-25-43,69,depth_duration_stimuli/001815_2014-06-26_20-52-55_260595134347_rgbf000020-resize_0/001815_2014-06-26_20-52-55_260595134347_rgbf000020-resize_0-target.png,1000,3.3865,2.6,13799,1000,meters,jsons/v1_VE1000_randls_66_rotated.json,1946245,2378146,43,Man
69,880910,DepthScenes,duration_manipulation_targetAtFixation,jsons/v1_VE1000_randls_66_rotated.json,http://54.235.29.9/FacialAge/BNav_EC2/DepthDuration/v2_depth_duration_MTurk/v2_DepthDuration_HTML.html#251,251,1366,768,1366,768,8-29-2022,13-25-43,70,depth_duration_stimuli/001808_2014-06-26_20-50-58_260595134347_rgbf000029-resize_1/001808_2014-06-26_20-50-58_260595134347_rgbf000029-resize_1-target.png,1000,4.249,1.8,9628,1000,meters,jsons/v1_VE1000_randls_66_rotated.json,1946245,2378146,43,Man
70,880910,DepthScenes,duration_manipulation_targetAtFixation,jsons/v1_VE1000_randls_66_rotated.json,http://54.235.29.9/FacialAge/BNav_EC2/DepthDuration/v2_depth_duration_MTurk/v2_DepthDuration_HTML.html#251,251,1366,768,1366,768,8-29-2022,13-25-43,71,depth_duration_stimuli/000665_2014-06-09_20-42-35_260595134347_rgbf000110-resize_1/000665_2014-06-09_20-42-35_260595134347_rgbf000110-resize_1-target.png,1000,3.057,1.5,6888,1012,meters,jsons/v1_VE1000_randls_66_rotated.json,1946245,2378146,43,Man
71,880910,DepthScenes,duration_manipulation_targetAtFixation,jsons/v1_VE1000_randls_66_rotated.json,http://54.235.29.9/FacialAge/BNav_EC2/DepthDuration/v2_depth_duration_MTurk/v2_DepthDuration_HTML.html#251,251,1366,768,1366,768,8-29-2022,13-25-43,72,depth_duration_stimuli/001150_2014-06-17_15-27-34_260595134347_rgbf000108-resize_2/001150_2014-06-17_15-27-34_260595134347_rgbf000108-resize_2-target.png,1000,4.0325,2.3,15412,998,meters,jsons/v1_VE1000_randls_66_rotated.json,1946245,2378146,43,Man
72,880910,DepthScenes,duration_manipulation_targetAtFixation,jsons/v1_VE1000_randls_66_rotated.json,http://54.235.29.9/FacialAge/BNav_EC2/DepthDuration/v2_depth_duration_MTurk/v2_DepthDuration_HTML.html#251,251,1366,768,1366,768,8-29-2022,13-25-43,73,depth_duration_stimuli/002323_2014-06-28_20-01-54_260595134347_rgbf000051-resize_4/002323_2014-06-28_20-01-54_260595134347_rgbf000051-resize_4-target.png,1000,3.7310000000000003,1.3,12489,998,meters,jsons/v1_VE1000_randls_66_rotated.json,1946245,2378146,43,Man
73,880910,DepthScenes,duration_manipulation_targetAtFixation,jsons/v1_VE1000_randls_66_rotated.json,http://54.235.29.9/FacialAge/BNav_EC2/DepthDuration/v2_depth_duration_MTurk/v2_DepthDuration_HTML.html#251,251,1366,768,1366,768,8-29-2022,13-25-43,74,depth_duration_stimuli/000917_2014-06-09_22-45-29_260595134347_rgbf000149-resize_3/000917_2014-06-09_22-45-29_260595134347_rgbf000149-resize_3-target.png,1000,4.1865,2.3,5247,988,meters,jsons/v1_VE1000_randls_66_rotated.json,1946245,2378146,43,Man
74,880910,DepthScenes,duration_manipulation_targetAtFixation,jsons/v1_VE1000_randls_66_rotated.json,http://54.235.29.9/FacialAge/BNav_EC2/DepthDuration/v2_depth_duration_MTurk/v2_DepthDuration_HTML.html#251,251,1366,768,1366,768,8-29-2022,13-25-43,75,depth_duration_stimuli/003423_2014-05-21_10-23-26_094959634447_rgbf002665-resize_2/003423_2014-05-21_10-23-26_094959634447_rgbf002665-resize_2-target.png,1000,3.2575,2.0,11555,1000,meters,jsons/v1_VE1000_randls_66_rotated.json,1946245,2378146,43,Man
75,880910,DepthScenes,duration_manipulation_targetAtFixation,jsons/v1_VE1000_randls_66_rotated.json,http://54.235.29.9/FacialAge/BNav_EC2/DepthDuration/v2_depth_duration_MTurk/v2_DepthDuration_HTML.html#251,251,1366,768,1366,768,8-29-2022,13-25-43,76,depth_duration_stimuli/002905_2014-06-03_18-04-43_094959634447_rgbf000151-resize_2/002905_2014-06-03_18-04-43_094959634447_rgbf000151-resize_2-target.png,1000,2.0295,1.5,4704,992,meters,jsons/v1_VE1000_randls_66_rotated.json,1946245,2378146,43,Man
76,880910,DepthScenes,duration_manipulation_targetAtFixation,jsons/v1_VE1000_randls_66_rotated.json,http://54.235.29.9/FacialAge/BNav_EC2/DepthDuration/v2_depth_duration_MTurk/v2_DepthDuration_HTML.html#251,251,1366,768,1366,768,8-29-2022,13-25-43,77,depth_duration_stimuli/002949_2014-06-26_15-57-42_094959634447_rgbf000079-resize_1/002949_2014-06-26_15-57-42_094959634447_rgbf000079-resize_1-target.png,1000,1.8915,1.3,8616,990,meters,jsons/v1_VE1000_randls_66_rotated.json,1946245,2378146,43,Man
77,880910,DepthScenes,duration_manipulation_targetAtFixation,jsons/v1_VE1000_randls_66_rotated.json,http://54.235.29.9/FacialAge/BNav_EC2/DepthDuration/v2_depth_duration_MTurk/v2_DepthDuration_HTML.html#251,251,1366,768,1366,768,8-29-2022,13-25-43,78,depth_duration_stimuli/000522_2014-06-08_13-35-06_260595134347_rgbf000244-resize_1/000522_2014-06-08_13-35-06_260595134347_rgbf000244-resize_1-target.png,1000,2.3715,1.2,138851,999,meters,jsons/v1_VE1000_randls_66_rotated.json,1946245,2378146,43,Man
78,880910,DepthScenes,duration_manipulation_targetAtFixation,jsons/v1_VE1000_randls_66_rotated.json,http://54.235.29.9/FacialAge/BNav_EC2/DepthDuration/v2_depth_duration_MTurk/v2_DepthDuration_HTML.html#251,251,1366,768,1366,768,8-29-2022,13-25-43,79,depth_duration_stimuli/001052_2014-06-08_18-24-54_260595134347_rgbf000130-resize_1/001052_2014-06-08_18-24-54_260595134347_rgbf000130-resize_1-target.png,1000,4.1045,1.8,13097,995,meters,jsons/v1_VE1000_randls_66_rotated.json,1946245,2378146,43,Man
79,880910,DepthScenes,duration_manipulation_targetAtFixation,jsons/v1_VE1000_randls_66_rotated.json,http://54.235.29.9/FacialAge/BNav_EC2/DepthDuration/v2_depth_duration_MTurk/v2_DepthDuration_HTML.html#251,251,1366,768,1366,768,8-29-2022,13-25-43,80,depth_duration_stimuli/002988_2014-06-15_12-24-20_094959634447_rgbf000150-resize_1/002988_2014-06-15_12-24-20_094959634447_rgbf000150-resize_1-target.png,1000,4.7669999999999995,1.0,5057,1000,meters,jsons/v1_VE1000_randls_66_rotated.json,1946245,2378146,43,Man
80,880910,DepthScenes,duration_manipulation_targetAtFixation,jsons/v1_VE1000_randls_66_rotated.json,http://54.235.29.9/FacialAge/BNav_EC2/DepthDuration/v2_depth_duration_MTurk/v2_DepthDuration_HTML.html#251,251,1366,768,1366,768,8-29-2022,13-25-43,81,depth_duration_stimuli/000191_2014-05-12_17-07-38_260595134347_rgbf000199-resize_0/000191_2014-05-12_17-07-38_260595134347_rgbf000199-resize_0-target.png,1000,3.7995,1.5,31946,1004,meters,jsons/v1_VE1000_randls_66_rotated.json,1946245,2378146,43,Man
81,880910,DepthScenes,duration_manipulation_targetAtFixation,jsons/v1_VE1000_randls_66_rotated.json,http://54.235.29.9/FacialAge/BNav_EC2/DepthDuration/v2_depth_duration_MTurk/v2_DepthDuration_HTML.html#251,251,1366,768,1366,768,8-29-2022,13-25-43,82,depth_duration_stimuli/000493_2014-06-09_21-01-18_260595134347_rgbf000196-resize_3/000493_2014-06-09_21-01-18_260595134347_rgbf000196-resize_3-target.png,1000,3.44,2.0,4678,1000,meters,jsons/v1_VE1000_randls_66_rotated.json,1946245,2378146,43,Man
82,880910,DepthScenes,duration_manipulation_targetAtFixation,jsons/v1_VE1000_randls_66_rotated.json,http://54.235.29.9/FacialAge/BNav_EC2/DepthDuration/v2_depth_duration_MTurk/v2_DepthDuration_HTML.html#251,251,1366,768,1366,768,8-29-2022,13-25-43,83,depth_duration_stimuli/003587_2014-05-23_16-48-02_094959634447_rgbf002384-resize_2/003587_2014-05-23_16-48-02_094959634447_rgbf002384-resize_2-target.png,1000,1.357,0.6,11838,999,meters,jsons/v1_VE1000_randls_66_rotated.json,1946245,2378146,43,Man
83,880910,DepthScenes,duration_manipulation_targetAtFixation,jsons/v1_VE1000_randls_66_rotated.json,http://54.235.29.9/FacialAge/BNav_EC2/DepthDuration/v2_depth_duration_MTurk/v2_DepthDuration_HTML.html#251,251,1366,768,1366,768,8-29-2022,13-25-43,84,depth_duration_stimuli/001167_2014-06-17_15-38-07_260595134347_rgbf000108-resize_0/001167_2014-06-17_15-38-07_260595134347_rgbf000108-resize_0-target.png,1000,1.8505,0.8,6261,1000,meters,jsons/v1_VE1000_randls_66_rotated.json,1946245,2378146,43,Man
84,880910,DepthScenes,duration_manipulation_targetAtFixation,jsons/v1_VE1000_randls_66_rotated.json,http://54.235.29.9/FacialAge/BNav_EC2/DepthDuration/v2_depth_duration_MTurk/v2_DepthDuration_HTML.html#251,251,1366,768,1366,768,8-29-2022,13-25-43,85,depth_duration_stimuli/000103_2014-05-14_22-01-17_260595134347_rgbf000152-resize_5/000103_2014-05-14_22-01-17_260595134347_rgbf000152-resize_5-target.png,1000,1.993,1.3,13632,1014,meters,jsons/v1_VE1000_randls_66_rotated.json,1946245,2378146,43,Man
85,880910,DepthScenes,duration_manipulation_targetAtFixation,jsons/v1_VE1000_randls_66_rotated.json,http://54.235.29.9/FacialAge/BNav_EC2/DepthDuration/v2_depth_duration_MTurk/v2_DepthDuration_HTML.html#251,251,1366,768,1366,768,8-29-2022,13-25-43,86,depth_duration_stimuli/001555_2014-06-20_17-12-10_260595134347_rgbf000065-resize_4/001555_2014-06-20_17-12-10_260595134347_rgbf000065-resize_4-target.png,1000,1.633,1.2,6374,999,meters,jsons/v1_VE1000_randls_66_rotated.json,1946245,2378146,43,Man
86,880910,DepthScenes,duration_manipulation_targetAtFixation,jsons/v1_VE1000_randls_66_rotated.json,http://54.235.29.9/FacialAge/BNav_EC2/DepthDuration/v2_depth_duration_MTurk/v2_DepthDuration_HTML.html#251,251,1366,768,1366,768,8-29-2022,13-25-43,87,depth_duration_stimuli/002414_2014-06-28_20-24-58_260595134347_rgbf000067-resize_4/002414_2014-06-28_20-24-58_260595134347_rgbf000067-resize_4-target.png,1000,4.363,1.8,13146,999,meters,jsons/v1_VE1000_randls_66_rotated.json,1946245,2378146,43,Man
87,880910,DepthScenes,duration_manipulation_targetAtFixation,jsons/v1_VE1000_randls_66_rotated.json,http://54.235.29.9/FacialAge/BNav_EC2/DepthDuration/v2_depth_duration_MTurk/v2_DepthDuration_HTML.html#251,251,1366,768,1366,768,8-29-2022,13-25-43,88,depth_duration_stimuli/000773_2014-06-08_22-24-54_260595134347_rgbf000093-resize_1/000773_2014-06-08_22-24-54_260595134347_rgbf000093-resize_1-target.png,1000,4.973,0.3,6253,983,meters,jsons/v1_VE1000_randls_66_rotated.json,1946245,2378146,43,Man
88,880910,DepthScenes,duration_manipulation_targetAtFixation,jsons/v1_VE1000_randls_66_rotated.json,http://54.235.29.9/FacialAge/BNav_EC2/DepthDuration/v2_depth_duration_MTurk/v2_DepthDuration_HTML.html#251,251,1366,768,1366,768,8-29-2022,13-25-43,89,depth_duration_stimuli/001132_2014-06-17_14-48-54_260595134347_rgbf000100-resize_2/001132_2014-06-17_14-48-54_260595134347_rgbf000100-resize_2-target.png,1000,3.753,2.5,12862,1000,meters,jsons/v1_VE1000_randls_66_rotated.json,1946245,2378146,43,Man
89,880910,DepthScenes,duration_manipulation_targetAtFixation,jsons/v1_VE1000_randls_66_rotated.json,http://54.235.29.9/FacialAge/BNav_EC2/DepthDuration/v2_depth_duration_MTurk/v2_DepthDuration_HTML.html#251,251,1366,768,1366,768,8-29-2022,13-25-43,90,depth_duration_stimuli/001133_2014-06-17_14-49-16_260595134347_rgbf000100-resize_0/001133_2014-06-17_14-49-16_260595134347_rgbf000100-resize_0-target.png,1000,4.2115,1.8,7979,1011,meters,jsons/v1_VE1000_randls_66_rotated.json,1946245,2378146,43,Man
90,880910,DepthScenes,duration_manipulation_targetAtFixation,jsons/v1_VE1000_randls_66_rotated.json,http://54.235.29.9/FacialAge/BNav_EC2/DepthDuration/v2_depth_duration_MTurk/v2_DepthDuration_HTML.html#251,251,1366,768,1366,768,8-29-2022,13-25-43,91,depth_duration_stimuli/002103_2014-06-25_20-00-40_260595134347_rgbf000049-resize_0/002103_2014-06-25_20-00-40_260595134347_rgbf000049-resize_0-target.png,1000,4.105,2.9,17542,998,meters,jsons/v1_VE1000_randls_66_rotated.json,1946245,2378146,43,Man
91,880910,DepthScenes,duration_manipulation_targetAtFixation,jsons/v1_VE1000_randls_66_rotated.json,http://54.235.29.9/FacialAge/BNav_EC2/DepthDuration/v2_depth_duration_MTurk/v2_DepthDuration_HTML.html#251,251,1366,768,1366,768,8-29-2022,13-25-43,92,depth_duration_stimuli/002039_2014-06-24_20-22-38_260595134347_rgbf000084-resize_1/002039_2014-06-24_20-22-38_260595134347_rgbf000084-resize_1-target.png,1000,4.408,1.0,5928,1003,meters,jsons/v1_VE1000_randls_66_rotated.json,1946245,2378146,43,Man
92,880910,DepthScenes,duration_manipulation_targetAtFixation,jsons/v1_VE1000_randls_66_rotated.json,http://54.235.29.9/FacialAge/BNav_EC2/DepthDuration/v2_depth_duration_MTurk/v2_DepthDuration_HTML.html#251,251,1366,768,1366,768,8-29-2022,13-25-43,93,depth_duration_stimuli/000780_2014-06-08_22-28-29_260595134347_rgbf000126-resize_1/000780_2014-06-08_22-28-29_260595134347_rgbf000126-resize_1-target.png,1000,3.3825,2.5,21694,1000,meters,jsons/v1_VE1000_randls_66_rotated.json,1946245,2378146,43,Man
93,880910,DepthScenes,duration_manipulation_targetAtFixation,jsons/v1_VE1000_randls_66_rotated.json,http://54.235.29.9/FacialAge/BNav_EC2/DepthDuration/v2_depth_duration_MTurk/v2_DepthDuration_HTML.html#251,251,1366,768,1366,768,8-29-2022,13-25-43,94,depth_duration_stimuli/002445_2014-06-28_20-32-16_260595134347_rgbf000029-resize_4/002445_2014-06-28_20-32-16_260595134347_rgbf000029-resize_4-target.png,1000,2.5315,1.5,5816,1000,meters,jsons/v1_VE1000_randls_66_rotated.json,1946245,2378146,43,Man
94,880910,DepthScenes,duration_manipulation_targetAtFixation,jsons/v1_VE1000_randls_66_rotated.json,http://54.235.29.9/FacialAge/BNav_EC2/DepthDuration/v2_depth_duration_MTurk/v2_DepthDuration_HTML.html#251,251,1366,768,1366,768,8-29-2022,13-25-43,95,depth_duration_stimuli/000742_2014-06-08_18-48-09_260595134347_rgbf000164-resize_4/000742_2014-06-08_18-48-09_260595134347_rgbf000164-resize_4-target.png,1000,4.632,1.7,13183,1000,meters,jsons/v1_VE1000_randls_66_rotated.json,1946245,2378146,43,Man
95,880910,DepthScenes,duration_manipulation_targetAtFixation,jsons/v1_VE1000_randls_66_rotated.json,http://54.235.29.9/FacialAge/BNav_EC2/DepthDuration/v2_depth_duration_MTurk/v2_DepthDuration_HTML.html#251,251,1366,768,1366,768,8-29-2022,13-25-43,96,depth_duration_stimuli/001066_2014-06-08_22-03-20_260595134347_rgbf000066-resize_4/001066_2014-06-08_22-03-20_260595134347_rgbf000066-resize_4-target.png,1000,4.2330000000000005,1.2,4513,1000,meters,jsons/v1_VE1000_randls_66_rotated.json,1946245,2378146,43,Man
96,880910,DepthScenes,duration_manipulation_targetAtFixation,jsons/v1_VE1000_randls_66_rotated.json,http://54.235.29.9/FacialAge/BNav_EC2/DepthDuration/v2_depth_duration_MTurk/v2_DepthDuration_HTML.html#251,251,1366,768,1366,768,8-29-2022,13-25-43,97,depth_duration_stimuli/002875_2014-06-01_15-19-00_094959634447_rgbf000151-resize_1/002875_2014-06-01_15-19-00_094959634447_rgbf000151-resize_1-target.png,1000,1.9675,1.3,14665,997,meters,jsons/v1_VE1000_randls_66_rotated.json,1946245,2378146,43,Man
97,880910,DepthScenes,duration_manipulation_targetAtFixation,jsons/v1_VE1000_randls_66_rotated.json,http://54.235.29.9/FacialAge/BNav_EC2/DepthDuration/v2_depth_duration_MTurk/v2_DepthDuration_HTML.html#251,251,1366,768,1366,768,8-29-2022,13-25-43,98,depth_duration_stimuli/001011_2014-06-08_23-18-54_260595134347_rgbf000044-resize_4/001011_2014-06-08_23-18-54_260595134347_rgbf000044-resize_4-target.png,1000,2.4730000000000003,1.6,4753,1001,meters,jsons/v1_VE1000_randls_66_rotated.json,1946245,2378146,43,Man
98,880910,DepthScenes,duration_manipulation_targetAtFixation,jsons/v1_VE1000_randls_66_rotated.json,http://54.235.29.9/FacialAge/BNav_EC2/DepthDuration/v2_depth_duration_MTurk/v2_DepthDuration_HTML.html#251,251,1366,768,1366,768,8-29-2022,13-25-43,99,depth_duration_stimuli/001222_2014-06-17_16-24-06_260595134347_rgbf000073-resize_0/001222_2014-06-17_16-24-06_260595134347_rgbf000073-resize-original.jpg,1000,1.4385,0.0,14761,1001,meters,jsons/v1_VE1000_randls_66_rotated.json,1946245,2378146,43,Man
99,880910,DepthScenes,duration_manipulation_targetAtFixation,jsons/v1_VE1000_randls_66_rotated.json,http://54.235.29.9/FacialAge/BNav_EC2/DepthDuration/v2_depth_duration_MTurk/v2_DepthDuration_HTML.html#251,251,1366,768,1366,768,8-29-2022,13-25-43,100,depth_duration_stimuli/002136_2014-06-25_21-18-03_260595134347_rgbf000109-resize_3/002136_2014-06-25_21-18-03_260595134347_rgbf000109-resize_3-target.png,1000,1.9569999999999999,1.0,13267,1001,meters,jsons/v1_VE1000_randls_66_rotated.json,1946245,2378146,43,Man
100,880910,DepthScenes,duration_manipulation_targetAtFixation,jsons/v1_VE1000_randls_66_rotated.json,http://54.235.29.9/FacialAge/BNav_EC2/DepthDuration/v2_depth_duration_MTurk/v2_DepthDuration_HTML.html#251,251,1366,768,1366,768,8-29-2022,13-25-43,101,depth_duration_stimuli/002964_2014-06-08_17-46-11_094959634447_rgbf000091-resize_4/002964_2014-06-08_17-46-11_094959634447_rgbf000091-resize_4-target.png,1000,1.6909999999999998,1.5,8073,1000,meters,jsons/v1_VE1000_randls_66_rotated.json,1946245,2378146,43,Man
101,880910,DepthScenes,duration_manipulation_targetAtFixation,jsons/v1_VE1000_randls_66_rotated.json,http://54.235.29.9/FacialAge/BNav_EC2/DepthDuration/v2_depth_duration_MTurk/v2_DepthDuration_HTML.html#251,251,1366,768,1366,768,8-29-2022,13-25-43,102,depth_duration_stimuli/000457_2014-06-08_16-52-43_260595134347_rgbf000199-resize_1/000457_2014-06-08_16-52-43_260595134347_rgbf000199-resize_1-target.png,1000,3.6489999999999996,2.3,12509,999,meters,jsons/v1_VE1000_randls_66_rotated.json,1946245,2378146,43,Man
102,880910,DepthScenes,duration_manipulation_targetAtFixation,jsons/v1_VE1000_randls_66_rotated.json,http://54.235.29.9/FacialAge/BNav_EC2/DepthDuration/v2_depth_duration_MTurk/v2_DepthDuration_HTML.html#251,251,1366,768,1366,768,8-29-2022,13-25-43,103,depth_duration_stimuli/000929_2014-06-09_16-33-19_260595134347_rgbf000139-resize_0/000929_2014-06-09_16-33-19_260595134347_rgbf000139-resize_0-target.png,1000,2.8680000000000003,2.1,4497,1000,meters,jsons/v1_VE1000_randls_66_rotated.json,1946245,2378146,43,Man
103,880910,DepthScenes,duration_manipulation_targetAtFixation,jsons/v1_VE1000_randls_66_rotated.json,http://54.235.29.9/FacialAge/BNav_EC2/DepthDuration/v2_depth_duration_MTurk/v2_DepthDuration_HTML.html#251,251,1366,768,1366,768,8-29-2022,13-25-43,104,depth_duration_stimuli/000734_2014-06-08_17-39-11_260595134347_rgbf000128-resize_2/000734_2014-06-08_17-39-11_260595134347_rgbf000128-resize_2-target.png,1000,4.098,2.3,17309,1006,meters,jsons/v1_VE1000_randls_66_rotated.json,1946245,2378146,43,Man
104,880910,DepthScenes,duration_manipulation_targetAtFixation,jsons/v1_VE1000_randls_66_rotated.json,http://54.235.29.9/FacialAge/BNav_EC2/DepthDuration/v2_depth_duration_MTurk/v2_DepthDuration_HTML.html#251,251,1366,768,1366,768,8-29-2022,13-25-43,105,depth_duration_stimuli/000739_2014-06-08_18-45-58_260595134347_rgbf000068-resize_1/000739_2014-06-08_18-45-58_260595134347_rgbf000068-resize_1-target.png,1000,3.534,1.0,5566,999,meters,jsons/v1_VE1000_randls_66_rotated.json,1946245,2378146,43,Man
105,880910,DepthScenes,duration_manipulation_targetAtFixation,jsons/v1_VE1000_randls_66_rotated.json,http://54.235.29.9/FacialAge/BNav_EC2/DepthDuration/v2_depth_duration_MTurk/v2_DepthDuration_HTML.html#251,251,1366,768,1366,768,8-29-2022,13-25-43,106,depth_duration_stimuli/003490_2014-05-21_15-50-11_094959634447_rgbf000101-resize_3/003490_2014-05-21_15-50-11_094959634447_rgbf000101-resize_3-target.png,1000,3.6445,1.4,18681,997,meters,jsons/v1_VE1000_randls_66_rotated.json,1946245,2378146,43,Man
106,880910,DepthScenes,duration_manipulation_targetAtFixation,jsons/v1_VE1000_randls_66_rotated.json,http://54.235.29.9/FacialAge/BNav_EC2/DepthDuration/v2_depth_duration_MTurk/v2_DepthDuration_HTML.html#251,251,1366,768,1366,768,8-29-2022,13-25-43,107,depth_duration_stimuli/001175_2014-06-17_15-45-55_260595134347_rgbf000129-resize_4/001175_2014-06-17_15-45-55_260595134347_rgbf000129-resize_4-target.png,1000,4.255,0.9,5856,992,meters,jsons/v1_VE1000_randls_66_rotated.json,1946245,2378146,43,Man
107,880910,DepthScenes,duration_manipulation_targetAtFixation,jsons/v1_VE1000_randls_66_rotated.json,http://54.235.29.9/FacialAge/BNav_EC2/DepthDuration/v2_depth_duration_MTurk/v2_DepthDuration_HTML.html#251,251,1366,768,1366,768,8-29-2022,13-25-43,108,depth_duration_stimuli/001214_2014-06-17_16-13-55_260595134347_rgbf000111-resize_0/001214_2014-06-17_16-13-55_260595134347_rgbf000111-resize_0-target.png,1000,2.6505,1.2,18404,1000,meters,jsons/v1_VE1000_randls_66_rotated.json,1946245,2378146,43,Man
108,880910,DepthScenes,duration_manipulation_targetAtFixation,jsons/v1_VE1000_randls_66_rotated.json,http://54.235.29.9/FacialAge/BNav_EC2/DepthDuration/v2_depth_duration_MTurk/v2_DepthDuration_HTML.html#251,251,1366,768,1366,768,8-29-2022,13-25-43,109,depth_duration_stimuli/000810_2014-06-08_17-20-01_260595134347_rgbf000105-resize_0/000810_2014-06-08_17-20-01_260595134347_rgbf000105-resize_0-target.png,1000,1.4865,1.0,8046,999,meters,jsons/v1_VE1000_randls_66_rotated.json,1946245,2378146,43,Man
109,880910,DepthScenes,duration_manipulation_targetAtFixation,jsons/v1_VE1000_randls_66_rotated.json,http://54.235.29.9/FacialAge/BNav_EC2/DepthDuration/v2_depth_duration_MTurk/v2_DepthDuration_HTML.html#251,251,1366,768,1366,768,8-29-2022,13-25-43,110,depth_duration_stimuli/000691_2014-06-08_13-08-50_260595134347_rgbf000132-resize_3/000691_2014-06-08_13-08-50_260595134347_rgbf000132-resize_3-target.png,1000,4.1530000000000005,0.095,23990,1000,meters,jsons/v1_VE1000_randls_66_rotated.json,1946245,2378146,43,Man
110,880910,DepthScenes,duration_manipulation_targetAtFixation,jsons/v1_VE1000_randls_66_rotated.json,http://54.235.29.9/FacialAge/BNav_EC2/DepthDuration/v2_depth_duration_MTurk/v2_DepthDuration_HTML.html#251,251,1366,768,1366,768,8-29-2022,13-25-43,111,depth_duration_stimuli/002213_2014-06-28_18-37-58_260595134347_rgbf000055-resize_1/002213_2014-06-28_18-37-58_260595134347_rgbf000055-resize_1-target.png,1000,3.62,1.85,9805,999,meters,jsons/v1_VE1000_randls_66_rotated.json,1946245,2378146,43,Man
111,880910,DepthScenes,duration_manipulation_targetAtFixation,jsons/v1_VE1000_randls_66_rotated.json,http://54.235.29.9/FacialAge/BNav_EC2/DepthDuration/v2_depth_duration_MTurk/v2_DepthDuration_HTML.html#251,251,1366,768,1366,768,8-29-2022,13-25-43,112,depth_duration_stimuli/001447_2014-06-19_17-00-32_260595134347_rgbf000082-resize_5/001447_2014-06-19_17-00-32_260595134347_rgbf000082-resize_5-target.png,1000,4.13775,1.6,10666,997,meters,jsons/v1_VE1000_randls_66_rotated.json,1946245,2378146,43,Man
112,880910,DepthScenes,duration_manipulation_targetAtFixation,jsons/v1_VE1000_randls_66_rotated.json,http://54.235.29.9/FacialAge/BNav_EC2/DepthDuration/v2_depth_duration_MTurk/v2_DepthDuration_HTML.html#251,251,1366,768,1366,768,8-29-2022,13-25-43,113,depth_duration_stimuli/000447_2014-06-08_16-15-46_260595134347_rgbf000130-resize_1/000447_2014-06-08_16-15-46_260595134347_rgbf000130-resize_1-target.png,1000,4.479,1.2,8132,1000,meters,jsons/v1_VE1000_randls_66_rotated.json,1946245,2378146,43,Man
113,880910,DepthScenes,duration_manipulation_targetAtFixation,jsons/v1_VE1000_randls_66_rotated.json,http://54.235.29.9/FacialAge/BNav_EC2/DepthDuration/v2_depth_duration_MTurk/v2_DepthDuration_HTML.html#251,251,1366,768,1366,768,8-29-2022,13-25-43,114,depth_duration_stimuli/003010_2014-06-15_12-54-35_094959634447_rgbf000112-resize_0/003010_2014-06-15_12-54-35_094959634447_rgbf000112-resize_0-target.png,1000,3.1185,1.4,9621,1000,meters,jsons/v1_VE1000_randls_66_rotated.json,1946245,2378146,43,Man
114,880910,DepthScenes,duration_manipulation_targetAtFixation,jsons/v1_VE1000_randls_66_rotated.json,http://54.235.29.9/FacialAge/BNav_EC2/DepthDuration/v2_depth_duration_MTurk/v2_DepthDuration_HTML.html#251,251,1366,768,1366,768,8-29-2022,13-25-43,115,depth_duration_stimuli/001810_2014-06-26_20-51-35_260595134347_rgbf000040-resize_3/001810_2014-06-26_20-51-35_260595134347_rgbf000040-resize_3-target.png,1000,2.2525,1.3,5426,992,meters,jsons/v1_VE1000_randls_66_rotated.json,1946245,2378146,43,Man
115,880910,DepthScenes,duration_manipulation_targetAtFixation,jsons/v1_VE1000_randls_66_rotated.json,http://54.235.29.9/FacialAge/BNav_EC2/DepthDuration/v2_depth_duration_MTurk/v2_DepthDuration_HTML.html#251,251,1366,768,1366,768,8-29-2022,13-25-43,116,depth_duration_stimuli/002425_2014-06-28_20-27-29_260595134347_rgbf000031-resize_8/002425_2014-06-28_20-27-29_260595134347_rgbf000031-resize_8-target.png,1000,3.8960000000000004,1.5,14346,1000,meters,jsons/v1_VE1000_randls_66_rotated.json,1946245,2378146,43,Man
116,880910,DepthScenes,duration_manipulation_targetAtFixation,jsons/v1_VE1000_randls_66_rotated.json,http://54.235.29.9/FacialAge/BNav_EC2/DepthDuration/v2_depth_duration_MTurk/v2_DepthDuration_HTML.html#251,251,1366,768,1366,768,8-29-2022,13-25-43,117,depth_duration_stimuli/000642_2014-06-08_16-59-25_260595134347_rgbf000098-resize_2/000642_2014-06-08_16-59-25_260595134347_rgbf000098-resize_2-target.png,1000,2.8815,1.5,12619,1002,meters,jsons/v1_VE1000_randls_66_rotated.json,1946245,2378146,43,Man
117,880910,DepthScenes,duration_manipulation_targetAtFixation,jsons/v1_VE1000_randls_66_rotated.json,http://54.235.29.9/FacialAge/BNav_EC2/DepthDuration/v2_depth_duration_MTurk/v2_DepthDuration_HTML.html#251,251,1366,768,1366,768,8-29-2022,13-25-43,118,depth_duration_stimuli/002209_2014-06-28_18-36-10_260595134347_rgbf000051-resize_1/002209_2014-06-28_18-36-10_260595134347_rgbf000051-resize_1-target.png,1000,2.057,0.6,14984,999,meters,jsons/v1_VE1000_randls_66_rotated.json,1946245,2378146,43,Man
118,880910,DepthScenes,duration_manipulation_targetAtFixation,jsons/v1_VE1000_randls_66_rotated.json,http://54.235.29.9/FacialAge/BNav_EC2/DepthDuration/v2_depth_duration_MTurk/v2_DepthDuration_HTML.html#251,251,1366,768,1366,768,8-29-2022,13-25-43,119,depth_duration_stimuli/002763_2014-06-22_19-13-10_094959634447_rgbf000075-resize_4/002763_2014-06-22_19-13-10_094959634447_rgbf000075-resize_4-target.png,1000,1.68375,1.2,6327,1000,meters,jsons/v1_VE1000_randls_66_rotated.json,1946245,2378146,43,Man
119,880910,DepthScenes,duration_manipulation_targetAtFixation,jsons/v1_VE1000_randls_66_rotated.json,http://54.235.29.9/FacialAge/BNav_EC2/DepthDuration/v2_depth_duration_MTurk/v2_DepthDuration_HTML.html#251,251,1366,768,1366,768,8-29-2022,13-25-43,120,depth_duration_stimuli/000787_2014-06-08_22-33-53_260595134347_rgbf000175-resize_1/000787_2014-06-08_22-33-53_260595134347_rgbf000175-resize-original.jpg,1000,4.784,0.0,15237,1006,meters,jsons/v1_VE1000_randls_66_rotated.json,1946245,2378146,43,Man
120,880910,DepthScenes,duration_manipulation_targetAtFixation,jsons/v1_VE1000_randls_66_rotated.json,http://54.235.29.9/FacialAge/BNav_EC2/DepthDuration/v2_depth_duration_MTurk/v2_DepthDuration_HTML.html#251,251,1366,768,1366,768,8-29-2022,13-25-43,121,depth_duration_stimuli/002678_2014-06-13_16-15-32_094959634447_rgbf000151-resize_6/002678_2014-06-13_16-15-32_094959634447_rgbf000151-resize_6-target.png,1000,2.1830000000000003,1.4,6818,1000,meters,jsons/v1_VE1000_randls_66_rotated.json,1946245,2378146,43,Man
121,880910,DepthScenes,duration_manipulation_targetAtFixation,jsons/v1_VE1000_randls_66_rotated.json,http://54.235.29.9/FacialAge/BNav_EC2/DepthDuration/v2_depth_duration_MTurk/v2_DepthDuration_HTML.html#251,251,1366,768,1366,768,8-29-2022,13-25-43,122,depth_duration_stimuli/000368_2014-06-09_15-53-01_260595134347_rgbf000155-resize_2/000368_2014-06-09_15-53-01_260595134347_rgbf000155-resize_2-target.png,1000,2.4859999999999998,0.4,12510,999,meters,jsons/v1_VE1000_randls_66_rotated.json,1946245,2378146,43,Man
122,880910,DepthScenes,duration_manipulation_targetAtFixation,jsons/v1_VE1000_randls_66_rotated.json,http://54.235.29.9/FacialAge/BNav_EC2/DepthDuration/v2_depth_duration_MTurk/v2_DepthDuration_HTML.html#251,251,1366,768,1366,768,8-29-2022,13-25-43,123,depth_duration_stimuli/002758_2014-06-22_19-11-20_094959634447_rgbf000128-resize_1/002758_2014-06-22_19-11-20_094959634447_rgbf000128-resize_1-target.png,1000,2.555,1.6,12568,1001,meters,jsons/v1_VE1000_randls_66_rotated.json,1946245,2378146,43,Man
123,880910,DepthScenes,duration_manipulation_targetAtFixation,jsons/v1_VE1000_randls_66_rotated.json,http://54.235.29.9/FacialAge/BNav_EC2/DepthDuration/v2_depth_duration_MTurk/v2_DepthDuration_HTML.html#251,251,1366,768,1366,768,8-29-2022,13-25-43,124,depth_duration_stimuli/002630_2014-06-24_14-47-50_094959634447_rgbf000055-resize_1/002630_2014-06-24_14-47-50_094959634447_rgbf000055-resize_1-target.png,1000,3.0095,1.6,5262,998,meters,jsons/v1_VE1000_randls_66_rotated.json,1946245,2378146,43,Man
124,880910,DepthScenes,duration_manipulation_targetAtFixation,jsons/v1_VE1000_randls_66_rotated.json,http://54.235.29.9/FacialAge/BNav_EC2/DepthDuration/v2_depth_duration_MTurk/v2_DepthDuration_HTML.html#251,251,1366,768,1366,768,8-29-2022,13-25-43,125,depth_duration_stimuli/002444_2014-06-28_20-32-08_260595134347_rgbf000027-resize_0/002444_2014-06-28_20-32-08_260595134347_rgbf000027-resize_0-target.png,1000,4.388999999999999,1.7,18645,995,meters,jsons/v1_VE1000_randls_66_rotated.json,1946245,2378146,43,Man
125,880910,DepthScenes,duration_manipulation_targetAtFixation,jsons/v1_VE1000_randls_66_rotated.json,http://54.235.29.9/FacialAge/BNav_EC2/DepthDuration/v2_depth_duration_MTurk/v2_DepthDuration_HTML.html#251,251,1366,768,1366,768,8-29-2022,13-25-43,126,depth_duration_stimuli/000436_2014-06-09_22-25-11_260595134347_rgbf000137-resize_1/000436_2014-06-09_22-25-11_260595134347_rgbf000137-resize_1-target.png,1000,4.0705,1.2,6536,998,meters,jsons/v1_VE1000_randls_66_rotated.json,1946245,2378146,43,Man
126,880910,DepthScenes,duration_manipulation_targetAtFixation,jsons/v1_VE1000_randls_66_rotated.json,http://54.235.29.9/FacialAge/BNav_EC2/DepthDuration/v2_depth_duration_MTurk/v2_DepthDuration_HTML.html#251,251,1366,768,1366,768,8-29-2022,13-25-43,127,depth_duration_stimuli/001100_2014-06-15_17-46-26_260595134347_rgbf000225-resize_2/001100_2014-06-15_17-46-26_260595134347_rgbf000225-resize_2-target.png,1000,2.24,0.7,15433,1002,meters,jsons/v1_VE1000_randls_66_rotated.json,1946245,2378146,43,Man
127,880910,DepthScenes,duration_manipulation_targetAtFixation,jsons/v1_VE1000_randls_66_rotated.json,http://54.235.29.9/FacialAge/BNav_EC2/DepthDuration/v2_depth_duration_MTurk/v2_DepthDuration_HTML.html#251,251,1366,768,1366,768,8-29-2022,13-25-43,128,depth_duration_stimuli/002784_2014-06-22_19-26-30_094959634447_rgbf000083-resize_3/002784_2014-06-22_19-26-30_094959634447_rgbf000083-resize_3-target.png,1000,1.8046666666667,0.8,4263,997,meters,jsons/v1_VE1000_randls_66_rotated.json,1946245,2378146,43,Man
128,880910,DepthScenes,duration_manipulation_targetAtFixation,jsons/v1_VE1000_randls_66_rotated.json,http://54.235.29.9/FacialAge/BNav_EC2/DepthDuration/v2_depth_duration_MTurk/v2_DepthDuration_HTML.html#251,251,1366,768,1366,768,8-29-2022,13-25-43,129,depth_duration_stimuli/001828_2014-06-26_21-40-03_260595134347_rgbf000024-resize_0/001828_2014-06-26_21-40-03_260595134347_rgbf000024-resize_0-target.png,1000,4.8260000000000005,0.5,15073,1001,meters,jsons/v1_VE1000_randls_66_rotated.json,1946245,2378146,43,Man
129,880910,DepthScenes,duration_manipulation_targetAtFixation,jsons/v1_VE1000_randls_66_rotated.json,http://54.235.29.9/FacialAge/BNav_EC2/DepthDuration/v2_depth_duration_MTurk/v2_DepthDuration_HTML.html#251,251,1366,768,1366,768,8-29-2022,13-25-43,130,depth_duration_stimuli/000009_2014-05-26_14-32-05_260595134347_rgbf000034-resize_3/000009_2014-05-26_14-32-05_260595134347_rgbf000034-resize_3-target.png,1000,3.8715,1.0,7050,1000,meters,jsons/v1_VE1000_randls_66_rotated.json,1946245,2378146,43,Man
130,880910,DepthScenes,duration_manipulation_targetAtFixation,jsons/v1_VE1000_randls_66_rotated.json,http://54.235.29.9/FacialAge/BNav_EC2/DepthDuration/v2_depth_duration_MTurk/v2_DepthDuration_HTML.html#251,251,1366,768,1366,768,8-29-2022,13-25-43,131,depth_duration_stimuli/002545_2014-06-24_13-38-53_094959634447_rgbf000080-resize_4/002545_2014-06-24_13-38-53_094959634447_rgbf000080-resize_4-target.png,1000,1.9205,1.6,15435,1002,meters,jsons/v1_VE1000_randls_66_rotated.json,1946245,2378146,43,Man
131,880910,DepthScenes,duration_manipulation_targetAtFixation,jsons/v1_VE1000_randls_66_rotated.json,http://54.235.29.9/FacialAge/BNav_EC2/DepthDuration/v2_depth_duration_MTurk/v2_DepthDuration_HTML.html#251,251,1366,768,1366,768,8-29-2022,13-25-43,132,depth_duration_stimuli/001092_2014-06-15_17-34-58_260595134347_rgbf000171-resize_3/001092_2014-06-15_17-34-58_260595134347_rgbf000171-resize_3-target.png,1000,2.6935,1.0,5462,997,meters,jsons/v1_VE1000_randls_66_rotated.json,1946245,2378146,43,Man
132,880910,DepthScenes,duration_manipulation_targetAtFixation,jsons/v1_VE1000_randls_66_rotated.json,http://54.235.29.9/FacialAge/BNav_EC2/DepthDuration/v2_depth_duration_MTurk/v2_DepthDuration_HTML.html#251,251,1366,768,1366,768,8-29-2022,13-25-43,133,depth_duration_stimuli/000137_2014-05-20_17-04-49_260595134347_rgbf000120-resize_1/000137_2014-05-20_17-04-49_260595134347_rgbf000120-resize_1-target.png,1000,3.786,1.9,16237,1005,meters,jsons/v1_VE1000_randls_66_rotated.json,1946245,2378146,43,Man
133,880910,DepthScenes,duration_manipulation_targetAtFixation,jsons/v1_VE1000_randls_66_rotated.json,http://54.235.29.9/FacialAge/BNav_EC2/DepthDuration/v2_depth_duration_MTurk/v2_DepthDuration_HTML.html#251,251,1366,768,1366,768,8-29-2022,13-25-43,134,depth_duration_stimuli/000736_2014-06-08_18-24-15_260595134347_rgbf000206-resize_3/000736_2014-06-08_18-24-15_260595134347_rgbf000206-resize_3-target.png,1000,3.515,2.1,5390,1001,meters,jsons/v1_VE1000_randls_66_rotated.json,1946245,2378146,43,Man
134,880910,DepthScenes,duration_manipulation_targetAtFixation,jsons/v1_VE1000_randls_66_rotated.json,http://54.235.29.9/FacialAge/BNav_EC2/DepthDuration/v2_depth_duration_MTurk/v2_DepthDuration_HTML.html#251,251,1366,768,1366,768,8-29-2022,13-25-43,135,depth_duration_stimuli/000375_2014-06-08_11-17-29_260595134347_rgbf000133-resize_2/000375_2014-06-08_11-17-29_260595134347_rgbf000133-resize-original.jpg,1000,4.718,1.0,9516,997,meters,jsons/v1_VE1000_randls_66_rotated.json,1946245,2378146,43,Man
135,880910,DepthScenes,duration_manipulation_targetAtFixation,jsons/v1_VE1000_randls_66_rotated.json,http://54.235.29.9/FacialAge/BNav_EC2/DepthDuration/v2_depth_duration_MTurk/v2_DepthDuration_HTML.html#251,251,1366,768,1366,768,8-29-2022,13-25-43,136,depth_duration_stimuli/000749_2014-06-08_21-55-06_260595134347_rgbf000070-resize_2/000749_2014-06-08_21-55-06_260595134347_rgbf000070-resize_2-target.png,1000,2.331,1.6,26449,1000,meters,jsons/v1_VE1000_randls_66_rotated.json,1946245,2378146,43,Man
136,880910,DepthScenes,duration_manipulation_targetAtFixation,jsons/v1_VE1000_randls_66_rotated.json,http://54.235.29.9/FacialAge/BNav_EC2/DepthDuration/v2_depth_duration_MTurk/v2_DepthDuration_HTML.html#251,251,1366,768,1366,768,8-29-2022,13-25-43,137,depth_duration_stimuli/002788_2014-06-22_19-36-03_094959634447_rgbf000088-resize_2/002788_2014-06-22_19-36-03_094959634447_rgbf000088-resize_2-target.png,1000,1.6465,0.2,5438,998,meters,jsons/v1_VE1000_randls_66_rotated.json,1946245,2378146,43,Man
137,880910,DepthScenes,duration_manipulation_targetAtFixation,jsons/v1_VE1000_randls_66_rotated.json,http://54.235.29.9/FacialAge/BNav_EC2/DepthDuration/v2_depth_duration_MTurk/v2_DepthDuration_HTML.html#251,251,1366,768,1366,768,8-29-2022,13-25-43,138,depth_duration_stimuli/000483_2014-06-09_20-41-45_260595134347_rgbf000116-resize_4/000483_2014-06-09_20-41-45_260595134347_rgbf000116-resize_4-target.png,1000,1.337,0.4,12124,1061,meters,jsons/v1_VE1000_randls_66_rotated.json,1946245,2378146,43,Man
138,880910,DepthScenes,duration_manipulation_targetAtFixation,jsons/v1_VE1000_randls_66_rotated.json,http://54.235.29.9/FacialAge/BNav_EC2/DepthDuration/v2_depth_duration_MTurk/v2_DepthDuration_HTML.html#251,251,1366,768,1366,768,8-29-2022,13-25-43,139,depth_duration_stimuli/000469_2014-06-09_19-42-10_260595134347_rgbf000081-resize_1/000469_2014-06-09_19-42-10_260595134347_rgbf000081-resize_1-target.png,1000,1.652,0.5,5191,994,meters,jsons/v1_VE1000_randls_66_rotated.json,1946245,2378146,43,Man
139,880910,DepthScenes,duration_manipulation_targetAtFixation,jsons/v1_VE1000_randls_66_rotated.json,http://54.235.29.9/FacialAge/BNav_EC2/DepthDuration/v2_depth_duration_MTurk/v2_DepthDuration_HTML.html#251,251,1366,768,1366,768,8-29-2022,13-25-43,140,depth_duration_stimuli/002568_2014-06-24_13-59-21_094959634447_rgbf000062-resize_4/002568_2014-06-24_13-59-21_094959634447_rgbf000062-resize_4-target.png,1000,3.015,0.6,14472,994,meters,jsons/v1_VE1000_randls_66_rotated.json,1946245,2378146,43,Man
140,880910,DepthScenes,duration_manipulation_targetAtFixation,jsons/v1_VE1000_randls_66_rotated.json,http://54.235.29.9/FacialAge/BNav_EC2/DepthDuration/v2_depth_duration_MTurk/v2_DepthDuration_HTML.html#251,251,1366,768,1366,768,8-29-2022,13-25-43,141,depth_duration_stimuli/003492_2014-05-21_15-50-55_094959634447_rgbf000828-resize_1/003492_2014-05-21_15-50-55_094959634447_rgbf000828-resize_1-target.png,1000,4.06875,2.6,5840,994,meters,jsons/v1_VE1000_randls_66_rotated.json,1946245,2378146,43,Man
141,880910,DepthScenes,duration_manipulation_targetAtFixation,jsons/v1_VE1000_randls_66_rotated.json,http://54.235.29.9/FacialAge/BNav_EC2/DepthDuration/v2_depth_duration_MTurk/v2_DepthDuration_HTML.html#251,251,1366,768,1366,768,8-29-2022,13-25-43,142,depth_duration_stimuli/001584_2014-06-20_11-07-43_260595134347_rgbf000002-resize_1/001584_2014-06-20_11-07-43_260595134347_rgbf000002-resize_1-target.png,1000,3.53,2.9,9806,999,meters,jsons/v1_VE1000_randls_66_rotated.json,1946245,2378146,43,Man
142,880910,DepthScenes,duration_manipulation_targetAtFixation,jsons/v1_VE1000_randls_66_rotated.json,http://54.235.29.9/FacialAge/BNav_EC2/DepthDuration/v2_depth_duration_MTurk/v2_DepthDuration_HTML.html#251,251,1366,768,1366,768,8-29-2022,13-25-43,143,depth_duration_stimuli/003621_2014-05-23_18-06-08_094959634447_rgbf000101-resize_1/003621_2014-05-23_18-06-08_094959634447_rgbf000101-resize_1-target.png,1000,3.9835,2.5,4821,997,meters,jsons/v1_VE1000_randls_66_rotated.json,1946245,2378146,43,Man
143,880910,DepthScenes,duration_manipulation_targetAtFixation,jsons/v1_VE1000_randls_66_rotated.json,http://54.235.29.9/FacialAge/BNav_EC2/DepthDuration/v2_depth_duration_MTurk/v2_DepthDuration_HTML.html#251,251,1366,768,1366,768,8-29-2022,13-25-43,144,depth_duration_stimuli/000635_2014-06-08_16-38-42_260595134347_rgbf000106-resize_1/000635_2014-06-08_16-38-42_260595134347_rgbf000106-resize_1-target.png,1000,2.074,1.9,11032,994,meters,jsons/v1_VE1000_randls_66_rotated.json,1946245,2378146,43,Man
144,880910,DepthScenes,duration_manipulation_targetAtFixation,jsons/v1_VE1000_randls_66_rotated.json,http://54.235.29.9/FacialAge/BNav_EC2/DepthDuration/v2_depth_duration_MTurk/v2_DepthDuration_HTML.html#251,251,1366,768,1366,768,8-29-2022,13-25-43,145,depth_duration_stimuli/002279_2014-06-28_18-55-32_260595134347_rgbf000040-resize_5/002279_2014-06-28_18-55-32_260595134347_rgbf000040-resize_5-target.png,1000,1.5043333333333,1.5,9361,1001,meters,jsons/v1_VE1000_randls_66_rotated.json,1946245,2378146,43,Man
145,880910,DepthScenes,duration_manipulation_targetAtFixation,jsons/v1_VE1000_randls_66_rotated.json,http://54.235.29.9/FacialAge/BNav_EC2/DepthDuration/v2_depth_duration_MTurk/v2_DepthDuration_HTML.html#251,251,1366,768,1366,768,8-29-2022,13-25-43,146,depth_duration_stimuli/002467_2014-06-28_20-38-07_260595134347_rgbf000026-resize_2/002467_2014-06-28_20-38-07_260595134347_rgbf000026-resize_2-target.png,1000,4.742,1.6,11887,1002,meters,jsons/v1_VE1000_randls_66_rotated.json,1946245,2378146,43,Man
146,880910,DepthScenes,duration_manipulation_targetAtFixation,jsons/v1_VE1000_randls_66_rotated.json,http://54.235.29.9/FacialAge/BNav_EC2/DepthDuration/v2_depth_duration_MTurk/v2_DepthDuration_HTML.html#251,251,1366,768,1366,768,8-29-2022,13-25-43,147,depth_duration_stimuli/002570_2014-06-24_13-59-54_094959634447_rgbf000059-resize_0/002570_2014-06-24_13-59-54_094959634447_rgbf000059-resize_0-target.png,1000,4.037,1.0,14179,1001,meters,jsons/v1_VE1000_randls_66_rotated.json,1946245,2378146,43,Man
147,880910,DepthScenes,duration_manipulation_targetAtFixation,jsons/v1_VE1000_randls_66_rotated.json,http://54.235.29.9/FacialAge/BNav_EC2/DepthDuration/v2_depth_duration_MTurk/v2_DepthDuration_HTML.html#251,251,1366,768,1366,768,8-29-2022,13-25-43,148,depth_duration_stimuli/001571_2014-06-20_17-21-32_260595134347_rgbf000089-resize_1/001571_2014-06-20_17-21-32_260595134347_rgbf000089-resize_1-target.png,1000,1.86,2.1,12562,1001,meters,jsons/v1_VE1000_randls_66_rotated.json,1946245,2378146,43,Man
148,880910,DepthScenes,duration_manipulation_targetAtFixation,jsons/v1_VE1000_randls_66_rotated.json,http://54.235.29.9/FacialAge/BNav_EC2/DepthDuration/v2_depth_duration_MTurk/v2_DepthDuration_HTML.html#251,251,1366,768,1366,768,8-29-2022,13-25-43,149,depth_duration_stimuli/002272_2014-06-28_18-53-56_260595134347_rgbf000067-resize_2/002272_2014-06-28_18-53-56_260595134347_rgbf000067-resize_2-target.png,1000,1.138,0.06,5952,999,meters,jsons/v1_VE1000_randls_66_rotated.json,1946245,2378146,43,Man
149,880910,DepthScenes,duration_manipulation_targetAtFixation,jsons/v1_VE1000_randls_66_rotated.json,http://54.235.29.9/FacialAge/BNav_EC2/DepthDuration/v2_depth_duration_MTurk/v2_DepthDuration_HTML.html#251,251,1366,768,1366,768,8-29-2022,13-25-43,150,depth_duration_stimuli/002805_2014-06-22_19-54-03_094959634447_rgbf000079-resize_1/002805_2014-06-22_19-54-03_094959634447_rgbf000079-resize_1-target.png,1000,3.1439999999999997,1.4,11165,995,meters,jsons/v1_VE1000_randls_66_rotated.json,1946245,2378146,43,Man
150,880910,DepthScenes,duration_manipulation_targetAtFixation,jsons/v1_VE1000_randls_66_rotated.json,http://54.235.29.9/FacialAge/BNav_EC2/DepthDuration/v2_depth_duration_MTurk/v2_DepthDuration_HTML.html#251,251,1366,768,1366,768,8-29-2022,13-25-43,151,depth_duration_stimuli/000906_2014-06-08_13-35-43_260595134347_rgbf000155-resize_1/000906_2014-06-08_13-35-43_260595134347_rgbf000155-resize_1-target.png,1000,2.8489999999999998,1.6,4491,1000,meters,jsons/v1_VE1000_randls_66_rotated.json,1946245,2378146,43,Man
151,880910,DepthScenes,duration_manipulation_targetAtFixation,jsons/v1_VE1000_randls_66_rotated.json,http://54.235.29.9/FacialAge/BNav_EC2/DepthDuration/v2_depth_duration_MTurk/v2_DepthDuration_HTML.html#251,251,1366,768,1366,768,8-29-2022,13-25-43,152,depth_duration_stimuli/000569_2014-06-09_22-51-47_260595134347_rgbf000141-resize_3/000569_2014-06-09_22-51-47_260595134347_rgbf000141-resize-original.jpg,1000,4.512,0.0,10883,998,meters,jsons/v1_VE1000_randls_66_rotated.json,1946245,2378146,43,Man
152,880910,DepthScenes,duration_manipulation_targetAtFixation,jsons/v1_VE1000_randls_66_rotated.json,http://54.235.29.9/FacialAge/BNav_EC2/DepthDuration/v2_depth_duration_MTurk/v2_DepthDuration_HTML.html#251,251,1366,768,1366,768,8-29-2022,13-25-43,153,depth_duration_stimuli/000502_2014-06-08_23-02-32_260595134347_rgbf000063-resize_4/000502_2014-06-08_23-02-32_260595134347_rgbf000063-resize_4-target.png,1000,2.431,0.8,12600,999,meters,jsons/v1_VE1000_randls_66_rotated.json,1946245,2378146,43,Man
153,880910,DepthScenes,duration_manipulation_targetAtFixation,jsons/v1_VE1000_randls_66_rotated.json,http://54.235.29.9/FacialAge/BNav_EC2/DepthDuration/v2_depth_duration_MTurk/v2_DepthDuration_HTML.html#251,251,1366,768,1366,768,8-29-2022,13-25-43,154,depth_duration_stimuli/001199_2014-06-17_16-03-48_260595134347_rgbf000077-resize_0/001199_2014-06-17_16-03-48_260595134347_rgbf000077-resize_0-target.png,1000,3.4375,2.1,4488,1001,meters,jsons/v1_VE1000_randls_66_rotated.json,1946245,2378146,43,Man
154,880910,DepthScenes,duration_manipulation_targetAtFixation,jsons/v1_VE1000_randls_66_rotated.json,http://54.235.29.9/FacialAge/BNav_EC2/DepthDuration/v2_depth_duration_MTurk/v2_DepthDuration_HTML.html#251,251,1366,768,1366,768,8-29-2022,13-25-43,155,depth_duration_stimuli/002340_2014-06-28_20-05-46_260595134347_rgbf000113-resize_0/002340_2014-06-28_20-05-46_260595134347_rgbf000113-resize_0-target.png,1000,2.4735,1.9,15903,999,meters,jsons/v1_VE1000_randls_66_rotated.json,1946245,2378146,43,Man
155,880910,DepthScenes,duration_manipulation_targetAtFixation,jsons/v1_VE1000_randls_66_rotated.json,http://54.235.29.9/FacialAge/BNav_EC2/DepthDuration/v2_depth_duration_MTurk/v2_DepthDuration_HTML.html#251,251,1366,768,1366,768,8-29-2022,13-25-43,156,depth_duration_stimuli/001016_2014-06-09_16-16-10_260595134347_rgbf000112-resize_5/001016_2014-06-09_16-16-10_260595134347_rgbf000112-resize_5-target.png,1000,1.6565,1.6,5738,1000,meters,jsons/v1_VE1000_randls_66_rotated.json,1946245,2378146,43,Man
156,880910,DepthScenes,duration_manipulation_targetAtFixation,jsons/v1_VE1000_randls_66_rotated.json,http://54.235.29.9/FacialAge/BNav_EC2/DepthDuration/v2_depth_duration_MTurk/v2_DepthDuration_HTML.html#251,251,1366,768,1366,768,8-29-2022,13-25-43,157,depth_duration_stimuli/002995_2014-06-15_12-31-26_094959634447_rgbf000150-resize_1/002995_2014-06-15_12-31-26_094959634447_rgbf000150-resize_1-target.png,1000,3.8360000000000003,1.9,10958,999,meters,jsons/v1_VE1000_randls_66_rotated.json,1946245,2378146,43,Man
157,880910,DepthScenes,duration_manipulation_targetAtFixation,jsons/v1_VE1000_randls_66_rotated.json,http://54.235.29.9/FacialAge/BNav_EC2/DepthDuration/v2_depth_duration_MTurk/v2_DepthDuration_HTML.html#251,251,1366,768,1366,768,8-29-2022,13-25-43,158,depth_duration_stimuli/002748_2014-06-22_19-07-22_094959634447_rgbf000078-resize_1/002748_2014-06-22_19-07-22_094959634447_rgbf000078-resize_1-target.png,1000,4.6705,3.0,4634,1000,meters,jsons/v1_VE1000_randls_66_rotated.json,1946245,2378146,43,Man
158,880910,DepthScenes,duration_manipulation_targetAtFixation,jsons/v1_VE1000_randls_66_rotated.json,http://54.235.29.9/FacialAge/BNav_EC2/DepthDuration/v2_depth_duration_MTurk/v2_DepthDuration_HTML.html#251,251,1366,768,1366,768,8-29-2022,13-25-43,159,depth_duration_stimuli/002199_2014-06-28_18-33-56_260595134347_rgbf000074-resize_0/002199_2014-06-28_18-33-56_260595134347_rgbf000074-resize_0-target.png,1000,1.996,0.8,9892,1000,meters,jsons/v1_VE1000_randls_66_rotated.json,1946245,2378146,43,Man
159,880910,DepthScenes,duration_manipulation_targetAtFixation,jsons/v1_VE1000_randls_66_rotated.json,http://54.235.29.9/FacialAge/BNav_EC2/DepthDuration/v2_depth_duration_MTurk/v2_DepthDuration_HTML.html#251,251,1366,768,1366,768,8-29-2022,13-25-43,160,depth_duration_stimuli/001056_2014-06-08_18-46-44_260595134347_rgbf000068-resize_0/001056_2014-06-08_18-46-44_260595134347_rgbf000068-resize_0-target.png,1000,2.6625,0.5,4383,1002,meters,jsons/v1_VE1000_randls_66_rotated.json,1946245,2378146,43,Man
160,880910,DepthScenes,duration_manipulation_targetAtFixation,jsons/v1_VE1000_randls_66_rotated.json,http://54.235.29.9/FacialAge/BNav_EC2/DepthDuration/v2_depth_duration_MTurk/v2_DepthDuration_HTML.html#251,251,1366,768,1366,768,8-29-2022,13-25-43,161,depth_duration_stimuli/001136_2014-06-17_15-19-41_260595134347_rgbf000076-resize_3/001136_2014-06-17_15-19-41_260595134347_rgbf000076-resize_3-target.png,1000,1.8655,2.4,8702,1004,meters,jsons/v1_VE1000_randls_66_rotated.json,1946245,2378146,43,Man
161,880910,DepthScenes,duration_manipulation_targetAtFixation,jsons/v1_VE1000_randls_66_rotated.json,http://54.235.29.9/FacialAge/BNav_EC2/DepthDuration/v2_depth_duration_MTurk/v2_DepthDuration_HTML.html#251,251,1366,768,1366,768,8-29-2022,13-25-43,162,depth_duration_stimuli/001164_2014-06-17_15-35-46_260595134347_rgbf000085-resize_3/001164_2014-06-17_15-35-46_260595134347_rgbf000085-resize_3-target.png,1000,2.354,3.0,4187,1000,meters,jsons/v1_VE1000_randls_66_rotated.json,1946245,2378146,43,Man
162,880910,DepthScenes,duration_manipulation_targetAtFixation,jsons/v1_VE1000_randls_66_rotated.json,http://54.235.29.9/FacialAge/BNav_EC2/DepthDuration/v2_depth_duration_MTurk/v2_DepthDuration_HTML.html#251,251,1366,768,1366,768,8-29-2022,13-25-43,163,depth_duration_stimuli/001094_2014-06-15_17-36-00_260595134347_rgbf000205-resize_0/001094_2014-06-15_17-36-00_260595134347_rgbf000205-resize_0-target.png,1000,4.2175,2.0,8822,1000,meters,jsons/v1_VE1000_randls_66_rotated.json,1946245,2378146,43,Man
163,880910,DepthScenes,duration_manipulation_targetAtFixation,jsons/v1_VE1000_randls_66_rotated.json,http://54.235.29.9/FacialAge/BNav_EC2/DepthDuration/v2_depth_duration_MTurk/v2_DepthDuration_HTML.html#251,251,1366,768,1366,768,8-29-2022,13-25-43,164,depth_duration_stimuli/000692_2014-06-08_13-09-42_260595134347_rgbf000199-resize_2/000692_2014-06-08_13-09-42_260595134347_rgbf000199-resize_2-target.png,1000,3.661,2.3,4959,1009,meters,jsons/v1_VE1000_randls_66_rotated.json,1946245,2378146,43,Man
