,subjID,experimentName,versionName,sequenceName,url,selected_row,windowWidth,windowHeight,screenWidth,screenHeight,startDate,startTime,trial,stimulus,duration,actual_depth,depth_estimate,trial_RT,log_sceneDuration,unitSelection,seq_filepath,experimentTime,totalTime,age,gender
0,881071,DepthScenes,duration_manipulation_targetAtFixation,jsons/v1_VE1000_randls_44_rotated.json,http://54.235.29.9/FacialAge/BNav_EC2/DepthDuration/v2_depth_duration_MTurk/v2_DepthDuration_HTML.html#128,128,1364,625,1364,768,8-22-2022,8-1-0,1,depth_duration_stimuli/001392_2014-06-19_16-07-59_260595134347_rgbf000046-resize_1/001392_2014-06-19_16-07-59_260595134347_rgbf000046-resize_1-target.png,1000,4.135,2,5516,1015,feet,jsons/v1_VE1000_randls_44_rotated.json,1158922,1357737,30,Woman
1,881071,DepthScenes,duration_manipulation_targetAtFixation,jsons/v1_VE1000_randls_44_rotated.json,http://54.235.29.9/FacialAge/BNav_EC2/DepthDuration/v2_depth_duration_MTurk/v2_DepthDuration_HTML.html#128,128,1364,625,1364,768,8-22-2022,8-1-0,2,depth_duration_stimuli/001570_2014-06-20_17-21-09_260595134347_rgbf000135-resize_4/001570_2014-06-20_17-21-09_260595134347_rgbf000135-resize_4-target.png,1000,4.467,3,6419,997,feet,jsons/v1_VE1000_randls_44_rotated.json,1158922,1357737,30,Woman
2,881071,DepthScenes,duration_manipulation_targetAtFixation,jsons/v1_VE1000_randls_44_rotated.json,http://54.235.29.9/FacialAge/BNav_EC2/DepthDuration/v2_depth_duration_MTurk/v2_DepthDuration_HTML.html#128,128,1364,625,1364,768,8-22-2022,8-1-0,3,depth_duration_stimuli/002660_2014-06-13_15-44-18_094959634447_rgbf001878-resize_2/002660_2014-06-13_15-44-18_094959634447_rgbf001878-resize_2-target.png,1000,3.576,2,5772,1000,feet,jsons/v1_VE1000_randls_44_rotated.json,1158922,1357737,30,Woman
3,881071,DepthScenes,duration_manipulation_targetAtFixation,jsons/v1_VE1000_randls_44_rotated.json,http://54.235.29.9/FacialAge/BNav_EC2/DepthDuration/v2_depth_duration_MTurk/v2_DepthDuration_HTML.html#128,128,1364,625,1364,768,8-22-2022,8-1-0,4,depth_duration_stimuli/002153_2014-06-25_21-27-18_260595134347_rgbf000038-resize_5/002153_2014-06-25_21-27-18_260595134347_rgbf000038-resize_5-target.png,1000,2.505,4,5868,1001,feet,jsons/v1_VE1000_randls_44_rotated.json,1158922,1357737,30,Woman
4,881071,DepthScenes,duration_manipulation_targetAtFixation,jsons/v1_VE1000_randls_44_rotated.json,http://54.235.29.9/FacialAge/BNav_EC2/DepthDuration/v2_depth_duration_MTurk/v2_DepthDuration_HTML.html#128,128,1364,625,1364,768,8-22-2022,8-1-0,5,depth_duration_stimuli/002678_2014-06-13_16-15-32_094959634447_rgbf000151-resize_6/002678_2014-06-13_16-15-32_094959634447_rgbf000151-resize_6-target.png,1000,2.1830000000000003,3,6272,997,feet,jsons/v1_VE1000_randls_44_rotated.json,1158922,1357737,30,Woman
5,881071,DepthScenes,duration_manipulation_targetAtFixation,jsons/v1_VE1000_randls_44_rotated.json,http://54.235.29.9/FacialAge/BNav_EC2/DepthDuration/v2_depth_duration_MTurk/v2_DepthDuration_HTML.html#128,128,1364,625,1364,768,8-22-2022,8-1-0,6,depth_duration_stimuli/000368_2014-06-09_15-53-01_260595134347_rgbf000155-resize_2/000368_2014-06-09_15-53-01_260595134347_rgbf000155-resize_2-target.png,1000,2.4859999999999998,1,5468,988,feet,jsons/v1_VE1000_randls_44_rotated.json,1158922,1357737,30,Woman
6,881071,DepthScenes,duration_manipulation_targetAtFixation,jsons/v1_VE1000_randls_44_rotated.json,http://54.235.29.9/FacialAge/BNav_EC2/DepthDuration/v2_depth_duration_MTurk/v2_DepthDuration_HTML.html#128,128,1364,625,1364,768,8-22-2022,8-1-0,7,depth_duration_stimuli/003079_2014-06-15_15-18-20_094959634447_rgbf000152-resize_8/003079_2014-06-15_15-18-20_094959634447_rgbf000152-resize_8-target.png,1000,2.8775,5,4760,990,feet,jsons/v1_VE1000_randls_44_rotated.json,1158922,1357737,30,Woman
7,881071,DepthScenes,duration_manipulation_targetAtFixation,jsons/v1_VE1000_randls_44_rotated.json,http://54.235.29.9/FacialAge/BNav_EC2/DepthDuration/v2_depth_duration_MTurk/v2_DepthDuration_HTML.html#128,128,1364,625,1364,768,8-22-2022,8-1-0,8,depth_duration_stimuli/000506_2014-06-08_23-21-00_260595134347_rgbf000070-resize_7/000506_2014-06-08_23-21-00_260595134347_rgbf000070-resize_7-target.png,1000,4.0585,3,5507,990,feet,jsons/v1_VE1000_randls_44_rotated.json,1158922,1357737,30,Woman
8,881071,DepthScenes,duration_manipulation_targetAtFixation,jsons/v1_VE1000_randls_44_rotated.json,http://54.235.29.9/FacialAge/BNav_EC2/DepthDuration/v2_depth_duration_MTurk/v2_DepthDuration_HTML.html#128,128,1364,625,1364,768,8-22-2022,8-1-0,9,depth_duration_stimuli/003083_2014-06-15_15-21-03_094959634447_rgbf000063-resize_1/003083_2014-06-15_15-21-03_094959634447_rgbf000063-resize_1-target.png,1000,4.1405,4,5075,991,feet,jsons/v1_VE1000_randls_44_rotated.json,1158922,1357737,30,Woman
9,881071,DepthScenes,duration_manipulation_targetAtFixation,jsons/v1_VE1000_randls_44_rotated.json,http://54.235.29.9/FacialAge/BNav_EC2/DepthDuration/v2_depth_duration_MTurk/v2_DepthDuration_HTML.html#128,128,1364,625,1364,768,8-22-2022,8-1-0,10,depth_duration_stimuli/000486_2014-06-09_20-47-20_260595134347_rgbf000143-resize_2/000486_2014-06-09_20-47-20_260595134347_rgbf000143-resize_2-target.png,1000,4.8325,4,6858,1006,feet,jsons/v1_VE1000_randls_44_rotated.json,1158922,1357737,30,Woman
10,881071,DepthScenes,duration_manipulation_targetAtFixation,jsons/v1_VE1000_randls_44_rotated.json,http://54.235.29.9/FacialAge/BNav_EC2/DepthDuration/v2_depth_duration_MTurk/v2_DepthDuration_HTML.html#128,128,1364,625,1364,768,8-22-2022,8-1-0,11,depth_duration_stimuli/003228_2014-05-14_13-42-35_094959634447_rgbf000101-resize_1/003228_2014-05-14_13-42-35_094959634447_rgbf000101-resize_1-target.png,1000,1.9680000000000002,1,5781,994,feet,jsons/v1_VE1000_randls_44_rotated.json,1158922,1357737,30,Woman
11,881071,DepthScenes,duration_manipulation_targetAtFixation,jsons/v1_VE1000_randls_44_rotated.json,http://54.235.29.9/FacialAge/BNav_EC2/DepthDuration/v2_depth_duration_MTurk/v2_DepthDuration_HTML.html#128,128,1364,625,1364,768,8-22-2022,8-1-0,12,depth_duration_stimuli/002600_2014-06-24_14-27-04_094959634447_rgbf000074-resize_2/002600_2014-06-24_14-27-04_094959634447_rgbf000074-resize_2-target.png,1000,2.7575,1,4852,1000,feet,jsons/v1_VE1000_randls_44_rotated.json,1158922,1357737,30,Woman
12,881071,DepthScenes,duration_manipulation_targetAtFixation,jsons/v1_VE1000_randls_44_rotated.json,http://54.235.29.9/FacialAge/BNav_EC2/DepthDuration/v2_depth_duration_MTurk/v2_DepthDuration_HTML.html#128,128,1364,625,1364,768,8-22-2022,8-1-0,13,depth_duration_stimuli/000103_2014-05-14_22-01-17_260595134347_rgbf000152-resize_5/000103_2014-05-14_22-01-17_260595134347_rgbf000152-resize_5-target.png,1000,1.993,2,5487,986,feet,jsons/v1_VE1000_randls_44_rotated.json,1158922,1357737,30,Woman
13,881071,DepthScenes,duration_manipulation_targetAtFixation,jsons/v1_VE1000_randls_44_rotated.json,http://54.235.29.9/FacialAge/BNav_EC2/DepthDuration/v2_depth_duration_MTurk/v2_DepthDuration_HTML.html#128,128,1364,625,1364,768,8-22-2022,8-1-0,14,depth_duration_stimuli/001555_2014-06-20_17-12-10_260595134347_rgbf000065-resize_4/001555_2014-06-20_17-12-10_260595134347_rgbf000065-resize_4-target.png,1000,1.633,1,4701,986,feet,jsons/v1_VE1000_randls_44_rotated.json,1158922,1357737,30,Woman
14,881071,DepthScenes,duration_manipulation_targetAtFixation,jsons/v1_VE1000_randls_44_rotated.json,http://54.235.29.9/FacialAge/BNav_EC2/DepthDuration/v2_depth_duration_MTurk/v2_DepthDuration_HTML.html#128,128,1364,625,1364,768,8-22-2022,8-1-0,15,depth_duration_stimuli/002639_2014-06-24_14-51-37_094959634447_rgbf000074-resize_4/002639_2014-06-24_14-51-37_094959634447_rgbf000074-resize_4-target.png,1000,4.0375,2,4279,991,feet,jsons/v1_VE1000_randls_44_rotated.json,1158922,1357737,30,Woman
15,881071,DepthScenes,duration_manipulation_targetAtFixation,jsons/v1_VE1000_randls_44_rotated.json,http://54.235.29.9/FacialAge/BNav_EC2/DepthDuration/v2_depth_duration_MTurk/v2_DepthDuration_HTML.html#128,128,1364,625,1364,768,8-22-2022,8-1-0,16,depth_duration_stimuli/003292_2014-05-14_21-53-49_094959634447_rgbf000100-resize_2/003292_2014-05-14_21-53-49_094959634447_rgbf000100-resize_2-target.png,1000,3.4815,3,7583,999,feet,jsons/v1_VE1000_randls_44_rotated.json,1158922,1357737,30,Woman
16,881071,DepthScenes,duration_manipulation_targetAtFixation,jsons/v1_VE1000_randls_44_rotated.json,http://54.235.29.9/FacialAge/BNav_EC2/DepthDuration/v2_depth_duration_MTurk/v2_DepthDuration_HTML.html#128,128,1364,625,1364,768,8-22-2022,8-1-0,17,depth_duration_stimuli/002995_2014-06-15_12-31-26_094959634447_rgbf000150-resize_1/002995_2014-06-15_12-31-26_094959634447_rgbf000150-resize_1-target.png,1000,3.8360000000000003,5,8117,994,feet,jsons/v1_VE1000_randls_44_rotated.json,1158922,1357737,30,Woman
17,881071,DepthScenes,duration_manipulation_targetAtFixation,jsons/v1_VE1000_randls_44_rotated.json,http://54.235.29.9/FacialAge/BNav_EC2/DepthDuration/v2_depth_duration_MTurk/v2_DepthDuration_HTML.html#128,128,1364,625,1364,768,8-22-2022,8-1-0,18,depth_duration_stimuli/002748_2014-06-22_19-07-22_094959634447_rgbf000078-resize_1/002748_2014-06-22_19-07-22_094959634447_rgbf000078-resize_1-target.png,1000,4.6705,7,5681,996,feet,jsons/v1_VE1000_randls_44_rotated.json,1158922,1357737,30,Woman
18,881071,DepthScenes,duration_manipulation_targetAtFixation,jsons/v1_VE1000_randls_44_rotated.json,http://54.235.29.9/FacialAge/BNav_EC2/DepthDuration/v2_depth_duration_MTurk/v2_DepthDuration_HTML.html#128,128,1364,625,1364,768,8-22-2022,8-1-0,19,depth_duration_stimuli/001498_2014-06-19_17-45-14_260595134347_rgbf000129-resize_4/001498_2014-06-19_17-45-14_260595134347_rgbf000129-resize-original.jpg,1000,1.4075,2,6966,999,feet,jsons/v1_VE1000_randls_44_rotated.json,1158922,1357737,30,Woman
19,881071,DepthScenes,duration_manipulation_targetAtFixation,jsons/v1_VE1000_randls_44_rotated.json,http://54.235.29.9/FacialAge/BNav_EC2/DepthDuration/v2_depth_duration_MTurk/v2_DepthDuration_HTML.html#128,128,1364,625,1364,768,8-22-2022,8-1-0,20,depth_duration_stimuli/002568_2014-06-24_13-59-21_094959634447_rgbf000062-resize_4/002568_2014-06-24_13-59-21_094959634447_rgbf000062-resize_4-target.png,1000,3.015,2,5126,999,feet,jsons/v1_VE1000_randls_44_rotated.json,1158922,1357737,30,Woman
20,881071,DepthScenes,duration_manipulation_targetAtFixation,jsons/v1_VE1000_randls_44_rotated.json,http://54.235.29.9/FacialAge/BNav_EC2/DepthDuration/v2_depth_duration_MTurk/v2_DepthDuration_HTML.html#128,128,1364,625,1364,768,8-22-2022,8-1-0,21,depth_duration_stimuli/003492_2014-05-21_15-50-55_094959634447_rgbf000828-resize_1/003492_2014-05-21_15-50-55_094959634447_rgbf000828-resize_1-target.png,1000,4.06875,2,8254,996,feet,jsons/v1_VE1000_randls_44_rotated.json,1158922,1357737,30,Woman
21,881071,DepthScenes,duration_manipulation_targetAtFixation,jsons/v1_VE1000_randls_44_rotated.json,http://54.235.29.9/FacialAge/BNav_EC2/DepthDuration/v2_depth_duration_MTurk/v2_DepthDuration_HTML.html#128,128,1364,625,1364,768,8-22-2022,8-1-0,22,depth_duration_stimuli/000854_2014-06-09_19-43-13_260595134347_rgbf000066-resize_0/000854_2014-06-09_19-43-13_260595134347_rgbf000066-resize_0-target.png,1000,3.068,3,5839,988,feet,jsons/v1_VE1000_randls_44_rotated.json,1158922,1357737,30,Woman
22,881071,DepthScenes,duration_manipulation_targetAtFixation,jsons/v1_VE1000_randls_44_rotated.json,http://54.235.29.9/FacialAge/BNav_EC2/DepthDuration/v2_depth_duration_MTurk/v2_DepthDuration_HTML.html#128,128,1364,625,1364,768,8-22-2022,8-1-0,23,depth_duration_stimuli/000758_2014-06-08_22-05-08_260595134347_rgbf000085-resize_0/000758_2014-06-08_22-05-08_260595134347_rgbf000085-resize_0-target.png,1000,3.3810000000000002,4,5330,999,feet,jsons/v1_VE1000_randls_44_rotated.json,1158922,1357737,30,Woman
23,881071,DepthScenes,duration_manipulation_targetAtFixation,jsons/v1_VE1000_randls_44_rotated.json,http://54.235.29.9/FacialAge/BNav_EC2/DepthDuration/v2_depth_duration_MTurk/v2_DepthDuration_HTML.html#128,128,1364,625,1364,768,8-22-2022,8-1-0,24,depth_duration_stimuli/001235_2014-06-17_16-37-36_260595134347_rgbf000084-resize_4/001235_2014-06-17_16-37-36_260595134347_rgbf000084-resize_4-target.png,1000,3.6605,3,11580,982,feet,jsons/v1_VE1000_randls_44_rotated.json,1158922,1357737,30,Woman
24,881071,DepthScenes,duration_manipulation_targetAtFixation,jsons/v1_VE1000_randls_44_rotated.json,http://54.235.29.9/FacialAge/BNav_EC2/DepthDuration/v2_depth_duration_MTurk/v2_DepthDuration_HTML.html#128,128,1364,625,1364,768,8-22-2022,8-1-0,25,depth_duration_stimuli/000788_2014-06-08_22-34-36_260595134347_rgbf000131-resize_1/000788_2014-06-08_22-34-36_260595134347_rgbf000131-resize_1-target.png,1000,3.359,4,4809,1000,feet,jsons/v1_VE1000_randls_44_rotated.json,1158922,1357737,30,Woman
25,881071,DepthScenes,duration_manipulation_targetAtFixation,jsons/v1_VE1000_randls_44_rotated.json,http://54.235.29.9/FacialAge/BNav_EC2/DepthDuration/v2_depth_duration_MTurk/v2_DepthDuration_HTML.html#128,128,1364,625,1364,768,8-22-2022,8-1-0,26,depth_duration_stimuli/000709_2014-06-08_13-51-55_260595134347_rgbf000068-resize_3/000709_2014-06-08_13-51-55_260595134347_rgbf000068-resize_3-target.png,1000,1.8030000000000002,2,5764,968,feet,jsons/v1_VE1000_randls_44_rotated.json,1158922,1357737,30,Woman
26,881071,DepthScenes,duration_manipulation_targetAtFixation,jsons/v1_VE1000_randls_44_rotated.json,http://54.235.29.9/FacialAge/BNav_EC2/DepthDuration/v2_depth_duration_MTurk/v2_DepthDuration_HTML.html#128,128,1364,625,1364,768,8-22-2022,8-1-0,27,depth_duration_stimuli/002057_2014-06-24_21-00-13_260595134347_rgbf000120-resize_1/002057_2014-06-24_21-00-13_260595134347_rgbf000120-resize_1-target.png,1000,2.967,6,4937,992,feet,jsons/v1_VE1000_randls_44_rotated.json,1158922,1357737,30,Woman
27,881071,DepthScenes,duration_manipulation_targetAtFixation,jsons/v1_VE1000_randls_44_rotated.json,http://54.235.29.9/FacialAge/BNav_EC2/DepthDuration/v2_depth_duration_MTurk/v2_DepthDuration_HTML.html#128,128,1364,625,1364,768,8-22-2022,8-1-0,28,depth_duration_stimuli/000191_2014-05-12_17-07-38_260595134347_rgbf000199-resize_0/000191_2014-05-12_17-07-38_260595134347_rgbf000199-resize_0-target.png,1000,3.7995,5,14372,996,feet,jsons/v1_VE1000_randls_44_rotated.json,1158922,1357737,30,Woman
28,881071,DepthScenes,duration_manipulation_targetAtFixation,jsons/v1_VE1000_randls_44_rotated.json,http://54.235.29.9/FacialAge/BNav_EC2/DepthDuration/v2_depth_duration_MTurk/v2_DepthDuration_HTML.html#128,128,1364,625,1364,768,8-22-2022,8-1-0,29,depth_duration_stimuli/000493_2014-06-09_21-01-18_260595134347_rgbf000196-resize_3/000493_2014-06-09_21-01-18_260595134347_rgbf000196-resize_3-target.png,1000,3.44,4,10300,973,feet,jsons/v1_VE1000_randls_44_rotated.json,1158922,1357737,30,Woman
29,881071,DepthScenes,duration_manipulation_targetAtFixation,jsons/v1_VE1000_randls_44_rotated.json,http://54.235.29.9/FacialAge/BNav_EC2/DepthDuration/v2_depth_duration_MTurk/v2_DepthDuration_HTML.html#128,128,1364,625,1364,768,8-22-2022,8-1-0,30,depth_duration_stimuli/002072_2014-06-24_21-48-06_260595134347_rgbf000115-resize_0/002072_2014-06-24_21-48-06_260595134347_rgbf000115-resize-original.jpg,1000,4.702,2,5430,1000,feet,jsons/v1_VE1000_randls_44_rotated.json,1158922,1357737,30,Woman
30,881071,DepthScenes,duration_manipulation_targetAtFixation,jsons/v1_VE1000_randls_44_rotated.json,http://54.235.29.9/FacialAge/BNav_EC2/DepthDuration/v2_depth_duration_MTurk/v2_DepthDuration_HTML.html#128,128,1364,625,1364,768,8-22-2022,8-1-0,31,depth_duration_stimuli/001450_2014-06-19_17-02-03_260595134347_rgbf000203-resize_4/001450_2014-06-19_17-02-03_260595134347_rgbf000203-resize_4-target.png,1000,4.0106666666667,6,5452,998,feet,jsons/v1_VE1000_randls_44_rotated.json,1158922,1357737,30,Woman
31,881071,DepthScenes,duration_manipulation_targetAtFixation,jsons/v1_VE1000_randls_44_rotated.json,http://54.235.29.9/FacialAge/BNav_EC2/DepthDuration/v2_depth_duration_MTurk/v2_DepthDuration_HTML.html#128,128,1364,625,1364,768,8-22-2022,8-1-0,32,depth_duration_stimuli/001449_2014-06-19_17-01-27_260595134347_rgbf000116-resize_2/001449_2014-06-19_17-01-27_260595134347_rgbf000116-resize_2-target.png,1000,3.452,5,5530,1001,feet,jsons/v1_VE1000_randls_44_rotated.json,1158922,1357737,30,Woman
32,881071,DepthScenes,duration_manipulation_targetAtFixation,jsons/v1_VE1000_randls_44_rotated.json,http://54.235.29.9/FacialAge/BNav_EC2/DepthDuration/v2_depth_duration_MTurk/v2_DepthDuration_HTML.html#128,128,1364,625,1364,768,8-22-2022,8-1-0,33,depth_duration_stimuli/000549_2014-06-08_22-10-24_260595134347_rgbf000247-resize_3/000549_2014-06-08_22-10-24_260595134347_rgbf000247-resize_3-target.png,1000,1.841,2,4659,992,feet,jsons/v1_VE1000_randls_44_rotated.json,1158922,1357737,30,Woman
33,881071,DepthScenes,duration_manipulation_targetAtFixation,jsons/v1_VE1000_randls_44_rotated.json,http://54.235.29.9/FacialAge/BNav_EC2/DepthDuration/v2_depth_duration_MTurk/v2_DepthDuration_HTML.html#128,128,1364,625,1364,768,8-22-2022,8-1-0,34,depth_duration_stimuli/001055_2014-06-08_18-45-35_260595134347_rgbf000111-resize_4/001055_2014-06-08_18-45-35_260595134347_rgbf000111-resize_4-target.png,1000,2.4290000000000003,3,6576,1001,feet,jsons/v1_VE1000_randls_44_rotated.json,1158922,1357737,30,Woman
34,881071,DepthScenes,duration_manipulation_targetAtFixation,jsons/v1_VE1000_randls_44_rotated.json,http://54.235.29.9/FacialAge/BNav_EC2/DepthDuration/v2_depth_duration_MTurk/v2_DepthDuration_HTML.html#128,128,1364,625,1364,768,8-22-2022,8-1-0,35,depth_duration_stimuli/002875_2014-06-01_15-19-00_094959634447_rgbf000151-resize_1/002875_2014-06-01_15-19-00_094959634447_rgbf000151-resize_1-target.png,1000,1.9675,3,6242,968,feet,jsons/v1_VE1000_randls_44_rotated.json,1158922,1357737,30,Woman
35,881071,DepthScenes,duration_manipulation_targetAtFixation,jsons/v1_VE1000_randls_44_rotated.json,http://54.235.29.9/FacialAge/BNav_EC2/DepthDuration/v2_depth_duration_MTurk/v2_DepthDuration_HTML.html#128,128,1364,625,1364,768,8-22-2022,8-1-0,36,depth_duration_stimuli/001011_2014-06-08_23-18-54_260595134347_rgbf000044-resize_4/001011_2014-06-08_23-18-54_260595134347_rgbf000044-resize_4-target.png,1000,2.4730000000000003,5,4449,1000,feet,jsons/v1_VE1000_randls_44_rotated.json,1158922,1357737,30,Woman
36,881071,DepthScenes,duration_manipulation_targetAtFixation,jsons/v1_VE1000_randls_44_rotated.json,http://54.235.29.9/FacialAge/BNav_EC2/DepthDuration/v2_depth_duration_MTurk/v2_DepthDuration_HTML.html#128,128,1364,625,1364,768,8-22-2022,8-1-0,37,depth_duration_stimuli/002136_2014-06-25_21-18-03_260595134347_rgbf000109-resize_3/002136_2014-06-25_21-18-03_260595134347_rgbf000109-resize_3-target.png,1000,1.9569999999999999,3,4795,998,feet,jsons/v1_VE1000_randls_44_rotated.json,1158922,1357737,30,Woman
37,881071,DepthScenes,duration_manipulation_targetAtFixation,jsons/v1_VE1000_randls_44_rotated.json,http://54.235.29.9/FacialAge/BNav_EC2/DepthDuration/v2_depth_duration_MTurk/v2_DepthDuration_HTML.html#128,128,1364,625,1364,768,8-22-2022,8-1-0,38,depth_duration_stimuli/002964_2014-06-08_17-46-11_094959634447_rgbf000091-resize_4/002964_2014-06-08_17-46-11_094959634447_rgbf000091-resize_4-target.png,1000,1.6909999999999998,2,4659,1000,feet,jsons/v1_VE1000_randls_44_rotated.json,1158922,1357737,30,Woman
38,881071,DepthScenes,duration_manipulation_targetAtFixation,jsons/v1_VE1000_randls_44_rotated.json,http://54.235.29.9/FacialAge/BNav_EC2/DepthDuration/v2_depth_duration_MTurk/v2_DepthDuration_HTML.html#128,128,1364,625,1364,768,8-22-2022,8-1-0,39,depth_duration_stimuli/001032_2014-06-08_13-23-17_260595134347_rgbf000021-resize_3/001032_2014-06-08_13-23-17_260595134347_rgbf000021-resize_3-target.png,1000,3.2725,5,5567,998,feet,jsons/v1_VE1000_randls_44_rotated.json,1158922,1357737,30,Woman
39,881071,DepthScenes,duration_manipulation_targetAtFixation,jsons/v1_VE1000_randls_44_rotated.json,http://54.235.29.9/FacialAge/BNav_EC2/DepthDuration/v2_depth_duration_MTurk/v2_DepthDuration_HTML.html#128,128,1364,625,1364,768,8-22-2022,8-1-0,40,depth_duration_stimuli/001059_2014-06-08_21-53-27_260595134347_rgbf000061-resize_4/001059_2014-06-08_21-53-27_260595134347_rgbf000061-resize_4-target.png,1000,2.4185,2,5395,997,feet,jsons/v1_VE1000_randls_44_rotated.json,1158922,1357737,30,Woman
40,881071,DepthScenes,duration_manipulation_targetAtFixation,jsons/v1_VE1000_randls_44_rotated.json,http://54.235.29.9/FacialAge/BNav_EC2/DepthDuration/v2_depth_duration_MTurk/v2_DepthDuration_HTML.html#128,128,1364,625,1364,768,8-22-2022,8-1-0,41,depth_duration_stimuli/000677_2014-06-08_23-10-32_260595134347_rgbf000158-resize_6/000677_2014-06-08_23-10-32_260595134347_rgbf000158-resize_6-target.png,1000,3.556,1,5414,1011,feet,jsons/v1_VE1000_randls_44_rotated.json,1158922,1357737,30,Woman
41,881071,DepthScenes,duration_manipulation_targetAtFixation,jsons/v1_VE1000_randls_44_rotated.json,http://54.235.29.9/FacialAge/BNav_EC2/DepthDuration/v2_depth_duration_MTurk/v2_DepthDuration_HTML.html#128,128,1364,625,1364,768,8-22-2022,8-1-0,42,depth_duration_stimuli/001029_2014-06-08_13-17-57_260595134347_rgbf000065-resize_1/001029_2014-06-08_13-17-57_260595134347_rgbf000065-resize_1-target.png,1000,3.0835,2,4810,1009,feet,jsons/v1_VE1000_randls_44_rotated.json,1158922,1357737,30,Woman
42,881071,DepthScenes,duration_manipulation_targetAtFixation,jsons/v1_VE1000_randls_44_rotated.json,http://54.235.29.9/FacialAge/BNav_EC2/DepthDuration/v2_depth_duration_MTurk/v2_DepthDuration_HTML.html#128,128,1364,625,1364,768,8-22-2022,8-1-0,43,depth_duration_stimuli/002444_2014-06-28_20-32-08_260595134347_rgbf000027-resize_0/002444_2014-06-28_20-32-08_260595134347_rgbf000027-resize_0-target.png,1000,4.388999999999999,3,8741,995,feet,jsons/v1_VE1000_randls_44_rotated.json,1158922,1357737,30,Woman
43,881071,DepthScenes,duration_manipulation_targetAtFixation,jsons/v1_VE1000_randls_44_rotated.json,http://54.235.29.9/FacialAge/BNav_EC2/DepthDuration/v2_depth_duration_MTurk/v2_DepthDuration_HTML.html#128,128,1364,625,1364,768,8-22-2022,8-1-0,44,depth_duration_stimuli/000436_2014-06-09_22-25-11_260595134347_rgbf000137-resize_1/000436_2014-06-09_22-25-11_260595134347_rgbf000137-resize_1-target.png,1000,4.0705,3,5063,1001,feet,jsons/v1_VE1000_randls_44_rotated.json,1158922,1357737,30,Woman
44,881071,DepthScenes,duration_manipulation_targetAtFixation,jsons/v1_VE1000_randls_44_rotated.json,http://54.235.29.9/FacialAge/BNav_EC2/DepthDuration/v2_depth_duration_MTurk/v2_DepthDuration_HTML.html#128,128,1364,625,1364,768,8-22-2022,8-1-0,45,depth_duration_stimuli/002209_2014-06-28_18-36-10_260595134347_rgbf000051-resize_1/002209_2014-06-28_18-36-10_260595134347_rgbf000051-resize_1-target.png,1000,2.057,2,12502,978,feet,jsons/v1_VE1000_randls_44_rotated.json,1158922,1357737,30,Woman
45,881071,DepthScenes,duration_manipulation_targetAtFixation,jsons/v1_VE1000_randls_44_rotated.json,http://54.235.29.9/FacialAge/BNav_EC2/DepthDuration/v2_depth_duration_MTurk/v2_DepthDuration_HTML.html#128,128,1364,625,1364,768,8-22-2022,8-1-0,46,depth_duration_stimuli/002763_2014-06-22_19-13-10_094959634447_rgbf000075-resize_4/002763_2014-06-22_19-13-10_094959634447_rgbf000075-resize_4-target.png,1000,1.68375,3,10137,1002,feet,jsons/v1_VE1000_randls_44_rotated.json,1158922,1357737,30,Woman
46,881071,DepthScenes,duration_manipulation_targetAtFixation,jsons/v1_VE1000_randls_44_rotated.json,http://54.235.29.9/FacialAge/BNav_EC2/DepthDuration/v2_depth_duration_MTurk/v2_DepthDuration_HTML.html#128,128,1364,625,1364,768,8-22-2022,8-1-0,47,depth_duration_stimuli/003129_2014-05-12_10-48-10_094959634447_rgbf000100-resize_0/003129_2014-05-12_10-48-10_094959634447_rgbf000100-resize_0-target.png,1000,4.9305,5,11204,1000,feet,jsons/v1_VE1000_randls_44_rotated.json,1158922,1357737,30,Woman
47,881071,DepthScenes,duration_manipulation_targetAtFixation,jsons/v1_VE1000_randls_44_rotated.json,http://54.235.29.9/FacialAge/BNav_EC2/DepthDuration/v2_depth_duration_MTurk/v2_DepthDuration_HTML.html#128,128,1364,625,1364,768,8-22-2022,8-1-0,48,depth_duration_stimuli/000414_2014-06-04_19-49-13_260595134347_rgbf000044-resize_0/000414_2014-06-04_19-49-13_260595134347_rgbf000044-resize_0-target.png,1000,4.329,2,4880,999,feet,jsons/v1_VE1000_randls_44_rotated.json,1158922,1357737,30,Woman
48,881071,DepthScenes,duration_manipulation_targetAtFixation,jsons/v1_VE1000_randls_44_rotated.json,http://54.235.29.9/FacialAge/BNav_EC2/DepthDuration/v2_depth_duration_MTurk/v2_DepthDuration_HTML.html#128,128,1364,625,1364,768,8-22-2022,8-1-0,49,depth_duration_stimuli/001170_2014-06-17_15-43-44_260595134347_rgbf000096-resize_6/001170_2014-06-17_15-43-44_260595134347_rgbf000096-resize-original.jpg,1000,1.1909999999999998,0,4844,1003,feet,jsons/v1_VE1000_randls_44_rotated.json,1158922,1357737,30,Woman
49,881071,DepthScenes,duration_manipulation_targetAtFixation,jsons/v1_VE1000_randls_44_rotated.json,http://54.235.29.9/FacialAge/BNav_EC2/DepthDuration/v2_depth_duration_MTurk/v2_DepthDuration_HTML.html#128,128,1364,625,1364,768,8-22-2022,8-1-0,50,depth_duration_stimuli/002805_2014-06-22_19-54-03_094959634447_rgbf000079-resize_1/002805_2014-06-22_19-54-03_094959634447_rgbf000079-resize_1-target.png,1000,3.1439999999999997,2,4463,987,feet,jsons/v1_VE1000_randls_44_rotated.json,1158922,1357737,30,Woman
50,881071,DepthScenes,duration_manipulation_targetAtFixation,jsons/v1_VE1000_randls_44_rotated.json,http://54.235.29.9/FacialAge/BNav_EC2/DepthDuration/v2_depth_duration_MTurk/v2_DepthDuration_HTML.html#128,128,1364,625,1364,768,8-22-2022,8-1-0,51,depth_duration_stimuli/000906_2014-06-08_13-35-43_260595134347_rgbf000155-resize_1/000906_2014-06-08_13-35-43_260595134347_rgbf000155-resize_1-target.png,1000,2.8489999999999998,3,11159,1004,feet,jsons/v1_VE1000_randls_44_rotated.json,1158922,1357737,30,Woman
51,881071,DepthScenes,duration_manipulation_targetAtFixation,jsons/v1_VE1000_randls_44_rotated.json,http://54.235.29.9/FacialAge/BNav_EC2/DepthDuration/v2_depth_duration_MTurk/v2_DepthDuration_HTML.html#128,128,1364,625,1364,768,8-22-2022,8-1-0,52,depth_duration_stimuli/003495_2014-05-21_16-01-51_094959634447_rgbf000100-resize_3/003495_2014-05-21_16-01-51_094959634447_rgbf000100-resize_3-target.png,1000,1.6255,1,5668,997,feet,jsons/v1_VE1000_randls_44_rotated.json,1158922,1357737,30,Woman
52,881071,DepthScenes,duration_manipulation_targetAtFixation,jsons/v1_VE1000_randls_44_rotated.json,http://54.235.29.9/FacialAge/BNav_EC2/DepthDuration/v2_depth_duration_MTurk/v2_DepthDuration_HTML.html#128,128,1364,625,1364,768,8-22-2022,8-1-0,53,depth_duration_stimuli/001244_2014-06-17_16-47-45_260595134347_rgbf000030-resize_4/001244_2014-06-17_16-47-45_260595134347_rgbf000030-resize_4-target.png,1000,2.0425,3,6192,987,feet,jsons/v1_VE1000_randls_44_rotated.json,1158922,1357737,30,Woman
53,881071,DepthScenes,duration_manipulation_targetAtFixation,jsons/v1_VE1000_randls_44_rotated.json,http://54.235.29.9/FacialAge/BNav_EC2/DepthDuration/v2_depth_duration_MTurk/v2_DepthDuration_HTML.html#128,128,1364,625,1364,768,8-22-2022,8-1-0,54,depth_duration_stimuli/000749_2014-06-08_21-55-06_260595134347_rgbf000070-resize_2/000749_2014-06-08_21-55-06_260595134347_rgbf000070-resize_2-target.png,1000,2.331,2,8347,1002,feet,jsons/v1_VE1000_randls_44_rotated.json,1158922,1357737,30,Woman
54,881071,DepthScenes,duration_manipulation_targetAtFixation,jsons/v1_VE1000_randls_44_rotated.json,http://54.235.29.9/FacialAge/BNav_EC2/DepthDuration/v2_depth_duration_MTurk/v2_DepthDuration_HTML.html#128,128,1364,625,1364,768,8-22-2022,8-1-0,55,depth_duration_stimuli/002788_2014-06-22_19-36-03_094959634447_rgbf000088-resize_2/002788_2014-06-22_19-36-03_094959634447_rgbf000088-resize_2-target.png,1000,1.6465,3,4470,1009,feet,jsons/v1_VE1000_randls_44_rotated.json,1158922,1357737,30,Woman
55,881071,DepthScenes,duration_manipulation_targetAtFixation,jsons/v1_VE1000_randls_44_rotated.json,http://54.235.29.9/FacialAge/BNav_EC2/DepthDuration/v2_depth_duration_MTurk/v2_DepthDuration_HTML.html#128,128,1364,625,1364,768,8-22-2022,8-1-0,56,depth_duration_stimuli/001571_2014-06-20_17-21-32_260595134347_rgbf000089-resize_1/001571_2014-06-20_17-21-32_260595134347_rgbf000089-resize_1-target.png,1000,1.86,1,6124,1000,feet,jsons/v1_VE1000_randls_44_rotated.json,1158922,1357737,30,Woman
56,881071,DepthScenes,duration_manipulation_targetAtFixation,jsons/v1_VE1000_randls_44_rotated.json,http://54.235.29.9/FacialAge/BNav_EC2/DepthDuration/v2_depth_duration_MTurk/v2_DepthDuration_HTML.html#128,128,1364,625,1364,768,8-22-2022,8-1-0,57,depth_duration_stimuli/002272_2014-06-28_18-53-56_260595134347_rgbf000067-resize_2/002272_2014-06-28_18-53-56_260595134347_rgbf000067-resize_2-target.png,1000,1.138,3,7324,1003,feet,jsons/v1_VE1000_randls_44_rotated.json,1158922,1357737,30,Woman
57,881071,DepthScenes,duration_manipulation_targetAtFixation,jsons/v1_VE1000_randls_44_rotated.json,http://54.235.29.9/FacialAge/BNav_EC2/DepthDuration/v2_depth_duration_MTurk/v2_DepthDuration_HTML.html#128,128,1364,625,1364,768,8-22-2022,8-1-0,58,depth_duration_stimuli/003010_2014-06-15_12-54-35_094959634447_rgbf000112-resize_0/003010_2014-06-15_12-54-35_094959634447_rgbf000112-resize_0-target.png,1000,3.1185,5,5035,999,feet,jsons/v1_VE1000_randls_44_rotated.json,1158922,1357737,30,Woman
58,881071,DepthScenes,duration_manipulation_targetAtFixation,jsons/v1_VE1000_randls_44_rotated.json,http://54.235.29.9/FacialAge/BNav_EC2/DepthDuration/v2_depth_duration_MTurk/v2_DepthDuration_HTML.html#128,128,1364,625,1364,768,8-22-2022,8-1-0,59,depth_duration_stimuli/001810_2014-06-26_20-51-35_260595134347_rgbf000040-resize_3/001810_2014-06-26_20-51-35_260595134347_rgbf000040-resize_3-target.png,1000,2.2525,3,5374,998,feet,jsons/v1_VE1000_randls_44_rotated.json,1158922,1357737,30,Woman
59,881071,DepthScenes,duration_manipulation_targetAtFixation,jsons/v1_VE1000_randls_44_rotated.json,http://54.235.29.9/FacialAge/BNav_EC2/DepthDuration/v2_depth_duration_MTurk/v2_DepthDuration_HTML.html#128,128,1364,625,1364,768,8-22-2022,8-1-0,60,depth_duration_stimuli/000742_2014-06-08_18-48-09_260595134347_rgbf000164-resize_4/000742_2014-06-08_18-48-09_260595134347_rgbf000164-resize_4-target.png,1000,4.632,2,5315,992,feet,jsons/v1_VE1000_randls_44_rotated.json,1158922,1357737,30,Woman
60,881071,DepthScenes,duration_manipulation_targetAtFixation,jsons/v1_VE1000_randls_44_rotated.json,http://54.235.29.9/FacialAge/BNav_EC2/DepthDuration/v2_depth_duration_MTurk/v2_DepthDuration_HTML.html#128,128,1364,625,1364,768,8-22-2022,8-1-0,61,depth_duration_stimuli/001066_2014-06-08_22-03-20_260595134347_rgbf000066-resize_4/001066_2014-06-08_22-03-20_260595134347_rgbf000066-resize_4-target.png,1000,4.2330000000000005,4,4770,1008,feet,jsons/v1_VE1000_randls_44_rotated.json,1158922,1357737,30,Woman
61,881071,DepthScenes,duration_manipulation_targetAtFixation,jsons/v1_VE1000_randls_44_rotated.json,http://54.235.29.9/FacialAge/BNav_EC2/DepthDuration/v2_depth_duration_MTurk/v2_DepthDuration_HTML.html#128,128,1364,625,1364,768,8-22-2022,8-1-0,62,depth_duration_stimuli/003423_2014-05-21_10-23-26_094959634447_rgbf002665-resize_2/003423_2014-05-21_10-23-26_094959634447_rgbf002665-resize_2-target.png,1000,3.2575,2,12085,1057,feet,jsons/v1_VE1000_randls_44_rotated.json,1158922,1357737,30,Woman
62,881071,DepthScenes,duration_manipulation_targetAtFixation,jsons/v1_VE1000_randls_44_rotated.json,http://54.235.29.9/FacialAge/BNav_EC2/DepthDuration/v2_depth_duration_MTurk/v2_DepthDuration_HTML.html#128,128,1364,625,1364,768,8-22-2022,8-1-0,63,depth_duration_stimuli/002905_2014-06-03_18-04-43_094959634447_rgbf000151-resize_2/002905_2014-06-03_18-04-43_094959634447_rgbf000151-resize_2-target.png,1000,2.0295,1,74545,1090,feet,jsons/v1_VE1000_randls_44_rotated.json,1158922,1357737,30,Woman
63,881071,DepthScenes,duration_manipulation_targetAtFixation,jsons/v1_VE1000_randls_44_rotated.json,http://54.235.29.9/FacialAge/BNav_EC2/DepthDuration/v2_depth_duration_MTurk/v2_DepthDuration_HTML.html#128,128,1364,625,1364,768,8-22-2022,8-1-0,64,depth_duration_stimuli/002199_2014-06-28_18-33-56_260595134347_rgbf000074-resize_0/002199_2014-06-28_18-33-56_260595134347_rgbf000074-resize_0-target.png,1000,1.996,2,6508,1000,feet,jsons/v1_VE1000_randls_44_rotated.json,1158922,1357737,30,Woman
64,881071,DepthScenes,duration_manipulation_targetAtFixation,jsons/v1_VE1000_randls_44_rotated.json,http://54.235.29.9/FacialAge/BNav_EC2/DepthDuration/v2_depth_duration_MTurk/v2_DepthDuration_HTML.html#128,128,1364,625,1364,768,8-22-2022,8-1-0,65,depth_duration_stimuli/001056_2014-06-08_18-46-44_260595134347_rgbf000068-resize_0/001056_2014-06-08_18-46-44_260595134347_rgbf000068-resize_0-target.png,1000,2.6625,3,4556,997,feet,jsons/v1_VE1000_randls_44_rotated.json,1158922,1357737,30,Woman
65,881071,DepthScenes,duration_manipulation_targetAtFixation,jsons/v1_VE1000_randls_44_rotated.json,http://54.235.29.9/FacialAge/BNav_EC2/DepthDuration/v2_depth_duration_MTurk/v2_DepthDuration_HTML.html#128,128,1364,625,1364,768,8-22-2022,8-1-0,66,depth_duration_stimuli/001540_2014-06-20_17-01-05_260595134347_rgbf000086-resize_2/001540_2014-06-20_17-01-05_260595134347_rgbf000086-resize-original.jpg,1000,1.459,0,4524,993,feet,jsons/v1_VE1000_randls_44_rotated.json,1158922,1357737,30,Woman
66,881071,DepthScenes,duration_manipulation_targetAtFixation,jsons/v1_VE1000_randls_44_rotated.json,http://54.235.29.9/FacialAge/BNav_EC2/DepthDuration/v2_depth_duration_MTurk/v2_DepthDuration_HTML.html#128,128,1364,625,1364,768,8-22-2022,8-1-0,67,depth_duration_stimuli/002545_2014-06-24_13-38-53_094959634447_rgbf000080-resize_4/002545_2014-06-24_13-38-53_094959634447_rgbf000080-resize_4-target.png,1000,1.9205,1,67179,978,feet,jsons/v1_VE1000_randls_44_rotated.json,1158922,1357737,30,Woman
67,881071,DepthScenes,duration_manipulation_targetAtFixation,jsons/v1_VE1000_randls_44_rotated.json,http://54.235.29.9/FacialAge/BNav_EC2/DepthDuration/v2_depth_duration_MTurk/v2_DepthDuration_HTML.html#128,128,1364,625,1364,768,8-22-2022,8-1-0,68,depth_duration_stimuli/001092_2014-06-15_17-34-58_260595134347_rgbf000171-resize_3/001092_2014-06-15_17-34-58_260595134347_rgbf000171-resize_3-target.png,1000,2.6935,2,4556,1001,feet,jsons/v1_VE1000_randls_44_rotated.json,1158922,1357737,30,Woman
68,881071,DepthScenes,duration_manipulation_targetAtFixation,jsons/v1_VE1000_randls_44_rotated.json,http://54.235.29.9/FacialAge/BNav_EC2/DepthDuration/v2_depth_duration_MTurk/v2_DepthDuration_HTML.html#128,128,1364,625,1364,768,8-22-2022,8-1-0,69,depth_duration_stimuli/000483_2014-06-09_20-41-45_260595134347_rgbf000116-resize_4/000483_2014-06-09_20-41-45_260595134347_rgbf000116-resize_4-target.png,1000,1.337,3,8445,994,feet,jsons/v1_VE1000_randls_44_rotated.json,1158922,1357737,30,Woman
69,881071,DepthScenes,duration_manipulation_targetAtFixation,jsons/v1_VE1000_randls_44_rotated.json,http://54.235.29.9/FacialAge/BNav_EC2/DepthDuration/v2_depth_duration_MTurk/v2_DepthDuration_HTML.html#128,128,1364,625,1364,768,8-22-2022,8-1-0,70,depth_duration_stimuli/000469_2014-06-09_19-42-10_260595134347_rgbf000081-resize_1/000469_2014-06-09_19-42-10_260595134347_rgbf000081-resize_1-target.png,1000,1.652,2,4613,991,feet,jsons/v1_VE1000_randls_44_rotated.json,1158922,1357737,30,Woman
70,881071,DepthScenes,duration_manipulation_targetAtFixation,jsons/v1_VE1000_randls_44_rotated.json,http://54.235.29.9/FacialAge/BNav_EC2/DepthDuration/v2_depth_duration_MTurk/v2_DepthDuration_HTML.html#128,128,1364,625,1364,768,8-22-2022,8-1-0,71,depth_duration_stimuli/001815_2014-06-26_20-52-55_260595134347_rgbf000020-resize_0/001815_2014-06-26_20-52-55_260595134347_rgbf000020-resize_0-target.png,1000,3.3865,3,5418,1000,feet,jsons/v1_VE1000_randls_44_rotated.json,1158922,1357737,30,Woman
71,881071,DepthScenes,duration_manipulation_targetAtFixation,jsons/v1_VE1000_randls_44_rotated.json,http://54.235.29.9/FacialAge/BNav_EC2/DepthDuration/v2_depth_duration_MTurk/v2_DepthDuration_HTML.html#128,128,1364,625,1364,768,8-22-2022,8-1-0,72,depth_duration_stimuli/001808_2014-06-26_20-50-58_260595134347_rgbf000029-resize_1/001808_2014-06-26_20-50-58_260595134347_rgbf000029-resize_1-target.png,1000,4.249,4,4828,992,feet,jsons/v1_VE1000_randls_44_rotated.json,1158922,1357737,30,Woman
72,881071,DepthScenes,duration_manipulation_targetAtFixation,jsons/v1_VE1000_randls_44_rotated.json,http://54.235.29.9/FacialAge/BNav_EC2/DepthDuration/v2_depth_duration_MTurk/v2_DepthDuration_HTML.html#128,128,1364,625,1364,768,8-22-2022,8-1-0,73,depth_duration_stimuli/003587_2014-05-23_16-48-02_094959634447_rgbf002384-resize_2/003587_2014-05-23_16-48-02_094959634447_rgbf002384-resize_2-target.png,1000,1.357,1,6265,998,feet,jsons/v1_VE1000_randls_44_rotated.json,1158922,1357737,30,Woman
73,881071,DepthScenes,duration_manipulation_targetAtFixation,jsons/v1_VE1000_randls_44_rotated.json,http://54.235.29.9/FacialAge/BNav_EC2/DepthDuration/v2_depth_duration_MTurk/v2_DepthDuration_HTML.html#128,128,1364,625,1364,768,8-22-2022,8-1-0,74,depth_duration_stimuli/001167_2014-06-17_15-38-07_260595134347_rgbf000108-resize_0/001167_2014-06-17_15-38-07_260595134347_rgbf000108-resize_0-target.png,1000,1.8505,1,4259,999,feet,jsons/v1_VE1000_randls_44_rotated.json,1158922,1357737,30,Woman
74,881071,DepthScenes,duration_manipulation_targetAtFixation,jsons/v1_VE1000_randls_44_rotated.json,http://54.235.29.9/FacialAge/BNav_EC2/DepthDuration/v2_depth_duration_MTurk/v2_DepthDuration_HTML.html#128,128,1364,625,1364,768,8-22-2022,8-1-0,75,depth_duration_stimuli/003048_2014-06-15_13-49-43_094959634447_rgbf000150-resize_1/003048_2014-06-15_13-49-43_094959634447_rgbf000150-resize_1-target.png,1000,4.0035,1,22459,999,feet,jsons/v1_VE1000_randls_44_rotated.json,1158922,1357737,30,Woman
75,881071,DepthScenes,duration_manipulation_targetAtFixation,jsons/v1_VE1000_randls_44_rotated.json,http://54.235.29.9/FacialAge/BNav_EC2/DepthDuration/v2_depth_duration_MTurk/v2_DepthDuration_HTML.html#128,128,1364,625,1364,768,8-22-2022,8-1-0,76,depth_duration_stimuli/002043_2014-06-24_20-29-38_260595134347_rgbf000039-resize_4/002043_2014-06-24_20-29-38_260595134347_rgbf000039-resize_4-target.png,1000,2.8435,3,3940,997,feet,jsons/v1_VE1000_randls_44_rotated.json,1158922,1357737,30,Woman
76,881071,DepthScenes,duration_manipulation_targetAtFixation,jsons/v1_VE1000_randls_44_rotated.json,http://54.235.29.9/FacialAge/BNav_EC2/DepthDuration/v2_depth_duration_MTurk/v2_DepthDuration_HTML.html#128,128,1364,625,1364,768,8-22-2022,8-1-0,77,depth_duration_stimuli/000665_2014-06-09_20-42-35_260595134347_rgbf000110-resize_1/000665_2014-06-09_20-42-35_260595134347_rgbf000110-resize_1-target.png,1000,3.057,3,4939,1186,feet,jsons/v1_VE1000_randls_44_rotated.json,1158922,1357737,30,Woman
77,881071,DepthScenes,duration_manipulation_targetAtFixation,jsons/v1_VE1000_randls_44_rotated.json,http://54.235.29.9/FacialAge/BNav_EC2/DepthDuration/v2_depth_duration_MTurk/v2_DepthDuration_HTML.html#128,128,1364,625,1364,768,8-22-2022,8-1-0,78,depth_duration_stimuli/001150_2014-06-17_15-27-34_260595134347_rgbf000108-resize_2/001150_2014-06-17_15-27-34_260595134347_rgbf000108-resize_2-target.png,1000,4.0325,3,6401,1001,feet,jsons/v1_VE1000_randls_44_rotated.json,1158922,1357737,30,Woman
78,881071,DepthScenes,duration_manipulation_targetAtFixation,jsons/v1_VE1000_randls_44_rotated.json,http://54.235.29.9/FacialAge/BNav_EC2/DepthDuration/v2_depth_duration_MTurk/v2_DepthDuration_HTML.html#128,128,1364,625,1364,768,8-22-2022,8-1-0,79,depth_duration_stimuli/003338_2014-05-20_11-01-23_094959634447_rgbf000051-resize_6/003338_2014-05-20_11-01-23_094959634447_rgbf000051-resize_6-target.png,1000,1.693,2,13620,1000,feet,jsons/v1_VE1000_randls_44_rotated.json,1158922,1357737,30,Woman
79,881071,DepthScenes,duration_manipulation_targetAtFixation,jsons/v1_VE1000_randls_44_rotated.json,http://54.235.29.9/FacialAge/BNav_EC2/DepthDuration/v2_depth_duration_MTurk/v2_DepthDuration_HTML.html#128,128,1364,625,1364,768,8-22-2022,8-1-0,80,depth_duration_stimuli/002509_2014-06-24_13-19-22_094959634447_rgbf000077-resize_0/002509_2014-06-24_13-19-22_094959634447_rgbf000077-resize_0-target.png,1000,1.3065,1,5886,1001,feet,jsons/v1_VE1000_randls_44_rotated.json,1158922,1357737,30,Woman
80,881071,DepthScenes,duration_manipulation_targetAtFixation,jsons/v1_VE1000_randls_44_rotated.json,http://54.235.29.9/FacialAge/BNav_EC2/DepthDuration/v2_depth_duration_MTurk/v2_DepthDuration_HTML.html#128,128,1364,625,1364,768,8-22-2022,8-1-0,81,depth_duration_stimuli/001052_2014-06-08_18-24-54_260595134347_rgbf000130-resize_1/001052_2014-06-08_18-24-54_260595134347_rgbf000130-resize_1-target.png,1000,4.1045,3,4921,1003,feet,jsons/v1_VE1000_randls_44_rotated.json,1158922,1357737,30,Woman
81,881071,DepthScenes,duration_manipulation_targetAtFixation,jsons/v1_VE1000_randls_44_rotated.json,http://54.235.29.9/FacialAge/BNav_EC2/DepthDuration/v2_depth_duration_MTurk/v2_DepthDuration_HTML.html#128,128,1364,625,1364,768,8-22-2022,8-1-0,82,depth_duration_stimuli/002988_2014-06-15_12-24-20_094959634447_rgbf000150-resize_1/002988_2014-06-15_12-24-20_094959634447_rgbf000150-resize_1-target.png,1000,4.7669999999999995,2,5404,1000,feet,jsons/v1_VE1000_randls_44_rotated.json,1158922,1357737,30,Woman
82,881071,DepthScenes,duration_manipulation_targetAtFixation,jsons/v1_VE1000_randls_44_rotated.json,http://54.235.29.9/FacialAge/BNav_EC2/DepthDuration/v2_depth_duration_MTurk/v2_DepthDuration_HTML.html#128,128,1364,625,1364,768,8-22-2022,8-1-0,83,depth_duration_stimuli/001100_2014-06-15_17-46-26_260595134347_rgbf000225-resize_2/001100_2014-06-15_17-46-26_260595134347_rgbf000225-resize_2-target.png,1000,2.24,4,5081,997,feet,jsons/v1_VE1000_randls_44_rotated.json,1158922,1357737,30,Woman
83,881071,DepthScenes,duration_manipulation_targetAtFixation,jsons/v1_VE1000_randls_44_rotated.json,http://54.235.29.9/FacialAge/BNav_EC2/DepthDuration/v2_depth_duration_MTurk/v2_DepthDuration_HTML.html#128,128,1364,625,1364,768,8-22-2022,8-1-0,84,depth_duration_stimuli/002784_2014-06-22_19-26-30_094959634447_rgbf000083-resize_3/002784_2014-06-22_19-26-30_094959634447_rgbf000083-resize_3-target.png,1000,1.8046666666667,3,4775,997,feet,jsons/v1_VE1000_randls_44_rotated.json,1158922,1357737,30,Woman
84,881071,DepthScenes,duration_manipulation_targetAtFixation,jsons/v1_VE1000_randls_44_rotated.json,http://54.235.29.9/FacialAge/BNav_EC2/DepthDuration/v2_depth_duration_MTurk/v2_DepthDuration_HTML.html#128,128,1364,625,1364,768,8-22-2022,8-1-0,85,depth_duration_stimuli/000137_2014-05-20_17-04-49_260595134347_rgbf000120-resize_1/000137_2014-05-20_17-04-49_260595134347_rgbf000120-resize_1-target.png,1000,3.786,3,13309,996,feet,jsons/v1_VE1000_randls_44_rotated.json,1158922,1357737,30,Woman
85,881071,DepthScenes,duration_manipulation_targetAtFixation,jsons/v1_VE1000_randls_44_rotated.json,http://54.235.29.9/FacialAge/BNav_EC2/DepthDuration/v2_depth_duration_MTurk/v2_DepthDuration_HTML.html#128,128,1364,625,1364,768,8-22-2022,8-1-0,86,depth_duration_stimuli/000736_2014-06-08_18-24-15_260595134347_rgbf000206-resize_3/000736_2014-06-08_18-24-15_260595134347_rgbf000206-resize_3-target.png,1000,3.515,3,25462,997,feet,jsons/v1_VE1000_randls_44_rotated.json,1158922,1357737,30,Woman
86,881071,DepthScenes,duration_manipulation_targetAtFixation,jsons/v1_VE1000_randls_44_rotated.json,http://54.235.29.9/FacialAge/BNav_EC2/DepthDuration/v2_depth_duration_MTurk/v2_DepthDuration_HTML.html#128,128,1364,625,1364,768,8-22-2022,8-1-0,87,depth_duration_stimuli/002637_2014-06-24_14-51-13_094959634447_rgbf000066-resize_4/002637_2014-06-24_14-51-13_094959634447_rgbf000066-resize_4-target.png,1000,1.9955,3,5003,999,feet,jsons/v1_VE1000_randls_44_rotated.json,1158922,1357737,30,Woman
87,881071,DepthScenes,duration_manipulation_targetAtFixation,jsons/v1_VE1000_randls_44_rotated.json,http://54.235.29.9/FacialAge/BNav_EC2/DepthDuration/v2_depth_duration_MTurk/v2_DepthDuration_HTML.html#128,128,1364,625,1364,768,8-22-2022,8-1-0,88,depth_duration_stimuli/003534_2014-05-22_15-06-10_094959634447_rgbf000102-resize_4/003534_2014-05-22_15-06-10_094959634447_rgbf000102-resize_4-target.png,1000,1.426,6,4214,1003,feet,jsons/v1_VE1000_randls_44_rotated.json,1158922,1357737,30,Woman
88,881071,DepthScenes,duration_manipulation_targetAtFixation,jsons/v1_VE1000_randls_44_rotated.json,http://54.235.29.9/FacialAge/BNav_EC2/DepthDuration/v2_depth_duration_MTurk/v2_DepthDuration_HTML.html#128,128,1364,625,1364,768,8-22-2022,8-1-0,89,depth_duration_stimuli/000556_2014-06-09_22-42-56_260595134347_rgbf000214-resize_1/000556_2014-06-09_22-42-56_260595134347_rgbf000214-resize_1-target.png,1000,4.8415,3,5623,1003,feet,jsons/v1_VE1000_randls_44_rotated.json,1158922,1357737,30,Woman
89,881071,DepthScenes,duration_manipulation_targetAtFixation,jsons/v1_VE1000_randls_44_rotated.json,http://54.235.29.9/FacialAge/BNav_EC2/DepthDuration/v2_depth_duration_MTurk/v2_DepthDuration_HTML.html#128,128,1364,625,1364,768,8-22-2022,8-1-0,90,depth_duration_stimuli/001158_2014-06-17_15-32-16_260595134347_rgbf000138-resize_2/001158_2014-06-17_15-32-16_260595134347_rgbf000138-resize_2-target.png,1000,4.5315,6,6960,1013,feet,jsons/v1_VE1000_randls_44_rotated.json,1158922,1357737,30,Woman
90,881071,DepthScenes,duration_manipulation_targetAtFixation,jsons/v1_VE1000_randls_44_rotated.json,http://54.235.29.9/FacialAge/BNav_EC2/DepthDuration/v2_depth_duration_MTurk/v2_DepthDuration_HTML.html#128,128,1364,625,1364,768,8-22-2022,8-1-0,91,depth_duration_stimuli/002323_2014-06-28_20-01-54_260595134347_rgbf000051-resize_4/002323_2014-06-28_20-01-54_260595134347_rgbf000051-resize_4-target.png,1000,3.7310000000000003,2,4602,998,feet,jsons/v1_VE1000_randls_44_rotated.json,1158922,1357737,30,Woman
91,881071,DepthScenes,duration_manipulation_targetAtFixation,jsons/v1_VE1000_randls_44_rotated.json,http://54.235.29.9/FacialAge/BNav_EC2/DepthDuration/v2_depth_duration_MTurk/v2_DepthDuration_HTML.html#128,128,1364,625,1364,768,8-22-2022,8-1-0,92,depth_duration_stimuli/000917_2014-06-09_22-45-29_260595134347_rgbf000149-resize_3/000917_2014-06-09_22-45-29_260595134347_rgbf000149-resize_3-target.png,1000,4.1865,2,4022,995,feet,jsons/v1_VE1000_randls_44_rotated.json,1158922,1357737,30,Woman
92,881071,DepthScenes,duration_manipulation_targetAtFixation,jsons/v1_VE1000_randls_44_rotated.json,http://54.235.29.9/FacialAge/BNav_EC2/DepthDuration/v2_depth_duration_MTurk/v2_DepthDuration_HTML.html#128,128,1364,625,1364,768,8-22-2022,8-1-0,93,depth_duration_stimuli/002750_2014-06-22_19-08-03_094959634447_rgbf000094-resize_4/002750_2014-06-22_19-08-03_094959634447_rgbf000094-resize_4-target.png,1000,2.354,3,4968,1000,feet,jsons/v1_VE1000_randls_44_rotated.json,1158922,1357737,30,Woman
93,881071,DepthScenes,duration_manipulation_targetAtFixation,jsons/v1_VE1000_randls_44_rotated.json,http://54.235.29.9/FacialAge/BNav_EC2/DepthDuration/v2_depth_duration_MTurk/v2_DepthDuration_HTML.html#128,128,1364,625,1364,768,8-22-2022,8-1-0,94,depth_duration_stimuli/002549_2014-06-24_13-41-39_094959634447_rgbf000022-resize_3/002549_2014-06-24_13-41-39_094959634447_rgbf000022-resize_3-target.png,1000,1.476,1,4270,998,feet,jsons/v1_VE1000_randls_44_rotated.json,1158922,1357737,30,Woman
94,881071,DepthScenes,duration_manipulation_targetAtFixation,jsons/v1_VE1000_randls_44_rotated.json,http://54.235.29.9/FacialAge/BNav_EC2/DepthDuration/v2_depth_duration_MTurk/v2_DepthDuration_HTML.html#128,128,1364,625,1364,768,8-22-2022,8-1-0,95,depth_duration_stimuli/001650_2014-06-20_12-09-00_260595134347_rgbf000087-resize_3/001650_2014-06-20_12-09-00_260595134347_rgbf000087-resize_3-target.png,1000,1.9505,3,4316,986,feet,jsons/v1_VE1000_randls_44_rotated.json,1158922,1357737,30,Woman
95,881071,DepthScenes,duration_manipulation_targetAtFixation,jsons/v1_VE1000_randls_44_rotated.json,http://54.235.29.9/FacialAge/BNav_EC2/DepthDuration/v2_depth_duration_MTurk/v2_DepthDuration_HTML.html#128,128,1364,625,1364,768,8-22-2022,8-1-0,96,depth_duration_stimuli/000682_2014-06-08_23-14-58_260595134347_rgbf000041-resize_5/000682_2014-06-08_23-14-58_260595134347_rgbf000041-resize_5-target.png,1000,2.7239999999999998,3,4242,998,feet,jsons/v1_VE1000_randls_44_rotated.json,1158922,1357737,30,Woman
96,881071,DepthScenes,duration_manipulation_targetAtFixation,jsons/v1_VE1000_randls_44_rotated.json,http://54.235.29.9/FacialAge/BNav_EC2/DepthDuration/v2_depth_duration_MTurk/v2_DepthDuration_HTML.html#128,128,1364,625,1364,768,8-22-2022,8-1-0,97,depth_duration_stimuli/001447_2014-06-19_17-00-32_260595134347_rgbf000082-resize_5/001447_2014-06-19_17-00-32_260595134347_rgbf000082-resize_5-target.png,1000,4.13775,6,5283,999,feet,jsons/v1_VE1000_randls_44_rotated.json,1158922,1357737,30,Woman
97,881071,DepthScenes,duration_manipulation_targetAtFixation,jsons/v1_VE1000_randls_44_rotated.json,http://54.235.29.9/FacialAge/BNav_EC2/DepthDuration/v2_depth_duration_MTurk/v2_DepthDuration_HTML.html#128,128,1364,625,1364,768,8-22-2022,8-1-0,98,depth_duration_stimuli/000447_2014-06-08_16-15-46_260595134347_rgbf000130-resize_1/000447_2014-06-08_16-15-46_260595134347_rgbf000130-resize_1-target.png,1000,4.479,5,4159,993,feet,jsons/v1_VE1000_randls_44_rotated.json,1158922,1357737,30,Woman
98,881071,DepthScenes,duration_manipulation_targetAtFixation,jsons/v1_VE1000_randls_44_rotated.json,http://54.235.29.9/FacialAge/BNav_EC2/DepthDuration/v2_depth_duration_MTurk/v2_DepthDuration_HTML.html#128,128,1364,625,1364,768,8-22-2022,8-1-0,99,depth_duration_stimuli/001222_2014-06-17_16-24-06_260595134347_rgbf000073-resize_0/001222_2014-06-17_16-24-06_260595134347_rgbf000073-resize-original.jpg,1000,1.4385,0,4280,990,feet,jsons/v1_VE1000_randls_44_rotated.json,1158922,1357737,30,Woman
99,881071,DepthScenes,duration_manipulation_targetAtFixation,jsons/v1_VE1000_randls_44_rotated.json,http://54.235.29.9/FacialAge/BNav_EC2/DepthDuration/v2_depth_duration_MTurk/v2_DepthDuration_HTML.html#128,128,1364,625,1364,768,8-22-2022,8-1-0,100,depth_duration_stimuli/000866_2014-06-09_20-45-42_260595134347_rgbf000139-resize_1/000866_2014-06-09_20-45-42_260595134347_rgbf000139-resize_1-target.png,1000,3.2155,4,5719,988,feet,jsons/v1_VE1000_randls_44_rotated.json,1158922,1357737,30,Woman
100,881071,DepthScenes,duration_manipulation_targetAtFixation,jsons/v1_VE1000_randls_44_rotated.json,http://54.235.29.9/FacialAge/BNav_EC2/DepthDuration/v2_depth_duration_MTurk/v2_DepthDuration_HTML.html#128,128,1364,625,1364,768,8-22-2022,8-1-0,101,depth_duration_stimuli/002989_2014-06-15_12-25-03_094959634447_rgbf000150-resize_3/002989_2014-06-15_12-25-03_094959634447_rgbf000150-resize_3-target.png,1000,4.1975,2,4099,998,feet,jsons/v1_VE1000_randls_44_rotated.json,1158922,1357737,30,Woman
101,881071,DepthScenes,duration_manipulation_targetAtFixation,jsons/v1_VE1000_randls_44_rotated.json,http://54.235.29.9/FacialAge/BNav_EC2/DepthDuration/v2_depth_duration_MTurk/v2_DepthDuration_HTML.html#128,128,1364,625,1364,768,8-22-2022,8-1-0,102,depth_duration_stimuli/002949_2014-06-26_15-57-42_094959634447_rgbf000079-resize_1/002949_2014-06-26_15-57-42_094959634447_rgbf000079-resize_1-target.png,1000,1.8915,1,4245,1014,feet,jsons/v1_VE1000_randls_44_rotated.json,1158922,1357737,30,Woman
102,881071,DepthScenes,duration_manipulation_targetAtFixation,jsons/v1_VE1000_randls_44_rotated.json,http://54.235.29.9/FacialAge/BNav_EC2/DepthDuration/v2_depth_duration_MTurk/v2_DepthDuration_HTML.html#128,128,1364,625,1364,768,8-22-2022,8-1-0,103,depth_duration_stimuli/000522_2014-06-08_13-35-06_260595134347_rgbf000244-resize_1/000522_2014-06-08_13-35-06_260595134347_rgbf000244-resize_1-target.png,1000,2.3715,2,5561,1007,feet,jsons/v1_VE1000_randls_44_rotated.json,1158922,1357737,30,Woman
103,881071,DepthScenes,duration_manipulation_targetAtFixation,jsons/v1_VE1000_randls_44_rotated.json,http://54.235.29.9/FacialAge/BNav_EC2/DepthDuration/v2_depth_duration_MTurk/v2_DepthDuration_HTML.html#128,128,1364,625,1364,768,8-22-2022,8-1-0,104,depth_duration_stimuli/002344_2014-06-28_20-06-29_260595134347_rgbf000030-resize_1/002344_2014-06-28_20-06-29_260595134347_rgbf000030-resize_1-target.png,1000,1.5795,2,5011,1010,feet,jsons/v1_VE1000_randls_44_rotated.json,1158922,1357737,30,Woman
104,881071,DepthScenes,duration_manipulation_targetAtFixation,jsons/v1_VE1000_randls_44_rotated.json,http://54.235.29.9/FacialAge/BNav_EC2/DepthDuration/v2_depth_duration_MTurk/v2_DepthDuration_HTML.html#128,128,1364,625,1364,768,8-22-2022,8-1-0,105,depth_duration_stimuli/002725_2014-06-22_11-47-51_094959634447_rgbf000070-resize_1/002725_2014-06-22_11-47-51_094959634447_rgbf000070-resize_1-target.png,1000,2.195,3,4248,996,feet,jsons/v1_VE1000_randls_44_rotated.json,1158922,1357737,30,Woman
105,881071,DepthScenes,duration_manipulation_targetAtFixation,jsons/v1_VE1000_randls_44_rotated.json,http://54.235.29.9/FacialAge/BNav_EC2/DepthDuration/v2_depth_duration_MTurk/v2_DepthDuration_HTML.html#128,128,1364,625,1364,768,8-22-2022,8-1-0,106,depth_duration_stimuli/000943_2014-06-09_19-31-07_260595134347_rgbf000128-resize_1/000943_2014-06-09_19-31-07_260595134347_rgbf000128-resize_1-target.png,1000,1.9765,2,4996,982,feet,jsons/v1_VE1000_randls_44_rotated.json,1158922,1357737,30,Woman
106,881071,DepthScenes,duration_manipulation_targetAtFixation,jsons/v1_VE1000_randls_44_rotated.json,http://54.235.29.9/FacialAge/BNav_EC2/DepthDuration/v2_depth_duration_MTurk/v2_DepthDuration_HTML.html#128,128,1364,625,1364,768,8-22-2022,8-1-0,107,depth_duration_stimuli/003070_2014-06-15_14-58-27_094959634447_rgbf000150-resize_3/003070_2014-06-15_14-58-27_094959634447_rgbf000150-resize_3-target.png,1000,2.9415,3,3737,992,feet,jsons/v1_VE1000_randls_44_rotated.json,1158922,1357737,30,Woman
107,881071,DepthScenes,duration_manipulation_targetAtFixation,jsons/v1_VE1000_randls_44_rotated.json,http://54.235.29.9/FacialAge/BNav_EC2/DepthDuration/v2_depth_duration_MTurk/v2_DepthDuration_HTML.html#128,128,1364,625,1364,768,8-22-2022,8-1-0,108,depth_duration_stimuli/002758_2014-06-22_19-11-20_094959634447_rgbf000128-resize_1/002758_2014-06-22_19-11-20_094959634447_rgbf000128-resize_1-target.png,1000,2.555,3,3947,981,feet,jsons/v1_VE1000_randls_44_rotated.json,1158922,1357737,30,Woman
108,881071,DepthScenes,duration_manipulation_targetAtFixation,jsons/v1_VE1000_randls_44_rotated.json,http://54.235.29.9/FacialAge/BNav_EC2/DepthDuration/v2_depth_duration_MTurk/v2_DepthDuration_HTML.html#128,128,1364,625,1364,768,8-22-2022,8-1-0,109,depth_duration_stimuli/002630_2014-06-24_14-47-50_094959634447_rgbf000055-resize_1/002630_2014-06-24_14-47-50_094959634447_rgbf000055-resize_1-target.png,1000,3.0095,2,3973,999,feet,jsons/v1_VE1000_randls_44_rotated.json,1158922,1357737,30,Woman
109,881071,DepthScenes,duration_manipulation_targetAtFixation,jsons/v1_VE1000_randls_44_rotated.json,http://54.235.29.9/FacialAge/BNav_EC2/DepthDuration/v2_depth_duration_MTurk/v2_DepthDuration_HTML.html#128,128,1364,625,1364,768,8-22-2022,8-1-0,110,depth_duration_stimuli/002340_2014-06-28_20-05-46_260595134347_rgbf000113-resize_0/002340_2014-06-28_20-05-46_260595134347_rgbf000113-resize_0-target.png,1000,2.4735,2,4118,982,feet,jsons/v1_VE1000_randls_44_rotated.json,1158922,1357737,30,Woman
110,881071,DepthScenes,duration_manipulation_targetAtFixation,jsons/v1_VE1000_randls_44_rotated.json,http://54.235.29.9/FacialAge/BNav_EC2/DepthDuration/v2_depth_duration_MTurk/v2_DepthDuration_HTML.html#128,128,1364,625,1364,768,8-22-2022,8-1-0,111,depth_duration_stimuli/001016_2014-06-09_16-16-10_260595134347_rgbf000112-resize_5/001016_2014-06-09_16-16-10_260595134347_rgbf000112-resize_5-target.png,1000,1.6565,3,4331,996,feet,jsons/v1_VE1000_randls_44_rotated.json,1158922,1357737,30,Woman
111,881071,DepthScenes,duration_manipulation_targetAtFixation,jsons/v1_VE1000_randls_44_rotated.json,http://54.235.29.9/FacialAge/BNav_EC2/DepthDuration/v2_depth_duration_MTurk/v2_DepthDuration_HTML.html#128,128,1364,625,1364,768,8-22-2022,8-1-0,112,depth_duration_stimuli/001584_2014-06-20_11-07-43_260595134347_rgbf000002-resize_1/001584_2014-06-20_11-07-43_260595134347_rgbf000002-resize_1-target.png,1000,3.53,3,7385,1002,feet,jsons/v1_VE1000_randls_44_rotated.json,1158922,1357737,30,Woman
112,881071,DepthScenes,duration_manipulation_targetAtFixation,jsons/v1_VE1000_randls_44_rotated.json,http://54.235.29.9/FacialAge/BNav_EC2/DepthDuration/v2_depth_duration_MTurk/v2_DepthDuration_HTML.html#128,128,1364,625,1364,768,8-22-2022,8-1-0,113,depth_duration_stimuli/003621_2014-05-23_18-06-08_094959634447_rgbf000101-resize_1/003621_2014-05-23_18-06-08_094959634447_rgbf000101-resize_1-target.png,1000,3.9835,2,6258,988,feet,jsons/v1_VE1000_randls_44_rotated.json,1158922,1357737,30,Woman
113,881071,DepthScenes,duration_manipulation_targetAtFixation,jsons/v1_VE1000_randls_44_rotated.json,http://54.235.29.9/FacialAge/BNav_EC2/DepthDuration/v2_depth_duration_MTurk/v2_DepthDuration_HTML.html#128,128,1364,625,1364,768,8-22-2022,8-1-0,114,depth_duration_stimuli/001617_2014-06-20_11-35-32_260595134347_rgbf000066-resize_1/001617_2014-06-20_11-35-32_260595134347_rgbf000066-resize_1-target.png,1000,3.7910000000000004,3,4361,995,feet,jsons/v1_VE1000_randls_44_rotated.json,1158922,1357737,30,Woman
114,881071,DepthScenes,duration_manipulation_targetAtFixation,jsons/v1_VE1000_randls_44_rotated.json,http://54.235.29.9/FacialAge/BNav_EC2/DepthDuration/v2_depth_duration_MTurk/v2_DepthDuration_HTML.html#128,128,1364,625,1364,768,8-22-2022,8-1-0,115,depth_duration_stimuli/001806_2014-06-26_20-50-20_260595134347_rgbf000091-resize_1/001806_2014-06-26_20-50-20_260595134347_rgbf000091-resize_1-target.png,1000,2.7305,3,4193,994,feet,jsons/v1_VE1000_randls_44_rotated.json,1158922,1357737,30,Woman
115,881071,DepthScenes,duration_manipulation_targetAtFixation,jsons/v1_VE1000_randls_44_rotated.json,http://54.235.29.9/FacialAge/BNav_EC2/DepthDuration/v2_depth_duration_MTurk/v2_DepthDuration_HTML.html#128,128,1364,625,1364,768,8-22-2022,8-1-0,116,depth_duration_stimuli/000502_2014-06-08_23-02-32_260595134347_rgbf000063-resize_4/000502_2014-06-08_23-02-32_260595134347_rgbf000063-resize_4-target.png,1000,2.431,2,4235,851,feet,jsons/v1_VE1000_randls_44_rotated.json,1158922,1357737,30,Woman
116,881071,DepthScenes,duration_manipulation_targetAtFixation,jsons/v1_VE1000_randls_44_rotated.json,http://54.235.29.9/FacialAge/BNav_EC2/DepthDuration/v2_depth_duration_MTurk/v2_DepthDuration_HTML.html#128,128,1364,625,1364,768,8-22-2022,8-1-0,117,depth_duration_stimuli/001199_2014-06-17_16-03-48_260595134347_rgbf000077-resize_0/001199_2014-06-17_16-03-48_260595134347_rgbf000077-resize_0-target.png,1000,3.4375,3,5775,995,feet,jsons/v1_VE1000_randls_44_rotated.json,1158922,1357737,30,Woman
117,881071,DepthScenes,duration_manipulation_targetAtFixation,jsons/v1_VE1000_randls_44_rotated.json,http://54.235.29.9/FacialAge/BNav_EC2/DepthDuration/v2_depth_duration_MTurk/v2_DepthDuration_HTML.html#128,128,1364,625,1364,768,8-22-2022,8-1-0,118,depth_duration_stimuli/002953_2014-06-08_17-32-18_094959634447_rgbf000059-resize_5/002953_2014-06-08_17-32-18_094959634447_rgbf000059-resize_5-target.png,1000,1.551,4,5061,984,feet,jsons/v1_VE1000_randls_44_rotated.json,1158922,1357737,30,Woman
118,881071,DepthScenes,duration_manipulation_targetAtFixation,jsons/v1_VE1000_randls_44_rotated.json,http://54.235.29.9/FacialAge/BNav_EC2/DepthDuration/v2_depth_duration_MTurk/v2_DepthDuration_HTML.html#128,128,1364,625,1364,768,8-22-2022,8-1-0,119,depth_duration_stimuli/000878_2014-06-08_22-52-45_260595134347_rgbf000045-resize_2/000878_2014-06-08_22-52-45_260595134347_rgbf000045-resize_2-target.png,1000,2.092,3,4192,999,feet,jsons/v1_VE1000_randls_44_rotated.json,1158922,1357737,30,Woman
119,881071,DepthScenes,duration_manipulation_targetAtFixation,jsons/v1_VE1000_randls_44_rotated.json,http://54.235.29.9/FacialAge/BNav_EC2/DepthDuration/v2_depth_duration_MTurk/v2_DepthDuration_HTML.html#128,128,1364,625,1364,768,8-22-2022,8-1-0,120,depth_duration_stimuli/000787_2014-06-08_22-33-53_260595134347_rgbf000175-resize_1/000787_2014-06-08_22-33-53_260595134347_rgbf000175-resize-original.jpg,1000,4.784,0,4109,998,feet,jsons/v1_VE1000_randls_44_rotated.json,1158922,1357737,30,Woman
120,881071,DepthScenes,duration_manipulation_targetAtFixation,jsons/v1_VE1000_randls_44_rotated.json,http://54.235.29.9/FacialAge/BNav_EC2/DepthDuration/v2_depth_duration_MTurk/v2_DepthDuration_HTML.html#128,128,1364,625,1364,768,8-22-2022,8-1-0,121,depth_duration_stimuli/001136_2014-06-17_15-19-41_260595134347_rgbf000076-resize_3/001136_2014-06-17_15-19-41_260595134347_rgbf000076-resize_3-target.png,1000,1.8655,6,4210,1001,feet,jsons/v1_VE1000_randls_44_rotated.json,1158922,1357737,30,Woman
121,881071,DepthScenes,duration_manipulation_targetAtFixation,jsons/v1_VE1000_randls_44_rotated.json,http://54.235.29.9/FacialAge/BNav_EC2/DepthDuration/v2_depth_duration_MTurk/v2_DepthDuration_HTML.html#128,128,1364,625,1364,768,8-22-2022,8-1-0,122,depth_duration_stimuli/001164_2014-06-17_15-35-46_260595134347_rgbf000085-resize_3/001164_2014-06-17_15-35-46_260595134347_rgbf000085-resize_3-target.png,1000,2.354,5,4495,1009,feet,jsons/v1_VE1000_randls_44_rotated.json,1158922,1357737,30,Woman
122,881071,DepthScenes,duration_manipulation_targetAtFixation,jsons/v1_VE1000_randls_44_rotated.json,http://54.235.29.9/FacialAge/BNav_EC2/DepthDuration/v2_depth_duration_MTurk/v2_DepthDuration_HTML.html#128,128,1364,625,1364,768,8-22-2022,8-1-0,123,depth_duration_stimuli/000409_2014-06-04_19-23-33_260595134347_rgbf000067-resize_0/000409_2014-06-04_19-23-33_260595134347_rgbf000067-resize_0-target.png,1000,3.7335,3,4461,991,feet,jsons/v1_VE1000_randls_44_rotated.json,1158922,1357737,30,Woman
123,881071,DepthScenes,duration_manipulation_targetAtFixation,jsons/v1_VE1000_randls_44_rotated.json,http://54.235.29.9/FacialAge/BNav_EC2/DepthDuration/v2_depth_duration_MTurk/v2_DepthDuration_HTML.html#128,128,1364,625,1364,768,8-22-2022,8-1-0,124,depth_duration_stimuli/002663_2014-06-13_15-50-26_094959634447_rgbf000075-resize_1/002663_2014-06-13_15-50-26_094959634447_rgbf000075-resize_1-target.png,1000,4.7495,3,4445,978,feet,jsons/v1_VE1000_randls_44_rotated.json,1158922,1357737,30,Woman
124,881071,DepthScenes,duration_manipulation_targetAtFixation,jsons/v1_VE1000_randls_44_rotated.json,http://54.235.29.9/FacialAge/BNav_EC2/DepthDuration/v2_depth_duration_MTurk/v2_DepthDuration_HTML.html#128,128,1364,625,1364,768,8-22-2022,8-1-0,125,depth_duration_stimuli/003490_2014-05-21_15-50-11_094959634447_rgbf000101-resize_3/003490_2014-05-21_15-50-11_094959634447_rgbf000101-resize_3-target.png,1000,3.6445,3,5355,1115,feet,jsons/v1_VE1000_randls_44_rotated.json,1158922,1357737,30,Woman
125,881071,DepthScenes,duration_manipulation_targetAtFixation,jsons/v1_VE1000_randls_44_rotated.json,http://54.235.29.9/FacialAge/BNav_EC2/DepthDuration/v2_depth_duration_MTurk/v2_DepthDuration_HTML.html#128,128,1364,625,1364,768,8-22-2022,8-1-0,126,depth_duration_stimuli/001175_2014-06-17_15-45-55_260595134347_rgbf000129-resize_4/001175_2014-06-17_15-45-55_260595134347_rgbf000129-resize_4-target.png,1000,4.255,1,5183,986,feet,jsons/v1_VE1000_randls_44_rotated.json,1158922,1357737,30,Woman
126,881071,DepthScenes,duration_manipulation_targetAtFixation,jsons/v1_VE1000_randls_44_rotated.json,http://54.235.29.9/FacialAge/BNav_EC2/DepthDuration/v2_depth_duration_MTurk/v2_DepthDuration_HTML.html#128,128,1364,625,1364,768,8-22-2022,8-1-0,127,depth_duration_stimuli/000734_2014-06-08_17-39-11_260595134347_rgbf000128-resize_2/000734_2014-06-08_17-39-11_260595134347_rgbf000128-resize_2-target.png,1000,4.098,3,4109,996,feet,jsons/v1_VE1000_randls_44_rotated.json,1158922,1357737,30,Woman
127,881071,DepthScenes,duration_manipulation_targetAtFixation,jsons/v1_VE1000_randls_44_rotated.json,http://54.235.29.9/FacialAge/BNav_EC2/DepthDuration/v2_depth_duration_MTurk/v2_DepthDuration_HTML.html#128,128,1364,625,1364,768,8-22-2022,8-1-0,128,depth_duration_stimuli/000739_2014-06-08_18-45-58_260595134347_rgbf000068-resize_1/000739_2014-06-08_18-45-58_260595134347_rgbf000068-resize_1-target.png,1000,3.534,4,4745,996,feet,jsons/v1_VE1000_randls_44_rotated.json,1158922,1357737,30,Woman
128,881071,DepthScenes,duration_manipulation_targetAtFixation,jsons/v1_VE1000_randls_44_rotated.json,http://54.235.29.9/FacialAge/BNav_EC2/DepthDuration/v2_depth_duration_MTurk/v2_DepthDuration_HTML.html#128,128,1364,625,1364,768,8-22-2022,8-1-0,129,depth_duration_stimuli/002103_2014-06-25_20-00-40_260595134347_rgbf000049-resize_0/002103_2014-06-25_20-00-40_260595134347_rgbf000049-resize_0-target.png,1000,4.105,3,4392,1000,feet,jsons/v1_VE1000_randls_44_rotated.json,1158922,1357737,30,Woman
129,881071,DepthScenes,duration_manipulation_targetAtFixation,jsons/v1_VE1000_randls_44_rotated.json,http://54.235.29.9/FacialAge/BNav_EC2/DepthDuration/v2_depth_duration_MTurk/v2_DepthDuration_HTML.html#128,128,1364,625,1364,768,8-22-2022,8-1-0,130,depth_duration_stimuli/002039_2014-06-24_20-22-38_260595134347_rgbf000084-resize_1/002039_2014-06-24_20-22-38_260595134347_rgbf000084-resize_1-target.png,1000,4.408,3,4154,998,feet,jsons/v1_VE1000_randls_44_rotated.json,1158922,1357737,30,Woman
130,881071,DepthScenes,duration_manipulation_targetAtFixation,jsons/v1_VE1000_randls_44_rotated.json,http://54.235.29.9/FacialAge/BNav_EC2/DepthDuration/v2_depth_duration_MTurk/v2_DepthDuration_HTML.html#128,128,1364,625,1364,768,8-22-2022,8-1-0,131,depth_duration_stimuli/000457_2014-06-08_16-52-43_260595134347_rgbf000199-resize_1/000457_2014-06-08_16-52-43_260595134347_rgbf000199-resize_1-target.png,1000,3.6489999999999996,3,4413,977,feet,jsons/v1_VE1000_randls_44_rotated.json,1158922,1357737,30,Woman
131,881071,DepthScenes,duration_manipulation_targetAtFixation,jsons/v1_VE1000_randls_44_rotated.json,http://54.235.29.9/FacialAge/BNav_EC2/DepthDuration/v2_depth_duration_MTurk/v2_DepthDuration_HTML.html#128,128,1364,625,1364,768,8-22-2022,8-1-0,132,depth_duration_stimuli/000929_2014-06-09_16-33-19_260595134347_rgbf000139-resize_0/000929_2014-06-09_16-33-19_260595134347_rgbf000139-resize_0-target.png,1000,2.8680000000000003,3,4449,1042,feet,jsons/v1_VE1000_randls_44_rotated.json,1158922,1357737,30,Woman
132,881071,DepthScenes,duration_manipulation_targetAtFixation,jsons/v1_VE1000_randls_44_rotated.json,http://54.235.29.9/FacialAge/BNav_EC2/DepthDuration/v2_depth_duration_MTurk/v2_DepthDuration_HTML.html#128,128,1364,625,1364,768,8-22-2022,8-1-0,133,depth_duration_stimuli/000635_2014-06-08_16-38-42_260595134347_rgbf000106-resize_1/000635_2014-06-08_16-38-42_260595134347_rgbf000106-resize_1-target.png,1000,2.074,2,3953,997,feet,jsons/v1_VE1000_randls_44_rotated.json,1158922,1357737,30,Woman
133,881071,DepthScenes,duration_manipulation_targetAtFixation,jsons/v1_VE1000_randls_44_rotated.json,http://54.235.29.9/FacialAge/BNav_EC2/DepthDuration/v2_depth_duration_MTurk/v2_DepthDuration_HTML.html#128,128,1364,625,1364,768,8-22-2022,8-1-0,134,depth_duration_stimuli/002279_2014-06-28_18-55-32_260595134347_rgbf000040-resize_5/002279_2014-06-28_18-55-32_260595134347_rgbf000040-resize_5-target.png,1000,1.5043333333333,3,5830,997,feet,jsons/v1_VE1000_randls_44_rotated.json,1158922,1357737,30,Woman
134,881071,DepthScenes,duration_manipulation_targetAtFixation,jsons/v1_VE1000_randls_44_rotated.json,http://54.235.29.9/FacialAge/BNav_EC2/DepthDuration/v2_depth_duration_MTurk/v2_DepthDuration_HTML.html#128,128,1364,625,1364,768,8-22-2022,8-1-0,135,depth_duration_stimuli/000375_2014-06-08_11-17-29_260595134347_rgbf000133-resize_2/000375_2014-06-08_11-17-29_260595134347_rgbf000133-resize-original.jpg,1000,4.718,3,5124,1016,feet,jsons/v1_VE1000_randls_44_rotated.json,1158922,1357737,30,Woman
135,881071,DepthScenes,duration_manipulation_targetAtFixation,jsons/v1_VE1000_randls_44_rotated.json,http://54.235.29.9/FacialAge/BNav_EC2/DepthDuration/v2_depth_duration_MTurk/v2_DepthDuration_HTML.html#128,128,1364,625,1364,768,8-22-2022,8-1-0,136,depth_duration_stimuli/003081_2014-06-15_15-19-16_094959634447_rgbf000150-resize_1/003081_2014-06-15_15-19-16_094959634447_rgbf000150-resize_1-target.png,1000,3.9125,5,4521,989,feet,jsons/v1_VE1000_randls_44_rotated.json,1158922,1357737,30,Woman
136,881071,DepthScenes,duration_manipulation_targetAtFixation,jsons/v1_VE1000_randls_44_rotated.json,http://54.235.29.9/FacialAge/BNav_EC2/DepthDuration/v2_depth_duration_MTurk/v2_DepthDuration_HTML.html#128,128,1364,625,1364,768,8-22-2022,8-1-0,137,depth_duration_stimuli/001417_2014-06-19_16-25-36_260595134347_rgbf000115-resize_5/001417_2014-06-19_16-25-36_260595134347_rgbf000115-resize_5-target.png,1000,4.6255,3,3997,994,feet,jsons/v1_VE1000_randls_44_rotated.json,1158922,1357737,30,Woman
137,881071,DepthScenes,duration_manipulation_targetAtFixation,jsons/v1_VE1000_randls_44_rotated.json,http://54.235.29.9/FacialAge/BNav_EC2/DepthDuration/v2_depth_duration_MTurk/v2_DepthDuration_HTML.html#128,128,1364,625,1364,768,8-22-2022,8-1-0,138,depth_duration_stimuli/001132_2014-06-17_14-48-54_260595134347_rgbf000100-resize_2/001132_2014-06-17_14-48-54_260595134347_rgbf000100-resize_2-target.png,1000,3.753,3,4497,1039,feet,jsons/v1_VE1000_randls_44_rotated.json,1158922,1357737,30,Woman
138,881071,DepthScenes,duration_manipulation_targetAtFixation,jsons/v1_VE1000_randls_44_rotated.json,http://54.235.29.9/FacialAge/BNav_EC2/DepthDuration/v2_depth_duration_MTurk/v2_DepthDuration_HTML.html#128,128,1364,625,1364,768,8-22-2022,8-1-0,139,depth_duration_stimuli/001133_2014-06-17_14-49-16_260595134347_rgbf000100-resize_0/001133_2014-06-17_14-49-16_260595134347_rgbf000100-resize_0-target.png,1000,4.2115,5,5565,1010,feet,jsons/v1_VE1000_randls_44_rotated.json,1158922,1357737,30,Woman
139,881071,DepthScenes,duration_manipulation_targetAtFixation,jsons/v1_VE1000_randls_44_rotated.json,http://54.235.29.9/FacialAge/BNav_EC2/DepthDuration/v2_depth_duration_MTurk/v2_DepthDuration_HTML.html#128,128,1364,625,1364,768,8-22-2022,8-1-0,140,depth_duration_stimuli/002425_2014-06-28_20-27-29_260595134347_rgbf000031-resize_8/002425_2014-06-28_20-27-29_260595134347_rgbf000031-resize_8-target.png,1000,3.8960000000000004,4,4948,1005,feet,jsons/v1_VE1000_randls_44_rotated.json,1158922,1357737,30,Woman
140,881071,DepthScenes,duration_manipulation_targetAtFixation,jsons/v1_VE1000_randls_44_rotated.json,http://54.235.29.9/FacialAge/BNav_EC2/DepthDuration/v2_depth_duration_MTurk/v2_DepthDuration_HTML.html#128,128,1364,625,1364,768,8-22-2022,8-1-0,141,depth_duration_stimuli/000642_2014-06-08_16-59-25_260595134347_rgbf000098-resize_2/000642_2014-06-08_16-59-25_260595134347_rgbf000098-resize_2-target.png,1000,2.8815,2,4174,1000,feet,jsons/v1_VE1000_randls_44_rotated.json,1158922,1357737,30,Woman
141,881071,DepthScenes,duration_manipulation_targetAtFixation,jsons/v1_VE1000_randls_44_rotated.json,http://54.235.29.9/FacialAge/BNav_EC2/DepthDuration/v2_depth_duration_MTurk/v2_DepthDuration_HTML.html#128,128,1364,625,1364,768,8-22-2022,8-1-0,142,depth_duration_stimuli/000691_2014-06-08_13-08-50_260595134347_rgbf000132-resize_3/000691_2014-06-08_13-08-50_260595134347_rgbf000132-resize_3-target.png,1000,4.1530000000000005,3,3990,999,feet,jsons/v1_VE1000_randls_44_rotated.json,1158922,1357737,30,Woman
142,881071,DepthScenes,duration_manipulation_targetAtFixation,jsons/v1_VE1000_randls_44_rotated.json,http://54.235.29.9/FacialAge/BNav_EC2/DepthDuration/v2_depth_duration_MTurk/v2_DepthDuration_HTML.html#128,128,1364,625,1364,768,8-22-2022,8-1-0,143,depth_duration_stimuli/002213_2014-06-28_18-37-58_260595134347_rgbf000055-resize_1/002213_2014-06-28_18-37-58_260595134347_rgbf000055-resize_1-target.png,1000,3.62,3,3575,1000,feet,jsons/v1_VE1000_randls_44_rotated.json,1158922,1357737,30,Woman
143,881071,DepthScenes,duration_manipulation_targetAtFixation,jsons/v1_VE1000_randls_44_rotated.json,http://54.235.29.9/FacialAge/BNav_EC2/DepthDuration/v2_depth_duration_MTurk/v2_DepthDuration_HTML.html#128,128,1364,625,1364,768,8-22-2022,8-1-0,144,depth_duration_stimuli/002657_2014-06-13_15-29-54_094959634447_rgbf000150-resize_1/002657_2014-06-13_15-29-54_094959634447_rgbf000150-resize_1-target.png,1000,4.919,1,5248,1001,feet,jsons/v1_VE1000_randls_44_rotated.json,1158922,1357737,30,Woman
144,881071,DepthScenes,duration_manipulation_targetAtFixation,jsons/v1_VE1000_randls_44_rotated.json,http://54.235.29.9/FacialAge/BNav_EC2/DepthDuration/v2_depth_duration_MTurk/v2_DepthDuration_HTML.html#128,128,1364,625,1364,768,8-22-2022,8-1-0,145,depth_duration_stimuli/002375_2014-06-28_20-13-44_260595134347_rgbf000032-resize_1/002375_2014-06-28_20-13-44_260595134347_rgbf000032-resize_1-target.png,1000,4.0175,1,5191,1068,feet,jsons/v1_VE1000_randls_44_rotated.json,1158922,1357737,30,Woman
145,881071,DepthScenes,duration_manipulation_targetAtFixation,jsons/v1_VE1000_randls_44_rotated.json,http://54.235.29.9/FacialAge/BNav_EC2/DepthDuration/v2_depth_duration_MTurk/v2_DepthDuration_HTML.html#128,128,1364,625,1364,768,8-22-2022,8-1-0,146,depth_duration_stimuli/000109_2014-05-14_23-41-52_260595134347_rgbf000035-resize_9/000109_2014-05-14_23-41-52_260595134347_rgbf000035-resize_9-target.png,1000,1.3545,1,5649,1000,feet,jsons/v1_VE1000_randls_44_rotated.json,1158922,1357737,30,Woman
146,881071,DepthScenes,duration_manipulation_targetAtFixation,jsons/v1_VE1000_randls_44_rotated.json,http://54.235.29.9/FacialAge/BNav_EC2/DepthDuration/v2_depth_duration_MTurk/v2_DepthDuration_HTML.html#128,128,1364,625,1364,768,8-22-2022,8-1-0,147,depth_duration_stimuli/000470_2014-06-09_19-42-40_260595134347_rgbf000094-resize_1/000470_2014-06-09_19-42-40_260595134347_rgbf000094-resize_1-target.png,1000,1.831,2,3573,993,feet,jsons/v1_VE1000_randls_44_rotated.json,1158922,1357737,30,Woman
147,881071,DepthScenes,duration_manipulation_targetAtFixation,jsons/v1_VE1000_randls_44_rotated.json,http://54.235.29.9/FacialAge/BNav_EC2/DepthDuration/v2_depth_duration_MTurk/v2_DepthDuration_HTML.html#128,128,1364,625,1364,768,8-22-2022,8-1-0,148,depth_duration_stimuli/000780_2014-06-08_22-28-29_260595134347_rgbf000126-resize_1/000780_2014-06-08_22-28-29_260595134347_rgbf000126-resize_1-target.png,1000,3.3825,5,5600,989,feet,jsons/v1_VE1000_randls_44_rotated.json,1158922,1357737,30,Woman
148,881071,DepthScenes,duration_manipulation_targetAtFixation,jsons/v1_VE1000_randls_44_rotated.json,http://54.235.29.9/FacialAge/BNav_EC2/DepthDuration/v2_depth_duration_MTurk/v2_DepthDuration_HTML.html#128,128,1364,625,1364,768,8-22-2022,8-1-0,149,depth_duration_stimuli/002445_2014-06-28_20-32-16_260595134347_rgbf000029-resize_4/002445_2014-06-28_20-32-16_260595134347_rgbf000029-resize_4-target.png,1000,2.5315,2,4257,996,feet,jsons/v1_VE1000_randls_44_rotated.json,1158922,1357737,30,Woman
149,881071,DepthScenes,duration_manipulation_targetAtFixation,jsons/v1_VE1000_randls_44_rotated.json,http://54.235.29.9/FacialAge/BNav_EC2/DepthDuration/v2_depth_duration_MTurk/v2_DepthDuration_HTML.html#128,128,1364,625,1364,768,8-22-2022,8-1-0,150,depth_duration_stimuli/001094_2014-06-15_17-36-00_260595134347_rgbf000205-resize_0/001094_2014-06-15_17-36-00_260595134347_rgbf000205-resize_0-target.png,1000,4.2175,3,4718,997,feet,jsons/v1_VE1000_randls_44_rotated.json,1158922,1357737,30,Woman
150,881071,DepthScenes,duration_manipulation_targetAtFixation,jsons/v1_VE1000_randls_44_rotated.json,http://54.235.29.9/FacialAge/BNav_EC2/DepthDuration/v2_depth_duration_MTurk/v2_DepthDuration_HTML.html#128,128,1364,625,1364,768,8-22-2022,8-1-0,151,depth_duration_stimuli/000692_2014-06-08_13-09-42_260595134347_rgbf000199-resize_2/000692_2014-06-08_13-09-42_260595134347_rgbf000199-resize_2-target.png,1000,3.661,2,4134,999,feet,jsons/v1_VE1000_randls_44_rotated.json,1158922,1357737,30,Woman
151,881071,DepthScenes,duration_manipulation_targetAtFixation,jsons/v1_VE1000_randls_44_rotated.json,http://54.235.29.9/FacialAge/BNav_EC2/DepthDuration/v2_depth_duration_MTurk/v2_DepthDuration_HTML.html#128,128,1364,625,1364,768,8-22-2022,8-1-0,152,depth_duration_stimuli/000569_2014-06-09_22-51-47_260595134347_rgbf000141-resize_3/000569_2014-06-09_22-51-47_260595134347_rgbf000141-resize-original.jpg,1000,4.512,3,4357,1002,feet,jsons/v1_VE1000_randls_44_rotated.json,1158922,1357737,30,Woman
152,881071,DepthScenes,duration_manipulation_targetAtFixation,jsons/v1_VE1000_randls_44_rotated.json,http://54.235.29.9/FacialAge/BNav_EC2/DepthDuration/v2_depth_duration_MTurk/v2_DepthDuration_HTML.html#128,128,1364,625,1364,768,8-22-2022,8-1-0,153,depth_duration_stimuli/001214_2014-06-17_16-13-55_260595134347_rgbf000111-resize_0/001214_2014-06-17_16-13-55_260595134347_rgbf000111-resize_0-target.png,1000,2.6505,3,4385,1004,feet,jsons/v1_VE1000_randls_44_rotated.json,1158922,1357737,30,Woman
153,881071,DepthScenes,duration_manipulation_targetAtFixation,jsons/v1_VE1000_randls_44_rotated.json,http://54.235.29.9/FacialAge/BNav_EC2/DepthDuration/v2_depth_duration_MTurk/v2_DepthDuration_HTML.html#128,128,1364,625,1364,768,8-22-2022,8-1-0,154,depth_duration_stimuli/000810_2014-06-08_17-20-01_260595134347_rgbf000105-resize_0/000810_2014-06-08_17-20-01_260595134347_rgbf000105-resize_0-target.png,1000,1.4865,2,4238,999,feet,jsons/v1_VE1000_randls_44_rotated.json,1158922,1357737,30,Woman
154,881071,DepthScenes,duration_manipulation_targetAtFixation,jsons/v1_VE1000_randls_44_rotated.json,http://54.235.29.9/FacialAge/BNav_EC2/DepthDuration/v2_depth_duration_MTurk/v2_DepthDuration_HTML.html#128,128,1364,625,1364,768,8-22-2022,8-1-0,155,depth_duration_stimuli/001516_2014-06-20_16-25-09_260595134347_rgbf000076-resize_2/001516_2014-06-20_16-25-09_260595134347_rgbf000076-resize_2-target.png,1000,1.7445,1,4166,999,feet,jsons/v1_VE1000_randls_44_rotated.json,1158922,1357737,30,Woman
155,881071,DepthScenes,duration_manipulation_targetAtFixation,jsons/v1_VE1000_randls_44_rotated.json,http://54.235.29.9/FacialAge/BNav_EC2/DepthDuration/v2_depth_duration_MTurk/v2_DepthDuration_HTML.html#128,128,1364,625,1364,768,8-22-2022,8-1-0,156,depth_duration_stimuli/002118_2014-06-25_20-32-08_260595134347_rgbf000078-resize_1/002118_2014-06-25_20-32-08_260595134347_rgbf000078-resize_1-target.png,1000,2.6460000000000004,3,6259,1012,feet,jsons/v1_VE1000_randls_44_rotated.json,1158922,1357737,30,Woman
156,881071,DepthScenes,duration_manipulation_targetAtFixation,jsons/v1_VE1000_randls_44_rotated.json,http://54.235.29.9/FacialAge/BNav_EC2/DepthDuration/v2_depth_duration_MTurk/v2_DepthDuration_HTML.html#128,128,1364,625,1364,768,8-22-2022,8-1-0,157,depth_duration_stimuli/002467_2014-06-28_20-38-07_260595134347_rgbf000026-resize_2/002467_2014-06-28_20-38-07_260595134347_rgbf000026-resize_2-target.png,1000,4.742,3,4313,1000,feet,jsons/v1_VE1000_randls_44_rotated.json,1158922,1357737,30,Woman
157,881071,DepthScenes,duration_manipulation_targetAtFixation,jsons/v1_VE1000_randls_44_rotated.json,http://54.235.29.9/FacialAge/BNav_EC2/DepthDuration/v2_depth_duration_MTurk/v2_DepthDuration_HTML.html#128,128,1364,625,1364,768,8-22-2022,8-1-0,158,depth_duration_stimuli/002570_2014-06-24_13-59-54_094959634447_rgbf000059-resize_0/002570_2014-06-24_13-59-54_094959634447_rgbf000059-resize_0-target.png,1000,4.037,1,3968,1014,feet,jsons/v1_VE1000_randls_44_rotated.json,1158922,1357737,30,Woman
158,881071,DepthScenes,duration_manipulation_targetAtFixation,jsons/v1_VE1000_randls_44_rotated.json,http://54.235.29.9/FacialAge/BNav_EC2/DepthDuration/v2_depth_duration_MTurk/v2_DepthDuration_HTML.html#128,128,1364,625,1364,768,8-22-2022,8-1-0,159,depth_duration_stimuli/001828_2014-06-26_21-40-03_260595134347_rgbf000024-resize_0/001828_2014-06-26_21-40-03_260595134347_rgbf000024-resize_0-target.png,1000,4.8260000000000005,3,4650,1013,feet,jsons/v1_VE1000_randls_44_rotated.json,1158922,1357737,30,Woman
159,881071,DepthScenes,duration_manipulation_targetAtFixation,jsons/v1_VE1000_randls_44_rotated.json,http://54.235.29.9/FacialAge/BNav_EC2/DepthDuration/v2_depth_duration_MTurk/v2_DepthDuration_HTML.html#128,128,1364,625,1364,768,8-22-2022,8-1-0,160,depth_duration_stimuli/000009_2014-05-26_14-32-05_260595134347_rgbf000034-resize_3/000009_2014-05-26_14-32-05_260595134347_rgbf000034-resize_3-target.png,1000,3.8715,2,3786,1014,feet,jsons/v1_VE1000_randls_44_rotated.json,1158922,1357737,30,Woman
160,881071,DepthScenes,duration_manipulation_targetAtFixation,jsons/v1_VE1000_randls_44_rotated.json,http://54.235.29.9/FacialAge/BNav_EC2/DepthDuration/v2_depth_duration_MTurk/v2_DepthDuration_HTML.html#128,128,1364,625,1364,768,8-22-2022,8-1-0,161,depth_duration_stimuli/002414_2014-06-28_20-24-58_260595134347_rgbf000067-resize_4/002414_2014-06-28_20-24-58_260595134347_rgbf000067-resize_4-target.png,1000,4.363,3,4864,1034,feet,jsons/v1_VE1000_randls_44_rotated.json,1158922,1357737,30,Woman
161,881071,DepthScenes,duration_manipulation_targetAtFixation,jsons/v1_VE1000_randls_44_rotated.json,http://54.235.29.9/FacialAge/BNav_EC2/DepthDuration/v2_depth_duration_MTurk/v2_DepthDuration_HTML.html#128,128,1364,625,1364,768,8-22-2022,8-1-0,162,depth_duration_stimuli/000773_2014-06-08_22-24-54_260595134347_rgbf000093-resize_1/000773_2014-06-08_22-24-54_260595134347_rgbf000093-resize_1-target.png,1000,4.973,2,4917,996,feet,jsons/v1_VE1000_randls_44_rotated.json,1158922,1357737,30,Woman
162,881071,DepthScenes,duration_manipulation_targetAtFixation,jsons/v1_VE1000_randls_44_rotated.json,http://54.235.29.9/FacialAge/BNav_EC2/DepthDuration/v2_depth_duration_MTurk/v2_DepthDuration_HTML.html#128,128,1364,625,1364,768,8-22-2022,8-1-0,163,depth_duration_stimuli/000927_2014-06-09_16-32-30_260595134347_rgbf000123-resize_3/000927_2014-06-09_16-32-30_260595134347_rgbf000123-resize_3-target.png,1000,2.6785,3,4601,988,feet,jsons/v1_VE1000_randls_44_rotated.json,1158922,1357737,30,Woman
163,881071,DepthScenes,duration_manipulation_targetAtFixation,jsons/v1_VE1000_randls_44_rotated.json,http://54.235.29.9/FacialAge/BNav_EC2/DepthDuration/v2_depth_duration_MTurk/v2_DepthDuration_HTML.html#128,128,1364,625,1364,768,8-22-2022,8-1-0,164,depth_duration_stimuli/001110_2014-06-15_17-25-28_260595134347_rgbf000150-resize_1/001110_2014-06-15_17-25-28_260595134347_rgbf000150-resize_1-target.png,1000,1.7115,3,4488,990,feet,jsons/v1_VE1000_randls_44_rotated.json,1158922,1357737,30,Woman
