,subjID,experimentName,versionName,sequenceName,url,selected_row,windowWidth,windowHeight,screenWidth,screenHeight,startDate,startTime,trial,stimulus,duration,actual_depth,depth_estimate,trial_RT,log_sceneDuration,unitSelection,seq_filepath,experimentTime,totalTime,age,gender
0,884295,DepthScenes,duration_manipulation_targetAtFixation,jsons/v1_VE1000_randls_9_rotated.json,http://54.235.29.9/FacialAge/BNav_EC2/DepthDuration/v2_depth_duration_MTurk/v2_DepthDuration_HTML.html#89,89,1366,768,1366,768,8-30-2022,7-1-9,1,depth_duration_stimuli/003490_2014-05-21_15-50-11_094959634447_rgbf000101-resize_3/003490_2014-05-21_15-50-11_094959634447_rgbf000101-resize_3-target.png,1000,3.6445,5,10896,1001,meters,jsons/v1_VE1000_randls_9_rotated.json,1013654,1295830,62,Man
1,884295,DepthScenes,duration_manipulation_targetAtFixation,jsons/v1_VE1000_randls_9_rotated.json,http://54.235.29.9/FacialAge/BNav_EC2/DepthDuration/v2_depth_duration_MTurk/v2_DepthDuration_HTML.html#89,89,1366,768,1366,768,8-30-2022,7-1-9,2,depth_duration_stimuli/001175_2014-06-17_15-45-55_260595134347_rgbf000129-resize_4/001175_2014-06-17_15-45-55_260595134347_rgbf000129-resize_4-target.png,1000,4.255,5,3986,999,meters,jsons/v1_VE1000_randls_9_rotated.json,1013654,1295830,62,Man
2,884295,DepthScenes,duration_manipulation_targetAtFixation,jsons/v1_VE1000_randls_9_rotated.json,http://54.235.29.9/FacialAge/BNav_EC2/DepthDuration/v2_depth_duration_MTurk/v2_DepthDuration_HTML.html#89,89,1366,768,1366,768,8-30-2022,7-1-9,3,depth_duration_stimuli/002344_2014-06-28_20-06-29_260595134347_rgbf000030-resize_1/002344_2014-06-28_20-06-29_260595134347_rgbf000030-resize_1-target.png,1000,1.5795,2,3792,1001,meters,jsons/v1_VE1000_randls_9_rotated.json,1013654,1295830,62,Man
3,884295,DepthScenes,duration_manipulation_targetAtFixation,jsons/v1_VE1000_randls_9_rotated.json,http://54.235.29.9/FacialAge/BNav_EC2/DepthDuration/v2_depth_duration_MTurk/v2_DepthDuration_HTML.html#89,89,1366,768,1366,768,8-30-2022,7-1-9,4,depth_duration_stimuli/002725_2014-06-22_11-47-51_094959634447_rgbf000070-resize_1/002725_2014-06-22_11-47-51_094959634447_rgbf000070-resize_1-target.png,1000,2.195,4,3693,999,meters,jsons/v1_VE1000_randls_9_rotated.json,1013654,1295830,62,Man
4,884295,DepthScenes,duration_manipulation_targetAtFixation,jsons/v1_VE1000_randls_9_rotated.json,http://54.235.29.9/FacialAge/BNav_EC2/DepthDuration/v2_depth_duration_MTurk/v2_DepthDuration_HTML.html#89,89,1366,768,1366,768,8-30-2022,7-1-9,5,depth_duration_stimuli/003129_2014-05-12_10-48-10_094959634447_rgbf000100-resize_0/003129_2014-05-12_10-48-10_094959634447_rgbf000100-resize_0-target.png,1000,4.9305,4,3083,1000,meters,jsons/v1_VE1000_randls_9_rotated.json,1013654,1295830,62,Man
5,884295,DepthScenes,duration_manipulation_targetAtFixation,jsons/v1_VE1000_randls_9_rotated.json,http://54.235.29.9/FacialAge/BNav_EC2/DepthDuration/v2_depth_duration_MTurk/v2_DepthDuration_HTML.html#89,89,1366,768,1366,768,8-30-2022,7-1-9,6,depth_duration_stimuli/000414_2014-06-04_19-49-13_260595134347_rgbf000044-resize_0/000414_2014-06-04_19-49-13_260595134347_rgbf000044-resize_0-target.png,1000,4.329,5,4073,999,meters,jsons/v1_VE1000_randls_9_rotated.json,1013654,1295830,62,Man
6,884295,DepthScenes,duration_manipulation_targetAtFixation,jsons/v1_VE1000_randls_9_rotated.json,http://54.235.29.9/FacialAge/BNav_EC2/DepthDuration/v2_depth_duration_MTurk/v2_DepthDuration_HTML.html#89,89,1366,768,1366,768,8-30-2022,7-1-9,7,depth_duration_stimuli/001447_2014-06-19_17-00-32_260595134347_rgbf000082-resize_5/001447_2014-06-19_17-00-32_260595134347_rgbf000082-resize_5-target.png,1000,4.13775,4,3433,999,meters,jsons/v1_VE1000_randls_9_rotated.json,1013654,1295830,62,Man
7,884295,DepthScenes,duration_manipulation_targetAtFixation,jsons/v1_VE1000_randls_9_rotated.json,http://54.235.29.9/FacialAge/BNav_EC2/DepthDuration/v2_depth_duration_MTurk/v2_DepthDuration_HTML.html#89,89,1366,768,1366,768,8-30-2022,7-1-9,8,depth_duration_stimuli/000447_2014-06-08_16-15-46_260595134347_rgbf000130-resize_1/000447_2014-06-08_16-15-46_260595134347_rgbf000130-resize_1-target.png,1000,4.479,4,3812,1001,meters,jsons/v1_VE1000_randls_9_rotated.json,1013654,1295830,62,Man
8,884295,DepthScenes,duration_manipulation_targetAtFixation,jsons/v1_VE1000_randls_9_rotated.json,http://54.235.29.9/FacialAge/BNav_EC2/DepthDuration/v2_depth_duration_MTurk/v2_DepthDuration_HTML.html#89,89,1366,768,1366,768,8-30-2022,7-1-9,9,depth_duration_stimuli/002758_2014-06-22_19-11-20_094959634447_rgbf000128-resize_1/002758_2014-06-22_19-11-20_094959634447_rgbf000128-resize_1-target.png,1000,2.555,3,3675,999,meters,jsons/v1_VE1000_randls_9_rotated.json,1013654,1295830,62,Man
9,884295,DepthScenes,duration_manipulation_targetAtFixation,jsons/v1_VE1000_randls_9_rotated.json,http://54.235.29.9/FacialAge/BNav_EC2/DepthDuration/v2_depth_duration_MTurk/v2_DepthDuration_HTML.html#89,89,1366,768,1366,768,8-30-2022,7-1-9,10,depth_duration_stimuli/002630_2014-06-24_14-47-50_094959634447_rgbf000055-resize_1/002630_2014-06-24_14-47-50_094959634447_rgbf000055-resize_1-target.png,1000,3.0095,4,4515,998,meters,jsons/v1_VE1000_randls_9_rotated.json,1013654,1295830,62,Man
10,884295,DepthScenes,duration_manipulation_targetAtFixation,jsons/v1_VE1000_randls_9_rotated.json,http://54.235.29.9/FacialAge/BNav_EC2/DepthDuration/v2_depth_duration_MTurk/v2_DepthDuration_HTML.html#89,89,1366,768,1366,768,8-30-2022,7-1-9,11,depth_duration_stimuli/002414_2014-06-28_20-24-58_260595134347_rgbf000067-resize_4/002414_2014-06-28_20-24-58_260595134347_rgbf000067-resize_4-target.png,1000,4.363,5,3953,1000,meters,jsons/v1_VE1000_randls_9_rotated.json,1013654,1295830,62,Man
11,884295,DepthScenes,duration_manipulation_targetAtFixation,jsons/v1_VE1000_randls_9_rotated.json,http://54.235.29.9/FacialAge/BNav_EC2/DepthDuration/v2_depth_duration_MTurk/v2_DepthDuration_HTML.html#89,89,1366,768,1366,768,8-30-2022,7-1-9,12,depth_duration_stimuli/000773_2014-06-08_22-24-54_260595134347_rgbf000093-resize_1/000773_2014-06-08_22-24-54_260595134347_rgbf000093-resize_1-target.png,1000,4.973,5,3283,999,meters,jsons/v1_VE1000_randls_9_rotated.json,1013654,1295830,62,Man
12,884295,DepthScenes,duration_manipulation_targetAtFixation,jsons/v1_VE1000_randls_9_rotated.json,http://54.235.29.9/FacialAge/BNav_EC2/DepthDuration/v2_depth_duration_MTurk/v2_DepthDuration_HTML.html#89,89,1366,768,1366,768,8-30-2022,7-1-9,13,depth_duration_stimuli/001450_2014-06-19_17-02-03_260595134347_rgbf000203-resize_4/001450_2014-06-19_17-02-03_260595134347_rgbf000203-resize_4-target.png,1000,4.0106666666667,5,3412,1000,meters,jsons/v1_VE1000_randls_9_rotated.json,1013654,1295830,62,Man
13,884295,DepthScenes,duration_manipulation_targetAtFixation,jsons/v1_VE1000_randls_9_rotated.json,http://54.235.29.9/FacialAge/BNav_EC2/DepthDuration/v2_depth_duration_MTurk/v2_DepthDuration_HTML.html#89,89,1366,768,1366,768,8-30-2022,7-1-9,14,depth_duration_stimuli/001449_2014-06-19_17-01-27_260595134347_rgbf000116-resize_2/001449_2014-06-19_17-01-27_260595134347_rgbf000116-resize_2-target.png,1000,3.452,4,3347,999,meters,jsons/v1_VE1000_randls_9_rotated.json,1013654,1295830,62,Man
14,884295,DepthScenes,duration_manipulation_targetAtFixation,jsons/v1_VE1000_randls_9_rotated.json,http://54.235.29.9/FacialAge/BNav_EC2/DepthDuration/v2_depth_duration_MTurk/v2_DepthDuration_HTML.html#89,89,1366,768,1366,768,8-30-2022,7-1-9,15,depth_duration_stimuli/003079_2014-06-15_15-18-20_094959634447_rgbf000152-resize_8/003079_2014-06-15_15-18-20_094959634447_rgbf000152-resize_8-target.png,1000,2.8775,5,4100,999,meters,jsons/v1_VE1000_randls_9_rotated.json,1013654,1295830,62,Man
15,884295,DepthScenes,duration_manipulation_targetAtFixation,jsons/v1_VE1000_randls_9_rotated.json,http://54.235.29.9/FacialAge/BNav_EC2/DepthDuration/v2_depth_duration_MTurk/v2_DepthDuration_HTML.html#89,89,1366,768,1366,768,8-30-2022,7-1-9,16,depth_duration_stimuli/000506_2014-06-08_23-21-00_260595134347_rgbf000070-resize_7/000506_2014-06-08_23-21-00_260595134347_rgbf000070-resize_7-target.png,1000,4.0585,4,3804,999,meters,jsons/v1_VE1000_randls_9_rotated.json,1013654,1295830,62,Man
16,884295,DepthScenes,duration_manipulation_targetAtFixation,jsons/v1_VE1000_randls_9_rotated.json,http://54.235.29.9/FacialAge/BNav_EC2/DepthDuration/v2_depth_duration_MTurk/v2_DepthDuration_HTML.html#89,89,1366,768,1366,768,8-30-2022,7-1-9,17,depth_duration_stimuli/000866_2014-06-09_20-45-42_260595134347_rgbf000139-resize_1/000866_2014-06-09_20-45-42_260595134347_rgbf000139-resize_1-target.png,1000,3.2155,5,3938,998,meters,jsons/v1_VE1000_randls_9_rotated.json,1013654,1295830,62,Man
17,884295,DepthScenes,duration_manipulation_targetAtFixation,jsons/v1_VE1000_randls_9_rotated.json,http://54.235.29.9/FacialAge/BNav_EC2/DepthDuration/v2_depth_duration_MTurk/v2_DepthDuration_HTML.html#89,89,1366,768,1366,768,8-30-2022,7-1-9,18,depth_duration_stimuli/002989_2014-06-15_12-25-03_094959634447_rgbf000150-resize_3/002989_2014-06-15_12-25-03_094959634447_rgbf000150-resize_3-target.png,1000,4.1975,4,4733,1000,meters,jsons/v1_VE1000_randls_9_rotated.json,1013654,1295830,62,Man
18,884295,DepthScenes,duration_manipulation_targetAtFixation,jsons/v1_VE1000_randls_9_rotated.json,http://54.235.29.9/FacialAge/BNav_EC2/DepthDuration/v2_depth_duration_MTurk/v2_DepthDuration_HTML.html#89,89,1366,768,1366,768,8-30-2022,7-1-9,19,depth_duration_stimuli/001498_2014-06-19_17-45-14_260595134347_rgbf000129-resize_4/001498_2014-06-19_17-45-14_260595134347_rgbf000129-resize-original.jpg,1000,1.4075,0,3890,1000,meters,jsons/v1_VE1000_randls_9_rotated.json,1013654,1295830,62,Man
19,884295,DepthScenes,duration_manipulation_targetAtFixation,jsons/v1_VE1000_randls_9_rotated.json,http://54.235.29.9/FacialAge/BNav_EC2/DepthDuration/v2_depth_duration_MTurk/v2_DepthDuration_HTML.html#89,89,1366,768,1366,768,8-30-2022,7-1-9,20,depth_duration_stimuli/001392_2014-06-19_16-07-59_260595134347_rgbf000046-resize_1/001392_2014-06-19_16-07-59_260595134347_rgbf000046-resize_1-target.png,1000,4.135,5,3939,1001,meters,jsons/v1_VE1000_randls_9_rotated.json,1013654,1295830,62,Man
20,884295,DepthScenes,duration_manipulation_targetAtFixation,jsons/v1_VE1000_randls_9_rotated.json,http://54.235.29.9/FacialAge/BNav_EC2/DepthDuration/v2_depth_duration_MTurk/v2_DepthDuration_HTML.html#89,89,1366,768,1366,768,8-30-2022,7-1-9,21,depth_duration_stimuli/001570_2014-06-20_17-21-09_260595134347_rgbf000135-resize_4/001570_2014-06-20_17-21-09_260595134347_rgbf000135-resize_4-target.png,1000,4.467,5,3915,1001,meters,jsons/v1_VE1000_randls_9_rotated.json,1013654,1295830,62,Man
21,884295,DepthScenes,duration_manipulation_targetAtFixation,jsons/v1_VE1000_randls_9_rotated.json,http://54.235.29.9/FacialAge/BNav_EC2/DepthDuration/v2_depth_duration_MTurk/v2_DepthDuration_HTML.html#89,89,1366,768,1366,768,8-30-2022,7-1-9,22,depth_duration_stimuli/002639_2014-06-24_14-51-37_094959634447_rgbf000074-resize_4/002639_2014-06-24_14-51-37_094959634447_rgbf000074-resize_4-target.png,1000,4.0375,2,4820,999,meters,jsons/v1_VE1000_randls_9_rotated.json,1013654,1295830,62,Man
22,884295,DepthScenes,duration_manipulation_targetAtFixation,jsons/v1_VE1000_randls_9_rotated.json,http://54.235.29.9/FacialAge/BNav_EC2/DepthDuration/v2_depth_duration_MTurk/v2_DepthDuration_HTML.html#89,89,1366,768,1366,768,8-30-2022,7-1-9,23,depth_duration_stimuli/003292_2014-05-14_21-53-49_094959634447_rgbf000100-resize_2/003292_2014-05-14_21-53-49_094959634447_rgbf000100-resize_2-target.png,1000,3.4815,3,4164,1000,meters,jsons/v1_VE1000_randls_9_rotated.json,1013654,1295830,62,Man
23,884295,DepthScenes,duration_manipulation_targetAtFixation,jsons/v1_VE1000_randls_9_rotated.json,http://54.235.29.9/FacialAge/BNav_EC2/DepthDuration/v2_depth_duration_MTurk/v2_DepthDuration_HTML.html#89,89,1366,768,1366,768,8-30-2022,7-1-9,24,depth_duration_stimuli/002805_2014-06-22_19-54-03_094959634447_rgbf000079-resize_1/002805_2014-06-22_19-54-03_094959634447_rgbf000079-resize_1-target.png,1000,3.1439999999999997,4,3242,1000,meters,jsons/v1_VE1000_randls_9_rotated.json,1013654,1295830,62,Man
24,884295,DepthScenes,duration_manipulation_targetAtFixation,jsons/v1_VE1000_randls_9_rotated.json,http://54.235.29.9/FacialAge/BNav_EC2/DepthDuration/v2_depth_duration_MTurk/v2_DepthDuration_HTML.html#89,89,1366,768,1366,768,8-30-2022,7-1-9,25,depth_duration_stimuli/000906_2014-06-08_13-35-43_260595134347_rgbf000155-resize_1/000906_2014-06-08_13-35-43_260595134347_rgbf000155-resize_1-target.png,1000,2.8489999999999998,4,5657,1000,meters,jsons/v1_VE1000_randls_9_rotated.json,1013654,1295830,62,Man
25,884295,DepthScenes,duration_manipulation_targetAtFixation,jsons/v1_VE1000_randls_9_rotated.json,http://54.235.29.9/FacialAge/BNav_EC2/DepthDuration/v2_depth_duration_MTurk/v2_DepthDuration_HTML.html#89,89,1366,768,1366,768,8-30-2022,7-1-9,26,depth_duration_stimuli/000635_2014-06-08_16-38-42_260595134347_rgbf000106-resize_1/000635_2014-06-08_16-38-42_260595134347_rgbf000106-resize_1-target.png,1000,2.074,4,4283,998,meters,jsons/v1_VE1000_randls_9_rotated.json,1013654,1295830,62,Man
26,884295,DepthScenes,duration_manipulation_targetAtFixation,jsons/v1_VE1000_randls_9_rotated.json,http://54.235.29.9/FacialAge/BNav_EC2/DepthDuration/v2_depth_duration_MTurk/v2_DepthDuration_HTML.html#89,89,1366,768,1366,768,8-30-2022,7-1-9,27,depth_duration_stimuli/002279_2014-06-28_18-55-32_260595134347_rgbf000040-resize_5/002279_2014-06-28_18-55-32_260595134347_rgbf000040-resize_5-target.png,1000,1.5043333333333,2,3426,1000,meters,jsons/v1_VE1000_randls_9_rotated.json,1013654,1295830,62,Man
27,884295,DepthScenes,duration_manipulation_targetAtFixation,jsons/v1_VE1000_randls_9_rotated.json,http://54.235.29.9/FacialAge/BNav_EC2/DepthDuration/v2_depth_duration_MTurk/v2_DepthDuration_HTML.html#89,89,1366,768,1366,768,8-30-2022,7-1-9,28,depth_duration_stimuli/000556_2014-06-09_22-42-56_260595134347_rgbf000214-resize_1/000556_2014-06-09_22-42-56_260595134347_rgbf000214-resize_1-target.png,1000,4.8415,4,3587,999,meters,jsons/v1_VE1000_randls_9_rotated.json,1013654,1295830,62,Man
28,884295,DepthScenes,duration_manipulation_targetAtFixation,jsons/v1_VE1000_randls_9_rotated.json,http://54.235.29.9/FacialAge/BNav_EC2/DepthDuration/v2_depth_duration_MTurk/v2_DepthDuration_HTML.html#89,89,1366,768,1366,768,8-30-2022,7-1-9,29,depth_duration_stimuli/001158_2014-06-17_15-32-16_260595134347_rgbf000138-resize_2/001158_2014-06-17_15-32-16_260595134347_rgbf000138-resize_2-target.png,1000,4.5315,5,4203,998,meters,jsons/v1_VE1000_randls_9_rotated.json,1013654,1295830,62,Man
29,884295,DepthScenes,duration_manipulation_targetAtFixation,jsons/v1_VE1000_randls_9_rotated.json,http://54.235.29.9/FacialAge/BNav_EC2/DepthDuration/v2_depth_duration_MTurk/v2_DepthDuration_HTML.html#89,89,1366,768,1366,768,8-30-2022,7-1-9,30,depth_duration_stimuli/002072_2014-06-24_21-48-06_260595134347_rgbf000115-resize_0/002072_2014-06-24_21-48-06_260595134347_rgbf000115-resize-original.jpg,1000,4.702,0,3867,1000,meters,jsons/v1_VE1000_randls_9_rotated.json,1013654,1295830,62,Man
30,884295,DepthScenes,duration_manipulation_targetAtFixation,jsons/v1_VE1000_randls_9_rotated.json,http://54.235.29.9/FacialAge/BNav_EC2/DepthDuration/v2_depth_duration_MTurk/v2_DepthDuration_HTML.html#89,89,1366,768,1366,768,8-30-2022,7-1-9,31,depth_duration_stimuli/001650_2014-06-20_12-09-00_260595134347_rgbf000087-resize_3/001650_2014-06-20_12-09-00_260595134347_rgbf000087-resize_3-target.png,1000,1.9505,2,3180,998,meters,jsons/v1_VE1000_randls_9_rotated.json,1013654,1295830,62,Man
31,884295,DepthScenes,duration_manipulation_targetAtFixation,jsons/v1_VE1000_randls_9_rotated.json,http://54.235.29.9/FacialAge/BNav_EC2/DepthDuration/v2_depth_duration_MTurk/v2_DepthDuration_HTML.html#89,89,1366,768,1366,768,8-30-2022,7-1-9,32,depth_duration_stimuli/000682_2014-06-08_23-14-58_260595134347_rgbf000041-resize_5/000682_2014-06-08_23-14-58_260595134347_rgbf000041-resize_5-target.png,1000,2.7239999999999998,2,3473,1000,meters,jsons/v1_VE1000_randls_9_rotated.json,1013654,1295830,62,Man
32,884295,DepthScenes,duration_manipulation_targetAtFixation,jsons/v1_VE1000_randls_9_rotated.json,http://54.235.29.9/FacialAge/BNav_EC2/DepthDuration/v2_depth_duration_MTurk/v2_DepthDuration_HTML.html#89,89,1366,768,1366,768,8-30-2022,7-1-9,33,depth_duration_stimuli/002678_2014-06-13_16-15-32_094959634447_rgbf000151-resize_6/002678_2014-06-13_16-15-32_094959634447_rgbf000151-resize_6-target.png,1000,2.1830000000000003,4,3979,998,meters,jsons/v1_VE1000_randls_9_rotated.json,1013654,1295830,62,Man
33,884295,DepthScenes,duration_manipulation_targetAtFixation,jsons/v1_VE1000_randls_9_rotated.json,http://54.235.29.9/FacialAge/BNav_EC2/DepthDuration/v2_depth_duration_MTurk/v2_DepthDuration_HTML.html#89,89,1366,768,1366,768,8-30-2022,7-1-9,34,depth_duration_stimuli/000368_2014-06-09_15-53-01_260595134347_rgbf000155-resize_2/000368_2014-06-09_15-53-01_260595134347_rgbf000155-resize_2-target.png,1000,2.4859999999999998,2,35821,999,meters,jsons/v1_VE1000_randls_9_rotated.json,1013654,1295830,62,Man
34,884295,DepthScenes,duration_manipulation_targetAtFixation,jsons/v1_VE1000_randls_9_rotated.json,http://54.235.29.9/FacialAge/BNav_EC2/DepthDuration/v2_depth_duration_MTurk/v2_DepthDuration_HTML.html#89,89,1366,768,1366,768,8-30-2022,7-1-9,35,depth_duration_stimuli/000742_2014-06-08_18-48-09_260595134347_rgbf000164-resize_4/000742_2014-06-08_18-48-09_260595134347_rgbf000164-resize_4-target.png,1000,4.632,4,6055,1000,meters,jsons/v1_VE1000_randls_9_rotated.json,1013654,1295830,62,Man
35,884295,DepthScenes,duration_manipulation_targetAtFixation,jsons/v1_VE1000_randls_9_rotated.json,http://54.235.29.9/FacialAge/BNav_EC2/DepthDuration/v2_depth_duration_MTurk/v2_DepthDuration_HTML.html#89,89,1366,768,1366,768,8-30-2022,7-1-9,36,depth_duration_stimuli/001066_2014-06-08_22-03-20_260595134347_rgbf000066-resize_4/001066_2014-06-08_22-03-20_260595134347_rgbf000066-resize_4-target.png,1000,4.2330000000000005,5,4382,999,meters,jsons/v1_VE1000_randls_9_rotated.json,1013654,1295830,62,Man
36,884295,DepthScenes,duration_manipulation_targetAtFixation,jsons/v1_VE1000_randls_9_rotated.json,http://54.235.29.9/FacialAge/BNav_EC2/DepthDuration/v2_depth_duration_MTurk/v2_DepthDuration_HTML.html#89,89,1366,768,1366,768,8-30-2022,7-1-9,37,depth_duration_stimuli/000734_2014-06-08_17-39-11_260595134347_rgbf000128-resize_2/000734_2014-06-08_17-39-11_260595134347_rgbf000128-resize_2-target.png,1000,4.098,5,5450,999,meters,jsons/v1_VE1000_randls_9_rotated.json,1013654,1295830,62,Man
37,884295,DepthScenes,duration_manipulation_targetAtFixation,jsons/v1_VE1000_randls_9_rotated.json,http://54.235.29.9/FacialAge/BNav_EC2/DepthDuration/v2_depth_duration_MTurk/v2_DepthDuration_HTML.html#89,89,1366,768,1366,768,8-30-2022,7-1-9,38,depth_duration_stimuli/000739_2014-06-08_18-45-58_260595134347_rgbf000068-resize_1/000739_2014-06-08_18-45-58_260595134347_rgbf000068-resize_1-target.png,1000,3.534,5,4037,1001,meters,jsons/v1_VE1000_randls_9_rotated.json,1013654,1295830,62,Man
38,884295,DepthScenes,duration_manipulation_targetAtFixation,jsons/v1_VE1000_randls_9_rotated.json,http://54.235.29.9/FacialAge/BNav_EC2/DepthDuration/v2_depth_duration_MTurk/v2_DepthDuration_HTML.html#89,89,1366,768,1366,768,8-30-2022,7-1-9,39,depth_duration_stimuli/002444_2014-06-28_20-32-08_260595134347_rgbf000027-resize_0/002444_2014-06-28_20-32-08_260595134347_rgbf000027-resize_0-target.png,1000,4.388999999999999,4,3739,999,meters,jsons/v1_VE1000_randls_9_rotated.json,1013654,1295830,62,Man
39,884295,DepthScenes,duration_manipulation_targetAtFixation,jsons/v1_VE1000_randls_9_rotated.json,http://54.235.29.9/FacialAge/BNav_EC2/DepthDuration/v2_depth_duration_MTurk/v2_DepthDuration_HTML.html#89,89,1366,768,1366,768,8-30-2022,7-1-9,40,depth_duration_stimuli/000436_2014-06-09_22-25-11_260595134347_rgbf000137-resize_1/000436_2014-06-09_22-25-11_260595134347_rgbf000137-resize_1-target.png,1000,4.0705,5,3266,999,meters,jsons/v1_VE1000_randls_9_rotated.json,1013654,1295830,62,Man
40,884295,DepthScenes,duration_manipulation_targetAtFixation,jsons/v1_VE1000_randls_9_rotated.json,http://54.235.29.9/FacialAge/BNav_EC2/DepthDuration/v2_depth_duration_MTurk/v2_DepthDuration_HTML.html#89,89,1366,768,1366,768,8-30-2022,7-1-9,41,depth_duration_stimuli/002199_2014-06-28_18-33-56_260595134347_rgbf000074-resize_0/002199_2014-06-28_18-33-56_260595134347_rgbf000074-resize_0-target.png,1000,1.996,4,5741,1001,meters,jsons/v1_VE1000_randls_9_rotated.json,1013654,1295830,62,Man
41,884295,DepthScenes,duration_manipulation_targetAtFixation,jsons/v1_VE1000_randls_9_rotated.json,http://54.235.29.9/FacialAge/BNav_EC2/DepthDuration/v2_depth_duration_MTurk/v2_DepthDuration_HTML.html#89,89,1366,768,1366,768,8-30-2022,7-1-9,42,depth_duration_stimuli/001056_2014-06-08_18-46-44_260595134347_rgbf000068-resize_0/001056_2014-06-08_18-46-44_260595134347_rgbf000068-resize_0-target.png,1000,2.6625,4,5232,997,meters,jsons/v1_VE1000_randls_9_rotated.json,1013654,1295830,62,Man
42,884295,DepthScenes,duration_manipulation_targetAtFixation,jsons/v1_VE1000_randls_9_rotated.json,http://54.235.29.9/FacialAge/BNav_EC2/DepthDuration/v2_depth_duration_MTurk/v2_DepthDuration_HTML.html#89,89,1366,768,1366,768,8-30-2022,7-1-9,43,depth_duration_stimuli/002875_2014-06-01_15-19-00_094959634447_rgbf000151-resize_1/002875_2014-06-01_15-19-00_094959634447_rgbf000151-resize_1-target.png,1000,1.9675,5,3774,999,meters,jsons/v1_VE1000_randls_9_rotated.json,1013654,1295830,62,Man
43,884295,DepthScenes,duration_manipulation_targetAtFixation,jsons/v1_VE1000_randls_9_rotated.json,http://54.235.29.9/FacialAge/BNav_EC2/DepthDuration/v2_depth_duration_MTurk/v2_DepthDuration_HTML.html#89,89,1366,768,1366,768,8-30-2022,7-1-9,44,depth_duration_stimuli/001011_2014-06-08_23-18-54_260595134347_rgbf000044-resize_4/001011_2014-06-08_23-18-54_260595134347_rgbf000044-resize_4-target.png,1000,2.4730000000000003,5,3343,999,meters,jsons/v1_VE1000_randls_9_rotated.json,1013654,1295830,62,Man
44,884295,DepthScenes,duration_manipulation_targetAtFixation,jsons/v1_VE1000_randls_9_rotated.json,http://54.235.29.9/FacialAge/BNav_EC2/DepthDuration/v2_depth_duration_MTurk/v2_DepthDuration_HTML.html#89,89,1366,625,1366,768,8-30-2022,7-1-9,45,depth_duration_stimuli/000709_2014-06-08_13-51-55_260595134347_rgbf000068-resize_3/000709_2014-06-08_13-51-55_260595134347_rgbf000068-resize_3-target.png,1000,1.8030000000000002,5,7094,1000,meters,jsons/v1_VE1000_randls_9_rotated.json,1013654,1295830,62,Man
45,884295,DepthScenes,duration_manipulation_targetAtFixation,jsons/v1_VE1000_randls_9_rotated.json,http://54.235.29.9/FacialAge/BNav_EC2/DepthDuration/v2_depth_duration_MTurk/v2_DepthDuration_HTML.html#89,89,1366,625,1366,768,8-30-2022,7-1-9,46,depth_duration_stimuli/002057_2014-06-24_21-00-13_260595134347_rgbf000120-resize_1/002057_2014-06-24_21-00-13_260595134347_rgbf000120-resize_1-target.png,1000,2.967,5,4001,998,meters,jsons/v1_VE1000_randls_9_rotated.json,1013654,1295830,62,Man
46,884295,DepthScenes,duration_manipulation_targetAtFixation,jsons/v1_VE1000_randls_9_rotated.json,http://54.235.29.9/FacialAge/BNav_EC2/DepthDuration/v2_depth_duration_MTurk/v2_DepthDuration_HTML.html#89,89,1366,768,1366,768,8-30-2022,7-1-9,47,depth_duration_stimuli/002425_2014-06-28_20-27-29_260595134347_rgbf000031-resize_8/002425_2014-06-28_20-27-29_260595134347_rgbf000031-resize_8-target.png,1000,3.8960000000000004,4,5076,999,meters,jsons/v1_VE1000_randls_9_rotated.json,1013654,1295830,62,Man
47,884295,DepthScenes,duration_manipulation_targetAtFixation,jsons/v1_VE1000_randls_9_rotated.json,http://54.235.29.9/FacialAge/BNav_EC2/DepthDuration/v2_depth_duration_MTurk/v2_DepthDuration_HTML.html#89,89,1366,768,1366,768,8-30-2022,7-1-9,48,depth_duration_stimuli/000642_2014-06-08_16-59-25_260595134347_rgbf000098-resize_2/000642_2014-06-08_16-59-25_260595134347_rgbf000098-resize_2-target.png,1000,2.8815,4,5727,1000,meters,jsons/v1_VE1000_randls_9_rotated.json,1013654,1295830,62,Man
48,884295,DepthScenes,duration_manipulation_targetAtFixation,jsons/v1_VE1000_randls_9_rotated.json,http://54.235.29.9/FacialAge/BNav_EC2/DepthDuration/v2_depth_duration_MTurk/v2_DepthDuration_HTML.html#89,89,1366,768,1366,768,8-30-2022,7-1-9,49,depth_duration_stimuli/001170_2014-06-17_15-43-44_260595134347_rgbf000096-resize_6/001170_2014-06-17_15-43-44_260595134347_rgbf000096-resize-original.jpg,1000,1.1909999999999998,0,5872,1000,meters,jsons/v1_VE1000_randls_9_rotated.json,1013654,1295830,62,Man
49,884295,DepthScenes,duration_manipulation_targetAtFixation,jsons/v1_VE1000_randls_9_rotated.json,http://54.235.29.9/FacialAge/BNav_EC2/DepthDuration/v2_depth_duration_MTurk/v2_DepthDuration_HTML.html#89,89,1366,768,1366,768,8-30-2022,7-1-9,50,depth_duration_stimuli/001214_2014-06-17_16-13-55_260595134347_rgbf000111-resize_0/001214_2014-06-17_16-13-55_260595134347_rgbf000111-resize_0-target.png,1000,2.6505,2,4376,999,meters,jsons/v1_VE1000_randls_9_rotated.json,1013654,1295830,62,Man
50,884295,DepthScenes,duration_manipulation_targetAtFixation,jsons/v1_VE1000_randls_9_rotated.json,http://54.235.29.9/FacialAge/BNav_EC2/DepthDuration/v2_depth_duration_MTurk/v2_DepthDuration_HTML.html#89,89,1366,768,1366,768,8-30-2022,7-1-9,51,depth_duration_stimuli/000810_2014-06-08_17-20-01_260595134347_rgbf000105-resize_0/000810_2014-06-08_17-20-01_260595134347_rgbf000105-resize_0-target.png,1000,1.4865,3,4275,1000,meters,jsons/v1_VE1000_randls_9_rotated.json,1013654,1295830,62,Man
51,884295,DepthScenes,duration_manipulation_targetAtFixation,jsons/v1_VE1000_randls_9_rotated.json,http://54.235.29.9/FacialAge/BNav_EC2/DepthDuration/v2_depth_duration_MTurk/v2_DepthDuration_HTML.html#89,89,1366,768,1366,768,8-30-2022,7-1-9,52,depth_duration_stimuli/002660_2014-06-13_15-44-18_094959634447_rgbf001878-resize_2/002660_2014-06-13_15-44-18_094959634447_rgbf001878-resize_2-target.png,1000,3.576,4,4232,1000,meters,jsons/v1_VE1000_randls_9_rotated.json,1013654,1295830,62,Man
52,884295,DepthScenes,duration_manipulation_targetAtFixation,jsons/v1_VE1000_randls_9_rotated.json,http://54.235.29.9/FacialAge/BNav_EC2/DepthDuration/v2_depth_duration_MTurk/v2_DepthDuration_HTML.html#89,89,1366,768,1366,768,8-30-2022,7-1-9,53,depth_duration_stimuli/002153_2014-06-25_21-27-18_260595134347_rgbf000038-resize_5/002153_2014-06-25_21-27-18_260595134347_rgbf000038-resize_5-target.png,1000,2.505,2,3753,1001,meters,jsons/v1_VE1000_randls_9_rotated.json,1013654,1295830,62,Man
53,884295,DepthScenes,duration_manipulation_targetAtFixation,jsons/v1_VE1000_randls_9_rotated.json,http://54.235.29.9/FacialAge/BNav_EC2/DepthDuration/v2_depth_duration_MTurk/v2_DepthDuration_HTML.html#89,89,1366,768,1366,768,8-30-2022,7-1-9,54,depth_duration_stimuli/000691_2014-06-08_13-08-50_260595134347_rgbf000132-resize_3/000691_2014-06-08_13-08-50_260595134347_rgbf000132-resize_3-target.png,1000,4.1530000000000005,3,3624,998,meters,jsons/v1_VE1000_randls_9_rotated.json,1013654,1295830,62,Man
54,884295,DepthScenes,duration_manipulation_targetAtFixation,jsons/v1_VE1000_randls_9_rotated.json,http://54.235.29.9/FacialAge/BNav_EC2/DepthDuration/v2_depth_duration_MTurk/v2_DepthDuration_HTML.html#89,89,1366,768,1366,768,8-30-2022,7-1-9,55,depth_duration_stimuli/002213_2014-06-28_18-37-58_260595134347_rgbf000055-resize_1/002213_2014-06-28_18-37-58_260595134347_rgbf000055-resize_1-target.png,1000,3.62,4,3556,998,meters,jsons/v1_VE1000_randls_9_rotated.json,1013654,1295830,62,Man
55,884295,DepthScenes,duration_manipulation_targetAtFixation,jsons/v1_VE1000_randls_9_rotated.json,http://54.235.29.9/FacialAge/BNav_EC2/DepthDuration/v2_depth_duration_MTurk/v2_DepthDuration_HTML.html#89,89,1366,768,1366,768,8-30-2022,7-1-9,56,depth_duration_stimuli/000457_2014-06-08_16-52-43_260595134347_rgbf000199-resize_1/000457_2014-06-08_16-52-43_260595134347_rgbf000199-resize_1-target.png,1000,3.6489999999999996,4,4289,999,meters,jsons/v1_VE1000_randls_9_rotated.json,1013654,1295830,62,Man
56,884295,DepthScenes,duration_manipulation_targetAtFixation,jsons/v1_VE1000_randls_9_rotated.json,http://54.235.29.9/FacialAge/BNav_EC2/DepthDuration/v2_depth_duration_MTurk/v2_DepthDuration_HTML.html#89,89,1366,768,1366,768,8-30-2022,7-1-9,57,depth_duration_stimuli/000929_2014-06-09_16-33-19_260595134347_rgbf000139-resize_0/000929_2014-06-09_16-33-19_260595134347_rgbf000139-resize_0-target.png,1000,2.8680000000000003,4,23001,1001,meters,jsons/v1_VE1000_randls_9_rotated.json,1013654,1295830,62,Man
57,884295,DepthScenes,duration_manipulation_targetAtFixation,jsons/v1_VE1000_randls_9_rotated.json,http://54.235.29.9/FacialAge/BNav_EC2/DepthDuration/v2_depth_duration_MTurk/v2_DepthDuration_HTML.html#89,89,1366,768,1366,768,8-30-2022,7-1-9,58,depth_duration_stimuli/000103_2014-05-14_22-01-17_260595134347_rgbf000152-resize_5/000103_2014-05-14_22-01-17_260595134347_rgbf000152-resize_5-target.png,1000,1.993,4,4937,1000,meters,jsons/v1_VE1000_randls_9_rotated.json,1013654,1295830,62,Man
58,884295,DepthScenes,duration_manipulation_targetAtFixation,jsons/v1_VE1000_randls_9_rotated.json,http://54.235.29.9/FacialAge/BNav_EC2/DepthDuration/v2_depth_duration_MTurk/v2_DepthDuration_HTML.html#89,89,1366,768,1366,768,8-30-2022,7-1-9,59,depth_duration_stimuli/001555_2014-06-20_17-12-10_260595134347_rgbf000065-resize_4/001555_2014-06-20_17-12-10_260595134347_rgbf000065-resize_4-target.png,1000,1.633,5,7771,1090,meters,jsons/v1_VE1000_randls_9_rotated.json,1013654,1295830,62,Man
59,884295,DepthScenes,duration_manipulation_targetAtFixation,jsons/v1_VE1000_randls_9_rotated.json,http://54.235.29.9/FacialAge/BNav_EC2/DepthDuration/v2_depth_duration_MTurk/v2_DepthDuration_HTML.html#89,89,1366,768,1366,768,8-30-2022,7-1-9,60,depth_duration_stimuli/001052_2014-06-08_18-24-54_260595134347_rgbf000130-resize_1/001052_2014-06-08_18-24-54_260595134347_rgbf000130-resize_1-target.png,1000,4.1045,5,3875,999,meters,jsons/v1_VE1000_randls_9_rotated.json,1013654,1295830,62,Man
60,884295,DepthScenes,duration_manipulation_targetAtFixation,jsons/v1_VE1000_randls_9_rotated.json,http://54.235.29.9/FacialAge/BNav_EC2/DepthDuration/v2_depth_duration_MTurk/v2_DepthDuration_HTML.html#89,89,1366,768,1366,768,8-30-2022,7-1-9,61,depth_duration_stimuli/002988_2014-06-15_12-24-20_094959634447_rgbf000150-resize_1/002988_2014-06-15_12-24-20_094959634447_rgbf000150-resize_1-target.png,1000,4.7669999999999995,5,5764,1000,meters,jsons/v1_VE1000_randls_9_rotated.json,1013654,1295830,62,Man
61,884295,DepthScenes,duration_manipulation_targetAtFixation,jsons/v1_VE1000_randls_9_rotated.json,http://54.235.29.9/FacialAge/BNav_EC2/DepthDuration/v2_depth_duration_MTurk/v2_DepthDuration_HTML.html#89,89,1366,768,1366,768,8-30-2022,7-1-9,62,depth_duration_stimuli/003338_2014-05-20_11-01-23_094959634447_rgbf000051-resize_6/003338_2014-05-20_11-01-23_094959634447_rgbf000051-resize_6-target.png,1000,1.693,2,4026,999,meters,jsons/v1_VE1000_randls_9_rotated.json,1013654,1295830,62,Man
62,884295,DepthScenes,duration_manipulation_targetAtFixation,jsons/v1_VE1000_randls_9_rotated.json,http://54.235.29.9/FacialAge/BNav_EC2/DepthDuration/v2_depth_duration_MTurk/v2_DepthDuration_HTML.html#89,89,1366,768,1366,768,8-30-2022,7-1-9,63,depth_duration_stimuli/002509_2014-06-24_13-19-22_094959634447_rgbf000077-resize_0/002509_2014-06-24_13-19-22_094959634447_rgbf000077-resize_0-target.png,1000,1.3065,2,3361,1000,meters,jsons/v1_VE1000_randls_9_rotated.json,1013654,1295830,62,Man
63,884295,DepthScenes,duration_manipulation_targetAtFixation,jsons/v1_VE1000_randls_9_rotated.json,http://54.235.29.9/FacialAge/BNav_EC2/DepthDuration/v2_depth_duration_MTurk/v2_DepthDuration_HTML.html#89,89,1366,768,1366,768,8-30-2022,7-1-9,64,depth_duration_stimuli/002323_2014-06-28_20-01-54_260595134347_rgbf000051-resize_4/002323_2014-06-28_20-01-54_260595134347_rgbf000051-resize_4-target.png,1000,3.7310000000000003,4,4186,1000,meters,jsons/v1_VE1000_randls_9_rotated.json,1013654,1295830,62,Man
64,884295,DepthScenes,duration_manipulation_targetAtFixation,jsons/v1_VE1000_randls_9_rotated.json,http://54.235.29.9/FacialAge/BNav_EC2/DepthDuration/v2_depth_duration_MTurk/v2_DepthDuration_HTML.html#89,89,1366,768,1366,768,8-30-2022,7-1-9,65,depth_duration_stimuli/000917_2014-06-09_22-45-29_260595134347_rgbf000149-resize_3/000917_2014-06-09_22-45-29_260595134347_rgbf000149-resize_3-target.png,1000,4.1865,5,3555,1000,meters,jsons/v1_VE1000_randls_9_rotated.json,1013654,1295830,62,Man
65,884295,DepthScenes,duration_manipulation_targetAtFixation,jsons/v1_VE1000_randls_9_rotated.json,http://54.235.29.9/FacialAge/BNav_EC2/DepthDuration/v2_depth_duration_MTurk/v2_DepthDuration_HTML.html#89,89,1366,768,1366,768,8-30-2022,7-1-9,66,depth_duration_stimuli/001540_2014-06-20_17-01-05_260595134347_rgbf000086-resize_2/001540_2014-06-20_17-01-05_260595134347_rgbf000086-resize-original.jpg,1000,1.459,0,3994,999,meters,jsons/v1_VE1000_randls_9_rotated.json,1013654,1295830,62,Man
66,884295,DepthScenes,duration_manipulation_targetAtFixation,jsons/v1_VE1000_randls_9_rotated.json,http://54.235.29.9/FacialAge/BNav_EC2/DepthDuration/v2_depth_duration_MTurk/v2_DepthDuration_HTML.html#89,89,1366,768,1366,768,8-30-2022,7-1-9,67,depth_duration_stimuli/001828_2014-06-26_21-40-03_260595134347_rgbf000024-resize_0/001828_2014-06-26_21-40-03_260595134347_rgbf000024-resize_0-target.png,1000,4.8260000000000005,5,3682,1000,meters,jsons/v1_VE1000_randls_9_rotated.json,1013654,1295830,62,Man
67,884295,DepthScenes,duration_manipulation_targetAtFixation,jsons/v1_VE1000_randls_9_rotated.json,http://54.235.29.9/FacialAge/BNav_EC2/DepthDuration/v2_depth_duration_MTurk/v2_DepthDuration_HTML.html#89,89,1366,768,1366,768,8-30-2022,7-1-9,68,depth_duration_stimuli/000009_2014-05-26_14-32-05_260595134347_rgbf000034-resize_3/000009_2014-05-26_14-32-05_260595134347_rgbf000034-resize_3-target.png,1000,3.8715,4,5529,1003,meters,jsons/v1_VE1000_randls_9_rotated.json,1013654,1295830,62,Man
68,884295,DepthScenes,duration_manipulation_targetAtFixation,jsons/v1_VE1000_randls_9_rotated.json,http://54.235.29.9/FacialAge/BNav_EC2/DepthDuration/v2_depth_duration_MTurk/v2_DepthDuration_HTML.html#89,89,1366,768,1366,768,8-30-2022,7-1-9,69,depth_duration_stimuli/003010_2014-06-15_12-54-35_094959634447_rgbf000112-resize_0/003010_2014-06-15_12-54-35_094959634447_rgbf000112-resize_0-target.png,1000,3.1185,3,45628,1002,meters,jsons/v1_VE1000_randls_9_rotated.json,1013654,1295830,62,Man
69,884295,DepthScenes,duration_manipulation_targetAtFixation,jsons/v1_VE1000_randls_9_rotated.json,http://54.235.29.9/FacialAge/BNav_EC2/DepthDuration/v2_depth_duration_MTurk/v2_DepthDuration_HTML.html#89,89,1366,768,1366,768,8-30-2022,7-1-9,70,depth_duration_stimuli/001810_2014-06-26_20-51-35_260595134347_rgbf000040-resize_3/001810_2014-06-26_20-51-35_260595134347_rgbf000040-resize_3-target.png,1000,2.2525,2,4148,1000,meters,jsons/v1_VE1000_randls_9_rotated.json,1013654,1295830,62,Man
70,884295,DepthScenes,duration_manipulation_targetAtFixation,jsons/v1_VE1000_randls_9_rotated.json,http://54.235.29.9/FacialAge/BNav_EC2/DepthDuration/v2_depth_duration_MTurk/v2_DepthDuration_HTML.html#89,89,1366,768,1366,768,8-30-2022,7-1-9,71,depth_duration_stimuli/001617_2014-06-20_11-35-32_260595134347_rgbf000066-resize_1/001617_2014-06-20_11-35-32_260595134347_rgbf000066-resize_1-target.png,1000,3.7910000000000004,4,20465,1000,meters,jsons/v1_VE1000_randls_9_rotated.json,1013654,1295830,62,Man
71,884295,DepthScenes,duration_manipulation_targetAtFixation,jsons/v1_VE1000_randls_9_rotated.json,http://54.235.29.9/FacialAge/BNav_EC2/DepthDuration/v2_depth_duration_MTurk/v2_DepthDuration_HTML.html#89,89,1366,768,1366,768,8-30-2022,7-1-9,72,depth_duration_stimuli/001806_2014-06-26_20-50-20_260595134347_rgbf000091-resize_1/001806_2014-06-26_20-50-20_260595134347_rgbf000091-resize_1-target.png,1000,2.7305,2,4625,999,meters,jsons/v1_VE1000_randls_9_rotated.json,1013654,1295830,62,Man
72,884295,DepthScenes,duration_manipulation_targetAtFixation,jsons/v1_VE1000_randls_9_rotated.json,http://54.235.29.9/FacialAge/BNav_EC2/DepthDuration/v2_depth_duration_MTurk/v2_DepthDuration_HTML.html#89,89,1366,768,1366,768,8-30-2022,7-1-9,73,depth_duration_stimuli/000137_2014-05-20_17-04-49_260595134347_rgbf000120-resize_1/000137_2014-05-20_17-04-49_260595134347_rgbf000120-resize_1-target.png,1000,3.786,4,3738,999,meters,jsons/v1_VE1000_randls_9_rotated.json,1013654,1295830,62,Man
73,884295,DepthScenes,duration_manipulation_targetAtFixation,jsons/v1_VE1000_randls_9_rotated.json,http://54.235.29.9/FacialAge/BNav_EC2/DepthDuration/v2_depth_duration_MTurk/v2_DepthDuration_HTML.html#89,89,1366,768,1366,768,8-30-2022,7-1-9,74,depth_duration_stimuli/000736_2014-06-08_18-24-15_260595134347_rgbf000206-resize_3/000736_2014-06-08_18-24-15_260595134347_rgbf000206-resize_3-target.png,1000,3.515,2,3658,999,meters,jsons/v1_VE1000_randls_9_rotated.json,1013654,1295830,62,Man
74,884295,DepthScenes,duration_manipulation_targetAtFixation,jsons/v1_VE1000_randls_9_rotated.json,http://54.235.29.9/FacialAge/BNav_EC2/DepthDuration/v2_depth_duration_MTurk/v2_DepthDuration_HTML.html#89,89,1366,768,1366,768,8-30-2022,7-1-9,75,depth_duration_stimuli/002467_2014-06-28_20-38-07_260595134347_rgbf000026-resize_2/002467_2014-06-28_20-38-07_260595134347_rgbf000026-resize_2-target.png,1000,4.742,5,4955,999,meters,jsons/v1_VE1000_randls_9_rotated.json,1013654,1295830,62,Man
75,884295,DepthScenes,duration_manipulation_targetAtFixation,jsons/v1_VE1000_randls_9_rotated.json,http://54.235.29.9/FacialAge/BNav_EC2/DepthDuration/v2_depth_duration_MTurk/v2_DepthDuration_HTML.html#89,89,1366,768,1366,768,8-30-2022,7-1-9,76,depth_duration_stimuli/002570_2014-06-24_13-59-54_094959634447_rgbf000059-resize_0/002570_2014-06-24_13-59-54_094959634447_rgbf000059-resize_0-target.png,1000,4.037,4,3773,1001,meters,jsons/v1_VE1000_randls_9_rotated.json,1013654,1295830,62,Man
76,884295,DepthScenes,duration_manipulation_targetAtFixation,jsons/v1_VE1000_randls_9_rotated.json,http://54.235.29.9/FacialAge/BNav_EC2/DepthDuration/v2_depth_duration_MTurk/v2_DepthDuration_HTML.html#89,89,1366,768,1366,768,8-30-2022,7-1-9,77,depth_duration_stimuli/003048_2014-06-15_13-49-43_094959634447_rgbf000150-resize_1/003048_2014-06-15_13-49-43_094959634447_rgbf000150-resize_1-target.png,1000,4.0035,5,3282,999,meters,jsons/v1_VE1000_randls_9_rotated.json,1013654,1295830,62,Man
77,884295,DepthScenes,duration_manipulation_targetAtFixation,jsons/v1_VE1000_randls_9_rotated.json,http://54.235.29.9/FacialAge/BNav_EC2/DepthDuration/v2_depth_duration_MTurk/v2_DepthDuration_HTML.html#89,89,1366,768,1366,768,8-30-2022,7-1-9,78,depth_duration_stimuli/002043_2014-06-24_20-29-38_260595134347_rgbf000039-resize_4/002043_2014-06-24_20-29-38_260595134347_rgbf000039-resize_4-target.png,1000,2.8435,5,3339,999,meters,jsons/v1_VE1000_randls_9_rotated.json,1013654,1295830,62,Man
78,884295,DepthScenes,duration_manipulation_targetAtFixation,jsons/v1_VE1000_randls_9_rotated.json,http://54.235.29.9/FacialAge/BNav_EC2/DepthDuration/v2_depth_duration_MTurk/v2_DepthDuration_HTML.html#89,89,1366,768,1366,768,8-30-2022,7-1-9,79,depth_duration_stimuli/002340_2014-06-28_20-05-46_260595134347_rgbf000113-resize_0/002340_2014-06-28_20-05-46_260595134347_rgbf000113-resize_0-target.png,1000,2.4735,5,3723,1007,meters,jsons/v1_VE1000_randls_9_rotated.json,1013654,1295830,62,Man
79,884295,DepthScenes,duration_manipulation_targetAtFixation,jsons/v1_VE1000_randls_9_rotated.json,http://54.235.29.9/FacialAge/BNav_EC2/DepthDuration/v2_depth_duration_MTurk/v2_DepthDuration_HTML.html#89,89,1366,768,1366,768,8-30-2022,7-1-9,80,depth_duration_stimuli/001016_2014-06-09_16-16-10_260595134347_rgbf000112-resize_5/001016_2014-06-09_16-16-10_260595134347_rgbf000112-resize_5-target.png,1000,1.6565,4,4616,998,meters,jsons/v1_VE1000_randls_9_rotated.json,1013654,1295830,62,Man
80,884295,DepthScenes,duration_manipulation_targetAtFixation,jsons/v1_VE1000_randls_9_rotated.json,http://54.235.29.9/FacialAge/BNav_EC2/DepthDuration/v2_depth_duration_MTurk/v2_DepthDuration_HTML.html#89,89,1366,768,1366,768,8-30-2022,7-1-9,81,depth_duration_stimuli/001100_2014-06-15_17-46-26_260595134347_rgbf000225-resize_2/001100_2014-06-15_17-46-26_260595134347_rgbf000225-resize_2-target.png,1000,2.24,2,4268,999,meters,jsons/v1_VE1000_randls_9_rotated.json,1013654,1295830,62,Man
81,884295,DepthScenes,duration_manipulation_targetAtFixation,jsons/v1_VE1000_randls_9_rotated.json,http://54.235.29.9/FacialAge/BNav_EC2/DepthDuration/v2_depth_duration_MTurk/v2_DepthDuration_HTML.html#89,89,1366,768,1366,768,8-30-2022,7-1-9,82,depth_duration_stimuli/002784_2014-06-22_19-26-30_094959634447_rgbf000083-resize_3/002784_2014-06-22_19-26-30_094959634447_rgbf000083-resize_3-target.png,1000,1.8046666666667,2,3868,999,meters,jsons/v1_VE1000_randls_9_rotated.json,1013654,1295830,62,Man
82,884295,DepthScenes,duration_manipulation_targetAtFixation,jsons/v1_VE1000_randls_9_rotated.json,http://54.235.29.9/FacialAge/BNav_EC2/DepthDuration/v2_depth_duration_MTurk/v2_DepthDuration_HTML.html#89,89,1366,768,1366,768,8-30-2022,7-1-9,83,depth_duration_stimuli/000549_2014-06-08_22-10-24_260595134347_rgbf000247-resize_3/000549_2014-06-08_22-10-24_260595134347_rgbf000247-resize_3-target.png,1000,1.841,0,4025,1000,meters,jsons/v1_VE1000_randls_9_rotated.json,1013654,1295830,62,Man
83,884295,DepthScenes,duration_manipulation_targetAtFixation,jsons/v1_VE1000_randls_9_rotated.json,http://54.235.29.9/FacialAge/BNav_EC2/DepthDuration/v2_depth_duration_MTurk/v2_DepthDuration_HTML.html#89,89,1366,768,1366,768,8-30-2022,7-1-9,84,depth_duration_stimuli/001055_2014-06-08_18-45-35_260595134347_rgbf000111-resize_4/001055_2014-06-08_18-45-35_260595134347_rgbf000111-resize_4-target.png,1000,2.4290000000000003,4,4773,1000,meters,jsons/v1_VE1000_randls_9_rotated.json,1013654,1295830,62,Man
84,884295,DepthScenes,duration_manipulation_targetAtFixation,jsons/v1_VE1000_randls_9_rotated.json,http://54.235.29.9/FacialAge/BNav_EC2/DepthDuration/v2_depth_duration_MTurk/v2_DepthDuration_HTML.html#89,89,1366,768,1366,768,8-30-2022,7-1-9,85,depth_duration_stimuli/001571_2014-06-20_17-21-32_260595134347_rgbf000089-resize_1/001571_2014-06-20_17-21-32_260595134347_rgbf000089-resize_1-target.png,1000,1.86,3,4483,997,meters,jsons/v1_VE1000_randls_9_rotated.json,1013654,1295830,62,Man
85,884295,DepthScenes,duration_manipulation_targetAtFixation,jsons/v1_VE1000_randls_9_rotated.json,http://54.235.29.9/FacialAge/BNav_EC2/DepthDuration/v2_depth_duration_MTurk/v2_DepthDuration_HTML.html#89,89,1366,768,1366,768,8-30-2022,7-1-9,86,depth_duration_stimuli/002272_2014-06-28_18-53-56_260595134347_rgbf000067-resize_2/002272_2014-06-28_18-53-56_260595134347_rgbf000067-resize_2-target.png,1000,1.138,2,4690,1000,meters,jsons/v1_VE1000_randls_9_rotated.json,1013654,1295830,62,Man
86,884295,DepthScenes,duration_manipulation_targetAtFixation,jsons/v1_VE1000_randls_9_rotated.json,http://54.235.29.9/FacialAge/BNav_EC2/DepthDuration/v2_depth_duration_MTurk/v2_DepthDuration_HTML.html#89,89,1366,768,1366,768,8-30-2022,7-1-9,87,depth_duration_stimuli/000749_2014-06-08_21-55-06_260595134347_rgbf000070-resize_2/000749_2014-06-08_21-55-06_260595134347_rgbf000070-resize_2-target.png,1000,2.331,3,4298,999,meters,jsons/v1_VE1000_randls_9_rotated.json,1013654,1295830,62,Man
87,884295,DepthScenes,duration_manipulation_targetAtFixation,jsons/v1_VE1000_randls_9_rotated.json,http://54.235.29.9/FacialAge/BNav_EC2/DepthDuration/v2_depth_duration_MTurk/v2_DepthDuration_HTML.html#89,89,1366,768,1366,768,8-30-2022,7-1-9,88,depth_duration_stimuli/002788_2014-06-22_19-36-03_094959634447_rgbf000088-resize_2/002788_2014-06-22_19-36-03_094959634447_rgbf000088-resize_2-target.png,1000,1.6465,4,8731,999,meters,jsons/v1_VE1000_randls_9_rotated.json,1013654,1295830,62,Man
88,884295,DepthScenes,duration_manipulation_targetAtFixation,jsons/v1_VE1000_randls_9_rotated.json,http://54.235.29.9/FacialAge/BNav_EC2/DepthDuration/v2_depth_duration_MTurk/v2_DepthDuration_HTML.html#89,89,1366,768,1366,768,8-30-2022,7-1-9,89,depth_duration_stimuli/000677_2014-06-08_23-10-32_260595134347_rgbf000158-resize_6/000677_2014-06-08_23-10-32_260595134347_rgbf000158-resize_6-target.png,1000,3.556,2,12976,999,meters,jsons/v1_VE1000_randls_9_rotated.json,1013654,1295830,62,Man
89,884295,DepthScenes,duration_manipulation_targetAtFixation,jsons/v1_VE1000_randls_9_rotated.json,http://54.235.29.9/FacialAge/BNav_EC2/DepthDuration/v2_depth_duration_MTurk/v2_DepthDuration_HTML.html#89,89,1366,768,1366,768,8-30-2022,7-1-9,90,depth_duration_stimuli/001029_2014-06-08_13-17-57_260595134347_rgbf000065-resize_1/001029_2014-06-08_13-17-57_260595134347_rgbf000065-resize_1-target.png,1000,3.0835,5,14701,1001,meters,jsons/v1_VE1000_randls_9_rotated.json,1013654,1295830,62,Man
90,884295,DepthScenes,duration_manipulation_targetAtFixation,jsons/v1_VE1000_randls_9_rotated.json,http://54.235.29.9/FacialAge/BNav_EC2/DepthDuration/v2_depth_duration_MTurk/v2_DepthDuration_HTML.html#89,89,1366,768,1366,768,8-30-2022,7-1-9,91,depth_duration_stimuli/002568_2014-06-24_13-59-21_094959634447_rgbf000062-resize_4/002568_2014-06-24_13-59-21_094959634447_rgbf000062-resize_4-target.png,1000,3.015,4,3936,999,meters,jsons/v1_VE1000_randls_9_rotated.json,1013654,1295830,62,Man
91,884295,DepthScenes,duration_manipulation_targetAtFixation,jsons/v1_VE1000_randls_9_rotated.json,http://54.235.29.9/FacialAge/BNav_EC2/DepthDuration/v2_depth_duration_MTurk/v2_DepthDuration_HTML.html#89,89,1366,768,1366,768,8-30-2022,7-1-9,92,depth_duration_stimuli/003492_2014-05-21_15-50-55_094959634447_rgbf000828-resize_1/003492_2014-05-21_15-50-55_094959634447_rgbf000828-resize_1-target.png,1000,4.06875,5,7133,1002,meters,jsons/v1_VE1000_randls_9_rotated.json,1013654,1295830,62,Man
92,884295,DepthScenes,duration_manipulation_targetAtFixation,jsons/v1_VE1000_randls_9_rotated.json,http://54.235.29.9/FacialAge/BNav_EC2/DepthDuration/v2_depth_duration_MTurk/v2_DepthDuration_HTML.html#89,89,1366,768,1366,768,8-30-2022,7-1-9,93,depth_duration_stimuli/002949_2014-06-26_15-57-42_094959634447_rgbf000079-resize_1/002949_2014-06-26_15-57-42_094959634447_rgbf000079-resize_1-target.png,1000,1.8915,4,5709,999,meters,jsons/v1_VE1000_randls_9_rotated.json,1013654,1295830,62,Man
93,884295,DepthScenes,duration_manipulation_targetAtFixation,jsons/v1_VE1000_randls_9_rotated.json,http://54.235.29.9/FacialAge/BNav_EC2/DepthDuration/v2_depth_duration_MTurk/v2_DepthDuration_HTML.html#89,89,1366,768,1366,768,8-30-2022,7-1-9,94,depth_duration_stimuli/000522_2014-06-08_13-35-06_260595134347_rgbf000244-resize_1/000522_2014-06-08_13-35-06_260595134347_rgbf000244-resize_1-target.png,1000,2.3715,2,3065,999,meters,jsons/v1_VE1000_randls_9_rotated.json,1013654,1295830,62,Man
94,884295,DepthScenes,duration_manipulation_targetAtFixation,jsons/v1_VE1000_randls_9_rotated.json,http://54.235.29.9/FacialAge/BNav_EC2/DepthDuration/v2_depth_duration_MTurk/v2_DepthDuration_HTML.html#89,89,1366,768,1366,768,8-30-2022,7-1-9,95,depth_duration_stimuli/003083_2014-06-15_15-21-03_094959634447_rgbf000063-resize_1/003083_2014-06-15_15-21-03_094959634447_rgbf000063-resize_1-target.png,1000,4.1405,5,3370,1000,meters,jsons/v1_VE1000_randls_9_rotated.json,1013654,1295830,62,Man
95,884295,DepthScenes,duration_manipulation_targetAtFixation,jsons/v1_VE1000_randls_9_rotated.json,http://54.235.29.9/FacialAge/BNav_EC2/DepthDuration/v2_depth_duration_MTurk/v2_DepthDuration_HTML.html#89,89,1366,768,1366,768,8-30-2022,7-1-9,96,depth_duration_stimuli/000486_2014-06-09_20-47-20_260595134347_rgbf000143-resize_2/000486_2014-06-09_20-47-20_260595134347_rgbf000143-resize_2-target.png,1000,4.8325,4,3188,999,meters,jsons/v1_VE1000_randls_9_rotated.json,1013654,1295830,62,Man
96,884295,DepthScenes,duration_manipulation_targetAtFixation,jsons/v1_VE1000_randls_9_rotated.json,http://54.235.29.9/FacialAge/BNav_EC2/DepthDuration/v2_depth_duration_MTurk/v2_DepthDuration_HTML.html#89,89,1366,768,1366,768,8-30-2022,7-1-9,97,depth_duration_stimuli/001094_2014-06-15_17-36-00_260595134347_rgbf000205-resize_0/001094_2014-06-15_17-36-00_260595134347_rgbf000205-resize_0-target.png,1000,4.2175,5,3251,1001,meters,jsons/v1_VE1000_randls_9_rotated.json,1013654,1295830,62,Man
97,884295,DepthScenes,duration_manipulation_targetAtFixation,jsons/v1_VE1000_randls_9_rotated.json,http://54.235.29.9/FacialAge/BNav_EC2/DepthDuration/v2_depth_duration_MTurk/v2_DepthDuration_HTML.html#89,89,1366,768,1366,768,8-30-2022,7-1-9,98,depth_duration_stimuli/000692_2014-06-08_13-09-42_260595134347_rgbf000199-resize_2/000692_2014-06-08_13-09-42_260595134347_rgbf000199-resize_2-target.png,1000,3.661,5,3265,1001,meters,jsons/v1_VE1000_randls_9_rotated.json,1013654,1295830,62,Man
98,884295,DepthScenes,duration_manipulation_targetAtFixation,jsons/v1_VE1000_randls_9_rotated.json,http://54.235.29.9/FacialAge/BNav_EC2/DepthDuration/v2_depth_duration_MTurk/v2_DepthDuration_HTML.html#89,89,1366,768,1366,768,8-30-2022,7-1-9,99,depth_duration_stimuli/001222_2014-06-17_16-24-06_260595134347_rgbf000073-resize_0/001222_2014-06-17_16-24-06_260595134347_rgbf000073-resize-original.jpg,1000,1.4385,0,3467,1000,meters,jsons/v1_VE1000_randls_9_rotated.json,1013654,1295830,62,Man
99,884295,DepthScenes,duration_manipulation_targetAtFixation,jsons/v1_VE1000_randls_9_rotated.json,http://54.235.29.9/FacialAge/BNav_EC2/DepthDuration/v2_depth_duration_MTurk/v2_DepthDuration_HTML.html#89,89,1366,768,1366,768,8-30-2022,7-1-9,100,depth_duration_stimuli/002657_2014-06-13_15-29-54_094959634447_rgbf000150-resize_1/002657_2014-06-13_15-29-54_094959634447_rgbf000150-resize_1-target.png,1000,4.919,5,4073,999,meters,jsons/v1_VE1000_randls_9_rotated.json,1013654,1295830,62,Man
100,884295,DepthScenes,duration_manipulation_targetAtFixation,jsons/v1_VE1000_randls_9_rotated.json,http://54.235.29.9/FacialAge/BNav_EC2/DepthDuration/v2_depth_duration_MTurk/v2_DepthDuration_HTML.html#89,89,1366,768,1366,768,8-30-2022,7-1-9,101,depth_duration_stimuli/002375_2014-06-28_20-13-44_260595134347_rgbf000032-resize_1/002375_2014-06-28_20-13-44_260595134347_rgbf000032-resize_1-target.png,1000,4.0175,0,4138,998,meters,jsons/v1_VE1000_randls_9_rotated.json,1013654,1295830,62,Man
101,884295,DepthScenes,duration_manipulation_targetAtFixation,jsons/v1_VE1000_randls_9_rotated.json,http://54.235.29.9/FacialAge/BNav_EC2/DepthDuration/v2_depth_duration_MTurk/v2_DepthDuration_HTML.html#89,89,1366,625,1366,768,8-30-2022,7-1-9,102,depth_duration_stimuli/001136_2014-06-17_15-19-41_260595134347_rgbf000076-resize_3/001136_2014-06-17_15-19-41_260595134347_rgbf000076-resize_3-target.png,1000,1.8655,5,18756,1000,meters,jsons/v1_VE1000_randls_9_rotated.json,1013654,1295830,62,Man
102,884295,DepthScenes,duration_manipulation_targetAtFixation,jsons/v1_VE1000_randls_9_rotated.json,http://54.235.29.9/FacialAge/BNav_EC2/DepthDuration/v2_depth_duration_MTurk/v2_DepthDuration_HTML.html#89,89,1366,768,1366,768,8-30-2022,7-1-9,103,depth_duration_stimuli/001164_2014-06-17_15-35-46_260595134347_rgbf000085-resize_3/001164_2014-06-17_15-35-46_260595134347_rgbf000085-resize_3-target.png,1000,2.354,4,4316,1000,meters,jsons/v1_VE1000_randls_9_rotated.json,1013654,1295830,62,Man
103,884295,DepthScenes,duration_manipulation_targetAtFixation,jsons/v1_VE1000_randls_9_rotated.json,http://54.235.29.9/FacialAge/BNav_EC2/DepthDuration/v2_depth_duration_MTurk/v2_DepthDuration_HTML.html#89,89,1366,768,1366,768,8-30-2022,7-1-9,104,depth_duration_stimuli/000780_2014-06-08_22-28-29_260595134347_rgbf000126-resize_1/000780_2014-06-08_22-28-29_260595134347_rgbf000126-resize_1-target.png,1000,3.3825,5,3674,1001,meters,jsons/v1_VE1000_randls_9_rotated.json,1013654,1295830,62,Man
104,884295,DepthScenes,duration_manipulation_targetAtFixation,jsons/v1_VE1000_randls_9_rotated.json,http://54.235.29.9/FacialAge/BNav_EC2/DepthDuration/v2_depth_duration_MTurk/v2_DepthDuration_HTML.html#89,89,1366,768,1366,768,8-30-2022,7-1-9,105,depth_duration_stimuli/002445_2014-06-28_20-32-16_260595134347_rgbf000029-resize_4/002445_2014-06-28_20-32-16_260595134347_rgbf000029-resize_4-target.png,1000,2.5315,2,3490,999,meters,jsons/v1_VE1000_randls_9_rotated.json,1013654,1295830,62,Man
105,884295,DepthScenes,duration_manipulation_targetAtFixation,jsons/v1_VE1000_randls_9_rotated.json,http://54.235.29.9/FacialAge/BNav_EC2/DepthDuration/v2_depth_duration_MTurk/v2_DepthDuration_HTML.html#89,89,1366,768,1366,768,8-30-2022,7-1-9,106,depth_duration_stimuli/000665_2014-06-09_20-42-35_260595134347_rgbf000110-resize_1/000665_2014-06-09_20-42-35_260595134347_rgbf000110-resize_1-target.png,1000,3.057,3,3741,993,meters,jsons/v1_VE1000_randls_9_rotated.json,1013654,1295830,62,Man
106,884295,DepthScenes,duration_manipulation_targetAtFixation,jsons/v1_VE1000_randls_9_rotated.json,http://54.235.29.9/FacialAge/BNav_EC2/DepthDuration/v2_depth_duration_MTurk/v2_DepthDuration_HTML.html#89,89,1366,768,1366,768,8-30-2022,7-1-9,107,depth_duration_stimuli/001150_2014-06-17_15-27-34_260595134347_rgbf000108-resize_2/001150_2014-06-17_15-27-34_260595134347_rgbf000108-resize_2-target.png,1000,4.0325,3,3963,1001,meters,jsons/v1_VE1000_randls_9_rotated.json,1013654,1295830,62,Man
107,884295,DepthScenes,duration_manipulation_targetAtFixation,jsons/v1_VE1000_randls_9_rotated.json,http://54.235.29.9/FacialAge/BNav_EC2/DepthDuration/v2_depth_duration_MTurk/v2_DepthDuration_HTML.html#89,89,1366,768,1366,768,8-30-2022,7-1-9,108,depth_duration_stimuli/003228_2014-05-14_13-42-35_094959634447_rgbf000101-resize_1/003228_2014-05-14_13-42-35_094959634447_rgbf000101-resize_1-target.png,1000,1.9680000000000002,2,3275,1000,meters,jsons/v1_VE1000_randls_9_rotated.json,1013654,1295830,62,Man
108,884295,DepthScenes,duration_manipulation_targetAtFixation,jsons/v1_VE1000_randls_9_rotated.json,http://54.235.29.9/FacialAge/BNav_EC2/DepthDuration/v2_depth_duration_MTurk/v2_DepthDuration_HTML.html#89,89,1366,768,1366,768,8-30-2022,7-1-9,109,depth_duration_stimuli/002600_2014-06-24_14-27-04_094959634447_rgbf000074-resize_2/002600_2014-06-24_14-27-04_094959634447_rgbf000074-resize_2-target.png,1000,2.7575,3,3796,1001,meters,jsons/v1_VE1000_randls_9_rotated.json,1013654,1295830,62,Man
109,884295,DepthScenes,duration_manipulation_targetAtFixation,jsons/v1_VE1000_randls_9_rotated.json,http://54.235.29.9/FacialAge/BNav_EC2/DepthDuration/v2_depth_duration_MTurk/v2_DepthDuration_HTML.html#89,89,1366,768,1366,768,8-30-2022,7-1-9,110,depth_duration_stimuli/001032_2014-06-08_13-23-17_260595134347_rgbf000021-resize_3/001032_2014-06-08_13-23-17_260595134347_rgbf000021-resize_3-target.png,1000,3.2725,2,3289,999,meters,jsons/v1_VE1000_randls_9_rotated.json,1013654,1295830,62,Man
110,884295,DepthScenes,duration_manipulation_targetAtFixation,jsons/v1_VE1000_randls_9_rotated.json,http://54.235.29.9/FacialAge/BNav_EC2/DepthDuration/v2_depth_duration_MTurk/v2_DepthDuration_HTML.html#89,89,1366,768,1366,768,8-30-2022,7-1-9,111,depth_duration_stimuli/001059_2014-06-08_21-53-27_260595134347_rgbf000061-resize_4/001059_2014-06-08_21-53-27_260595134347_rgbf000061-resize_4-target.png,1000,2.4185,3,4056,1001,meters,jsons/v1_VE1000_randls_9_rotated.json,1013654,1295830,62,Man
111,884295,DepthScenes,duration_manipulation_targetAtFixation,jsons/v1_VE1000_randls_9_rotated.json,http://54.235.29.9/FacialAge/BNav_EC2/DepthDuration/v2_depth_duration_MTurk/v2_DepthDuration_HTML.html#89,89,1366,768,1366,768,8-30-2022,7-1-9,112,depth_duration_stimuli/002995_2014-06-15_12-31-26_094959634447_rgbf000150-resize_1/002995_2014-06-15_12-31-26_094959634447_rgbf000150-resize_1-target.png,1000,3.8360000000000003,5,3734,998,meters,jsons/v1_VE1000_randls_9_rotated.json,1013654,1295830,62,Man
112,884295,DepthScenes,duration_manipulation_targetAtFixation,jsons/v1_VE1000_randls_9_rotated.json,http://54.235.29.9/FacialAge/BNav_EC2/DepthDuration/v2_depth_duration_MTurk/v2_DepthDuration_HTML.html#89,89,1366,768,1366,768,8-30-2022,7-1-9,113,depth_duration_stimuli/002748_2014-06-22_19-07-22_094959634447_rgbf000078-resize_1/002748_2014-06-22_19-07-22_094959634447_rgbf000078-resize_1-target.png,1000,4.6705,5,4085,999,meters,jsons/v1_VE1000_randls_9_rotated.json,1013654,1295830,62,Man
113,884295,DepthScenes,duration_manipulation_targetAtFixation,jsons/v1_VE1000_randls_9_rotated.json,http://54.235.29.9/FacialAge/BNav_EC2/DepthDuration/v2_depth_duration_MTurk/v2_DepthDuration_HTML.html#89,89,1366,768,1366,768,8-30-2022,7-1-9,114,depth_duration_stimuli/000191_2014-05-12_17-07-38_260595134347_rgbf000199-resize_0/000191_2014-05-12_17-07-38_260595134347_rgbf000199-resize_0-target.png,1000,3.7995,5,3237,999,meters,jsons/v1_VE1000_randls_9_rotated.json,1013654,1295830,62,Man
114,884295,DepthScenes,duration_manipulation_targetAtFixation,jsons/v1_VE1000_randls_9_rotated.json,http://54.235.29.9/FacialAge/BNav_EC2/DepthDuration/v2_depth_duration_MTurk/v2_DepthDuration_HTML.html#89,89,1366,768,1366,768,8-30-2022,7-1-9,115,depth_duration_stimuli/000493_2014-06-09_21-01-18_260595134347_rgbf000196-resize_3/000493_2014-06-09_21-01-18_260595134347_rgbf000196-resize_3-target.png,1000,3.44,4,4526,998,meters,jsons/v1_VE1000_randls_9_rotated.json,1013654,1295830,62,Man
115,884295,DepthScenes,duration_manipulation_targetAtFixation,jsons/v1_VE1000_randls_9_rotated.json,http://54.235.29.9/FacialAge/BNav_EC2/DepthDuration/v2_depth_duration_MTurk/v2_DepthDuration_HTML.html#89,89,1366,768,1366,768,8-30-2022,7-1-9,116,depth_duration_stimuli/001235_2014-06-17_16-37-36_260595134347_rgbf000084-resize_4/001235_2014-06-17_16-37-36_260595134347_rgbf000084-resize_4-target.png,1000,3.6605,4,3608,1000,meters,jsons/v1_VE1000_randls_9_rotated.json,1013654,1295830,62,Man
116,884295,DepthScenes,duration_manipulation_targetAtFixation,jsons/v1_VE1000_randls_9_rotated.json,http://54.235.29.9/FacialAge/BNav_EC2/DepthDuration/v2_depth_duration_MTurk/v2_DepthDuration_HTML.html#89,89,1366,768,1366,768,8-30-2022,7-1-9,117,depth_duration_stimuli/000788_2014-06-08_22-34-36_260595134347_rgbf000131-resize_1/000788_2014-06-08_22-34-36_260595134347_rgbf000131-resize_1-target.png,1000,3.359,3,5942,1000,meters,jsons/v1_VE1000_randls_9_rotated.json,1013654,1295830,62,Man
117,884295,DepthScenes,duration_manipulation_targetAtFixation,jsons/v1_VE1000_randls_9_rotated.json,http://54.235.29.9/FacialAge/BNav_EC2/DepthDuration/v2_depth_duration_MTurk/v2_DepthDuration_HTML.html#89,89,1366,768,1366,768,8-30-2022,7-1-9,118,depth_duration_stimuli/000502_2014-06-08_23-02-32_260595134347_rgbf000063-resize_4/000502_2014-06-08_23-02-32_260595134347_rgbf000063-resize_4-target.png,1000,2.431,2,8804,1000,meters,jsons/v1_VE1000_randls_9_rotated.json,1013654,1295830,62,Man
118,884295,DepthScenes,duration_manipulation_targetAtFixation,jsons/v1_VE1000_randls_9_rotated.json,http://54.235.29.9/FacialAge/BNav_EC2/DepthDuration/v2_depth_duration_MTurk/v2_DepthDuration_HTML.html#89,89,1366,768,1366,768,8-30-2022,7-1-9,119,depth_duration_stimuli/001199_2014-06-17_16-03-48_260595134347_rgbf000077-resize_0/001199_2014-06-17_16-03-48_260595134347_rgbf000077-resize_0-target.png,1000,3.4375,3,4332,998,meters,jsons/v1_VE1000_randls_9_rotated.json,1013654,1295830,62,Man
119,884295,DepthScenes,duration_manipulation_targetAtFixation,jsons/v1_VE1000_randls_9_rotated.json,http://54.235.29.9/FacialAge/BNav_EC2/DepthDuration/v2_depth_duration_MTurk/v2_DepthDuration_HTML.html#89,89,1366,768,1366,768,8-30-2022,7-1-9,120,depth_duration_stimuli/000787_2014-06-08_22-33-53_260595134347_rgbf000175-resize_1/000787_2014-06-08_22-33-53_260595134347_rgbf000175-resize-original.jpg,1000,4.784,4,6488,1000,meters,jsons/v1_VE1000_randls_9_rotated.json,1013654,1295830,62,Man
120,884295,DepthScenes,duration_manipulation_targetAtFixation,jsons/v1_VE1000_randls_9_rotated.json,http://54.235.29.9/FacialAge/BNav_EC2/DepthDuration/v2_depth_duration_MTurk/v2_DepthDuration_HTML.html#89,89,1366,768,1366,768,8-30-2022,7-1-9,121,depth_duration_stimuli/001815_2014-06-26_20-52-55_260595134347_rgbf000020-resize_0/001815_2014-06-26_20-52-55_260595134347_rgbf000020-resize_0-target.png,1000,3.3865,5,3284,1001,meters,jsons/v1_VE1000_randls_9_rotated.json,1013654,1295830,62,Man
121,884295,DepthScenes,duration_manipulation_targetAtFixation,jsons/v1_VE1000_randls_9_rotated.json,http://54.235.29.9/FacialAge/BNav_EC2/DepthDuration/v2_depth_duration_MTurk/v2_DepthDuration_HTML.html#89,89,1366,768,1366,768,8-30-2022,7-1-9,122,depth_duration_stimuli/001808_2014-06-26_20-50-58_260595134347_rgbf000029-resize_1/001808_2014-06-26_20-50-58_260595134347_rgbf000029-resize_1-target.png,1000,4.249,5,3249,1000,meters,jsons/v1_VE1000_randls_9_rotated.json,1013654,1295830,62,Man
122,884295,DepthScenes,duration_manipulation_targetAtFixation,jsons/v1_VE1000_randls_9_rotated.json,http://54.235.29.9/FacialAge/BNav_EC2/DepthDuration/v2_depth_duration_MTurk/v2_DepthDuration_HTML.html#89,89,1366,768,1366,768,8-30-2022,7-1-9,123,depth_duration_stimuli/001584_2014-06-20_11-07-43_260595134347_rgbf000002-resize_1/001584_2014-06-20_11-07-43_260595134347_rgbf000002-resize_1-target.png,1000,3.53,4,4179,999,meters,jsons/v1_VE1000_randls_9_rotated.json,1013654,1295830,62,Man
123,884295,DepthScenes,duration_manipulation_targetAtFixation,jsons/v1_VE1000_randls_9_rotated.json,http://54.235.29.9/FacialAge/BNav_EC2/DepthDuration/v2_depth_duration_MTurk/v2_DepthDuration_HTML.html#89,89,1366,768,1366,768,8-30-2022,7-1-9,124,depth_duration_stimuli/003621_2014-05-23_18-06-08_094959634447_rgbf000101-resize_1/003621_2014-05-23_18-06-08_094959634447_rgbf000101-resize_1-target.png,1000,3.9835,5,4431,999,meters,jsons/v1_VE1000_randls_9_rotated.json,1013654,1295830,62,Man
124,884295,DepthScenes,duration_manipulation_targetAtFixation,jsons/v1_VE1000_randls_9_rotated.json,http://54.235.29.9/FacialAge/BNav_EC2/DepthDuration/v2_depth_duration_MTurk/v2_DepthDuration_HTML.html#89,89,1366,768,1366,768,8-30-2022,7-1-9,125,depth_duration_stimuli/001132_2014-06-17_14-48-54_260595134347_rgbf000100-resize_2/001132_2014-06-17_14-48-54_260595134347_rgbf000100-resize_2-target.png,1000,3.753,5,4271,1001,meters,jsons/v1_VE1000_randls_9_rotated.json,1013654,1295830,62,Man
125,884295,DepthScenes,duration_manipulation_targetAtFixation,jsons/v1_VE1000_randls_9_rotated.json,http://54.235.29.9/FacialAge/BNav_EC2/DepthDuration/v2_depth_duration_MTurk/v2_DepthDuration_HTML.html#89,89,1366,768,1366,768,8-30-2022,7-1-9,126,depth_duration_stimuli/001133_2014-06-17_14-49-16_260595134347_rgbf000100-resize_0/001133_2014-06-17_14-49-16_260595134347_rgbf000100-resize_0-target.png,1000,4.2115,4,3994,998,meters,jsons/v1_VE1000_randls_9_rotated.json,1013654,1295830,62,Man
126,884295,DepthScenes,duration_manipulation_targetAtFixation,jsons/v1_VE1000_randls_9_rotated.json,http://54.235.29.9/FacialAge/BNav_EC2/DepthDuration/v2_depth_duration_MTurk/v2_DepthDuration_HTML.html#89,89,1366,768,1366,768,8-30-2022,7-1-9,127,depth_duration_stimuli/002103_2014-06-25_20-00-40_260595134347_rgbf000049-resize_0/002103_2014-06-25_20-00-40_260595134347_rgbf000049-resize_0-target.png,1000,4.105,5,3651,999,meters,jsons/v1_VE1000_randls_9_rotated.json,1013654,1295830,62,Man
127,884295,DepthScenes,duration_manipulation_targetAtFixation,jsons/v1_VE1000_randls_9_rotated.json,http://54.235.29.9/FacialAge/BNav_EC2/DepthDuration/v2_depth_duration_MTurk/v2_DepthDuration_HTML.html#89,89,1366,768,1366,768,8-30-2022,7-1-9,128,depth_duration_stimuli/002039_2014-06-24_20-22-38_260595134347_rgbf000084-resize_1/002039_2014-06-24_20-22-38_260595134347_rgbf000084-resize_1-target.png,1000,4.408,5,3394,999,meters,jsons/v1_VE1000_randls_9_rotated.json,1013654,1295830,62,Man
128,884295,DepthScenes,duration_manipulation_targetAtFixation,jsons/v1_VE1000_randls_9_rotated.json,http://54.235.29.9/FacialAge/BNav_EC2/DepthDuration/v2_depth_duration_MTurk/v2_DepthDuration_HTML.html#89,89,1366,768,1366,768,8-30-2022,7-1-9,129,depth_duration_stimuli/003495_2014-05-21_16-01-51_094959634447_rgbf000100-resize_3/003495_2014-05-21_16-01-51_094959634447_rgbf000100-resize_3-target.png,1000,1.6255,2,3212,1000,meters,jsons/v1_VE1000_randls_9_rotated.json,1013654,1295830,62,Man
129,884295,DepthScenes,duration_manipulation_targetAtFixation,jsons/v1_VE1000_randls_9_rotated.json,http://54.235.29.9/FacialAge/BNav_EC2/DepthDuration/v2_depth_duration_MTurk/v2_DepthDuration_HTML.html#89,89,1366,768,1366,768,8-30-2022,7-1-9,130,depth_duration_stimuli/001244_2014-06-17_16-47-45_260595134347_rgbf000030-resize_4/001244_2014-06-17_16-47-45_260595134347_rgbf000030-resize_4-target.png,1000,2.0425,3,3261,1001,meters,jsons/v1_VE1000_randls_9_rotated.json,1013654,1295830,62,Man
130,884295,DepthScenes,duration_manipulation_targetAtFixation,jsons/v1_VE1000_randls_9_rotated.json,http://54.235.29.9/FacialAge/BNav_EC2/DepthDuration/v2_depth_duration_MTurk/v2_DepthDuration_HTML.html#89,89,1366,768,1366,768,8-30-2022,7-1-9,131,depth_duration_stimuli/000927_2014-06-09_16-32-30_260595134347_rgbf000123-resize_3/000927_2014-06-09_16-32-30_260595134347_rgbf000123-resize_3-target.png,1000,2.6785,4,4082,1001,meters,jsons/v1_VE1000_randls_9_rotated.json,1013654,1295830,62,Man
131,884295,DepthScenes,duration_manipulation_targetAtFixation,jsons/v1_VE1000_randls_9_rotated.json,http://54.235.29.9/FacialAge/BNav_EC2/DepthDuration/v2_depth_duration_MTurk/v2_DepthDuration_HTML.html#89,89,1366,768,1366,768,8-30-2022,7-1-9,132,depth_duration_stimuli/001110_2014-06-15_17-25-28_260595134347_rgbf000150-resize_1/001110_2014-06-15_17-25-28_260595134347_rgbf000150-resize_1-target.png,1000,1.7115,3,3331,998,meters,jsons/v1_VE1000_randls_9_rotated.json,1013654,1295830,62,Man
132,884295,DepthScenes,duration_manipulation_targetAtFixation,jsons/v1_VE1000_randls_9_rotated.json,http://54.235.29.9/FacialAge/BNav_EC2/DepthDuration/v2_depth_duration_MTurk/v2_DepthDuration_HTML.html#89,89,1366,768,1366,768,8-30-2022,7-1-9,133,depth_duration_stimuli/000943_2014-06-09_19-31-07_260595134347_rgbf000128-resize_1/000943_2014-06-09_19-31-07_260595134347_rgbf000128-resize_1-target.png,1000,1.9765,3,3089,1000,meters,jsons/v1_VE1000_randls_9_rotated.json,1013654,1295830,62,Man
133,884295,DepthScenes,duration_manipulation_targetAtFixation,jsons/v1_VE1000_randls_9_rotated.json,http://54.235.29.9/FacialAge/BNav_EC2/DepthDuration/v2_depth_duration_MTurk/v2_DepthDuration_HTML.html#89,89,1366,768,1366,768,8-30-2022,7-1-9,134,depth_duration_stimuli/003070_2014-06-15_14-58-27_094959634447_rgbf000150-resize_3/003070_2014-06-15_14-58-27_094959634447_rgbf000150-resize_3-target.png,1000,2.9415,4,3034,1000,meters,jsons/v1_VE1000_randls_9_rotated.json,1013654,1295830,62,Man
134,884295,DepthScenes,duration_manipulation_targetAtFixation,jsons/v1_VE1000_randls_9_rotated.json,http://54.235.29.9/FacialAge/BNav_EC2/DepthDuration/v2_depth_duration_MTurk/v2_DepthDuration_HTML.html#89,89,1366,768,1366,768,8-30-2022,7-1-9,135,depth_duration_stimuli/000375_2014-06-08_11-17-29_260595134347_rgbf000133-resize_2/000375_2014-06-08_11-17-29_260595134347_rgbf000133-resize-original.jpg,1000,4.718,0,4021,999,meters,jsons/v1_VE1000_randls_9_rotated.json,1013654,1295830,62,Man
135,884295,DepthScenes,duration_manipulation_targetAtFixation,jsons/v1_VE1000_randls_9_rotated.json,http://54.235.29.9/FacialAge/BNav_EC2/DepthDuration/v2_depth_duration_MTurk/v2_DepthDuration_HTML.html#89,89,1366,768,1366,768,8-30-2022,7-1-9,136,depth_duration_stimuli/002545_2014-06-24_13-38-53_094959634447_rgbf000080-resize_4/002545_2014-06-24_13-38-53_094959634447_rgbf000080-resize_4-target.png,1000,1.9205,4,3180,1000,meters,jsons/v1_VE1000_randls_9_rotated.json,1013654,1295830,62,Man
136,884295,DepthScenes,duration_manipulation_targetAtFixation,jsons/v1_VE1000_randls_9_rotated.json,http://54.235.29.9/FacialAge/BNav_EC2/DepthDuration/v2_depth_duration_MTurk/v2_DepthDuration_HTML.html#89,89,1366,768,1366,768,8-30-2022,7-1-9,137,depth_duration_stimuli/001092_2014-06-15_17-34-58_260595134347_rgbf000171-resize_3/001092_2014-06-15_17-34-58_260595134347_rgbf000171-resize_3-target.png,1000,2.6935,3,3268,999,meters,jsons/v1_VE1000_randls_9_rotated.json,1013654,1295830,62,Man
137,884295,DepthScenes,duration_manipulation_targetAtFixation,jsons/v1_VE1000_randls_9_rotated.json,http://54.235.29.9/FacialAge/BNav_EC2/DepthDuration/v2_depth_duration_MTurk/v2_DepthDuration_HTML.html#89,89,1366,768,1366,768,8-30-2022,7-1-9,138,depth_duration_stimuli/003081_2014-06-15_15-19-16_094959634447_rgbf000150-resize_1/003081_2014-06-15_15-19-16_094959634447_rgbf000150-resize_1-target.png,1000,3.9125,4,3811,1000,meters,jsons/v1_VE1000_randls_9_rotated.json,1013654,1295830,62,Man
138,884295,DepthScenes,duration_manipulation_targetAtFixation,jsons/v1_VE1000_randls_9_rotated.json,http://54.235.29.9/FacialAge/BNav_EC2/DepthDuration/v2_depth_duration_MTurk/v2_DepthDuration_HTML.html#89,89,1366,768,1366,768,8-30-2022,7-1-9,139,depth_duration_stimuli/001417_2014-06-19_16-25-36_260595134347_rgbf000115-resize_5/001417_2014-06-19_16-25-36_260595134347_rgbf000115-resize_5-target.png,1000,4.6255,4,3611,999,meters,jsons/v1_VE1000_randls_9_rotated.json,1013654,1295830,62,Man
139,884295,DepthScenes,duration_manipulation_targetAtFixation,jsons/v1_VE1000_randls_9_rotated.json,http://54.235.29.9/FacialAge/BNav_EC2/DepthDuration/v2_depth_duration_MTurk/v2_DepthDuration_HTML.html#89,89,1366,768,1366,768,8-30-2022,7-1-9,140,depth_duration_stimuli/002953_2014-06-08_17-32-18_094959634447_rgbf000059-resize_5/002953_2014-06-08_17-32-18_094959634447_rgbf000059-resize_5-target.png,1000,1.551,2,4034,999,meters,jsons/v1_VE1000_randls_9_rotated.json,1013654,1295830,62,Man
140,884295,DepthScenes,duration_manipulation_targetAtFixation,jsons/v1_VE1000_randls_9_rotated.json,http://54.235.29.9/FacialAge/BNav_EC2/DepthDuration/v2_depth_duration_MTurk/v2_DepthDuration_HTML.html#89,89,1366,768,1366,768,8-30-2022,7-1-9,141,depth_duration_stimuli/000878_2014-06-08_22-52-45_260595134347_rgbf000045-resize_2/000878_2014-06-08_22-52-45_260595134347_rgbf000045-resize_2-target.png,1000,2.092,4,3636,999,meters,jsons/v1_VE1000_randls_9_rotated.json,1013654,1295830,62,Man
141,884295,DepthScenes,duration_manipulation_targetAtFixation,jsons/v1_VE1000_randls_9_rotated.json,http://54.235.29.9/FacialAge/BNav_EC2/DepthDuration/v2_depth_duration_MTurk/v2_DepthDuration_HTML.html#89,89,1366,768,1366,768,8-30-2022,7-1-9,142,depth_duration_stimuli/003587_2014-05-23_16-48-02_094959634447_rgbf002384-resize_2/003587_2014-05-23_16-48-02_094959634447_rgbf002384-resize_2-target.png,1000,1.357,2,3492,1000,meters,jsons/v1_VE1000_randls_9_rotated.json,1013654,1295830,62,Man
142,884295,DepthScenes,duration_manipulation_targetAtFixation,jsons/v1_VE1000_randls_9_rotated.json,http://54.235.29.9/FacialAge/BNav_EC2/DepthDuration/v2_depth_duration_MTurk/v2_DepthDuration_HTML.html#89,89,1366,768,1366,768,8-30-2022,7-1-9,143,depth_duration_stimuli/001167_2014-06-17_15-38-07_260595134347_rgbf000108-resize_0/001167_2014-06-17_15-38-07_260595134347_rgbf000108-resize_0-target.png,1000,1.8505,2,3234,1001,meters,jsons/v1_VE1000_randls_9_rotated.json,1013654,1295830,62,Man
143,884295,DepthScenes,duration_manipulation_targetAtFixation,jsons/v1_VE1000_randls_9_rotated.json,http://54.235.29.9/FacialAge/BNav_EC2/DepthDuration/v2_depth_duration_MTurk/v2_DepthDuration_HTML.html#89,89,1366,768,1366,768,8-30-2022,7-1-9,144,depth_duration_stimuli/002637_2014-06-24_14-51-13_094959634447_rgbf000066-resize_4/002637_2014-06-24_14-51-13_094959634447_rgbf000066-resize_4-target.png,1000,1.9955,4,3226,1000,meters,jsons/v1_VE1000_randls_9_rotated.json,1013654,1295830,62,Man
144,884295,DepthScenes,duration_manipulation_targetAtFixation,jsons/v1_VE1000_randls_9_rotated.json,http://54.235.29.9/FacialAge/BNav_EC2/DepthDuration/v2_depth_duration_MTurk/v2_DepthDuration_HTML.html#89,89,1366,768,1366,768,8-30-2022,7-1-9,145,depth_duration_stimuli/003534_2014-05-22_15-06-10_094959634447_rgbf000102-resize_4/003534_2014-05-22_15-06-10_094959634447_rgbf000102-resize_4-target.png,1000,1.426,2,3210,999,meters,jsons/v1_VE1000_randls_9_rotated.json,1013654,1295830,62,Man
145,884295,DepthScenes,duration_manipulation_targetAtFixation,jsons/v1_VE1000_randls_9_rotated.json,http://54.235.29.9/FacialAge/BNav_EC2/DepthDuration/v2_depth_duration_MTurk/v2_DepthDuration_HTML.html#89,89,1366,768,1366,768,8-30-2022,7-1-9,146,depth_duration_stimuli/002209_2014-06-28_18-36-10_260595134347_rgbf000051-resize_1/002209_2014-06-28_18-36-10_260595134347_rgbf000051-resize_1-target.png,1000,2.057,3,3291,1002,meters,jsons/v1_VE1000_randls_9_rotated.json,1013654,1295830,62,Man
146,884295,DepthScenes,duration_manipulation_targetAtFixation,jsons/v1_VE1000_randls_9_rotated.json,http://54.235.29.9/FacialAge/BNav_EC2/DepthDuration/v2_depth_duration_MTurk/v2_DepthDuration_HTML.html#89,89,1366,768,1366,768,8-30-2022,7-1-9,147,depth_duration_stimuli/002763_2014-06-22_19-13-10_094959634447_rgbf000075-resize_4/002763_2014-06-22_19-13-10_094959634447_rgbf000075-resize_4-target.png,1000,1.68375,4,3652,1001,meters,jsons/v1_VE1000_randls_9_rotated.json,1013654,1295830,62,Man
147,884295,DepthScenes,duration_manipulation_targetAtFixation,jsons/v1_VE1000_randls_9_rotated.json,http://54.235.29.9/FacialAge/BNav_EC2/DepthDuration/v2_depth_duration_MTurk/v2_DepthDuration_HTML.html#89,89,1366,768,1366,768,8-30-2022,7-1-9,148,depth_duration_stimuli/002136_2014-06-25_21-18-03_260595134347_rgbf000109-resize_3/002136_2014-06-25_21-18-03_260595134347_rgbf000109-resize_3-target.png,1000,1.9569999999999999,3,5138,998,meters,jsons/v1_VE1000_randls_9_rotated.json,1013654,1295830,62,Man
148,884295,DepthScenes,duration_manipulation_targetAtFixation,jsons/v1_VE1000_randls_9_rotated.json,http://54.235.29.9/FacialAge/BNav_EC2/DepthDuration/v2_depth_duration_MTurk/v2_DepthDuration_HTML.html#89,89,1366,768,1366,768,8-30-2022,7-1-9,149,depth_duration_stimuli/002964_2014-06-08_17-46-11_094959634447_rgbf000091-resize_4/002964_2014-06-08_17-46-11_094959634447_rgbf000091-resize_4-target.png,1000,1.6909999999999998,1,3698,1001,meters,jsons/v1_VE1000_randls_9_rotated.json,1013654,1295830,62,Man
149,884295,DepthScenes,duration_manipulation_targetAtFixation,jsons/v1_VE1000_randls_9_rotated.json,http://54.235.29.9/FacialAge/BNav_EC2/DepthDuration/v2_depth_duration_MTurk/v2_DepthDuration_HTML.html#89,89,1366,768,1366,768,8-30-2022,7-1-9,150,depth_duration_stimuli/000409_2014-06-04_19-23-33_260595134347_rgbf000067-resize_0/000409_2014-06-04_19-23-33_260595134347_rgbf000067-resize_0-target.png,1000,3.7335,3,3307,1001,meters,jsons/v1_VE1000_randls_9_rotated.json,1013654,1295830,62,Man
150,884295,DepthScenes,duration_manipulation_targetAtFixation,jsons/v1_VE1000_randls_9_rotated.json,http://54.235.29.9/FacialAge/BNav_EC2/DepthDuration/v2_depth_duration_MTurk/v2_DepthDuration_HTML.html#89,89,1366,768,1366,768,8-30-2022,7-1-9,151,depth_duration_stimuli/002663_2014-06-13_15-50-26_094959634447_rgbf000075-resize_1/002663_2014-06-13_15-50-26_094959634447_rgbf000075-resize_1-target.png,1000,4.7495,4,3003,1000,meters,jsons/v1_VE1000_randls_9_rotated.json,1013654,1295830,62,Man
151,884295,DepthScenes,duration_manipulation_targetAtFixation,jsons/v1_VE1000_randls_9_rotated.json,http://54.235.29.9/FacialAge/BNav_EC2/DepthDuration/v2_depth_duration_MTurk/v2_DepthDuration_HTML.html#89,89,1366,768,1366,768,8-30-2022,7-1-9,152,depth_duration_stimuli/000569_2014-06-09_22-51-47_260595134347_rgbf000141-resize_3/000569_2014-06-09_22-51-47_260595134347_rgbf000141-resize-original.jpg,1000,4.512,0,3587,1001,meters,jsons/v1_VE1000_randls_9_rotated.json,1013654,1295830,62,Man
152,884295,DepthScenes,duration_manipulation_targetAtFixation,jsons/v1_VE1000_randls_9_rotated.json,http://54.235.29.9/FacialAge/BNav_EC2/DepthDuration/v2_depth_duration_MTurk/v2_DepthDuration_HTML.html#89,89,1366,768,1366,768,8-30-2022,7-1-9,153,depth_duration_stimuli/000483_2014-06-09_20-41-45_260595134347_rgbf000116-resize_4/000483_2014-06-09_20-41-45_260595134347_rgbf000116-resize_4-target.png,1000,1.337,2,3317,1000,meters,jsons/v1_VE1000_randls_9_rotated.json,1013654,1295830,62,Man
153,884295,DepthScenes,duration_manipulation_targetAtFixation,jsons/v1_VE1000_randls_9_rotated.json,http://54.235.29.9/FacialAge/BNav_EC2/DepthDuration/v2_depth_duration_MTurk/v2_DepthDuration_HTML.html#89,89,1366,768,1366,768,8-30-2022,7-1-9,154,depth_duration_stimuli/000469_2014-06-09_19-42-10_260595134347_rgbf000081-resize_1/000469_2014-06-09_19-42-10_260595134347_rgbf000081-resize_1-target.png,1000,1.652,2,3079,1000,meters,jsons/v1_VE1000_randls_9_rotated.json,1013654,1295830,62,Man
154,884295,DepthScenes,duration_manipulation_targetAtFixation,jsons/v1_VE1000_randls_9_rotated.json,http://54.235.29.9/FacialAge/BNav_EC2/DepthDuration/v2_depth_duration_MTurk/v2_DepthDuration_HTML.html#89,89,1366,768,1366,768,8-30-2022,7-1-9,155,depth_duration_stimuli/002750_2014-06-22_19-08-03_094959634447_rgbf000094-resize_4/002750_2014-06-22_19-08-03_094959634447_rgbf000094-resize_4-target.png,1000,2.354,4,3644,1000,meters,jsons/v1_VE1000_randls_9_rotated.json,1013654,1295830,62,Man
155,884295,DepthScenes,duration_manipulation_targetAtFixation,jsons/v1_VE1000_randls_9_rotated.json,http://54.235.29.9/FacialAge/BNav_EC2/DepthDuration/v2_depth_duration_MTurk/v2_DepthDuration_HTML.html#89,89,1366,768,1366,768,8-30-2022,7-1-9,156,depth_duration_stimuli/002549_2014-06-24_13-41-39_094959634447_rgbf000022-resize_3/002549_2014-06-24_13-41-39_094959634447_rgbf000022-resize_3-target.png,1000,1.476,4,4596,1000,meters,jsons/v1_VE1000_randls_9_rotated.json,1013654,1295830,62,Man
156,884295,DepthScenes,duration_manipulation_targetAtFixation,jsons/v1_VE1000_randls_9_rotated.json,http://54.235.29.9/FacialAge/BNav_EC2/DepthDuration/v2_depth_duration_MTurk/v2_DepthDuration_HTML.html#89,89,1366,768,1366,768,8-30-2022,7-1-9,157,depth_duration_stimuli/001516_2014-06-20_16-25-09_260595134347_rgbf000076-resize_2/001516_2014-06-20_16-25-09_260595134347_rgbf000076-resize_2-target.png,1000,1.7445,4,3731,997,meters,jsons/v1_VE1000_randls_9_rotated.json,1013654,1295830,62,Man
157,884295,DepthScenes,duration_manipulation_targetAtFixation,jsons/v1_VE1000_randls_9_rotated.json,http://54.235.29.9/FacialAge/BNav_EC2/DepthDuration/v2_depth_duration_MTurk/v2_DepthDuration_HTML.html#89,89,1366,768,1366,768,8-30-2022,7-1-9,158,depth_duration_stimuli/002118_2014-06-25_20-32-08_260595134347_rgbf000078-resize_1/002118_2014-06-25_20-32-08_260595134347_rgbf000078-resize_1-target.png,1000,2.6460000000000004,3,3690,998,meters,jsons/v1_VE1000_randls_9_rotated.json,1013654,1295830,62,Man
158,884295,DepthScenes,duration_manipulation_targetAtFixation,jsons/v1_VE1000_randls_9_rotated.json,http://54.235.29.9/FacialAge/BNav_EC2/DepthDuration/v2_depth_duration_MTurk/v2_DepthDuration_HTML.html#89,89,1366,768,1366,768,8-30-2022,7-1-9,159,depth_duration_stimuli/003423_2014-05-21_10-23-26_094959634447_rgbf002665-resize_2/003423_2014-05-21_10-23-26_094959634447_rgbf002665-resize_2-target.png,1000,3.2575,4,3620,1000,meters,jsons/v1_VE1000_randls_9_rotated.json,1013654,1295830,62,Man
159,884295,DepthScenes,duration_manipulation_targetAtFixation,jsons/v1_VE1000_randls_9_rotated.json,http://54.235.29.9/FacialAge/BNav_EC2/DepthDuration/v2_depth_duration_MTurk/v2_DepthDuration_HTML.html#89,89,1366,768,1366,768,8-30-2022,7-1-9,160,depth_duration_stimuli/002905_2014-06-03_18-04-43_094959634447_rgbf000151-resize_2/002905_2014-06-03_18-04-43_094959634447_rgbf000151-resize_2-target.png,1000,2.0295,3,4373,1001,meters,jsons/v1_VE1000_randls_9_rotated.json,1013654,1295830,62,Man
160,884295,DepthScenes,duration_manipulation_targetAtFixation,jsons/v1_VE1000_randls_9_rotated.json,http://54.235.29.9/FacialAge/BNav_EC2/DepthDuration/v2_depth_duration_MTurk/v2_DepthDuration_HTML.html#89,89,1366,768,1366,768,8-30-2022,7-1-9,161,depth_duration_stimuli/000854_2014-06-09_19-43-13_260595134347_rgbf000066-resize_0/000854_2014-06-09_19-43-13_260595134347_rgbf000066-resize_0-target.png,1000,3.068,2,111345,999,meters,jsons/v1_VE1000_randls_9_rotated.json,1013654,1295830,62,Man
161,884295,DepthScenes,duration_manipulation_targetAtFixation,jsons/v1_VE1000_randls_9_rotated.json,http://54.235.29.9/FacialAge/BNav_EC2/DepthDuration/v2_depth_duration_MTurk/v2_DepthDuration_HTML.html#89,89,1366,768,1366,768,8-30-2022,7-1-9,162,depth_duration_stimuli/000758_2014-06-08_22-05-08_260595134347_rgbf000085-resize_0/000758_2014-06-08_22-05-08_260595134347_rgbf000085-resize_0-target.png,1000,3.3810000000000002,4,3873,998,meters,jsons/v1_VE1000_randls_9_rotated.json,1013654,1295830,62,Man
162,884295,DepthScenes,duration_manipulation_targetAtFixation,jsons/v1_VE1000_randls_9_rotated.json,http://54.235.29.9/FacialAge/BNav_EC2/DepthDuration/v2_depth_duration_MTurk/v2_DepthDuration_HTML.html#89,89,1366,768,1366,768,8-30-2022,7-1-9,163,depth_duration_stimuli/000109_2014-05-14_23-41-52_260595134347_rgbf000035-resize_9/000109_2014-05-14_23-41-52_260595134347_rgbf000035-resize_9-target.png,1000,1.3545,2,7737,999,meters,jsons/v1_VE1000_randls_9_rotated.json,1013654,1295830,62,Man
163,884295,DepthScenes,duration_manipulation_targetAtFixation,jsons/v1_VE1000_randls_9_rotated.json,http://54.235.29.9/FacialAge/BNav_EC2/DepthDuration/v2_depth_duration_MTurk/v2_DepthDuration_HTML.html#89,89,1366,768,1366,768,8-30-2022,7-1-9,164,depth_duration_stimuli/000470_2014-06-09_19-42-40_260595134347_rgbf000094-resize_1/000470_2014-06-09_19-42-40_260595134347_rgbf000094-resize_1-target.png,1000,1.831,3,3555,1000,meters,jsons/v1_VE1000_randls_9_rotated.json,1013654,1295830,62,Man
