,subjID,experimentName,versionName,sequenceName,url,selected_row,windowWidth,windowHeight,screenWidth,screenHeight,startDate,startTime,trial,stimulus,duration,actual_depth,depth_estimate,trial_RT,log_sceneDuration,unitSelection,seq_filepath,experimentTime,totalTime,age,gender
0,885691,DepthScenes,duration_manipulation_targetAtFixation,jsons/v1_VE1000_randls_75.json,http://54.235.29.9/FacialAge/BNav_EC2/DepthDuration/v2_depth_duration_MTurk/v2_DepthDuration_HTML.html#424,424,1366,768,1366,768,8-29-2022,10-7-6,1,depth_duration_stimuli/000506_2014-06-08_23-21-00_260595134347_rgbf000070-resize_7/000506_2014-06-08_23-21-00_260595134347_rgbf000070-resize_7-target.png,1000,4.0585,6.0,5483,996,feet,jsons/v1_VE1000_randls_75.json,1134746,1429980,43,Man
1,885691,DepthScenes,duration_manipulation_targetAtFixation,jsons/v1_VE1000_randls_75.json,http://54.235.29.9/FacialAge/BNav_EC2/DepthDuration/v2_depth_duration_MTurk/v2_DepthDuration_HTML.html#424,424,1366,768,1366,768,8-29-2022,10-7-6,2,depth_duration_stimuli/003079_2014-06-15_15-18-20_094959634447_rgbf000152-resize_8/003079_2014-06-15_15-18-20_094959634447_rgbf000152-resize_8-target.png,1000,2.8775,5.0,7629,1000,feet,jsons/v1_VE1000_randls_75.json,1134746,1429980,43,Man
2,885691,DepthScenes,duration_manipulation_targetAtFixation,jsons/v1_VE1000_randls_75.json,http://54.235.29.9/FacialAge/BNav_EC2/DepthDuration/v2_depth_duration_MTurk/v2_DepthDuration_HTML.html#424,424,1366,768,1366,768,8-29-2022,10-7-6,3,depth_duration_stimuli/001570_2014-06-20_17-21-09_260595134347_rgbf000135-resize_4/001570_2014-06-20_17-21-09_260595134347_rgbf000135-resize_4-target.png,1000,4.467,7.0,6679,1004,feet,jsons/v1_VE1000_randls_75.json,1134746,1429980,43,Man
3,885691,DepthScenes,duration_manipulation_targetAtFixation,jsons/v1_VE1000_randls_75.json,http://54.235.29.9/FacialAge/BNav_EC2/DepthDuration/v2_depth_duration_MTurk/v2_DepthDuration_HTML.html#424,424,1366,768,1366,768,8-29-2022,10-7-6,4,depth_duration_stimuli/001392_2014-06-19_16-07-59_260595134347_rgbf000046-resize_1/001392_2014-06-19_16-07-59_260595134347_rgbf000046-resize_1-target.png,1000,4.135,7.5,8490,1010,feet,jsons/v1_VE1000_randls_75.json,1134746,1429980,43,Man
4,885691,DepthScenes,duration_manipulation_targetAtFixation,jsons/v1_VE1000_randls_75.json,http://54.235.29.9/FacialAge/BNav_EC2/DepthDuration/v2_depth_duration_MTurk/v2_DepthDuration_HTML.html#424,424,1366,768,1366,768,8-29-2022,10-7-6,5,depth_duration_stimuli/002784_2014-06-22_19-26-30_094959634447_rgbf000083-resize_3/002784_2014-06-22_19-26-30_094959634447_rgbf000083-resize_3-target.png,1000,1.8046666666667,1.5,6921,997,feet,jsons/v1_VE1000_randls_75.json,1134746,1429980,43,Man
5,885691,DepthScenes,duration_manipulation_targetAtFixation,jsons/v1_VE1000_randls_75.json,http://54.235.29.9/FacialAge/BNav_EC2/DepthDuration/v2_depth_duration_MTurk/v2_DepthDuration_HTML.html#424,424,1366,768,1366,768,8-29-2022,10-7-6,6,depth_duration_stimuli/001100_2014-06-15_17-46-26_260595134347_rgbf000225-resize_2/001100_2014-06-15_17-46-26_260595134347_rgbf000225-resize_2-target.png,1000,2.24,1.0,7317,1008,feet,jsons/v1_VE1000_randls_75.json,1134746,1429980,43,Man
6,885691,DepthScenes,duration_manipulation_targetAtFixation,jsons/v1_VE1000_randls_75.json,http://54.235.29.9/FacialAge/BNav_EC2/DepthDuration/v2_depth_duration_MTurk/v2_DepthDuration_HTML.html#424,424,1366,768,1366,768,8-29-2022,10-7-6,7,depth_duration_stimuli/000368_2014-06-09_15-53-01_260595134347_rgbf000155-resize_2/000368_2014-06-09_15-53-01_260595134347_rgbf000155-resize_2-target.png,1000,2.4859999999999998,3.0,7116,1006,feet,jsons/v1_VE1000_randls_75.json,1134746,1429980,43,Man
7,885691,DepthScenes,duration_manipulation_targetAtFixation,jsons/v1_VE1000_randls_75.json,http://54.235.29.9/FacialAge/BNav_EC2/DepthDuration/v2_depth_duration_MTurk/v2_DepthDuration_HTML.html#424,424,1366,768,1366,768,8-29-2022,10-7-6,8,depth_duration_stimuli/002678_2014-06-13_16-15-32_094959634447_rgbf000151-resize_6/002678_2014-06-13_16-15-32_094959634447_rgbf000151-resize_6-target.png,1000,2.1830000000000003,5.0,5477,998,feet,jsons/v1_VE1000_randls_75.json,1134746,1429980,43,Man
8,885691,DepthScenes,duration_manipulation_targetAtFixation,jsons/v1_VE1000_randls_75.json,http://54.235.29.9/FacialAge/BNav_EC2/DepthDuration/v2_depth_duration_MTurk/v2_DepthDuration_HTML.html#424,424,1366,768,1366,768,8-29-2022,10-7-6,9,depth_duration_stimuli/000486_2014-06-09_20-47-20_260595134347_rgbf000143-resize_2/000486_2014-06-09_20-47-20_260595134347_rgbf000143-resize_2-target.png,1000,4.8325,9.0,6653,1003,feet,jsons/v1_VE1000_randls_75.json,1134746,1429980,43,Man
9,885691,DepthScenes,duration_manipulation_targetAtFixation,jsons/v1_VE1000_randls_75.json,http://54.235.29.9/FacialAge/BNav_EC2/DepthDuration/v2_depth_duration_MTurk/v2_DepthDuration_HTML.html#424,424,1366,768,1366,768,8-29-2022,10-7-6,10,depth_duration_stimuli/003083_2014-06-15_15-21-03_094959634447_rgbf000063-resize_1/003083_2014-06-15_15-21-03_094959634447_rgbf000063-resize_1-target.png,1000,4.1405,8.0,6048,1000,feet,jsons/v1_VE1000_randls_75.json,1134746,1429980,43,Man
10,885691,DepthScenes,duration_manipulation_targetAtFixation,jsons/v1_VE1000_randls_75.json,http://54.235.29.9/FacialAge/BNav_EC2/DepthDuration/v2_depth_duration_MTurk/v2_DepthDuration_HTML.html#424,424,1366,768,1366,768,8-29-2022,10-7-6,11,depth_duration_stimuli/002663_2014-06-13_15-50-26_094959634447_rgbf000075-resize_1/002663_2014-06-13_15-50-26_094959634447_rgbf000075-resize_1-target.png,1000,4.7495,10.0,6177,1001,feet,jsons/v1_VE1000_randls_75.json,1134746,1429980,43,Man
11,885691,DepthScenes,duration_manipulation_targetAtFixation,jsons/v1_VE1000_randls_75.json,http://54.235.29.9/FacialAge/BNav_EC2/DepthDuration/v2_depth_duration_MTurk/v2_DepthDuration_HTML.html#424,424,1366,768,1366,768,8-29-2022,10-7-6,12,depth_duration_stimuli/000409_2014-06-04_19-23-33_260595134347_rgbf000067-resize_0/000409_2014-06-04_19-23-33_260595134347_rgbf000067-resize_0-target.png,1000,3.7335,5.0,5369,990,feet,jsons/v1_VE1000_randls_75.json,1134746,1429980,43,Man
12,885691,DepthScenes,duration_manipulation_targetAtFixation,jsons/v1_VE1000_randls_75.json,http://54.235.29.9/FacialAge/BNav_EC2/DepthDuration/v2_depth_duration_MTurk/v2_DepthDuration_HTML.html#424,424,1366,768,1366,768,8-29-2022,10-7-6,13,depth_duration_stimuli/000569_2014-06-09_22-51-47_260595134347_rgbf000141-resize_3/000569_2014-06-09_22-51-47_260595134347_rgbf000141-resize-original.jpg,1000,4.512,0.0,5387,1012,feet,jsons/v1_VE1000_randls_75.json,1134746,1429980,43,Man
13,885691,DepthScenes,duration_manipulation_targetAtFixation,jsons/v1_VE1000_randls_75.json,http://54.235.29.9/FacialAge/BNav_EC2/DepthDuration/v2_depth_duration_MTurk/v2_DepthDuration_HTML.html#424,424,1366,768,1366,768,8-29-2022,10-7-6,14,depth_duration_stimuli/002964_2014-06-08_17-46-11_094959634447_rgbf000091-resize_4/002964_2014-06-08_17-46-11_094959634447_rgbf000091-resize_4-target.png,1000,1.6909999999999998,1.0,4994,1005,feet,jsons/v1_VE1000_randls_75.json,1134746,1429980,43,Man
14,885691,DepthScenes,duration_manipulation_targetAtFixation,jsons/v1_VE1000_randls_75.json,http://54.235.29.9/FacialAge/BNav_EC2/DepthDuration/v2_depth_duration_MTurk/v2_DepthDuration_HTML.html#424,424,1366,768,1366,768,8-29-2022,10-7-6,15,depth_duration_stimuli/002136_2014-06-25_21-18-03_260595134347_rgbf000109-resize_3/002136_2014-06-25_21-18-03_260595134347_rgbf000109-resize_3-target.png,1000,1.9569999999999999,2.0,5464,1006,feet,jsons/v1_VE1000_randls_75.json,1134746,1429980,43,Man
15,885691,DepthScenes,duration_manipulation_targetAtFixation,jsons/v1_VE1000_randls_75.json,http://54.235.29.9/FacialAge/BNav_EC2/DepthDuration/v2_depth_duration_MTurk/v2_DepthDuration_HTML.html#424,424,1366,768,1366,768,8-29-2022,10-7-6,16,depth_duration_stimuli/003492_2014-05-21_15-50-55_094959634447_rgbf000828-resize_1/003492_2014-05-21_15-50-55_094959634447_rgbf000828-resize_1-target.png,1000,4.06875,9.0,9986,1011,feet,jsons/v1_VE1000_randls_75.json,1134746,1429980,43,Man
16,885691,DepthScenes,duration_manipulation_targetAtFixation,jsons/v1_VE1000_randls_75.json,http://54.235.29.9/FacialAge/BNav_EC2/DepthDuration/v2_depth_duration_MTurk/v2_DepthDuration_HTML.html#424,424,1366,768,1366,768,8-29-2022,10-7-6,17,depth_duration_stimuli/002568_2014-06-24_13-59-21_094959634447_rgbf000062-resize_4/002568_2014-06-24_13-59-21_094959634447_rgbf000062-resize_4-target.png,1000,3.015,5.5,8224,1001,feet,jsons/v1_VE1000_randls_75.json,1134746,1429980,43,Man
17,885691,DepthScenes,duration_manipulation_targetAtFixation,jsons/v1_VE1000_randls_75.json,http://54.235.29.9/FacialAge/BNav_EC2/DepthDuration/v2_depth_duration_MTurk/v2_DepthDuration_HTML.html#424,424,1366,768,1366,768,8-29-2022,10-7-6,18,depth_duration_stimuli/001029_2014-06-08_13-17-57_260595134347_rgbf000065-resize_1/001029_2014-06-08_13-17-57_260595134347_rgbf000065-resize_1-target.png,1000,3.0835,4.0,5442,994,feet,jsons/v1_VE1000_randls_75.json,1134746,1429980,43,Man
18,885691,DepthScenes,duration_manipulation_targetAtFixation,jsons/v1_VE1000_randls_75.json,http://54.235.29.9/FacialAge/BNav_EC2/DepthDuration/v2_depth_duration_MTurk/v2_DepthDuration_HTML.html#424,424,1366,768,1366,768,8-29-2022,10-7-6,19,depth_duration_stimuli/000677_2014-06-08_23-10-32_260595134347_rgbf000158-resize_6/000677_2014-06-08_23-10-32_260595134347_rgbf000158-resize_6-target.png,1000,3.556,6.0,6266,1020,feet,jsons/v1_VE1000_randls_75.json,1134746,1429980,43,Man
19,885691,DepthScenes,duration_manipulation_targetAtFixation,jsons/v1_VE1000_randls_75.json,http://54.235.29.9/FacialAge/BNav_EC2/DepthDuration/v2_depth_duration_MTurk/v2_DepthDuration_HTML.html#424,424,1366,768,1366,768,8-29-2022,10-7-6,20,depth_duration_stimuli/002988_2014-06-15_12-24-20_094959634447_rgbf000150-resize_1/002988_2014-06-15_12-24-20_094959634447_rgbf000150-resize_1-target.png,1000,4.7669999999999995,8.5,7953,1000,feet,jsons/v1_VE1000_randls_75.json,1134746,1429980,43,Man
20,885691,DepthScenes,duration_manipulation_targetAtFixation,jsons/v1_VE1000_randls_75.json,http://54.235.29.9/FacialAge/BNav_EC2/DepthDuration/v2_depth_duration_MTurk/v2_DepthDuration_HTML.html#424,424,1366,768,1366,768,8-29-2022,10-7-6,21,depth_duration_stimuli/001052_2014-06-08_18-24-54_260595134347_rgbf000130-resize_1/001052_2014-06-08_18-24-54_260595134347_rgbf000130-resize_1-target.png,1000,4.1045,9.0,6431,1000,feet,jsons/v1_VE1000_randls_75.json,1134746,1429980,43,Man
21,885691,DepthScenes,duration_manipulation_targetAtFixation,jsons/v1_VE1000_randls_75.json,http://54.235.29.9/FacialAge/BNav_EC2/DepthDuration/v2_depth_duration_MTurk/v2_DepthDuration_HTML.html#424,424,1366,768,1366,768,8-29-2022,10-7-6,22,depth_duration_stimuli/001110_2014-06-15_17-25-28_260595134347_rgbf000150-resize_1/001110_2014-06-15_17-25-28_260595134347_rgbf000150-resize_1-target.png,1000,1.7115,2.5,6266,1009,feet,jsons/v1_VE1000_randls_75.json,1134746,1429980,43,Man
22,885691,DepthScenes,duration_manipulation_targetAtFixation,jsons/v1_VE1000_randls_75.json,http://54.235.29.9/FacialAge/BNav_EC2/DepthDuration/v2_depth_duration_MTurk/v2_DepthDuration_HTML.html#424,424,1366,768,1366,768,8-29-2022,10-7-6,23,depth_duration_stimuli/000927_2014-06-09_16-32-30_260595134347_rgbf000123-resize_3/000927_2014-06-09_16-32-30_260595134347_rgbf000123-resize_3-target.png,1000,2.6785,3.5,10590,999,feet,jsons/v1_VE1000_randls_75.json,1134746,1429980,43,Man
23,885691,DepthScenes,duration_manipulation_targetAtFixation,jsons/v1_VE1000_randls_75.json,http://54.235.29.9/FacialAge/BNav_EC2/DepthDuration/v2_depth_duration_MTurk/v2_DepthDuration_HTML.html#424,424,1366,768,1366,768,8-29-2022,10-7-6,24,depth_duration_stimuli/002272_2014-06-28_18-53-56_260595134347_rgbf000067-resize_2/002272_2014-06-28_18-53-56_260595134347_rgbf000067-resize_2-target.png,1000,1.138,1.0,4934,986,feet,jsons/v1_VE1000_randls_75.json,1134746,1429980,43,Man
24,885691,DepthScenes,duration_manipulation_targetAtFixation,jsons/v1_VE1000_randls_75.json,http://54.235.29.9/FacialAge/BNav_EC2/DepthDuration/v2_depth_duration_MTurk/v2_DepthDuration_HTML.html#424,424,1366,768,1366,768,8-29-2022,10-7-6,25,depth_duration_stimuli/001571_2014-06-20_17-21-32_260595134347_rgbf000089-resize_1/001571_2014-06-20_17-21-32_260595134347_rgbf000089-resize_1-target.png,1000,1.86,2.0,6086,1002,feet,jsons/v1_VE1000_randls_75.json,1134746,1429980,43,Man
25,885691,DepthScenes,duration_manipulation_targetAtFixation,jsons/v1_VE1000_randls_75.json,http://54.235.29.9/FacialAge/BNav_EC2/DepthDuration/v2_depth_duration_MTurk/v2_DepthDuration_HTML.html#424,424,1366,768,1366,768,8-29-2022,10-7-6,26,depth_duration_stimuli/002630_2014-06-24_14-47-50_094959634447_rgbf000055-resize_1/002630_2014-06-24_14-47-50_094959634447_rgbf000055-resize_1-target.png,1000,3.0095,6.0,5698,1014,feet,jsons/v1_VE1000_randls_75.json,1134746,1429980,43,Man
26,885691,DepthScenes,duration_manipulation_targetAtFixation,jsons/v1_VE1000_randls_75.json,http://54.235.29.9/FacialAge/BNav_EC2/DepthDuration/v2_depth_duration_MTurk/v2_DepthDuration_HTML.html#424,424,1366,768,1366,768,8-29-2022,10-7-6,27,depth_duration_stimuli/002758_2014-06-22_19-11-20_094959634447_rgbf000128-resize_1/002758_2014-06-22_19-11-20_094959634447_rgbf000128-resize_1-target.png,1000,2.555,3.5,6218,998,feet,jsons/v1_VE1000_randls_75.json,1134746,1429980,43,Man
27,885691,DepthScenes,duration_manipulation_targetAtFixation,jsons/v1_VE1000_randls_75.json,http://54.235.29.9/FacialAge/BNav_EC2/DepthDuration/v2_depth_duration_MTurk/v2_DepthDuration_HTML.html#424,424,1366,768,1366,768,8-29-2022,10-7-6,28,depth_duration_stimuli/000469_2014-06-09_19-42-10_260595134347_rgbf000081-resize_1/000469_2014-06-09_19-42-10_260595134347_rgbf000081-resize_1-target.png,1000,1.652,1.0,4841,994,feet,jsons/v1_VE1000_randls_75.json,1134746,1429980,43,Man
28,885691,DepthScenes,duration_manipulation_targetAtFixation,jsons/v1_VE1000_randls_75.json,http://54.235.29.9/FacialAge/BNav_EC2/DepthDuration/v2_depth_duration_MTurk/v2_DepthDuration_HTML.html#424,424,1366,768,1366,768,8-29-2022,10-7-6,29,depth_duration_stimuli/000483_2014-06-09_20-41-45_260595134347_rgbf000116-resize_4/000483_2014-06-09_20-41-45_260595134347_rgbf000116-resize_4-target.png,1000,1.337,1.0,7254,1009,feet,jsons/v1_VE1000_randls_75.json,1134746,1429980,43,Man
29,885691,DepthScenes,duration_manipulation_targetAtFixation,jsons/v1_VE1000_randls_75.json,http://54.235.29.9/FacialAge/BNav_EC2/DepthDuration/v2_depth_duration_MTurk/v2_DepthDuration_HTML.html#424,424,1366,768,1366,768,8-29-2022,10-7-6,30,depth_duration_stimuli/000375_2014-06-08_11-17-29_260595134347_rgbf000133-resize_2/000375_2014-06-08_11-17-29_260595134347_rgbf000133-resize-original.jpg,1000,4.718,0.0,4458,1002,feet,jsons/v1_VE1000_randls_75.json,1134746,1429980,43,Man
30,885691,DepthScenes,duration_manipulation_targetAtFixation,jsons/v1_VE1000_randls_75.json,http://54.235.29.9/FacialAge/BNav_EC2/DepthDuration/v2_depth_duration_MTurk/v2_DepthDuration_HTML.html#424,424,1366,768,1366,768,8-29-2022,10-7-6,31,depth_duration_stimuli/002989_2014-06-15_12-25-03_094959634447_rgbf000150-resize_3/002989_2014-06-15_12-25-03_094959634447_rgbf000150-resize_3-target.png,1000,4.1975,7.5,6850,996,feet,jsons/v1_VE1000_randls_75.json,1134746,1429980,43,Man
31,885691,DepthScenes,duration_manipulation_targetAtFixation,jsons/v1_VE1000_randls_75.json,http://54.235.29.9/FacialAge/BNav_EC2/DepthDuration/v2_depth_duration_MTurk/v2_DepthDuration_HTML.html#424,424,1366,768,1366,768,8-29-2022,10-7-6,32,depth_duration_stimuli/000866_2014-06-09_20-45-42_260595134347_rgbf000139-resize_1/000866_2014-06-09_20-45-42_260595134347_rgbf000139-resize_1-target.png,1000,3.2155,3.0,5698,1002,feet,jsons/v1_VE1000_randls_75.json,1134746,1429980,43,Man
32,885691,DepthScenes,duration_manipulation_targetAtFixation,jsons/v1_VE1000_randls_75.json,http://54.235.29.9/FacialAge/BNav_EC2/DepthDuration/v2_depth_duration_MTurk/v2_DepthDuration_HTML.html#424,424,1366,768,1366,768,8-29-2022,10-7-6,33,depth_duration_stimuli/000736_2014-06-08_18-24-15_260595134347_rgbf000206-resize_3/000736_2014-06-08_18-24-15_260595134347_rgbf000206-resize_3-target.png,1000,3.515,5.3,7174,991,feet,jsons/v1_VE1000_randls_75.json,1134746,1429980,43,Man
33,885691,DepthScenes,duration_manipulation_targetAtFixation,jsons/v1_VE1000_randls_75.json,http://54.235.29.9/FacialAge/BNav_EC2/DepthDuration/v2_depth_duration_MTurk/v2_DepthDuration_HTML.html#424,424,1366,768,1366,768,8-29-2022,10-7-6,34,depth_duration_stimuli/000137_2014-05-20_17-04-49_260595134347_rgbf000120-resize_1/000137_2014-05-20_17-04-49_260595134347_rgbf000120-resize_1-target.png,1000,3.786,6.0,7539,995,feet,jsons/v1_VE1000_randls_75.json,1134746,1429980,43,Man
34,885691,DepthScenes,duration_manipulation_targetAtFixation,jsons/v1_VE1000_randls_75.json,http://54.235.29.9/FacialAge/BNav_EC2/DepthDuration/v2_depth_duration_MTurk/v2_DepthDuration_HTML.html#424,424,1366,768,1366,768,8-29-2022,10-7-6,35,depth_duration_stimuli/002905_2014-06-03_18-04-43_094959634447_rgbf000151-resize_2/002905_2014-06-03_18-04-43_094959634447_rgbf000151-resize_2-target.png,1000,2.0295,2.5,6340,988,feet,jsons/v1_VE1000_randls_75.json,1134746,1429980,43,Man
35,885691,DepthScenes,duration_manipulation_targetAtFixation,jsons/v1_VE1000_randls_75.json,http://54.235.29.9/FacialAge/BNav_EC2/DepthDuration/v2_depth_duration_MTurk/v2_DepthDuration_HTML.html#424,424,1366,768,1366,768,8-29-2022,10-7-6,36,depth_duration_stimuli/003423_2014-05-21_10-23-26_094959634447_rgbf002665-resize_2/003423_2014-05-21_10-23-26_094959634447_rgbf002665-resize_2-target.png,1000,3.2575,7.5,7510,988,feet,jsons/v1_VE1000_randls_75.json,1134746,1429980,43,Man
36,885691,DepthScenes,duration_manipulation_targetAtFixation,jsons/v1_VE1000_randls_75.json,http://54.235.29.9/FacialAge/BNav_EC2/DepthDuration/v2_depth_duration_MTurk/v2_DepthDuration_HTML.html#424,424,1366,768,1366,768,8-29-2022,10-7-6,37,depth_duration_stimuli/001164_2014-06-17_15-35-46_260595134347_rgbf000085-resize_3/001164_2014-06-17_15-35-46_260595134347_rgbf000085-resize_3-target.png,1000,2.354,3.0,7129,992,feet,jsons/v1_VE1000_randls_75.json,1134746,1429980,43,Man
37,885691,DepthScenes,duration_manipulation_targetAtFixation,jsons/v1_VE1000_randls_75.json,http://54.235.29.9/FacialAge/BNav_EC2/DepthDuration/v2_depth_duration_MTurk/v2_DepthDuration_HTML.html#424,424,1366,768,1366,768,8-29-2022,10-7-6,38,depth_duration_stimuli/001136_2014-06-17_15-19-41_260595134347_rgbf000076-resize_3/001136_2014-06-17_15-19-41_260595134347_rgbf000076-resize_3-target.png,1000,1.8655,4.0,4815,981,feet,jsons/v1_VE1000_randls_75.json,1134746,1429980,43,Man
38,885691,DepthScenes,duration_manipulation_targetAtFixation,jsons/v1_VE1000_randls_75.json,http://54.235.29.9/FacialAge/BNav_EC2/DepthDuration/v2_depth_duration_MTurk/v2_DepthDuration_HTML.html#424,424,1366,768,1366,768,8-29-2022,10-7-6,39,depth_duration_stimuli/000470_2014-06-09_19-42-40_260595134347_rgbf000094-resize_1/000470_2014-06-09_19-42-40_260595134347_rgbf000094-resize_1-target.png,1000,1.831,2.0,5144,1000,feet,jsons/v1_VE1000_randls_75.json,1134746,1429980,43,Man
39,885691,DepthScenes,duration_manipulation_targetAtFixation,jsons/v1_VE1000_randls_75.json,http://54.235.29.9/FacialAge/BNav_EC2/DepthDuration/v2_depth_duration_MTurk/v2_DepthDuration_HTML.html#424,424,1366,768,1366,768,8-29-2022,10-7-6,40,depth_duration_stimuli/000109_2014-05-14_23-41-52_260595134347_rgbf000035-resize_9/000109_2014-05-14_23-41-52_260595134347_rgbf000035-resize_9-target.png,1000,1.3545,1.5,6119,1008,feet,jsons/v1_VE1000_randls_75.json,1134746,1429980,43,Man
40,885691,DepthScenes,duration_manipulation_targetAtFixation,jsons/v1_VE1000_randls_75.json,http://54.235.29.9/FacialAge/BNav_EC2/DepthDuration/v2_depth_duration_MTurk/v2_DepthDuration_HTML.html#424,424,1366,768,1366,768,8-29-2022,10-7-6,41,depth_duration_stimuli/002279_2014-06-28_18-55-32_260595134347_rgbf000040-resize_5/002279_2014-06-28_18-55-32_260595134347_rgbf000040-resize_5-target.png,1000,1.5043333333333,2.0,7264,986,feet,jsons/v1_VE1000_randls_75.json,1134746,1429980,43,Man
41,885691,DepthScenes,duration_manipulation_targetAtFixation,jsons/v1_VE1000_randls_75.json,http://54.235.29.9/FacialAge/BNav_EC2/DepthDuration/v2_depth_duration_MTurk/v2_DepthDuration_HTML.html#424,424,1366,768,1366,768,8-29-2022,10-7-6,42,depth_duration_stimuli/000635_2014-06-08_16-38-42_260595134347_rgbf000106-resize_1/000635_2014-06-08_16-38-42_260595134347_rgbf000106-resize_1-target.png,1000,2.074,4.0,5147,1013,feet,jsons/v1_VE1000_randls_75.json,1134746,1429980,43,Man
42,885691,DepthScenes,duration_manipulation_targetAtFixation,jsons/v1_VE1000_randls_75.json,http://54.235.29.9/FacialAge/BNav_EC2/DepthDuration/v2_depth_duration_MTurk/v2_DepthDuration_HTML.html#424,424,1366,768,1366,768,8-29-2022,10-7-6,43,depth_duration_stimuli/000810_2014-06-08_17-20-01_260595134347_rgbf000105-resize_0/000810_2014-06-08_17-20-01_260595134347_rgbf000105-resize_0-target.png,1000,1.4865,4.5,8755,995,feet,jsons/v1_VE1000_randls_75.json,1134746,1429980,43,Man
43,885691,DepthScenes,duration_manipulation_targetAtFixation,jsons/v1_VE1000_randls_75.json,http://54.235.29.9/FacialAge/BNav_EC2/DepthDuration/v2_depth_duration_MTurk/v2_DepthDuration_HTML.html#424,424,1366,768,1366,768,8-29-2022,10-7-6,44,depth_duration_stimuli/001214_2014-06-17_16-13-55_260595134347_rgbf000111-resize_0/001214_2014-06-17_16-13-55_260595134347_rgbf000111-resize_0-target.png,1000,2.6505,3.5,10220,999,feet,jsons/v1_VE1000_randls_75.json,1134746,1429980,43,Man
44,885691,DepthScenes,duration_manipulation_targetAtFixation,jsons/v1_VE1000_randls_75.json,http://54.235.29.9/FacialAge/BNav_EC2/DepthDuration/v2_depth_duration_MTurk/v2_DepthDuration_HTML.html#424,424,1366,768,1366,768,8-29-2022,10-7-6,45,depth_duration_stimuli/000787_2014-06-08_22-33-53_260595134347_rgbf000175-resize_1/000787_2014-06-08_22-33-53_260595134347_rgbf000175-resize-original.jpg,1000,4.784,0.0,5809,998,feet,jsons/v1_VE1000_randls_75.json,1134746,1429980,43,Man
45,885691,DepthScenes,duration_manipulation_targetAtFixation,jsons/v1_VE1000_randls_75.json,http://54.235.29.9/FacialAge/BNav_EC2/DepthDuration/v2_depth_duration_MTurk/v2_DepthDuration_HTML.html#424,424,1366,768,1366,768,8-29-2022,10-7-6,46,depth_duration_stimuli/001158_2014-06-17_15-32-16_260595134347_rgbf000138-resize_2/001158_2014-06-17_15-32-16_260595134347_rgbf000138-resize_2-target.png,1000,4.5315,6.0,16096,1000,feet,jsons/v1_VE1000_randls_75.json,1134746,1429980,43,Man
46,885691,DepthScenes,duration_manipulation_targetAtFixation,jsons/v1_VE1000_randls_75.json,http://54.235.29.9/FacialAge/BNav_EC2/DepthDuration/v2_depth_duration_MTurk/v2_DepthDuration_HTML.html#424,424,1366,768,1366,768,8-29-2022,10-7-6,47,depth_duration_stimuli/000556_2014-06-09_22-42-56_260595134347_rgbf000214-resize_1/000556_2014-06-09_22-42-56_260595134347_rgbf000214-resize_1-target.png,1000,4.8415,6.0,6521,1005,feet,jsons/v1_VE1000_randls_75.json,1134746,1429980,43,Man
47,885691,DepthScenes,duration_manipulation_targetAtFixation,jsons/v1_VE1000_randls_75.json,http://54.235.29.9/FacialAge/BNav_EC2/DepthDuration/v2_depth_duration_MTurk/v2_DepthDuration_HTML.html#424,424,1366,768,1366,768,8-29-2022,10-7-6,48,depth_duration_stimuli/001417_2014-06-19_16-25-36_260595134347_rgbf000115-resize_5/001417_2014-06-19_16-25-36_260595134347_rgbf000115-resize_5-target.png,1000,4.6255,8.0,6636,987,feet,jsons/v1_VE1000_randls_75.json,1134746,1429980,43,Man
48,885691,DepthScenes,duration_manipulation_targetAtFixation,jsons/v1_VE1000_randls_75.json,http://54.235.29.9/FacialAge/BNav_EC2/DepthDuration/v2_depth_duration_MTurk/v2_DepthDuration_HTML.html#424,424,1366,768,1366,768,8-29-2022,10-7-6,49,depth_duration_stimuli/003081_2014-06-15_15-19-16_094959634447_rgbf000150-resize_1/003081_2014-06-15_15-19-16_094959634447_rgbf000150-resize_1-target.png,1000,3.9125,4.5,11065,988,feet,jsons/v1_VE1000_randls_75.json,1134746,1429980,43,Man
49,885691,DepthScenes,duration_manipulation_targetAtFixation,jsons/v1_VE1000_randls_75.json,http://54.235.29.9/FacialAge/BNav_EC2/DepthDuration/v2_depth_duration_MTurk/v2_DepthDuration_HTML.html#424,424,1366,768,1366,768,8-29-2022,10-7-6,50,depth_duration_stimuli/002748_2014-06-22_19-07-22_094959634447_rgbf000078-resize_1/002748_2014-06-22_19-07-22_094959634447_rgbf000078-resize_1-target.png,1000,4.6705,9.0,6028,992,feet,jsons/v1_VE1000_randls_75.json,1134746,1429980,43,Man
50,885691,DepthScenes,duration_manipulation_targetAtFixation,jsons/v1_VE1000_randls_75.json,http://54.235.29.9/FacialAge/BNav_EC2/DepthDuration/v2_depth_duration_MTurk/v2_DepthDuration_HTML.html#424,424,1366,768,1366,768,8-29-2022,10-7-6,51,depth_duration_stimuli/002995_2014-06-15_12-31-26_094959634447_rgbf000150-resize_1/002995_2014-06-15_12-31-26_094959634447_rgbf000150-resize_1-target.png,1000,3.8360000000000003,5.5,6207,990,feet,jsons/v1_VE1000_randls_75.json,1134746,1429980,43,Man
51,885691,DepthScenes,duration_manipulation_targetAtFixation,jsons/v1_VE1000_randls_75.json,http://54.235.29.9/FacialAge/BNav_EC2/DepthDuration/v2_depth_duration_MTurk/v2_DepthDuration_HTML.html#424,424,1366,768,1366,768,8-29-2022,10-7-6,52,depth_duration_stimuli/002375_2014-06-28_20-13-44_260595134347_rgbf000032-resize_1/002375_2014-06-28_20-13-44_260595134347_rgbf000032-resize_1-target.png,1000,4.0175,4.5,6074,1004,feet,jsons/v1_VE1000_randls_75.json,1134746,1429980,43,Man
52,885691,DepthScenes,duration_manipulation_targetAtFixation,jsons/v1_VE1000_randls_75.json,http://54.235.29.9/FacialAge/BNav_EC2/DepthDuration/v2_depth_duration_MTurk/v2_DepthDuration_HTML.html#424,424,1366,768,1366,768,8-29-2022,10-7-6,53,depth_duration_stimuli/002657_2014-06-13_15-29-54_094959634447_rgbf000150-resize_1/002657_2014-06-13_15-29-54_094959634447_rgbf000150-resize_1-target.png,1000,4.919,5.5,7395,1004,feet,jsons/v1_VE1000_randls_75.json,1134746,1429980,43,Man
53,885691,DepthScenes,duration_manipulation_targetAtFixation,jsons/v1_VE1000_randls_75.json,http://54.235.29.9/FacialAge/BNav_EC2/DepthDuration/v2_depth_duration_MTurk/v2_DepthDuration_HTML.html#424,424,1366,768,1366,768,8-29-2022,10-7-6,54,depth_duration_stimuli/001011_2014-06-08_23-18-54_260595134347_rgbf000044-resize_4/001011_2014-06-08_23-18-54_260595134347_rgbf000044-resize_4-target.png,1000,2.4730000000000003,4.0,4811,1003,feet,jsons/v1_VE1000_randls_75.json,1134746,1429980,43,Man
54,885691,DepthScenes,duration_manipulation_targetAtFixation,jsons/v1_VE1000_randls_75.json,http://54.235.29.9/FacialAge/BNav_EC2/DepthDuration/v2_depth_duration_MTurk/v2_DepthDuration_HTML.html#424,424,1366,768,1366,768,8-29-2022,10-7-6,55,depth_duration_stimuli/002875_2014-06-01_15-19-00_094959634447_rgbf000151-resize_1/002875_2014-06-01_15-19-00_094959634447_rgbf000151-resize_1-target.png,1000,1.9675,3.0,7896,994,feet,jsons/v1_VE1000_randls_75.json,1134746,1429980,43,Man
55,885691,DepthScenes,duration_manipulation_targetAtFixation,jsons/v1_VE1000_randls_75.json,http://54.235.29.9/FacialAge/BNav_EC2/DepthDuration/v2_depth_duration_MTurk/v2_DepthDuration_HTML.html#424,424,1366,768,1366,768,8-29-2022,10-7-6,56,depth_duration_stimuli/002549_2014-06-24_13-41-39_094959634447_rgbf000022-resize_3/002549_2014-06-24_13-41-39_094959634447_rgbf000022-resize_3-target.png,1000,1.476,1.5,6669,982,feet,jsons/v1_VE1000_randls_75.json,1134746,1429980,43,Man
56,885691,DepthScenes,duration_manipulation_targetAtFixation,jsons/v1_VE1000_randls_75.json,http://54.235.29.9/FacialAge/BNav_EC2/DepthDuration/v2_depth_duration_MTurk/v2_DepthDuration_HTML.html#424,424,1366,768,1366,768,8-29-2022,10-7-6,57,depth_duration_stimuli/002750_2014-06-22_19-08-03_094959634447_rgbf000094-resize_4/002750_2014-06-22_19-08-03_094959634447_rgbf000094-resize_4-target.png,1000,2.354,4.0,7843,1003,feet,jsons/v1_VE1000_randls_75.json,1134746,1429980,43,Man
57,885691,DepthScenes,duration_manipulation_targetAtFixation,jsons/v1_VE1000_randls_75.json,http://54.235.29.9/FacialAge/BNav_EC2/DepthDuration/v2_depth_duration_MTurk/v2_DepthDuration_HTML.html#424,424,1366,768,1366,768,8-29-2022,10-7-6,58,depth_duration_stimuli/002725_2014-06-22_11-47-51_094959634447_rgbf000070-resize_1/002725_2014-06-22_11-47-51_094959634447_rgbf000070-resize_1-target.png,1000,2.195,2.5,6096,1011,feet,jsons/v1_VE1000_randls_75.json,1134746,1429980,43,Man
58,885691,DepthScenes,duration_manipulation_targetAtFixation,jsons/v1_VE1000_randls_75.json,http://54.235.29.9/FacialAge/BNav_EC2/DepthDuration/v2_depth_duration_MTurk/v2_DepthDuration_HTML.html#424,424,1366,768,1366,768,8-29-2022,10-7-6,59,depth_duration_stimuli/002344_2014-06-28_20-06-29_260595134347_rgbf000030-resize_1/002344_2014-06-28_20-06-29_260595134347_rgbf000030-resize_1-target.png,1000,1.5795,1.0,4795,992,feet,jsons/v1_VE1000_randls_75.json,1134746,1429980,43,Man
59,885691,DepthScenes,duration_manipulation_targetAtFixation,jsons/v1_VE1000_randls_75.json,http://54.235.29.9/FacialAge/BNav_EC2/DepthDuration/v2_depth_duration_MTurk/v2_DepthDuration_HTML.html#424,424,1366,768,1366,768,8-29-2022,10-7-6,60,depth_duration_stimuli/001133_2014-06-17_14-49-16_260595134347_rgbf000100-resize_0/001133_2014-06-17_14-49-16_260595134347_rgbf000100-resize_0-target.png,1000,4.2115,7.0,8262,1004,feet,jsons/v1_VE1000_randls_75.json,1134746,1429980,43,Man
60,885691,DepthScenes,duration_manipulation_targetAtFixation,jsons/v1_VE1000_randls_75.json,http://54.235.29.9/FacialAge/BNav_EC2/DepthDuration/v2_depth_duration_MTurk/v2_DepthDuration_HTML.html#424,424,1366,768,1366,768,8-29-2022,10-7-6,61,depth_duration_stimuli/001132_2014-06-17_14-48-54_260595134347_rgbf000100-resize_2/001132_2014-06-17_14-48-54_260595134347_rgbf000100-resize_2-target.png,1000,3.753,5.5,6703,1008,feet,jsons/v1_VE1000_randls_75.json,1134746,1429980,43,Man
61,885691,DepthScenes,duration_manipulation_targetAtFixation,jsons/v1_VE1000_randls_75.json,http://54.235.29.9/FacialAge/BNav_EC2/DepthDuration/v2_depth_duration_MTurk/v2_DepthDuration_HTML.html#424,424,1366,768,1366,768,8-29-2022,10-7-6,62,depth_duration_stimuli/002600_2014-06-24_14-27-04_094959634447_rgbf000074-resize_2/002600_2014-06-24_14-27-04_094959634447_rgbf000074-resize_2-target.png,1000,2.7575,3.0,4679,992,feet,jsons/v1_VE1000_randls_75.json,1134746,1429980,43,Man
62,885691,DepthScenes,duration_manipulation_targetAtFixation,jsons/v1_VE1000_randls_75.json,http://54.235.29.9/FacialAge/BNav_EC2/DepthDuration/v2_depth_duration_MTurk/v2_DepthDuration_HTML.html#424,424,1366,768,1366,768,8-29-2022,10-7-6,63,depth_duration_stimuli/003228_2014-05-14_13-42-35_094959634447_rgbf000101-resize_1/003228_2014-05-14_13-42-35_094959634447_rgbf000101-resize_1-target.png,1000,1.9680000000000002,2.0,4647,996,feet,jsons/v1_VE1000_randls_75.json,1134746,1429980,43,Man
63,885691,DepthScenes,duration_manipulation_targetAtFixation,jsons/v1_VE1000_randls_75.json,http://54.235.29.9/FacialAge/BNav_EC2/DepthDuration/v2_depth_duration_MTurk/v2_DepthDuration_HTML.html#424,424,1366,768,1366,768,8-29-2022,10-7-6,64,depth_duration_stimuli/001150_2014-06-17_15-27-34_260595134347_rgbf000108-resize_2/001150_2014-06-17_15-27-34_260595134347_rgbf000108-resize_2-target.png,1000,4.0325,5.5,9606,995,feet,jsons/v1_VE1000_randls_75.json,1134746,1429980,43,Man
64,885691,DepthScenes,duration_manipulation_targetAtFixation,jsons/v1_VE1000_randls_75.json,http://54.235.29.9/FacialAge/BNav_EC2/DepthDuration/v2_depth_duration_MTurk/v2_DepthDuration_HTML.html#424,424,1366,768,1366,768,8-29-2022,10-7-6,65,depth_duration_stimuli/000665_2014-06-09_20-42-35_260595134347_rgbf000110-resize_1/000665_2014-06-09_20-42-35_260595134347_rgbf000110-resize_1-target.png,1000,3.057,3.5,6729,1001,feet,jsons/v1_VE1000_randls_75.json,1134746,1429980,43,Man
65,885691,DepthScenes,duration_manipulation_targetAtFixation,jsons/v1_VE1000_randls_75.json,http://54.235.29.9/FacialAge/BNav_EC2/DepthDuration/v2_depth_duration_MTurk/v2_DepthDuration_HTML.html#424,424,1366,768,1366,768,8-29-2022,10-7-6,66,depth_duration_stimuli/001222_2014-06-17_16-24-06_260595134347_rgbf000073-resize_0/001222_2014-06-17_16-24-06_260595134347_rgbf000073-resize-original.jpg,1000,1.4385,0.0,4755,1007,feet,jsons/v1_VE1000_randls_75.json,1134746,1429980,43,Man
66,885691,DepthScenes,duration_manipulation_targetAtFixation,jsons/v1_VE1000_randls_75.json,http://54.235.29.9/FacialAge/BNav_EC2/DepthDuration/v2_depth_duration_MTurk/v2_DepthDuration_HTML.html#424,424,1366,768,1366,768,8-29-2022,10-7-6,67,depth_duration_stimuli/001056_2014-06-08_18-46-44_260595134347_rgbf000068-resize_0/001056_2014-06-08_18-46-44_260595134347_rgbf000068-resize_0-target.png,1000,2.6625,5.5,9356,987,feet,jsons/v1_VE1000_randls_75.json,1134746,1429980,43,Man
67,885691,DepthScenes,duration_manipulation_targetAtFixation,jsons/v1_VE1000_randls_75.json,http://54.235.29.9/FacialAge/BNav_EC2/DepthDuration/v2_depth_duration_MTurk/v2_DepthDuration_HTML.html#424,424,1366,768,1366,768,8-29-2022,10-7-6,68,depth_duration_stimuli/002199_2014-06-28_18-33-56_260595134347_rgbf000074-resize_0/002199_2014-06-28_18-33-56_260595134347_rgbf000074-resize_0-target.png,1000,1.996,1.5,6041,1003,feet,jsons/v1_VE1000_randls_75.json,1134746,1429980,43,Man
68,885691,DepthScenes,duration_manipulation_targetAtFixation,jsons/v1_VE1000_randls_75.json,http://54.235.29.9/FacialAge/BNav_EC2/DepthDuration/v2_depth_duration_MTurk/v2_DepthDuration_HTML.html#424,424,1366,768,1366,768,8-29-2022,10-7-6,69,depth_duration_stimuli/003534_2014-05-22_15-06-10_094959634447_rgbf000102-resize_4/003534_2014-05-22_15-06-10_094959634447_rgbf000102-resize_4-target.png,1000,1.426,1.0,4961,993,feet,jsons/v1_VE1000_randls_75.json,1134746,1429980,43,Man
69,885691,DepthScenes,duration_manipulation_targetAtFixation,jsons/v1_VE1000_randls_75.json,http://54.235.29.9/FacialAge/BNav_EC2/DepthDuration/v2_depth_duration_MTurk/v2_DepthDuration_HTML.html#424,424,1366,768,1366,768,8-29-2022,10-7-6,70,depth_duration_stimuli/002637_2014-06-24_14-51-13_094959634447_rgbf000066-resize_4/002637_2014-06-24_14-51-13_094959634447_rgbf000066-resize_4-target.png,1000,1.9955,2.5,6276,988,feet,jsons/v1_VE1000_randls_75.json,1134746,1429980,43,Man
70,885691,DepthScenes,duration_manipulation_targetAtFixation,jsons/v1_VE1000_randls_75.json,http://54.235.29.9/FacialAge/BNav_EC2/DepthDuration/v2_depth_duration_MTurk/v2_DepthDuration_HTML.html#424,424,1366,768,1366,768,8-29-2022,10-7-6,71,depth_duration_stimuli/003621_2014-05-23_18-06-08_094959634447_rgbf000101-resize_1/003621_2014-05-23_18-06-08_094959634447_rgbf000101-resize_1-target.png,1000,3.9835,7.0,5247,984,feet,jsons/v1_VE1000_randls_75.json,1134746,1429980,43,Man
71,885691,DepthScenes,duration_manipulation_targetAtFixation,jsons/v1_VE1000_randls_75.json,http://54.235.29.9/FacialAge/BNav_EC2/DepthDuration/v2_depth_duration_MTurk/v2_DepthDuration_HTML.html#424,424,1366,768,1366,768,8-29-2022,10-7-6,72,depth_duration_stimuli/001584_2014-06-20_11-07-43_260595134347_rgbf000002-resize_1/001584_2014-06-20_11-07-43_260595134347_rgbf000002-resize_1-target.png,1000,3.53,4.0,10207,1005,feet,jsons/v1_VE1000_randls_75.json,1134746,1429980,43,Man
72,885691,DepthScenes,duration_manipulation_targetAtFixation,jsons/v1_VE1000_randls_75.json,http://54.235.29.9/FacialAge/BNav_EC2/DepthDuration/v2_depth_duration_MTurk/v2_DepthDuration_HTML.html#424,424,1366,768,1366,768,8-29-2022,10-7-6,73,depth_duration_stimuli/001810_2014-06-26_20-51-35_260595134347_rgbf000040-resize_3/001810_2014-06-26_20-51-35_260595134347_rgbf000040-resize_3-target.png,1000,2.2525,3.5,6068,1000,feet,jsons/v1_VE1000_randls_75.json,1134746,1429980,43,Man
73,885691,DepthScenes,duration_manipulation_targetAtFixation,jsons/v1_VE1000_randls_75.json,http://54.235.29.9/FacialAge/BNav_EC2/DepthDuration/v2_depth_duration_MTurk/v2_DepthDuration_HTML.html#424,424,1366,768,1366,768,8-29-2022,10-7-6,74,depth_duration_stimuli/003010_2014-06-15_12-54-35_094959634447_rgbf000112-resize_0/003010_2014-06-15_12-54-35_094959634447_rgbf000112-resize_0-target.png,1000,3.1185,6.0,4939,991,feet,jsons/v1_VE1000_randls_75.json,1134746,1429980,43,Man
74,885691,DepthScenes,duration_manipulation_targetAtFixation,jsons/v1_VE1000_randls_75.json,http://54.235.29.9/FacialAge/BNav_EC2/DepthDuration/v2_depth_duration_MTurk/v2_DepthDuration_HTML.html#424,424,1366,768,1366,768,8-29-2022,10-7-6,75,depth_duration_stimuli/001244_2014-06-17_16-47-45_260595134347_rgbf000030-resize_4/001244_2014-06-17_16-47-45_260595134347_rgbf000030-resize_4-target.png,1000,2.0425,2.0,4806,995,feet,jsons/v1_VE1000_randls_75.json,1134746,1429980,43,Man
75,885691,DepthScenes,duration_manipulation_targetAtFixation,jsons/v1_VE1000_randls_75.json,http://54.235.29.9/FacialAge/BNav_EC2/DepthDuration/v2_depth_duration_MTurk/v2_DepthDuration_HTML.html#424,424,1366,768,1366,768,8-29-2022,10-7-6,76,depth_duration_stimuli/003495_2014-05-21_16-01-51_094959634447_rgbf000100-resize_3/003495_2014-05-21_16-01-51_094959634447_rgbf000100-resize_3-target.png,1000,1.6255,2.0,5527,1004,feet,jsons/v1_VE1000_randls_75.json,1134746,1429980,43,Man
76,885691,DepthScenes,duration_manipulation_targetAtFixation,jsons/v1_VE1000_randls_75.json,http://54.235.29.9/FacialAge/BNav_EC2/DepthDuration/v2_depth_duration_MTurk/v2_DepthDuration_HTML.html#424,424,1366,768,1366,768,8-29-2022,10-7-6,77,depth_duration_stimuli/001059_2014-06-08_21-53-27_260595134347_rgbf000061-resize_4/001059_2014-06-08_21-53-27_260595134347_rgbf000061-resize_4-target.png,1000,2.4185,3.0,5784,990,feet,jsons/v1_VE1000_randls_75.json,1134746,1429980,43,Man
77,885691,DepthScenes,duration_manipulation_targetAtFixation,jsons/v1_VE1000_randls_75.json,http://54.235.29.9/FacialAge/BNav_EC2/DepthDuration/v2_depth_duration_MTurk/v2_DepthDuration_HTML.html#424,424,1366,768,1366,768,8-29-2022,10-7-6,78,depth_duration_stimuli/001032_2014-06-08_13-23-17_260595134347_rgbf000021-resize_3/001032_2014-06-08_13-23-17_260595134347_rgbf000021-resize_3-target.png,1000,3.2725,4.0,6260,1005,feet,jsons/v1_VE1000_randls_75.json,1134746,1429980,43,Man
78,885691,DepthScenes,duration_manipulation_targetAtFixation,jsons/v1_VE1000_randls_75.json,http://54.235.29.9/FacialAge/BNav_EC2/DepthDuration/v2_depth_duration_MTurk/v2_DepthDuration_HTML.html#424,424,1366,768,1366,768,8-29-2022,10-7-6,79,depth_duration_stimuli/000739_2014-06-08_18-45-58_260595134347_rgbf000068-resize_1/000739_2014-06-08_18-45-58_260595134347_rgbf000068-resize_1-target.png,1000,3.534,5.0,5231,999,feet,jsons/v1_VE1000_randls_75.json,1134746,1429980,43,Man
79,885691,DepthScenes,duration_manipulation_targetAtFixation,jsons/v1_VE1000_randls_75.json,http://54.235.29.9/FacialAge/BNav_EC2/DepthDuration/v2_depth_duration_MTurk/v2_DepthDuration_HTML.html#424,424,1366,768,1366,768,8-29-2022,10-7-6,80,depth_duration_stimuli/000734_2014-06-08_17-39-11_260595134347_rgbf000128-resize_2/000734_2014-06-08_17-39-11_260595134347_rgbf000128-resize_2-target.png,1000,4.098,3.5,10208,1010,feet,jsons/v1_VE1000_randls_75.json,1134746,1429980,43,Man
80,885691,DepthScenes,duration_manipulation_targetAtFixation,jsons/v1_VE1000_randls_75.json,http://54.235.29.9/FacialAge/BNav_EC2/DepthDuration/v2_depth_duration_MTurk/v2_DepthDuration_HTML.html#424,424,1366,768,1366,768,8-29-2022,10-7-6,81,depth_duration_stimuli/002570_2014-06-24_13-59-54_094959634447_rgbf000059-resize_0/002570_2014-06-24_13-59-54_094959634447_rgbf000059-resize_0-target.png,1000,4.037,6.5,6103,994,feet,jsons/v1_VE1000_randls_75.json,1134746,1429980,43,Man
81,885691,DepthScenes,duration_manipulation_targetAtFixation,jsons/v1_VE1000_randls_75.json,http://54.235.29.9/FacialAge/BNav_EC2/DepthDuration/v2_depth_duration_MTurk/v2_DepthDuration_HTML.html#424,424,1366,768,1366,768,8-29-2022,10-7-6,82,depth_duration_stimuli/002467_2014-06-28_20-38-07_260595134347_rgbf000026-resize_2/002467_2014-06-28_20-38-07_260595134347_rgbf000026-resize_2-target.png,1000,4.742,7.0,5785,1015,feet,jsons/v1_VE1000_randls_75.json,1134746,1429980,43,Man
82,885691,DepthScenes,duration_manipulation_targetAtFixation,jsons/v1_VE1000_randls_75.json,http://54.235.29.9/FacialAge/BNav_EC2/DepthDuration/v2_depth_duration_MTurk/v2_DepthDuration_HTML.html#424,424,1366,768,1366,768,8-29-2022,10-7-6,83,depth_duration_stimuli/002213_2014-06-28_18-37-58_260595134347_rgbf000055-resize_1/002213_2014-06-28_18-37-58_260595134347_rgbf000055-resize_1-target.png,1000,3.62,7.5,7169,997,feet,jsons/v1_VE1000_randls_75.json,1134746,1429980,43,Man
83,885691,DepthScenes,duration_manipulation_targetAtFixation,jsons/v1_VE1000_randls_75.json,http://54.235.29.9/FacialAge/BNav_EC2/DepthDuration/v2_depth_duration_MTurk/v2_DepthDuration_HTML.html#424,424,1366,768,1366,768,8-29-2022,10-7-6,84,depth_duration_stimuli/000691_2014-06-08_13-08-50_260595134347_rgbf000132-resize_3/000691_2014-06-08_13-08-50_260595134347_rgbf000132-resize_3-target.png,1000,4.1530000000000005,8.0,5599,1013,feet,jsons/v1_VE1000_randls_75.json,1134746,1429980,43,Man
84,885691,DepthScenes,duration_manipulation_targetAtFixation,jsons/v1_VE1000_randls_75.json,http://54.235.29.9/FacialAge/BNav_EC2/DepthDuration/v2_depth_duration_MTurk/v2_DepthDuration_HTML.html#424,424,1366,768,1366,768,8-29-2022,10-7-6,85,depth_duration_stimuli/002153_2014-06-25_21-27-18_260595134347_rgbf000038-resize_5/002153_2014-06-25_21-27-18_260595134347_rgbf000038-resize_5-target.png,1000,2.505,3.5,5426,1000,feet,jsons/v1_VE1000_randls_75.json,1134746,1429980,43,Man
85,885691,DepthScenes,duration_manipulation_targetAtFixation,jsons/v1_VE1000_randls_75.json,http://54.235.29.9/FacialAge/BNav_EC2/DepthDuration/v2_depth_duration_MTurk/v2_DepthDuration_HTML.html#424,424,1366,768,1366,768,8-29-2022,10-7-6,86,depth_duration_stimuli/002660_2014-06-13_15-44-18_094959634447_rgbf001878-resize_2/002660_2014-06-13_15-44-18_094959634447_rgbf001878-resize_2-target.png,1000,3.576,5.0,5204,985,feet,jsons/v1_VE1000_randls_75.json,1134746,1429980,43,Man
86,885691,DepthScenes,duration_manipulation_targetAtFixation,jsons/v1_VE1000_randls_75.json,http://54.235.29.9/FacialAge/BNav_EC2/DepthDuration/v2_depth_duration_MTurk/v2_DepthDuration_HTML.html#424,424,1366,768,1366,768,8-29-2022,10-7-6,87,depth_duration_stimuli/002039_2014-06-24_20-22-38_260595134347_rgbf000084-resize_1/002039_2014-06-24_20-22-38_260595134347_rgbf000084-resize_1-target.png,1000,4.408,7.0,4964,986,feet,jsons/v1_VE1000_randls_75.json,1134746,1429980,43,Man
87,885691,DepthScenes,duration_manipulation_targetAtFixation,jsons/v1_VE1000_randls_75.json,http://54.235.29.9/FacialAge/BNav_EC2/DepthDuration/v2_depth_duration_MTurk/v2_DepthDuration_HTML.html#424,424,1366,768,1366,768,8-29-2022,10-7-6,88,depth_duration_stimuli/002103_2014-06-25_20-00-40_260595134347_rgbf000049-resize_0/002103_2014-06-25_20-00-40_260595134347_rgbf000049-resize_0-target.png,1000,4.105,9.0,8309,999,feet,jsons/v1_VE1000_randls_75.json,1134746,1429980,43,Man
88,885691,DepthScenes,duration_manipulation_targetAtFixation,jsons/v1_VE1000_randls_75.json,http://54.235.29.9/FacialAge/BNav_EC2/DepthDuration/v2_depth_duration_MTurk/v2_DepthDuration_HTML.html#424,424,1366,768,1366,768,8-29-2022,10-7-6,89,depth_duration_stimuli/003292_2014-05-14_21-53-49_094959634447_rgbf000100-resize_2/003292_2014-05-14_21-53-49_094959634447_rgbf000100-resize_2-target.png,1000,3.4815,3.5,6497,1002,feet,jsons/v1_VE1000_randls_75.json,1134746,1429980,43,Man
89,885691,DepthScenes,duration_manipulation_targetAtFixation,jsons/v1_VE1000_randls_75.json,http://54.235.29.9/FacialAge/BNav_EC2/DepthDuration/v2_depth_duration_MTurk/v2_DepthDuration_HTML.html#424,424,1366,768,1366,768,8-29-2022,10-7-6,90,depth_duration_stimuli/002639_2014-06-24_14-51-37_094959634447_rgbf000074-resize_4/002639_2014-06-24_14-51-37_094959634447_rgbf000074-resize_4-target.png,1000,4.0375,7.5,10862,994,feet,jsons/v1_VE1000_randls_75.json,1134746,1429980,43,Man
90,885691,DepthScenes,duration_manipulation_targetAtFixation,jsons/v1_VE1000_randls_75.json,http://54.235.29.9/FacialAge/BNav_EC2/DepthDuration/v2_depth_duration_MTurk/v2_DepthDuration_HTML.html#424,424,1366,768,1366,768,8-29-2022,10-7-6,91,depth_duration_stimuli/000436_2014-06-09_22-25-11_260595134347_rgbf000137-resize_1/000436_2014-06-09_22-25-11_260595134347_rgbf000137-resize_1-target.png,1000,4.0705,8.0,4446,1005,feet,jsons/v1_VE1000_randls_75.json,1134746,1429980,43,Man
91,885691,DepthScenes,duration_manipulation_targetAtFixation,jsons/v1_VE1000_randls_75.json,http://54.235.29.9/FacialAge/BNav_EC2/DepthDuration/v2_depth_duration_MTurk/v2_DepthDuration_HTML.html#424,424,1366,768,1366,768,8-29-2022,10-7-6,92,depth_duration_stimuli/002444_2014-06-28_20-32-08_260595134347_rgbf000027-resize_0/002444_2014-06-28_20-32-08_260595134347_rgbf000027-resize_0-target.png,1000,4.388999999999999,6.0,8724,996,feet,jsons/v1_VE1000_randls_75.json,1134746,1429980,43,Man
92,885691,DepthScenes,duration_manipulation_targetAtFixation,jsons/v1_VE1000_randls_75.json,http://54.235.29.9/FacialAge/BNav_EC2/DepthDuration/v2_depth_duration_MTurk/v2_DepthDuration_HTML.html#424,424,1366,768,1366,768,8-29-2022,10-7-6,93,depth_duration_stimuli/000929_2014-06-09_16-33-19_260595134347_rgbf000139-resize_0/000929_2014-06-09_16-33-19_260595134347_rgbf000139-resize_0-target.png,1000,2.8680000000000003,4.0,5831,1000,feet,jsons/v1_VE1000_randls_75.json,1134746,1429980,43,Man
93,885691,DepthScenes,duration_manipulation_targetAtFixation,jsons/v1_VE1000_randls_75.json,http://54.235.29.9/FacialAge/BNav_EC2/DepthDuration/v2_depth_duration_MTurk/v2_DepthDuration_HTML.html#424,424,1366,768,1366,768,8-29-2022,10-7-6,94,depth_duration_stimuli/000457_2014-06-08_16-52-43_260595134347_rgbf000199-resize_1/000457_2014-06-08_16-52-43_260595134347_rgbf000199-resize_1-target.png,1000,3.6489999999999996,4.0,4930,989,feet,jsons/v1_VE1000_randls_75.json,1134746,1429980,43,Man
94,885691,DepthScenes,duration_manipulation_targetAtFixation,jsons/v1_VE1000_randls_75.json,http://54.235.29.9/FacialAge/BNav_EC2/DepthDuration/v2_depth_duration_MTurk/v2_DepthDuration_HTML.html#424,424,1366,768,1366,768,8-29-2022,10-7-6,95,depth_duration_stimuli/001167_2014-06-17_15-38-07_260595134347_rgbf000108-resize_0/001167_2014-06-17_15-38-07_260595134347_rgbf000108-resize_0-target.png,1000,1.8505,1.5,5535,993,feet,jsons/v1_VE1000_randls_75.json,1134746,1429980,43,Man
95,885691,DepthScenes,duration_manipulation_targetAtFixation,jsons/v1_VE1000_randls_75.json,http://54.235.29.9/FacialAge/BNav_EC2/DepthDuration/v2_depth_duration_MTurk/v2_DepthDuration_HTML.html#424,424,1366,768,1366,768,8-29-2022,10-7-6,96,depth_duration_stimuli/003587_2014-05-23_16-48-02_094959634447_rgbf002384-resize_2/003587_2014-05-23_16-48-02_094959634447_rgbf002384-resize_2-target.png,1000,1.357,1.0,4721,997,feet,jsons/v1_VE1000_randls_75.json,1134746,1429980,43,Man
96,885691,DepthScenes,duration_manipulation_targetAtFixation,jsons/v1_VE1000_randls_75.json,http://54.235.29.9/FacialAge/BNav_EC2/DepthDuration/v2_depth_duration_MTurk/v2_DepthDuration_HTML.html#424,424,1366,768,1366,768,8-29-2022,10-7-6,97,depth_duration_stimuli/001555_2014-06-20_17-12-10_260595134347_rgbf000065-resize_4/001555_2014-06-20_17-12-10_260595134347_rgbf000065-resize_4-target.png,1000,1.633,1.5,5701,993,feet,jsons/v1_VE1000_randls_75.json,1134746,1429980,43,Man
97,885691,DepthScenes,duration_manipulation_targetAtFixation,jsons/v1_VE1000_randls_75.json,http://54.235.29.9/FacialAge/BNav_EC2/DepthDuration/v2_depth_duration_MTurk/v2_DepthDuration_HTML.html#424,424,1366,768,1366,768,8-29-2022,10-7-6,98,depth_duration_stimuli/000103_2014-05-14_22-01-17_260595134347_rgbf000152-resize_5/000103_2014-05-14_22-01-17_260595134347_rgbf000152-resize_5-target.png,1000,1.993,3.0,4747,1013,feet,jsons/v1_VE1000_randls_75.json,1134746,1429980,43,Man
98,885691,DepthScenes,duration_manipulation_targetAtFixation,jsons/v1_VE1000_randls_75.json,http://54.235.29.9/FacialAge/BNav_EC2/DepthDuration/v2_depth_duration_MTurk/v2_DepthDuration_HTML.html#424,424,1366,768,1366,768,8-29-2022,10-7-6,99,depth_duration_stimuli/001540_2014-06-20_17-01-05_260595134347_rgbf000086-resize_2/001540_2014-06-20_17-01-05_260595134347_rgbf000086-resize-original.jpg,1000,1.459,0.0,4461,1012,feet,jsons/v1_VE1000_randls_75.json,1134746,1429980,43,Man
99,885691,DepthScenes,duration_manipulation_targetAtFixation,jsons/v1_VE1000_randls_75.json,http://54.235.29.9/FacialAge/BNav_EC2/DepthDuration/v2_depth_duration_MTurk/v2_DepthDuration_HTML.html#424,424,1366,768,1366,768,8-29-2022,10-7-6,100,depth_duration_stimuli/000682_2014-06-08_23-14-58_260595134347_rgbf000041-resize_5/000682_2014-06-08_23-14-58_260595134347_rgbf000041-resize_5-target.png,1000,2.7239999999999998,4.0,9435,1002,feet,jsons/v1_VE1000_randls_75.json,1134746,1429980,43,Man
100,885691,DepthScenes,duration_manipulation_targetAtFixation,jsons/v1_VE1000_randls_75.json,http://54.235.29.9/FacialAge/BNav_EC2/DepthDuration/v2_depth_duration_MTurk/v2_DepthDuration_HTML.html#424,424,1366,768,1366,768,8-29-2022,10-7-6,101,depth_duration_stimuli/001650_2014-06-20_12-09-00_260595134347_rgbf000087-resize_3/001650_2014-06-20_12-09-00_260595134347_rgbf000087-resize_3-target.png,1000,1.9505,1.5,7505,1013,feet,jsons/v1_VE1000_randls_75.json,1134746,1429980,43,Man
101,885691,DepthScenes,duration_manipulation_targetAtFixation,jsons/v1_VE1000_randls_75.json,http://54.235.29.9/FacialAge/BNav_EC2/DepthDuration/v2_depth_duration_MTurk/v2_DepthDuration_HTML.html#424,424,1366,768,1366,768,8-29-2022,10-7-6,102,depth_duration_stimuli/002057_2014-06-24_21-00-13_260595134347_rgbf000120-resize_1/002057_2014-06-24_21-00-13_260595134347_rgbf000120-resize_1-target.png,1000,2.967,6.5,6352,1001,feet,jsons/v1_VE1000_randls_75.json,1134746,1429980,43,Man
102,885691,DepthScenes,duration_manipulation_targetAtFixation,jsons/v1_VE1000_randls_75.json,http://54.235.29.9/FacialAge/BNav_EC2/DepthDuration/v2_depth_duration_MTurk/v2_DepthDuration_HTML.html#424,424,1366,768,1366,768,8-29-2022,10-7-6,103,depth_duration_stimuli/000709_2014-06-08_13-51-55_260595134347_rgbf000068-resize_3/000709_2014-06-08_13-51-55_260595134347_rgbf000068-resize_3-target.png,1000,1.8030000000000002,2.0,8757,997,feet,jsons/v1_VE1000_randls_75.json,1134746,1429980,43,Man
103,885691,DepthScenes,duration_manipulation_targetAtFixation,jsons/v1_VE1000_randls_75.json,http://54.235.29.9/FacialAge/BNav_EC2/DepthDuration/v2_depth_duration_MTurk/v2_DepthDuration_HTML.html#424,424,1366,768,1366,768,8-29-2022,10-7-6,104,depth_duration_stimuli/002763_2014-06-22_19-13-10_094959634447_rgbf000075-resize_4/002763_2014-06-22_19-13-10_094959634447_rgbf000075-resize_4-target.png,1000,1.68375,1.5,5282,1017,feet,jsons/v1_VE1000_randls_75.json,1134746,1429980,43,Man
104,885691,DepthScenes,duration_manipulation_targetAtFixation,jsons/v1_VE1000_randls_75.json,http://54.235.29.9/FacialAge/BNav_EC2/DepthDuration/v2_depth_duration_MTurk/v2_DepthDuration_HTML.html#424,424,1366,768,1366,768,8-29-2022,10-7-6,105,depth_duration_stimuli/002209_2014-06-28_18-36-10_260595134347_rgbf000051-resize_1/002209_2014-06-28_18-36-10_260595134347_rgbf000051-resize_1-target.png,1000,2.057,2.0,4605,999,feet,jsons/v1_VE1000_randls_75.json,1134746,1429980,43,Man
105,885691,DepthScenes,duration_manipulation_targetAtFixation,jsons/v1_VE1000_randls_75.json,http://54.235.29.9/FacialAge/BNav_EC2/DepthDuration/v2_depth_duration_MTurk/v2_DepthDuration_HTML.html#424,424,1366,768,1366,768,8-29-2022,10-7-6,106,depth_duration_stimuli/001066_2014-06-08_22-03-20_260595134347_rgbf000066-resize_4/001066_2014-06-08_22-03-20_260595134347_rgbf000066-resize_4-target.png,1000,4.2330000000000005,8.0,6845,1010,feet,jsons/v1_VE1000_randls_75.json,1134746,1429980,43,Man
106,885691,DepthScenes,duration_manipulation_targetAtFixation,jsons/v1_VE1000_randls_75.json,http://54.235.29.9/FacialAge/BNav_EC2/DepthDuration/v2_depth_duration_MTurk/v2_DepthDuration_HTML.html#424,424,1366,768,1366,768,8-29-2022,10-7-6,107,depth_duration_stimuli/000742_2014-06-08_18-48-09_260595134347_rgbf000164-resize_4/000742_2014-06-08_18-48-09_260595134347_rgbf000164-resize_4-target.png,1000,4.632,10.0,6325,1007,feet,jsons/v1_VE1000_randls_75.json,1134746,1429980,43,Man
107,885691,DepthScenes,duration_manipulation_targetAtFixation,jsons/v1_VE1000_randls_75.json,http://54.235.29.9/FacialAge/BNav_EC2/DepthDuration/v2_depth_duration_MTurk/v2_DepthDuration_HTML.html#424,424,1366,768,1366,768,8-29-2022,10-7-6,108,depth_duration_stimuli/000493_2014-06-09_21-01-18_260595134347_rgbf000196-resize_3/000493_2014-06-09_21-01-18_260595134347_rgbf000196-resize_3-target.png,1000,3.44,6.0,4799,1008,feet,jsons/v1_VE1000_randls_75.json,1134746,1429980,43,Man
108,885691,DepthScenes,duration_manipulation_targetAtFixation,jsons/v1_VE1000_randls_75.json,http://54.235.29.9/FacialAge/BNav_EC2/DepthDuration/v2_depth_duration_MTurk/v2_DepthDuration_HTML.html#424,424,1366,768,1366,768,8-29-2022,10-7-6,109,depth_duration_stimuli/000191_2014-05-12_17-07-38_260595134347_rgbf000199-resize_0/000191_2014-05-12_17-07-38_260595134347_rgbf000199-resize_0-target.png,1000,3.7995,8.0,4959,998,feet,jsons/v1_VE1000_randls_75.json,1134746,1429980,43,Man
109,885691,DepthScenes,duration_manipulation_targetAtFixation,jsons/v1_VE1000_randls_75.json,http://54.235.29.9/FacialAge/BNav_EC2/DepthDuration/v2_depth_duration_MTurk/v2_DepthDuration_HTML.html#424,424,1366,768,1366,768,8-29-2022,10-7-6,110,depth_duration_stimuli/001808_2014-06-26_20-50-58_260595134347_rgbf000029-resize_1/001808_2014-06-26_20-50-58_260595134347_rgbf000029-resize_1-target.png,1000,4.249,8.0,5518,999,feet,jsons/v1_VE1000_randls_75.json,1134746,1429980,43,Man
110,885691,DepthScenes,duration_manipulation_targetAtFixation,jsons/v1_VE1000_randls_75.json,http://54.235.29.9/FacialAge/BNav_EC2/DepthDuration/v2_depth_duration_MTurk/v2_DepthDuration_HTML.html#424,424,1366,768,1366,768,8-29-2022,10-7-6,111,depth_duration_stimuli/001815_2014-06-26_20-52-55_260595134347_rgbf000020-resize_0/001815_2014-06-26_20-52-55_260595134347_rgbf000020-resize_0-target.png,1000,3.3865,9.0,5141,988,feet,jsons/v1_VE1000_randls_75.json,1134746,1429980,43,Man
111,885691,DepthScenes,duration_manipulation_targetAtFixation,jsons/v1_VE1000_randls_75.json,http://54.235.29.9/FacialAge/BNav_EC2/DepthDuration/v2_depth_duration_MTurk/v2_DepthDuration_HTML.html#424,424,1366,768,1366,768,8-29-2022,10-7-6,112,depth_duration_stimuli/000692_2014-06-08_13-09-42_260595134347_rgbf000199-resize_2/000692_2014-06-08_13-09-42_260595134347_rgbf000199-resize_2-target.png,1000,3.661,6.0,8345,1005,feet,jsons/v1_VE1000_randls_75.json,1134746,1429980,43,Man
112,885691,DepthScenes,duration_manipulation_targetAtFixation,jsons/v1_VE1000_randls_75.json,http://54.235.29.9/FacialAge/BNav_EC2/DepthDuration/v2_depth_duration_MTurk/v2_DepthDuration_HTML.html#424,424,1366,768,1366,768,8-29-2022,10-7-6,113,depth_duration_stimuli/001094_2014-06-15_17-36-00_260595134347_rgbf000205-resize_0/001094_2014-06-15_17-36-00_260595134347_rgbf000205-resize_0-target.png,1000,4.2175,7.0,8847,992,feet,jsons/v1_VE1000_randls_75.json,1134746,1429980,43,Man
113,885691,DepthScenes,duration_manipulation_targetAtFixation,jsons/v1_VE1000_randls_75.json,http://54.235.29.9/FacialAge/BNav_EC2/DepthDuration/v2_depth_duration_MTurk/v2_DepthDuration_HTML.html#424,424,1366,768,1366,768,8-29-2022,10-7-6,114,depth_duration_stimuli/003070_2014-06-15_14-58-27_094959634447_rgbf000150-resize_3/003070_2014-06-15_14-58-27_094959634447_rgbf000150-resize_3-target.png,1000,2.9415,3.5,6173,1002,feet,jsons/v1_VE1000_randls_75.json,1134746,1429980,43,Man
114,885691,DepthScenes,duration_manipulation_targetAtFixation,jsons/v1_VE1000_randls_75.json,http://54.235.29.9/FacialAge/BNav_EC2/DepthDuration/v2_depth_duration_MTurk/v2_DepthDuration_HTML.html#424,424,1366,768,1366,768,8-29-2022,10-7-6,115,depth_duration_stimuli/000943_2014-06-09_19-31-07_260595134347_rgbf000128-resize_1/000943_2014-06-09_19-31-07_260595134347_rgbf000128-resize_1-target.png,1000,1.9765,2.5,12336,1005,feet,jsons/v1_VE1000_randls_75.json,1134746,1429980,43,Man
115,885691,DepthScenes,duration_manipulation_targetAtFixation,jsons/v1_VE1000_randls_75.json,http://54.235.29.9/FacialAge/BNav_EC2/DepthDuration/v2_depth_duration_MTurk/v2_DepthDuration_HTML.html#424,424,1366,768,1366,768,8-29-2022,10-7-6,116,depth_duration_stimuli/001170_2014-06-17_15-43-44_260595134347_rgbf000096-resize_6/001170_2014-06-17_15-43-44_260595134347_rgbf000096-resize-original.jpg,1000,1.1909999999999998,0.0,4445,997,feet,jsons/v1_VE1000_randls_75.json,1134746,1429980,43,Man
116,885691,DepthScenes,duration_manipulation_targetAtFixation,jsons/v1_VE1000_randls_75.json,http://54.235.29.9/FacialAge/BNav_EC2/DepthDuration/v2_depth_duration_MTurk/v2_DepthDuration_HTML.html#424,424,1366,768,1366,768,8-29-2022,10-7-6,117,depth_duration_stimuli/000788_2014-06-08_22-34-36_260595134347_rgbf000131-resize_1/000788_2014-06-08_22-34-36_260595134347_rgbf000131-resize_1-target.png,1000,3.359,3.5,5967,1002,feet,jsons/v1_VE1000_randls_75.json,1134746,1429980,43,Man
117,885691,DepthScenes,duration_manipulation_targetAtFixation,jsons/v1_VE1000_randls_75.json,http://54.235.29.9/FacialAge/BNav_EC2/DepthDuration/v2_depth_duration_MTurk/v2_DepthDuration_HTML.html#424,424,1366,768,1366,768,8-29-2022,10-7-6,118,depth_duration_stimuli/001235_2014-06-17_16-37-36_260595134347_rgbf000084-resize_4/001235_2014-06-17_16-37-36_260595134347_rgbf000084-resize_4-target.png,1000,3.6605,6.0,4445,1009,feet,jsons/v1_VE1000_randls_75.json,1134746,1429980,43,Man
118,885691,DepthScenes,duration_manipulation_targetAtFixation,jsons/v1_VE1000_randls_75.json,http://54.235.29.9/FacialAge/BNav_EC2/DepthDuration/v2_depth_duration_MTurk/v2_DepthDuration_HTML.html#424,424,1366,768,1366,768,8-29-2022,10-7-6,119,depth_duration_stimuli/002043_2014-06-24_20-29-38_260595134347_rgbf000039-resize_4/002043_2014-06-24_20-29-38_260595134347_rgbf000039-resize_4-target.png,1000,2.8435,4.5,6292,999,feet,jsons/v1_VE1000_randls_75.json,1134746,1429980,43,Man
119,885691,DepthScenes,duration_manipulation_targetAtFixation,jsons/v1_VE1000_randls_75.json,http://54.235.29.9/FacialAge/BNav_EC2/DepthDuration/v2_depth_duration_MTurk/v2_DepthDuration_HTML.html#424,424,1366,768,1366,768,8-29-2022,10-7-6,120,depth_duration_stimuli/003048_2014-06-15_13-49-43_094959634447_rgbf000150-resize_1/003048_2014-06-15_13-49-43_094959634447_rgbf000150-resize_1-target.png,1000,4.0035,5.5,6212,1006,feet,jsons/v1_VE1000_randls_75.json,1134746,1429980,43,Man
120,885691,DepthScenes,duration_manipulation_targetAtFixation,jsons/v1_VE1000_randls_75.json,http://54.235.29.9/FacialAge/BNav_EC2/DepthDuration/v2_depth_duration_MTurk/v2_DepthDuration_HTML.html#424,424,1366,768,1366,768,8-29-2022,10-7-6,121,depth_duration_stimuli/002445_2014-06-28_20-32-16_260595134347_rgbf000029-resize_4/002445_2014-06-28_20-32-16_260595134347_rgbf000029-resize_4-target.png,1000,2.5315,3.0,6096,1002,feet,jsons/v1_VE1000_randls_75.json,1134746,1429980,43,Man
121,885691,DepthScenes,duration_manipulation_targetAtFixation,jsons/v1_VE1000_randls_75.json,http://54.235.29.9/FacialAge/BNav_EC2/DepthDuration/v2_depth_duration_MTurk/v2_DepthDuration_HTML.html#424,424,1366,768,1366,768,8-29-2022,10-7-6,122,depth_duration_stimuli/000780_2014-06-08_22-28-29_260595134347_rgbf000126-resize_1/000780_2014-06-08_22-28-29_260595134347_rgbf000126-resize_1-target.png,1000,3.3825,5.5,5667,996,feet,jsons/v1_VE1000_randls_75.json,1134746,1429980,43,Man
122,885691,DepthScenes,duration_manipulation_targetAtFixation,jsons/v1_VE1000_randls_75.json,http://54.235.29.9/FacialAge/BNav_EC2/DepthDuration/v2_depth_duration_MTurk/v2_DepthDuration_HTML.html#424,424,1366,768,1366,768,8-29-2022,10-7-6,123,depth_duration_stimuli/001055_2014-06-08_18-45-35_260595134347_rgbf000111-resize_4/001055_2014-06-08_18-45-35_260595134347_rgbf000111-resize_4-target.png,1000,2.4290000000000003,4.0,5178,992,feet,jsons/v1_VE1000_randls_75.json,1134746,1429980,43,Man
123,885691,DepthScenes,duration_manipulation_targetAtFixation,jsons/v1_VE1000_randls_75.json,http://54.235.29.9/FacialAge/BNav_EC2/DepthDuration/v2_depth_duration_MTurk/v2_DepthDuration_HTML.html#424,424,1366,768,1366,768,8-29-2022,10-7-6,124,depth_duration_stimuli/000549_2014-06-08_22-10-24_260595134347_rgbf000247-resize_3/000549_2014-06-08_22-10-24_260595134347_rgbf000247-resize_3-target.png,1000,1.841,1.5,5767,989,feet,jsons/v1_VE1000_randls_75.json,1134746,1429980,43,Man
124,885691,DepthScenes,duration_manipulation_targetAtFixation,jsons/v1_VE1000_randls_75.json,http://54.235.29.9/FacialAge/BNav_EC2/DepthDuration/v2_depth_duration_MTurk/v2_DepthDuration_HTML.html#424,424,1366,768,1366,768,8-29-2022,10-7-6,125,depth_duration_stimuli/001449_2014-06-19_17-01-27_260595134347_rgbf000116-resize_2/001449_2014-06-19_17-01-27_260595134347_rgbf000116-resize_2-target.png,1000,3.452,3.5,6042,987,feet,jsons/v1_VE1000_randls_75.json,1134746,1429980,43,Man
125,885691,DepthScenes,duration_manipulation_targetAtFixation,jsons/v1_VE1000_randls_75.json,http://54.235.29.9/FacialAge/BNav_EC2/DepthDuration/v2_depth_duration_MTurk/v2_DepthDuration_HTML.html#424,424,1366,768,1366,768,8-29-2022,10-7-6,126,depth_duration_stimuli/001450_2014-06-19_17-02-03_260595134347_rgbf000203-resize_4/001450_2014-06-19_17-02-03_260595134347_rgbf000203-resize_4-target.png,1000,4.0106666666667,7.0,5182,1005,feet,jsons/v1_VE1000_randls_75.json,1134746,1429980,43,Man
126,885691,DepthScenes,duration_manipulation_targetAtFixation,jsons/v1_VE1000_randls_75.json,http://54.235.29.9/FacialAge/BNav_EC2/DepthDuration/v2_depth_duration_MTurk/v2_DepthDuration_HTML.html#424,424,1366,768,1366,768,8-29-2022,10-7-6,127,depth_duration_stimuli/002509_2014-06-24_13-19-22_094959634447_rgbf000077-resize_0/002509_2014-06-24_13-19-22_094959634447_rgbf000077-resize_0-target.png,1000,1.3065,2.0,5062,995,feet,jsons/v1_VE1000_randls_75.json,1134746,1429980,43,Man
127,885691,DepthScenes,duration_manipulation_targetAtFixation,jsons/v1_VE1000_randls_75.json,http://54.235.29.9/FacialAge/BNav_EC2/DepthDuration/v2_depth_duration_MTurk/v2_DepthDuration_HTML.html#424,424,1366,768,1366,768,8-29-2022,10-7-6,128,depth_duration_stimuli/003338_2014-05-20_11-01-23_094959634447_rgbf000051-resize_6/003338_2014-05-20_11-01-23_094959634447_rgbf000051-resize_6-target.png,1000,1.693,2.0,4547,1004,feet,jsons/v1_VE1000_randls_75.json,1134746,1429980,43,Man
128,885691,DepthScenes,duration_manipulation_targetAtFixation,jsons/v1_VE1000_randls_75.json,http://54.235.29.9/FacialAge/BNav_EC2/DepthDuration/v2_depth_duration_MTurk/v2_DepthDuration_HTML.html#424,424,1366,768,1366,768,8-29-2022,10-7-6,129,depth_duration_stimuli/000009_2014-05-26_14-32-05_260595134347_rgbf000034-resize_3/000009_2014-05-26_14-32-05_260595134347_rgbf000034-resize_3-target.png,1000,3.8715,7.0,7007,984,feet,jsons/v1_VE1000_randls_75.json,1134746,1429980,43,Man
129,885691,DepthScenes,duration_manipulation_targetAtFixation,jsons/v1_VE1000_randls_75.json,http://54.235.29.9/FacialAge/BNav_EC2/DepthDuration/v2_depth_duration_MTurk/v2_DepthDuration_HTML.html#424,424,1366,768,1366,768,8-29-2022,10-7-6,130,depth_duration_stimuli/001828_2014-06-26_21-40-03_260595134347_rgbf000024-resize_0/001828_2014-06-26_21-40-03_260595134347_rgbf000024-resize_0-target.png,1000,4.8260000000000005,7.0,5738,998,feet,jsons/v1_VE1000_randls_75.json,1134746,1429980,43,Man
130,885691,DepthScenes,duration_manipulation_targetAtFixation,jsons/v1_VE1000_randls_75.json,http://54.235.29.9/FacialAge/BNav_EC2/DepthDuration/v2_depth_duration_MTurk/v2_DepthDuration_HTML.html#424,424,1366,768,1366,768,8-29-2022,10-7-6,131,depth_duration_stimuli/000522_2014-06-08_13-35-06_260595134347_rgbf000244-resize_1/000522_2014-06-08_13-35-06_260595134347_rgbf000244-resize_1-target.png,1000,2.3715,1.0,5791,1002,feet,jsons/v1_VE1000_randls_75.json,1134746,1429980,43,Man
131,885691,DepthScenes,duration_manipulation_targetAtFixation,jsons/v1_VE1000_randls_75.json,http://54.235.29.9/FacialAge/BNav_EC2/DepthDuration/v2_depth_duration_MTurk/v2_DepthDuration_HTML.html#424,424,1366,768,1366,768,8-29-2022,10-7-6,132,depth_duration_stimuli/002949_2014-06-26_15-57-42_094959634447_rgbf000079-resize_1/002949_2014-06-26_15-57-42_094959634447_rgbf000079-resize_1-target.png,1000,1.8915,2.5,7716,1008,feet,jsons/v1_VE1000_randls_75.json,1134746,1429980,43,Man
132,885691,DepthScenes,duration_manipulation_targetAtFixation,jsons/v1_VE1000_randls_75.json,http://54.235.29.9/FacialAge/BNav_EC2/DepthDuration/v2_depth_duration_MTurk/v2_DepthDuration_HTML.html#424,424,1366,768,1366,768,8-29-2022,10-7-6,133,depth_duration_stimuli/000447_2014-06-08_16-15-46_260595134347_rgbf000130-resize_1/000447_2014-06-08_16-15-46_260595134347_rgbf000130-resize_1-target.png,1000,4.479,6.5,8758,1000,feet,jsons/v1_VE1000_randls_75.json,1134746,1429980,43,Man
133,885691,DepthScenes,duration_manipulation_targetAtFixation,jsons/v1_VE1000_randls_75.json,http://54.235.29.9/FacialAge/BNav_EC2/DepthDuration/v2_depth_duration_MTurk/v2_DepthDuration_HTML.html#424,424,1366,768,1366,768,8-29-2022,10-7-6,134,depth_duration_stimuli/001447_2014-06-19_17-00-32_260595134347_rgbf000082-resize_5/001447_2014-06-19_17-00-32_260595134347_rgbf000082-resize_5-target.png,1000,4.13775,3.0,5399,996,feet,jsons/v1_VE1000_randls_75.json,1134746,1429980,43,Man
134,885691,DepthScenes,duration_manipulation_targetAtFixation,jsons/v1_VE1000_randls_75.json,http://54.235.29.9/FacialAge/BNav_EC2/DepthDuration/v2_depth_duration_MTurk/v2_DepthDuration_HTML.html#424,424,1366,768,1366,768,8-29-2022,10-7-6,135,depth_duration_stimuli/002072_2014-06-24_21-48-06_260595134347_rgbf000115-resize_0/002072_2014-06-24_21-48-06_260595134347_rgbf000115-resize-original.jpg,1000,4.702,0.0,4495,1011,feet,jsons/v1_VE1000_randls_75.json,1134746,1429980,43,Man
135,885691,DepthScenes,duration_manipulation_targetAtFixation,jsons/v1_VE1000_randls_75.json,http://54.235.29.9/FacialAge/BNav_EC2/DepthDuration/v2_depth_duration_MTurk/v2_DepthDuration_HTML.html#424,424,1366,768,1366,768,8-29-2022,10-7-6,136,depth_duration_stimuli/000642_2014-06-08_16-59-25_260595134347_rgbf000098-resize_2/000642_2014-06-08_16-59-25_260595134347_rgbf000098-resize_2-target.png,1000,2.8815,3.5,8023,1000,feet,jsons/v1_VE1000_randls_75.json,1134746,1429980,43,Man
136,885691,DepthScenes,duration_manipulation_targetAtFixation,jsons/v1_VE1000_randls_75.json,http://54.235.29.9/FacialAge/BNav_EC2/DepthDuration/v2_depth_duration_MTurk/v2_DepthDuration_HTML.html#424,424,1366,768,1366,768,8-29-2022,10-7-6,137,depth_duration_stimuli/002425_2014-06-28_20-27-29_260595134347_rgbf000031-resize_8/002425_2014-06-28_20-27-29_260595134347_rgbf000031-resize_8-target.png,1000,3.8960000000000004,4.0,8075,1008,feet,jsons/v1_VE1000_randls_75.json,1134746,1429980,43,Man
137,885691,DepthScenes,duration_manipulation_targetAtFixation,jsons/v1_VE1000_randls_75.json,http://54.235.29.9/FacialAge/BNav_EC2/DepthDuration/v2_depth_duration_MTurk/v2_DepthDuration_HTML.html#424,424,1366,768,1366,768,8-29-2022,10-7-6,138,depth_duration_stimuli/000917_2014-06-09_22-45-29_260595134347_rgbf000149-resize_3/000917_2014-06-09_22-45-29_260595134347_rgbf000149-resize_3-target.png,1000,4.1865,5.0,5385,1004,feet,jsons/v1_VE1000_randls_75.json,1134746,1429980,43,Man
138,885691,DepthScenes,duration_manipulation_targetAtFixation,jsons/v1_VE1000_randls_75.json,http://54.235.29.9/FacialAge/BNav_EC2/DepthDuration/v2_depth_duration_MTurk/v2_DepthDuration_HTML.html#424,424,1366,768,1366,768,8-29-2022,10-7-6,139,depth_duration_stimuli/002323_2014-06-28_20-01-54_260595134347_rgbf000051-resize_4/002323_2014-06-28_20-01-54_260595134347_rgbf000051-resize_4-target.png,1000,3.7310000000000003,11.0,5203,1017,feet,jsons/v1_VE1000_randls_75.json,1134746,1429980,43,Man
139,885691,DepthScenes,duration_manipulation_targetAtFixation,jsons/v1_VE1000_randls_75.json,http://54.235.29.9/FacialAge/BNav_EC2/DepthDuration/v2_depth_duration_MTurk/v2_DepthDuration_HTML.html#424,424,1366,768,1366,768,8-29-2022,10-7-6,140,depth_duration_stimuli/001016_2014-06-09_16-16-10_260595134347_rgbf000112-resize_5/001016_2014-06-09_16-16-10_260595134347_rgbf000112-resize_5-target.png,1000,1.6565,2.5,5162,1001,feet,jsons/v1_VE1000_randls_75.json,1134746,1429980,43,Man
140,885691,DepthScenes,duration_manipulation_targetAtFixation,jsons/v1_VE1000_randls_75.json,http://54.235.29.9/FacialAge/BNav_EC2/DepthDuration/v2_depth_duration_MTurk/v2_DepthDuration_HTML.html#424,424,1366,768,1366,768,8-29-2022,10-7-6,141,depth_duration_stimuli/002340_2014-06-28_20-05-46_260595134347_rgbf000113-resize_0/002340_2014-06-28_20-05-46_260595134347_rgbf000113-resize_0-target.png,1000,2.4735,6.5,8847,988,feet,jsons/v1_VE1000_randls_75.json,1134746,1429980,43,Man
141,885691,DepthScenes,duration_manipulation_targetAtFixation,jsons/v1_VE1000_randls_75.json,http://54.235.29.9/FacialAge/BNav_EC2/DepthDuration/v2_depth_duration_MTurk/v2_DepthDuration_HTML.html#424,424,1366,768,1366,768,8-29-2022,10-7-6,142,depth_duration_stimuli/000906_2014-06-08_13-35-43_260595134347_rgbf000155-resize_1/000906_2014-06-08_13-35-43_260595134347_rgbf000155-resize_1-target.png,1000,2.8489999999999998,4.0,5465,1005,feet,jsons/v1_VE1000_randls_75.json,1134746,1429980,43,Man
142,885691,DepthScenes,duration_manipulation_targetAtFixation,jsons/v1_VE1000_randls_75.json,http://54.235.29.9/FacialAge/BNav_EC2/DepthDuration/v2_depth_duration_MTurk/v2_DepthDuration_HTML.html#424,424,1366,768,1366,768,8-29-2022,10-7-6,143,depth_duration_stimuli/002805_2014-06-22_19-54-03_094959634447_rgbf000079-resize_1/002805_2014-06-22_19-54-03_094959634447_rgbf000079-resize_1-target.png,1000,3.1439999999999997,4.0,5799,1010,feet,jsons/v1_VE1000_randls_75.json,1134746,1429980,43,Man
143,885691,DepthScenes,duration_manipulation_targetAtFixation,jsons/v1_VE1000_randls_75.json,http://54.235.29.9/FacialAge/BNav_EC2/DepthDuration/v2_depth_duration_MTurk/v2_DepthDuration_HTML.html#424,424,1366,768,1366,768,8-29-2022,10-7-6,144,depth_duration_stimuli/001175_2014-06-17_15-45-55_260595134347_rgbf000129-resize_4/001175_2014-06-17_15-45-55_260595134347_rgbf000129-resize_4-target.png,1000,4.255,8.0,5053,998,feet,jsons/v1_VE1000_randls_75.json,1134746,1429980,43,Man
144,885691,DepthScenes,duration_manipulation_targetAtFixation,jsons/v1_VE1000_randls_75.json,http://54.235.29.9/FacialAge/BNav_EC2/DepthDuration/v2_depth_duration_MTurk/v2_DepthDuration_HTML.html#424,424,1366,768,1366,768,8-29-2022,10-7-6,145,depth_duration_stimuli/003490_2014-05-21_15-50-11_094959634447_rgbf000101-resize_3/003490_2014-05-21_15-50-11_094959634447_rgbf000101-resize_3-target.png,1000,3.6445,9.0,6440,1001,feet,jsons/v1_VE1000_randls_75.json,1134746,1429980,43,Man
145,885691,DepthScenes,duration_manipulation_targetAtFixation,jsons/v1_VE1000_randls_75.json,http://54.235.29.9/FacialAge/BNav_EC2/DepthDuration/v2_depth_duration_MTurk/v2_DepthDuration_HTML.html#424,424,1366,768,1366,768,8-29-2022,10-7-6,146,depth_duration_stimuli/001498_2014-06-19_17-45-14_260595134347_rgbf000129-resize_4/001498_2014-06-19_17-45-14_260595134347_rgbf000129-resize-original.jpg,1000,1.4075,0.0,4439,1003,feet,jsons/v1_VE1000_randls_75.json,1134746,1429980,43,Man
146,885691,DepthScenes,duration_manipulation_targetAtFixation,jsons/v1_VE1000_randls_75.json,http://54.235.29.9/FacialAge/BNav_EC2/DepthDuration/v2_depth_duration_MTurk/v2_DepthDuration_HTML.html#424,424,1366,768,1366,768,8-29-2022,10-7-6,147,depth_duration_stimuli/001092_2014-06-15_17-34-58_260595134347_rgbf000171-resize_3/001092_2014-06-15_17-34-58_260595134347_rgbf000171-resize_3-target.png,1000,2.6935,3.0,4875,990,feet,jsons/v1_VE1000_randls_75.json,1134746,1429980,43,Man
147,885691,DepthScenes,duration_manipulation_targetAtFixation,jsons/v1_VE1000_randls_75.json,http://54.235.29.9/FacialAge/BNav_EC2/DepthDuration/v2_depth_duration_MTurk/v2_DepthDuration_HTML.html#424,424,1366,768,1366,768,8-29-2022,10-7-6,148,depth_duration_stimuli/002545_2014-06-24_13-38-53_094959634447_rgbf000080-resize_4/002545_2014-06-24_13-38-53_094959634447_rgbf000080-resize_4-target.png,1000,1.9205,4.0,4357,1006,feet,jsons/v1_VE1000_randls_75.json,1134746,1429980,43,Man
148,885691,DepthScenes,duration_manipulation_targetAtFixation,jsons/v1_VE1000_randls_75.json,http://54.235.29.9/FacialAge/BNav_EC2/DepthDuration/v2_depth_duration_MTurk/v2_DepthDuration_HTML.html#424,424,1366,768,1366,768,8-29-2022,10-7-6,149,depth_duration_stimuli/001199_2014-06-17_16-03-48_260595134347_rgbf000077-resize_0/001199_2014-06-17_16-03-48_260595134347_rgbf000077-resize_0-target.png,1000,3.4375,6.0,6642,1004,feet,jsons/v1_VE1000_randls_75.json,1134746,1429980,43,Man
149,885691,DepthScenes,duration_manipulation_targetAtFixation,jsons/v1_VE1000_randls_75.json,http://54.235.29.9/FacialAge/BNav_EC2/DepthDuration/v2_depth_duration_MTurk/v2_DepthDuration_HTML.html#424,424,1366,768,1366,768,8-29-2022,10-7-6,150,depth_duration_stimuli/000502_2014-06-08_23-02-32_260595134347_rgbf000063-resize_4/000502_2014-06-08_23-02-32_260595134347_rgbf000063-resize_4-target.png,1000,2.431,2.5,5602,1009,feet,jsons/v1_VE1000_randls_75.json,1134746,1429980,43,Man
150,885691,DepthScenes,duration_manipulation_targetAtFixation,jsons/v1_VE1000_randls_75.json,http://54.235.29.9/FacialAge/BNav_EC2/DepthDuration/v2_depth_duration_MTurk/v2_DepthDuration_HTML.html#424,424,1366,768,1366,768,8-29-2022,10-7-6,151,depth_duration_stimuli/000414_2014-06-04_19-49-13_260595134347_rgbf000044-resize_0/000414_2014-06-04_19-49-13_260595134347_rgbf000044-resize_0-target.png,1000,4.329,8.0,5233,996,feet,jsons/v1_VE1000_randls_75.json,1134746,1429980,43,Man
151,885691,DepthScenes,duration_manipulation_targetAtFixation,jsons/v1_VE1000_randls_75.json,http://54.235.29.9/FacialAge/BNav_EC2/DepthDuration/v2_depth_duration_MTurk/v2_DepthDuration_HTML.html#424,424,1366,768,1366,768,8-29-2022,10-7-6,152,depth_duration_stimuli/003129_2014-05-12_10-48-10_094959634447_rgbf000100-resize_0/003129_2014-05-12_10-48-10_094959634447_rgbf000100-resize_0-target.png,1000,4.9305,10.0,6932,1003,feet,jsons/v1_VE1000_randls_75.json,1134746,1429980,43,Man
152,885691,DepthScenes,duration_manipulation_targetAtFixation,jsons/v1_VE1000_randls_75.json,http://54.235.29.9/FacialAge/BNav_EC2/DepthDuration/v2_depth_duration_MTurk/v2_DepthDuration_HTML.html#424,424,1366,768,1366,768,8-29-2022,10-7-6,153,depth_duration_stimuli/002788_2014-06-22_19-36-03_094959634447_rgbf000088-resize_2/002788_2014-06-22_19-36-03_094959634447_rgbf000088-resize_2-target.png,1000,1.6465,4.5,7219,992,feet,jsons/v1_VE1000_randls_75.json,1134746,1429980,43,Man
153,885691,DepthScenes,duration_manipulation_targetAtFixation,jsons/v1_VE1000_randls_75.json,http://54.235.29.9/FacialAge/BNav_EC2/DepthDuration/v2_depth_duration_MTurk/v2_DepthDuration_HTML.html#424,424,1366,768,1366,768,8-29-2022,10-7-6,154,depth_duration_stimuli/000749_2014-06-08_21-55-06_260595134347_rgbf000070-resize_2/000749_2014-06-08_21-55-06_260595134347_rgbf000070-resize_2-target.png,1000,2.331,4.0,4329,995,feet,jsons/v1_VE1000_randls_75.json,1134746,1429980,43,Man
154,885691,DepthScenes,duration_manipulation_targetAtFixation,jsons/v1_VE1000_randls_75.json,http://54.235.29.9/FacialAge/BNav_EC2/DepthDuration/v2_depth_duration_MTurk/v2_DepthDuration_HTML.html#424,424,1366,768,1366,768,8-29-2022,10-7-6,155,depth_duration_stimuli/000878_2014-06-08_22-52-45_260595134347_rgbf000045-resize_2/000878_2014-06-08_22-52-45_260595134347_rgbf000045-resize_2-target.png,1000,2.092,3.0,4741,1001,feet,jsons/v1_VE1000_randls_75.json,1134746,1429980,43,Man
155,885691,DepthScenes,duration_manipulation_targetAtFixation,jsons/v1_VE1000_randls_75.json,http://54.235.29.9/FacialAge/BNav_EC2/DepthDuration/v2_depth_duration_MTurk/v2_DepthDuration_HTML.html#424,424,1366,768,1366,768,8-29-2022,10-7-6,156,depth_duration_stimuli/002953_2014-06-08_17-32-18_094959634447_rgbf000059-resize_5/002953_2014-06-08_17-32-18_094959634447_rgbf000059-resize_5-target.png,1000,1.551,1.5,6344,992,feet,jsons/v1_VE1000_randls_75.json,1134746,1429980,43,Man
156,885691,DepthScenes,duration_manipulation_targetAtFixation,jsons/v1_VE1000_randls_75.json,http://54.235.29.9/FacialAge/BNav_EC2/DepthDuration/v2_depth_duration_MTurk/v2_DepthDuration_HTML.html#424,424,1366,768,1366,768,8-29-2022,10-7-6,157,depth_duration_stimuli/000758_2014-06-08_22-05-08_260595134347_rgbf000085-resize_0/000758_2014-06-08_22-05-08_260595134347_rgbf000085-resize_0-target.png,1000,3.3810000000000002,7.0,5191,992,feet,jsons/v1_VE1000_randls_75.json,1134746,1429980,43,Man
157,885691,DepthScenes,duration_manipulation_targetAtFixation,jsons/v1_VE1000_randls_75.json,http://54.235.29.9/FacialAge/BNav_EC2/DepthDuration/v2_depth_duration_MTurk/v2_DepthDuration_HTML.html#424,424,1366,768,1366,768,8-29-2022,10-7-6,158,depth_duration_stimuli/000854_2014-06-09_19-43-13_260595134347_rgbf000066-resize_0/000854_2014-06-09_19-43-13_260595134347_rgbf000066-resize_0-target.png,1000,3.068,3.0,4144,999,feet,jsons/v1_VE1000_randls_75.json,1134746,1429980,43,Man
158,885691,DepthScenes,duration_manipulation_targetAtFixation,jsons/v1_VE1000_randls_75.json,http://54.235.29.9/FacialAge/BNav_EC2/DepthDuration/v2_depth_duration_MTurk/v2_DepthDuration_HTML.html#424,424,1366,768,1366,768,8-29-2022,10-7-6,159,depth_duration_stimuli/001806_2014-06-26_20-50-20_260595134347_rgbf000091-resize_1/001806_2014-06-26_20-50-20_260595134347_rgbf000091-resize_1-target.png,1000,2.7305,3.5,5203,1002,feet,jsons/v1_VE1000_randls_75.json,1134746,1429980,43,Man
159,885691,DepthScenes,duration_manipulation_targetAtFixation,jsons/v1_VE1000_randls_75.json,http://54.235.29.9/FacialAge/BNav_EC2/DepthDuration/v2_depth_duration_MTurk/v2_DepthDuration_HTML.html#424,424,1366,768,1366,768,8-29-2022,10-7-6,160,depth_duration_stimuli/001617_2014-06-20_11-35-32_260595134347_rgbf000066-resize_1/001617_2014-06-20_11-35-32_260595134347_rgbf000066-resize_1-target.png,1000,3.7910000000000004,6.0,5580,1000,feet,jsons/v1_VE1000_randls_75.json,1134746,1429980,43,Man
160,885691,DepthScenes,duration_manipulation_targetAtFixation,jsons/v1_VE1000_randls_75.json,http://54.235.29.9/FacialAge/BNav_EC2/DepthDuration/v2_depth_duration_MTurk/v2_DepthDuration_HTML.html#424,424,1366,768,1366,768,8-29-2022,10-7-6,161,depth_duration_stimuli/000773_2014-06-08_22-24-54_260595134347_rgbf000093-resize_1/000773_2014-06-08_22-24-54_260595134347_rgbf000093-resize_1-target.png,1000,4.973,8.5,7223,1008,feet,jsons/v1_VE1000_randls_75.json,1134746,1429980,43,Man
161,885691,DepthScenes,duration_manipulation_targetAtFixation,jsons/v1_VE1000_randls_75.json,http://54.235.29.9/FacialAge/BNav_EC2/DepthDuration/v2_depth_duration_MTurk/v2_DepthDuration_HTML.html#424,424,1366,768,1366,768,8-29-2022,10-7-6,162,depth_duration_stimuli/002414_2014-06-28_20-24-58_260595134347_rgbf000067-resize_4/002414_2014-06-28_20-24-58_260595134347_rgbf000067-resize_4-target.png,1000,4.363,7.0,5023,996,feet,jsons/v1_VE1000_randls_75.json,1134746,1429980,43,Man
162,885691,DepthScenes,duration_manipulation_targetAtFixation,jsons/v1_VE1000_randls_75.json,http://54.235.29.9/FacialAge/BNav_EC2/DepthDuration/v2_depth_duration_MTurk/v2_DepthDuration_HTML.html#424,424,1366,768,1366,768,8-29-2022,10-7-6,163,depth_duration_stimuli/002118_2014-06-25_20-32-08_260595134347_rgbf000078-resize_1/002118_2014-06-25_20-32-08_260595134347_rgbf000078-resize_1-target.png,1000,2.6460000000000004,4.0,4125,996,feet,jsons/v1_VE1000_randls_75.json,1134746,1429980,43,Man
163,885691,DepthScenes,duration_manipulation_targetAtFixation,jsons/v1_VE1000_randls_75.json,http://54.235.29.9/FacialAge/BNav_EC2/DepthDuration/v2_depth_duration_MTurk/v2_DepthDuration_HTML.html#424,424,1366,768,1366,768,8-29-2022,10-7-6,164,depth_duration_stimuli/001516_2014-06-20_16-25-09_260595134347_rgbf000076-resize_2/001516_2014-06-20_16-25-09_260595134347_rgbf000076-resize_2-target.png,1000,1.7445,2.5,10708,1005,feet,jsons/v1_VE1000_randls_75.json,1134746,1429980,43,Man
