,subjID,experimentName,versionName,sequenceName,url,selected_row,windowWidth,windowHeight,screenWidth,screenHeight,startDate,startTime,trial,stimulus,duration,actual_depth,depth_estimate,trial_RT,log_sceneDuration,unitSelection,seq_filepath,experimentTime,totalTime,age,gender
0,887257,DepthScenes,duration_manipulation_targetAtFixation,jsons/VE125_randls_51.json,http://54.235.29.9/FacialAge/BNav_EC2/DepthDuration/v2_depth_duration_MTurk/v2_DepthDuration_HTML.html#324,324,1366,625,1366,768,9-3-2022,14-36-57,1,depth_duration_stimuli/001810_2014-06-26_20-51-35_260595134347_rgbf000040-resize_3/001810_2014-06-26_20-51-35_260595134347_rgbf000040-resize_3-target.png,125,2.2525,0.8,14823,117,meters,jsons/VE125_randls_51.json,1930824,2335274,56,Man
1,887257,DepthScenes,duration_manipulation_targetAtFixation,jsons/VE125_randls_51.json,http://54.235.29.9/FacialAge/BNav_EC2/DepthDuration/v2_depth_duration_MTurk/v2_DepthDuration_HTML.html#324,324,1366,625,1366,768,9-3-2022,14-36-57,2,depth_duration_stimuli/003010_2014-06-15_12-54-35_094959634447_rgbf000112-resize_0/003010_2014-06-15_12-54-35_094959634447_rgbf000112-resize_0-target.png,125,3.1185,2.6,13077,125,meters,jsons/VE125_randls_51.json,1930824,2335274,56,Man
2,887257,DepthScenes,duration_manipulation_targetAtFixation,jsons/VE125_randls_51.json,http://54.235.29.9/FacialAge/BNav_EC2/DepthDuration/v2_depth_duration_MTurk/v2_DepthDuration_HTML.html#324,324,1366,625,1366,768,9-3-2022,14-36-57,3,depth_duration_stimuli/001059_2014-06-08_21-53-27_260595134347_rgbf000061-resize_4/001059_2014-06-08_21-53-27_260595134347_rgbf000061-resize_4-target.png,125,2.4185,1.5,12994,125,meters,jsons/VE125_randls_51.json,1930824,2335274,56,Man
3,887257,DepthScenes,duration_manipulation_targetAtFixation,jsons/VE125_randls_51.json,http://54.235.29.9/FacialAge/BNav_EC2/DepthDuration/v2_depth_duration_MTurk/v2_DepthDuration_HTML.html#324,324,1366,625,1366,768,9-3-2022,14-36-57,4,depth_duration_stimuli/001032_2014-06-08_13-23-17_260595134347_rgbf000021-resize_3/001032_2014-06-08_13-23-17_260595134347_rgbf000021-resize_3-target.png,125,3.2725,0.0,3693,127,meters,jsons/VE125_randls_51.json,1930824,2335274,56,Man
4,887257,DepthScenes,duration_manipulation_targetAtFixation,jsons/VE125_randls_51.json,http://54.235.29.9/FacialAge/BNav_EC2/DepthDuration/v2_depth_duration_MTurk/v2_DepthDuration_HTML.html#324,324,1366,625,1366,768,9-3-2022,14-36-57,5,depth_duration_stimuli/002043_2014-06-24_20-29-38_260595134347_rgbf000039-resize_4/002043_2014-06-24_20-29-38_260595134347_rgbf000039-resize_4-target.png,125,2.8435,1.4,15128,125,meters,jsons/VE125_randls_51.json,1930824,2335274,56,Man
5,887257,DepthScenes,duration_manipulation_targetAtFixation,jsons/VE125_randls_51.json,http://54.235.29.9/FacialAge/BNav_EC2/DepthDuration/v2_depth_duration_MTurk/v2_DepthDuration_HTML.html#324,324,1366,625,1366,768,9-3-2022,14-36-57,6,depth_duration_stimuli/003048_2014-06-15_13-49-43_094959634447_rgbf000150-resize_1/003048_2014-06-15_13-49-43_094959634447_rgbf000150-resize_1-target.png,125,4.0035,0.9,11506,125,meters,jsons/VE125_randls_51.json,1930824,2335274,56,Man
6,887257,DepthScenes,duration_manipulation_targetAtFixation,jsons/VE125_randls_51.json,http://54.235.29.9/FacialAge/BNav_EC2/DepthDuration/v2_depth_duration_MTurk/v2_DepthDuration_HTML.html#324,324,1366,625,1366,768,9-3-2022,14-36-57,7,depth_duration_stimuli/000486_2014-06-09_20-47-20_260595134347_rgbf000143-resize_2/000486_2014-06-09_20-47-20_260595134347_rgbf000143-resize_2-target.png,125,4.8325,1.2,16962,123,meters,jsons/VE125_randls_51.json,1930824,2335274,56,Man
7,887257,DepthScenes,duration_manipulation_targetAtFixation,jsons/VE125_randls_51.json,http://54.235.29.9/FacialAge/BNav_EC2/DepthDuration/v2_depth_duration_MTurk/v2_DepthDuration_HTML.html#324,324,1366,625,1366,768,9-3-2022,14-36-57,8,depth_duration_stimuli/003083_2014-06-15_15-21-03_094959634447_rgbf000063-resize_1/003083_2014-06-15_15-21-03_094959634447_rgbf000063-resize_1-target.png,125,4.1405,1.1,6786,128,meters,jsons/VE125_randls_51.json,1930824,2335274,56,Man
8,887257,DepthScenes,duration_manipulation_targetAtFixation,jsons/VE125_randls_51.json,http://54.235.29.9/FacialAge/BNav_EC2/DepthDuration/v2_depth_duration_MTurk/v2_DepthDuration_HTML.html#324,324,1366,625,1366,768,9-3-2022,14-36-57,9,depth_duration_stimuli/001133_2014-06-17_14-49-16_260595134347_rgbf000100-resize_0/001133_2014-06-17_14-49-16_260595134347_rgbf000100-resize_0-target.png,125,4.2115,2.1,17545,124,meters,jsons/VE125_randls_51.json,1930824,2335274,56,Man
9,887257,DepthScenes,duration_manipulation_targetAtFixation,jsons/VE125_randls_51.json,http://54.235.29.9/FacialAge/BNav_EC2/DepthDuration/v2_depth_duration_MTurk/v2_DepthDuration_HTML.html#324,324,1366,625,1366,768,9-3-2022,14-36-57,10,depth_duration_stimuli/001132_2014-06-17_14-48-54_260595134347_rgbf000100-resize_2/001132_2014-06-17_14-48-54_260595134347_rgbf000100-resize_2-target.png,125,3.753,2.6,10956,125,meters,jsons/VE125_randls_51.json,1930824,2335274,56,Man
10,887257,DepthScenes,duration_manipulation_targetAtFixation,jsons/VE125_randls_51.json,http://54.235.29.9/FacialAge/BNav_EC2/DepthDuration/v2_depth_duration_MTurk/v2_DepthDuration_HTML.html#324,324,1366,625,1366,768,9-3-2022,14-36-57,11,depth_duration_stimuli/000906_2014-06-08_13-35-43_260595134347_rgbf000155-resize_1/000906_2014-06-08_13-35-43_260595134347_rgbf000155-resize_1-target.png,125,2.8489999999999998,1.8,22206,123,meters,jsons/VE125_randls_51.json,1930824,2335274,56,Man
11,887257,DepthScenes,duration_manipulation_targetAtFixation,jsons/VE125_randls_51.json,http://54.235.29.9/FacialAge/BNav_EC2/DepthDuration/v2_depth_duration_MTurk/v2_DepthDuration_HTML.html#324,324,1366,625,1366,768,9-3-2022,14-36-57,12,depth_duration_stimuli/002805_2014-06-22_19-54-03_094959634447_rgbf000079-resize_1/002805_2014-06-22_19-54-03_094959634447_rgbf000079-resize_1-target.png,125,3.1439999999999997,2.9,12367,185,meters,jsons/VE125_randls_51.json,1930824,2335274,56,Man
12,887257,DepthScenes,duration_manipulation_targetAtFixation,jsons/VE125_randls_51.json,http://54.235.29.9/FacialAge/BNav_EC2/DepthDuration/v2_depth_duration_MTurk/v2_DepthDuration_HTML.html#324,324,1366,625,1366,768,9-3-2022,14-36-57,13,depth_duration_stimuli/000569_2014-06-09_22-51-47_260595134347_rgbf000141-resize_3/000569_2014-06-09_22-51-47_260595134347_rgbf000141-resize-original.jpg,125,4.512,0.0,13503,124,meters,jsons/VE125_randls_51.json,1930824,2335274,56,Man
13,887257,DepthScenes,duration_manipulation_targetAtFixation,jsons/VE125_randls_51.json,http://54.235.29.9/FacialAge/BNav_EC2/DepthDuration/v2_depth_duration_MTurk/v2_DepthDuration_HTML.html#324,324,1366,625,1366,768,9-3-2022,14-36-57,14,depth_duration_stimuli/002549_2014-06-24_13-41-39_094959634447_rgbf000022-resize_3/002549_2014-06-24_13-41-39_094959634447_rgbf000022-resize_3-target.png,125,1.476,0.4,15097,131,meters,jsons/VE125_randls_51.json,1930824,2335274,56,Man
14,887257,DepthScenes,duration_manipulation_targetAtFixation,jsons/VE125_randls_51.json,http://54.235.29.9/FacialAge/BNav_EC2/DepthDuration/v2_depth_duration_MTurk/v2_DepthDuration_HTML.html#324,324,1366,625,1366,768,9-3-2022,14-36-57,15,depth_duration_stimuli/002750_2014-06-22_19-08-03_094959634447_rgbf000094-resize_4/002750_2014-06-22_19-08-03_094959634447_rgbf000094-resize_4-target.png,125,2.354,1.1,20192,122,meters,jsons/VE125_randls_51.json,1930824,2335274,56,Man
15,887257,DepthScenes,duration_manipulation_targetAtFixation,jsons/VE125_randls_51.json,http://54.235.29.9/FacialAge/BNav_EC2/DepthDuration/v2_depth_duration_MTurk/v2_DepthDuration_HTML.html#324,324,1366,625,1366,768,9-3-2022,14-36-57,16,depth_duration_stimuli/000436_2014-06-09_22-25-11_260595134347_rgbf000137-resize_1/000436_2014-06-09_22-25-11_260595134347_rgbf000137-resize_1-target.png,125,4.0705,2.0,22418,124,meters,jsons/VE125_randls_51.json,1930824,2335274,56,Man
16,887257,DepthScenes,duration_manipulation_targetAtFixation,jsons/VE125_randls_51.json,http://54.235.29.9/FacialAge/BNav_EC2/DepthDuration/v2_depth_duration_MTurk/v2_DepthDuration_HTML.html#324,324,1366,625,1366,768,9-3-2022,14-36-57,17,depth_duration_stimuli/002444_2014-06-28_20-32-08_260595134347_rgbf000027-resize_0/002444_2014-06-28_20-32-08_260595134347_rgbf000027-resize_0-target.png,125,4.388999999999999,2.5,7370,132,meters,jsons/VE125_randls_51.json,1930824,2335274,56,Man
17,887257,DepthScenes,duration_manipulation_targetAtFixation,jsons/VE125_randls_51.json,http://54.235.29.9/FacialAge/BNav_EC2/DepthDuration/v2_depth_duration_MTurk/v2_DepthDuration_HTML.html#324,324,1366,625,1366,768,9-3-2022,14-36-57,18,depth_duration_stimuli/002445_2014-06-28_20-32-16_260595134347_rgbf000029-resize_4/002445_2014-06-28_20-32-16_260595134347_rgbf000029-resize_4-target.png,125,2.5315,1.45,24875,125,meters,jsons/VE125_randls_51.json,1930824,2335274,56,Man
18,887257,DepthScenes,duration_manipulation_targetAtFixation,jsons/VE125_randls_51.json,http://54.235.29.9/FacialAge/BNav_EC2/DepthDuration/v2_depth_duration_MTurk/v2_DepthDuration_HTML.html#324,324,1366,625,1366,768,9-3-2022,14-36-57,19,depth_duration_stimuli/000780_2014-06-08_22-28-29_260595134347_rgbf000126-resize_1/000780_2014-06-08_22-28-29_260595134347_rgbf000126-resize_1-target.png,125,3.3825,1.6,11427,124,meters,jsons/VE125_randls_51.json,1930824,2335274,56,Man
19,887257,DepthScenes,duration_manipulation_targetAtFixation,jsons/VE125_randls_51.json,http://54.235.29.9/FacialAge/BNav_EC2/DepthDuration/v2_depth_duration_MTurk/v2_DepthDuration_HTML.html#324,324,1366,625,1366,768,9-3-2022,14-36-57,20,depth_duration_stimuli/001175_2014-06-17_15-45-55_260595134347_rgbf000129-resize_4/001175_2014-06-17_15-45-55_260595134347_rgbf000129-resize_4-target.png,125,4.255,1.6,9051,123,meters,jsons/VE125_randls_51.json,1930824,2335274,56,Man
20,887257,DepthScenes,duration_manipulation_targetAtFixation,jsons/VE125_randls_51.json,http://54.235.29.9/FacialAge/BNav_EC2/DepthDuration/v2_depth_duration_MTurk/v2_DepthDuration_HTML.html#324,324,1366,625,1366,768,9-3-2022,14-36-57,21,depth_duration_stimuli/003490_2014-05-21_15-50-11_094959634447_rgbf000101-resize_3/003490_2014-05-21_15-50-11_094959634447_rgbf000101-resize_3-target.png,125,3.6445,0.5,6412,126,meters,jsons/VE125_randls_51.json,1930824,2335274,56,Man
21,887257,DepthScenes,duration_manipulation_targetAtFixation,jsons/VE125_randls_51.json,http://54.235.29.9/FacialAge/BNav_EC2/DepthDuration/v2_depth_duration_MTurk/v2_DepthDuration_HTML.html#324,324,1366,625,1366,768,9-3-2022,14-36-57,22,depth_duration_stimuli/001570_2014-06-20_17-21-09_260595134347_rgbf000135-resize_4/001570_2014-06-20_17-21-09_260595134347_rgbf000135-resize_4-target.png,125,4.467,2.6,23324,125,meters,jsons/VE125_randls_51.json,1930824,2335274,56,Man
22,887257,DepthScenes,duration_manipulation_targetAtFixation,jsons/VE125_randls_51.json,http://54.235.29.9/FacialAge/BNav_EC2/DepthDuration/v2_depth_duration_MTurk/v2_DepthDuration_HTML.html#324,324,1366,625,1366,768,9-3-2022,14-36-57,23,depth_duration_stimuli/001392_2014-06-19_16-07-59_260595134347_rgbf000046-resize_1/001392_2014-06-19_16-07-59_260595134347_rgbf000046-resize_1-target.png,125,4.135,2.4,4633,125,meters,jsons/VE125_randls_51.json,1930824,2335274,56,Man
23,887257,DepthScenes,duration_manipulation_targetAtFixation,jsons/VE125_randls_51.json,http://54.235.29.9/FacialAge/BNav_EC2/DepthDuration/v2_depth_duration_MTurk/v2_DepthDuration_HTML.html#324,324,1366,625,1366,768,9-3-2022,14-36-57,24,depth_duration_stimuli/000368_2014-06-09_15-53-01_260595134347_rgbf000155-resize_2/000368_2014-06-09_15-53-01_260595134347_rgbf000155-resize_2-target.png,125,2.4859999999999998,0.3,27694,126,meters,jsons/VE125_randls_51.json,1930824,2335274,56,Man
24,887257,DepthScenes,duration_manipulation_targetAtFixation,jsons/VE125_randls_51.json,http://54.235.29.9/FacialAge/BNav_EC2/DepthDuration/v2_depth_duration_MTurk/v2_DepthDuration_HTML.html#324,324,1366,625,1366,768,9-3-2022,14-36-57,25,depth_duration_stimuli/002678_2014-06-13_16-15-32_094959634447_rgbf000151-resize_6/002678_2014-06-13_16-15-32_094959634447_rgbf000151-resize_6-target.png,125,2.1830000000000003,0.9,21165,124,meters,jsons/VE125_randls_51.json,1930824,2335274,56,Man
25,887257,DepthScenes,duration_manipulation_targetAtFixation,jsons/VE125_randls_51.json,http://54.235.29.9/FacialAge/BNav_EC2/DepthDuration/v2_depth_duration_MTurk/v2_DepthDuration_HTML.html#324,324,1366,625,1366,768,9-3-2022,14-36-57,26,depth_duration_stimuli/002988_2014-06-15_12-24-20_094959634447_rgbf000150-resize_1/002988_2014-06-15_12-24-20_094959634447_rgbf000150-resize_1-target.png,125,4.7669999999999995,1.6,21425,125,meters,jsons/VE125_randls_51.json,1930824,2335274,56,Man
26,887257,DepthScenes,duration_manipulation_targetAtFixation,jsons/VE125_randls_51.json,http://54.235.29.9/FacialAge/BNav_EC2/DepthDuration/v2_depth_duration_MTurk/v2_DepthDuration_HTML.html#324,324,1366,625,1366,768,9-3-2022,14-36-57,27,depth_duration_stimuli/001052_2014-06-08_18-24-54_260595134347_rgbf000130-resize_1/001052_2014-06-08_18-24-54_260595134347_rgbf000130-resize_1-target.png,125,4.1045,2.0,5012,125,meters,jsons/VE125_randls_51.json,1930824,2335274,56,Man
27,887257,DepthScenes,duration_manipulation_targetAtFixation,jsons/VE125_randls_51.json,http://54.235.29.9/FacialAge/BNav_EC2/DepthDuration/v2_depth_duration_MTurk/v2_DepthDuration_HTML.html#324,324,1366,625,1366,768,9-3-2022,14-36-57,28,depth_duration_stimuli/002375_2014-06-28_20-13-44_260595134347_rgbf000032-resize_1/002375_2014-06-28_20-13-44_260595134347_rgbf000032-resize_1-target.png,125,4.0175,1.3,17311,125,meters,jsons/VE125_randls_51.json,1930824,2335274,56,Man
28,887257,DepthScenes,duration_manipulation_targetAtFixation,jsons/VE125_randls_51.json,http://54.235.29.9/FacialAge/BNav_EC2/DepthDuration/v2_depth_duration_MTurk/v2_DepthDuration_HTML.html#324,324,1366,625,1366,768,9-3-2022,14-36-57,29,depth_duration_stimuli/002657_2014-06-13_15-29-54_094959634447_rgbf000150-resize_1/002657_2014-06-13_15-29-54_094959634447_rgbf000150-resize_1-target.png,125,4.919,1.5,10035,128,meters,jsons/VE125_randls_51.json,1930824,2335274,56,Man
29,887257,DepthScenes,duration_manipulation_targetAtFixation,jsons/VE125_randls_51.json,http://54.235.29.9/FacialAge/BNav_EC2/DepthDuration/v2_depth_duration_MTurk/v2_DepthDuration_HTML.html#324,324,1366,625,1366,768,9-3-2022,14-36-57,30,depth_duration_stimuli/000375_2014-06-08_11-17-29_260595134347_rgbf000133-resize_2/000375_2014-06-08_11-17-29_260595134347_rgbf000133-resize-original.jpg,125,4.718,0.0,8428,125,meters,jsons/VE125_randls_51.json,1930824,2335274,56,Man
30,887257,DepthScenes,duration_manipulation_targetAtFixation,jsons/VE125_randls_51.json,http://54.235.29.9/FacialAge/BNav_EC2/DepthDuration/v2_depth_duration_MTurk/v2_DepthDuration_HTML.html#324,324,1366,625,1366,768,9-3-2022,14-36-57,31,depth_duration_stimuli/000773_2014-06-08_22-24-54_260595134347_rgbf000093-resize_1/000773_2014-06-08_22-24-54_260595134347_rgbf000093-resize_1-target.png,125,4.973,2.1,4564,127,meters,jsons/VE125_randls_51.json,1930824,2335274,56,Man
31,887257,DepthScenes,duration_manipulation_targetAtFixation,jsons/VE125_randls_51.json,http://54.235.29.9/FacialAge/BNav_EC2/DepthDuration/v2_depth_duration_MTurk/v2_DepthDuration_HTML.html#324,324,1366,625,1366,768,9-3-2022,14-36-57,32,depth_duration_stimuli/002414_2014-06-28_20-24-58_260595134347_rgbf000067-resize_4/002414_2014-06-28_20-24-58_260595134347_rgbf000067-resize_4-target.png,125,4.363,2.0,28433,110,meters,jsons/VE125_randls_51.json,1930824,2335274,56,Man
32,887257,DepthScenes,duration_manipulation_targetAtFixation,jsons/VE125_randls_51.json,http://54.235.29.9/FacialAge/BNav_EC2/DepthDuration/v2_depth_duration_MTurk/v2_DepthDuration_HTML.html#324,324,1366,625,1366,768,9-3-2022,14-36-57,33,depth_duration_stimuli/000506_2014-06-08_23-21-00_260595134347_rgbf000070-resize_7/000506_2014-06-08_23-21-00_260595134347_rgbf000070-resize_7-target.png,125,4.0585,1.2,14960,121,meters,jsons/VE125_randls_51.json,1930824,2335274,56,Man
33,887257,DepthScenes,duration_manipulation_targetAtFixation,jsons/VE125_randls_51.json,http://54.235.29.9/FacialAge/BNav_EC2/DepthDuration/v2_depth_duration_MTurk/v2_DepthDuration_HTML.html#324,324,1366,625,1366,768,9-3-2022,14-36-57,34,depth_duration_stimuli/003079_2014-06-15_15-18-20_094959634447_rgbf000152-resize_8/003079_2014-06-15_15-18-20_094959634447_rgbf000152-resize_8-target.png,125,2.8775,1.0,9815,118,meters,jsons/VE125_randls_51.json,1930824,2335274,56,Man
34,887257,DepthScenes,duration_manipulation_targetAtFixation,jsons/VE125_randls_51.json,http://54.235.29.9/FacialAge/BNav_EC2/DepthDuration/v2_depth_duration_MTurk/v2_DepthDuration_HTML.html#324,324,1366,625,1366,768,9-3-2022,14-36-57,35,depth_duration_stimuli/001011_2014-06-08_23-18-54_260595134347_rgbf000044-resize_4/001011_2014-06-08_23-18-54_260595134347_rgbf000044-resize_4-target.png,125,2.4730000000000003,1.2,5017,124,meters,jsons/VE125_randls_51.json,1930824,2335274,56,Man
35,887257,DepthScenes,duration_manipulation_targetAtFixation,jsons/VE125_randls_51.json,http://54.235.29.9/FacialAge/BNav_EC2/DepthDuration/v2_depth_duration_MTurk/v2_DepthDuration_HTML.html#324,324,1366,625,1366,768,9-3-2022,14-36-57,36,depth_duration_stimuli/002875_2014-06-01_15-19-00_094959634447_rgbf000151-resize_1/002875_2014-06-01_15-19-00_094959634447_rgbf000151-resize_1-target.png,125,1.9675,2.9,17436,125,meters,jsons/VE125_randls_51.json,1930824,2335274,56,Man
36,887257,DepthScenes,duration_manipulation_targetAtFixation,jsons/VE125_randls_51.json,http://54.235.29.9/FacialAge/BNav_EC2/DepthDuration/v2_depth_duration_MTurk/v2_DepthDuration_HTML.html#324,324,1366,625,1366,768,9-3-2022,14-36-57,37,depth_duration_stimuli/001029_2014-06-08_13-17-57_260595134347_rgbf000065-resize_1/001029_2014-06-08_13-17-57_260595134347_rgbf000065-resize_1-target.png,125,3.0835,2.8,17949,124,meters,jsons/VE125_randls_51.json,1930824,2335274,56,Man
37,887257,DepthScenes,duration_manipulation_targetAtFixation,jsons/VE125_randls_51.json,http://54.235.29.9/FacialAge/BNav_EC2/DepthDuration/v2_depth_duration_MTurk/v2_DepthDuration_HTML.html#324,324,1366,625,1366,768,9-3-2022,14-36-57,38,depth_duration_stimuli/000677_2014-06-08_23-10-32_260595134347_rgbf000158-resize_6/000677_2014-06-08_23-10-32_260595134347_rgbf000158-resize_6-target.png,125,3.556,2.3,11257,97,meters,jsons/VE125_randls_51.json,1930824,2335274,56,Man
38,887257,DepthScenes,duration_manipulation_targetAtFixation,jsons/VE125_randls_51.json,http://54.235.29.9/FacialAge/BNav_EC2/DepthDuration/v2_depth_duration_MTurk/v2_DepthDuration_HTML.html#324,324,1366,625,1366,768,9-3-2022,14-36-57,39,depth_duration_stimuli/000009_2014-05-26_14-32-05_260595134347_rgbf000034-resize_3/000009_2014-05-26_14-32-05_260595134347_rgbf000034-resize_3-target.png,125,3.8715,1.45,17442,127,meters,jsons/VE125_randls_51.json,1930824,2335274,56,Man
39,887257,DepthScenes,duration_manipulation_targetAtFixation,jsons/VE125_randls_51.json,http://54.235.29.9/FacialAge/BNav_EC2/DepthDuration/v2_depth_duration_MTurk/v2_DepthDuration_HTML.html#324,324,1366,625,1366,768,9-3-2022,14-36-57,40,depth_duration_stimuli/001828_2014-06-26_21-40-03_260595134347_rgbf000024-resize_0/001828_2014-06-26_21-40-03_260595134347_rgbf000024-resize_0-target.png,125,4.8260000000000005,2.3,8399,126,meters,jsons/VE125_randls_51.json,1930824,2335274,56,Man
40,887257,DepthScenes,duration_manipulation_targetAtFixation,jsons/VE125_randls_51.json,http://54.235.29.9/FacialAge/BNav_EC2/DepthDuration/v2_depth_duration_MTurk/v2_DepthDuration_HTML.html#324,324,1366,625,1366,768,9-3-2022,14-36-57,41,depth_duration_stimuli/000736_2014-06-08_18-24-15_260595134347_rgbf000206-resize_3/000736_2014-06-08_18-24-15_260595134347_rgbf000206-resize_3-target.png,125,3.515,2.0,13855,130,meters,jsons/VE125_randls_51.json,1930824,2335274,56,Man
41,887257,DepthScenes,duration_manipulation_targetAtFixation,jsons/VE125_randls_51.json,http://54.235.29.9/FacialAge/BNav_EC2/DepthDuration/v2_depth_duration_MTurk/v2_DepthDuration_HTML.html#324,324,1366,625,1366,768,9-3-2022,14-36-57,42,depth_duration_stimuli/000137_2014-05-20_17-04-49_260595134347_rgbf000120-resize_1/000137_2014-05-20_17-04-49_260595134347_rgbf000120-resize_1-target.png,125,3.786,1.7,7670,126,meters,jsons/VE125_randls_51.json,1930824,2335274,56,Man
42,887257,DepthScenes,duration_manipulation_targetAtFixation,jsons/VE125_randls_51.json,http://54.235.29.9/FacialAge/BNav_EC2/DepthDuration/v2_depth_duration_MTurk/v2_DepthDuration_HTML.html#324,324,1366,625,1366,768,9-3-2022,14-36-57,43,depth_duration_stimuli/002118_2014-06-25_20-32-08_260595134347_rgbf000078-resize_1/002118_2014-06-25_20-32-08_260595134347_rgbf000078-resize_1-target.png,125,2.6460000000000004,1.2,12667,134,meters,jsons/VE125_randls_51.json,1930824,2335274,56,Man
43,887257,DepthScenes,duration_manipulation_targetAtFixation,jsons/VE125_randls_51.json,http://54.235.29.9/FacialAge/BNav_EC2/DepthDuration/v2_depth_duration_MTurk/v2_DepthDuration_HTML.html#324,324,1366,625,1366,768,9-3-2022,14-36-57,44,depth_duration_stimuli/001516_2014-06-20_16-25-09_260595134347_rgbf000076-resize_2/001516_2014-06-20_16-25-09_260595134347_rgbf000076-resize_2-target.png,125,1.7445,1.5,5873,122,meters,jsons/VE125_randls_51.json,1930824,2335274,56,Man
44,887257,DepthScenes,duration_manipulation_targetAtFixation,jsons/VE125_randls_51.json,http://54.235.29.9/FacialAge/BNav_EC2/DepthDuration/v2_depth_duration_MTurk/v2_DepthDuration_HTML.html#324,324,1366,625,1366,768,9-3-2022,14-36-57,45,depth_duration_stimuli/000787_2014-06-08_22-33-53_260595134347_rgbf000175-resize_1/000787_2014-06-08_22-33-53_260595134347_rgbf000175-resize-original.jpg,125,4.784,2.3,14389,125,meters,jsons/VE125_randls_51.json,1930824,2335274,56,Man
45,887257,DepthScenes,duration_manipulation_targetAtFixation,jsons/VE125_randls_51.json,http://54.235.29.9/FacialAge/BNav_EC2/DepthDuration/v2_depth_duration_MTurk/v2_DepthDuration_HTML.html#324,324,1366,625,1366,768,9-3-2022,14-36-57,46,depth_duration_stimuli/001244_2014-06-17_16-47-45_260595134347_rgbf000030-resize_4/001244_2014-06-17_16-47-45_260595134347_rgbf000030-resize_4-target.png,125,2.0425,2.0,11018,122,meters,jsons/VE125_randls_51.json,1930824,2335274,56,Man
46,887257,DepthScenes,duration_manipulation_targetAtFixation,jsons/VE125_randls_51.json,http://54.235.29.9/FacialAge/BNav_EC2/DepthDuration/v2_depth_duration_MTurk/v2_DepthDuration_HTML.html#324,324,1366,625,1366,768,9-3-2022,14-36-57,47,depth_duration_stimuli/003495_2014-05-21_16-01-51_094959634447_rgbf000100-resize_3/003495_2014-05-21_16-01-51_094959634447_rgbf000100-resize_3-target.png,125,1.6255,1.2,12845,125,meters,jsons/VE125_randls_51.json,1930824,2335274,56,Man
47,887257,DepthScenes,duration_manipulation_targetAtFixation,jsons/VE125_randls_51.json,http://54.235.29.9/FacialAge/BNav_EC2/DepthDuration/v2_depth_duration_MTurk/v2_DepthDuration_HTML.html#324,324,1366,625,1366,768,9-3-2022,14-36-57,48,depth_duration_stimuli/003492_2014-05-21_15-50-55_094959634447_rgbf000828-resize_1/003492_2014-05-21_15-50-55_094959634447_rgbf000828-resize_1-target.png,125,4.06875,2.0,21853,134,meters,jsons/VE125_randls_51.json,1930824,2335274,56,Man
48,887257,DepthScenes,duration_manipulation_targetAtFixation,jsons/VE125_randls_51.json,http://54.235.29.9/FacialAge/BNav_EC2/DepthDuration/v2_depth_duration_MTurk/v2_DepthDuration_HTML.html#324,324,1366,625,1366,768,9-3-2022,14-36-57,49,depth_duration_stimuli/002568_2014-06-24_13-59-21_094959634447_rgbf000062-resize_4/002568_2014-06-24_13-59-21_094959634447_rgbf000062-resize_4-target.png,125,3.015,0.0,2928,124,meters,jsons/VE125_randls_51.json,1930824,2335274,56,Man
49,887257,DepthScenes,duration_manipulation_targetAtFixation,jsons/VE125_randls_51.json,http://54.235.29.9/FacialAge/BNav_EC2/DepthDuration/v2_depth_duration_MTurk/v2_DepthDuration_HTML.html#324,324,1366,625,1366,768,9-3-2022,14-36-57,50,depth_duration_stimuli/002213_2014-06-28_18-37-58_260595134347_rgbf000055-resize_1/002213_2014-06-28_18-37-58_260595134347_rgbf000055-resize_1-target.png,125,3.62,1.5,32813,129,meters,jsons/VE125_randls_51.json,1930824,2335274,56,Man
50,887257,DepthScenes,duration_manipulation_targetAtFixation,jsons/VE125_randls_51.json,http://54.235.29.9/FacialAge/BNav_EC2/DepthDuration/v2_depth_duration_MTurk/v2_DepthDuration_HTML.html#324,324,1366,625,1366,768,9-3-2022,14-36-57,51,depth_duration_stimuli/000691_2014-06-08_13-08-50_260595134347_rgbf000132-resize_3/000691_2014-06-08_13-08-50_260595134347_rgbf000132-resize_3-target.png,125,4.1530000000000005,0.9,5551,125,meters,jsons/VE125_randls_51.json,1930824,2335274,56,Man
51,887257,DepthScenes,duration_manipulation_targetAtFixation,jsons/VE125_randls_51.json,http://54.235.29.9/FacialAge/BNav_EC2/DepthDuration/v2_depth_duration_MTurk/v2_DepthDuration_HTML.html#324,324,1366,625,1366,768,9-3-2022,14-36-57,52,depth_duration_stimuli/001806_2014-06-26_20-50-20_260595134347_rgbf000091-resize_1/001806_2014-06-26_20-50-20_260595134347_rgbf000091-resize_1-target.png,125,2.7305,0.4,14180,125,meters,jsons/VE125_randls_51.json,1930824,2335274,56,Man
52,887257,DepthScenes,duration_manipulation_targetAtFixation,jsons/VE125_randls_51.json,http://54.235.29.9/FacialAge/BNav_EC2/DepthDuration/v2_depth_duration_MTurk/v2_DepthDuration_HTML.html#324,324,1366,625,1366,768,9-3-2022,14-36-57,53,depth_duration_stimuli/001617_2014-06-20_11-35-32_260595134347_rgbf000066-resize_1/001617_2014-06-20_11-35-32_260595134347_rgbf000066-resize_1-target.png,125,3.7910000000000004,1.0,6235,125,meters,jsons/VE125_randls_51.json,1930824,2335274,56,Man
53,887257,DepthScenes,duration_manipulation_targetAtFixation,jsons/VE125_randls_51.json,http://54.235.29.9/FacialAge/BNav_EC2/DepthDuration/v2_depth_duration_MTurk/v2_DepthDuration_HTML.html#324,324,1366,625,1366,768,9-3-2022,14-36-57,54,depth_duration_stimuli/002964_2014-06-08_17-46-11_094959634447_rgbf000091-resize_4/002964_2014-06-08_17-46-11_094959634447_rgbf000091-resize_4-target.png,125,1.6909999999999998,2.0,19396,125,meters,jsons/VE125_randls_51.json,1930824,2335274,56,Man
54,887257,DepthScenes,duration_manipulation_targetAtFixation,jsons/VE125_randls_51.json,http://54.235.29.9/FacialAge/BNav_EC2/DepthDuration/v2_depth_duration_MTurk/v2_DepthDuration_HTML.html#324,324,1366,625,1366,768,9-3-2022,14-36-57,55,depth_duration_stimuli/002136_2014-06-25_21-18-03_260595134347_rgbf000109-resize_3/002136_2014-06-25_21-18-03_260595134347_rgbf000109-resize_3-target.png,125,1.9569999999999999,1.0,5681,123,meters,jsons/VE125_randls_51.json,1930824,2335274,56,Man
55,887257,DepthScenes,duration_manipulation_targetAtFixation,jsons/VE125_randls_51.json,http://54.235.29.9/FacialAge/BNav_EC2/DepthDuration/v2_depth_duration_MTurk/v2_DepthDuration_HTML.html#324,324,1366,625,1366,768,9-3-2022,14-36-57,56,depth_duration_stimuli/000917_2014-06-09_22-45-29_260595134347_rgbf000149-resize_3/000917_2014-06-09_22-45-29_260595134347_rgbf000149-resize_3-target.png,125,4.1865,1.3,18792,120,meters,jsons/VE125_randls_51.json,1930824,2335274,56,Man
56,887257,DepthScenes,duration_manipulation_targetAtFixation,jsons/VE125_randls_51.json,http://54.235.29.9/FacialAge/BNav_EC2/DepthDuration/v2_depth_duration_MTurk/v2_DepthDuration_HTML.html#324,324,1366,625,1366,768,9-3-2022,14-36-57,57,depth_duration_stimuli/002323_2014-06-28_20-01-54_260595134347_rgbf000051-resize_4/002323_2014-06-28_20-01-54_260595134347_rgbf000051-resize_4-target.png,125,3.7310000000000003,1.2,5476,127,meters,jsons/VE125_randls_51.json,1930824,2335274,56,Man
57,887257,DepthScenes,duration_manipulation_targetAtFixation,jsons/VE125_randls_51.json,http://54.235.29.9/FacialAge/BNav_EC2/DepthDuration/v2_depth_duration_MTurk/v2_DepthDuration_HTML.html#324,324,1366,625,1366,768,9-3-2022,14-36-57,58,depth_duration_stimuli/001056_2014-06-08_18-46-44_260595134347_rgbf000068-resize_0/001056_2014-06-08_18-46-44_260595134347_rgbf000068-resize_0-target.png,125,2.6625,1.0,17512,126,meters,jsons/VE125_randls_51.json,1930824,2335274,56,Man
58,887257,DepthScenes,duration_manipulation_targetAtFixation,jsons/VE125_randls_51.json,http://54.235.29.9/FacialAge/BNav_EC2/DepthDuration/v2_depth_duration_MTurk/v2_DepthDuration_HTML.html#324,324,1366,625,1366,768,9-3-2022,14-36-57,59,depth_duration_stimuli/002199_2014-06-28_18-33-56_260595134347_rgbf000074-resize_0/002199_2014-06-28_18-33-56_260595134347_rgbf000074-resize_0-target.png,125,1.996,80.0,17410,125,meters,jsons/VE125_randls_51.json,1930824,2335274,56,Man
59,887257,DepthScenes,duration_manipulation_targetAtFixation,jsons/VE125_randls_51.json,http://54.235.29.9/FacialAge/BNav_EC2/DepthDuration/v2_depth_duration_MTurk/v2_DepthDuration_HTML.html#324,324,1366,625,1366,768,9-3-2022,14-36-57,60,depth_duration_stimuli/000929_2014-06-09_16-33-19_260595134347_rgbf000139-resize_0/000929_2014-06-09_16-33-19_260595134347_rgbf000139-resize_0-target.png,125,2.8680000000000003,0.8,18550,132,meters,jsons/VE125_randls_51.json,1930824,2335274,56,Man
60,887257,DepthScenes,duration_manipulation_targetAtFixation,jsons/VE125_randls_51.json,http://54.235.29.9/FacialAge/BNav_EC2/DepthDuration/v2_depth_duration_MTurk/v2_DepthDuration_HTML.html#324,324,1366,625,1366,768,9-3-2022,14-36-57,61,depth_duration_stimuli/000457_2014-06-08_16-52-43_260595134347_rgbf000199-resize_1/000457_2014-06-08_16-52-43_260595134347_rgbf000199-resize_1-target.png,125,3.6489999999999996,2.8,8045,129,meters,jsons/VE125_randls_51.json,1930824,2335274,56,Man
61,887257,DepthScenes,duration_manipulation_targetAtFixation,jsons/VE125_randls_51.json,http://54.235.29.9/FacialAge/BNav_EC2/DepthDuration/v2_depth_duration_MTurk/v2_DepthDuration_HTML.html#324,324,1366,625,1366,768,9-3-2022,14-36-57,62,depth_duration_stimuli/000758_2014-06-08_22-05-08_260595134347_rgbf000085-resize_0/000758_2014-06-08_22-05-08_260595134347_rgbf000085-resize_0-target.png,125,3.3810000000000002,2.5,11597,126,meters,jsons/VE125_randls_51.json,1930824,2335274,56,Man
62,887257,DepthScenes,duration_manipulation_targetAtFixation,jsons/VE125_randls_51.json,http://54.235.29.9/FacialAge/BNav_EC2/DepthDuration/v2_depth_duration_MTurk/v2_DepthDuration_HTML.html#324,324,1366,625,1366,768,9-3-2022,14-36-57,63,depth_duration_stimuli/000854_2014-06-09_19-43-13_260595134347_rgbf000066-resize_0/000854_2014-06-09_19-43-13_260595134347_rgbf000066-resize_0-target.png,125,3.068,2.1,4574,127,meters,jsons/VE125_randls_51.json,1930824,2335274,56,Man
63,887257,DepthScenes,duration_manipulation_targetAtFixation,jsons/VE125_randls_51.json,http://54.235.29.9/FacialAge/BNav_EC2/DepthDuration/v2_depth_duration_MTurk/v2_DepthDuration_HTML.html#324,324,1366,625,1366,768,9-3-2022,14-36-57,64,depth_duration_stimuli/000522_2014-06-08_13-35-06_260595134347_rgbf000244-resize_1/000522_2014-06-08_13-35-06_260595134347_rgbf000244-resize_1-target.png,125,2.3715,1.3,11803,130,meters,jsons/VE125_randls_51.json,1930824,2335274,56,Man
64,887257,DepthScenes,duration_manipulation_targetAtFixation,jsons/VE125_randls_51.json,http://54.235.29.9/FacialAge/BNav_EC2/DepthDuration/v2_depth_duration_MTurk/v2_DepthDuration_HTML.html#324,324,1366,625,1366,768,9-3-2022,14-36-57,65,depth_duration_stimuli/002949_2014-06-26_15-57-42_094959634447_rgbf000079-resize_1/002949_2014-06-26_15-57-42_094959634447_rgbf000079-resize_1-target.png,125,1.8915,0.8,6042,128,meters,jsons/VE125_randls_51.json,1930824,2335274,56,Man
65,887257,DepthScenes,duration_manipulation_targetAtFixation,jsons/VE125_randls_51.json,http://54.235.29.9/FacialAge/BNav_EC2/DepthDuration/v2_depth_duration_MTurk/v2_DepthDuration_HTML.html#324,324,1366,625,1366,768,9-3-2022,14-36-57,66,depth_duration_stimuli/001222_2014-06-17_16-24-06_260595134347_rgbf000073-resize_0/001222_2014-06-17_16-24-06_260595134347_rgbf000073-resize-original.jpg,125,1.4385,2.1,12943,125,meters,jsons/VE125_randls_51.json,1930824,2335274,56,Man
66,887257,DepthScenes,duration_manipulation_targetAtFixation,jsons/VE125_randls_51.json,http://54.235.29.9/FacialAge/BNav_EC2/DepthDuration/v2_depth_duration_MTurk/v2_DepthDuration_HTML.html#324,324,1366,625,1366,768,9-3-2022,14-36-57,67,depth_duration_stimuli/001055_2014-06-08_18-45-35_260595134347_rgbf000111-resize_4/001055_2014-06-08_18-45-35_260595134347_rgbf000111-resize_4-target.png,125,2.4290000000000003,1.6,10897,149,meters,jsons/VE125_randls_51.json,1930824,2335274,56,Man
67,887257,DepthScenes,duration_manipulation_targetAtFixation,jsons/VE125_randls_51.json,http://54.235.29.9/FacialAge/BNav_EC2/DepthDuration/v2_depth_duration_MTurk/v2_DepthDuration_HTML.html#324,324,1366,625,1366,768,9-3-2022,14-36-57,68,depth_duration_stimuli/000549_2014-06-08_22-10-24_260595134347_rgbf000247-resize_3/000549_2014-06-08_22-10-24_260595134347_rgbf000247-resize_3-target.png,125,1.841,0.3,9441,116,meters,jsons/VE125_randls_51.json,1930824,2335274,56,Man
68,887257,DepthScenes,duration_manipulation_targetAtFixation,jsons/VE125_randls_51.json,http://54.235.29.9/FacialAge/BNav_EC2/DepthDuration/v2_depth_duration_MTurk/v2_DepthDuration_HTML.html#324,324,1366,625,1366,768,9-3-2022,14-36-57,69,depth_duration_stimuli/001110_2014-06-15_17-25-28_260595134347_rgbf000150-resize_1/001110_2014-06-15_17-25-28_260595134347_rgbf000150-resize_1-target.png,125,1.7115,1.0,45142,134,meters,jsons/VE125_randls_51.json,1930824,2335274,56,Man
69,887257,DepthScenes,duration_manipulation_targetAtFixation,jsons/VE125_randls_51.json,http://54.235.29.9/FacialAge/BNav_EC2/DepthDuration/v2_depth_duration_MTurk/v2_DepthDuration_HTML.html#324,324,1366,625,1366,768,9-3-2022,14-36-57,70,depth_duration_stimuli/000927_2014-06-09_16-32-30_260595134347_rgbf000123-resize_3/000927_2014-06-09_16-32-30_260595134347_rgbf000123-resize_3-target.png,125,2.6785,2.0,4992,129,meters,jsons/VE125_randls_51.json,1930824,2335274,56,Man
70,887257,DepthScenes,duration_manipulation_targetAtFixation,jsons/VE125_randls_51.json,http://54.235.29.9/FacialAge/BNav_EC2/DepthDuration/v2_depth_duration_MTurk/v2_DepthDuration_HTML.html#324,324,1366,625,1366,768,9-3-2022,14-36-57,71,depth_duration_stimuli/003292_2014-05-14_21-53-49_094959634447_rgbf000100-resize_2/003292_2014-05-14_21-53-49_094959634447_rgbf000100-resize_2-target.png,125,3.4815,1.2,11858,124,meters,jsons/VE125_randls_51.json,1930824,2335274,56,Man
71,887257,DepthScenes,duration_manipulation_targetAtFixation,jsons/VE125_randls_51.json,http://54.235.29.9/FacialAge/BNav_EC2/DepthDuration/v2_depth_duration_MTurk/v2_DepthDuration_HTML.html#324,324,1366,625,1366,768,9-3-2022,14-36-57,72,depth_duration_stimuli/002639_2014-06-24_14-51-37_094959634447_rgbf000074-resize_4/002639_2014-06-24_14-51-37_094959634447_rgbf000074-resize_4-target.png,125,4.0375,1.1,14932,136,meters,jsons/VE125_randls_51.json,1930824,2335274,56,Man
72,887257,DepthScenes,duration_manipulation_targetAtFixation,jsons/VE125_randls_51.json,http://54.235.29.9/FacialAge/BNav_EC2/DepthDuration/v2_depth_duration_MTurk/v2_DepthDuration_HTML.html#324,324,1366,625,1366,768,9-3-2022,14-36-57,73,depth_duration_stimuli/000692_2014-06-08_13-09-42_260595134347_rgbf000199-resize_2/000692_2014-06-08_13-09-42_260595134347_rgbf000199-resize_2-target.png,125,3.661,2.0,15613,125,meters,jsons/VE125_randls_51.json,1930824,2335274,56,Man
73,887257,DepthScenes,duration_manipulation_targetAtFixation,jsons/VE125_randls_51.json,http://54.235.29.9/FacialAge/BNav_EC2/DepthDuration/v2_depth_duration_MTurk/v2_DepthDuration_HTML.html#324,324,1366,625,1366,768,9-3-2022,14-36-57,74,depth_duration_stimuli/001094_2014-06-15_17-36-00_260595134347_rgbf000205-resize_0/001094_2014-06-15_17-36-00_260595134347_rgbf000205-resize_0-target.png,125,4.2175,1.0,7634,125,meters,jsons/VE125_randls_51.json,1930824,2335274,56,Man
74,887257,DepthScenes,duration_manipulation_targetAtFixation,jsons/VE125_randls_51.json,http://54.235.29.9/FacialAge/BNav_EC2/DepthDuration/v2_depth_duration_MTurk/v2_DepthDuration_HTML.html#324,324,1366,625,1366,768,9-3-2022,14-36-57,75,depth_duration_stimuli/001417_2014-06-19_16-25-36_260595134347_rgbf000115-resize_5/001417_2014-06-19_16-25-36_260595134347_rgbf000115-resize_5-target.png,125,4.6255,2.7,15366,126,meters,jsons/VE125_randls_51.json,1930824,2335274,56,Man
75,887257,DepthScenes,duration_manipulation_targetAtFixation,jsons/VE125_randls_51.json,http://54.235.29.9/FacialAge/BNav_EC2/DepthDuration/v2_depth_duration_MTurk/v2_DepthDuration_HTML.html#324,324,1366,625,1366,768,9-3-2022,14-36-57,76,depth_duration_stimuli/003081_2014-06-15_15-19-16_094959634447_rgbf000150-resize_1/003081_2014-06-15_15-19-16_094959634447_rgbf000150-resize_1-target.png,125,3.9125,1.7,5143,125,meters,jsons/VE125_randls_51.json,1930824,2335274,56,Man
76,887257,DepthScenes,duration_manipulation_targetAtFixation,jsons/VE125_randls_51.json,http://54.235.29.9/FacialAge/BNav_EC2/DepthDuration/v2_depth_duration_MTurk/v2_DepthDuration_HTML.html#324,324,1366,625,1366,768,9-3-2022,14-36-57,77,depth_duration_stimuli/000470_2014-06-09_19-42-40_260595134347_rgbf000094-resize_1/000470_2014-06-09_19-42-40_260595134347_rgbf000094-resize_1-target.png,125,1.831,1.8,10986,124,meters,jsons/VE125_randls_51.json,1930824,2335274,56,Man
77,887257,DepthScenes,duration_manipulation_targetAtFixation,jsons/VE125_randls_51.json,http://54.235.29.9/FacialAge/BNav_EC2/DepthDuration/v2_depth_duration_MTurk/v2_DepthDuration_HTML.html#324,324,1366,625,1366,768,9-3-2022,14-36-57,78,depth_duration_stimuli/000109_2014-05-14_23-41-52_260595134347_rgbf000035-resize_9/000109_2014-05-14_23-41-52_260595134347_rgbf000035-resize_9-target.png,125,1.3545,0.8,9274,128,meters,jsons/VE125_randls_51.json,1930824,2335274,56,Man
78,887257,DepthScenes,duration_manipulation_targetAtFixation,jsons/VE125_randls_51.json,http://54.235.29.9/FacialAge/BNav_EC2/DepthDuration/v2_depth_duration_MTurk/v2_DepthDuration_HTML.html#324,324,1366,625,1366,768,9-3-2022,14-36-57,79,depth_duration_stimuli/000447_2014-06-08_16-15-46_260595134347_rgbf000130-resize_1/000447_2014-06-08_16-15-46_260595134347_rgbf000130-resize_1-target.png,125,4.479,1.2,13778,124,meters,jsons/VE125_randls_51.json,1930824,2335274,56,Man
79,887257,DepthScenes,duration_manipulation_targetAtFixation,jsons/VE125_randls_51.json,http://54.235.29.9/FacialAge/BNav_EC2/DepthDuration/v2_depth_duration_MTurk/v2_DepthDuration_HTML.html#324,324,1366,625,1366,768,9-3-2022,14-36-57,80,depth_duration_stimuli/001447_2014-06-19_17-00-32_260595134347_rgbf000082-resize_5/001447_2014-06-19_17-00-32_260595134347_rgbf000082-resize_5-target.png,125,4.13775,2.0,8511,125,meters,jsons/VE125_randls_51.json,1930824,2335274,56,Man
80,887257,DepthScenes,duration_manipulation_targetAtFixation,jsons/VE125_randls_51.json,http://54.235.29.9/FacialAge/BNav_EC2/DepthDuration/v2_depth_duration_MTurk/v2_DepthDuration_HTML.html#324,324,1366,625,1366,768,9-3-2022,14-36-57,81,depth_duration_stimuli/002630_2014-06-24_14-47-50_094959634447_rgbf000055-resize_1/002630_2014-06-24_14-47-50_094959634447_rgbf000055-resize_1-target.png,125,3.0095,1.0,11014,132,meters,jsons/VE125_randls_51.json,1930824,2335274,56,Man
81,887257,DepthScenes,duration_manipulation_targetAtFixation,jsons/VE125_randls_51.json,http://54.235.29.9/FacialAge/BNav_EC2/DepthDuration/v2_depth_duration_MTurk/v2_DepthDuration_HTML.html#324,324,1366,625,1366,768,9-3-2022,14-36-57,82,depth_duration_stimuli/002758_2014-06-22_19-11-20_094959634447_rgbf000128-resize_1/002758_2014-06-22_19-11-20_094959634447_rgbf000128-resize_1-target.png,125,2.555,0.9,5530,129,meters,jsons/VE125_randls_51.json,1930824,2335274,56,Man
82,887257,DepthScenes,duration_manipulation_targetAtFixation,jsons/VE125_randls_51.json,http://54.235.29.9/FacialAge/BNav_EC2/DepthDuration/v2_depth_duration_MTurk/v2_DepthDuration_HTML.html#324,324,1366,625,1366,768,9-3-2022,14-36-57,83,depth_duration_stimuli/001164_2014-06-17_15-35-46_260595134347_rgbf000085-resize_3/001164_2014-06-17_15-35-46_260595134347_rgbf000085-resize_3-target.png,125,2.354,1.2,9923,123,meters,jsons/VE125_randls_51.json,1930824,2335274,56,Man
83,887257,DepthScenes,duration_manipulation_targetAtFixation,jsons/VE125_randls_51.json,http://54.235.29.9/FacialAge/BNav_EC2/DepthDuration/v2_depth_duration_MTurk/v2_DepthDuration_HTML.html#324,324,1366,625,1366,768,9-3-2022,14-36-57,84,depth_duration_stimuli/001136_2014-06-17_15-19-41_260595134347_rgbf000076-resize_3/001136_2014-06-17_15-19-41_260595134347_rgbf000076-resize_3-target.png,125,1.8655,1.5,7154,125,meters,jsons/VE125_randls_51.json,1930824,2335274,56,Man
84,887257,DepthScenes,duration_manipulation_targetAtFixation,jsons/VE125_randls_51.json,http://54.235.29.9/FacialAge/BNav_EC2/DepthDuration/v2_depth_duration_MTurk/v2_DepthDuration_HTML.html#324,324,1366,625,1366,768,9-3-2022,14-36-57,85,depth_duration_stimuli/001808_2014-06-26_20-50-58_260595134347_rgbf000029-resize_1/001808_2014-06-26_20-50-58_260595134347_rgbf000029-resize_1-target.png,125,4.249,1.9,12440,126,meters,jsons/VE125_randls_51.json,1930824,2335274,56,Man
85,887257,DepthScenes,duration_manipulation_targetAtFixation,jsons/VE125_randls_51.json,http://54.235.29.9/FacialAge/BNav_EC2/DepthDuration/v2_depth_duration_MTurk/v2_DepthDuration_HTML.html#324,324,1366,625,1366,768,9-3-2022,14-36-57,86,depth_duration_stimuli/001815_2014-06-26_20-52-55_260595134347_rgbf000020-resize_0/001815_2014-06-26_20-52-55_260595134347_rgbf000020-resize_0-target.png,125,3.3865,1.9,9196,125,meters,jsons/VE125_randls_51.json,1930824,2335274,56,Man
86,887257,DepthScenes,duration_manipulation_targetAtFixation,jsons/VE125_randls_51.json,http://54.235.29.9/FacialAge/BNav_EC2/DepthDuration/v2_depth_duration_MTurk/v2_DepthDuration_HTML.html#324,324,1366,625,1366,768,9-3-2022,14-36-57,87,depth_duration_stimuli/002153_2014-06-25_21-27-18_260595134347_rgbf000038-resize_5/002153_2014-06-25_21-27-18_260595134347_rgbf000038-resize_5-target.png,125,2.505,1.5,11370,125,meters,jsons/VE125_randls_51.json,1930824,2335274,56,Man
87,887257,DepthScenes,duration_manipulation_targetAtFixation,jsons/VE125_randls_51.json,http://54.235.29.9/FacialAge/BNav_EC2/DepthDuration/v2_depth_duration_MTurk/v2_DepthDuration_HTML.html#324,324,1366,625,1366,768,9-3-2022,14-36-57,88,depth_duration_stimuli/002660_2014-06-13_15-44-18_094959634447_rgbf001878-resize_2/002660_2014-06-13_15-44-18_094959634447_rgbf001878-resize_2-target.png,125,3.576,1.8,4678,124,meters,jsons/VE125_randls_51.json,1930824,2335274,56,Man
88,887257,DepthScenes,duration_manipulation_targetAtFixation,jsons/VE125_randls_51.json,http://54.235.29.9/FacialAge/BNav_EC2/DepthDuration/v2_depth_duration_MTurk/v2_DepthDuration_HTML.html#324,324,1366,625,1366,768,9-3-2022,14-36-57,89,depth_duration_stimuli/000493_2014-06-09_21-01-18_260595134347_rgbf000196-resize_3/000493_2014-06-09_21-01-18_260595134347_rgbf000196-resize_3-target.png,125,3.44,2.8,10690,129,meters,jsons/VE125_randls_51.json,1930824,2335274,56,Man
89,887257,DepthScenes,duration_manipulation_targetAtFixation,jsons/VE125_randls_51.json,http://54.235.29.9/FacialAge/BNav_EC2/DepthDuration/v2_depth_duration_MTurk/v2_DepthDuration_HTML.html#324,324,1366,625,1366,768,9-3-2022,14-36-57,90,depth_duration_stimuli/000191_2014-05-12_17-07-38_260595134347_rgbf000199-resize_0/000191_2014-05-12_17-07-38_260595134347_rgbf000199-resize_0-target.png,125,3.7995,1.6,8275,125,meters,jsons/VE125_randls_51.json,1930824,2335274,56,Man
90,887257,DepthScenes,duration_manipulation_targetAtFixation,jsons/VE125_randls_51.json,http://54.235.29.9/FacialAge/BNav_EC2/DepthDuration/v2_depth_duration_MTurk/v2_DepthDuration_HTML.html#324,324,1366,625,1366,768,9-3-2022,14-36-57,91,depth_duration_stimuli/002039_2014-06-24_20-22-38_260595134347_rgbf000084-resize_1/002039_2014-06-24_20-22-38_260595134347_rgbf000084-resize_1-target.png,125,4.408,1.8,16619,126,meters,jsons/VE125_randls_51.json,1930824,2335274,56,Man
91,887257,DepthScenes,duration_manipulation_targetAtFixation,jsons/VE125_randls_51.json,http://54.235.29.9/FacialAge/BNav_EC2/DepthDuration/v2_depth_duration_MTurk/v2_DepthDuration_HTML.html#324,324,1366,625,1366,768,9-3-2022,14-36-57,92,depth_duration_stimuli/002103_2014-06-25_20-00-40_260595134347_rgbf000049-resize_0/002103_2014-06-25_20-00-40_260595134347_rgbf000049-resize_0-target.png,125,4.105,1.7,7386,129,meters,jsons/VE125_randls_51.json,1930824,2335274,56,Man
92,887257,DepthScenes,duration_manipulation_targetAtFixation,jsons/VE125_randls_51.json,http://54.235.29.9/FacialAge/BNav_EC2/DepthDuration/v2_depth_duration_MTurk/v2_DepthDuration_HTML.html#324,324,1366,625,1366,768,9-3-2022,14-36-57,93,depth_duration_stimuli/001066_2014-06-08_22-03-20_260595134347_rgbf000066-resize_4/001066_2014-06-08_22-03-20_260595134347_rgbf000066-resize_4-target.png,125,4.2330000000000005,2.0,13185,130,meters,jsons/VE125_randls_51.json,1930824,2335274,56,Man
93,887257,DepthScenes,duration_manipulation_targetAtFixation,jsons/VE125_randls_51.json,http://54.235.29.9/FacialAge/BNav_EC2/DepthDuration/v2_depth_duration_MTurk/v2_DepthDuration_HTML.html#324,324,1366,625,1366,768,9-3-2022,14-36-57,94,depth_duration_stimuli/000742_2014-06-08_18-48-09_260595134347_rgbf000164-resize_4/000742_2014-06-08_18-48-09_260595134347_rgbf000164-resize_4-target.png,125,4.632,1.8,4676,126,meters,jsons/VE125_randls_51.json,1930824,2335274,56,Man
94,887257,DepthScenes,duration_manipulation_targetAtFixation,jsons/VE125_randls_51.json,http://54.235.29.9/FacialAge/BNav_EC2/DepthDuration/v2_depth_duration_MTurk/v2_DepthDuration_HTML.html#324,324,1366,625,1366,768,9-3-2022,14-36-57,95,depth_duration_stimuli/002748_2014-06-22_19-07-22_094959634447_rgbf000078-resize_1/002748_2014-06-22_19-07-22_094959634447_rgbf000078-resize_1-target.png,125,4.6705,3.0,10919,142,meters,jsons/VE125_randls_51.json,1930824,2335274,56,Man
95,887257,DepthScenes,duration_manipulation_targetAtFixation,jsons/VE125_randls_51.json,http://54.235.29.9/FacialAge/BNav_EC2/DepthDuration/v2_depth_duration_MTurk/v2_DepthDuration_HTML.html#324,324,1366,625,1366,768,9-3-2022,14-36-57,96,depth_duration_stimuli/002995_2014-06-15_12-31-26_094959634447_rgbf000150-resize_1/002995_2014-06-15_12-31-26_094959634447_rgbf000150-resize_1-target.png,125,3.8360000000000003,2.95,4827,125,meters,jsons/VE125_randls_51.json,1930824,2335274,56,Man
96,887257,DepthScenes,duration_manipulation_targetAtFixation,jsons/VE125_randls_51.json,http://54.235.29.9/FacialAge/BNav_EC2/DepthDuration/v2_depth_duration_MTurk/v2_DepthDuration_HTML.html#324,324,1366,625,1366,768,9-3-2022,14-36-57,97,depth_duration_stimuli/000414_2014-06-04_19-49-13_260595134347_rgbf000044-resize_0/000414_2014-06-04_19-49-13_260595134347_rgbf000044-resize_0-target.png,125,4.329,0.5,16278,127,meters,jsons/VE125_randls_51.json,1930824,2335274,56,Man
97,887257,DepthScenes,duration_manipulation_targetAtFixation,jsons/VE125_randls_51.json,http://54.235.29.9/FacialAge/BNav_EC2/DepthDuration/v2_depth_duration_MTurk/v2_DepthDuration_HTML.html#324,324,1366,625,1366,768,9-3-2022,14-36-57,98,depth_duration_stimuli/003129_2014-05-12_10-48-10_094959634447_rgbf000100-resize_0/003129_2014-05-12_10-48-10_094959634447_rgbf000100-resize_0-target.png,125,4.9305,1.2,8538,125,meters,jsons/VE125_randls_51.json,1930824,2335274,56,Man
98,887257,DepthScenes,duration_manipulation_targetAtFixation,jsons/VE125_randls_51.json,http://54.235.29.9/FacialAge/BNav_EC2/DepthDuration/v2_depth_duration_MTurk/v2_DepthDuration_HTML.html#324,324,1366,625,1366,768,9-3-2022,14-36-57,99,depth_duration_stimuli/001540_2014-06-20_17-01-05_260595134347_rgbf000086-resize_2/001540_2014-06-20_17-01-05_260595134347_rgbf000086-resize-original.jpg,125,1.459,1.6,13593,128,meters,jsons/VE125_randls_51.json,1930824,2335274,56,Man
99,887257,DepthScenes,duration_manipulation_targetAtFixation,jsons/VE125_randls_51.json,http://54.235.29.9/FacialAge/BNav_EC2/DepthDuration/v2_depth_duration_MTurk/v2_DepthDuration_HTML.html#324,324,1366,625,1366,768,9-3-2022,14-36-57,100,depth_duration_stimuli/003070_2014-06-15_14-58-27_094959634447_rgbf000150-resize_3/003070_2014-06-15_14-58-27_094959634447_rgbf000150-resize_3-target.png,125,2.9415,0.85,12696,118,meters,jsons/VE125_randls_51.json,1930824,2335274,56,Man
100,887257,DepthScenes,duration_manipulation_targetAtFixation,jsons/VE125_randls_51.json,http://54.235.29.9/FacialAge/BNav_EC2/DepthDuration/v2_depth_duration_MTurk/v2_DepthDuration_HTML.html#324,324,1366,625,1366,768,9-3-2022,14-36-57,101,depth_duration_stimuli/000943_2014-06-09_19-31-07_260595134347_rgbf000128-resize_1/000943_2014-06-09_19-31-07_260595134347_rgbf000128-resize_1-target.png,125,1.9765,2.1,4627,124,meters,jsons/VE125_randls_51.json,1930824,2335274,56,Man
101,887257,DepthScenes,duration_manipulation_targetAtFixation,jsons/VE125_randls_51.json,http://54.235.29.9/FacialAge/BNav_EC2/DepthDuration/v2_depth_duration_MTurk/v2_DepthDuration_HTML.html#324,324,1366,625,1366,768,9-3-2022,14-36-57,102,depth_duration_stimuli/002784_2014-06-22_19-26-30_094959634447_rgbf000083-resize_3/002784_2014-06-22_19-26-30_094959634447_rgbf000083-resize_3-target.png,125,1.8046666666667,0.4,11963,125,meters,jsons/VE125_randls_51.json,1930824,2335274,56,Man
102,887257,DepthScenes,duration_manipulation_targetAtFixation,jsons/VE125_randls_51.json,http://54.235.29.9/FacialAge/BNav_EC2/DepthDuration/v2_depth_duration_MTurk/v2_DepthDuration_HTML.html#324,324,1366,625,1366,768,9-3-2022,14-36-57,103,depth_duration_stimuli/001100_2014-06-15_17-46-26_260595134347_rgbf000225-resize_2/001100_2014-06-15_17-46-26_260595134347_rgbf000225-resize_2-target.png,125,2.24,0.6,8868,128,meters,jsons/VE125_randls_51.json,1930824,2335274,56,Man
103,887257,DepthScenes,duration_manipulation_targetAtFixation,jsons/VE125_randls_51.json,http://54.235.29.9/FacialAge/BNav_EC2/DepthDuration/v2_depth_duration_MTurk/v2_DepthDuration_HTML.html#324,324,1366,625,1366,768,9-3-2022,14-36-57,104,depth_duration_stimuli/000788_2014-06-08_22-34-36_260595134347_rgbf000131-resize_1/000788_2014-06-08_22-34-36_260595134347_rgbf000131-resize_1-target.png,125,3.359,1.4,13504,138,meters,jsons/VE125_randls_51.json,1930824,2335274,56,Man
104,887257,DepthScenes,duration_manipulation_targetAtFixation,jsons/VE125_randls_51.json,http://54.235.29.9/FacialAge/BNav_EC2/DepthDuration/v2_depth_duration_MTurk/v2_DepthDuration_HTML.html#324,324,1366,625,1366,768,9-3-2022,14-36-57,105,depth_duration_stimuli/001235_2014-06-17_16-37-36_260595134347_rgbf000084-resize_4/001235_2014-06-17_16-37-36_260595134347_rgbf000084-resize_4-target.png,125,3.6605,1.5,6010,160,meters,jsons/VE125_randls_51.json,1930824,2335274,56,Man
105,887257,DepthScenes,duration_manipulation_targetAtFixation,jsons/VE125_randls_51.json,http://54.235.29.9/FacialAge/BNav_EC2/DepthDuration/v2_depth_duration_MTurk/v2_DepthDuration_HTML.html#324,324,1366,625,1366,768,9-3-2022,14-36-57,106,depth_duration_stimuli/002600_2014-06-24_14-27-04_094959634447_rgbf000074-resize_2/002600_2014-06-24_14-27-04_094959634447_rgbf000074-resize_2-target.png,125,2.7575,1.2,14339,126,meters,jsons/VE125_randls_51.json,1930824,2335274,56,Man
106,887257,DepthScenes,duration_manipulation_targetAtFixation,jsons/VE125_randls_51.json,http://54.235.29.9/FacialAge/BNav_EC2/DepthDuration/v2_depth_duration_MTurk/v2_DepthDuration_HTML.html#324,324,1366,625,1366,768,9-3-2022,14-36-57,107,depth_duration_stimuli/003228_2014-05-14_13-42-35_094959634447_rgbf000101-resize_1/003228_2014-05-14_13-42-35_094959634447_rgbf000101-resize_1-target.png,125,1.9680000000000002,0.9,4506,125,meters,jsons/VE125_randls_51.json,1930824,2335274,56,Man
107,887257,DepthScenes,duration_manipulation_targetAtFixation,jsons/VE125_randls_51.json,http://54.235.29.9/FacialAge/BNav_EC2/DepthDuration/v2_depth_duration_MTurk/v2_DepthDuration_HTML.html#324,324,1366,625,1366,768,9-3-2022,14-36-57,108,depth_duration_stimuli/002905_2014-06-03_18-04-43_094959634447_rgbf000151-resize_2/002905_2014-06-03_18-04-43_094959634447_rgbf000151-resize_2-target.png,125,2.0295,0.8,13615,127,meters,jsons/VE125_randls_51.json,1930824,2335274,56,Man
108,887257,DepthScenes,duration_manipulation_targetAtFixation,jsons/VE125_randls_51.json,http://54.235.29.9/FacialAge/BNav_EC2/DepthDuration/v2_depth_duration_MTurk/v2_DepthDuration_HTML.html#324,324,1366,625,1366,768,9-3-2022,14-36-57,109,depth_duration_stimuli/003423_2014-05-21_10-23-26_094959634447_rgbf002665-resize_2/003423_2014-05-21_10-23-26_094959634447_rgbf002665-resize_2-target.png,125,3.2575,0.5,10610,124,meters,jsons/VE125_randls_51.json,1930824,2335274,56,Man
109,887257,DepthScenes,duration_manipulation_targetAtFixation,jsons/VE125_randls_51.json,http://54.235.29.9/FacialAge/BNav_EC2/DepthDuration/v2_depth_duration_MTurk/v2_DepthDuration_HTML.html#324,324,1366,625,1366,768,9-3-2022,14-36-57,110,depth_duration_stimuli/001199_2014-06-17_16-03-48_260595134347_rgbf000077-resize_0/001199_2014-06-17_16-03-48_260595134347_rgbf000077-resize_0-target.png,125,3.4375,1.5,16056,125,meters,jsons/VE125_randls_51.json,1930824,2335274,56,Man
110,887257,DepthScenes,duration_manipulation_targetAtFixation,jsons/VE125_randls_51.json,http://54.235.29.9/FacialAge/BNav_EC2/DepthDuration/v2_depth_duration_MTurk/v2_DepthDuration_HTML.html#324,324,1366,625,1366,768,9-3-2022,14-36-57,111,depth_duration_stimuli/000502_2014-06-08_23-02-32_260595134347_rgbf000063-resize_4/000502_2014-06-08_23-02-32_260595134347_rgbf000063-resize_4-target.png,125,2.431,1.0,6071,126,meters,jsons/VE125_randls_51.json,1930824,2335274,56,Man
111,887257,DepthScenes,duration_manipulation_targetAtFixation,jsons/VE125_randls_51.json,http://54.235.29.9/FacialAge/BNav_EC2/DepthDuration/v2_depth_duration_MTurk/v2_DepthDuration_HTML.html#324,324,1366,625,1366,768,9-3-2022,14-36-57,112,depth_duration_stimuli/000682_2014-06-08_23-14-58_260595134347_rgbf000041-resize_5/000682_2014-06-08_23-14-58_260595134347_rgbf000041-resize_5-target.png,125,2.7239999999999998,1.75,18248,122,meters,jsons/VE125_randls_51.json,1930824,2335274,56,Man
112,887257,DepthScenes,duration_manipulation_targetAtFixation,jsons/VE125_randls_51.json,http://54.235.29.9/FacialAge/BNav_EC2/DepthDuration/v2_depth_duration_MTurk/v2_DepthDuration_HTML.html#324,324,1366,625,1366,768,9-3-2022,14-36-57,113,depth_duration_stimuli/001650_2014-06-20_12-09-00_260595134347_rgbf000087-resize_3/001650_2014-06-20_12-09-00_260595134347_rgbf000087-resize_3-target.png,125,1.9505,1.65,7815,125,meters,jsons/VE125_randls_51.json,1930824,2335274,56,Man
113,887257,DepthScenes,duration_manipulation_targetAtFixation,jsons/VE125_randls_51.json,http://54.235.29.9/FacialAge/BNav_EC2/DepthDuration/v2_depth_duration_MTurk/v2_DepthDuration_HTML.html#324,324,1366,625,1366,768,9-3-2022,14-36-57,114,depth_duration_stimuli/002788_2014-06-22_19-36-03_094959634447_rgbf000088-resize_2/002788_2014-06-22_19-36-03_094959634447_rgbf000088-resize_2-target.png,125,1.6465,1.75,10619,133,meters,jsons/VE125_randls_51.json,1930824,2335274,56,Man
114,887257,DepthScenes,duration_manipulation_targetAtFixation,jsons/VE125_randls_51.json,http://54.235.29.9/FacialAge/BNav_EC2/DepthDuration/v2_depth_duration_MTurk/v2_DepthDuration_HTML.html#324,324,1366,625,1366,768,9-3-2022,14-36-57,115,depth_duration_stimuli/000749_2014-06-08_21-55-06_260595134347_rgbf000070-resize_2/000749_2014-06-08_21-55-06_260595134347_rgbf000070-resize_2-target.png,125,2.331,1.79,7140,127,meters,jsons/VE125_randls_51.json,1930824,2335274,56,Man
115,887257,DepthScenes,duration_manipulation_targetAtFixation,jsons/VE125_randls_51.json,http://54.235.29.9/FacialAge/BNav_EC2/DepthDuration/v2_depth_duration_MTurk/v2_DepthDuration_HTML.html#324,324,1366,625,1366,768,9-3-2022,14-36-57,116,depth_duration_stimuli/001170_2014-06-17_15-43-44_260595134347_rgbf000096-resize_6/001170_2014-06-17_15-43-44_260595134347_rgbf000096-resize-original.jpg,125,1.1909999999999998,1.81,12031,124,meters,jsons/VE125_randls_51.json,1930824,2335274,56,Man
116,887257,DepthScenes,duration_manipulation_targetAtFixation,jsons/VE125_randls_51.json,http://54.235.29.9/FacialAge/BNav_EC2/DepthDuration/v2_depth_duration_MTurk/v2_DepthDuration_HTML.html#324,324,1366,625,1366,768,9-3-2022,14-36-57,117,depth_duration_stimuli/002057_2014-06-24_21-00-13_260595134347_rgbf000120-resize_1/002057_2014-06-24_21-00-13_260595134347_rgbf000120-resize_1-target.png,125,2.967,1.77,11968,118,meters,jsons/VE125_randls_51.json,1930824,2335274,56,Man
117,887257,DepthScenes,duration_manipulation_targetAtFixation,jsons/VE125_randls_51.json,http://54.235.29.9/FacialAge/BNav_EC2/DepthDuration/v2_depth_duration_MTurk/v2_DepthDuration_HTML.html#324,324,1366,625,1366,768,9-3-2022,14-36-57,118,depth_duration_stimuli/000709_2014-06-08_13-51-55_260595134347_rgbf000068-resize_3/000709_2014-06-08_13-51-55_260595134347_rgbf000068-resize_3-target.png,125,1.8030000000000002,1.76,13011,124,meters,jsons/VE125_randls_51.json,1930824,2335274,56,Man
118,887257,DepthScenes,duration_manipulation_targetAtFixation,jsons/VE125_randls_51.json,http://54.235.29.9/FacialAge/BNav_EC2/DepthDuration/v2_depth_duration_MTurk/v2_DepthDuration_HTML.html#324,324,1366,625,1366,768,9-3-2022,14-36-57,119,depth_duration_stimuli/000878_2014-06-08_22-52-45_260595134347_rgbf000045-resize_2/000878_2014-06-08_22-52-45_260595134347_rgbf000045-resize_2-target.png,125,2.092,1.75,12548,119,meters,jsons/VE125_randls_51.json,1930824,2335274,56,Man
119,887257,DepthScenes,duration_manipulation_targetAtFixation,jsons/VE125_randls_51.json,http://54.235.29.9/FacialAge/BNav_EC2/DepthDuration/v2_depth_duration_MTurk/v2_DepthDuration_HTML.html#324,324,1366,625,1366,768,9-3-2022,14-36-57,120,depth_duration_stimuli/002953_2014-06-08_17-32-18_094959634447_rgbf000059-resize_5/002953_2014-06-08_17-32-18_094959634447_rgbf000059-resize_5-target.png,125,1.551,1.65,4369,114,meters,jsons/VE125_randls_51.json,1930824,2335274,56,Man
120,887257,DepthScenes,duration_manipulation_targetAtFixation,jsons/VE125_randls_51.json,http://54.235.29.9/FacialAge/BNav_EC2/DepthDuration/v2_depth_duration_MTurk/v2_DepthDuration_HTML.html#324,324,1366,625,1366,768,9-3-2022,14-36-57,121,depth_duration_stimuli/000810_2014-06-08_17-20-01_260595134347_rgbf000105-resize_0/000810_2014-06-08_17-20-01_260595134347_rgbf000105-resize_0-target.png,125,1.4865,1.85,11268,125,meters,jsons/VE125_randls_51.json,1930824,2335274,56,Man
121,887257,DepthScenes,duration_manipulation_targetAtFixation,jsons/VE125_randls_51.json,http://54.235.29.9/FacialAge/BNav_EC2/DepthDuration/v2_depth_duration_MTurk/v2_DepthDuration_HTML.html#324,324,1366,625,1366,768,9-3-2022,14-36-57,122,depth_duration_stimuli/001214_2014-06-17_16-13-55_260595134347_rgbf000111-resize_0/001214_2014-06-17_16-13-55_260595134347_rgbf000111-resize_0-target.png,125,2.6505,0.5,6098,123,meters,jsons/VE125_randls_51.json,1930824,2335274,56,Man
122,887257,DepthScenes,duration_manipulation_targetAtFixation,jsons/VE125_randls_51.json,http://54.235.29.9/FacialAge/BNav_EC2/DepthDuration/v2_depth_duration_MTurk/v2_DepthDuration_HTML.html#324,324,1366,625,1366,768,9-3-2022,14-36-57,123,depth_duration_stimuli/002725_2014-06-22_11-47-51_094959634447_rgbf000070-resize_1/002725_2014-06-22_11-47-51_094959634447_rgbf000070-resize_1-target.png,125,2.195,2.8,9608,123,meters,jsons/VE125_randls_51.json,1930824,2335274,56,Man
123,887257,DepthScenes,duration_manipulation_targetAtFixation,jsons/VE125_randls_51.json,http://54.235.29.9/FacialAge/BNav_EC2/DepthDuration/v2_depth_duration_MTurk/v2_DepthDuration_HTML.html#324,324,1366,625,1366,768,9-3-2022,14-36-57,124,depth_duration_stimuli/002344_2014-06-28_20-06-29_260595134347_rgbf000030-resize_1/002344_2014-06-28_20-06-29_260595134347_rgbf000030-resize_1-target.png,125,1.5795,2.1,6428,125,meters,jsons/VE125_randls_51.json,1930824,2335274,56,Man
124,887257,DepthScenes,duration_manipulation_targetAtFixation,jsons/VE125_randls_51.json,http://54.235.29.9/FacialAge/BNav_EC2/DepthDuration/v2_depth_duration_MTurk/v2_DepthDuration_HTML.html#324,324,1366,625,1366,768,9-3-2022,14-36-57,125,depth_duration_stimuli/002279_2014-06-28_18-55-32_260595134347_rgbf000040-resize_5/002279_2014-06-28_18-55-32_260595134347_rgbf000040-resize_5-target.png,125,1.5043333333333,1.5,10569,126,meters,jsons/VE125_randls_51.json,1930824,2335274,56,Man
125,887257,DepthScenes,duration_manipulation_targetAtFixation,jsons/VE125_randls_51.json,http://54.235.29.9/FacialAge/BNav_EC2/DepthDuration/v2_depth_duration_MTurk/v2_DepthDuration_HTML.html#324,324,1366,625,1366,768,9-3-2022,14-36-57,126,depth_duration_stimuli/000635_2014-06-08_16-38-42_260595134347_rgbf000106-resize_1/000635_2014-06-08_16-38-42_260595134347_rgbf000106-resize_1-target.png,125,2.074,2.0,4404,125,meters,jsons/VE125_randls_51.json,1930824,2335274,56,Man
126,887257,DepthScenes,duration_manipulation_targetAtFixation,jsons/VE125_randls_51.json,http://54.235.29.9/FacialAge/BNav_EC2/DepthDuration/v2_depth_duration_MTurk/v2_DepthDuration_HTML.html#324,324,1366,625,1366,768,9-3-2022,14-36-57,127,depth_duration_stimuli/002272_2014-06-28_18-53-56_260595134347_rgbf000067-resize_2/002272_2014-06-28_18-53-56_260595134347_rgbf000067-resize_2-target.png,125,1.138,0.5,11431,132,meters,jsons/VE125_randls_51.json,1930824,2335274,56,Man
127,887257,DepthScenes,duration_manipulation_targetAtFixation,jsons/VE125_randls_51.json,http://54.235.29.9/FacialAge/BNav_EC2/DepthDuration/v2_depth_duration_MTurk/v2_DepthDuration_HTML.html#324,324,1366,625,1366,768,9-3-2022,14-36-57,128,depth_duration_stimuli/001571_2014-06-20_17-21-32_260595134347_rgbf000089-resize_1/001571_2014-06-20_17-21-32_260595134347_rgbf000089-resize_1-target.png,125,1.86,1.5,6353,121,meters,jsons/VE125_randls_51.json,1930824,2335274,56,Man
128,887257,DepthScenes,duration_manipulation_targetAtFixation,jsons/VE125_randls_51.json,http://54.235.29.9/FacialAge/BNav_EC2/DepthDuration/v2_depth_duration_MTurk/v2_DepthDuration_HTML.html#324,324,1366,625,1366,768,9-3-2022,14-36-57,129,depth_duration_stimuli/002763_2014-06-22_19-13-10_094959634447_rgbf000075-resize_4/002763_2014-06-22_19-13-10_094959634447_rgbf000075-resize_4-target.png,125,1.68375,1.0,5849,123,meters,jsons/VE125_randls_51.json,1930824,2335274,56,Man
129,887257,DepthScenes,duration_manipulation_targetAtFixation,jsons/VE125_randls_51.json,http://54.235.29.9/FacialAge/BNav_EC2/DepthDuration/v2_depth_duration_MTurk/v2_DepthDuration_HTML.html#324,324,1366,625,1366,768,9-3-2022,14-36-57,130,depth_duration_stimuli/002209_2014-06-28_18-36-10_260595134347_rgbf000051-resize_1/002209_2014-06-28_18-36-10_260595134347_rgbf000051-resize_1-target.png,125,2.057,0.9,13053,124,meters,jsons/VE125_randls_51.json,1930824,2335274,56,Man
130,887257,DepthScenes,duration_manipulation_targetAtFixation,jsons/VE125_randls_51.json,http://54.235.29.9/FacialAge/BNav_EC2/DepthDuration/v2_depth_duration_MTurk/v2_DepthDuration_HTML.html#324,324,1366,625,1366,768,9-3-2022,14-36-57,131,depth_duration_stimuli/001158_2014-06-17_15-32-16_260595134347_rgbf000138-resize_2/001158_2014-06-17_15-32-16_260595134347_rgbf000138-resize_2-target.png,125,4.5315,1.6,10694,137,meters,jsons/VE125_randls_51.json,1930824,2335274,56,Man
131,887257,DepthScenes,duration_manipulation_targetAtFixation,jsons/VE125_randls_51.json,http://54.235.29.9/FacialAge/BNav_EC2/DepthDuration/v2_depth_duration_MTurk/v2_DepthDuration_HTML.html#324,324,1366,625,1366,768,9-3-2022,14-36-57,132,depth_duration_stimuli/000556_2014-06-09_22-42-56_260595134347_rgbf000214-resize_1/000556_2014-06-09_22-42-56_260595134347_rgbf000214-resize_1-target.png,125,4.8415,2.8,11133,121,meters,jsons/VE125_randls_51.json,1930824,2335274,56,Man
132,887257,DepthScenes,duration_manipulation_targetAtFixation,jsons/VE125_randls_51.json,http://54.235.29.9/FacialAge/BNav_EC2/DepthDuration/v2_depth_duration_MTurk/v2_DepthDuration_HTML.html#324,324,1366,625,1366,768,9-3-2022,14-36-57,133,depth_duration_stimuli/002663_2014-06-13_15-50-26_094959634447_rgbf000075-resize_1/002663_2014-06-13_15-50-26_094959634447_rgbf000075-resize_1-target.png,125,4.7495,2.9,14234,125,meters,jsons/VE125_randls_51.json,1930824,2335274,56,Man
133,887257,DepthScenes,duration_manipulation_targetAtFixation,jsons/VE125_randls_51.json,http://54.235.29.9/FacialAge/BNav_EC2/DepthDuration/v2_depth_duration_MTurk/v2_DepthDuration_HTML.html#324,324,1366,625,1366,768,9-3-2022,14-36-57,134,depth_duration_stimuli/000409_2014-06-04_19-23-33_260595134347_rgbf000067-resize_0/000409_2014-06-04_19-23-33_260595134347_rgbf000067-resize_0-target.png,125,3.7335,1.8,5495,125,meters,jsons/VE125_randls_51.json,1930824,2335274,56,Man
134,887257,DepthScenes,duration_manipulation_targetAtFixation,jsons/VE125_randls_51.json,http://54.235.29.9/FacialAge/BNav_EC2/DepthDuration/v2_depth_duration_MTurk/v2_DepthDuration_HTML.html#324,324,1366,625,1366,768,9-3-2022,14-36-57,135,depth_duration_stimuli/002072_2014-06-24_21-48-06_260595134347_rgbf000115-resize_0/002072_2014-06-24_21-48-06_260595134347_rgbf000115-resize-original.jpg,125,4.702,1.5,10985,120,meters,jsons/VE125_randls_51.json,1930824,2335274,56,Man
135,887257,DepthScenes,duration_manipulation_targetAtFixation,jsons/VE125_randls_51.json,http://54.235.29.9/FacialAge/BNav_EC2/DepthDuration/v2_depth_duration_MTurk/v2_DepthDuration_HTML.html#324,324,1366,625,1366,768,9-3-2022,14-36-57,136,depth_duration_stimuli/001555_2014-06-20_17-12-10_260595134347_rgbf000065-resize_4/001555_2014-06-20_17-12-10_260595134347_rgbf000065-resize_4-target.png,125,1.633,1.5,9811,125,meters,jsons/VE125_randls_51.json,1930824,2335274,56,Man
136,887257,DepthScenes,duration_manipulation_targetAtFixation,jsons/VE125_randls_51.json,http://54.235.29.9/FacialAge/BNav_EC2/DepthDuration/v2_depth_duration_MTurk/v2_DepthDuration_HTML.html#324,324,1366,625,1366,768,9-3-2022,14-36-57,137,depth_duration_stimuli/000103_2014-05-14_22-01-17_260595134347_rgbf000152-resize_5/000103_2014-05-14_22-01-17_260595134347_rgbf000152-resize_5-target.png,125,1.993,1.9,6826,126,meters,jsons/VE125_randls_51.json,1930824,2335274,56,Man
137,887257,DepthScenes,duration_manipulation_targetAtFixation,jsons/VE125_randls_51.json,http://54.235.29.9/FacialAge/BNav_EC2/DepthDuration/v2_depth_duration_MTurk/v2_DepthDuration_HTML.html#324,324,1366,625,1366,768,9-3-2022,14-36-57,138,depth_duration_stimuli/002989_2014-06-15_12-25-03_094959634447_rgbf000150-resize_3/002989_2014-06-15_12-25-03_094959634447_rgbf000150-resize_3-target.png,125,4.1975,1.4,8886,123,meters,jsons/VE125_randls_51.json,1930824,2335274,56,Man
138,887257,DepthScenes,duration_manipulation_targetAtFixation,jsons/VE125_randls_51.json,http://54.235.29.9/FacialAge/BNav_EC2/DepthDuration/v2_depth_duration_MTurk/v2_DepthDuration_HTML.html#324,324,1366,625,1366,768,9-3-2022,14-36-57,139,depth_duration_stimuli/000866_2014-06-09_20-45-42_260595134347_rgbf000139-resize_1/000866_2014-06-09_20-45-42_260595134347_rgbf000139-resize_1-target.png,125,3.2155,1.9,6222,125,meters,jsons/VE125_randls_51.json,1930824,2335274,56,Man
139,887257,DepthScenes,duration_manipulation_targetAtFixation,jsons/VE125_randls_51.json,http://54.235.29.9/FacialAge/BNav_EC2/DepthDuration/v2_depth_duration_MTurk/v2_DepthDuration_HTML.html#324,324,1366,625,1366,768,9-3-2022,14-36-57,140,depth_duration_stimuli/001167_2014-06-17_15-38-07_260595134347_rgbf000108-resize_0/001167_2014-06-17_15-38-07_260595134347_rgbf000108-resize_0-target.png,125,1.8505,2.5,9938,121,meters,jsons/VE125_randls_51.json,1930824,2335274,56,Man
140,887257,DepthScenes,duration_manipulation_targetAtFixation,jsons/VE125_randls_51.json,http://54.235.29.9/FacialAge/BNav_EC2/DepthDuration/v2_depth_duration_MTurk/v2_DepthDuration_HTML.html#324,324,1366,625,1366,768,9-3-2022,14-36-57,141,depth_duration_stimuli/003587_2014-05-23_16-48-02_094959634447_rgbf002384-resize_2/003587_2014-05-23_16-48-02_094959634447_rgbf002384-resize_2-target.png,125,1.357,0.3,5629,124,meters,jsons/VE125_randls_51.json,1930824,2335274,56,Man
141,887257,DepthScenes,duration_manipulation_targetAtFixation,jsons/VE125_randls_51.json,http://54.235.29.9/FacialAge/BNav_EC2/DepthDuration/v2_depth_duration_MTurk/v2_DepthDuration_HTML.html#324,324,1366,625,1366,768,9-3-2022,14-36-57,142,depth_duration_stimuli/001016_2014-06-09_16-16-10_260595134347_rgbf000112-resize_5/001016_2014-06-09_16-16-10_260595134347_rgbf000112-resize_5-target.png,125,1.6565,3.0,6848,127,meters,jsons/VE125_randls_51.json,1930824,2335274,56,Man
142,887257,DepthScenes,duration_manipulation_targetAtFixation,jsons/VE125_randls_51.json,http://54.235.29.9/FacialAge/BNav_EC2/DepthDuration/v2_depth_duration_MTurk/v2_DepthDuration_HTML.html#324,324,1366,625,1366,768,9-3-2022,14-36-57,143,depth_duration_stimuli/002340_2014-06-28_20-05-46_260595134347_rgbf000113-resize_0/002340_2014-06-28_20-05-46_260595134347_rgbf000113-resize_0-target.png,125,2.4735,2.9,4978,126,meters,jsons/VE125_randls_51.json,1930824,2335274,56,Man
143,887257,DepthScenes,duration_manipulation_targetAtFixation,jsons/VE125_randls_51.json,http://54.235.29.9/FacialAge/BNav_EC2/DepthDuration/v2_depth_duration_MTurk/v2_DepthDuration_HTML.html#324,324,1366,625,1366,768,9-3-2022,14-36-57,144,depth_duration_stimuli/001092_2014-06-15_17-34-58_260595134347_rgbf000171-resize_3/001092_2014-06-15_17-34-58_260595134347_rgbf000171-resize_3-target.png,125,2.6935,1.2,9118,125,meters,jsons/VE125_randls_51.json,1930824,2335274,56,Man
144,887257,DepthScenes,duration_manipulation_targetAtFixation,jsons/VE125_randls_51.json,http://54.235.29.9/FacialAge/BNav_EC2/DepthDuration/v2_depth_duration_MTurk/v2_DepthDuration_HTML.html#324,324,1366,625,1366,768,9-3-2022,14-36-57,145,depth_duration_stimuli/002545_2014-06-24_13-38-53_094959634447_rgbf000080-resize_4/002545_2014-06-24_13-38-53_094959634447_rgbf000080-resize_4-target.png,125,1.9205,1.0,6939,102,meters,jsons/VE125_randls_51.json,1930824,2335274,56,Man
145,887257,DepthScenes,duration_manipulation_targetAtFixation,jsons/VE125_randls_51.json,http://54.235.29.9/FacialAge/BNav_EC2/DepthDuration/v2_depth_duration_MTurk/v2_DepthDuration_HTML.html#324,324,1366,625,1366,768,9-3-2022,14-36-57,146,depth_duration_stimuli/001498_2014-06-19_17-45-14_260595134347_rgbf000129-resize_4/001498_2014-06-19_17-45-14_260595134347_rgbf000129-resize-original.jpg,125,1.4075,0.0,10584,122,meters,jsons/VE125_randls_51.json,1930824,2335274,56,Man
146,887257,DepthScenes,duration_manipulation_targetAtFixation,jsons/VE125_randls_51.json,http://54.235.29.9/FacialAge/BNav_EC2/DepthDuration/v2_depth_duration_MTurk/v2_DepthDuration_HTML.html#324,324,1366,625,1366,768,9-3-2022,14-36-57,147,depth_duration_stimuli/002509_2014-06-24_13-19-22_094959634447_rgbf000077-resize_0/002509_2014-06-24_13-19-22_094959634447_rgbf000077-resize_0-target.png,125,1.3065,0.7,12697,126,meters,jsons/VE125_randls_51.json,1930824,2335274,56,Man
147,887257,DepthScenes,duration_manipulation_targetAtFixation,jsons/VE125_randls_51.json,http://54.235.29.9/FacialAge/BNav_EC2/DepthDuration/v2_depth_duration_MTurk/v2_DepthDuration_HTML.html#324,324,1366,625,1366,768,9-3-2022,14-36-57,148,depth_duration_stimuli/003338_2014-05-20_11-01-23_094959634447_rgbf000051-resize_6/003338_2014-05-20_11-01-23_094959634447_rgbf000051-resize_6-target.png,125,1.693,0.8,4452,154,meters,jsons/VE125_randls_51.json,1930824,2335274,56,Man
148,887257,DepthScenes,duration_manipulation_targetAtFixation,jsons/VE125_randls_51.json,http://54.235.29.9/FacialAge/BNav_EC2/DepthDuration/v2_depth_duration_MTurk/v2_DepthDuration_HTML.html#324,324,1366,625,1366,768,9-3-2022,14-36-57,149,depth_duration_stimuli/003534_2014-05-22_15-06-10_094959634447_rgbf000102-resize_4/003534_2014-05-22_15-06-10_094959634447_rgbf000102-resize_4-target.png,125,1.426,0.3,9338,131,meters,jsons/VE125_randls_51.json,1930824,2335274,56,Man
149,887257,DepthScenes,duration_manipulation_targetAtFixation,jsons/VE125_randls_51.json,http://54.235.29.9/FacialAge/BNav_EC2/DepthDuration/v2_depth_duration_MTurk/v2_DepthDuration_HTML.html#324,324,1366,625,1366,768,9-3-2022,14-36-57,150,depth_duration_stimuli/002637_2014-06-24_14-51-13_094959634447_rgbf000066-resize_4/002637_2014-06-24_14-51-13_094959634447_rgbf000066-resize_4-target.png,125,1.9955,1.9,6987,125,meters,jsons/VE125_randls_51.json,1930824,2335274,56,Man
150,887257,DepthScenes,duration_manipulation_targetAtFixation,jsons/VE125_randls_51.json,http://54.235.29.9/FacialAge/BNav_EC2/DepthDuration/v2_depth_duration_MTurk/v2_DepthDuration_HTML.html#324,324,1366,625,1366,768,9-3-2022,14-36-57,151,depth_duration_stimuli/002570_2014-06-24_13-59-54_094959634447_rgbf000059-resize_0/002570_2014-06-24_13-59-54_094959634447_rgbf000059-resize_0-target.png,125,4.037,1.85,10104,126,meters,jsons/VE125_randls_51.json,1930824,2335274,56,Man
151,887257,DepthScenes,duration_manipulation_targetAtFixation,jsons/VE125_randls_51.json,http://54.235.29.9/FacialAge/BNav_EC2/DepthDuration/v2_depth_duration_MTurk/v2_DepthDuration_HTML.html#324,324,1366,625,1366,768,9-3-2022,14-36-57,152,depth_duration_stimuli/002467_2014-06-28_20-38-07_260595134347_rgbf000026-resize_2/002467_2014-06-28_20-38-07_260595134347_rgbf000026-resize_2-target.png,125,4.742,1.95,3774,127,meters,jsons/VE125_randls_51.json,1930824,2335274,56,Man
152,887257,DepthScenes,duration_manipulation_targetAtFixation,jsons/VE125_randls_51.json,http://54.235.29.9/FacialAge/BNav_EC2/DepthDuration/v2_depth_duration_MTurk/v2_DepthDuration_HTML.html#324,324,1366,625,1366,768,9-3-2022,14-36-57,153,depth_duration_stimuli/000739_2014-06-08_18-45-58_260595134347_rgbf000068-resize_1/000739_2014-06-08_18-45-58_260595134347_rgbf000068-resize_1-target.png,125,3.534,2.65,10649,124,meters,jsons/VE125_randls_51.json,1930824,2335274,56,Man
153,887257,DepthScenes,duration_manipulation_targetAtFixation,jsons/VE125_randls_51.json,http://54.235.29.9/FacialAge/BNav_EC2/DepthDuration/v2_depth_duration_MTurk/v2_DepthDuration_HTML.html#324,324,1366,625,1366,768,9-3-2022,14-36-57,154,depth_duration_stimuli/000734_2014-06-08_17-39-11_260595134347_rgbf000128-resize_2/000734_2014-06-08_17-39-11_260595134347_rgbf000128-resize_2-target.png,125,4.098,1.5,5865,126,meters,jsons/VE125_randls_51.json,1930824,2335274,56,Man
154,887257,DepthScenes,duration_manipulation_targetAtFixation,jsons/VE125_randls_51.json,http://54.235.29.9/FacialAge/BNav_EC2/DepthDuration/v2_depth_duration_MTurk/v2_DepthDuration_HTML.html#324,324,1366,625,1366,768,9-3-2022,14-36-57,155,depth_duration_stimuli/001150_2014-06-17_15-27-34_260595134347_rgbf000108-resize_2/001150_2014-06-17_15-27-34_260595134347_rgbf000108-resize_2-target.png,125,4.0325,3.0,11404,125,meters,jsons/VE125_randls_51.json,1930824,2335274,56,Man
155,887257,DepthScenes,duration_manipulation_targetAtFixation,jsons/VE125_randls_51.json,http://54.235.29.9/FacialAge/BNav_EC2/DepthDuration/v2_depth_duration_MTurk/v2_DepthDuration_HTML.html#324,324,1366,625,1366,768,9-3-2022,14-36-57,156,depth_duration_stimuli/000665_2014-06-09_20-42-35_260595134347_rgbf000110-resize_1/000665_2014-06-09_20-42-35_260595134347_rgbf000110-resize_1-target.png,125,3.057,1.4,5764,125,meters,jsons/VE125_randls_51.json,1930824,2335274,56,Man
156,887257,DepthScenes,duration_manipulation_targetAtFixation,jsons/VE125_randls_51.json,http://54.235.29.9/FacialAge/BNav_EC2/DepthDuration/v2_depth_duration_MTurk/v2_DepthDuration_HTML.html#324,324,1366,625,1366,768,9-3-2022,14-36-57,157,depth_duration_stimuli/003621_2014-05-23_18-06-08_094959634447_rgbf000101-resize_1/003621_2014-05-23_18-06-08_094959634447_rgbf000101-resize_1-target.png,125,3.9835,1.2,9618,124,meters,jsons/VE125_randls_51.json,1930824,2335274,56,Man
157,887257,DepthScenes,duration_manipulation_targetAtFixation,jsons/VE125_randls_51.json,http://54.235.29.9/FacialAge/BNav_EC2/DepthDuration/v2_depth_duration_MTurk/v2_DepthDuration_HTML.html#324,324,1366,625,1366,768,9-3-2022,14-36-57,158,depth_duration_stimuli/001584_2014-06-20_11-07-43_260595134347_rgbf000002-resize_1/001584_2014-06-20_11-07-43_260595134347_rgbf000002-resize_1-target.png,125,3.53,2.0,6503,124,meters,jsons/VE125_randls_51.json,1930824,2335274,56,Man
158,887257,DepthScenes,duration_manipulation_targetAtFixation,jsons/VE125_randls_51.json,http://54.235.29.9/FacialAge/BNav_EC2/DepthDuration/v2_depth_duration_MTurk/v2_DepthDuration_HTML.html#324,324,1366,625,1366,768,9-3-2022,14-36-57,159,depth_duration_stimuli/001449_2014-06-19_17-01-27_260595134347_rgbf000116-resize_2/001449_2014-06-19_17-01-27_260595134347_rgbf000116-resize_2-target.png,125,3.452,2.5,20933,125,meters,jsons/VE125_randls_51.json,1930824,2335274,56,Man
159,887257,DepthScenes,duration_manipulation_targetAtFixation,jsons/VE125_randls_51.json,http://54.235.29.9/FacialAge/BNav_EC2/DepthDuration/v2_depth_duration_MTurk/v2_DepthDuration_HTML.html#324,324,1366,625,1366,768,9-3-2022,14-36-57,160,depth_duration_stimuli/001450_2014-06-19_17-02-03_260595134347_rgbf000203-resize_4/001450_2014-06-19_17-02-03_260595134347_rgbf000203-resize_4-target.png,125,4.0106666666667,3.0,5114,125,meters,jsons/VE125_randls_51.json,1930824,2335274,56,Man
160,887257,DepthScenes,duration_manipulation_targetAtFixation,jsons/VE125_randls_51.json,http://54.235.29.9/FacialAge/BNav_EC2/DepthDuration/v2_depth_duration_MTurk/v2_DepthDuration_HTML.html#324,324,1366,625,1366,768,9-3-2022,14-36-57,161,depth_duration_stimuli/000469_2014-06-09_19-42-10_260595134347_rgbf000081-resize_1/000469_2014-06-09_19-42-10_260595134347_rgbf000081-resize_1-target.png,125,1.652,0.9,9434,107,meters,jsons/VE125_randls_51.json,1930824,2335274,56,Man
161,887257,DepthScenes,duration_manipulation_targetAtFixation,jsons/VE125_randls_51.json,http://54.235.29.9/FacialAge/BNav_EC2/DepthDuration/v2_depth_duration_MTurk/v2_DepthDuration_HTML.html#324,324,1366,625,1366,768,9-3-2022,14-36-57,162,depth_duration_stimuli/000483_2014-06-09_20-41-45_260595134347_rgbf000116-resize_4/000483_2014-06-09_20-41-45_260595134347_rgbf000116-resize_4-target.png,125,1.337,0.8,3595,124,meters,jsons/VE125_randls_51.json,1930824,2335274,56,Man
162,887257,DepthScenes,duration_manipulation_targetAtFixation,jsons/VE125_randls_51.json,http://54.235.29.9/FacialAge/BNav_EC2/DepthDuration/v2_depth_duration_MTurk/v2_DepthDuration_HTML.html#324,324,1366,625,1366,768,9-3-2022,14-36-57,163,depth_duration_stimuli/000642_2014-06-08_16-59-25_260595134347_rgbf000098-resize_2/000642_2014-06-08_16-59-25_260595134347_rgbf000098-resize_2-target.png,125,2.8815,1.1,10237,125,meters,jsons/VE125_randls_51.json,1930824,2335274,56,Man
163,887257,DepthScenes,duration_manipulation_targetAtFixation,jsons/VE125_randls_51.json,http://54.235.29.9/FacialAge/BNav_EC2/DepthDuration/v2_depth_duration_MTurk/v2_DepthDuration_HTML.html#324,324,1366,625,1366,768,9-3-2022,14-36-57,164,depth_duration_stimuli/002425_2014-06-28_20-27-29_260595134347_rgbf000031-resize_8/002425_2014-06-28_20-27-29_260595134347_rgbf000031-resize_8-target.png,125,3.8960000000000004,2.4,5717,125,meters,jsons/VE125_randls_51.json,1930824,2335274,56,Man
