,subjID,experimentName,versionName,sequenceName,url,selected_row,windowWidth,windowHeight,screenWidth,screenHeight,startDate,startTime,trial,stimulus,duration,actual_depth,depth_estimate,trial_RT,log_sceneDuration,unitSelection,seq_filepath,experimentTime,totalTime,age,gender
0,889006,DepthScenes,duration_manipulation_targetAtFixation,jsons/v1_VE1000_randls_22.json,http://54.235.29.9/FacialAge/BNav_EC2/DepthDuration/v2_depth_duration_MTurk/v2_DepthDuration_HTML.html#144,144,1366,657,1366,768,8-22-2022,8-43-53,1,depth_duration_stimuli/001806_2014-06-26_20-50-20_260595134347_rgbf000091-resize_1/001806_2014-06-26_20-50-20_260595134347_rgbf000091-resize_1-target.png,1000,2.7305,0,4174,1015,meters,jsons/v1_VE1000_randls_22.json,589315,724635,49,Man
1,889006,DepthScenes,duration_manipulation_targetAtFixation,jsons/v1_VE1000_randls_22.json,http://54.235.29.9/FacialAge/BNav_EC2/DepthDuration/v2_depth_duration_MTurk/v2_DepthDuration_HTML.html#144,144,1366,657,1366,768,8-22-2022,8-43-53,2,depth_duration_stimuli/001617_2014-06-20_11-35-32_260595134347_rgbf000066-resize_1/001617_2014-06-20_11-35-32_260595134347_rgbf000066-resize_1-target.png,1000,3.7910000000000004,0,5433,1000,meters,jsons/v1_VE1000_randls_22.json,589315,724635,49,Man
2,889006,DepthScenes,duration_manipulation_targetAtFixation,jsons/v1_VE1000_randls_22.json,http://54.235.29.9/FacialAge/BNav_EC2/DepthDuration/v2_depth_duration_MTurk/v2_DepthDuration_HTML.html#144,144,1366,657,1366,768,8-22-2022,8-43-53,3,depth_duration_stimuli/003492_2014-05-21_15-50-55_094959634447_rgbf000828-resize_1/003492_2014-05-21_15-50-55_094959634447_rgbf000828-resize_1-target.png,1000,4.06875,0,3559,1013,meters,jsons/v1_VE1000_randls_22.json,589315,724635,49,Man
3,889006,DepthScenes,duration_manipulation_targetAtFixation,jsons/v1_VE1000_randls_22.json,http://54.235.29.9/FacialAge/BNav_EC2/DepthDuration/v2_depth_duration_MTurk/v2_DepthDuration_HTML.html#144,144,1366,657,1366,768,8-22-2022,8-43-53,4,depth_duration_stimuli/002568_2014-06-24_13-59-21_094959634447_rgbf000062-resize_4/002568_2014-06-24_13-59-21_094959634447_rgbf000062-resize_4-target.png,1000,3.015,0,3319,1006,meters,jsons/v1_VE1000_randls_22.json,589315,724635,49,Man
4,889006,DepthScenes,duration_manipulation_targetAtFixation,jsons/v1_VE1000_randls_22.json,http://54.235.29.9/FacialAge/BNav_EC2/DepthDuration/v2_depth_duration_MTurk/v2_DepthDuration_HTML.html#144,144,1366,657,1366,768,8-22-2022,8-43-53,5,depth_duration_stimuli/002279_2014-06-28_18-55-32_260595134347_rgbf000040-resize_5/002279_2014-06-28_18-55-32_260595134347_rgbf000040-resize_5-target.png,1000,1.5043333333333,0,3151,1000,meters,jsons/v1_VE1000_randls_22.json,589315,724635,49,Man
5,889006,DepthScenes,duration_manipulation_targetAtFixation,jsons/v1_VE1000_randls_22.json,http://54.235.29.9/FacialAge/BNav_EC2/DepthDuration/v2_depth_duration_MTurk/v2_DepthDuration_HTML.html#144,144,1366,657,1366,768,8-22-2022,8-43-53,6,depth_duration_stimuli/000635_2014-06-08_16-38-42_260595134347_rgbf000106-resize_1/000635_2014-06-08_16-38-42_260595134347_rgbf000106-resize_1-target.png,1000,2.074,0,3280,985,meters,jsons/v1_VE1000_randls_22.json,589315,724635,49,Man
6,889006,DepthScenes,duration_manipulation_targetAtFixation,jsons/v1_VE1000_randls_22.json,http://54.235.29.9/FacialAge/BNav_EC2/DepthDuration/v2_depth_duration_MTurk/v2_DepthDuration_HTML.html#144,144,1366,657,1366,768,8-22-2022,8-43-53,7,depth_duration_stimuli/002549_2014-06-24_13-41-39_094959634447_rgbf000022-resize_3/002549_2014-06-24_13-41-39_094959634447_rgbf000022-resize_3-target.png,1000,1.476,0,3208,1000,meters,jsons/v1_VE1000_randls_22.json,589315,724635,49,Man
7,889006,DepthScenes,duration_manipulation_targetAtFixation,jsons/v1_VE1000_randls_22.json,http://54.235.29.9/FacialAge/BNav_EC2/DepthDuration/v2_depth_duration_MTurk/v2_DepthDuration_HTML.html#144,144,1366,657,1366,768,8-22-2022,8-43-53,8,depth_duration_stimuli/002750_2014-06-22_19-08-03_094959634447_rgbf000094-resize_4/002750_2014-06-22_19-08-03_094959634447_rgbf000094-resize_4-target.png,1000,2.354,0,3020,995,meters,jsons/v1_VE1000_randls_22.json,589315,724635,49,Man
8,889006,DepthScenes,duration_manipulation_targetAtFixation,jsons/v1_VE1000_randls_22.json,http://54.235.29.9/FacialAge/BNav_EC2/DepthDuration/v2_depth_duration_MTurk/v2_DepthDuration_HTML.html#144,144,1366,657,1366,768,8-22-2022,8-43-53,9,depth_duration_stimuli/001011_2014-06-08_23-18-54_260595134347_rgbf000044-resize_4/001011_2014-06-08_23-18-54_260595134347_rgbf000044-resize_4-target.png,1000,2.4730000000000003,0,2979,1000,meters,jsons/v1_VE1000_randls_22.json,589315,724635,49,Man
9,889006,DepthScenes,duration_manipulation_targetAtFixation,jsons/v1_VE1000_randls_22.json,http://54.235.29.9/FacialAge/BNav_EC2/DepthDuration/v2_depth_duration_MTurk/v2_DepthDuration_HTML.html#144,144,1366,657,1366,768,8-22-2022,8-43-53,10,depth_duration_stimuli/002875_2014-06-01_15-19-00_094959634447_rgbf000151-resize_1/002875_2014-06-01_15-19-00_094959634447_rgbf000151-resize_1-target.png,1000,1.9675,0,2939,1001,meters,jsons/v1_VE1000_randls_22.json,589315,724635,49,Man
10,889006,DepthScenes,duration_manipulation_targetAtFixation,jsons/v1_VE1000_randls_22.json,http://54.235.29.9/FacialAge/BNav_EC2/DepthDuration/v2_depth_duration_MTurk/v2_DepthDuration_HTML.html#144,144,1366,657,1366,768,8-22-2022,8-43-53,11,depth_duration_stimuli/000414_2014-06-04_19-49-13_260595134347_rgbf000044-resize_0/000414_2014-06-04_19-49-13_260595134347_rgbf000044-resize_0-target.png,1000,4.329,0,5682,1001,meters,jsons/v1_VE1000_randls_22.json,589315,724635,49,Man
11,889006,DepthScenes,duration_manipulation_targetAtFixation,jsons/v1_VE1000_randls_22.json,http://54.235.29.9/FacialAge/BNav_EC2/DepthDuration/v2_depth_duration_MTurk/v2_DepthDuration_HTML.html#144,144,1366,657,1366,768,8-22-2022,8-43-53,12,depth_duration_stimuli/003129_2014-05-12_10-48-10_094959634447_rgbf000100-resize_0/003129_2014-05-12_10-48-10_094959634447_rgbf000100-resize_0-target.png,1000,4.9305,0,3148,1006,meters,jsons/v1_VE1000_randls_22.json,589315,724635,49,Man
12,889006,DepthScenes,duration_manipulation_targetAtFixation,jsons/v1_VE1000_randls_22.json,http://54.235.29.9/FacialAge/BNav_EC2/DepthDuration/v2_depth_duration_MTurk/v2_DepthDuration_HTML.html#144,144,1366,657,1366,768,8-22-2022,8-43-53,13,depth_duration_stimuli/000569_2014-06-09_22-51-47_260595134347_rgbf000141-resize_3/000569_2014-06-09_22-51-47_260595134347_rgbf000141-resize-original.jpg,1000,4.512,0,3033,984,meters,jsons/v1_VE1000_randls_22.json,589315,724635,49,Man
13,889006,DepthScenes,duration_manipulation_targetAtFixation,jsons/v1_VE1000_randls_22.json,http://54.235.29.9/FacialAge/BNav_EC2/DepthDuration/v2_depth_duration_MTurk/v2_DepthDuration_HTML.html#144,144,1366,657,1366,768,8-22-2022,8-43-53,14,depth_duration_stimuli/002570_2014-06-24_13-59-54_094959634447_rgbf000059-resize_0/002570_2014-06-24_13-59-54_094959634447_rgbf000059-resize_0-target.png,1000,4.037,0,3168,1001,meters,jsons/v1_VE1000_randls_22.json,589315,724635,49,Man
14,889006,DepthScenes,duration_manipulation_targetAtFixation,jsons/v1_VE1000_randls_22.json,http://54.235.29.9/FacialAge/BNav_EC2/DepthDuration/v2_depth_duration_MTurk/v2_DepthDuration_HTML.html#144,144,1366,657,1366,768,8-22-2022,8-43-53,15,depth_duration_stimuli/002467_2014-06-28_20-38-07_260595134347_rgbf000026-resize_2/002467_2014-06-28_20-38-07_260595134347_rgbf000026-resize_2-target.png,1000,4.742,0,2926,990,meters,jsons/v1_VE1000_randls_22.json,589315,724635,49,Man
15,889006,DepthScenes,duration_manipulation_targetAtFixation,jsons/v1_VE1000_randls_22.json,http://54.235.29.9/FacialAge/BNav_EC2/DepthDuration/v2_depth_duration_MTurk/v2_DepthDuration_HTML.html#144,144,1366,657,1366,768,8-22-2022,8-43-53,16,depth_duration_stimuli/002213_2014-06-28_18-37-58_260595134347_rgbf000055-resize_1/002213_2014-06-28_18-37-58_260595134347_rgbf000055-resize_1-target.png,1000,3.62,0,2974,1001,meters,jsons/v1_VE1000_randls_22.json,589315,724635,49,Man
16,889006,DepthScenes,duration_manipulation_targetAtFixation,jsons/v1_VE1000_randls_22.json,http://54.235.29.9/FacialAge/BNav_EC2/DepthDuration/v2_depth_duration_MTurk/v2_DepthDuration_HTML.html#144,144,1366,657,1366,768,8-22-2022,8-43-53,17,depth_duration_stimuli/000691_2014-06-08_13-08-50_260595134347_rgbf000132-resize_3/000691_2014-06-08_13-08-50_260595134347_rgbf000132-resize_3-target.png,1000,4.1530000000000005,0,2962,991,meters,jsons/v1_VE1000_randls_22.json,589315,724635,49,Man
17,889006,DepthScenes,duration_manipulation_targetAtFixation,jsons/v1_VE1000_randls_22.json,http://54.235.29.9/FacialAge/BNav_EC2/DepthDuration/v2_depth_duration_MTurk/v2_DepthDuration_HTML.html#144,144,1366,657,1366,768,8-22-2022,8-43-53,18,depth_duration_stimuli/003292_2014-05-14_21-53-49_094959634447_rgbf000100-resize_2/003292_2014-05-14_21-53-49_094959634447_rgbf000100-resize_2-target.png,1000,3.4815,0,3154,1000,meters,jsons/v1_VE1000_randls_22.json,589315,724635,49,Man
18,889006,DepthScenes,duration_manipulation_targetAtFixation,jsons/v1_VE1000_randls_22.json,http://54.235.29.9/FacialAge/BNav_EC2/DepthDuration/v2_depth_duration_MTurk/v2_DepthDuration_HTML.html#144,144,1366,657,1366,768,8-22-2022,8-43-53,19,depth_duration_stimuli/002639_2014-06-24_14-51-37_094959634447_rgbf000074-resize_4/002639_2014-06-24_14-51-37_094959634447_rgbf000074-resize_4-target.png,1000,4.0375,0,6170,1000,meters,jsons/v1_VE1000_randls_22.json,589315,724635,49,Man
19,889006,DepthScenes,duration_manipulation_targetAtFixation,jsons/v1_VE1000_randls_22.json,http://54.235.29.9/FacialAge/BNav_EC2/DepthDuration/v2_depth_duration_MTurk/v2_DepthDuration_HTML.html#144,144,1366,657,1366,768,8-22-2022,8-43-53,20,depth_duration_stimuli/000009_2014-05-26_14-32-05_260595134347_rgbf000034-resize_3/000009_2014-05-26_14-32-05_260595134347_rgbf000034-resize_3-target.png,1000,3.8715,0,3444,999,meters,jsons/v1_VE1000_randls_22.json,589315,724635,49,Man
20,889006,DepthScenes,duration_manipulation_targetAtFixation,jsons/v1_VE1000_randls_22.json,http://54.235.29.9/FacialAge/BNav_EC2/DepthDuration/v2_depth_duration_MTurk/v2_DepthDuration_HTML.html#144,144,1366,657,1366,768,8-22-2022,8-43-53,21,depth_duration_stimuli/001828_2014-06-26_21-40-03_260595134347_rgbf000024-resize_0/001828_2014-06-26_21-40-03_260595134347_rgbf000024-resize_0-target.png,1000,4.8260000000000005,0,2959,1008,meters,jsons/v1_VE1000_randls_22.json,589315,724635,49,Man
21,889006,DepthScenes,duration_manipulation_targetAtFixation,jsons/v1_VE1000_randls_22.json,http://54.235.29.9/FacialAge/BNav_EC2/DepthDuration/v2_depth_duration_MTurk/v2_DepthDuration_HTML.html#144,144,1366,657,1366,768,8-22-2022,8-43-53,22,depth_duration_stimuli/000929_2014-06-09_16-33-19_260595134347_rgbf000139-resize_0/000929_2014-06-09_16-33-19_260595134347_rgbf000139-resize_0-target.png,1000,2.8680000000000003,0,3019,993,meters,jsons/v1_VE1000_randls_22.json,589315,724635,49,Man
22,889006,DepthScenes,duration_manipulation_targetAtFixation,jsons/v1_VE1000_randls_22.json,http://54.235.29.9/FacialAge/BNav_EC2/DepthDuration/v2_depth_duration_MTurk/v2_DepthDuration_HTML.html#144,144,1366,657,1366,768,8-22-2022,8-43-53,23,depth_duration_stimuli/000457_2014-06-08_16-52-43_260595134347_rgbf000199-resize_1/000457_2014-06-08_16-52-43_260595134347_rgbf000199-resize_1-target.png,1000,3.6489999999999996,0,2884,992,meters,jsons/v1_VE1000_randls_22.json,589315,724635,49,Man
23,889006,DepthScenes,duration_manipulation_targetAtFixation,jsons/v1_VE1000_randls_22.json,http://54.235.29.9/FacialAge/BNav_EC2/DepthDuration/v2_depth_duration_MTurk/v2_DepthDuration_HTML.html#144,144,1366,657,1366,768,8-22-2022,8-43-53,24,depth_duration_stimuli/000447_2014-06-08_16-15-46_260595134347_rgbf000130-resize_1/000447_2014-06-08_16-15-46_260595134347_rgbf000130-resize_1-target.png,1000,4.479,0,2908,1014,meters,jsons/v1_VE1000_randls_22.json,589315,724635,49,Man
24,889006,DepthScenes,duration_manipulation_targetAtFixation,jsons/v1_VE1000_randls_22.json,http://54.235.29.9/FacialAge/BNav_EC2/DepthDuration/v2_depth_duration_MTurk/v2_DepthDuration_HTML.html#144,144,1366,657,1366,768,8-22-2022,8-43-53,25,depth_duration_stimuli/001447_2014-06-19_17-00-32_260595134347_rgbf000082-resize_5/001447_2014-06-19_17-00-32_260595134347_rgbf000082-resize_5-target.png,1000,4.13775,0,2912,1000,meters,jsons/v1_VE1000_randls_22.json,589315,724635,49,Man
25,889006,DepthScenes,duration_manipulation_targetAtFixation,jsons/v1_VE1000_randls_22.json,http://54.235.29.9/FacialAge/BNav_EC2/DepthDuration/v2_depth_duration_MTurk/v2_DepthDuration_HTML.html#144,144,1366,657,1366,768,8-22-2022,8-43-53,26,depth_duration_stimuli/000522_2014-06-08_13-35-06_260595134347_rgbf000244-resize_1/000522_2014-06-08_13-35-06_260595134347_rgbf000244-resize_1-target.png,1000,2.3715,0,2996,1010,meters,jsons/v1_VE1000_randls_22.json,589315,724635,49,Man
26,889006,DepthScenes,duration_manipulation_targetAtFixation,jsons/v1_VE1000_randls_22.json,http://54.235.29.9/FacialAge/BNav_EC2/DepthDuration/v2_depth_duration_MTurk/v2_DepthDuration_HTML.html#144,144,1366,657,1366,768,8-22-2022,8-43-53,27,depth_duration_stimuli/002949_2014-06-26_15-57-42_094959634447_rgbf000079-resize_1/002949_2014-06-26_15-57-42_094959634447_rgbf000079-resize_1-target.png,1000,1.8915,0,2942,1002,meters,jsons/v1_VE1000_randls_22.json,589315,724635,49,Man
27,889006,DepthScenes,duration_manipulation_targetAtFixation,jsons/v1_VE1000_randls_22.json,http://54.235.29.9/FacialAge/BNav_EC2/DepthDuration/v2_depth_duration_MTurk/v2_DepthDuration_HTML.html#144,144,1366,657,1366,768,8-22-2022,8-43-53,28,depth_duration_stimuli/000486_2014-06-09_20-47-20_260595134347_rgbf000143-resize_2/000486_2014-06-09_20-47-20_260595134347_rgbf000143-resize_2-target.png,1000,4.8325,0,2935,998,meters,jsons/v1_VE1000_randls_22.json,589315,724635,49,Man
28,889006,DepthScenes,duration_manipulation_targetAtFixation,jsons/v1_VE1000_randls_22.json,http://54.235.29.9/FacialAge/BNav_EC2/DepthDuration/v2_depth_duration_MTurk/v2_DepthDuration_HTML.html#144,144,1366,657,1366,768,8-22-2022,8-43-53,29,depth_duration_stimuli/003083_2014-06-15_15-21-03_094959634447_rgbf000063-resize_1/003083_2014-06-15_15-21-03_094959634447_rgbf000063-resize_1-target.png,1000,4.1405,0,2955,1014,meters,jsons/v1_VE1000_randls_22.json,589315,724635,49,Man
29,889006,DepthScenes,duration_manipulation_targetAtFixation,jsons/v1_VE1000_randls_22.json,http://54.235.29.9/FacialAge/BNav_EC2/DepthDuration/v2_depth_duration_MTurk/v2_DepthDuration_HTML.html#144,144,1366,657,1366,768,8-22-2022,8-43-53,30,depth_duration_stimuli/000375_2014-06-08_11-17-29_260595134347_rgbf000133-resize_2/000375_2014-06-08_11-17-29_260595134347_rgbf000133-resize-original.jpg,1000,4.718,0,2905,998,meters,jsons/v1_VE1000_randls_22.json,589315,724635,49,Man
30,889006,DepthScenes,duration_manipulation_targetAtFixation,jsons/v1_VE1000_randls_22.json,http://54.235.29.9/FacialAge/BNav_EC2/DepthDuration/v2_depth_duration_MTurk/v2_DepthDuration_HTML.html#144,144,1366,657,1366,768,8-22-2022,8-43-53,31,depth_duration_stimuli/000906_2014-06-08_13-35-43_260595134347_rgbf000155-resize_1/000906_2014-06-08_13-35-43_260595134347_rgbf000155-resize_1-target.png,1000,2.8489999999999998,0,2840,1001,meters,jsons/v1_VE1000_randls_22.json,589315,724635,49,Man
31,889006,DepthScenes,duration_manipulation_targetAtFixation,jsons/v1_VE1000_randls_22.json,http://54.235.29.9/FacialAge/BNav_EC2/DepthDuration/v2_depth_duration_MTurk/v2_DepthDuration_HTML.html#144,144,1366,657,1366,768,8-22-2022,8-43-53,32,depth_duration_stimuli/002805_2014-06-22_19-54-03_094959634447_rgbf000079-resize_1/002805_2014-06-22_19-54-03_094959634447_rgbf000079-resize_1-target.png,1000,3.1439999999999997,0,2923,992,meters,jsons/v1_VE1000_randls_22.json,589315,724635,49,Man
32,889006,DepthScenes,duration_manipulation_targetAtFixation,jsons/v1_VE1000_randls_22.json,http://54.235.29.9/FacialAge/BNav_EC2/DepthDuration/v2_depth_duration_MTurk/v2_DepthDuration_HTML.html#144,144,1366,657,1366,768,8-22-2022,8-43-53,33,depth_duration_stimuli/002725_2014-06-22_11-47-51_094959634447_rgbf000070-resize_1/002725_2014-06-22_11-47-51_094959634447_rgbf000070-resize_1-target.png,1000,2.195,0,2705,999,meters,jsons/v1_VE1000_randls_22.json,589315,724635,49,Man
33,889006,DepthScenes,duration_manipulation_targetAtFixation,jsons/v1_VE1000_randls_22.json,http://54.235.29.9/FacialAge/BNav_EC2/DepthDuration/v2_depth_duration_MTurk/v2_DepthDuration_HTML.html#144,144,1366,657,1366,768,8-22-2022,8-43-53,34,depth_duration_stimuli/002344_2014-06-28_20-06-29_260595134347_rgbf000030-resize_1/002344_2014-06-28_20-06-29_260595134347_rgbf000030-resize_1-target.png,1000,1.5795,0,2855,999,meters,jsons/v1_VE1000_randls_22.json,589315,724635,49,Man
34,889006,DepthScenes,duration_manipulation_targetAtFixation,jsons/v1_VE1000_randls_22.json,http://54.235.29.9/FacialAge/BNav_EC2/DepthDuration/v2_depth_duration_MTurk/v2_DepthDuration_HTML.html#144,144,1366,657,1366,768,8-22-2022,8-43-53,35,depth_duration_stimuli/003534_2014-05-22_15-06-10_094959634447_rgbf000102-resize_4/003534_2014-05-22_15-06-10_094959634447_rgbf000102-resize_4-target.png,1000,1.426,0,2922,1000,meters,jsons/v1_VE1000_randls_22.json,589315,724635,49,Man
35,889006,DepthScenes,duration_manipulation_targetAtFixation,jsons/v1_VE1000_randls_22.json,http://54.235.29.9/FacialAge/BNav_EC2/DepthDuration/v2_depth_duration_MTurk/v2_DepthDuration_HTML.html#144,144,1366,657,1366,768,8-22-2022,8-43-53,36,depth_duration_stimuli/002637_2014-06-24_14-51-13_094959634447_rgbf000066-resize_4/002637_2014-06-24_14-51-13_094959634447_rgbf000066-resize_4-target.png,1000,1.9955,0,3287,1000,meters,jsons/v1_VE1000_randls_22.json,589315,724635,49,Man
36,889006,DepthScenes,duration_manipulation_targetAtFixation,jsons/v1_VE1000_randls_22.json,http://54.235.29.9/FacialAge/BNav_EC2/DepthDuration/v2_depth_duration_MTurk/v2_DepthDuration_HTML.html#144,144,1366,657,1366,768,8-22-2022,8-43-53,37,depth_duration_stimuli/002057_2014-06-24_21-00-13_260595134347_rgbf000120-resize_1/002057_2014-06-24_21-00-13_260595134347_rgbf000120-resize_1-target.png,1000,2.967,0,2900,1002,meters,jsons/v1_VE1000_randls_22.json,589315,724635,49,Man
37,889006,DepthScenes,duration_manipulation_targetAtFixation,jsons/v1_VE1000_randls_22.json,http://54.235.29.9/FacialAge/BNav_EC2/DepthDuration/v2_depth_duration_MTurk/v2_DepthDuration_HTML.html#144,144,1366,657,1366,768,8-22-2022,8-43-53,38,depth_duration_stimuli/000709_2014-06-08_13-51-55_260595134347_rgbf000068-resize_3/000709_2014-06-08_13-51-55_260595134347_rgbf000068-resize_3-target.png,1000,1.8030000000000002,0,3014,1000,meters,jsons/v1_VE1000_randls_22.json,589315,724635,49,Man
38,889006,DepthScenes,duration_manipulation_targetAtFixation,jsons/v1_VE1000_randls_22.json,http://54.235.29.9/FacialAge/BNav_EC2/DepthDuration/v2_depth_duration_MTurk/v2_DepthDuration_HTML.html#144,144,1366,657,1366,768,8-22-2022,8-43-53,39,depth_duration_stimuli/002509_2014-06-24_13-19-22_094959634447_rgbf000077-resize_0/002509_2014-06-24_13-19-22_094959634447_rgbf000077-resize_0-target.png,1000,1.3065,0,3144,998,meters,jsons/v1_VE1000_randls_22.json,589315,724635,49,Man
39,889006,DepthScenes,duration_manipulation_targetAtFixation,jsons/v1_VE1000_randls_22.json,http://54.235.29.9/FacialAge/BNav_EC2/DepthDuration/v2_depth_duration_MTurk/v2_DepthDuration_HTML.html#144,144,1366,657,1366,768,8-22-2022,8-43-53,40,depth_duration_stimuli/003338_2014-05-20_11-01-23_094959634447_rgbf000051-resize_6/003338_2014-05-20_11-01-23_094959634447_rgbf000051-resize_6-target.png,1000,1.693,0,2944,1011,meters,jsons/v1_VE1000_randls_22.json,589315,724635,49,Man
40,889006,DepthScenes,duration_manipulation_targetAtFixation,jsons/v1_VE1000_randls_22.json,http://54.235.29.9/FacialAge/BNav_EC2/DepthDuration/v2_depth_duration_MTurk/v2_DepthDuration_HTML.html#144,144,1366,657,1366,768,8-22-2022,8-43-53,41,depth_duration_stimuli/000470_2014-06-09_19-42-40_260595134347_rgbf000094-resize_1/000470_2014-06-09_19-42-40_260595134347_rgbf000094-resize_1-target.png,1000,1.831,0,2934,1007,meters,jsons/v1_VE1000_randls_22.json,589315,724635,49,Man
41,889006,DepthScenes,duration_manipulation_targetAtFixation,jsons/v1_VE1000_randls_22.json,http://54.235.29.9/FacialAge/BNav_EC2/DepthDuration/v2_depth_duration_MTurk/v2_DepthDuration_HTML.html#144,144,1366,657,1366,768,8-22-2022,8-43-53,42,depth_duration_stimuli/000109_2014-05-14_23-41-52_260595134347_rgbf000035-resize_9/000109_2014-05-14_23-41-52_260595134347_rgbf000035-resize_9-target.png,1000,1.3545,0,2689,1004,meters,jsons/v1_VE1000_randls_22.json,589315,724635,49,Man
42,889006,DepthScenes,duration_manipulation_targetAtFixation,jsons/v1_VE1000_randls_22.json,http://54.235.29.9/FacialAge/BNav_EC2/DepthDuration/v2_depth_duration_MTurk/v2_DepthDuration_HTML.html#144,144,1366,657,1366,768,8-22-2022,8-43-53,43,depth_duration_stimuli/000788_2014-06-08_22-34-36_260595134347_rgbf000131-resize_1/000788_2014-06-08_22-34-36_260595134347_rgbf000131-resize_1-target.png,1000,3.359,0,3139,984,meters,jsons/v1_VE1000_randls_22.json,589315,724635,49,Man
43,889006,DepthScenes,duration_manipulation_targetAtFixation,jsons/v1_VE1000_randls_22.json,http://54.235.29.9/FacialAge/BNav_EC2/DepthDuration/v2_depth_duration_MTurk/v2_DepthDuration_HTML.html#144,144,1366,657,1366,768,8-22-2022,8-43-53,44,depth_duration_stimuli/001235_2014-06-17_16-37-36_260595134347_rgbf000084-resize_4/001235_2014-06-17_16-37-36_260595134347_rgbf000084-resize_4-target.png,1000,3.6605,0,2950,1000,meters,jsons/v1_VE1000_randls_22.json,589315,724635,49,Man
44,889006,DepthScenes,duration_manipulation_targetAtFixation,jsons/v1_VE1000_randls_22.json,http://54.235.29.9/FacialAge/BNav_EC2/DepthDuration/v2_depth_duration_MTurk/v2_DepthDuration_HTML.html#144,144,1366,657,1366,768,8-22-2022,8-43-53,45,depth_duration_stimuli/000787_2014-06-08_22-33-53_260595134347_rgbf000175-resize_1/000787_2014-06-08_22-33-53_260595134347_rgbf000175-resize-original.jpg,1000,4.784,0,2938,995,meters,jsons/v1_VE1000_randls_22.json,589315,724635,49,Man
45,889006,DepthScenes,duration_manipulation_targetAtFixation,jsons/v1_VE1000_randls_22.json,http://54.235.29.9/FacialAge/BNav_EC2/DepthDuration/v2_depth_duration_MTurk/v2_DepthDuration_HTML.html#144,144,1366,657,1366,768,8-22-2022,8-43-53,46,depth_duration_stimuli/000469_2014-06-09_19-42-10_260595134347_rgbf000081-resize_1/000469_2014-06-09_19-42-10_260595134347_rgbf000081-resize_1-target.png,1000,1.652,0,2933,999,meters,jsons/v1_VE1000_randls_22.json,589315,724635,49,Man
46,889006,DepthScenes,duration_manipulation_targetAtFixation,jsons/v1_VE1000_randls_22.json,http://54.235.29.9/FacialAge/BNav_EC2/DepthDuration/v2_depth_duration_MTurk/v2_DepthDuration_HTML.html#144,144,1366,657,1366,768,8-22-2022,8-43-53,47,depth_duration_stimuli/000483_2014-06-09_20-41-45_260595134347_rgbf000116-resize_4/000483_2014-06-09_20-41-45_260595134347_rgbf000116-resize_4-target.png,1000,1.337,0,2948,1000,meters,jsons/v1_VE1000_randls_22.json,589315,724635,49,Man
47,889006,DepthScenes,duration_manipulation_targetAtFixation,jsons/v1_VE1000_randls_22.json,http://54.235.29.9/FacialAge/BNav_EC2/DepthDuration/v2_depth_duration_MTurk/v2_DepthDuration_HTML.html#144,144,1366,657,1366,768,8-22-2022,8-43-53,48,depth_duration_stimuli/003621_2014-05-23_18-06-08_094959634447_rgbf000101-resize_1/003621_2014-05-23_18-06-08_094959634447_rgbf000101-resize_1-target.png,1000,3.9835,0,5085,1005,meters,jsons/v1_VE1000_randls_22.json,589315,724635,49,Man
48,889006,DepthScenes,duration_manipulation_targetAtFixation,jsons/v1_VE1000_randls_22.json,http://54.235.29.9/FacialAge/BNav_EC2/DepthDuration/v2_depth_duration_MTurk/v2_DepthDuration_HTML.html#144,144,1366,657,1366,768,8-22-2022,8-43-53,49,depth_duration_stimuli/001584_2014-06-20_11-07-43_260595134347_rgbf000002-resize_1/001584_2014-06-20_11-07-43_260595134347_rgbf000002-resize_1-target.png,1000,3.53,0,2966,996,meters,jsons/v1_VE1000_randls_22.json,589315,724635,49,Man
49,889006,DepthScenes,duration_manipulation_targetAtFixation,jsons/v1_VE1000_randls_22.json,http://54.235.29.9/FacialAge/BNav_EC2/DepthDuration/v2_depth_duration_MTurk/v2_DepthDuration_HTML.html#144,144,1366,657,1366,768,8-22-2022,8-43-53,50,depth_duration_stimuli/002788_2014-06-22_19-36-03_094959634447_rgbf000088-resize_2/002788_2014-06-22_19-36-03_094959634447_rgbf000088-resize_2-target.png,1000,1.6465,0,2907,1004,meters,jsons/v1_VE1000_randls_22.json,589315,724635,49,Man
50,889006,DepthScenes,duration_manipulation_targetAtFixation,jsons/v1_VE1000_randls_22.json,http://54.235.29.9/FacialAge/BNav_EC2/DepthDuration/v2_depth_duration_MTurk/v2_DepthDuration_HTML.html#144,144,1366,657,1366,768,8-22-2022,8-43-53,51,depth_duration_stimuli/000749_2014-06-08_21-55-06_260595134347_rgbf000070-resize_2/000749_2014-06-08_21-55-06_260595134347_rgbf000070-resize_2-target.png,1000,2.331,0,3244,998,meters,jsons/v1_VE1000_randls_22.json,589315,724635,49,Man
51,889006,DepthScenes,duration_manipulation_targetAtFixation,jsons/v1_VE1000_randls_22.json,http://54.235.29.9/FacialAge/BNav_EC2/DepthDuration/v2_depth_duration_MTurk/v2_DepthDuration_HTML.html#144,144,1366,657,1366,768,8-22-2022,8-43-53,52,depth_duration_stimuli/000810_2014-06-08_17-20-01_260595134347_rgbf000105-resize_0/000810_2014-06-08_17-20-01_260595134347_rgbf000105-resize_0-target.png,1000,1.4865,0,2923,1001,meters,jsons/v1_VE1000_randls_22.json,589315,724635,49,Man
52,889006,DepthScenes,duration_manipulation_targetAtFixation,jsons/v1_VE1000_randls_22.json,http://54.235.29.9/FacialAge/BNav_EC2/DepthDuration/v2_depth_duration_MTurk/v2_DepthDuration_HTML.html#144,144,1366,657,1366,768,8-22-2022,8-43-53,53,depth_duration_stimuli/001214_2014-06-17_16-13-55_260595134347_rgbf000111-resize_0/001214_2014-06-17_16-13-55_260595134347_rgbf000111-resize_0-target.png,1000,2.6505,0,3011,996,meters,jsons/v1_VE1000_randls_22.json,589315,724635,49,Man
53,889006,DepthScenes,duration_manipulation_targetAtFixation,jsons/v1_VE1000_randls_22.json,http://54.235.29.9/FacialAge/BNav_EC2/DepthDuration/v2_depth_duration_MTurk/v2_DepthDuration_HTML.html#144,144,1366,657,1366,768,8-22-2022,8-43-53,54,depth_duration_stimuli/000917_2014-06-09_22-45-29_260595134347_rgbf000149-resize_3/000917_2014-06-09_22-45-29_260595134347_rgbf000149-resize_3-target.png,1000,4.1865,0,2856,999,meters,jsons/v1_VE1000_randls_22.json,589315,724635,49,Man
54,889006,DepthScenes,duration_manipulation_targetAtFixation,jsons/v1_VE1000_randls_22.json,http://54.235.29.9/FacialAge/BNav_EC2/DepthDuration/v2_depth_duration_MTurk/v2_DepthDuration_HTML.html#144,144,1366,657,1366,768,8-22-2022,8-43-53,55,depth_duration_stimuli/002323_2014-06-28_20-01-54_260595134347_rgbf000051-resize_4/002323_2014-06-28_20-01-54_260595134347_rgbf000051-resize_4-target.png,1000,3.7310000000000003,0,2918,1000,meters,jsons/v1_VE1000_randls_22.json,589315,724635,49,Man
55,889006,DepthScenes,duration_manipulation_targetAtFixation,jsons/v1_VE1000_randls_22.json,http://54.235.29.9/FacialAge/BNav_EC2/DepthDuration/v2_depth_duration_MTurk/v2_DepthDuration_HTML.html#144,144,1366,657,1366,768,8-22-2022,8-43-53,56,depth_duration_stimuli/002153_2014-06-25_21-27-18_260595134347_rgbf000038-resize_5/002153_2014-06-25_21-27-18_260595134347_rgbf000038-resize_5-target.png,1000,2.505,0,2913,988,meters,jsons/v1_VE1000_randls_22.json,589315,724635,49,Man
56,889006,DepthScenes,duration_manipulation_targetAtFixation,jsons/v1_VE1000_randls_22.json,http://54.235.29.9/FacialAge/BNav_EC2/DepthDuration/v2_depth_duration_MTurk/v2_DepthDuration_HTML.html#144,144,1366,657,1366,768,8-22-2022,8-43-53,57,depth_duration_stimuli/002660_2014-06-13_15-44-18_094959634447_rgbf001878-resize_2/002660_2014-06-13_15-44-18_094959634447_rgbf001878-resize_2-target.png,1000,3.576,0,2950,999,meters,jsons/v1_VE1000_randls_22.json,589315,724635,49,Man
57,889006,DepthScenes,duration_manipulation_targetAtFixation,jsons/v1_VE1000_randls_22.json,http://54.235.29.9/FacialAge/BNav_EC2/DepthDuration/v2_depth_duration_MTurk/v2_DepthDuration_HTML.html#144,144,1366,657,1366,768,8-22-2022,8-43-53,58,depth_duration_stimuli/001244_2014-06-17_16-47-45_260595134347_rgbf000030-resize_4/001244_2014-06-17_16-47-45_260595134347_rgbf000030-resize_4-target.png,1000,2.0425,0,2916,1000,meters,jsons/v1_VE1000_randls_22.json,589315,724635,49,Man
58,889006,DepthScenes,duration_manipulation_targetAtFixation,jsons/v1_VE1000_randls_22.json,http://54.235.29.9/FacialAge/BNav_EC2/DepthDuration/v2_depth_duration_MTurk/v2_DepthDuration_HTML.html#144,144,1366,657,1366,768,8-22-2022,8-43-53,59,depth_duration_stimuli/003495_2014-05-21_16-01-51_094959634447_rgbf000100-resize_3/003495_2014-05-21_16-01-51_094959634447_rgbf000100-resize_3-target.png,1000,1.6255,0,2722,1005,meters,jsons/v1_VE1000_randls_22.json,589315,724635,49,Man
59,889006,DepthScenes,duration_manipulation_targetAtFixation,jsons/v1_VE1000_randls_22.json,http://54.235.29.9/FacialAge/BNav_EC2/DepthDuration/v2_depth_duration_MTurk/v2_DepthDuration_HTML.html#144,144,1366,657,1366,768,8-22-2022,8-43-53,60,depth_duration_stimuli/002905_2014-06-03_18-04-43_094959634447_rgbf000151-resize_2/002905_2014-06-03_18-04-43_094959634447_rgbf000151-resize_2-target.png,1000,2.0295,0,2892,999,meters,jsons/v1_VE1000_randls_22.json,589315,724635,49,Man
60,889006,DepthScenes,duration_manipulation_targetAtFixation,jsons/v1_VE1000_randls_22.json,http://54.235.29.9/FacialAge/BNav_EC2/DepthDuration/v2_depth_duration_MTurk/v2_DepthDuration_HTML.html#144,144,1366,657,1366,768,8-22-2022,8-43-53,61,depth_duration_stimuli/003423_2014-05-21_10-23-26_094959634447_rgbf002665-resize_2/003423_2014-05-21_10-23-26_094959634447_rgbf002665-resize_2-target.png,1000,3.2575,0,2858,992,meters,jsons/v1_VE1000_randls_22.json,589315,724635,49,Man
61,889006,DepthScenes,duration_manipulation_targetAtFixation,jsons/v1_VE1000_randls_22.json,http://54.235.29.9/FacialAge/BNav_EC2/DepthDuration/v2_depth_duration_MTurk/v2_DepthDuration_HTML.html#144,144,1366,657,1366,768,8-22-2022,8-43-53,62,depth_duration_stimuli/002630_2014-06-24_14-47-50_094959634447_rgbf000055-resize_1/002630_2014-06-24_14-47-50_094959634447_rgbf000055-resize_1-target.png,1000,3.0095,0,2915,963,meters,jsons/v1_VE1000_randls_22.json,589315,724635,49,Man
62,889006,DepthScenes,duration_manipulation_targetAtFixation,jsons/v1_VE1000_randls_22.json,http://54.235.29.9/FacialAge/BNav_EC2/DepthDuration/v2_depth_duration_MTurk/v2_DepthDuration_HTML.html#144,144,1366,657,1366,768,8-22-2022,8-43-53,63,depth_duration_stimuli/002758_2014-06-22_19-11-20_094959634447_rgbf000128-resize_1/002758_2014-06-22_19-11-20_094959634447_rgbf000128-resize_1-target.png,1000,2.555,0,2922,1002,meters,jsons/v1_VE1000_randls_22.json,589315,724635,49,Man
63,889006,DepthScenes,duration_manipulation_targetAtFixation,jsons/v1_VE1000_randls_22.json,http://54.235.29.9/FacialAge/BNav_EC2/DepthDuration/v2_depth_duration_MTurk/v2_DepthDuration_HTML.html#144,144,1366,657,1366,768,8-22-2022,8-43-53,64,depth_duration_stimuli/000642_2014-06-08_16-59-25_260595134347_rgbf000098-resize_2/000642_2014-06-08_16-59-25_260595134347_rgbf000098-resize_2-target.png,1000,2.8815,0,2927,999,meters,jsons/v1_VE1000_randls_22.json,589315,724635,49,Man
64,889006,DepthScenes,duration_manipulation_targetAtFixation,jsons/v1_VE1000_randls_22.json,http://54.235.29.9/FacialAge/BNav_EC2/DepthDuration/v2_depth_duration_MTurk/v2_DepthDuration_HTML.html#144,144,1366,657,1366,768,8-22-2022,8-43-53,65,depth_duration_stimuli/002425_2014-06-28_20-27-29_260595134347_rgbf000031-resize_8/002425_2014-06-28_20-27-29_260595134347_rgbf000031-resize_8-target.png,1000,3.8960000000000004,0,2957,1005,meters,jsons/v1_VE1000_randls_22.json,589315,724635,49,Man
65,889006,DepthScenes,duration_manipulation_targetAtFixation,jsons/v1_VE1000_randls_22.json,http://54.235.29.9/FacialAge/BNav_EC2/DepthDuration/v2_depth_duration_MTurk/v2_DepthDuration_HTML.html#144,144,1366,657,1366,768,8-22-2022,8-43-53,66,depth_duration_stimuli/001222_2014-06-17_16-24-06_260595134347_rgbf000073-resize_0/001222_2014-06-17_16-24-06_260595134347_rgbf000073-resize-original.jpg,1000,1.4385,0,2715,1000,meters,jsons/v1_VE1000_randls_22.json,589315,724635,49,Man
66,889006,DepthScenes,duration_manipulation_targetAtFixation,jsons/v1_VE1000_randls_22.json,http://54.235.29.9/FacialAge/BNav_EC2/DepthDuration/v2_depth_duration_MTurk/v2_DepthDuration_HTML.html#144,144,1366,657,1366,768,8-22-2022,8-43-53,67,depth_duration_stimuli/001808_2014-06-26_20-50-58_260595134347_rgbf000029-resize_1/001808_2014-06-26_20-50-58_260595134347_rgbf000029-resize_1-target.png,1000,4.249,0,2876,999,meters,jsons/v1_VE1000_randls_22.json,589315,724635,49,Man
67,889006,DepthScenes,duration_manipulation_targetAtFixation,jsons/v1_VE1000_randls_22.json,http://54.235.29.9/FacialAge/BNav_EC2/DepthDuration/v2_depth_duration_MTurk/v2_DepthDuration_HTML.html#144,144,1366,657,1366,768,8-22-2022,8-43-53,68,depth_duration_stimuli/001815_2014-06-26_20-52-55_260595134347_rgbf000020-resize_0/001815_2014-06-26_20-52-55_260595134347_rgbf000020-resize_0-target.png,1000,3.3865,0,2897,1000,meters,jsons/v1_VE1000_randls_22.json,589315,724635,49,Man
68,889006,DepthScenes,duration_manipulation_targetAtFixation,jsons/v1_VE1000_randls_22.json,http://54.235.29.9/FacialAge/BNav_EC2/DepthDuration/v2_depth_duration_MTurk/v2_DepthDuration_HTML.html#144,144,1366,657,1366,768,8-22-2022,8-43-53,69,depth_duration_stimuli/002445_2014-06-28_20-32-16_260595134347_rgbf000029-resize_4/002445_2014-06-28_20-32-16_260595134347_rgbf000029-resize_4-target.png,1000,2.5315,0,2950,998,meters,jsons/v1_VE1000_randls_22.json,589315,724635,49,Man
69,889006,DepthScenes,duration_manipulation_targetAtFixation,jsons/v1_VE1000_randls_22.json,http://54.235.29.9/FacialAge/BNav_EC2/DepthDuration/v2_depth_duration_MTurk/v2_DepthDuration_HTML.html#144,144,1366,657,1366,768,8-22-2022,8-43-53,70,depth_duration_stimuli/000780_2014-06-08_22-28-29_260595134347_rgbf000126-resize_1/000780_2014-06-08_22-28-29_260595134347_rgbf000126-resize_1-target.png,1000,3.3825,0,2932,985,meters,jsons/v1_VE1000_randls_22.json,589315,724635,49,Man
70,889006,DepthScenes,duration_manipulation_targetAtFixation,jsons/v1_VE1000_randls_22.json,http://54.235.29.9/FacialAge/BNav_EC2/DepthDuration/v2_depth_duration_MTurk/v2_DepthDuration_HTML.html#144,144,1366,657,1366,768,8-22-2022,8-43-53,71,depth_duration_stimuli/001199_2014-06-17_16-03-48_260595134347_rgbf000077-resize_0/001199_2014-06-17_16-03-48_260595134347_rgbf000077-resize_0-target.png,1000,3.4375,0,2693,999,meters,jsons/v1_VE1000_randls_22.json,589315,724635,49,Man
71,889006,DepthScenes,duration_manipulation_targetAtFixation,jsons/v1_VE1000_randls_22.json,http://54.235.29.9/FacialAge/BNav_EC2/DepthDuration/v2_depth_duration_MTurk/v2_DepthDuration_HTML.html#144,144,1366,657,1366,768,8-22-2022,8-43-53,72,depth_duration_stimuli/000502_2014-06-08_23-02-32_260595134347_rgbf000063-resize_4/000502_2014-06-08_23-02-32_260595134347_rgbf000063-resize_4-target.png,1000,2.431,0,2880,998,meters,jsons/v1_VE1000_randls_22.json,589315,724635,49,Man
72,889006,DepthScenes,duration_manipulation_targetAtFixation,jsons/v1_VE1000_randls_22.json,http://54.235.29.9/FacialAge/BNav_EC2/DepthDuration/v2_depth_duration_MTurk/v2_DepthDuration_HTML.html#144,144,1366,657,1366,768,8-22-2022,8-43-53,73,depth_duration_stimuli/000506_2014-06-08_23-21-00_260595134347_rgbf000070-resize_7/000506_2014-06-08_23-21-00_260595134347_rgbf000070-resize_7-target.png,1000,4.0585,0,2737,1000,meters,jsons/v1_VE1000_randls_22.json,589315,724635,49,Man
73,889006,DepthScenes,duration_manipulation_targetAtFixation,jsons/v1_VE1000_randls_22.json,http://54.235.29.9/FacialAge/BNav_EC2/DepthDuration/v2_depth_duration_MTurk/v2_DepthDuration_HTML.html#144,144,1366,657,1366,768,8-22-2022,8-43-53,74,depth_duration_stimuli/003079_2014-06-15_15-18-20_094959634447_rgbf000152-resize_8/003079_2014-06-15_15-18-20_094959634447_rgbf000152-resize_8-target.png,1000,2.8775,0,3090,1000,meters,jsons/v1_VE1000_randls_22.json,589315,724635,49,Man
74,889006,DepthScenes,duration_manipulation_targetAtFixation,jsons/v1_VE1000_randls_22.json,http://54.235.29.9/FacialAge/BNav_EC2/DepthDuration/v2_depth_duration_MTurk/v2_DepthDuration_HTML.html#144,144,1366,657,1366,768,8-22-2022,8-43-53,75,depth_duration_stimuli/000436_2014-06-09_22-25-11_260595134347_rgbf000137-resize_1/000436_2014-06-09_22-25-11_260595134347_rgbf000137-resize_1-target.png,1000,4.0705,0,2616,1006,meters,jsons/v1_VE1000_randls_22.json,589315,724635,49,Man
75,889006,DepthScenes,duration_manipulation_targetAtFixation,jsons/v1_VE1000_randls_22.json,http://54.235.29.9/FacialAge/BNav_EC2/DepthDuration/v2_depth_duration_MTurk/v2_DepthDuration_HTML.html#144,144,1366,657,1366,768,8-22-2022,8-43-53,76,depth_duration_stimuli/002444_2014-06-28_20-32-08_260595134347_rgbf000027-resize_0/002444_2014-06-28_20-32-08_260595134347_rgbf000027-resize_0-target.png,1000,4.388999999999999,0,2935,1007,meters,jsons/v1_VE1000_randls_22.json,589315,724635,49,Man
76,889006,DepthScenes,duration_manipulation_targetAtFixation,jsons/v1_VE1000_randls_22.json,http://54.235.29.9/FacialAge/BNav_EC2/DepthDuration/v2_depth_duration_MTurk/v2_DepthDuration_HTML.html#144,144,1366,657,1366,768,8-22-2022,8-43-53,77,depth_duration_stimuli/002375_2014-06-28_20-13-44_260595134347_rgbf000032-resize_1/002375_2014-06-28_20-13-44_260595134347_rgbf000032-resize_1-target.png,1000,4.0175,0,2958,1014,meters,jsons/v1_VE1000_randls_22.json,589315,724635,49,Man
77,889006,DepthScenes,duration_manipulation_targetAtFixation,jsons/v1_VE1000_randls_22.json,http://54.235.29.9/FacialAge/BNav_EC2/DepthDuration/v2_depth_duration_MTurk/v2_DepthDuration_HTML.html#144,144,1366,657,1366,768,8-22-2022,8-43-53,78,depth_duration_stimuli/002657_2014-06-13_15-29-54_094959634447_rgbf000150-resize_1/002657_2014-06-13_15-29-54_094959634447_rgbf000150-resize_1-target.png,1000,4.919,0,2976,1004,meters,jsons/v1_VE1000_randls_22.json,589315,724635,49,Man
78,889006,DepthScenes,duration_manipulation_targetAtFixation,jsons/v1_VE1000_randls_22.json,http://54.235.29.9/FacialAge/BNav_EC2/DepthDuration/v2_depth_duration_MTurk/v2_DepthDuration_HTML.html#144,144,1366,657,1366,768,8-22-2022,8-43-53,79,depth_duration_stimuli/001164_2014-06-17_15-35-46_260595134347_rgbf000085-resize_3/001164_2014-06-17_15-35-46_260595134347_rgbf000085-resize_3-target.png,1000,2.354,0,2891,1000,meters,jsons/v1_VE1000_randls_22.json,589315,724635,49,Man
79,889006,DepthScenes,duration_manipulation_targetAtFixation,jsons/v1_VE1000_randls_22.json,http://54.235.29.9/FacialAge/BNav_EC2/DepthDuration/v2_depth_duration_MTurk/v2_DepthDuration_HTML.html#144,144,1366,657,1366,768,8-22-2022,8-43-53,80,depth_duration_stimuli/001136_2014-06-17_15-19-41_260595134347_rgbf000076-resize_3/001136_2014-06-17_15-19-41_260595134347_rgbf000076-resize_3-target.png,1000,1.8655,0,2594,1006,meters,jsons/v1_VE1000_randls_22.json,589315,724635,49,Man
80,889006,DepthScenes,duration_manipulation_targetAtFixation,jsons/v1_VE1000_randls_22.json,http://54.235.29.9/FacialAge/BNav_EC2/DepthDuration/v2_depth_duration_MTurk/v2_DepthDuration_HTML.html#144,144,1366,657,1366,768,8-22-2022,8-43-53,81,depth_duration_stimuli/000692_2014-06-08_13-09-42_260595134347_rgbf000199-resize_2/000692_2014-06-08_13-09-42_260595134347_rgbf000199-resize_2-target.png,1000,3.661,0,2956,999,meters,jsons/v1_VE1000_randls_22.json,589315,724635,49,Man
81,889006,DepthScenes,duration_manipulation_targetAtFixation,jsons/v1_VE1000_randls_22.json,http://54.235.29.9/FacialAge/BNav_EC2/DepthDuration/v2_depth_duration_MTurk/v2_DepthDuration_HTML.html#144,144,1366,657,1366,768,8-22-2022,8-43-53,82,depth_duration_stimuli/001094_2014-06-15_17-36-00_260595134347_rgbf000205-resize_0/001094_2014-06-15_17-36-00_260595134347_rgbf000205-resize_0-target.png,1000,4.2175,0,3376,999,meters,jsons/v1_VE1000_randls_22.json,589315,724635,49,Man
82,889006,DepthScenes,duration_manipulation_targetAtFixation,jsons/v1_VE1000_randls_22.json,http://54.235.29.9/FacialAge/BNav_EC2/DepthDuration/v2_depth_duration_MTurk/v2_DepthDuration_HTML.html#144,144,1366,657,1366,768,8-22-2022,8-43-53,83,depth_duration_stimuli/000878_2014-06-08_22-52-45_260595134347_rgbf000045-resize_2/000878_2014-06-08_22-52-45_260595134347_rgbf000045-resize_2-target.png,1000,2.092,0,3101,1001,meters,jsons/v1_VE1000_randls_22.json,589315,724635,49,Man
83,889006,DepthScenes,duration_manipulation_targetAtFixation,jsons/v1_VE1000_randls_22.json,http://54.235.29.9/FacialAge/BNav_EC2/DepthDuration/v2_depth_duration_MTurk/v2_DepthDuration_HTML.html#144,144,1366,657,1366,768,8-22-2022,8-43-53,84,depth_duration_stimuli/002953_2014-06-08_17-32-18_094959634447_rgbf000059-resize_5/002953_2014-06-08_17-32-18_094959634447_rgbf000059-resize_5-target.png,1000,1.551,0,3048,1000,meters,jsons/v1_VE1000_randls_22.json,589315,724635,49,Man
84,889006,DepthScenes,duration_manipulation_targetAtFixation,jsons/v1_VE1000_randls_22.json,http://54.235.29.9/FacialAge/BNav_EC2/DepthDuration/v2_depth_duration_MTurk/v2_DepthDuration_HTML.html#144,144,1366,657,1366,768,8-22-2022,8-43-53,85,depth_duration_stimuli/002663_2014-06-13_15-50-26_094959634447_rgbf000075-resize_1/002663_2014-06-13_15-50-26_094959634447_rgbf000075-resize_1-target.png,1000,4.7495,0,2839,1000,meters,jsons/v1_VE1000_randls_22.json,589315,724635,49,Man
85,889006,DepthScenes,duration_manipulation_targetAtFixation,jsons/v1_VE1000_randls_22.json,http://54.235.29.9/FacialAge/BNav_EC2/DepthDuration/v2_depth_duration_MTurk/v2_DepthDuration_HTML.html#144,144,1366,657,1366,768,8-22-2022,8-43-53,86,depth_duration_stimuli/000409_2014-06-04_19-23-33_260595134347_rgbf000067-resize_0/000409_2014-06-04_19-23-33_260595134347_rgbf000067-resize_0-target.png,1000,3.7335,0,2891,999,meters,jsons/v1_VE1000_randls_22.json,589315,724635,49,Man
86,889006,DepthScenes,duration_manipulation_targetAtFixation,jsons/v1_VE1000_randls_22.json,http://54.235.29.9/FacialAge/BNav_EC2/DepthDuration/v2_depth_duration_MTurk/v2_DepthDuration_HTML.html#144,144,1366,657,1366,768,8-22-2022,8-43-53,87,depth_duration_stimuli/002989_2014-06-15_12-25-03_094959634447_rgbf000150-resize_3/002989_2014-06-15_12-25-03_094959634447_rgbf000150-resize_3-target.png,1000,4.1975,0,3048,997,meters,jsons/v1_VE1000_randls_22.json,589315,724635,49,Man
87,889006,DepthScenes,duration_manipulation_targetAtFixation,jsons/v1_VE1000_randls_22.json,http://54.235.29.9/FacialAge/BNav_EC2/DepthDuration/v2_depth_duration_MTurk/v2_DepthDuration_HTML.html#144,144,1366,657,1366,768,8-22-2022,8-43-53,88,depth_duration_stimuli/000866_2014-06-09_20-45-42_260595134347_rgbf000139-resize_1/000866_2014-06-09_20-45-42_260595134347_rgbf000139-resize_1-target.png,1000,3.2155,0,2893,999,meters,jsons/v1_VE1000_randls_22.json,589315,724635,49,Man
88,889006,DepthScenes,duration_manipulation_targetAtFixation,jsons/v1_VE1000_randls_22.json,http://54.235.29.9/FacialAge/BNav_EC2/DepthDuration/v2_depth_duration_MTurk/v2_DepthDuration_HTML.html#144,144,1366,657,1366,768,8-22-2022,8-43-53,89,depth_duration_stimuli/001167_2014-06-17_15-38-07_260595134347_rgbf000108-resize_0/001167_2014-06-17_15-38-07_260595134347_rgbf000108-resize_0-target.png,1000,1.8505,0,3009,999,meters,jsons/v1_VE1000_randls_22.json,589315,724635,49,Man
89,889006,DepthScenes,duration_manipulation_targetAtFixation,jsons/v1_VE1000_randls_22.json,http://54.235.29.9/FacialAge/BNav_EC2/DepthDuration/v2_depth_duration_MTurk/v2_DepthDuration_HTML.html#144,144,1366,657,1366,768,8-22-2022,8-43-53,90,depth_duration_stimuli/003587_2014-05-23_16-48-02_094959634447_rgbf002384-resize_2/003587_2014-05-23_16-48-02_094959634447_rgbf002384-resize_2-target.png,1000,1.357,0,2871,993,meters,jsons/v1_VE1000_randls_22.json,589315,724635,49,Man
90,889006,DepthScenes,duration_manipulation_targetAtFixation,jsons/v1_VE1000_randls_22.json,http://54.235.29.9/FacialAge/BNav_EC2/DepthDuration/v2_depth_duration_MTurk/v2_DepthDuration_HTML.html#144,144,1366,657,1366,768,8-22-2022,8-43-53,91,depth_duration_stimuli/001029_2014-06-08_13-17-57_260595134347_rgbf000065-resize_1/001029_2014-06-08_13-17-57_260595134347_rgbf000065-resize_1-target.png,1000,3.0835,0,2851,1000,meters,jsons/v1_VE1000_randls_22.json,589315,724635,49,Man
91,889006,DepthScenes,duration_manipulation_targetAtFixation,jsons/v1_VE1000_randls_22.json,http://54.235.29.9/FacialAge/BNav_EC2/DepthDuration/v2_depth_duration_MTurk/v2_DepthDuration_HTML.html#144,144,1366,657,1366,768,8-22-2022,8-43-53,92,depth_duration_stimuli/000677_2014-06-08_23-10-32_260595134347_rgbf000158-resize_6/000677_2014-06-08_23-10-32_260595134347_rgbf000158-resize_6-target.png,1000,3.556,0,2766,998,meters,jsons/v1_VE1000_randls_22.json,589315,724635,49,Man
92,889006,DepthScenes,duration_manipulation_targetAtFixation,jsons/v1_VE1000_randls_22.json,http://54.235.29.9/FacialAge/BNav_EC2/DepthDuration/v2_depth_duration_MTurk/v2_DepthDuration_HTML.html#144,144,1366,657,1366,768,8-22-2022,8-43-53,93,depth_duration_stimuli/002964_2014-06-08_17-46-11_094959634447_rgbf000091-resize_4/002964_2014-06-08_17-46-11_094959634447_rgbf000091-resize_4-target.png,1000,1.6909999999999998,0,2845,999,meters,jsons/v1_VE1000_randls_22.json,589315,724635,49,Man
93,889006,DepthScenes,duration_manipulation_targetAtFixation,jsons/v1_VE1000_randls_22.json,http://54.235.29.9/FacialAge/BNav_EC2/DepthDuration/v2_depth_duration_MTurk/v2_DepthDuration_HTML.html#144,144,1366,657,1366,768,8-22-2022,8-43-53,94,depth_duration_stimuli/002136_2014-06-25_21-18-03_260595134347_rgbf000109-resize_3/002136_2014-06-25_21-18-03_260595134347_rgbf000109-resize_3-target.png,1000,1.9569999999999999,0,5083,999,meters,jsons/v1_VE1000_randls_22.json,589315,724635,49,Man
94,889006,DepthScenes,duration_manipulation_targetAtFixation,jsons/v1_VE1000_randls_22.json,http://54.235.29.9/FacialAge/BNav_EC2/DepthDuration/v2_depth_duration_MTurk/v2_DepthDuration_HTML.html#144,144,1366,657,1366,768,8-22-2022,8-43-53,95,depth_duration_stimuli/001570_2014-06-20_17-21-09_260595134347_rgbf000135-resize_4/001570_2014-06-20_17-21-09_260595134347_rgbf000135-resize_4-target.png,1000,4.467,0,2939,1015,meters,jsons/v1_VE1000_randls_22.json,589315,724635,49,Man
95,889006,DepthScenes,duration_manipulation_targetAtFixation,jsons/v1_VE1000_randls_22.json,http://54.235.29.9/FacialAge/BNav_EC2/DepthDuration/v2_depth_duration_MTurk/v2_DepthDuration_HTML.html#144,144,1366,657,1366,768,8-22-2022,8-43-53,96,depth_duration_stimuli/001392_2014-06-19_16-07-59_260595134347_rgbf000046-resize_1/001392_2014-06-19_16-07-59_260595134347_rgbf000046-resize_1-target.png,1000,4.135,0,2910,1001,meters,jsons/v1_VE1000_randls_22.json,589315,724635,49,Man
96,889006,DepthScenes,duration_manipulation_targetAtFixation,jsons/v1_VE1000_randls_22.json,http://54.235.29.9/FacialAge/BNav_EC2/DepthDuration/v2_depth_duration_MTurk/v2_DepthDuration_HTML.html#144,144,1366,657,1366,768,8-22-2022,8-43-53,97,depth_duration_stimuli/002039_2014-06-24_20-22-38_260595134347_rgbf000084-resize_1/002039_2014-06-24_20-22-38_260595134347_rgbf000084-resize_1-target.png,1000,4.408,0,3557,1002,meters,jsons/v1_VE1000_randls_22.json,589315,724635,49,Man
97,889006,DepthScenes,duration_manipulation_targetAtFixation,jsons/v1_VE1000_randls_22.json,http://54.235.29.9/FacialAge/BNav_EC2/DepthDuration/v2_depth_duration_MTurk/v2_DepthDuration_HTML.html#144,144,1366,657,1366,768,8-22-2022,8-43-53,98,depth_duration_stimuli/002103_2014-06-25_20-00-40_260595134347_rgbf000049-resize_0/002103_2014-06-25_20-00-40_260595134347_rgbf000049-resize_0-target.png,1000,4.105,0,2948,1001,meters,jsons/v1_VE1000_randls_22.json,589315,724635,49,Man
98,889006,DepthScenes,duration_manipulation_targetAtFixation,jsons/v1_VE1000_randls_22.json,http://54.235.29.9/FacialAge/BNav_EC2/DepthDuration/v2_depth_duration_MTurk/v2_DepthDuration_HTML.html#144,144,1366,657,1366,768,8-22-2022,8-43-53,99,depth_duration_stimuli/001540_2014-06-20_17-01-05_260595134347_rgbf000086-resize_2/001540_2014-06-20_17-01-05_260595134347_rgbf000086-resize-original.jpg,1000,1.459,0,2628,1005,meters,jsons/v1_VE1000_randls_22.json,589315,724635,49,Man
99,889006,DepthScenes,duration_manipulation_targetAtFixation,jsons/v1_VE1000_randls_22.json,http://54.235.29.9/FacialAge/BNav_EC2/DepthDuration/v2_depth_duration_MTurk/v2_DepthDuration_HTML.html#144,144,1366,657,1366,768,8-22-2022,8-43-53,100,depth_duration_stimuli/001059_2014-06-08_21-53-27_260595134347_rgbf000061-resize_4/001059_2014-06-08_21-53-27_260595134347_rgbf000061-resize_4-target.png,1000,2.4185,0,3224,1000,meters,jsons/v1_VE1000_randls_22.json,589315,724635,49,Man
100,889006,DepthScenes,duration_manipulation_targetAtFixation,jsons/v1_VE1000_randls_22.json,http://54.235.29.9/FacialAge/BNav_EC2/DepthDuration/v2_depth_duration_MTurk/v2_DepthDuration_HTML.html#144,144,1366,657,1366,768,8-22-2022,8-43-53,101,depth_duration_stimuli/001032_2014-06-08_13-23-17_260595134347_rgbf000021-resize_3/001032_2014-06-08_13-23-17_260595134347_rgbf000021-resize_3-target.png,1000,3.2725,0,2926,998,meters,jsons/v1_VE1000_randls_22.json,589315,724635,49,Man
101,889006,DepthScenes,duration_manipulation_targetAtFixation,jsons/v1_VE1000_randls_22.json,http://54.235.29.9/FacialAge/BNav_EC2/DepthDuration/v2_depth_duration_MTurk/v2_DepthDuration_HTML.html#144,144,1366,657,1366,768,8-22-2022,8-43-53,102,depth_duration_stimuli/001449_2014-06-19_17-01-27_260595134347_rgbf000116-resize_2/001449_2014-06-19_17-01-27_260595134347_rgbf000116-resize_2-target.png,1000,3.452,0,2933,997,meters,jsons/v1_VE1000_randls_22.json,589315,724635,49,Man
102,889006,DepthScenes,duration_manipulation_targetAtFixation,jsons/v1_VE1000_randls_22.json,http://54.235.29.9/FacialAge/BNav_EC2/DepthDuration/v2_depth_duration_MTurk/v2_DepthDuration_HTML.html#144,144,1366,657,1366,768,8-22-2022,8-43-53,103,depth_duration_stimuli/001450_2014-06-19_17-02-03_260595134347_rgbf000203-resize_4/001450_2014-06-19_17-02-03_260595134347_rgbf000203-resize_4-target.png,1000,4.0106666666667,0,2738,1010,meters,jsons/v1_VE1000_randls_22.json,589315,724635,49,Man
103,889006,DepthScenes,duration_manipulation_targetAtFixation,jsons/v1_VE1000_randls_22.json,http://54.235.29.9/FacialAge/BNav_EC2/DepthDuration/v2_depth_duration_MTurk/v2_DepthDuration_HTML.html#144,144,1366,657,1366,768,8-22-2022,8-43-53,104,depth_duration_stimuli/000493_2014-06-09_21-01-18_260595134347_rgbf000196-resize_3/000493_2014-06-09_21-01-18_260595134347_rgbf000196-resize_3-target.png,1000,3.44,0,2859,993,meters,jsons/v1_VE1000_randls_22.json,589315,724635,49,Man
104,889006,DepthScenes,duration_manipulation_targetAtFixation,jsons/v1_VE1000_randls_22.json,http://54.235.29.9/FacialAge/BNav_EC2/DepthDuration/v2_depth_duration_MTurk/v2_DepthDuration_HTML.html#144,144,1366,657,1366,768,8-22-2022,8-43-53,105,depth_duration_stimuli/000191_2014-05-12_17-07-38_260595134347_rgbf000199-resize_0/000191_2014-05-12_17-07-38_260595134347_rgbf000199-resize_0-target.png,1000,3.7995,0,3512,999,meters,jsons/v1_VE1000_randls_22.json,589315,724635,49,Man
105,889006,DepthScenes,duration_manipulation_targetAtFixation,jsons/v1_VE1000_randls_22.json,http://54.235.29.9/FacialAge/BNav_EC2/DepthDuration/v2_depth_duration_MTurk/v2_DepthDuration_HTML.html#144,144,1366,657,1366,768,8-22-2022,8-43-53,106,depth_duration_stimuli/001175_2014-06-17_15-45-55_260595134347_rgbf000129-resize_4/001175_2014-06-17_15-45-55_260595134347_rgbf000129-resize_4-target.png,1000,4.255,0,2766,1002,meters,jsons/v1_VE1000_randls_22.json,589315,724635,49,Man
106,889006,DepthScenes,duration_manipulation_targetAtFixation,jsons/v1_VE1000_randls_22.json,http://54.235.29.9/FacialAge/BNav_EC2/DepthDuration/v2_depth_duration_MTurk/v2_DepthDuration_HTML.html#144,144,1366,657,1366,768,8-22-2022,8-43-53,107,depth_duration_stimuli/003490_2014-05-21_15-50-11_094959634447_rgbf000101-resize_3/003490_2014-05-21_15-50-11_094959634447_rgbf000101-resize_3-target.png,1000,3.6445,0,2801,1015,meters,jsons/v1_VE1000_randls_22.json,589315,724635,49,Man
107,889006,DepthScenes,duration_manipulation_targetAtFixation,jsons/v1_VE1000_randls_22.json,http://54.235.29.9/FacialAge/BNav_EC2/DepthDuration/v2_depth_duration_MTurk/v2_DepthDuration_HTML.html#144,144,1366,657,1366,768,8-22-2022,8-43-53,108,depth_duration_stimuli/003070_2014-06-15_14-58-27_094959634447_rgbf000150-resize_3/003070_2014-06-15_14-58-27_094959634447_rgbf000150-resize_3-target.png,1000,2.9415,0,3051,1010,meters,jsons/v1_VE1000_randls_22.json,589315,724635,49,Man
108,889006,DepthScenes,duration_manipulation_targetAtFixation,jsons/v1_VE1000_randls_22.json,http://54.235.29.9/FacialAge/BNav_EC2/DepthDuration/v2_depth_duration_MTurk/v2_DepthDuration_HTML.html#144,144,1366,657,1366,768,8-22-2022,8-43-53,109,depth_duration_stimuli/000943_2014-06-09_19-31-07_260595134347_rgbf000128-resize_1/000943_2014-06-09_19-31-07_260595134347_rgbf000128-resize_1-target.png,1000,1.9765,0,2810,1000,meters,jsons/v1_VE1000_randls_22.json,589315,724635,49,Man
109,889006,DepthScenes,duration_manipulation_targetAtFixation,jsons/v1_VE1000_randls_22.json,http://54.235.29.9/FacialAge/BNav_EC2/DepthDuration/v2_depth_duration_MTurk/v2_DepthDuration_HTML.html#144,144,1366,657,1366,768,8-22-2022,8-43-53,110,depth_duration_stimuli/002043_2014-06-24_20-29-38_260595134347_rgbf000039-resize_4/002043_2014-06-24_20-29-38_260595134347_rgbf000039-resize_4-target.png,1000,2.8435,0,2623,1000,meters,jsons/v1_VE1000_randls_22.json,589315,724635,49,Man
110,889006,DepthScenes,duration_manipulation_targetAtFixation,jsons/v1_VE1000_randls_22.json,http://54.235.29.9/FacialAge/BNav_EC2/DepthDuration/v2_depth_duration_MTurk/v2_DepthDuration_HTML.html#144,144,1366,657,1366,768,8-22-2022,8-43-53,111,depth_duration_stimuli/003048_2014-06-15_13-49-43_094959634447_rgbf000150-resize_1/003048_2014-06-15_13-49-43_094959634447_rgbf000150-resize_1-target.png,1000,4.0035,0,2607,991,meters,jsons/v1_VE1000_randls_22.json,589315,724635,49,Man
111,889006,DepthScenes,duration_manipulation_targetAtFixation,jsons/v1_VE1000_randls_22.json,http://54.235.29.9/FacialAge/BNav_EC2/DepthDuration/v2_depth_duration_MTurk/v2_DepthDuration_HTML.html#144,144,1366,657,1366,768,8-22-2022,8-43-53,112,depth_duration_stimuli/002748_2014-06-22_19-07-22_094959634447_rgbf000078-resize_1/002748_2014-06-22_19-07-22_094959634447_rgbf000078-resize_1-target.png,1000,4.6705,0,2915,1006,meters,jsons/v1_VE1000_randls_22.json,589315,724635,49,Man
112,889006,DepthScenes,duration_manipulation_targetAtFixation,jsons/v1_VE1000_randls_22.json,http://54.235.29.9/FacialAge/BNav_EC2/DepthDuration/v2_depth_duration_MTurk/v2_DepthDuration_HTML.html#144,144,1366,657,1366,768,8-22-2022,8-43-53,113,depth_duration_stimuli/002995_2014-06-15_12-31-26_094959634447_rgbf000150-resize_1/002995_2014-06-15_12-31-26_094959634447_rgbf000150-resize_1-target.png,1000,3.8360000000000003,0,2939,1000,meters,jsons/v1_VE1000_randls_22.json,589315,724635,49,Man
113,889006,DepthScenes,duration_manipulation_targetAtFixation,jsons/v1_VE1000_randls_22.json,http://54.235.29.9/FacialAge/BNav_EC2/DepthDuration/v2_depth_duration_MTurk/v2_DepthDuration_HTML.html#144,144,1366,657,1366,768,8-22-2022,8-43-53,114,depth_duration_stimuli/002118_2014-06-25_20-32-08_260595134347_rgbf000078-resize_1/002118_2014-06-25_20-32-08_260595134347_rgbf000078-resize_1-target.png,1000,2.6460000000000004,0,2762,999,meters,jsons/v1_VE1000_randls_22.json,589315,724635,49,Man
114,889006,DepthScenes,duration_manipulation_targetAtFixation,jsons/v1_VE1000_randls_22.json,http://54.235.29.9/FacialAge/BNav_EC2/DepthDuration/v2_depth_duration_MTurk/v2_DepthDuration_HTML.html#144,144,1366,657,1366,768,8-22-2022,8-43-53,115,depth_duration_stimuli/001516_2014-06-20_16-25-09_260595134347_rgbf000076-resize_2/001516_2014-06-20_16-25-09_260595134347_rgbf000076-resize_2-target.png,1000,1.7445,0,3781,996,meters,jsons/v1_VE1000_randls_22.json,589315,724635,49,Man
115,889006,DepthScenes,duration_manipulation_targetAtFixation,jsons/v1_VE1000_randls_22.json,http://54.235.29.9/FacialAge/BNav_EC2/DepthDuration/v2_depth_duration_MTurk/v2_DepthDuration_HTML.html#144,144,1366,657,1366,768,8-22-2022,8-43-53,116,depth_duration_stimuli/001170_2014-06-17_15-43-44_260595134347_rgbf000096-resize_6/001170_2014-06-17_15-43-44_260595134347_rgbf000096-resize-original.jpg,1000,1.1909999999999998,0,2892,1003,meters,jsons/v1_VE1000_randls_22.json,589315,724635,49,Man
116,889006,DepthScenes,duration_manipulation_targetAtFixation,jsons/v1_VE1000_randls_22.json,http://54.235.29.9/FacialAge/BNav_EC2/DepthDuration/v2_depth_duration_MTurk/v2_DepthDuration_HTML.html#144,144,1366,657,1366,768,8-22-2022,8-43-53,117,depth_duration_stimuli/000758_2014-06-08_22-05-08_260595134347_rgbf000085-resize_0/000758_2014-06-08_22-05-08_260595134347_rgbf000085-resize_0-target.png,1000,3.3810000000000002,0,2718,1002,meters,jsons/v1_VE1000_randls_22.json,589315,724635,49,Man
117,889006,DepthScenes,duration_manipulation_targetAtFixation,jsons/v1_VE1000_randls_22.json,http://54.235.29.9/FacialAge/BNav_EC2/DepthDuration/v2_depth_duration_MTurk/v2_DepthDuration_HTML.html#144,144,1366,657,1366,768,8-22-2022,8-43-53,118,depth_duration_stimuli/000854_2014-06-09_19-43-13_260595134347_rgbf000066-resize_0/000854_2014-06-09_19-43-13_260595134347_rgbf000066-resize_0-target.png,1000,3.068,0,2900,1010,meters,jsons/v1_VE1000_randls_22.json,589315,724635,49,Man
118,889006,DepthScenes,duration_manipulation_targetAtFixation,jsons/v1_VE1000_randls_22.json,http://54.235.29.9/FacialAge/BNav_EC2/DepthDuration/v2_depth_duration_MTurk/v2_DepthDuration_HTML.html#144,144,1366,657,1366,768,8-22-2022,8-43-53,119,depth_duration_stimuli/001150_2014-06-17_15-27-34_260595134347_rgbf000108-resize_2/001150_2014-06-17_15-27-34_260595134347_rgbf000108-resize_2-target.png,1000,4.0325,0,2925,984,meters,jsons/v1_VE1000_randls_22.json,589315,724635,49,Man
119,889006,DepthScenes,duration_manipulation_targetAtFixation,jsons/v1_VE1000_randls_22.json,http://54.235.29.9/FacialAge/BNav_EC2/DepthDuration/v2_depth_duration_MTurk/v2_DepthDuration_HTML.html#144,144,1366,657,1366,768,8-22-2022,8-43-53,120,depth_duration_stimuli/000665_2014-06-09_20-42-35_260595134347_rgbf000110-resize_1/000665_2014-06-09_20-42-35_260595134347_rgbf000110-resize_1-target.png,1000,3.057,0,2973,992,meters,jsons/v1_VE1000_randls_22.json,589315,724635,49,Man
120,889006,DepthScenes,duration_manipulation_targetAtFixation,jsons/v1_VE1000_randls_22.json,http://54.235.29.9/FacialAge/BNav_EC2/DepthDuration/v2_depth_duration_MTurk/v2_DepthDuration_HTML.html#144,144,1366,657,1366,768,8-22-2022,8-43-53,121,depth_duration_stimuli/001417_2014-06-19_16-25-36_260595134347_rgbf000115-resize_5/001417_2014-06-19_16-25-36_260595134347_rgbf000115-resize_5-target.png,1000,4.6255,0,2857,999,meters,jsons/v1_VE1000_randls_22.json,589315,724635,49,Man
121,889006,DepthScenes,duration_manipulation_targetAtFixation,jsons/v1_VE1000_randls_22.json,http://54.235.29.9/FacialAge/BNav_EC2/DepthDuration/v2_depth_duration_MTurk/v2_DepthDuration_HTML.html#144,144,1366,657,1366,768,8-22-2022,8-43-53,122,depth_duration_stimuli/003081_2014-06-15_15-19-16_094959634447_rgbf000150-resize_1/003081_2014-06-15_15-19-16_094959634447_rgbf000150-resize_1-target.png,1000,3.9125,0,2885,999,meters,jsons/v1_VE1000_randls_22.json,589315,724635,49,Man
122,889006,DepthScenes,duration_manipulation_targetAtFixation,jsons/v1_VE1000_randls_22.json,http://54.235.29.9/FacialAge/BNav_EC2/DepthDuration/v2_depth_duration_MTurk/v2_DepthDuration_HTML.html#144,144,1366,657,1366,768,8-22-2022,8-43-53,123,depth_duration_stimuli/001555_2014-06-20_17-12-10_260595134347_rgbf000065-resize_4/001555_2014-06-20_17-12-10_260595134347_rgbf000065-resize_4-target.png,1000,1.633,0,3552,1015,meters,jsons/v1_VE1000_randls_22.json,589315,724635,49,Man
123,889006,DepthScenes,duration_manipulation_targetAtFixation,jsons/v1_VE1000_randls_22.json,http://54.235.29.9/FacialAge/BNav_EC2/DepthDuration/v2_depth_duration_MTurk/v2_DepthDuration_HTML.html#144,144,1366,657,1366,768,8-22-2022,8-43-53,124,depth_duration_stimuli/000103_2014-05-14_22-01-17_260595134347_rgbf000152-resize_5/000103_2014-05-14_22-01-17_260595134347_rgbf000152-resize_5-target.png,1000,1.993,0,2929,997,meters,jsons/v1_VE1000_randls_22.json,589315,724635,49,Man
124,889006,DepthScenes,duration_manipulation_targetAtFixation,jsons/v1_VE1000_randls_22.json,http://54.235.29.9/FacialAge/BNav_EC2/DepthDuration/v2_depth_duration_MTurk/v2_DepthDuration_HTML.html#144,144,1366,657,1366,768,8-22-2022,8-43-53,125,depth_duration_stimuli/000736_2014-06-08_18-24-15_260595134347_rgbf000206-resize_3/000736_2014-06-08_18-24-15_260595134347_rgbf000206-resize_3-target.png,1000,3.515,0,2797,1007,meters,jsons/v1_VE1000_randls_22.json,589315,724635,49,Man
125,889006,DepthScenes,duration_manipulation_targetAtFixation,jsons/v1_VE1000_randls_22.json,http://54.235.29.9/FacialAge/BNav_EC2/DepthDuration/v2_depth_duration_MTurk/v2_DepthDuration_HTML.html#144,144,1366,657,1366,768,8-22-2022,8-43-53,126,depth_duration_stimuli/000137_2014-05-20_17-04-49_260595134347_rgbf000120-resize_1/000137_2014-05-20_17-04-49_260595134347_rgbf000120-resize_1-target.png,1000,3.786,0,2788,1024,meters,jsons/v1_VE1000_randls_22.json,589315,724635,49,Man
126,889006,DepthScenes,duration_manipulation_targetAtFixation,jsons/v1_VE1000_randls_22.json,http://54.235.29.9/FacialAge/BNav_EC2/DepthDuration/v2_depth_duration_MTurk/v2_DepthDuration_HTML.html#144,144,1366,657,1366,768,8-22-2022,8-43-53,127,depth_duration_stimuli/002600_2014-06-24_14-27-04_094959634447_rgbf000074-resize_2/002600_2014-06-24_14-27-04_094959634447_rgbf000074-resize_2-target.png,1000,2.7575,0,2940,999,meters,jsons/v1_VE1000_randls_22.json,589315,724635,49,Man
127,889006,DepthScenes,duration_manipulation_targetAtFixation,jsons/v1_VE1000_randls_22.json,http://54.235.29.9/FacialAge/BNav_EC2/DepthDuration/v2_depth_duration_MTurk/v2_DepthDuration_HTML.html#144,144,1366,657,1366,768,8-22-2022,8-43-53,128,depth_duration_stimuli/003228_2014-05-14_13-42-35_094959634447_rgbf000101-resize_1/003228_2014-05-14_13-42-35_094959634447_rgbf000101-resize_1-target.png,1000,1.9680000000000002,0,2942,999,meters,jsons/v1_VE1000_randls_22.json,589315,724635,49,Man
128,889006,DepthScenes,duration_manipulation_targetAtFixation,jsons/v1_VE1000_randls_22.json,http://54.235.29.9/FacialAge/BNav_EC2/DepthDuration/v2_depth_duration_MTurk/v2_DepthDuration_HTML.html#144,144,1366,657,1366,768,8-22-2022,8-43-53,129,depth_duration_stimuli/001056_2014-06-08_18-46-44_260595134347_rgbf000068-resize_0/001056_2014-06-08_18-46-44_260595134347_rgbf000068-resize_0-target.png,1000,2.6625,0,2879,1000,meters,jsons/v1_VE1000_randls_22.json,589315,724635,49,Man
129,889006,DepthScenes,duration_manipulation_targetAtFixation,jsons/v1_VE1000_randls_22.json,http://54.235.29.9/FacialAge/BNav_EC2/DepthDuration/v2_depth_duration_MTurk/v2_DepthDuration_HTML.html#144,144,1366,657,1366,768,8-22-2022,8-43-53,130,depth_duration_stimuli/002199_2014-06-28_18-33-56_260595134347_rgbf000074-resize_0/002199_2014-06-28_18-33-56_260595134347_rgbf000074-resize_0-target.png,1000,1.996,0,2924,1000,meters,jsons/v1_VE1000_randls_22.json,589315,724635,49,Man
130,889006,DepthScenes,duration_manipulation_targetAtFixation,jsons/v1_VE1000_randls_22.json,http://54.235.29.9/FacialAge/BNav_EC2/DepthDuration/v2_depth_duration_MTurk/v2_DepthDuration_HTML.html#144,144,1366,657,1366,768,8-22-2022,8-43-53,131,depth_duration_stimuli/002763_2014-06-22_19-13-10_094959634447_rgbf000075-resize_4/002763_2014-06-22_19-13-10_094959634447_rgbf000075-resize_4-target.png,1000,1.68375,0,3300,998,meters,jsons/v1_VE1000_randls_22.json,589315,724635,49,Man
131,889006,DepthScenes,duration_manipulation_targetAtFixation,jsons/v1_VE1000_randls_22.json,http://54.235.29.9/FacialAge/BNav_EC2/DepthDuration/v2_depth_duration_MTurk/v2_DepthDuration_HTML.html#144,144,1366,657,1366,768,8-22-2022,8-43-53,132,depth_duration_stimuli/002209_2014-06-28_18-36-10_260595134347_rgbf000051-resize_1/002209_2014-06-28_18-36-10_260595134347_rgbf000051-resize_1-target.png,1000,2.057,0,2904,1007,meters,jsons/v1_VE1000_randls_22.json,589315,724635,49,Man
132,889006,DepthScenes,duration_manipulation_targetAtFixation,jsons/v1_VE1000_randls_22.json,http://54.235.29.9/FacialAge/BNav_EC2/DepthDuration/v2_depth_duration_MTurk/v2_DepthDuration_HTML.html#144,144,1366,657,1366,768,8-22-2022,8-43-53,133,depth_duration_stimuli/001016_2014-06-09_16-16-10_260595134347_rgbf000112-resize_5/001016_2014-06-09_16-16-10_260595134347_rgbf000112-resize_5-target.png,1000,1.6565,0,2919,999,meters,jsons/v1_VE1000_randls_22.json,589315,724635,49,Man
133,889006,DepthScenes,duration_manipulation_targetAtFixation,jsons/v1_VE1000_randls_22.json,http://54.235.29.9/FacialAge/BNav_EC2/DepthDuration/v2_depth_duration_MTurk/v2_DepthDuration_HTML.html#144,144,1366,657,1366,768,8-22-2022,8-43-53,134,depth_duration_stimuli/002340_2014-06-28_20-05-46_260595134347_rgbf000113-resize_0/002340_2014-06-28_20-05-46_260595134347_rgbf000113-resize_0-target.png,1000,2.4735,0,2916,1013,meters,jsons/v1_VE1000_randls_22.json,589315,724635,49,Man
134,889006,DepthScenes,duration_manipulation_targetAtFixation,jsons/v1_VE1000_randls_22.json,http://54.235.29.9/FacialAge/BNav_EC2/DepthDuration/v2_depth_duration_MTurk/v2_DepthDuration_HTML.html#144,144,1366,657,1366,768,8-22-2022,8-43-53,135,depth_duration_stimuli/002072_2014-06-24_21-48-06_260595134347_rgbf000115-resize_0/002072_2014-06-24_21-48-06_260595134347_rgbf000115-resize-original.jpg,1000,4.702,0,2767,1001,meters,jsons/v1_VE1000_randls_22.json,589315,724635,49,Man
135,889006,DepthScenes,duration_manipulation_targetAtFixation,jsons/v1_VE1000_randls_22.json,http://54.235.29.9/FacialAge/BNav_EC2/DepthDuration/v2_depth_duration_MTurk/v2_DepthDuration_HTML.html#144,144,1366,657,1366,768,8-22-2022,8-43-53,136,depth_duration_stimuli/001810_2014-06-26_20-51-35_260595134347_rgbf000040-resize_3/001810_2014-06-26_20-51-35_260595134347_rgbf000040-resize_3-target.png,1000,2.2525,0,2867,986,meters,jsons/v1_VE1000_randls_22.json,589315,724635,49,Man
136,889006,DepthScenes,duration_manipulation_targetAtFixation,jsons/v1_VE1000_randls_22.json,http://54.235.29.9/FacialAge/BNav_EC2/DepthDuration/v2_depth_duration_MTurk/v2_DepthDuration_HTML.html#144,144,1366,657,1366,768,8-22-2022,8-43-53,137,depth_duration_stimuli/003010_2014-06-15_12-54-35_094959634447_rgbf000112-resize_0/003010_2014-06-15_12-54-35_094959634447_rgbf000112-resize_0-target.png,1000,3.1185,0,3846,999,meters,jsons/v1_VE1000_randls_22.json,589315,724635,49,Man
137,889006,DepthScenes,duration_manipulation_targetAtFixation,jsons/v1_VE1000_randls_22.json,http://54.235.29.9/FacialAge/BNav_EC2/DepthDuration/v2_depth_duration_MTurk/v2_DepthDuration_HTML.html#144,144,1366,657,1366,768,8-22-2022,8-43-53,138,depth_duration_stimuli/000739_2014-06-08_18-45-58_260595134347_rgbf000068-resize_1/000739_2014-06-08_18-45-58_260595134347_rgbf000068-resize_1-target.png,1000,3.534,0,2969,1001,meters,jsons/v1_VE1000_randls_22.json,589315,724635,49,Man
138,889006,DepthScenes,duration_manipulation_targetAtFixation,jsons/v1_VE1000_randls_22.json,http://54.235.29.9/FacialAge/BNav_EC2/DepthDuration/v2_depth_duration_MTurk/v2_DepthDuration_HTML.html#144,144,1366,657,1366,768,8-22-2022,8-43-53,139,depth_duration_stimuli/000734_2014-06-08_17-39-11_260595134347_rgbf000128-resize_2/000734_2014-06-08_17-39-11_260595134347_rgbf000128-resize_2-target.png,1000,4.098,0,2925,986,meters,jsons/v1_VE1000_randls_22.json,589315,724635,49,Man
139,889006,DepthScenes,duration_manipulation_targetAtFixation,jsons/v1_VE1000_randls_22.json,http://54.235.29.9/FacialAge/BNav_EC2/DepthDuration/v2_depth_duration_MTurk/v2_DepthDuration_HTML.html#144,144,1366,657,1366,768,8-22-2022,8-43-53,140,depth_duration_stimuli/001055_2014-06-08_18-45-35_260595134347_rgbf000111-resize_4/001055_2014-06-08_18-45-35_260595134347_rgbf000111-resize_4-target.png,1000,2.4290000000000003,0,2851,1002,meters,jsons/v1_VE1000_randls_22.json,589315,724635,49,Man
140,889006,DepthScenes,duration_manipulation_targetAtFixation,jsons/v1_VE1000_randls_22.json,http://54.235.29.9/FacialAge/BNav_EC2/DepthDuration/v2_depth_duration_MTurk/v2_DepthDuration_HTML.html#144,144,1366,657,1366,768,8-22-2022,8-43-53,141,depth_duration_stimuli/000549_2014-06-08_22-10-24_260595134347_rgbf000247-resize_3/000549_2014-06-08_22-10-24_260595134347_rgbf000247-resize_3-target.png,1000,1.841,0,2937,1006,meters,jsons/v1_VE1000_randls_22.json,589315,724635,49,Man
141,889006,DepthScenes,duration_manipulation_targetAtFixation,jsons/v1_VE1000_randls_22.json,http://54.235.29.9/FacialAge/BNav_EC2/DepthDuration/v2_depth_duration_MTurk/v2_DepthDuration_HTML.html#144,144,1366,657,1366,768,8-22-2022,8-43-53,142,depth_duration_stimuli/001066_2014-06-08_22-03-20_260595134347_rgbf000066-resize_4/001066_2014-06-08_22-03-20_260595134347_rgbf000066-resize_4-target.png,1000,4.2330000000000005,0,2923,998,meters,jsons/v1_VE1000_randls_22.json,589315,724635,49,Man
142,889006,DepthScenes,duration_manipulation_targetAtFixation,jsons/v1_VE1000_randls_22.json,http://54.235.29.9/FacialAge/BNav_EC2/DepthDuration/v2_depth_duration_MTurk/v2_DepthDuration_HTML.html#144,144,1366,657,1366,768,8-22-2022,8-43-53,143,depth_duration_stimuli/000742_2014-06-08_18-48-09_260595134347_rgbf000164-resize_4/000742_2014-06-08_18-48-09_260595134347_rgbf000164-resize_4-target.png,1000,4.632,0,3560,997,meters,jsons/v1_VE1000_randls_22.json,589315,724635,49,Man
143,889006,DepthScenes,duration_manipulation_targetAtFixation,jsons/v1_VE1000_randls_22.json,http://54.235.29.9/FacialAge/BNav_EC2/DepthDuration/v2_depth_duration_MTurk/v2_DepthDuration_HTML.html#144,144,1366,657,1366,768,8-22-2022,8-43-53,144,depth_duration_stimuli/000682_2014-06-08_23-14-58_260595134347_rgbf000041-resize_5/000682_2014-06-08_23-14-58_260595134347_rgbf000041-resize_5-target.png,1000,2.7239999999999998,0,3026,1012,meters,jsons/v1_VE1000_randls_22.json,589315,724635,49,Man
144,889006,DepthScenes,duration_manipulation_targetAtFixation,jsons/v1_VE1000_randls_22.json,http://54.235.29.9/FacialAge/BNav_EC2/DepthDuration/v2_depth_duration_MTurk/v2_DepthDuration_HTML.html#144,144,1366,657,1366,768,8-22-2022,8-43-53,145,depth_duration_stimuli/001650_2014-06-20_12-09-00_260595134347_rgbf000087-resize_3/001650_2014-06-20_12-09-00_260595134347_rgbf000087-resize_3-target.png,1000,1.9505,0,2910,999,meters,jsons/v1_VE1000_randls_22.json,589315,724635,49,Man
145,889006,DepthScenes,duration_manipulation_targetAtFixation,jsons/v1_VE1000_randls_22.json,http://54.235.29.9/FacialAge/BNav_EC2/DepthDuration/v2_depth_duration_MTurk/v2_DepthDuration_HTML.html#144,144,1366,657,1366,768,8-22-2022,8-43-53,146,depth_duration_stimuli/001498_2014-06-19_17-45-14_260595134347_rgbf000129-resize_4/001498_2014-06-19_17-45-14_260595134347_rgbf000129-resize-original.jpg,1000,1.4075,0,3020,1000,meters,jsons/v1_VE1000_randls_22.json,589315,724635,49,Man
146,889006,DepthScenes,duration_manipulation_targetAtFixation,jsons/v1_VE1000_randls_22.json,http://54.235.29.9/FacialAge/BNav_EC2/DepthDuration/v2_depth_duration_MTurk/v2_DepthDuration_HTML.html#144,144,1366,657,1366,768,8-22-2022,8-43-53,147,depth_duration_stimuli/002988_2014-06-15_12-24-20_094959634447_rgbf000150-resize_1/002988_2014-06-15_12-24-20_094959634447_rgbf000150-resize_1-target.png,1000,4.7669999999999995,0,3152,1001,meters,jsons/v1_VE1000_randls_22.json,589315,724635,49,Man
147,889006,DepthScenes,duration_manipulation_targetAtFixation,jsons/v1_VE1000_randls_22.json,http://54.235.29.9/FacialAge/BNav_EC2/DepthDuration/v2_depth_duration_MTurk/v2_DepthDuration_HTML.html#144,144,1366,657,1366,768,8-22-2022,8-43-53,148,depth_duration_stimuli/001052_2014-06-08_18-24-54_260595134347_rgbf000130-resize_1/001052_2014-06-08_18-24-54_260595134347_rgbf000130-resize_1-target.png,1000,4.1045,0,2917,999,meters,jsons/v1_VE1000_randls_22.json,589315,724635,49,Man
148,889006,DepthScenes,duration_manipulation_targetAtFixation,jsons/v1_VE1000_randls_22.json,http://54.235.29.9/FacialAge/BNav_EC2/DepthDuration/v2_depth_duration_MTurk/v2_DepthDuration_HTML.html#144,144,1366,657,1366,768,8-22-2022,8-43-53,149,depth_duration_stimuli/001110_2014-06-15_17-25-28_260595134347_rgbf000150-resize_1/001110_2014-06-15_17-25-28_260595134347_rgbf000150-resize_1-target.png,1000,1.7115,0,2923,1001,meters,jsons/v1_VE1000_randls_22.json,589315,724635,49,Man
149,889006,DepthScenes,duration_manipulation_targetAtFixation,jsons/v1_VE1000_randls_22.json,http://54.235.29.9/FacialAge/BNav_EC2/DepthDuration/v2_depth_duration_MTurk/v2_DepthDuration_HTML.html#144,144,1366,657,1366,768,8-22-2022,8-43-53,150,depth_duration_stimuli/000927_2014-06-09_16-32-30_260595134347_rgbf000123-resize_3/000927_2014-06-09_16-32-30_260595134347_rgbf000123-resize_3-target.png,1000,2.6785,0,2935,1000,meters,jsons/v1_VE1000_randls_22.json,589315,724635,49,Man
150,889006,DepthScenes,duration_manipulation_targetAtFixation,jsons/v1_VE1000_randls_22.json,http://54.235.29.9/FacialAge/BNav_EC2/DepthDuration/v2_depth_duration_MTurk/v2_DepthDuration_HTML.html#144,144,1366,657,1366,768,8-22-2022,8-43-53,151,depth_duration_stimuli/002784_2014-06-22_19-26-30_094959634447_rgbf000083-resize_3/002784_2014-06-22_19-26-30_094959634447_rgbf000083-resize_3-target.png,1000,1.8046666666667,0,7012,1000,meters,jsons/v1_VE1000_randls_22.json,589315,724635,49,Man
151,889006,DepthScenes,duration_manipulation_targetAtFixation,jsons/v1_VE1000_randls_22.json,http://54.235.29.9/FacialAge/BNav_EC2/DepthDuration/v2_depth_duration_MTurk/v2_DepthDuration_HTML.html#144,144,1366,657,1366,768,8-22-2022,8-43-53,152,depth_duration_stimuli/001100_2014-06-15_17-46-26_260595134347_rgbf000225-resize_2/001100_2014-06-15_17-46-26_260595134347_rgbf000225-resize_2-target.png,1000,2.24,0,3349,1003,meters,jsons/v1_VE1000_randls_22.json,589315,724635,49,Man
152,889006,DepthScenes,duration_manipulation_targetAtFixation,jsons/v1_VE1000_randls_22.json,http://54.235.29.9/FacialAge/BNav_EC2/DepthDuration/v2_depth_duration_MTurk/v2_DepthDuration_HTML.html#144,144,1366,657,1366,768,8-22-2022,8-43-53,153,depth_duration_stimuli/001133_2014-06-17_14-49-16_260595134347_rgbf000100-resize_0/001133_2014-06-17_14-49-16_260595134347_rgbf000100-resize_0-target.png,1000,4.2115,0,3114,1008,meters,jsons/v1_VE1000_randls_22.json,589315,724635,49,Man
153,889006,DepthScenes,duration_manipulation_targetAtFixation,jsons/v1_VE1000_randls_22.json,http://54.235.29.9/FacialAge/BNav_EC2/DepthDuration/v2_depth_duration_MTurk/v2_DepthDuration_HTML.html#144,144,1366,657,1366,768,8-22-2022,8-43-53,154,depth_duration_stimuli/001132_2014-06-17_14-48-54_260595134347_rgbf000100-resize_2/001132_2014-06-17_14-48-54_260595134347_rgbf000100-resize_2-target.png,1000,3.753,0,3557,1000,meters,jsons/v1_VE1000_randls_22.json,589315,724635,49,Man
154,889006,DepthScenes,duration_manipulation_targetAtFixation,jsons/v1_VE1000_randls_22.json,http://54.235.29.9/FacialAge/BNav_EC2/DepthDuration/v2_depth_duration_MTurk/v2_DepthDuration_HTML.html#144,144,1366,657,1366,768,8-22-2022,8-43-53,155,depth_duration_stimuli/001158_2014-06-17_15-32-16_260595134347_rgbf000138-resize_2/001158_2014-06-17_15-32-16_260595134347_rgbf000138-resize_2-target.png,1000,4.5315,0,3250,996,meters,jsons/v1_VE1000_randls_22.json,589315,724635,49,Man
155,889006,DepthScenes,duration_manipulation_targetAtFixation,jsons/v1_VE1000_randls_22.json,http://54.235.29.9/FacialAge/BNav_EC2/DepthDuration/v2_depth_duration_MTurk/v2_DepthDuration_HTML.html#144,144,1366,657,1366,768,8-22-2022,8-43-53,156,depth_duration_stimuli/000556_2014-06-09_22-42-56_260595134347_rgbf000214-resize_1/000556_2014-06-09_22-42-56_260595134347_rgbf000214-resize_1-target.png,1000,4.8415,0,2905,1001,meters,jsons/v1_VE1000_randls_22.json,589315,724635,49,Man
156,889006,DepthScenes,duration_manipulation_targetAtFixation,jsons/v1_VE1000_randls_22.json,http://54.235.29.9/FacialAge/BNav_EC2/DepthDuration/v2_depth_duration_MTurk/v2_DepthDuration_HTML.html#144,144,1366,657,1366,768,8-22-2022,8-43-53,157,depth_duration_stimuli/000773_2014-06-08_22-24-54_260595134347_rgbf000093-resize_1/000773_2014-06-08_22-24-54_260595134347_rgbf000093-resize_1-target.png,1000,4.973,0,2930,992,meters,jsons/v1_VE1000_randls_22.json,589315,724635,49,Man
157,889006,DepthScenes,duration_manipulation_targetAtFixation,jsons/v1_VE1000_randls_22.json,http://54.235.29.9/FacialAge/BNav_EC2/DepthDuration/v2_depth_duration_MTurk/v2_DepthDuration_HTML.html#144,144,1366,657,1366,768,8-22-2022,8-43-53,158,depth_duration_stimuli/002414_2014-06-28_20-24-58_260595134347_rgbf000067-resize_4/002414_2014-06-28_20-24-58_260595134347_rgbf000067-resize_4-target.png,1000,4.363,0,3279,1010,meters,jsons/v1_VE1000_randls_22.json,589315,724635,49,Man
158,889006,DepthScenes,duration_manipulation_targetAtFixation,jsons/v1_VE1000_randls_22.json,http://54.235.29.9/FacialAge/BNav_EC2/DepthDuration/v2_depth_duration_MTurk/v2_DepthDuration_HTML.html#144,144,1366,657,1366,768,8-22-2022,8-43-53,159,depth_duration_stimuli/002272_2014-06-28_18-53-56_260595134347_rgbf000067-resize_2/002272_2014-06-28_18-53-56_260595134347_rgbf000067-resize_2-target.png,1000,1.138,0,2930,997,meters,jsons/v1_VE1000_randls_22.json,589315,724635,49,Man
159,889006,DepthScenes,duration_manipulation_targetAtFixation,jsons/v1_VE1000_randls_22.json,http://54.235.29.9/FacialAge/BNav_EC2/DepthDuration/v2_depth_duration_MTurk/v2_DepthDuration_HTML.html#144,144,1366,657,1366,768,8-22-2022,8-43-53,160,depth_duration_stimuli/001571_2014-06-20_17-21-32_260595134347_rgbf000089-resize_1/001571_2014-06-20_17-21-32_260595134347_rgbf000089-resize_1-target.png,1000,1.86,0,2964,1007,meters,jsons/v1_VE1000_randls_22.json,589315,724635,49,Man
160,889006,DepthScenes,duration_manipulation_targetAtFixation,jsons/v1_VE1000_randls_22.json,http://54.235.29.9/FacialAge/BNav_EC2/DepthDuration/v2_depth_duration_MTurk/v2_DepthDuration_HTML.html#144,144,1366,657,1366,768,8-22-2022,8-43-53,161,depth_duration_stimuli/000368_2014-06-09_15-53-01_260595134347_rgbf000155-resize_2/000368_2014-06-09_15-53-01_260595134347_rgbf000155-resize_2-target.png,1000,2.4859999999999998,0,2922,999,meters,jsons/v1_VE1000_randls_22.json,589315,724635,49,Man
161,889006,DepthScenes,duration_manipulation_targetAtFixation,jsons/v1_VE1000_randls_22.json,http://54.235.29.9/FacialAge/BNav_EC2/DepthDuration/v2_depth_duration_MTurk/v2_DepthDuration_HTML.html#144,144,1366,657,1366,768,8-22-2022,8-43-53,162,depth_duration_stimuli/002678_2014-06-13_16-15-32_094959634447_rgbf000151-resize_6/002678_2014-06-13_16-15-32_094959634447_rgbf000151-resize_6-target.png,1000,2.1830000000000003,0,2959,999,meters,jsons/v1_VE1000_randls_22.json,589315,724635,49,Man
162,889006,DepthScenes,duration_manipulation_targetAtFixation,jsons/v1_VE1000_randls_22.json,http://54.235.29.9/FacialAge/BNav_EC2/DepthDuration/v2_depth_duration_MTurk/v2_DepthDuration_HTML.html#144,144,1366,657,1366,768,8-22-2022,8-43-53,163,depth_duration_stimuli/001092_2014-06-15_17-34-58_260595134347_rgbf000171-resize_3/001092_2014-06-15_17-34-58_260595134347_rgbf000171-resize_3-target.png,1000,2.6935,0,2933,999,meters,jsons/v1_VE1000_randls_22.json,589315,724635,49,Man
163,889006,DepthScenes,duration_manipulation_targetAtFixation,jsons/v1_VE1000_randls_22.json,http://54.235.29.9/FacialAge/BNav_EC2/DepthDuration/v2_depth_duration_MTurk/v2_DepthDuration_HTML.html#144,144,1366,657,1366,768,8-22-2022,8-43-53,164,depth_duration_stimuli/002545_2014-06-24_13-38-53_094959634447_rgbf000080-resize_4/002545_2014-06-24_13-38-53_094959634447_rgbf000080-resize_4-target.png,1000,1.9205,0,2914,1001,meters,jsons/v1_VE1000_randls_22.json,589315,724635,49,Man
