,subjID,experimentName,versionName,sequenceName,url,selected_row,windowWidth,windowHeight,screenWidth,screenHeight,startDate,startTime,trial,stimulus,duration,actual_depth,depth_estimate,trial_RT,log_sceneDuration,unitSelection,seq_filepath,experimentTime,totalTime,age,gender
0,891077,DepthScenes,duration_manipulation_targetAtFixation,jsons/VE125_randls_46_rotated.json,http://54.235.29.9/FacialAge/BNav_EC2/DepthDuration/v2_depth_duration_MTurk/v2_DepthDuration_HTML.html#55,55,980,1023,360,800,8-21-2022,10-23-0,1,depth_duration_stimuli/002660_2014-06-13_15-44-18_094959634447_rgbf001878-resize_2/002660_2014-06-13_15-44-18_094959634447_rgbf001878-resize_2-target.png,125,3.576,6,4540,119,feet,jsons/VE125_randls_46_rotated.json,1437967,1570900,33,Woman
1,891077,DepthScenes,duration_manipulation_targetAtFixation,jsons/VE125_randls_46_rotated.json,http://54.235.29.9/FacialAge/BNav_EC2/DepthDuration/v2_depth_duration_MTurk/v2_DepthDuration_HTML.html#55,55,980,1023,360,800,8-21-2022,10-23-0,2,depth_duration_stimuli/002153_2014-06-25_21-27-18_260595134347_rgbf000038-resize_5/002153_2014-06-25_21-27-18_260595134347_rgbf000038-resize_5-target.png,125,2.505,5,3976,122,feet,jsons/VE125_randls_46_rotated.json,1437967,1570900,33,Woman
2,891077,DepthScenes,duration_manipulation_targetAtFixation,jsons/VE125_randls_46_rotated.json,http://54.235.29.9/FacialAge/BNav_EC2/DepthDuration/v2_depth_duration_MTurk/v2_DepthDuration_HTML.html#55,55,980,1023,360,800,8-21-2022,10-23-0,3,depth_duration_stimuli/001450_2014-06-19_17-02-03_260595134347_rgbf000203-resize_4/001450_2014-06-19_17-02-03_260595134347_rgbf000203-resize_4-target.png,125,4.0106666666667,7,3237,121,feet,jsons/VE125_randls_46_rotated.json,1437967,1570900,33,Woman
3,891077,DepthScenes,duration_manipulation_targetAtFixation,jsons/VE125_randls_46_rotated.json,http://54.235.29.9/FacialAge/BNav_EC2/DepthDuration/v2_depth_duration_MTurk/v2_DepthDuration_HTML.html#55,55,980,1023,360,800,8-21-2022,10-23-0,4,depth_duration_stimuli/001449_2014-06-19_17-01-27_260595134347_rgbf000116-resize_2/001449_2014-06-19_17-01-27_260595134347_rgbf000116-resize_2-target.png,125,3.452,9,3408,121,feet,jsons/VE125_randls_46_rotated.json,1437967,1570900,33,Woman
4,891077,DepthScenes,duration_manipulation_targetAtFixation,jsons/VE125_randls_46_rotated.json,http://54.235.29.9/FacialAge/BNav_EC2/DepthDuration/v2_depth_duration_MTurk/v2_DepthDuration_HTML.html#55,55,980,1023,360,800,8-21-2022,10-23-0,5,depth_duration_stimuli/001392_2014-06-19_16-07-59_260595134347_rgbf000046-resize_1/001392_2014-06-19_16-07-59_260595134347_rgbf000046-resize_1-target.png,125,4.135,4,3256,120,feet,jsons/VE125_randls_46_rotated.json,1437967,1570900,33,Woman
5,891077,DepthScenes,duration_manipulation_targetAtFixation,jsons/VE125_randls_46_rotated.json,http://54.235.29.9/FacialAge/BNav_EC2/DepthDuration/v2_depth_duration_MTurk/v2_DepthDuration_HTML.html#55,55,980,1023,360,800,8-21-2022,10-23-0,6,depth_duration_stimuli/001570_2014-06-20_17-21-09_260595134347_rgbf000135-resize_4/001570_2014-06-20_17-21-09_260595134347_rgbf000135-resize_4-target.png,125,4.467,6,3392,105,feet,jsons/VE125_randls_46_rotated.json,1437967,1570900,33,Woman
6,891077,DepthScenes,duration_manipulation_targetAtFixation,jsons/VE125_randls_46_rotated.json,http://54.235.29.9/FacialAge/BNav_EC2/DepthDuration/v2_depth_duration_MTurk/v2_DepthDuration_HTML.html#55,55,980,1023,360,800,8-21-2022,10-23-0,7,depth_duration_stimuli/002995_2014-06-15_12-31-26_094959634447_rgbf000150-resize_1/002995_2014-06-15_12-31-26_094959634447_rgbf000150-resize_1-target.png,125,3.8360000000000003,7,3352,120,feet,jsons/VE125_randls_46_rotated.json,1437967,1570900,33,Woman
7,891077,DepthScenes,duration_manipulation_targetAtFixation,jsons/VE125_randls_46_rotated.json,http://54.235.29.9/FacialAge/BNav_EC2/DepthDuration/v2_depth_duration_MTurk/v2_DepthDuration_HTML.html#55,55,980,1023,360,800,8-21-2022,10-23-0,8,depth_duration_stimuli/002748_2014-06-22_19-07-22_094959634447_rgbf000078-resize_1/002748_2014-06-22_19-07-22_094959634447_rgbf000078-resize_1-target.png,125,4.6705,6,3787,119,feet,jsons/VE125_randls_46_rotated.json,1437967,1570900,33,Woman
8,891077,DepthScenes,duration_manipulation_targetAtFixation,jsons/VE125_randls_46_rotated.json,http://54.235.29.9/FacialAge/BNav_EC2/DepthDuration/v2_depth_duration_MTurk/v2_DepthDuration_HTML.html#55,55,980,1023,360,800,8-21-2022,10-23-0,9,depth_duration_stimuli/001584_2014-06-20_11-07-43_260595134347_rgbf000002-resize_1/001584_2014-06-20_11-07-43_260595134347_rgbf000002-resize_1-target.png,125,3.53,5,3774,121,feet,jsons/VE125_randls_46_rotated.json,1437967,1570900,33,Woman
9,891077,DepthScenes,duration_manipulation_targetAtFixation,jsons/VE125_randls_46_rotated.json,http://54.235.29.9/FacialAge/BNav_EC2/DepthDuration/v2_depth_duration_MTurk/v2_DepthDuration_HTML.html#55,55,980,1023,360,800,8-21-2022,10-23-0,10,depth_duration_stimuli/003621_2014-05-23_18-06-08_094959634447_rgbf000101-resize_1/003621_2014-05-23_18-06-08_094959634447_rgbf000101-resize_1-target.png,125,3.9835,7,3730,122,feet,jsons/VE125_randls_46_rotated.json,1437967,1570900,33,Woman
10,891077,DepthScenes,duration_manipulation_targetAtFixation,jsons/VE125_randls_46_rotated.json,http://54.235.29.9/FacialAge/BNav_EC2/DepthDuration/v2_depth_duration_MTurk/v2_DepthDuration_HTML.html#55,55,980,1023,360,800,8-21-2022,10-23-0,11,depth_duration_stimuli/000191_2014-05-12_17-07-38_260595134347_rgbf000199-resize_0/000191_2014-05-12_17-07-38_260595134347_rgbf000199-resize_0-target.png,125,3.7995,6,3202,120,feet,jsons/VE125_randls_46_rotated.json,1437967,1570900,33,Woman
11,891077,DepthScenes,duration_manipulation_targetAtFixation,jsons/VE125_randls_46_rotated.json,http://54.235.29.9/FacialAge/BNav_EC2/DepthDuration/v2_depth_duration_MTurk/v2_DepthDuration_HTML.html#55,55,980,1023,360,800,8-21-2022,10-23-0,12,depth_duration_stimuli/000493_2014-06-09_21-01-18_260595134347_rgbf000196-resize_3/000493_2014-06-09_21-01-18_260595134347_rgbf000196-resize_3-target.png,125,3.44,5,3117,121,feet,jsons/VE125_randls_46_rotated.json,1437967,1570900,33,Woman
12,891077,DepthScenes,duration_manipulation_targetAtFixation,jsons/VE125_randls_46_rotated.json,http://54.235.29.9/FacialAge/BNav_EC2/DepthDuration/v2_depth_duration_MTurk/v2_DepthDuration_HTML.html#55,55,980,1023,360,800,8-21-2022,10-23-0,13,depth_duration_stimuli/003010_2014-06-15_12-54-35_094959634447_rgbf000112-resize_0/003010_2014-06-15_12-54-35_094959634447_rgbf000112-resize_0-target.png,125,3.1185,8,3218,122,feet,jsons/VE125_randls_46_rotated.json,1437967,1570900,33,Woman
13,891077,DepthScenes,duration_manipulation_targetAtFixation,jsons/VE125_randls_46_rotated.json,http://54.235.29.9/FacialAge/BNav_EC2/DepthDuration/v2_depth_duration_MTurk/v2_DepthDuration_HTML.html#55,55,980,1023,360,800,8-21-2022,10-23-0,14,depth_duration_stimuli/001810_2014-06-26_20-51-35_260595134347_rgbf000040-resize_3/001810_2014-06-26_20-51-35_260595134347_rgbf000040-resize_3-target.png,125,2.2525,8,3902,122,feet,jsons/VE125_randls_46_rotated.json,1437967,1570900,33,Woman
14,891077,DepthScenes,duration_manipulation_targetAtFixation,jsons/VE125_randls_46_rotated.json,http://54.235.29.9/FacialAge/BNav_EC2/DepthDuration/v2_depth_duration_MTurk/v2_DepthDuration_HTML.html#55,55,980,1023,360,800,8-21-2022,10-23-0,15,depth_duration_stimuli/001828_2014-06-26_21-40-03_260595134347_rgbf000024-resize_0/001828_2014-06-26_21-40-03_260595134347_rgbf000024-resize_0-target.png,125,4.8260000000000005,7,9153,122,feet,jsons/VE125_randls_46_rotated.json,1437967,1570900,33,Woman
15,891077,DepthScenes,duration_manipulation_targetAtFixation,jsons/VE125_randls_46_rotated.json,http://54.235.29.9/FacialAge/BNav_EC2/DepthDuration/v2_depth_duration_MTurk/v2_DepthDuration_HTML.html#55,55,980,1023,360,800,8-21-2022,10-23-0,16,depth_duration_stimuli/000009_2014-05-26_14-32-05_260595134347_rgbf000034-resize_3/000009_2014-05-26_14-32-05_260595134347_rgbf000034-resize_3-target.png,125,3.8715,5,3752,121,feet,jsons/VE125_randls_46_rotated.json,1437967,1570900,33,Woman
16,891077,DepthScenes,duration_manipulation_targetAtFixation,jsons/VE125_randls_46_rotated.json,http://54.235.29.9/FacialAge/BNav_EC2/DepthDuration/v2_depth_duration_MTurk/v2_DepthDuration_HTML.html#55,55,980,1023,360,800,8-21-2022,10-23-0,17,depth_duration_stimuli/000665_2014-06-09_20-42-35_260595134347_rgbf000110-resize_1/000665_2014-06-09_20-42-35_260595134347_rgbf000110-resize_1-target.png,125,3.057,4,3159,120,feet,jsons/VE125_randls_46_rotated.json,1437967,1570900,33,Woman
17,891077,DepthScenes,duration_manipulation_targetAtFixation,jsons/VE125_randls_46_rotated.json,http://54.235.29.9/FacialAge/BNav_EC2/DepthDuration/v2_depth_duration_MTurk/v2_DepthDuration_HTML.html#55,55,980,1023,360,800,8-21-2022,10-23-0,18,depth_duration_stimuli/001150_2014-06-17_15-27-34_260595134347_rgbf000108-resize_2/001150_2014-06-17_15-27-34_260595134347_rgbf000108-resize_2-target.png,125,4.0325,4,3174,120,feet,jsons/VE125_randls_46_rotated.json,1437967,1570900,33,Woman
18,891077,DepthScenes,duration_manipulation_targetAtFixation,jsons/VE125_randls_46_rotated.json,http://54.235.29.9/FacialAge/BNav_EC2/DepthDuration/v2_depth_duration_MTurk/v2_DepthDuration_HTML.html#55,55,980,1023,360,800,8-21-2022,10-23-0,19,depth_duration_stimuli/001498_2014-06-19_17-45-14_260595134347_rgbf000129-resize_4/001498_2014-06-19_17-45-14_260595134347_rgbf000129-resize-original.jpg,125,1.4075,2,3169,120,feet,jsons/VE125_randls_46_rotated.json,1437967,1570900,33,Woman
19,891077,DepthScenes,duration_manipulation_targetAtFixation,jsons/VE125_randls_46_rotated.json,http://54.235.29.9/FacialAge/BNav_EC2/DepthDuration/v2_depth_duration_MTurk/v2_DepthDuration_HTML.html#55,55,980,1023,360,800,8-21-2022,10-23-0,20,depth_duration_stimuli/002637_2014-06-24_14-51-13_094959634447_rgbf000066-resize_4/002637_2014-06-24_14-51-13_094959634447_rgbf000066-resize_4-target.png,125,1.9955,6,3163,121,feet,jsons/VE125_randls_46_rotated.json,1437967,1570900,33,Woman
20,891077,DepthScenes,duration_manipulation_targetAtFixation,jsons/VE125_randls_46_rotated.json,http://54.235.29.9/FacialAge/BNav_EC2/DepthDuration/v2_depth_duration_MTurk/v2_DepthDuration_HTML.html#55,55,980,1023,360,800,8-21-2022,10-23-0,21,depth_duration_stimuli/003534_2014-05-22_15-06-10_094959634447_rgbf000102-resize_4/003534_2014-05-22_15-06-10_094959634447_rgbf000102-resize_4-target.png,125,1.426,7,3206,123,feet,jsons/VE125_randls_46_rotated.json,1437967,1570900,33,Woman
21,891077,DepthScenes,duration_manipulation_targetAtFixation,jsons/VE125_randls_46_rotated.json,http://54.235.29.9/FacialAge/BNav_EC2/DepthDuration/v2_depth_duration_MTurk/v2_DepthDuration_HTML.html#55,55,980,1023,360,800,8-21-2022,10-23-0,22,depth_duration_stimuli/003129_2014-05-12_10-48-10_094959634447_rgbf000100-resize_0/003129_2014-05-12_10-48-10_094959634447_rgbf000100-resize_0-target.png,125,4.9305,6,4190,121,feet,jsons/VE125_randls_46_rotated.json,1437967,1570900,33,Woman
22,891077,DepthScenes,duration_manipulation_targetAtFixation,jsons/VE125_randls_46_rotated.json,http://54.235.29.9/FacialAge/BNav_EC2/DepthDuration/v2_depth_duration_MTurk/v2_DepthDuration_HTML.html#55,55,980,1023,360,800,8-21-2022,10-23-0,23,depth_duration_stimuli/000414_2014-06-04_19-49-13_260595134347_rgbf000044-resize_0/000414_2014-06-04_19-49-13_260595134347_rgbf000044-resize_0-target.png,125,4.329,1,3051,121,feet,jsons/VE125_randls_46_rotated.json,1437967,1570900,33,Woman
23,891077,DepthScenes,duration_manipulation_targetAtFixation,jsons/VE125_randls_46_rotated.json,http://54.235.29.9/FacialAge/BNav_EC2/DepthDuration/v2_depth_duration_MTurk/v2_DepthDuration_HTML.html#55,55,980,1023,360,800,8-21-2022,10-23-0,24,depth_duration_stimuli/003490_2014-05-21_15-50-11_094959634447_rgbf000101-resize_3/003490_2014-05-21_15-50-11_094959634447_rgbf000101-resize_3-target.png,125,3.6445,7,4800,120,feet,jsons/VE125_randls_46_rotated.json,1437967,1570900,33,Woman
24,891077,DepthScenes,duration_manipulation_targetAtFixation,jsons/VE125_randls_46_rotated.json,http://54.235.29.9/FacialAge/BNav_EC2/DepthDuration/v2_depth_duration_MTurk/v2_DepthDuration_HTML.html#55,55,980,1023,360,800,8-21-2022,10-23-0,25,depth_duration_stimuli/001175_2014-06-17_15-45-55_260595134347_rgbf000129-resize_4/001175_2014-06-17_15-45-55_260595134347_rgbf000129-resize_4-target.png,125,4.255,8,4017,121,feet,jsons/VE125_randls_46_rotated.json,1437967,1570900,33,Woman
25,891077,DepthScenes,duration_manipulation_targetAtFixation,jsons/VE125_randls_46_rotated.json,http://54.235.29.9/FacialAge/BNav_EC2/DepthDuration/v2_depth_duration_MTurk/v2_DepthDuration_HTML.html#55,55,980,1023,360,800,8-21-2022,10-23-0,26,depth_duration_stimuli/000549_2014-06-08_22-10-24_260595134347_rgbf000247-resize_3/000549_2014-06-08_22-10-24_260595134347_rgbf000247-resize_3-target.png,125,1.841,4,3936,121,feet,jsons/VE125_randls_46_rotated.json,1437967,1570900,33,Woman
26,891077,DepthScenes,duration_manipulation_targetAtFixation,jsons/VE125_randls_46_rotated.json,http://54.235.29.9/FacialAge/BNav_EC2/DepthDuration/v2_depth_duration_MTurk/v2_DepthDuration_HTML.html#55,55,980,1023,360,800,8-21-2022,10-23-0,27,depth_duration_stimuli/001055_2014-06-08_18-45-35_260595134347_rgbf000111-resize_4/001055_2014-06-08_18-45-35_260595134347_rgbf000111-resize_4-target.png,125,2.4290000000000003,4,3480,121,feet,jsons/VE125_randls_46_rotated.json,1437967,1570900,33,Woman
27,891077,DepthScenes,duration_manipulation_targetAtFixation,jsons/VE125_randls_46_rotated.json,http://54.235.29.9/FacialAge/BNav_EC2/DepthDuration/v2_depth_duration_MTurk/v2_DepthDuration_HTML.html#55,55,980,1023,360,800,8-21-2022,10-23-0,28,depth_duration_stimuli/000749_2014-06-08_21-55-06_260595134347_rgbf000070-resize_2/000749_2014-06-08_21-55-06_260595134347_rgbf000070-resize_2-target.png,125,2.331,5,3317,121,feet,jsons/VE125_randls_46_rotated.json,1437967,1570900,33,Woman
28,891077,DepthScenes,duration_manipulation_targetAtFixation,jsons/VE125_randls_46_rotated.json,http://54.235.29.9/FacialAge/BNav_EC2/DepthDuration/v2_depth_duration_MTurk/v2_DepthDuration_HTML.html#55,55,980,1023,360,800,8-21-2022,10-23-0,29,depth_duration_stimuli/002788_2014-06-22_19-36-03_094959634447_rgbf000088-resize_2/002788_2014-06-22_19-36-03_094959634447_rgbf000088-resize_2-target.png,125,1.6465,7,5251,121,feet,jsons/VE125_randls_46_rotated.json,1437967,1570900,33,Woman
29,891077,DepthScenes,duration_manipulation_targetAtFixation,jsons/VE125_randls_46_rotated.json,http://54.235.29.9/FacialAge/BNav_EC2/DepthDuration/v2_depth_duration_MTurk/v2_DepthDuration_HTML.html#55,55,980,1023,360,800,8-21-2022,10-23-0,30,depth_duration_stimuli/002072_2014-06-24_21-48-06_260595134347_rgbf000115-resize_0/002072_2014-06-24_21-48-06_260595134347_rgbf000115-resize-original.jpg,125,4.702,3,3422,123,feet,jsons/VE125_randls_46_rotated.json,1437967,1570900,33,Woman
30,891077,DepthScenes,duration_manipulation_targetAtFixation,jsons/VE125_randls_46_rotated.json,http://54.235.29.9/FacialAge/BNav_EC2/DepthDuration/v2_depth_duration_MTurk/v2_DepthDuration_HTML.html#55,55,980,1023,360,800,8-21-2022,10-23-0,31,depth_duration_stimuli/002467_2014-06-28_20-38-07_260595134347_rgbf000026-resize_2/002467_2014-06-28_20-38-07_260595134347_rgbf000026-resize_2-target.png,125,4.742,1,3401,119,feet,jsons/VE125_randls_46_rotated.json,1437967,1570900,33,Woman
31,891077,DepthScenes,duration_manipulation_targetAtFixation,jsons/VE125_randls_46_rotated.json,http://54.235.29.9/FacialAge/BNav_EC2/DepthDuration/v2_depth_duration_MTurk/v2_DepthDuration_HTML.html#55,55,980,1023,360,800,8-21-2022,10-23-0,32,depth_duration_stimuli/002570_2014-06-24_13-59-54_094959634447_rgbf000059-resize_0/002570_2014-06-24_13-59-54_094959634447_rgbf000059-resize_0-target.png,125,4.037,4,3377,120,feet,jsons/VE125_randls_46_rotated.json,1437967,1570900,33,Woman
32,891077,DepthScenes,duration_manipulation_targetAtFixation,jsons/VE125_randls_46_rotated.json,http://54.235.29.9/FacialAge/BNav_EC2/DepthDuration/v2_depth_duration_MTurk/v2_DepthDuration_HTML.html#55,55,980,1023,360,800,8-21-2022,10-23-0,33,depth_duration_stimuli/001136_2014-06-17_15-19-41_260595134347_rgbf000076-resize_3/001136_2014-06-17_15-19-41_260595134347_rgbf000076-resize_3-target.png,125,1.8655,6,3260,120,feet,jsons/VE125_randls_46_rotated.json,1437967,1570900,33,Woman
33,891077,DepthScenes,duration_manipulation_targetAtFixation,jsons/VE125_randls_46_rotated.json,http://54.235.29.9/FacialAge/BNav_EC2/DepthDuration/v2_depth_duration_MTurk/v2_DepthDuration_HTML.html#55,55,980,1023,360,800,8-21-2022,10-23-0,34,depth_duration_stimuli/001164_2014-06-17_15-35-46_260595134347_rgbf000085-resize_3/001164_2014-06-17_15-35-46_260595134347_rgbf000085-resize_3-target.png,125,2.354,7,3361,122,feet,jsons/VE125_randls_46_rotated.json,1437967,1570900,33,Woman
34,891077,DepthScenes,duration_manipulation_targetAtFixation,jsons/VE125_randls_46_rotated.json,http://54.235.29.9/FacialAge/BNav_EC2/DepthDuration/v2_depth_duration_MTurk/v2_DepthDuration_HTML.html#55,55,980,1023,360,800,8-21-2022,10-23-0,35,depth_duration_stimuli/000556_2014-06-09_22-42-56_260595134347_rgbf000214-resize_1/000556_2014-06-09_22-42-56_260595134347_rgbf000214-resize_1-target.png,125,4.8415,7,4958,120,feet,jsons/VE125_randls_46_rotated.json,1437967,1570900,33,Woman
35,891077,DepthScenes,duration_manipulation_targetAtFixation,jsons/VE125_randls_46_rotated.json,http://54.235.29.9/FacialAge/BNav_EC2/DepthDuration/v2_depth_duration_MTurk/v2_DepthDuration_HTML.html#55,55,980,1023,360,800,8-21-2022,10-23-0,36,depth_duration_stimuli/001158_2014-06-17_15-32-16_260595134347_rgbf000138-resize_2/001158_2014-06-17_15-32-16_260595134347_rgbf000138-resize_2-target.png,125,4.5315,7,4674,122,feet,jsons/VE125_randls_46_rotated.json,1437967,1570900,33,Woman
36,891077,DepthScenes,duration_manipulation_targetAtFixation,jsons/VE125_randls_46_rotated.json,http://54.235.29.9/FacialAge/BNav_EC2/DepthDuration/v2_depth_duration_MTurk/v2_DepthDuration_HTML.html#55,55,980,1023,360,800,8-21-2022,10-23-0,37,depth_duration_stimuli/000677_2014-06-08_23-10-32_260595134347_rgbf000158-resize_6/000677_2014-06-08_23-10-32_260595134347_rgbf000158-resize_6-target.png,125,3.556,6,3334,122,feet,jsons/VE125_randls_46_rotated.json,1437967,1570900,33,Woman
37,891077,DepthScenes,duration_manipulation_targetAtFixation,jsons/VE125_randls_46_rotated.json,http://54.235.29.9/FacialAge/BNav_EC2/DepthDuration/v2_depth_duration_MTurk/v2_DepthDuration_HTML.html#55,55,980,1023,360,800,8-21-2022,10-23-0,38,depth_duration_stimuli/001029_2014-06-08_13-17-57_260595134347_rgbf000065-resize_1/001029_2014-06-08_13-17-57_260595134347_rgbf000065-resize_1-target.png,125,3.0835,6,6769,122,feet,jsons/VE125_randls_46_rotated.json,1437967,1570900,33,Woman
38,891077,DepthScenes,duration_manipulation_targetAtFixation,jsons/VE125_randls_46_rotated.json,http://54.235.29.9/FacialAge/BNav_EC2/DepthDuration/v2_depth_duration_MTurk/v2_DepthDuration_HTML.html#55,55,980,1023,360,800,8-21-2022,10-23-0,39,depth_duration_stimuli/001094_2014-06-15_17-36-00_260595134347_rgbf000205-resize_0/001094_2014-06-15_17-36-00_260595134347_rgbf000205-resize_0-target.png,125,4.2175,7,3411,122,feet,jsons/VE125_randls_46_rotated.json,1437967,1570900,33,Woman
39,891077,DepthScenes,duration_manipulation_targetAtFixation,jsons/VE125_randls_46_rotated.json,http://54.235.29.9/FacialAge/BNav_EC2/DepthDuration/v2_depth_duration_MTurk/v2_DepthDuration_HTML.html#55,55,980,1023,360,800,8-21-2022,10-23-0,40,depth_duration_stimuli/000692_2014-06-08_13-09-42_260595134347_rgbf000199-resize_2/000692_2014-06-08_13-09-42_260595134347_rgbf000199-resize_2-target.png,125,3.661,8,11229,123,feet,jsons/VE125_randls_46_rotated.json,1437967,1570900,33,Woman
40,891077,DepthScenes,duration_manipulation_targetAtFixation,jsons/VE125_randls_46_rotated.json,http://54.235.29.9/FacialAge/BNav_EC2/DepthDuration/v2_depth_duration_MTurk/v2_DepthDuration_HTML.html#55,55,980,1023,360,800,8-21-2022,10-23-0,41,depth_duration_stimuli/002750_2014-06-22_19-08-03_094959634447_rgbf000094-resize_4/002750_2014-06-22_19-08-03_094959634447_rgbf000094-resize_4-target.png,125,2.354,7,10876,121,feet,jsons/VE125_randls_46_rotated.json,1437967,1570900,33,Woman
41,891077,DepthScenes,duration_manipulation_targetAtFixation,jsons/VE125_randls_46_rotated.json,http://54.235.29.9/FacialAge/BNav_EC2/DepthDuration/v2_depth_duration_MTurk/v2_DepthDuration_HTML.html#55,55,980,1023,360,800,8-21-2022,10-23-0,42,depth_duration_stimuli/002549_2014-06-24_13-41-39_094959634447_rgbf000022-resize_3/002549_2014-06-24_13-41-39_094959634447_rgbf000022-resize_3-target.png,125,1.476,5,5581,122,feet,jsons/VE125_randls_46_rotated.json,1437967,1570900,33,Woman
42,891077,DepthScenes,duration_manipulation_targetAtFixation,jsons/VE125_randls_46_rotated.json,http://54.235.29.9/FacialAge/BNav_EC2/DepthDuration/v2_depth_duration_MTurk/v2_DepthDuration_HTML.html#55,55,980,1023,360,800,8-21-2022,10-23-0,43,depth_duration_stimuli/003228_2014-05-14_13-42-35_094959634447_rgbf000101-resize_1/003228_2014-05-14_13-42-35_094959634447_rgbf000101-resize_1-target.png,125,1.9680000000000002,7,16622,121,feet,jsons/VE125_randls_46_rotated.json,1437967,1570900,33,Woman
43,891077,DepthScenes,duration_manipulation_targetAtFixation,jsons/VE125_randls_46_rotated.json,http://54.235.29.9/FacialAge/BNav_EC2/DepthDuration/v2_depth_duration_MTurk/v2_DepthDuration_HTML.html#55,55,980,1023,360,800,8-21-2022,10-23-0,44,depth_duration_stimuli/002600_2014-06-24_14-27-04_094959634447_rgbf000074-resize_2/002600_2014-06-24_14-27-04_094959634447_rgbf000074-resize_2-target.png,125,2.7575,6,45294,123,feet,jsons/VE125_randls_46_rotated.json,1437967,1570900,33,Woman
44,891077,DepthScenes,duration_manipulation_targetAtFixation,jsons/VE125_randls_46_rotated.json,http://54.235.29.9/FacialAge/BNav_EC2/DepthDuration/v2_depth_duration_MTurk/v2_DepthDuration_HTML.html#55,55,980,1023,360,800,8-21-2022,10-23-0,45,depth_duration_stimuli/001132_2014-06-17_14-48-54_260595134347_rgbf000100-resize_2/001132_2014-06-17_14-48-54_260595134347_rgbf000100-resize_2-target.png,125,3.753,0,6530,121,feet,jsons/VE125_randls_46_rotated.json,1437967,1570900,33,Woman
45,891077,DepthScenes,duration_manipulation_targetAtFixation,jsons/VE125_randls_46_rotated.json,http://54.235.29.9/FacialAge/BNav_EC2/DepthDuration/v2_depth_duration_MTurk/v2_DepthDuration_HTML.html#55,55,980,1023,360,800,8-21-2022,10-23-0,46,depth_duration_stimuli/001133_2014-06-17_14-49-16_260595134347_rgbf000100-resize_0/001133_2014-06-17_14-49-16_260595134347_rgbf000100-resize_0-target.png,125,4.2115,6,39728,120,feet,jsons/VE125_randls_46_rotated.json,1437967,1570900,33,Woman
46,891077,DepthScenes,duration_manipulation_targetAtFixation,jsons/VE125_randls_46_rotated.json,http://54.235.29.9/FacialAge/BNav_EC2/DepthDuration/v2_depth_duration_MTurk/v2_DepthDuration_HTML.html#55,55,980,1023,360,800,8-21-2022,10-23-0,47,depth_duration_stimuli/000691_2014-06-08_13-08-50_260595134347_rgbf000132-resize_3/000691_2014-06-08_13-08-50_260595134347_rgbf000132-resize_3-target.png,125,4.1530000000000005,7,35729,111,feet,jsons/VE125_randls_46_rotated.json,1437967,1570900,33,Woman
47,891077,DepthScenes,duration_manipulation_targetAtFixation,jsons/VE125_randls_46_rotated.json,http://54.235.29.9/FacialAge/BNav_EC2/DepthDuration/v2_depth_duration_MTurk/v2_DepthDuration_HTML.html#55,55,980,1023,360,800,8-21-2022,10-23-0,48,depth_duration_stimuli/002213_2014-06-28_18-37-58_260595134347_rgbf000055-resize_1/002213_2014-06-28_18-37-58_260595134347_rgbf000055-resize_1-target.png,125,3.62,2,70163,119,feet,jsons/VE125_randls_46_rotated.json,1437967,1570900,33,Woman
48,891077,DepthScenes,duration_manipulation_targetAtFixation,jsons/VE125_randls_46_rotated.json,http://54.235.29.9/FacialAge/BNav_EC2/DepthDuration/v2_depth_duration_MTurk/v2_DepthDuration_HTML.html#55,55,980,1023,360,800,8-21-2022,10-23-0,49,depth_duration_stimuli/001170_2014-06-17_15-43-44_260595134347_rgbf000096-resize_6/001170_2014-06-17_15-43-44_260595134347_rgbf000096-resize-original.jpg,125,1.1909999999999998,7,34021,120,feet,jsons/VE125_randls_46_rotated.json,1437967,1570900,33,Woman
49,891077,DepthScenes,duration_manipulation_targetAtFixation,jsons/VE125_randls_46_rotated.json,http://54.235.29.9/FacialAge/BNav_EC2/DepthDuration/v2_depth_duration_MTurk/v2_DepthDuration_HTML.html#55,55,980,1023,360,800,8-21-2022,10-23-0,50,depth_duration_stimuli/001052_2014-06-08_18-24-54_260595134347_rgbf000130-resize_1/001052_2014-06-08_18-24-54_260595134347_rgbf000130-resize_1-target.png,125,4.1045,0,3280,121,feet,jsons/VE125_randls_46_rotated.json,1437967,1570900,33,Woman
50,891077,DepthScenes,duration_manipulation_targetAtFixation,jsons/VE125_randls_46_rotated.json,http://54.235.29.9/FacialAge/BNav_EC2/DepthDuration/v2_depth_duration_MTurk/v2_DepthDuration_HTML.html#55,55,980,1023,360,800,8-21-2022,10-23-0,51,depth_duration_stimuli/002988_2014-06-15_12-24-20_094959634447_rgbf000150-resize_1/002988_2014-06-15_12-24-20_094959634447_rgbf000150-resize_1-target.png,125,4.7669999999999995,3,5692,119,feet,jsons/VE125_randls_46_rotated.json,1437967,1570900,33,Woman
51,891077,DepthScenes,duration_manipulation_targetAtFixation,jsons/VE125_randls_46_rotated.json,http://54.235.29.9/FacialAge/BNav_EC2/DepthDuration/v2_depth_duration_MTurk/v2_DepthDuration_HTML.html#55,55,980,1023,360,800,8-21-2022,10-23-0,52,depth_duration_stimuli/000409_2014-06-04_19-23-33_260595134347_rgbf000067-resize_0/000409_2014-06-04_19-23-33_260595134347_rgbf000067-resize_0-target.png,125,3.7335,0,5348,122,feet,jsons/VE125_randls_46_rotated.json,1437967,1570900,33,Woman
52,891077,DepthScenes,duration_manipulation_targetAtFixation,jsons/VE125_randls_46_rotated.json,http://54.235.29.9/FacialAge/BNav_EC2/DepthDuration/v2_depth_duration_MTurk/v2_DepthDuration_HTML.html#55,55,980,1023,360,800,8-21-2022,10-23-0,53,depth_duration_stimuli/002663_2014-06-13_15-50-26_094959634447_rgbf000075-resize_1/002663_2014-06-13_15-50-26_094959634447_rgbf000075-resize_1-target.png,125,4.7495,4,5649,122,feet,jsons/VE125_randls_46_rotated.json,1437967,1570900,33,Woman
53,891077,DepthScenes,duration_manipulation_targetAtFixation,jsons/VE125_randls_46_rotated.json,http://54.235.29.9/FacialAge/BNav_EC2/DepthDuration/v2_depth_duration_MTurk/v2_DepthDuration_HTML.html#55,55,980,1023,360,800,8-21-2022,10-23-0,54,depth_duration_stimuli/000927_2014-06-09_16-32-30_260595134347_rgbf000123-resize_3/000927_2014-06-09_16-32-30_260595134347_rgbf000123-resize_3-target.png,125,2.6785,3,4371,123,feet,jsons/VE125_randls_46_rotated.json,1437967,1570900,33,Woman
54,891077,DepthScenes,duration_manipulation_targetAtFixation,jsons/VE125_randls_46_rotated.json,http://54.235.29.9/FacialAge/BNav_EC2/DepthDuration/v2_depth_duration_MTurk/v2_DepthDuration_HTML.html#55,55,980,1023,360,800,8-21-2022,10-23-0,55,depth_duration_stimuli/001110_2014-06-15_17-25-28_260595134347_rgbf000150-resize_1/001110_2014-06-15_17-25-28_260595134347_rgbf000150-resize_1-target.png,125,1.7115,6,99304,120,feet,jsons/VE125_randls_46_rotated.json,1437967,1570900,33,Woman
55,891077,DepthScenes,duration_manipulation_targetAtFixation,jsons/VE125_randls_46_rotated.json,http://54.235.29.9/FacialAge/BNav_EC2/DepthDuration/v2_depth_duration_MTurk/v2_DepthDuration_HTML.html#55,55,980,1023,360,800,8-21-2022,10-23-0,56,depth_duration_stimuli/002805_2014-06-22_19-54-03_094959634447_rgbf000079-resize_1/002805_2014-06-22_19-54-03_094959634447_rgbf000079-resize_1-target.png,125,3.1439999999999997,8,5708,120,feet,jsons/VE125_randls_46_rotated.json,1437967,1570900,33,Woman
56,891077,DepthScenes,duration_manipulation_targetAtFixation,jsons/VE125_randls_46_rotated.json,http://54.235.29.9/FacialAge/BNav_EC2/DepthDuration/v2_depth_duration_MTurk/v2_DepthDuration_HTML.html#55,55,980,1023,360,800,8-21-2022,10-23-0,57,depth_duration_stimuli/000906_2014-06-08_13-35-43_260595134347_rgbf000155-resize_1/000906_2014-06-08_13-35-43_260595134347_rgbf000155-resize_1-target.png,125,2.8489999999999998,1,2994,120,feet,jsons/VE125_randls_46_rotated.json,1437967,1570900,33,Woman
57,891077,DepthScenes,duration_manipulation_targetAtFixation,jsons/VE125_randls_46_rotated.json,http://54.235.29.9/FacialAge/BNav_EC2/DepthDuration/v2_depth_duration_MTurk/v2_DepthDuration_HTML.html#55,55,980,1023,360,800,8-21-2022,10-23-0,58,depth_duration_stimuli/002414_2014-06-28_20-24-58_260595134347_rgbf000067-resize_4/002414_2014-06-28_20-24-58_260595134347_rgbf000067-resize_4-target.png,125,4.363,5,9635,121,feet,jsons/VE125_randls_46_rotated.json,1437967,1570900,33,Woman
58,891077,DepthScenes,duration_manipulation_targetAtFixation,jsons/VE125_randls_46_rotated.json,http://54.235.29.9/FacialAge/BNav_EC2/DepthDuration/v2_depth_duration_MTurk/v2_DepthDuration_HTML.html#55,55,980,1023,360,800,8-21-2022,10-23-0,59,depth_duration_stimuli/000773_2014-06-08_22-24-54_260595134347_rgbf000093-resize_1/000773_2014-06-08_22-24-54_260595134347_rgbf000093-resize_1-target.png,125,4.973,5,20444,123,feet,jsons/VE125_randls_46_rotated.json,1437967,1570900,33,Woman
59,891077,DepthScenes,duration_manipulation_targetAtFixation,jsons/VE125_randls_46_rotated.json,http://54.235.29.9/FacialAge/BNav_EC2/DepthDuration/v2_depth_duration_MTurk/v2_DepthDuration_HTML.html#55,55,980,1023,360,800,8-21-2022,10-23-0,60,depth_duration_stimuli/003083_2014-06-15_15-21-03_094959634447_rgbf000063-resize_1/003083_2014-06-15_15-21-03_094959634447_rgbf000063-resize_1-target.png,125,4.1405,8,3968,120,feet,jsons/VE125_randls_46_rotated.json,1437967,1570900,33,Woman
60,891077,DepthScenes,duration_manipulation_targetAtFixation,jsons/VE125_randls_46_rotated.json,http://54.235.29.9/FacialAge/BNav_EC2/DepthDuration/v2_depth_duration_MTurk/v2_DepthDuration_HTML.html#55,55,980,1023,360,800,8-21-2022,10-23-0,61,depth_duration_stimuli/000486_2014-06-09_20-47-20_260595134347_rgbf000143-resize_2/000486_2014-06-09_20-47-20_260595134347_rgbf000143-resize_2-target.png,125,4.8325,3,4290,120,feet,jsons/VE125_randls_46_rotated.json,1437967,1570900,33,Woman
61,891077,DepthScenes,duration_manipulation_targetAtFixation,jsons/VE125_randls_46_rotated.json,http://54.235.29.9/FacialAge/BNav_EC2/DepthDuration/v2_depth_duration_MTurk/v2_DepthDuration_HTML.html#55,55,980,1023,360,800,8-21-2022,10-23-0,62,depth_duration_stimuli/002323_2014-06-28_20-01-54_260595134347_rgbf000051-resize_4/002323_2014-06-28_20-01-54_260595134347_rgbf000051-resize_4-target.png,125,3.7310000000000003,6,3252,123,feet,jsons/VE125_randls_46_rotated.json,1437967,1570900,33,Woman
62,891077,DepthScenes,duration_manipulation_targetAtFixation,jsons/VE125_randls_46_rotated.json,http://54.235.29.9/FacialAge/BNav_EC2/DepthDuration/v2_depth_duration_MTurk/v2_DepthDuration_HTML.html#55,55,980,1023,360,800,8-21-2022,10-23-0,63,depth_duration_stimuli/000917_2014-06-09_22-45-29_260595134347_rgbf000149-resize_3/000917_2014-06-09_22-45-29_260595134347_rgbf000149-resize_3-target.png,125,4.1865,2,3425,123,feet,jsons/VE125_randls_46_rotated.json,1437967,1570900,33,Woman
63,891077,DepthScenes,duration_manipulation_targetAtFixation,jsons/VE125_randls_46_rotated.json,http://54.235.29.9/FacialAge/BNav_EC2/DepthDuration/v2_depth_duration_MTurk/v2_DepthDuration_HTML.html#55,55,980,1023,360,800,8-21-2022,10-23-0,64,depth_duration_stimuli/003048_2014-06-15_13-49-43_094959634447_rgbf000150-resize_1/003048_2014-06-15_13-49-43_094959634447_rgbf000150-resize_1-target.png,125,4.0035,5,21338,123,feet,jsons/VE125_randls_46_rotated.json,1437967,1570900,33,Woman
64,891077,DepthScenes,duration_manipulation_targetAtFixation,jsons/VE125_randls_46_rotated.json,http://54.235.29.9/FacialAge/BNav_EC2/DepthDuration/v2_depth_duration_MTurk/v2_DepthDuration_HTML.html#55,55,980,1023,360,800,8-21-2022,10-23-0,65,depth_duration_stimuli/002043_2014-06-24_20-29-38_260595134347_rgbf000039-resize_4/002043_2014-06-24_20-29-38_260595134347_rgbf000039-resize_4-target.png,125,2.8435,3,3013,121,feet,jsons/VE125_randls_46_rotated.json,1437967,1570900,33,Woman
65,891077,DepthScenes,duration_manipulation_targetAtFixation,jsons/VE125_randls_46_rotated.json,http://54.235.29.9/FacialAge/BNav_EC2/DepthDuration/v2_depth_duration_MTurk/v2_DepthDuration_HTML.html#55,55,980,1023,360,800,8-21-2022,10-23-0,66,depth_duration_stimuli/001540_2014-06-20_17-01-05_260595134347_rgbf000086-resize_2/001540_2014-06-20_17-01-05_260595134347_rgbf000086-resize-original.jpg,125,1.459,9,3402,123,feet,jsons/VE125_randls_46_rotated.json,1437967,1570900,33,Woman
66,891077,DepthScenes,duration_manipulation_targetAtFixation,jsons/VE125_randls_46_rotated.json,http://54.235.29.9/FacialAge/BNav_EC2/DepthDuration/v2_depth_duration_MTurk/v2_DepthDuration_HTML.html#55,55,980,1023,360,800,8-21-2022,10-23-0,67,depth_duration_stimuli/002444_2014-06-28_20-32-08_260595134347_rgbf000027-resize_0/002444_2014-06-28_20-32-08_260595134347_rgbf000027-resize_0-target.png,125,4.388999999999999,1,3174,120,feet,jsons/VE125_randls_46_rotated.json,1437967,1570900,33,Woman
67,891077,DepthScenes,duration_manipulation_targetAtFixation,jsons/VE125_randls_46_rotated.json,http://54.235.29.9/FacialAge/BNav_EC2/DepthDuration/v2_depth_duration_MTurk/v2_DepthDuration_HTML.html#55,55,980,1023,360,800,8-21-2022,10-23-0,68,depth_duration_stimuli/000436_2014-06-09_22-25-11_260595134347_rgbf000137-resize_1/000436_2014-06-09_22-25-11_260595134347_rgbf000137-resize_1-target.png,125,4.0705,2,3199,122,feet,jsons/VE125_randls_46_rotated.json,1437967,1570900,33,Woman
68,891077,DepthScenes,duration_manipulation_targetAtFixation,jsons/VE125_randls_46_rotated.json,http://54.235.29.9/FacialAge/BNav_EC2/DepthDuration/v2_depth_duration_MTurk/v2_DepthDuration_HTML.html#55,55,980,1023,360,800,8-21-2022,10-23-0,69,depth_duration_stimuli/001650_2014-06-20_12-09-00_260595134347_rgbf000087-resize_3/001650_2014-06-20_12-09-00_260595134347_rgbf000087-resize_3-target.png,125,1.9505,4,4627,122,feet,jsons/VE125_randls_46_rotated.json,1437967,1570900,33,Woman
69,891077,DepthScenes,duration_manipulation_targetAtFixation,jsons/VE125_randls_46_rotated.json,http://54.235.29.9/FacialAge/BNav_EC2/DepthDuration/v2_depth_duration_MTurk/v2_DepthDuration_HTML.html#55,55,980,1023,360,800,8-21-2022,10-23-0,70,depth_duration_stimuli/000682_2014-06-08_23-14-58_260595134347_rgbf000041-resize_5/000682_2014-06-08_23-14-58_260595134347_rgbf000041-resize_5-target.png,125,2.7239999999999998,7,3538,121,feet,jsons/VE125_randls_46_rotated.json,1437967,1570900,33,Woman
70,891077,DepthScenes,duration_manipulation_targetAtFixation,jsons/VE125_randls_46_rotated.json,http://54.235.29.9/FacialAge/BNav_EC2/DepthDuration/v2_depth_duration_MTurk/v2_DepthDuration_HTML.html#55,55,980,1023,360,800,8-21-2022,10-23-0,71,depth_duration_stimuli/000109_2014-05-14_23-41-52_260595134347_rgbf000035-resize_9/000109_2014-05-14_23-41-52_260595134347_rgbf000035-resize_9-target.png,125,1.3545,4,3396,123,feet,jsons/VE125_randls_46_rotated.json,1437967,1570900,33,Woman
71,891077,DepthScenes,duration_manipulation_targetAtFixation,jsons/VE125_randls_46_rotated.json,http://54.235.29.9/FacialAge/BNav_EC2/DepthDuration/v2_depth_duration_MTurk/v2_DepthDuration_HTML.html#55,55,980,1023,360,800,8-21-2022,10-23-0,72,depth_duration_stimuli/000470_2014-06-09_19-42-40_260595134347_rgbf000094-resize_1/000470_2014-06-09_19-42-40_260595134347_rgbf000094-resize_1-target.png,125,1.831,6,62209,122,feet,jsons/VE125_randls_46_rotated.json,1437967,1570900,33,Woman
72,891077,DepthScenes,duration_manipulation_targetAtFixation,jsons/VE125_randls_46_rotated.json,http://54.235.29.9/FacialAge/BNav_EC2/DepthDuration/v2_depth_duration_MTurk/v2_DepthDuration_HTML.html#55,55,980,1023,360,800,8-21-2022,10-23-0,73,depth_duration_stimuli/002639_2014-06-24_14-51-37_094959634447_rgbf000074-resize_4/002639_2014-06-24_14-51-37_094959634447_rgbf000074-resize_4-target.png,125,4.0375,5,3066,122,feet,jsons/VE125_randls_46_rotated.json,1437967,1570900,33,Woman
73,891077,DepthScenes,duration_manipulation_targetAtFixation,jsons/VE125_randls_46_rotated.json,http://54.235.29.9/FacialAge/BNav_EC2/DepthDuration/v2_depth_duration_MTurk/v2_DepthDuration_HTML.html#55,55,980,1023,360,800,8-21-2022,10-23-0,74,depth_duration_stimuli/003292_2014-05-14_21-53-49_094959634447_rgbf000100-resize_2/003292_2014-05-14_21-53-49_094959634447_rgbf000100-resize_2-target.png,125,3.4815,3,3154,123,feet,jsons/VE125_randls_46_rotated.json,1437967,1570900,33,Woman
74,891077,DepthScenes,duration_manipulation_targetAtFixation,jsons/VE125_randls_46_rotated.json,http://54.235.29.9/FacialAge/BNav_EC2/DepthDuration/v2_depth_duration_MTurk/v2_DepthDuration_HTML.html#55,55,980,1023,360,800,8-21-2022,10-23-0,75,depth_duration_stimuli/001235_2014-06-17_16-37-36_260595134347_rgbf000084-resize_4/001235_2014-06-17_16-37-36_260595134347_rgbf000084-resize_4-target.png,125,3.6605,5,3535,122,feet,jsons/VE125_randls_46_rotated.json,1437967,1570900,33,Woman
75,891077,DepthScenes,duration_manipulation_targetAtFixation,jsons/VE125_randls_46_rotated.json,http://54.235.29.9/FacialAge/BNav_EC2/DepthDuration/v2_depth_duration_MTurk/v2_DepthDuration_HTML.html#55,55,980,1023,360,800,8-21-2022,10-23-0,76,depth_duration_stimuli/000788_2014-06-08_22-34-36_260595134347_rgbf000131-resize_1/000788_2014-06-08_22-34-36_260595134347_rgbf000131-resize_1-target.png,125,3.359,2,3104,122,feet,jsons/VE125_randls_46_rotated.json,1437967,1570900,33,Woman
76,891077,DepthScenes,duration_manipulation_targetAtFixation,jsons/VE125_randls_46_rotated.json,http://54.235.29.9/FacialAge/BNav_EC2/DepthDuration/v2_depth_duration_MTurk/v2_DepthDuration_HTML.html#55,55,980,1023,360,800,8-21-2022,10-23-0,77,depth_duration_stimuli/002875_2014-06-01_15-19-00_094959634447_rgbf000151-resize_1/002875_2014-06-01_15-19-00_094959634447_rgbf000151-resize_1-target.png,125,1.9675,7,3436,122,feet,jsons/VE125_randls_46_rotated.json,1437967,1570900,33,Woman
77,891077,DepthScenes,duration_manipulation_targetAtFixation,jsons/VE125_randls_46_rotated.json,http://54.235.29.9/FacialAge/BNav_EC2/DepthDuration/v2_depth_duration_MTurk/v2_DepthDuration_HTML.html#55,55,980,1023,360,800,8-21-2022,10-23-0,78,depth_duration_stimuli/001011_2014-06-08_23-18-54_260595134347_rgbf000044-resize_4/001011_2014-06-08_23-18-54_260595134347_rgbf000044-resize_4-target.png,125,2.4730000000000003,5,3293,122,feet,jsons/VE125_randls_46_rotated.json,1437967,1570900,33,Woman
78,891077,DepthScenes,duration_manipulation_targetAtFixation,jsons/VE125_randls_46_rotated.json,http://54.235.29.9/FacialAge/BNav_EC2/DepthDuration/v2_depth_duration_MTurk/v2_DepthDuration_HTML.html#55,55,980,1023,360,800,8-21-2022,10-23-0,79,depth_duration_stimuli/000483_2014-06-09_20-41-45_260595134347_rgbf000116-resize_4/000483_2014-06-09_20-41-45_260595134347_rgbf000116-resize_4-target.png,125,1.337,7,3274,121,feet,jsons/VE125_randls_46_rotated.json,1437967,1570900,33,Woman
79,891077,DepthScenes,duration_manipulation_targetAtFixation,jsons/VE125_randls_46_rotated.json,http://54.235.29.9/FacialAge/BNav_EC2/DepthDuration/v2_depth_duration_MTurk/v2_DepthDuration_HTML.html#55,55,980,1023,360,800,8-21-2022,10-23-0,80,depth_duration_stimuli/000469_2014-06-09_19-42-10_260595134347_rgbf000081-resize_1/000469_2014-06-09_19-42-10_260595134347_rgbf000081-resize_1-target.png,125,1.652,4,3387,121,feet,jsons/VE125_randls_46_rotated.json,1437967,1570900,33,Woman
80,891077,DepthScenes,duration_manipulation_targetAtFixation,jsons/VE125_randls_46_rotated.json,http://54.235.29.9/FacialAge/BNav_EC2/DepthDuration/v2_depth_duration_MTurk/v2_DepthDuration_HTML.html#55,55,980,1023,360,800,8-21-2022,10-23-0,81,depth_duration_stimuli/002657_2014-06-13_15-29-54_094959634447_rgbf000150-resize_1/002657_2014-06-13_15-29-54_094959634447_rgbf000150-resize_1-target.png,125,4.919,6,9396,123,feet,jsons/VE125_randls_46_rotated.json,1437967,1570900,33,Woman
81,891077,DepthScenes,duration_manipulation_targetAtFixation,jsons/VE125_randls_46_rotated.json,http://54.235.29.9/FacialAge/BNav_EC2/DepthDuration/v2_depth_duration_MTurk/v2_DepthDuration_HTML.html#55,55,980,1023,360,800,8-21-2022,10-23-0,82,depth_duration_stimuli/002375_2014-06-28_20-13-44_260595134347_rgbf000032-resize_1/002375_2014-06-28_20-13-44_260595134347_rgbf000032-resize_1-target.png,125,4.0175,7,12244,121,feet,jsons/VE125_randls_46_rotated.json,1437967,1570900,33,Woman
82,891077,DepthScenes,duration_manipulation_targetAtFixation,jsons/VE125_randls_46_rotated.json,http://54.235.29.9/FacialAge/BNav_EC2/DepthDuration/v2_depth_duration_MTurk/v2_DepthDuration_HTML.html#55,55,980,1023,360,800,8-21-2022,10-23-0,83,depth_duration_stimuli/003423_2014-05-21_10-23-26_094959634447_rgbf002665-resize_2/003423_2014-05-21_10-23-26_094959634447_rgbf002665-resize_2-target.png,125,3.2575,0,3273,119,feet,jsons/VE125_randls_46_rotated.json,1437967,1570900,33,Woman
83,891077,DepthScenes,duration_manipulation_targetAtFixation,jsons/VE125_randls_46_rotated.json,http://54.235.29.9/FacialAge/BNav_EC2/DepthDuration/v2_depth_duration_MTurk/v2_DepthDuration_HTML.html#55,55,980,1023,360,800,8-21-2022,10-23-0,84,depth_duration_stimuli/002905_2014-06-03_18-04-43_094959634447_rgbf000151-resize_2/002905_2014-06-03_18-04-43_094959634447_rgbf000151-resize_2-target.png,125,2.0295,2,3387,122,feet,jsons/VE125_randls_46_rotated.json,1437967,1570900,33,Woman
84,891077,DepthScenes,duration_manipulation_targetAtFixation,jsons/VE125_randls_46_rotated.json,http://54.235.29.9/FacialAge/BNav_EC2/DepthDuration/v2_depth_duration_MTurk/v2_DepthDuration_HTML.html#55,55,980,1023,360,800,8-21-2022,10-23-0,85,depth_duration_stimuli/002678_2014-06-13_16-15-32_094959634447_rgbf000151-resize_6/002678_2014-06-13_16-15-32_094959634447_rgbf000151-resize_6-target.png,125,2.1830000000000003,8,43061,120,feet,jsons/VE125_randls_46_rotated.json,1437967,1570900,33,Woman
85,891077,DepthScenes,duration_manipulation_targetAtFixation,jsons/VE125_randls_46_rotated.json,http://54.235.29.9/FacialAge/BNav_EC2/DepthDuration/v2_depth_duration_MTurk/v2_DepthDuration_HTML.html#55,55,980,1023,360,800,8-21-2022,10-23-0,86,depth_duration_stimuli/000368_2014-06-09_15-53-01_260595134347_rgbf000155-resize_2/000368_2014-06-09_15-53-01_260595134347_rgbf000155-resize_2-target.png,125,2.4859999999999998,8,12797,123,feet,jsons/VE125_randls_46_rotated.json,1437967,1570900,33,Woman
86,891077,DepthScenes,duration_manipulation_targetAtFixation,jsons/VE125_randls_46_rotated.json,http://54.235.29.9/FacialAge/BNav_EC2/DepthDuration/v2_depth_duration_MTurk/v2_DepthDuration_HTML.html#55,55,980,1023,360,800,8-21-2022,10-23-0,87,depth_duration_stimuli/000943_2014-06-09_19-31-07_260595134347_rgbf000128-resize_1/000943_2014-06-09_19-31-07_260595134347_rgbf000128-resize_1-target.png,125,1.9765,7,19135,121,feet,jsons/VE125_randls_46_rotated.json,1437967,1570900,33,Woman
87,891077,DepthScenes,duration_manipulation_targetAtFixation,jsons/VE125_randls_46_rotated.json,http://54.235.29.9/FacialAge/BNav_EC2/DepthDuration/v2_depth_duration_MTurk/v2_DepthDuration_HTML.html#55,55,980,1023,360,800,8-21-2022,10-23-0,88,depth_duration_stimuli/003070_2014-06-15_14-58-27_094959634447_rgbf000150-resize_3/003070_2014-06-15_14-58-27_094959634447_rgbf000150-resize_3-target.png,125,2.9415,4,3248,122,feet,jsons/VE125_randls_46_rotated.json,1437967,1570900,33,Woman
88,891077,DepthScenes,duration_manipulation_targetAtFixation,jsons/VE125_randls_46_rotated.json,http://54.235.29.9/FacialAge/BNav_EC2/DepthDuration/v2_depth_duration_MTurk/v2_DepthDuration_HTML.html#55,55,980,1023,360,800,8-21-2022,10-23-0,89,depth_duration_stimuli/000709_2014-06-08_13-51-55_260595134347_rgbf000068-resize_3/000709_2014-06-08_13-51-55_260595134347_rgbf000068-resize_3-target.png,125,1.8030000000000002,8,11588,121,feet,jsons/VE125_randls_46_rotated.json,1437967,1570900,33,Woman
89,891077,DepthScenes,duration_manipulation_targetAtFixation,jsons/VE125_randls_46_rotated.json,http://54.235.29.9/FacialAge/BNav_EC2/DepthDuration/v2_depth_duration_MTurk/v2_DepthDuration_HTML.html#55,55,980,1023,360,800,8-21-2022,10-23-0,90,depth_duration_stimuli/002057_2014-06-24_21-00-13_260595134347_rgbf000120-resize_1/002057_2014-06-24_21-00-13_260595134347_rgbf000120-resize_1-target.png,125,2.967,0,2999,123,feet,jsons/VE125_randls_46_rotated.json,1437967,1570900,33,Woman
90,891077,DepthScenes,duration_manipulation_targetAtFixation,jsons/VE125_randls_46_rotated.json,http://54.235.29.9/FacialAge/BNav_EC2/DepthDuration/v2_depth_duration_MTurk/v2_DepthDuration_HTML.html#55,55,980,1023,360,800,8-21-2022,10-23-0,91,depth_duration_stimuli/002953_2014-06-08_17-32-18_094959634447_rgbf000059-resize_5/002953_2014-06-08_17-32-18_094959634447_rgbf000059-resize_5-target.png,125,1.551,2,3019,122,feet,jsons/VE125_randls_46_rotated.json,1437967,1570900,33,Woman
91,891077,DepthScenes,duration_manipulation_targetAtFixation,jsons/VE125_randls_46_rotated.json,http://54.235.29.9/FacialAge/BNav_EC2/DepthDuration/v2_depth_duration_MTurk/v2_DepthDuration_HTML.html#55,55,980,1023,360,800,8-21-2022,10-23-0,92,depth_duration_stimuli/000878_2014-06-08_22-52-45_260595134347_rgbf000045-resize_2/000878_2014-06-08_22-52-45_260595134347_rgbf000045-resize_2-target.png,125,2.092,4,2948,120,feet,jsons/VE125_randls_46_rotated.json,1437967,1570900,33,Woman
92,891077,DepthScenes,duration_manipulation_targetAtFixation,jsons/VE125_randls_46_rotated.json,http://54.235.29.9/FacialAge/BNav_EC2/DepthDuration/v2_depth_duration_MTurk/v2_DepthDuration_HTML.html#55,55,980,1023,360,800,8-21-2022,10-23-0,93,depth_duration_stimuli/001100_2014-06-15_17-46-26_260595134347_rgbf000225-resize_2/001100_2014-06-15_17-46-26_260595134347_rgbf000225-resize_2-target.png,125,2.24,6,3226,120,feet,jsons/VE125_randls_46_rotated.json,1437967,1570900,33,Woman
93,891077,DepthScenes,duration_manipulation_targetAtFixation,jsons/VE125_randls_46_rotated.json,http://54.235.29.9/FacialAge/BNav_EC2/DepthDuration/v2_depth_duration_MTurk/v2_DepthDuration_HTML.html#55,55,980,1023,360,800,8-21-2022,10-23-0,94,depth_duration_stimuli/002784_2014-06-22_19-26-30_094959634447_rgbf000083-resize_3/002784_2014-06-22_19-26-30_094959634447_rgbf000083-resize_3-target.png,125,1.8046666666667,4,5203,123,feet,jsons/VE125_randls_46_rotated.json,1437967,1570900,33,Woman
94,891077,DepthScenes,duration_manipulation_targetAtFixation,jsons/VE125_randls_46_rotated.json,http://54.235.29.9/FacialAge/BNav_EC2/DepthDuration/v2_depth_duration_MTurk/v2_DepthDuration_HTML.html#55,55,980,1023,360,800,8-21-2022,10-23-0,95,depth_duration_stimuli/002209_2014-06-28_18-36-10_260595134347_rgbf000051-resize_1/002209_2014-06-28_18-36-10_260595134347_rgbf000051-resize_1-target.png,125,2.057,2,3293,122,feet,jsons/VE125_randls_46_rotated.json,1437967,1570900,33,Woman
95,891077,DepthScenes,duration_manipulation_targetAtFixation,jsons/VE125_randls_46_rotated.json,http://54.235.29.9/FacialAge/BNav_EC2/DepthDuration/v2_depth_duration_MTurk/v2_DepthDuration_HTML.html#55,55,980,1023,360,800,8-21-2022,10-23-0,96,depth_duration_stimuli/002763_2014-06-22_19-13-10_094959634447_rgbf000075-resize_4/002763_2014-06-22_19-13-10_094959634447_rgbf000075-resize_4-target.png,125,1.68375,5,3011,124,feet,jsons/VE125_randls_46_rotated.json,1437967,1570900,33,Woman
96,891077,DepthScenes,duration_manipulation_targetAtFixation,jsons/VE125_randls_46_rotated.json,http://54.235.29.9/FacialAge/BNav_EC2/DepthDuration/v2_depth_duration_MTurk/v2_DepthDuration_HTML.html#55,55,980,1023,360,800,8-21-2022,10-23-0,97,depth_duration_stimuli/000866_2014-06-09_20-45-42_260595134347_rgbf000139-resize_1/000866_2014-06-09_20-45-42_260595134347_rgbf000139-resize_1-target.png,125,3.2155,7,3164,121,feet,jsons/VE125_randls_46_rotated.json,1437967,1570900,33,Woman
97,891077,DepthScenes,duration_manipulation_targetAtFixation,jsons/VE125_randls_46_rotated.json,http://54.235.29.9/FacialAge/BNav_EC2/DepthDuration/v2_depth_duration_MTurk/v2_DepthDuration_HTML.html#55,55,980,1023,360,800,8-21-2022,10-23-0,98,depth_duration_stimuli/002989_2014-06-15_12-25-03_094959634447_rgbf000150-resize_3/002989_2014-06-15_12-25-03_094959634447_rgbf000150-resize_3-target.png,125,4.1975,6,3282,120,feet,jsons/VE125_randls_46_rotated.json,1437967,1570900,33,Woman
98,891077,DepthScenes,duration_manipulation_targetAtFixation,jsons/VE125_randls_46_rotated.json,http://54.235.29.9/FacialAge/BNav_EC2/DepthDuration/v2_depth_duration_MTurk/v2_DepthDuration_HTML.html#55,55,980,1023,360,800,8-21-2022,10-23-0,99,depth_duration_stimuli/001222_2014-06-17_16-24-06_260595134347_rgbf000073-resize_0/001222_2014-06-17_16-24-06_260595134347_rgbf000073-resize-original.jpg,125,1.4385,4,3037,122,feet,jsons/VE125_randls_46_rotated.json,1437967,1570900,33,Woman
99,891077,DepthScenes,duration_manipulation_targetAtFixation,jsons/VE125_randls_46_rotated.json,http://54.235.29.9/FacialAge/BNav_EC2/DepthDuration/v2_depth_duration_MTurk/v2_DepthDuration_HTML.html#55,55,980,1023,360,800,8-21-2022,10-23-0,100,depth_duration_stimuli/001214_2014-06-17_16-13-55_260595134347_rgbf000111-resize_0/001214_2014-06-17_16-13-55_260595134347_rgbf000111-resize_0-target.png,125,2.6505,3,3077,120,feet,jsons/VE125_randls_46_rotated.json,1437967,1570900,33,Woman
100,891077,DepthScenes,duration_manipulation_targetAtFixation,jsons/VE125_randls_46_rotated.json,http://54.235.29.9/FacialAge/BNav_EC2/DepthDuration/v2_depth_duration_MTurk/v2_DepthDuration_HTML.html#55,55,980,1023,360,800,8-21-2022,10-23-0,101,depth_duration_stimuli/000810_2014-06-08_17-20-01_260595134347_rgbf000105-resize_0/000810_2014-06-08_17-20-01_260595134347_rgbf000105-resize_0-target.png,125,1.4865,2,3126,123,feet,jsons/VE125_randls_46_rotated.json,1437967,1570900,33,Woman
101,891077,DepthScenes,duration_manipulation_targetAtFixation,jsons/VE125_randls_46_rotated.json,http://54.235.29.9/FacialAge/BNav_EC2/DepthDuration/v2_depth_duration_MTurk/v2_DepthDuration_HTML.html#55,55,980,1023,360,800,8-21-2022,10-23-0,102,depth_duration_stimuli/001447_2014-06-19_17-00-32_260595134347_rgbf000082-resize_5/001447_2014-06-19_17-00-32_260595134347_rgbf000082-resize_5-target.png,125,4.13775,2,5693,123,feet,jsons/VE125_randls_46_rotated.json,1437967,1570900,33,Woman
102,891077,DepthScenes,duration_manipulation_targetAtFixation,jsons/VE125_randls_46_rotated.json,http://54.235.29.9/FacialAge/BNav_EC2/DepthDuration/v2_depth_duration_MTurk/v2_DepthDuration_HTML.html#55,55,980,1023,360,800,8-21-2022,10-23-0,103,depth_duration_stimuli/000447_2014-06-08_16-15-46_260595134347_rgbf000130-resize_1/000447_2014-06-08_16-15-46_260595134347_rgbf000130-resize_1-target.png,125,4.479,1,3432,124,feet,jsons/VE125_randls_46_rotated.json,1437967,1570900,33,Woman
103,891077,DepthScenes,duration_manipulation_targetAtFixation,jsons/VE125_randls_46_rotated.json,http://54.235.29.9/FacialAge/BNav_EC2/DepthDuration/v2_depth_duration_MTurk/v2_DepthDuration_HTML.html#55,55,980,1023,360,800,8-21-2022,10-23-0,104,depth_duration_stimuli/002568_2014-06-24_13-59-21_094959634447_rgbf000062-resize_4/002568_2014-06-24_13-59-21_094959634447_rgbf000062-resize_4-target.png,125,3.015,7,3923,121,feet,jsons/VE125_randls_46_rotated.json,1437967,1570900,33,Woman
104,891077,DepthScenes,duration_manipulation_targetAtFixation,jsons/VE125_randls_46_rotated.json,http://54.235.29.9/FacialAge/BNav_EC2/DepthDuration/v2_depth_duration_MTurk/v2_DepthDuration_HTML.html#55,55,980,1023,360,800,8-21-2022,10-23-0,105,depth_duration_stimuli/003492_2014-05-21_15-50-55_094959634447_rgbf000828-resize_1/003492_2014-05-21_15-50-55_094959634447_rgbf000828-resize_1-target.png,125,4.06875,4,2965,122,feet,jsons/VE125_randls_46_rotated.json,1437967,1570900,33,Woman
105,891077,DepthScenes,duration_manipulation_targetAtFixation,jsons/VE125_randls_46_rotated.json,http://54.235.29.9/FacialAge/BNav_EC2/DepthDuration/v2_depth_duration_MTurk/v2_DepthDuration_HTML.html#55,55,980,1023,360,800,8-21-2022,10-23-0,106,depth_duration_stimuli/000854_2014-06-09_19-43-13_260595134347_rgbf000066-resize_0/000854_2014-06-09_19-43-13_260595134347_rgbf000066-resize_0-target.png,125,3.068,3,2965,123,feet,jsons/VE125_randls_46_rotated.json,1437967,1570900,33,Woman
106,891077,DepthScenes,duration_manipulation_targetAtFixation,jsons/VE125_randls_46_rotated.json,http://54.235.29.9/FacialAge/BNav_EC2/DepthDuration/v2_depth_duration_MTurk/v2_DepthDuration_HTML.html#55,55,980,1023,360,800,8-21-2022,10-23-0,107,depth_duration_stimuli/000758_2014-06-08_22-05-08_260595134347_rgbf000085-resize_0/000758_2014-06-08_22-05-08_260595134347_rgbf000085-resize_0-target.png,125,3.3810000000000002,7,3154,122,feet,jsons/VE125_randls_46_rotated.json,1437967,1570900,33,Woman
107,891077,DepthScenes,duration_manipulation_targetAtFixation,jsons/VE125_randls_46_rotated.json,http://54.235.29.9/FacialAge/BNav_EC2/DepthDuration/v2_depth_duration_MTurk/v2_DepthDuration_HTML.html#55,55,980,1023,360,800,8-21-2022,10-23-0,108,depth_duration_stimuli/000734_2014-06-08_17-39-11_260595134347_rgbf000128-resize_2/000734_2014-06-08_17-39-11_260595134347_rgbf000128-resize_2-target.png,125,4.098,4,8552,121,feet,jsons/VE125_randls_46_rotated.json,1437967,1570900,33,Woman
108,891077,DepthScenes,duration_manipulation_targetAtFixation,jsons/VE125_randls_46_rotated.json,http://54.235.29.9/FacialAge/BNav_EC2/DepthDuration/v2_depth_duration_MTurk/v2_DepthDuration_HTML.html#55,55,980,1023,360,800,8-21-2022,10-23-0,109,depth_duration_stimuli/000739_2014-06-08_18-45-58_260595134347_rgbf000068-resize_1/000739_2014-06-08_18-45-58_260595134347_rgbf000068-resize_1-target.png,125,3.534,2,3670,121,feet,jsons/VE125_randls_46_rotated.json,1437967,1570900,33,Woman
109,891077,DepthScenes,duration_manipulation_targetAtFixation,jsons/VE125_randls_46_rotated.json,http://54.235.29.9/FacialAge/BNav_EC2/DepthDuration/v2_depth_duration_MTurk/v2_DepthDuration_HTML.html#55,55,980,1023,360,800,8-21-2022,10-23-0,110,depth_duration_stimuli/001617_2014-06-20_11-35-32_260595134347_rgbf000066-resize_1/001617_2014-06-20_11-35-32_260595134347_rgbf000066-resize_1-target.png,125,3.7910000000000004,6,4324,123,feet,jsons/VE125_randls_46_rotated.json,1437967,1570900,33,Woman
110,891077,DepthScenes,duration_manipulation_targetAtFixation,jsons/VE125_randls_46_rotated.json,http://54.235.29.9/FacialAge/BNav_EC2/DepthDuration/v2_depth_duration_MTurk/v2_DepthDuration_HTML.html#55,55,980,1023,360,800,8-21-2022,10-23-0,111,depth_duration_stimuli/001806_2014-06-26_20-50-20_260595134347_rgbf000091-resize_1/001806_2014-06-26_20-50-20_260595134347_rgbf000091-resize_1-target.png,125,2.7305,1,3224,123,feet,jsons/VE125_randls_46_rotated.json,1437967,1570900,33,Woman
111,891077,DepthScenes,duration_manipulation_targetAtFixation,jsons/VE125_randls_46_rotated.json,http://54.235.29.9/FacialAge/BNav_EC2/DepthDuration/v2_depth_duration_MTurk/v2_DepthDuration_HTML.html#55,55,980,1023,360,800,8-21-2022,10-23-0,112,depth_duration_stimuli/000457_2014-06-08_16-52-43_260595134347_rgbf000199-resize_1/000457_2014-06-08_16-52-43_260595134347_rgbf000199-resize_1-target.png,125,3.6489999999999996,6,3381,121,feet,jsons/VE125_randls_46_rotated.json,1437967,1570900,33,Woman
112,891077,DepthScenes,duration_manipulation_targetAtFixation,jsons/VE125_randls_46_rotated.json,http://54.235.29.9/FacialAge/BNav_EC2/DepthDuration/v2_depth_duration_MTurk/v2_DepthDuration_HTML.html#55,55,980,1023,360,800,8-21-2022,10-23-0,113,depth_duration_stimuli/000929_2014-06-09_16-33-19_260595134347_rgbf000139-resize_0/000929_2014-06-09_16-33-19_260595134347_rgbf000139-resize_0-target.png,125,2.8680000000000003,0,3052,121,feet,jsons/VE125_randls_46_rotated.json,1437967,1570900,33,Woman
113,891077,DepthScenes,duration_manipulation_targetAtFixation,jsons/VE125_randls_46_rotated.json,http://54.235.29.9/FacialAge/BNav_EC2/DepthDuration/v2_depth_duration_MTurk/v2_DepthDuration_HTML.html#55,55,980,1023,360,800,8-21-2022,10-23-0,114,depth_duration_stimuli/002344_2014-06-28_20-06-29_260595134347_rgbf000030-resize_1/002344_2014-06-28_20-06-29_260595134347_rgbf000030-resize_1-target.png,125,1.5795,9,2926,121,feet,jsons/VE125_randls_46_rotated.json,1437967,1570900,33,Woman
114,891077,DepthScenes,duration_manipulation_targetAtFixation,jsons/VE125_randls_46_rotated.json,http://54.235.29.9/FacialAge/BNav_EC2/DepthDuration/v2_depth_duration_MTurk/v2_DepthDuration_HTML.html#55,55,980,1023,360,800,8-21-2022,10-23-0,115,depth_duration_stimuli/002725_2014-06-22_11-47-51_094959634447_rgbf000070-resize_1/002725_2014-06-22_11-47-51_094959634447_rgbf000070-resize_1-target.png,125,2.195,11,3346,121,feet,jsons/VE125_randls_46_rotated.json,1437967,1570900,33,Woman
115,891077,DepthScenes,duration_manipulation_targetAtFixation,jsons/VE125_randls_46_rotated.json,http://54.235.29.9/FacialAge/BNav_EC2/DepthDuration/v2_depth_duration_MTurk/v2_DepthDuration_HTML.html#55,55,980,1023,360,800,8-21-2022,10-23-0,116,depth_duration_stimuli/002545_2014-06-24_13-38-53_094959634447_rgbf000080-resize_4/002545_2014-06-24_13-38-53_094959634447_rgbf000080-resize_4-target.png,125,1.9205,33,4742,121,feet,jsons/VE125_randls_46_rotated.json,1437967,1570900,33,Woman
116,891077,DepthScenes,duration_manipulation_targetAtFixation,jsons/VE125_randls_46_rotated.json,http://54.235.29.9/FacialAge/BNav_EC2/DepthDuration/v2_depth_duration_MTurk/v2_DepthDuration_HTML.html#55,55,980,1023,360,800,8-21-2022,10-23-0,117,depth_duration_stimuli/001092_2014-06-15_17-34-58_260595134347_rgbf000171-resize_3/001092_2014-06-15_17-34-58_260595134347_rgbf000171-resize_3-target.png,125,2.6935,2,2863,121,feet,jsons/VE125_randls_46_rotated.json,1437967,1570900,33,Woman
117,891077,DepthScenes,duration_manipulation_targetAtFixation,jsons/VE125_randls_46_rotated.json,http://54.235.29.9/FacialAge/BNav_EC2/DepthDuration/v2_depth_duration_MTurk/v2_DepthDuration_HTML.html#55,55,980,1023,360,800,8-21-2022,10-23-0,118,depth_duration_stimuli/001516_2014-06-20_16-25-09_260595134347_rgbf000076-resize_2/001516_2014-06-20_16-25-09_260595134347_rgbf000076-resize_2-target.png,125,1.7445,33,3328,120,feet,jsons/VE125_randls_46_rotated.json,1437967,1570900,33,Woman
118,891077,DepthScenes,duration_manipulation_targetAtFixation,jsons/VE125_randls_46_rotated.json,http://54.235.29.9/FacialAge/BNav_EC2/DepthDuration/v2_depth_duration_MTurk/v2_DepthDuration_HTML.html#55,55,980,1023,360,800,8-21-2022,10-23-0,119,depth_duration_stimuli/002118_2014-06-25_20-32-08_260595134347_rgbf000078-resize_1/002118_2014-06-25_20-32-08_260595134347_rgbf000078-resize_1-target.png,125,2.6460000000000004,4,3156,124,feet,jsons/VE125_randls_46_rotated.json,1437967,1570900,33,Woman
119,891077,DepthScenes,duration_manipulation_targetAtFixation,jsons/VE125_randls_46_rotated.json,http://54.235.29.9/FacialAge/BNav_EC2/DepthDuration/v2_depth_duration_MTurk/v2_DepthDuration_HTML.html#55,55,980,1023,360,800,8-21-2022,10-23-0,120,depth_duration_stimuli/000787_2014-06-08_22-33-53_260595134347_rgbf000175-resize_1/000787_2014-06-08_22-33-53_260595134347_rgbf000175-resize-original.jpg,125,4.784,6,3051,121,feet,jsons/VE125_randls_46_rotated.json,1437967,1570900,33,Woman
120,891077,DepthScenes,duration_manipulation_targetAtFixation,jsons/VE125_randls_46_rotated.json,http://54.235.29.9/FacialAge/BNav_EC2/DepthDuration/v2_depth_duration_MTurk/v2_DepthDuration_HTML.html#55,55,980,1023,360,800,8-21-2022,10-23-0,121,depth_duration_stimuli/002425_2014-06-28_20-27-29_260595134347_rgbf000031-resize_8/002425_2014-06-28_20-27-29_260595134347_rgbf000031-resize_8-target.png,125,3.8960000000000004,1,2882,123,feet,jsons/VE125_randls_46_rotated.json,1437967,1570900,33,Woman
121,891077,DepthScenes,duration_manipulation_targetAtFixation,jsons/VE125_randls_46_rotated.json,http://54.235.29.9/FacialAge/BNav_EC2/DepthDuration/v2_depth_duration_MTurk/v2_DepthDuration_HTML.html#55,55,980,1023,360,800,8-21-2022,10-23-0,122,depth_duration_stimuli/000642_2014-06-08_16-59-25_260595134347_rgbf000098-resize_2/000642_2014-06-08_16-59-25_260595134347_rgbf000098-resize_2-target.png,125,2.8815,4,3074,119,feet,jsons/VE125_randls_46_rotated.json,1437967,1570900,33,Woman
122,891077,DepthScenes,duration_manipulation_targetAtFixation,jsons/VE125_randls_46_rotated.json,http://54.235.29.9/FacialAge/BNav_EC2/DepthDuration/v2_depth_duration_MTurk/v2_DepthDuration_HTML.html#55,55,980,1023,360,800,8-21-2022,10-23-0,123,depth_duration_stimuli/002136_2014-06-25_21-18-03_260595134347_rgbf000109-resize_3/002136_2014-06-25_21-18-03_260595134347_rgbf000109-resize_3-target.png,125,1.9569999999999999,7,2955,121,feet,jsons/VE125_randls_46_rotated.json,1437967,1570900,33,Woman
123,891077,DepthScenes,duration_manipulation_targetAtFixation,jsons/VE125_randls_46_rotated.json,http://54.235.29.9/FacialAge/BNav_EC2/DepthDuration/v2_depth_duration_MTurk/v2_DepthDuration_HTML.html#55,55,980,1023,360,800,8-21-2022,10-23-0,124,depth_duration_stimuli/002964_2014-06-08_17-46-11_094959634447_rgbf000091-resize_4/002964_2014-06-08_17-46-11_094959634447_rgbf000091-resize_4-target.png,125,1.6909999999999998,5,3019,121,feet,jsons/VE125_randls_46_rotated.json,1437967,1570900,33,Woman
124,891077,DepthScenes,duration_manipulation_targetAtFixation,jsons/VE125_randls_46_rotated.json,http://54.235.29.9/FacialAge/BNav_EC2/DepthDuration/v2_depth_duration_MTurk/v2_DepthDuration_HTML.html#55,55,980,1023,360,800,8-21-2022,10-23-0,125,depth_duration_stimuli/003081_2014-06-15_15-19-16_094959634447_rgbf000150-resize_1/003081_2014-06-15_15-19-16_094959634447_rgbf000150-resize_1-target.png,125,3.9125,8,3340,120,feet,jsons/VE125_randls_46_rotated.json,1437967,1570900,33,Woman
125,891077,DepthScenes,duration_manipulation_targetAtFixation,jsons/VE125_randls_46_rotated.json,http://54.235.29.9/FacialAge/BNav_EC2/DepthDuration/v2_depth_duration_MTurk/v2_DepthDuration_HTML.html#55,55,980,1023,360,800,8-21-2022,10-23-0,126,depth_duration_stimuli/001417_2014-06-19_16-25-36_260595134347_rgbf000115-resize_5/001417_2014-06-19_16-25-36_260595134347_rgbf000115-resize_5-target.png,125,4.6255,4,3012,122,feet,jsons/VE125_randls_46_rotated.json,1437967,1570900,33,Woman
126,891077,DepthScenes,duration_manipulation_targetAtFixation,jsons/VE125_randls_46_rotated.json,http://54.235.29.9/FacialAge/BNav_EC2/DepthDuration/v2_depth_duration_MTurk/v2_DepthDuration_HTML.html#55,55,980,1023,360,800,8-21-2022,10-23-0,127,depth_duration_stimuli/001032_2014-06-08_13-23-17_260595134347_rgbf000021-resize_3/001032_2014-06-08_13-23-17_260595134347_rgbf000021-resize_3-target.png,125,3.2725,3,3240,121,feet,jsons/VE125_randls_46_rotated.json,1437967,1570900,33,Woman
127,891077,DepthScenes,duration_manipulation_targetAtFixation,jsons/VE125_randls_46_rotated.json,http://54.235.29.9/FacialAge/BNav_EC2/DepthDuration/v2_depth_duration_MTurk/v2_DepthDuration_HTML.html#55,55,980,1023,360,800,8-21-2022,10-23-0,128,depth_duration_stimuli/001059_2014-06-08_21-53-27_260595134347_rgbf000061-resize_4/001059_2014-06-08_21-53-27_260595134347_rgbf000061-resize_4-target.png,125,2.4185,6,4213,121,feet,jsons/VE125_randls_46_rotated.json,1437967,1570900,33,Woman
128,891077,DepthScenes,duration_manipulation_targetAtFixation,jsons/VE125_randls_46_rotated.json,http://54.235.29.9/FacialAge/BNav_EC2/DepthDuration/v2_depth_duration_MTurk/v2_DepthDuration_HTML.html#55,55,980,1023,360,800,8-21-2022,10-23-0,129,depth_duration_stimuli/000502_2014-06-08_23-02-32_260595134347_rgbf000063-resize_4/000502_2014-06-08_23-02-32_260595134347_rgbf000063-resize_4-target.png,125,2.431,3,8497,122,feet,jsons/VE125_randls_46_rotated.json,1437967,1570900,33,Woman
129,891077,DepthScenes,duration_manipulation_targetAtFixation,jsons/VE125_randls_46_rotated.json,http://54.235.29.9/FacialAge/BNav_EC2/DepthDuration/v2_depth_duration_MTurk/v2_DepthDuration_HTML.html#55,55,980,1023,360,800,8-21-2022,10-23-0,130,depth_duration_stimuli/001199_2014-06-17_16-03-48_260595134347_rgbf000077-resize_0/001199_2014-06-17_16-03-48_260595134347_rgbf000077-resize_0-target.png,125,3.4375,7,4856,122,feet,jsons/VE125_randls_46_rotated.json,1437967,1570900,33,Woman
130,891077,DepthScenes,duration_manipulation_targetAtFixation,jsons/VE125_randls_46_rotated.json,http://54.235.29.9/FacialAge/BNav_EC2/DepthDuration/v2_depth_duration_MTurk/v2_DepthDuration_HTML.html#55,55,980,1023,360,800,8-21-2022,10-23-0,131,depth_duration_stimuli/000103_2014-05-14_22-01-17_260595134347_rgbf000152-resize_5/000103_2014-05-14_22-01-17_260595134347_rgbf000152-resize_5-target.png,125,1.993,4,3016,121,feet,jsons/VE125_randls_46_rotated.json,1437967,1570900,33,Woman
131,891077,DepthScenes,duration_manipulation_targetAtFixation,jsons/VE125_randls_46_rotated.json,http://54.235.29.9/FacialAge/BNav_EC2/DepthDuration/v2_depth_duration_MTurk/v2_DepthDuration_HTML.html#55,55,980,1023,360,800,8-21-2022,10-23-0,132,depth_duration_stimuli/001555_2014-06-20_17-12-10_260595134347_rgbf000065-resize_4/001555_2014-06-20_17-12-10_260595134347_rgbf000065-resize_4-target.png,125,1.633,1,2978,119,feet,jsons/VE125_randls_46_rotated.json,1437967,1570900,33,Woman
132,891077,DepthScenes,duration_manipulation_targetAtFixation,jsons/VE125_randls_46_rotated.json,http://54.235.29.9/FacialAge/BNav_EC2/DepthDuration/v2_depth_duration_MTurk/v2_DepthDuration_HTML.html#55,55,980,1023,360,800,8-21-2022,10-23-0,133,depth_duration_stimuli/002949_2014-06-26_15-57-42_094959634447_rgbf000079-resize_1/002949_2014-06-26_15-57-42_094959634447_rgbf000079-resize_1-target.png,125,1.8915,0,3056,120,feet,jsons/VE125_randls_46_rotated.json,1437967,1570900,33,Woman
133,891077,DepthScenes,duration_manipulation_targetAtFixation,jsons/VE125_randls_46_rotated.json,http://54.235.29.9/FacialAge/BNav_EC2/DepthDuration/v2_depth_duration_MTurk/v2_DepthDuration_HTML.html#55,55,980,1023,360,800,8-21-2022,10-23-0,134,depth_duration_stimuli/000522_2014-06-08_13-35-06_260595134347_rgbf000244-resize_1/000522_2014-06-08_13-35-06_260595134347_rgbf000244-resize_1-target.png,125,2.3715,4,3033,122,feet,jsons/VE125_randls_46_rotated.json,1437967,1570900,33,Woman
134,891077,DepthScenes,duration_manipulation_targetAtFixation,jsons/VE125_randls_46_rotated.json,http://54.235.29.9/FacialAge/BNav_EC2/DepthDuration/v2_depth_duration_MTurk/v2_DepthDuration_HTML.html#55,55,980,1023,360,800,8-21-2022,10-23-0,135,depth_duration_stimuli/000375_2014-06-08_11-17-29_260595134347_rgbf000133-resize_2/000375_2014-06-08_11-17-29_260595134347_rgbf000133-resize-original.jpg,125,4.718,5,3165,121,feet,jsons/VE125_randls_46_rotated.json,1437967,1570900,33,Woman
135,891077,DepthScenes,duration_manipulation_targetAtFixation,jsons/VE125_randls_46_rotated.json,http://54.235.29.9/FacialAge/BNav_EC2/DepthDuration/v2_depth_duration_MTurk/v2_DepthDuration_HTML.html#55,55,980,1023,360,800,8-21-2022,10-23-0,136,depth_duration_stimuli/000780_2014-06-08_22-28-29_260595134347_rgbf000126-resize_1/000780_2014-06-08_22-28-29_260595134347_rgbf000126-resize_1-target.png,125,3.3825,2,3712,123,feet,jsons/VE125_randls_46_rotated.json,1437967,1570900,33,Woman
136,891077,DepthScenes,duration_manipulation_targetAtFixation,jsons/VE125_randls_46_rotated.json,http://54.235.29.9/FacialAge/BNav_EC2/DepthDuration/v2_depth_duration_MTurk/v2_DepthDuration_HTML.html#55,55,980,1023,360,800,8-21-2022,10-23-0,137,depth_duration_stimuli/002445_2014-06-28_20-32-16_260595134347_rgbf000029-resize_4/002445_2014-06-28_20-32-16_260595134347_rgbf000029-resize_4-target.png,125,2.5315,7,3009,122,feet,jsons/VE125_randls_46_rotated.json,1437967,1570900,33,Woman
137,891077,DepthScenes,duration_manipulation_targetAtFixation,jsons/VE125_randls_46_rotated.json,http://54.235.29.9/FacialAge/BNav_EC2/DepthDuration/v2_depth_duration_MTurk/v2_DepthDuration_HTML.html#55,55,980,1023,360,800,8-21-2022,10-23-0,138,depth_duration_stimuli/001815_2014-06-26_20-52-55_260595134347_rgbf000020-resize_0/001815_2014-06-26_20-52-55_260595134347_rgbf000020-resize_0-target.png,125,3.3865,4,3027,122,feet,jsons/VE125_randls_46_rotated.json,1437967,1570900,33,Woman
138,891077,DepthScenes,duration_manipulation_targetAtFixation,jsons/VE125_randls_46_rotated.json,http://54.235.29.9/FacialAge/BNav_EC2/DepthDuration/v2_depth_duration_MTurk/v2_DepthDuration_HTML.html#55,55,980,1023,360,800,8-21-2022,10-23-0,139,depth_duration_stimuli/001808_2014-06-26_20-50-58_260595134347_rgbf000029-resize_1/001808_2014-06-26_20-50-58_260595134347_rgbf000029-resize_1-target.png,125,4.249,2,3040,121,feet,jsons/VE125_randls_46_rotated.json,1437967,1570900,33,Woman
139,891077,DepthScenes,duration_manipulation_targetAtFixation,jsons/VE125_randls_46_rotated.json,http://54.235.29.9/FacialAge/BNav_EC2/DepthDuration/v2_depth_duration_MTurk/v2_DepthDuration_HTML.html#55,55,980,1023,360,800,8-21-2022,10-23-0,140,depth_duration_stimuli/000742_2014-06-08_18-48-09_260595134347_rgbf000164-resize_4/000742_2014-06-08_18-48-09_260595134347_rgbf000164-resize_4-target.png,125,4.632,7,4935,122,feet,jsons/VE125_randls_46_rotated.json,1437967,1570900,33,Woman
140,891077,DepthScenes,duration_manipulation_targetAtFixation,jsons/VE125_randls_46_rotated.json,http://54.235.29.9/FacialAge/BNav_EC2/DepthDuration/v2_depth_duration_MTurk/v2_DepthDuration_HTML.html#55,55,980,1023,360,800,8-21-2022,10-23-0,141,depth_duration_stimuli/001066_2014-06-08_22-03-20_260595134347_rgbf000066-resize_4/001066_2014-06-08_22-03-20_260595134347_rgbf000066-resize_4-target.png,125,4.2330000000000005,8,3102,121,feet,jsons/VE125_randls_46_rotated.json,1437967,1570900,33,Woman
141,891077,DepthScenes,duration_manipulation_targetAtFixation,jsons/VE125_randls_46_rotated.json,http://54.235.29.9/FacialAge/BNav_EC2/DepthDuration/v2_depth_duration_MTurk/v2_DepthDuration_HTML.html#55,55,980,1023,360,800,8-21-2022,10-23-0,142,depth_duration_stimuli/002340_2014-06-28_20-05-46_260595134347_rgbf000113-resize_0/002340_2014-06-28_20-05-46_260595134347_rgbf000113-resize_0-target.png,125,2.4735,4,2944,122,feet,jsons/VE125_randls_46_rotated.json,1437967,1570900,33,Woman
142,891077,DepthScenes,duration_manipulation_targetAtFixation,jsons/VE125_randls_46_rotated.json,http://54.235.29.9/FacialAge/BNav_EC2/DepthDuration/v2_depth_duration_MTurk/v2_DepthDuration_HTML.html#55,55,980,1023,360,800,8-21-2022,10-23-0,143,depth_duration_stimuli/001016_2014-06-09_16-16-10_260595134347_rgbf000112-resize_5/001016_2014-06-09_16-16-10_260595134347_rgbf000112-resize_5-target.png,125,1.6565,3,6918,121,feet,jsons/VE125_randls_46_rotated.json,1437967,1570900,33,Woman
143,891077,DepthScenes,duration_manipulation_targetAtFixation,jsons/VE125_randls_46_rotated.json,http://54.235.29.9/FacialAge/BNav_EC2/DepthDuration/v2_depth_duration_MTurk/v2_DepthDuration_HTML.html#55,55,980,1023,360,800,8-21-2022,10-23-0,144,depth_duration_stimuli/002103_2014-06-25_20-00-40_260595134347_rgbf000049-resize_0/002103_2014-06-25_20-00-40_260595134347_rgbf000049-resize_0-target.png,125,4.105,3,8547,121,feet,jsons/VE125_randls_46_rotated.json,1437967,1570900,33,Woman
144,891077,DepthScenes,duration_manipulation_targetAtFixation,jsons/VE125_randls_46_rotated.json,http://54.235.29.9/FacialAge/BNav_EC2/DepthDuration/v2_depth_duration_MTurk/v2_DepthDuration_HTML.html#55,55,980,1023,360,800,8-21-2022,10-23-0,145,depth_duration_stimuli/002039_2014-06-24_20-22-38_260595134347_rgbf000084-resize_1/002039_2014-06-24_20-22-38_260595134347_rgbf000084-resize_1-target.png,125,4.408,5,3448,119,feet,jsons/VE125_randls_46_rotated.json,1437967,1570900,33,Woman
145,891077,DepthScenes,duration_manipulation_targetAtFixation,jsons/VE125_randls_46_rotated.json,http://54.235.29.9/FacialAge/BNav_EC2/DepthDuration/v2_depth_duration_MTurk/v2_DepthDuration_HTML.html#55,55,980,1023,360,800,8-21-2022,10-23-0,146,depth_duration_stimuli/002199_2014-06-28_18-33-56_260595134347_rgbf000074-resize_0/002199_2014-06-28_18-33-56_260595134347_rgbf000074-resize_0-target.png,125,1.996,4,10924,123,feet,jsons/VE125_randls_46_rotated.json,1437967,1570900,33,Woman
146,891077,DepthScenes,duration_manipulation_targetAtFixation,jsons/VE125_randls_46_rotated.json,http://54.235.29.9/FacialAge/BNav_EC2/DepthDuration/v2_depth_duration_MTurk/v2_DepthDuration_HTML.html#55,55,980,1023,360,800,8-21-2022,10-23-0,147,depth_duration_stimuli/001056_2014-06-08_18-46-44_260595134347_rgbf000068-resize_0/001056_2014-06-08_18-46-44_260595134347_rgbf000068-resize_0-target.png,125,2.6625,5,139516,122,feet,jsons/VE125_randls_46_rotated.json,1437967,1570900,33,Woman
147,891077,DepthScenes,duration_manipulation_targetAtFixation,jsons/VE125_randls_46_rotated.json,http://54.235.29.9/FacialAge/BNav_EC2/DepthDuration/v2_depth_duration_MTurk/v2_DepthDuration_HTML.html#55,55,980,1023,360,800,8-21-2022,10-23-0,148,depth_duration_stimuli/000635_2014-06-08_16-38-42_260595134347_rgbf000106-resize_1/000635_2014-06-08_16-38-42_260595134347_rgbf000106-resize_1-target.png,125,2.074,1,17251,123,feet,jsons/VE125_randls_46_rotated.json,1437967,1570900,33,Woman
148,891077,DepthScenes,duration_manipulation_targetAtFixation,jsons/VE125_randls_46_rotated.json,http://54.235.29.9/FacialAge/BNav_EC2/DepthDuration/v2_depth_duration_MTurk/v2_DepthDuration_HTML.html#55,55,980,1023,360,800,8-21-2022,10-23-0,149,depth_duration_stimuli/002279_2014-06-28_18-55-32_260595134347_rgbf000040-resize_5/002279_2014-06-28_18-55-32_260595134347_rgbf000040-resize_5-target.png,125,1.5043333333333,6,3031,121,feet,jsons/VE125_randls_46_rotated.json,1437967,1570900,33,Woman
149,891077,DepthScenes,duration_manipulation_targetAtFixation,jsons/VE125_randls_46_rotated.json,http://54.235.29.9/FacialAge/BNav_EC2/DepthDuration/v2_depth_duration_MTurk/v2_DepthDuration_HTML.html#55,55,980,1023,360,800,8-21-2022,10-23-0,150,depth_duration_stimuli/003587_2014-05-23_16-48-02_094959634447_rgbf002384-resize_2/003587_2014-05-23_16-48-02_094959634447_rgbf002384-resize_2-target.png,125,1.357,4,2994,122,feet,jsons/VE125_randls_46_rotated.json,1437967,1570900,33,Woman
150,891077,DepthScenes,duration_manipulation_targetAtFixation,jsons/VE125_randls_46_rotated.json,http://54.235.29.9/FacialAge/BNav_EC2/DepthDuration/v2_depth_duration_MTurk/v2_DepthDuration_HTML.html#55,55,980,1023,360,800,8-21-2022,10-23-0,151,depth_duration_stimuli/001167_2014-06-17_15-38-07_260595134347_rgbf000108-resize_0/001167_2014-06-17_15-38-07_260595134347_rgbf000108-resize_0-target.png,125,1.8505,6,48298,123,feet,jsons/VE125_randls_46_rotated.json,1437967,1570900,33,Woman
151,891077,DepthScenes,duration_manipulation_targetAtFixation,jsons/VE125_randls_46_rotated.json,http://54.235.29.9/FacialAge/BNav_EC2/DepthDuration/v2_depth_duration_MTurk/v2_DepthDuration_HTML.html#55,55,980,1023,360,800,8-21-2022,10-23-0,152,depth_duration_stimuli/000569_2014-06-09_22-51-47_260595134347_rgbf000141-resize_3/000569_2014-06-09_22-51-47_260595134347_rgbf000141-resize-original.jpg,125,4.512,5,3026,124,feet,jsons/VE125_randls_46_rotated.json,1437967,1570900,33,Woman
152,891077,DepthScenes,duration_manipulation_targetAtFixation,jsons/VE125_randls_46_rotated.json,http://54.235.29.9/FacialAge/BNav_EC2/DepthDuration/v2_depth_duration_MTurk/v2_DepthDuration_HTML.html#55,55,980,1023,360,800,8-21-2022,10-23-0,153,depth_duration_stimuli/000137_2014-05-20_17-04-49_260595134347_rgbf000120-resize_1/000137_2014-05-20_17-04-49_260595134347_rgbf000120-resize_1-target.png,125,3.786,4,3056,120,feet,jsons/VE125_randls_46_rotated.json,1437967,1570900,33,Woman
153,891077,DepthScenes,duration_manipulation_targetAtFixation,jsons/VE125_randls_46_rotated.json,http://54.235.29.9/FacialAge/BNav_EC2/DepthDuration/v2_depth_duration_MTurk/v2_DepthDuration_HTML.html#55,55,980,1023,360,800,8-21-2022,10-23-0,154,depth_duration_stimuli/000736_2014-06-08_18-24-15_260595134347_rgbf000206-resize_3/000736_2014-06-08_18-24-15_260595134347_rgbf000206-resize_3-target.png,125,3.515,0,14560,119,feet,jsons/VE125_randls_46_rotated.json,1437967,1570900,33,Woman
154,891077,DepthScenes,duration_manipulation_targetAtFixation,jsons/VE125_randls_46_rotated.json,http://54.235.29.9/FacialAge/BNav_EC2/DepthDuration/v2_depth_duration_MTurk/v2_DepthDuration_HTML.html#55,55,980,1023,360,800,8-21-2022,10-23-0,155,depth_duration_stimuli/002758_2014-06-22_19-11-20_094959634447_rgbf000128-resize_1/002758_2014-06-22_19-11-20_094959634447_rgbf000128-resize_1-target.png,125,2.555,6,6014,123,feet,jsons/VE125_randls_46_rotated.json,1437967,1570900,33,Woman
155,891077,DepthScenes,duration_manipulation_targetAtFixation,jsons/VE125_randls_46_rotated.json,http://54.235.29.9/FacialAge/BNav_EC2/DepthDuration/v2_depth_duration_MTurk/v2_DepthDuration_HTML.html#55,55,980,1023,360,800,8-21-2022,10-23-0,156,depth_duration_stimuli/002630_2014-06-24_14-47-50_094959634447_rgbf000055-resize_1/002630_2014-06-24_14-47-50_094959634447_rgbf000055-resize_1-target.png,125,3.0095,5,11027,122,feet,jsons/VE125_randls_46_rotated.json,1437967,1570900,33,Woman
156,891077,DepthScenes,duration_manipulation_targetAtFixation,jsons/VE125_randls_46_rotated.json,http://54.235.29.9/FacialAge/BNav_EC2/DepthDuration/v2_depth_duration_MTurk/v2_DepthDuration_HTML.html#55,55,980,1023,360,800,8-21-2022,10-23-0,157,depth_duration_stimuli/003079_2014-06-15_15-18-20_094959634447_rgbf000152-resize_8/003079_2014-06-15_15-18-20_094959634447_rgbf000152-resize_8-target.png,125,2.8775,5,7971,122,feet,jsons/VE125_randls_46_rotated.json,1437967,1570900,33,Woman
157,891077,DepthScenes,duration_manipulation_targetAtFixation,jsons/VE125_randls_46_rotated.json,http://54.235.29.9/FacialAge/BNav_EC2/DepthDuration/v2_depth_duration_MTurk/v2_DepthDuration_HTML.html#55,55,980,1023,360,800,8-21-2022,10-23-0,158,depth_duration_stimuli/000506_2014-06-08_23-21-00_260595134347_rgbf000070-resize_7/000506_2014-06-08_23-21-00_260595134347_rgbf000070-resize_7-target.png,125,4.0585,7,3510,121,feet,jsons/VE125_randls_46_rotated.json,1437967,1570900,33,Woman
158,891077,DepthScenes,duration_manipulation_targetAtFixation,jsons/VE125_randls_46_rotated.json,http://54.235.29.9/FacialAge/BNav_EC2/DepthDuration/v2_depth_duration_MTurk/v2_DepthDuration_HTML.html#55,55,980,1023,360,800,8-21-2022,10-23-0,159,depth_duration_stimuli/003495_2014-05-21_16-01-51_094959634447_rgbf000100-resize_3/003495_2014-05-21_16-01-51_094959634447_rgbf000100-resize_3-target.png,125,1.6255,4,3374,124,feet,jsons/VE125_randls_46_rotated.json,1437967,1570900,33,Woman
159,891077,DepthScenes,duration_manipulation_targetAtFixation,jsons/VE125_randls_46_rotated.json,http://54.235.29.9/FacialAge/BNav_EC2/DepthDuration/v2_depth_duration_MTurk/v2_DepthDuration_HTML.html#55,55,980,1023,360,800,8-21-2022,10-23-0,160,depth_duration_stimuli/001244_2014-06-17_16-47-45_260595134347_rgbf000030-resize_4/001244_2014-06-17_16-47-45_260595134347_rgbf000030-resize_4-target.png,125,2.0425,8,3421,123,feet,jsons/VE125_randls_46_rotated.json,1437967,1570900,33,Woman
160,891077,DepthScenes,duration_manipulation_targetAtFixation,jsons/VE125_randls_46_rotated.json,http://54.235.29.9/FacialAge/BNav_EC2/DepthDuration/v2_depth_duration_MTurk/v2_DepthDuration_HTML.html#55,55,980,1023,360,800,8-21-2022,10-23-0,161,depth_duration_stimuli/003338_2014-05-20_11-01-23_094959634447_rgbf000051-resize_6/003338_2014-05-20_11-01-23_094959634447_rgbf000051-resize_6-target.png,125,1.693,1,3217,122,feet,jsons/VE125_randls_46_rotated.json,1437967,1570900,33,Woman
161,891077,DepthScenes,duration_manipulation_targetAtFixation,jsons/VE125_randls_46_rotated.json,http://54.235.29.9/FacialAge/BNav_EC2/DepthDuration/v2_depth_duration_MTurk/v2_DepthDuration_HTML.html#55,55,980,1023,360,800,8-21-2022,10-23-0,162,depth_duration_stimuli/002509_2014-06-24_13-19-22_094959634447_rgbf000077-resize_0/002509_2014-06-24_13-19-22_094959634447_rgbf000077-resize_0-target.png,125,1.3065,4,4008,122,feet,jsons/VE125_randls_46_rotated.json,1437967,1570900,33,Woman
162,891077,DepthScenes,duration_manipulation_targetAtFixation,jsons/VE125_randls_46_rotated.json,http://54.235.29.9/FacialAge/BNav_EC2/DepthDuration/v2_depth_duration_MTurk/v2_DepthDuration_HTML.html#55,55,980,1023,360,800,8-21-2022,10-23-0,163,depth_duration_stimuli/001571_2014-06-20_17-21-32_260595134347_rgbf000089-resize_1/001571_2014-06-20_17-21-32_260595134347_rgbf000089-resize_1-target.png,125,1.86,5,2884,123,feet,jsons/VE125_randls_46_rotated.json,1437967,1570900,33,Woman
163,891077,DepthScenes,duration_manipulation_targetAtFixation,jsons/VE125_randls_46_rotated.json,http://54.235.29.9/FacialAge/BNav_EC2/DepthDuration/v2_depth_duration_MTurk/v2_DepthDuration_HTML.html#55,55,980,1023,360,800,8-21-2022,10-23-0,164,depth_duration_stimuli/002272_2014-06-28_18-53-56_260595134347_rgbf000067-resize_2/002272_2014-06-28_18-53-56_260595134347_rgbf000067-resize_2-target.png,125,1.138,7,3051,122,feet,jsons/VE125_randls_46_rotated.json,1437967,1570900,33,Woman
