,subjID,experimentName,versionName,sequenceName,url,selected_row,windowWidth,windowHeight,screenWidth,screenHeight,startDate,startTime,trial,stimulus,duration,actual_depth,depth_estimate,trial_RT,log_sceneDuration,unitSelection,seq_filepath,experimentTime,totalTime,age,gender
0,891274,DepthScenes,duration_manipulation_targetAtFixation,jsons/v1_VE1000_randls_4.json,http://54.235.29.9/FacialAge/BNav_EC2/DepthDuration/v2_depth_duration_MTurk/v2_DepthDuration_HTML.html#301,301,1920,937,1920,1080,9-19-2022,19-39-15,1,depth_duration_stimuli/002989_2014-06-15_12-25-03_094959634447_rgbf000150-resize_3/002989_2014-06-15_12-25-03_094959634447_rgbf000150-resize_3-target.png,1000,4.1975,20,3770,1016,feet,jsons/v1_VE1000_randls_4.json,583487,676999,27,Man
1,891274,DepthScenes,duration_manipulation_targetAtFixation,jsons/v1_VE1000_randls_4.json,http://54.235.29.9/FacialAge/BNav_EC2/DepthDuration/v2_depth_duration_MTurk/v2_DepthDuration_HTML.html#301,301,1920,937,1920,1080,9-19-2022,19-39-15,2,depth_duration_stimuli/000866_2014-06-09_20-45-42_260595134347_rgbf000139-resize_1/000866_2014-06-09_20-45-42_260595134347_rgbf000139-resize_1-target.png,1000,3.2155,10,2998,1005,feet,jsons/v1_VE1000_randls_4.json,583487,676999,27,Man
2,891274,DepthScenes,duration_manipulation_targetAtFixation,jsons/v1_VE1000_randls_4.json,http://54.235.29.9/FacialAge/BNav_EC2/DepthDuration/v2_depth_duration_MTurk/v2_DepthDuration_HTML.html#301,301,1920,937,1920,1080,9-19-2022,19-39-15,3,depth_duration_stimuli/001011_2014-06-08_23-18-54_260595134347_rgbf000044-resize_4/001011_2014-06-08_23-18-54_260595134347_rgbf000044-resize_4-target.png,1000,2.4730000000000003,8,3021,994,feet,jsons/v1_VE1000_randls_4.json,583487,676999,27,Man
3,891274,DepthScenes,duration_manipulation_targetAtFixation,jsons/v1_VE1000_randls_4.json,http://54.235.29.9/FacialAge/BNav_EC2/DepthDuration/v2_depth_duration_MTurk/v2_DepthDuration_HTML.html#301,301,1920,937,1920,1080,9-19-2022,19-39-15,4,depth_duration_stimuli/002875_2014-06-01_15-19-00_094959634447_rgbf000151-resize_1/002875_2014-06-01_15-19-00_094959634447_rgbf000151-resize_1-target.png,1000,1.9675,5,2830,989,feet,jsons/v1_VE1000_randls_4.json,583487,676999,27,Man
4,891274,DepthScenes,duration_manipulation_targetAtFixation,jsons/v1_VE1000_randls_4.json,http://54.235.29.9/FacialAge/BNav_EC2/DepthDuration/v2_depth_duration_MTurk/v2_DepthDuration_HTML.html#301,301,1920,937,1920,1080,9-19-2022,19-39-15,5,depth_duration_stimuli/000736_2014-06-08_18-24-15_260595134347_rgbf000206-resize_3/000736_2014-06-08_18-24-15_260595134347_rgbf000206-resize_3-target.png,1000,3.515,10,2952,997,feet,jsons/v1_VE1000_randls_4.json,583487,676999,27,Man
5,891274,DepthScenes,duration_manipulation_targetAtFixation,jsons/v1_VE1000_randls_4.json,http://54.235.29.9/FacialAge/BNav_EC2/DepthDuration/v2_depth_duration_MTurk/v2_DepthDuration_HTML.html#301,301,1920,937,1920,1080,9-19-2022,19-39-15,6,depth_duration_stimuli/000137_2014-05-20_17-04-49_260595134347_rgbf000120-resize_1/000137_2014-05-20_17-04-49_260595134347_rgbf000120-resize_1-target.png,1000,3.786,15,2950,988,feet,jsons/v1_VE1000_randls_4.json,583487,676999,27,Man
6,891274,DepthScenes,duration_manipulation_targetAtFixation,jsons/v1_VE1000_randls_4.json,http://54.235.29.9/FacialAge/BNav_EC2/DepthDuration/v2_depth_duration_MTurk/v2_DepthDuration_HTML.html#301,301,1920,937,1920,1080,9-19-2022,19-39-15,7,depth_duration_stimuli/002600_2014-06-24_14-27-04_094959634447_rgbf000074-resize_2/002600_2014-06-24_14-27-04_094959634447_rgbf000074-resize_2-target.png,1000,2.7575,11,3033,998,feet,jsons/v1_VE1000_randls_4.json,583487,676999,27,Man
7,891274,DepthScenes,duration_manipulation_targetAtFixation,jsons/v1_VE1000_randls_4.json,http://54.235.29.9/FacialAge/BNav_EC2/DepthDuration/v2_depth_duration_MTurk/v2_DepthDuration_HTML.html#301,301,1920,937,1920,1080,9-19-2022,19-39-15,8,depth_duration_stimuli/003228_2014-05-14_13-42-35_094959634447_rgbf000101-resize_1/003228_2014-05-14_13-42-35_094959634447_rgbf000101-resize_1-target.png,1000,1.9680000000000002,4,2742,1000,feet,jsons/v1_VE1000_randls_4.json,583487,676999,27,Man
8,891274,DepthScenes,duration_manipulation_targetAtFixation,jsons/v1_VE1000_randls_4.json,http://54.235.29.9/FacialAge/BNav_EC2/DepthDuration/v2_depth_duration_MTurk/v2_DepthDuration_HTML.html#301,301,1920,937,1920,1080,9-19-2022,19-39-15,9,depth_duration_stimuli/000739_2014-06-08_18-45-58_260595134347_rgbf000068-resize_1/000739_2014-06-08_18-45-58_260595134347_rgbf000068-resize_1-target.png,1000,3.534,10,2868,1003,feet,jsons/v1_VE1000_randls_4.json,583487,676999,27,Man
9,891274,DepthScenes,duration_manipulation_targetAtFixation,jsons/v1_VE1000_randls_4.json,http://54.235.29.9/FacialAge/BNav_EC2/DepthDuration/v2_depth_duration_MTurk/v2_DepthDuration_HTML.html#301,301,1920,937,1920,1080,9-19-2022,19-39-15,10,depth_duration_stimuli/000734_2014-06-08_17-39-11_260595134347_rgbf000128-resize_2/000734_2014-06-08_17-39-11_260595134347_rgbf000128-resize_2-target.png,1000,4.098,7,3107,1006,feet,jsons/v1_VE1000_randls_4.json,583487,676999,27,Man
10,891274,DepthScenes,duration_manipulation_targetAtFixation,jsons/v1_VE1000_randls_4.json,http://54.235.29.9/FacialAge/BNav_EC2/DepthDuration/v2_depth_duration_MTurk/v2_DepthDuration_HTML.html#301,301,1920,937,1920,1080,9-19-2022,19-39-15,11,depth_duration_stimuli/001164_2014-06-17_15-35-46_260595134347_rgbf000085-resize_3/001164_2014-06-17_15-35-46_260595134347_rgbf000085-resize_3-target.png,1000,2.354,6,2948,986,feet,jsons/v1_VE1000_randls_4.json,583487,676999,27,Man
11,891274,DepthScenes,duration_manipulation_targetAtFixation,jsons/v1_VE1000_randls_4.json,http://54.235.29.9/FacialAge/BNav_EC2/DepthDuration/v2_depth_duration_MTurk/v2_DepthDuration_HTML.html#301,301,1920,937,1920,1080,9-19-2022,19-39-15,12,depth_duration_stimuli/001136_2014-06-17_15-19-41_260595134347_rgbf000076-resize_3/001136_2014-06-17_15-19-41_260595134347_rgbf000076-resize_3-target.png,1000,1.8655,8,2865,1003,feet,jsons/v1_VE1000_randls_4.json,583487,676999,27,Man
12,891274,DepthScenes,duration_manipulation_targetAtFixation,jsons/v1_VE1000_randls_4.json,http://54.235.29.9/FacialAge/BNav_EC2/DepthDuration/v2_depth_duration_MTurk/v2_DepthDuration_HTML.html#301,301,1920,937,1920,1080,9-19-2022,19-39-15,13,depth_duration_stimuli/000569_2014-06-09_22-51-47_260595134347_rgbf000141-resize_3/000569_2014-06-09_22-51-47_260595134347_rgbf000141-resize-original.jpg,1000,4.512,0,2498,1000,feet,jsons/v1_VE1000_randls_4.json,583487,676999,27,Man
13,891274,DepthScenes,duration_manipulation_targetAtFixation,jsons/v1_VE1000_randls_4.json,http://54.235.29.9/FacialAge/BNav_EC2/DepthDuration/v2_depth_duration_MTurk/v2_DepthDuration_HTML.html#301,301,1920,937,1920,1080,9-19-2022,19-39-15,14,depth_duration_stimuli/000414_2014-06-04_19-49-13_260595134347_rgbf000044-resize_0/000414_2014-06-04_19-49-13_260595134347_rgbf000044-resize_0-target.png,1000,4.329,18,3778,1010,feet,jsons/v1_VE1000_randls_4.json,583487,676999,27,Man
14,891274,DepthScenes,duration_manipulation_targetAtFixation,jsons/v1_VE1000_randls_4.json,http://54.235.29.9/FacialAge/BNav_EC2/DepthDuration/v2_depth_duration_MTurk/v2_DepthDuration_HTML.html#301,301,1920,937,1920,1080,9-19-2022,19-39-15,15,depth_duration_stimuli/003129_2014-05-12_10-48-10_094959634447_rgbf000100-resize_0/003129_2014-05-12_10-48-10_094959634447_rgbf000100-resize_0-target.png,1000,4.9305,20,2898,1004,feet,jsons/v1_VE1000_randls_4.json,583487,676999,27,Man
15,891274,DepthScenes,duration_manipulation_targetAtFixation,jsons/v1_VE1000_randls_4.json,http://54.235.29.9/FacialAge/BNav_EC2/DepthDuration/v2_depth_duration_MTurk/v2_DepthDuration_HTML.html#301,301,1920,937,1920,1080,9-19-2022,19-39-15,16,depth_duration_stimuli/001133_2014-06-17_14-49-16_260595134347_rgbf000100-resize_0/001133_2014-06-17_14-49-16_260595134347_rgbf000100-resize_0-target.png,1000,4.2115,23,4668,996,feet,jsons/v1_VE1000_randls_4.json,583487,676999,27,Man
16,891274,DepthScenes,duration_manipulation_targetAtFixation,jsons/v1_VE1000_randls_4.json,http://54.235.29.9/FacialAge/BNav_EC2/DepthDuration/v2_depth_duration_MTurk/v2_DepthDuration_HTML.html#301,301,1920,937,1920,1080,9-19-2022,19-39-15,17,depth_duration_stimuli/001132_2014-06-17_14-48-54_260595134347_rgbf000100-resize_2/001132_2014-06-17_14-48-54_260595134347_rgbf000100-resize_2-target.png,1000,3.753,10,2873,1002,feet,jsons/v1_VE1000_randls_4.json,583487,676999,27,Man
17,891274,DepthScenes,duration_manipulation_targetAtFixation,jsons/v1_VE1000_randls_4.json,http://54.235.29.9/FacialAge/BNav_EC2/DepthDuration/v2_depth_duration_MTurk/v2_DepthDuration_HTML.html#301,301,1920,937,1920,1080,9-19-2022,19-39-15,18,depth_duration_stimuli/001570_2014-06-20_17-21-09_260595134347_rgbf000135-resize_4/001570_2014-06-20_17-21-09_260595134347_rgbf000135-resize_4-target.png,1000,4.467,16,3188,1004,feet,jsons/v1_VE1000_randls_4.json,583487,676999,27,Man
18,891274,DepthScenes,duration_manipulation_targetAtFixation,jsons/v1_VE1000_randls_4.json,http://54.235.29.9/FacialAge/BNav_EC2/DepthDuration/v2_depth_duration_MTurk/v2_DepthDuration_HTML.html#301,301,1920,937,1920,1080,9-19-2022,19-39-15,19,depth_duration_stimuli/001392_2014-06-19_16-07-59_260595134347_rgbf000046-resize_1/001392_2014-06-19_16-07-59_260595134347_rgbf000046-resize_1-target.png,1000,4.135,15,3205,1000,feet,jsons/v1_VE1000_randls_4.json,583487,676999,27,Man
19,891274,DepthScenes,duration_manipulation_targetAtFixation,jsons/v1_VE1000_randls_4.json,http://54.235.29.9/FacialAge/BNav_EC2/DepthDuration/v2_depth_duration_MTurk/v2_DepthDuration_HTML.html#301,301,1920,937,1920,1080,9-19-2022,19-39-15,20,depth_duration_stimuli/002964_2014-06-08_17-46-11_094959634447_rgbf000091-resize_4/002964_2014-06-08_17-46-11_094959634447_rgbf000091-resize_4-target.png,1000,1.6909999999999998,6,2825,1001,feet,jsons/v1_VE1000_randls_4.json,583487,676999,27,Man
20,891274,DepthScenes,duration_manipulation_targetAtFixation,jsons/v1_VE1000_randls_4.json,http://54.235.29.9/FacialAge/BNav_EC2/DepthDuration/v2_depth_duration_MTurk/v2_DepthDuration_HTML.html#301,301,1920,937,1920,1080,9-19-2022,19-39-15,21,depth_duration_stimuli/002136_2014-06-25_21-18-03_260595134347_rgbf000109-resize_3/002136_2014-06-25_21-18-03_260595134347_rgbf000109-resize_3-target.png,1000,1.9569999999999999,4,2979,1002,feet,jsons/v1_VE1000_randls_4.json,583487,676999,27,Man
21,891274,DepthScenes,duration_manipulation_targetAtFixation,jsons/v1_VE1000_randls_4.json,http://54.235.29.9/FacialAge/BNav_EC2/DepthDuration/v2_depth_duration_MTurk/v2_DepthDuration_HTML.html#301,301,1920,937,1920,1080,9-19-2022,19-39-15,22,depth_duration_stimuli/002118_2014-06-25_20-32-08_260595134347_rgbf000078-resize_1/002118_2014-06-25_20-32-08_260595134347_rgbf000078-resize_1-target.png,1000,2.6460000000000004,8,2745,1002,feet,jsons/v1_VE1000_randls_4.json,583487,676999,27,Man
22,891274,DepthScenes,duration_manipulation_targetAtFixation,jsons/v1_VE1000_randls_4.json,http://54.235.29.9/FacialAge/BNav_EC2/DepthDuration/v2_depth_duration_MTurk/v2_DepthDuration_HTML.html#301,301,1920,937,1920,1080,9-19-2022,19-39-15,23,depth_duration_stimuli/001516_2014-06-20_16-25-09_260595134347_rgbf000076-resize_2/001516_2014-06-20_16-25-09_260595134347_rgbf000076-resize_2-target.png,1000,1.7445,5,2957,997,feet,jsons/v1_VE1000_randls_4.json,583487,676999,27,Man
23,891274,DepthScenes,duration_manipulation_targetAtFixation,jsons/v1_VE1000_randls_4.json,http://54.235.29.9/FacialAge/BNav_EC2/DepthDuration/v2_depth_duration_MTurk/v2_DepthDuration_HTML.html#301,301,1920,937,1920,1080,9-19-2022,19-39-15,24,depth_duration_stimuli/001158_2014-06-17_15-32-16_260595134347_rgbf000138-resize_2/001158_2014-06-17_15-32-16_260595134347_rgbf000138-resize_2-target.png,1000,4.5315,19,3283,1003,feet,jsons/v1_VE1000_randls_4.json,583487,676999,27,Man
24,891274,DepthScenes,duration_manipulation_targetAtFixation,jsons/v1_VE1000_randls_4.json,http://54.235.29.9/FacialAge/BNav_EC2/DepthDuration/v2_depth_duration_MTurk/v2_DepthDuration_HTML.html#301,301,1920,937,1920,1080,9-19-2022,19-39-15,25,depth_duration_stimuli/000556_2014-06-09_22-42-56_260595134347_rgbf000214-resize_1/000556_2014-06-09_22-42-56_260595134347_rgbf000214-resize_1-target.png,1000,4.8415,17,3019,1000,feet,jsons/v1_VE1000_randls_4.json,583487,676999,27,Man
25,891274,DepthScenes,duration_manipulation_targetAtFixation,jsons/v1_VE1000_randls_4.json,http://54.235.29.9/FacialAge/BNav_EC2/DepthDuration/v2_depth_duration_MTurk/v2_DepthDuration_HTML.html#301,301,1920,937,1920,1080,9-19-2022,19-39-15,26,depth_duration_stimuli/000486_2014-06-09_20-47-20_260595134347_rgbf000143-resize_2/000486_2014-06-09_20-47-20_260595134347_rgbf000143-resize_2-target.png,1000,4.8325,15,2876,1005,feet,jsons/v1_VE1000_randls_4.json,583487,676999,27,Man
26,891274,DepthScenes,duration_manipulation_targetAtFixation,jsons/v1_VE1000_randls_4.json,http://54.235.29.9/FacialAge/BNav_EC2/DepthDuration/v2_depth_duration_MTurk/v2_DepthDuration_HTML.html#301,301,1920,937,1920,1080,9-19-2022,19-39-15,27,depth_duration_stimuli/003083_2014-06-15_15-21-03_094959634447_rgbf000063-resize_1/003083_2014-06-15_15-21-03_094959634447_rgbf000063-resize_1-target.png,1000,4.1405,22,2951,1003,feet,jsons/v1_VE1000_randls_4.json,583487,676999,27,Man
27,891274,DepthScenes,duration_manipulation_targetAtFixation,jsons/v1_VE1000_randls_4.json,http://54.235.29.9/FacialAge/BNav_EC2/DepthDuration/v2_depth_duration_MTurk/v2_DepthDuration_HTML.html#301,301,1920,937,1920,1080,9-19-2022,19-39-15,28,depth_duration_stimuli/001150_2014-06-17_15-27-34_260595134347_rgbf000108-resize_2/001150_2014-06-17_15-27-34_260595134347_rgbf000108-resize_2-target.png,1000,4.0325,17,3169,1004,feet,jsons/v1_VE1000_randls_4.json,583487,676999,27,Man
28,891274,DepthScenes,duration_manipulation_targetAtFixation,jsons/v1_VE1000_randls_4.json,http://54.235.29.9/FacialAge/BNav_EC2/DepthDuration/v2_depth_duration_MTurk/v2_DepthDuration_HTML.html#301,301,1920,937,1920,1080,9-19-2022,19-39-15,29,depth_duration_stimuli/000665_2014-06-09_20-42-35_260595134347_rgbf000110-resize_1/000665_2014-06-09_20-42-35_260595134347_rgbf000110-resize_1-target.png,1000,3.057,10,2762,1002,feet,jsons/v1_VE1000_randls_4.json,583487,676999,27,Man
29,891274,DepthScenes,duration_manipulation_targetAtFixation,jsons/v1_VE1000_randls_4.json,http://54.235.29.9/FacialAge/BNav_EC2/DepthDuration/v2_depth_duration_MTurk/v2_DepthDuration_HTML.html#301,301,1920,937,1920,1080,9-19-2022,19-39-15,30,depth_duration_stimuli/000375_2014-06-08_11-17-29_260595134347_rgbf000133-resize_2/000375_2014-06-08_11-17-29_260595134347_rgbf000133-resize-original.jpg,1000,4.718,0,2773,992,feet,jsons/v1_VE1000_randls_4.json,583487,676999,27,Man
30,891274,DepthScenes,duration_manipulation_targetAtFixation,jsons/v1_VE1000_randls_4.json,http://54.235.29.9/FacialAge/BNav_EC2/DepthDuration/v2_depth_duration_MTurk/v2_DepthDuration_HTML.html#301,301,1920,937,1920,1080,9-19-2022,19-39-15,31,depth_duration_stimuli/002057_2014-06-24_21-00-13_260595134347_rgbf000120-resize_1/002057_2014-06-24_21-00-13_260595134347_rgbf000120-resize_1-target.png,1000,2.967,15,2875,1007,feet,jsons/v1_VE1000_randls_4.json,583487,676999,27,Man
31,891274,DepthScenes,duration_manipulation_targetAtFixation,jsons/v1_VE1000_randls_4.json,http://54.235.29.9/FacialAge/BNav_EC2/DepthDuration/v2_depth_duration_MTurk/v2_DepthDuration_HTML.html#301,301,1920,937,1920,1080,9-19-2022,19-39-15,32,depth_duration_stimuli/000709_2014-06-08_13-51-55_260595134347_rgbf000068-resize_3/000709_2014-06-08_13-51-55_260595134347_rgbf000068-resize_3-target.png,1000,1.8030000000000002,6,2813,1002,feet,jsons/v1_VE1000_randls_4.json,583487,676999,27,Man
32,891274,DepthScenes,duration_manipulation_targetAtFixation,jsons/v1_VE1000_randls_4.json,http://54.235.29.9/FacialAge/BNav_EC2/DepthDuration/v2_depth_duration_MTurk/v2_DepthDuration_HTML.html#301,301,1920,937,1920,1080,9-19-2022,19-39-15,33,depth_duration_stimuli/002509_2014-06-24_13-19-22_094959634447_rgbf000077-resize_0/002509_2014-06-24_13-19-22_094959634447_rgbf000077-resize_0-target.png,1000,1.3065,5,2821,990,feet,jsons/v1_VE1000_randls_4.json,583487,676999,27,Man
33,891274,DepthScenes,duration_manipulation_targetAtFixation,jsons/v1_VE1000_randls_4.json,http://54.235.29.9/FacialAge/BNav_EC2/DepthDuration/v2_depth_duration_MTurk/v2_DepthDuration_HTML.html#301,301,1920,937,1920,1080,9-19-2022,19-39-15,34,depth_duration_stimuli/003338_2014-05-20_11-01-23_094959634447_rgbf000051-resize_6/003338_2014-05-20_11-01-23_094959634447_rgbf000051-resize_6-target.png,1000,1.693,5,2850,1003,feet,jsons/v1_VE1000_randls_4.json,583487,676999,27,Man
34,891274,DepthScenes,duration_manipulation_targetAtFixation,jsons/v1_VE1000_randls_4.json,http://54.235.29.9/FacialAge/BNav_EC2/DepthDuration/v2_depth_duration_MTurk/v2_DepthDuration_HTML.html#301,301,1920,937,1920,1080,9-19-2022,19-39-15,35,depth_duration_stimuli/002630_2014-06-24_14-47-50_094959634447_rgbf000055-resize_1/002630_2014-06-24_14-47-50_094959634447_rgbf000055-resize_1-target.png,1000,3.0095,20,2884,987,feet,jsons/v1_VE1000_randls_4.json,583487,676999,27,Man
35,891274,DepthScenes,duration_manipulation_targetAtFixation,jsons/v1_VE1000_randls_4.json,http://54.235.29.9/FacialAge/BNav_EC2/DepthDuration/v2_depth_duration_MTurk/v2_DepthDuration_HTML.html#301,301,1920,937,1920,1080,9-19-2022,19-39-15,36,depth_duration_stimuli/002758_2014-06-22_19-11-20_094959634447_rgbf000128-resize_1/002758_2014-06-22_19-11-20_094959634447_rgbf000128-resize_1-target.png,1000,2.555,5,2710,1010,feet,jsons/v1_VE1000_randls_4.json,583487,676999,27,Man
36,891274,DepthScenes,duration_manipulation_targetAtFixation,jsons/v1_VE1000_randls_4.json,http://54.235.29.9/FacialAge/BNav_EC2/DepthDuration/v2_depth_duration_MTurk/v2_DepthDuration_HTML.html#301,301,1920,937,1920,1080,9-19-2022,19-39-15,37,depth_duration_stimuli/000788_2014-06-08_22-34-36_260595134347_rgbf000131-resize_1/000788_2014-06-08_22-34-36_260595134347_rgbf000131-resize_1-target.png,1000,3.359,10,3139,1005,feet,jsons/v1_VE1000_randls_4.json,583487,676999,27,Man
37,891274,DepthScenes,duration_manipulation_targetAtFixation,jsons/v1_VE1000_randls_4.json,http://54.235.29.9/FacialAge/BNav_EC2/DepthDuration/v2_depth_duration_MTurk/v2_DepthDuration_HTML.html#301,301,1920,937,1920,1080,9-19-2022,19-39-15,38,depth_duration_stimuli/001235_2014-06-17_16-37-36_260595134347_rgbf000084-resize_4/001235_2014-06-17_16-37-36_260595134347_rgbf000084-resize_4-target.png,1000,3.6605,8,3378,1013,feet,jsons/v1_VE1000_randls_4.json,583487,676999,27,Man
38,891274,DepthScenes,duration_manipulation_targetAtFixation,jsons/v1_VE1000_randls_4.json,http://54.235.29.9/FacialAge/BNav_EC2/DepthDuration/v2_depth_duration_MTurk/v2_DepthDuration_HTML.html#301,301,1920,937,1920,1080,9-19-2022,19-39-15,39,depth_duration_stimuli/000758_2014-06-08_22-05-08_260595134347_rgbf000085-resize_0/000758_2014-06-08_22-05-08_260595134347_rgbf000085-resize_0-target.png,1000,3.3810000000000002,13,2846,1003,feet,jsons/v1_VE1000_randls_4.json,583487,676999,27,Man
39,891274,DepthScenes,duration_manipulation_targetAtFixation,jsons/v1_VE1000_randls_4.json,http://54.235.29.9/FacialAge/BNav_EC2/DepthDuration/v2_depth_duration_MTurk/v2_DepthDuration_HTML.html#301,301,1920,937,1920,1080,9-19-2022,19-39-15,40,depth_duration_stimuli/000854_2014-06-09_19-43-13_260595134347_rgbf000066-resize_0/000854_2014-06-09_19-43-13_260595134347_rgbf000066-resize_0-target.png,1000,3.068,6,3073,1002,feet,jsons/v1_VE1000_randls_4.json,583487,676999,27,Man
40,891274,DepthScenes,duration_manipulation_targetAtFixation,jsons/v1_VE1000_randls_4.json,http://54.235.29.9/FacialAge/BNav_EC2/DepthDuration/v2_depth_duration_MTurk/v2_DepthDuration_HTML.html#301,301,1920,937,1920,1080,9-19-2022,19-39-15,41,depth_duration_stimuli/001016_2014-06-09_16-16-10_260595134347_rgbf000112-resize_5/001016_2014-06-09_16-16-10_260595134347_rgbf000112-resize_5-target.png,1000,1.6565,10,4393,994,feet,jsons/v1_VE1000_randls_4.json,583487,676999,27,Man
41,891274,DepthScenes,duration_manipulation_targetAtFixation,jsons/v1_VE1000_randls_4.json,http://54.235.29.9/FacialAge/BNav_EC2/DepthDuration/v2_depth_duration_MTurk/v2_DepthDuration_HTML.html#301,301,1920,937,1920,1080,9-19-2022,19-39-15,42,depth_duration_stimuli/002340_2014-06-28_20-05-46_260595134347_rgbf000113-resize_0/002340_2014-06-28_20-05-46_260595134347_rgbf000113-resize_0-target.png,1000,2.4735,12,4397,1003,feet,jsons/v1_VE1000_randls_4.json,583487,676999,27,Man
42,891274,DepthScenes,duration_manipulation_targetAtFixation,jsons/v1_VE1000_randls_4.json,http://54.235.29.9/FacialAge/BNav_EC2/DepthDuration/v2_depth_duration_MTurk/v2_DepthDuration_HTML.html#301,301,1920,937,1920,1080,9-19-2022,19-39-15,43,depth_duration_stimuli/003621_2014-05-23_18-06-08_094959634447_rgbf000101-resize_1/003621_2014-05-23_18-06-08_094959634447_rgbf000101-resize_1-target.png,1000,3.9835,19,3361,1004,feet,jsons/v1_VE1000_randls_4.json,583487,676999,27,Man
43,891274,DepthScenes,duration_manipulation_targetAtFixation,jsons/v1_VE1000_randls_4.json,http://54.235.29.9/FacialAge/BNav_EC2/DepthDuration/v2_depth_duration_MTurk/v2_DepthDuration_HTML.html#301,301,1920,937,1920,1080,9-19-2022,19-39-15,44,depth_duration_stimuli/001584_2014-06-20_11-07-43_260595134347_rgbf000002-resize_1/001584_2014-06-20_11-07-43_260595134347_rgbf000002-resize_1-target.png,1000,3.53,10,2991,997,feet,jsons/v1_VE1000_randls_4.json,583487,676999,27,Man
44,891274,DepthScenes,duration_manipulation_targetAtFixation,jsons/v1_VE1000_randls_4.json,http://54.235.29.9/FacialAge/BNav_EC2/DepthDuration/v2_depth_duration_MTurk/v2_DepthDuration_HTML.html#301,301,1920,937,1920,1080,9-19-2022,19-39-15,45,depth_duration_stimuli/000787_2014-06-08_22-33-53_260595134347_rgbf000175-resize_1/000787_2014-06-08_22-33-53_260595134347_rgbf000175-resize-original.jpg,1000,4.784,0,2412,996,feet,jsons/v1_VE1000_randls_4.json,583487,676999,27,Man
45,891274,DepthScenes,duration_manipulation_targetAtFixation,jsons/v1_VE1000_randls_4.json,http://54.235.29.9/FacialAge/BNav_EC2/DepthDuration/v2_depth_duration_MTurk/v2_DepthDuration_HTML.html#301,301,1920,937,1920,1080,9-19-2022,19-39-15,46,depth_duration_stimuli/000692_2014-06-08_13-09-42_260595134347_rgbf000199-resize_2/000692_2014-06-08_13-09-42_260595134347_rgbf000199-resize_2-target.png,1000,3.661,15,3069,987,feet,jsons/v1_VE1000_randls_4.json,583487,676999,27,Man
46,891274,DepthScenes,duration_manipulation_targetAtFixation,jsons/v1_VE1000_randls_4.json,http://54.235.29.9/FacialAge/BNav_EC2/DepthDuration/v2_depth_duration_MTurk/v2_DepthDuration_HTML.html#301,301,1920,937,1920,1080,9-19-2022,19-39-15,47,depth_duration_stimuli/001094_2014-06-15_17-36-00_260595134347_rgbf000205-resize_0/001094_2014-06-15_17-36-00_260595134347_rgbf000205-resize_0-target.png,1000,4.2175,20,4486,998,feet,jsons/v1_VE1000_randls_4.json,583487,676999,27,Man
47,891274,DepthScenes,duration_manipulation_targetAtFixation,jsons/v1_VE1000_randls_4.json,http://54.235.29.9/FacialAge/BNav_EC2/DepthDuration/v2_depth_duration_MTurk/v2_DepthDuration_HTML.html#301,301,1920,937,1920,1080,9-19-2022,19-39-15,48,depth_duration_stimuli/000506_2014-06-08_23-21-00_260595134347_rgbf000070-resize_7/000506_2014-06-08_23-21-00_260595134347_rgbf000070-resize_7-target.png,1000,4.0585,18,2894,987,feet,jsons/v1_VE1000_randls_4.json,583487,676999,27,Man
48,891274,DepthScenes,duration_manipulation_targetAtFixation,jsons/v1_VE1000_randls_4.json,http://54.235.29.9/FacialAge/BNav_EC2/DepthDuration/v2_depth_duration_MTurk/v2_DepthDuration_HTML.html#301,301,1920,937,1920,1080,9-19-2022,19-39-15,49,depth_duration_stimuli/003079_2014-06-15_15-18-20_094959634447_rgbf000152-resize_8/003079_2014-06-15_15-18-20_094959634447_rgbf000152-resize_8-target.png,1000,2.8775,18,3270,1004,feet,jsons/v1_VE1000_randls_4.json,583487,676999,27,Man
49,891274,DepthScenes,duration_manipulation_targetAtFixation,jsons/v1_VE1000_randls_4.json,http://54.235.29.9/FacialAge/BNav_EC2/DepthDuration/v2_depth_duration_MTurk/v2_DepthDuration_HTML.html#301,301,1920,937,1920,1080,9-19-2022,19-39-15,50,depth_duration_stimuli/002375_2014-06-28_20-13-44_260595134347_rgbf000032-resize_1/002375_2014-06-28_20-13-44_260595134347_rgbf000032-resize_1-target.png,1000,4.0175,10,3095,1001,feet,jsons/v1_VE1000_randls_4.json,583487,676999,27,Man
50,891274,DepthScenes,duration_manipulation_targetAtFixation,jsons/v1_VE1000_randls_4.json,http://54.235.29.9/FacialAge/BNav_EC2/DepthDuration/v2_depth_duration_MTurk/v2_DepthDuration_HTML.html#301,301,1920,937,1920,1080,9-19-2022,19-39-15,51,depth_duration_stimuli/002657_2014-06-13_15-29-54_094959634447_rgbf000150-resize_1/002657_2014-06-13_15-29-54_094959634447_rgbf000150-resize_1-target.png,1000,4.919,13,3158,1009,feet,jsons/v1_VE1000_randls_4.json,583487,676999,27,Man
51,891274,DepthScenes,duration_manipulation_targetAtFixation,jsons/v1_VE1000_randls_4.json,http://54.235.29.9/FacialAge/BNav_EC2/DepthDuration/v2_depth_duration_MTurk/v2_DepthDuration_HTML.html#301,301,1920,937,1920,1080,9-19-2022,19-39-15,52,depth_duration_stimuli/002272_2014-06-28_18-53-56_260595134347_rgbf000067-resize_2/002272_2014-06-28_18-53-56_260595134347_rgbf000067-resize_2-target.png,1000,1.138,4,3012,1003,feet,jsons/v1_VE1000_randls_4.json,583487,676999,27,Man
52,891274,DepthScenes,duration_manipulation_targetAtFixation,jsons/v1_VE1000_randls_4.json,http://54.235.29.9/FacialAge/BNav_EC2/DepthDuration/v2_depth_duration_MTurk/v2_DepthDuration_HTML.html#301,301,1920,937,1920,1080,9-19-2022,19-39-15,53,depth_duration_stimuli/001571_2014-06-20_17-21-32_260595134347_rgbf000089-resize_1/001571_2014-06-20_17-21-32_260595134347_rgbf000089-resize_1-target.png,1000,1.86,5,2854,1008,feet,jsons/v1_VE1000_randls_4.json,583487,676999,27,Man
53,891274,DepthScenes,duration_manipulation_targetAtFixation,jsons/v1_VE1000_randls_4.json,http://54.235.29.9/FacialAge/BNav_EC2/DepthDuration/v2_depth_duration_MTurk/v2_DepthDuration_HTML.html#301,301,1920,937,1920,1080,9-19-2022,19-39-15,54,depth_duration_stimuli/000682_2014-06-08_23-14-58_260595134347_rgbf000041-resize_5/000682_2014-06-08_23-14-58_260595134347_rgbf000041-resize_5-target.png,1000,2.7239999999999998,7,2881,994,feet,jsons/v1_VE1000_randls_4.json,583487,676999,27,Man
54,891274,DepthScenes,duration_manipulation_targetAtFixation,jsons/v1_VE1000_randls_4.json,http://54.235.29.9/FacialAge/BNav_EC2/DepthDuration/v2_depth_duration_MTurk/v2_DepthDuration_HTML.html#301,301,1920,937,1920,1080,9-19-2022,19-39-15,55,depth_duration_stimuli/001650_2014-06-20_12-09-00_260595134347_rgbf000087-resize_3/001650_2014-06-20_12-09-00_260595134347_rgbf000087-resize_3-target.png,1000,1.9505,3,3136,999,feet,jsons/v1_VE1000_randls_4.json,583487,676999,27,Man
55,891274,DepthScenes,duration_manipulation_targetAtFixation,jsons/v1_VE1000_randls_4.json,http://54.235.29.9/FacialAge/BNav_EC2/DepthDuration/v2_depth_duration_MTurk/v2_DepthDuration_HTML.html#301,301,1920,937,1920,1080,9-19-2022,19-39-15,56,depth_duration_stimuli/002725_2014-06-22_11-47-51_094959634447_rgbf000070-resize_1/002725_2014-06-22_11-47-51_094959634447_rgbf000070-resize_1-target.png,1000,2.195,7,3311,1003,feet,jsons/v1_VE1000_randls_4.json,583487,676999,27,Man
56,891274,DepthScenes,duration_manipulation_targetAtFixation,jsons/v1_VE1000_randls_4.json,http://54.235.29.9/FacialAge/BNav_EC2/DepthDuration/v2_depth_duration_MTurk/v2_DepthDuration_HTML.html#301,301,1920,937,1920,1080,9-19-2022,19-39-15,57,depth_duration_stimuli/002344_2014-06-28_20-06-29_260595134347_rgbf000030-resize_1/002344_2014-06-28_20-06-29_260595134347_rgbf000030-resize_1-target.png,1000,1.5795,6,3375,1002,feet,jsons/v1_VE1000_randls_4.json,583487,676999,27,Man
57,891274,DepthScenes,duration_manipulation_targetAtFixation,jsons/v1_VE1000_randls_4.json,http://54.235.29.9/FacialAge/BNav_EC2/DepthDuration/v2_depth_duration_MTurk/v2_DepthDuration_HTML.html#301,301,1920,937,1920,1080,9-19-2022,19-39-15,58,depth_duration_stimuli/000878_2014-06-08_22-52-45_260595134347_rgbf000045-resize_2/000878_2014-06-08_22-52-45_260595134347_rgbf000045-resize_2-target.png,1000,2.092,8,3532,1003,feet,jsons/v1_VE1000_randls_4.json,583487,676999,27,Man
58,891274,DepthScenes,duration_manipulation_targetAtFixation,jsons/v1_VE1000_randls_4.json,http://54.235.29.9/FacialAge/BNav_EC2/DepthDuration/v2_depth_duration_MTurk/v2_DepthDuration_HTML.html#301,301,1920,937,1920,1080,9-19-2022,19-39-15,59,depth_duration_stimuli/002953_2014-06-08_17-32-18_094959634447_rgbf000059-resize_5/002953_2014-06-08_17-32-18_094959634447_rgbf000059-resize_5-target.png,1000,1.551,5,2802,1000,feet,jsons/v1_VE1000_randls_4.json,583487,676999,27,Man
59,891274,DepthScenes,duration_manipulation_targetAtFixation,jsons/v1_VE1000_randls_4.json,http://54.235.29.9/FacialAge/BNav_EC2/DepthDuration/v2_depth_duration_MTurk/v2_DepthDuration_HTML.html#301,301,1920,937,1920,1080,9-19-2022,19-39-15,60,depth_duration_stimuli/002748_2014-06-22_19-07-22_094959634447_rgbf000078-resize_1/002748_2014-06-22_19-07-22_094959634447_rgbf000078-resize_1-target.png,1000,4.6705,25,2821,988,feet,jsons/v1_VE1000_randls_4.json,583487,676999,27,Man
60,891274,DepthScenes,duration_manipulation_targetAtFixation,jsons/v1_VE1000_randls_4.json,http://54.235.29.9/FacialAge/BNav_EC2/DepthDuration/v2_depth_duration_MTurk/v2_DepthDuration_HTML.html#301,301,1920,937,1920,1080,9-19-2022,19-39-15,61,depth_duration_stimuli/002995_2014-06-15_12-31-26_094959634447_rgbf000150-resize_1/002995_2014-06-15_12-31-26_094959634447_rgbf000150-resize_1-target.png,1000,3.8360000000000003,22,3560,996,feet,jsons/v1_VE1000_randls_4.json,583487,676999,27,Man
61,891274,DepthScenes,duration_manipulation_targetAtFixation,jsons/v1_VE1000_randls_4.json,http://54.235.29.9/FacialAge/BNav_EC2/DepthDuration/v2_depth_duration_MTurk/v2_DepthDuration_HTML.html#301,301,1920,937,1920,1080,9-19-2022,19-39-15,62,depth_duration_stimuli/002905_2014-06-03_18-04-43_094959634447_rgbf000151-resize_2/002905_2014-06-03_18-04-43_094959634447_rgbf000151-resize_2-target.png,1000,2.0295,7,3165,995,feet,jsons/v1_VE1000_randls_4.json,583487,676999,27,Man
62,891274,DepthScenes,duration_manipulation_targetAtFixation,jsons/v1_VE1000_randls_4.json,http://54.235.29.9/FacialAge/BNav_EC2/DepthDuration/v2_depth_duration_MTurk/v2_DepthDuration_HTML.html#301,301,1920,937,1920,1080,9-19-2022,19-39-15,63,depth_duration_stimuli/003423_2014-05-21_10-23-26_094959634447_rgbf002665-resize_2/003423_2014-05-21_10-23-26_094959634447_rgbf002665-resize_2-target.png,1000,3.2575,20,3442,1001,feet,jsons/v1_VE1000_randls_4.json,583487,676999,27,Man
63,891274,DepthScenes,duration_manipulation_targetAtFixation,jsons/v1_VE1000_randls_4.json,http://54.235.29.9/FacialAge/BNav_EC2/DepthDuration/v2_depth_duration_MTurk/v2_DepthDuration_HTML.html#301,301,1920,937,1920,1080,9-19-2022,19-39-15,64,depth_duration_stimuli/000436_2014-06-09_22-25-11_260595134347_rgbf000137-resize_1/000436_2014-06-09_22-25-11_260595134347_rgbf000137-resize_1-target.png,1000,4.0705,19,3444,1002,feet,jsons/v1_VE1000_randls_4.json,583487,676999,27,Man
64,891274,DepthScenes,duration_manipulation_targetAtFixation,jsons/v1_VE1000_randls_4.json,http://54.235.29.9/FacialAge/BNav_EC2/DepthDuration/v2_depth_duration_MTurk/v2_DepthDuration_HTML.html#301,301,1920,937,1920,1080,9-19-2022,19-39-15,65,depth_duration_stimuli/002444_2014-06-28_20-32-08_260595134347_rgbf000027-resize_0/002444_2014-06-28_20-32-08_260595134347_rgbf000027-resize_0-target.png,1000,4.388999999999999,18,2838,1001,feet,jsons/v1_VE1000_randls_4.json,583487,676999,27,Man
65,891274,DepthScenes,duration_manipulation_targetAtFixation,jsons/v1_VE1000_randls_4.json,http://54.235.29.9/FacialAge/BNav_EC2/DepthDuration/v2_depth_duration_MTurk/v2_DepthDuration_HTML.html#301,301,1920,937,1920,1080,9-19-2022,19-39-15,66,depth_duration_stimuli/001222_2014-06-17_16-24-06_260595134347_rgbf000073-resize_0/001222_2014-06-17_16-24-06_260595134347_rgbf000073-resize-original.jpg,1000,1.4385,0,2603,1001,feet,jsons/v1_VE1000_randls_4.json,583487,676999,27,Man
66,891274,DepthScenes,duration_manipulation_targetAtFixation,jsons/v1_VE1000_randls_4.json,http://54.235.29.9/FacialAge/BNav_EC2/DepthDuration/v2_depth_duration_MTurk/v2_DepthDuration_HTML.html#301,301,1920,937,1920,1080,9-19-2022,19-39-15,67,depth_duration_stimuli/003070_2014-06-15_14-58-27_094959634447_rgbf000150-resize_3/003070_2014-06-15_14-58-27_094959634447_rgbf000150-resize_3-target.png,1000,2.9415,8,2725,991,feet,jsons/v1_VE1000_randls_4.json,583487,676999,27,Man
67,891274,DepthScenes,duration_manipulation_targetAtFixation,jsons/v1_VE1000_randls_4.json,http://54.235.29.9/FacialAge/BNav_EC2/DepthDuration/v2_depth_duration_MTurk/v2_DepthDuration_HTML.html#301,301,1920,937,1920,1080,9-19-2022,19-39-15,68,depth_duration_stimuli/000943_2014-06-09_19-31-07_260595134347_rgbf000128-resize_1/000943_2014-06-09_19-31-07_260595134347_rgbf000128-resize_1-target.png,1000,1.9765,5,2723,1002,feet,jsons/v1_VE1000_randls_4.json,583487,676999,27,Man
68,891274,DepthScenes,duration_manipulation_targetAtFixation,jsons/v1_VE1000_randls_4.json,http://54.235.29.9/FacialAge/BNav_EC2/DepthDuration/v2_depth_duration_MTurk/v2_DepthDuration_HTML.html#301,301,1920,937,1920,1080,9-19-2022,19-39-15,69,depth_duration_stimuli/002279_2014-06-28_18-55-32_260595134347_rgbf000040-resize_5/002279_2014-06-28_18-55-32_260595134347_rgbf000040-resize_5-target.png,1000,1.5043333333333,10,4577,995,feet,jsons/v1_VE1000_randls_4.json,583487,676999,27,Man
69,891274,DepthScenes,duration_manipulation_targetAtFixation,jsons/v1_VE1000_randls_4.json,http://54.235.29.9/FacialAge/BNav_EC2/DepthDuration/v2_depth_duration_MTurk/v2_DepthDuration_HTML.html#301,301,1920,937,1920,1080,9-19-2022,19-39-15,70,depth_duration_stimuli/000635_2014-06-08_16-38-42_260595134347_rgbf000106-resize_1/000635_2014-06-08_16-38-42_260595134347_rgbf000106-resize_1-target.png,1000,2.074,10,3199,1002,feet,jsons/v1_VE1000_randls_4.json,583487,676999,27,Man
70,891274,DepthScenes,duration_manipulation_targetAtFixation,jsons/v1_VE1000_randls_4.json,http://54.235.29.9/FacialAge/BNav_EC2/DepthDuration/v2_depth_duration_MTurk/v2_DepthDuration_HTML.html#301,301,1920,937,1920,1080,9-19-2022,19-39-15,71,depth_duration_stimuli/000009_2014-05-26_14-32-05_260595134347_rgbf000034-resize_3/000009_2014-05-26_14-32-05_260595134347_rgbf000034-resize_3-target.png,1000,3.8715,18,2929,1003,feet,jsons/v1_VE1000_randls_4.json,583487,676999,27,Man
71,891274,DepthScenes,duration_manipulation_targetAtFixation,jsons/v1_VE1000_randls_4.json,http://54.235.29.9/FacialAge/BNav_EC2/DepthDuration/v2_depth_duration_MTurk/v2_DepthDuration_HTML.html#301,301,1920,937,1920,1080,9-19-2022,19-39-15,72,depth_duration_stimuli/001828_2014-06-26_21-40-03_260595134347_rgbf000024-resize_0/001828_2014-06-26_21-40-03_260595134347_rgbf000024-resize_0-target.png,1000,4.8260000000000005,17,3038,992,feet,jsons/v1_VE1000_randls_4.json,583487,676999,27,Man
72,891274,DepthScenes,duration_manipulation_targetAtFixation,jsons/v1_VE1000_randls_4.json,http://54.235.29.9/FacialAge/BNav_EC2/DepthDuration/v2_depth_duration_MTurk/v2_DepthDuration_HTML.html#301,301,1920,937,1920,1080,9-19-2022,19-39-15,73,depth_duration_stimuli/003534_2014-05-22_15-06-10_094959634447_rgbf000102-resize_4/003534_2014-05-22_15-06-10_094959634447_rgbf000102-resize_4-target.png,1000,1.426,6,3136,1007,feet,jsons/v1_VE1000_randls_4.json,583487,676999,27,Man
73,891274,DepthScenes,duration_manipulation_targetAtFixation,jsons/v1_VE1000_randls_4.json,http://54.235.29.9/FacialAge/BNav_EC2/DepthDuration/v2_depth_duration_MTurk/v2_DepthDuration_HTML.html#301,301,1920,937,1920,1080,9-19-2022,19-39-15,74,depth_duration_stimuli/002637_2014-06-24_14-51-13_094959634447_rgbf000066-resize_4/002637_2014-06-24_14-51-13_094959634447_rgbf000066-resize_4-target.png,1000,1.9955,8,3041,997,feet,jsons/v1_VE1000_randls_4.json,583487,676999,27,Man
74,891274,DepthScenes,duration_manipulation_targetAtFixation,jsons/v1_VE1000_randls_4.json,http://54.235.29.9/FacialAge/BNav_EC2/DepthDuration/v2_depth_duration_MTurk/v2_DepthDuration_HTML.html#301,301,1920,937,1920,1080,9-19-2022,19-39-15,75,depth_duration_stimuli/002763_2014-06-22_19-13-10_094959634447_rgbf000075-resize_4/002763_2014-06-22_19-13-10_094959634447_rgbf000075-resize_4-target.png,1000,1.68375,6,2792,993,feet,jsons/v1_VE1000_randls_4.json,583487,676999,27,Man
75,891274,DepthScenes,duration_manipulation_targetAtFixation,jsons/v1_VE1000_randls_4.json,http://54.235.29.9/FacialAge/BNav_EC2/DepthDuration/v2_depth_duration_MTurk/v2_DepthDuration_HTML.html#301,301,1920,937,1920,1080,9-19-2022,19-39-15,76,depth_duration_stimuli/002209_2014-06-28_18-36-10_260595134347_rgbf000051-resize_1/002209_2014-06-28_18-36-10_260595134347_rgbf000051-resize_1-target.png,1000,2.057,7,3255,1003,feet,jsons/v1_VE1000_randls_4.json,583487,676999,27,Man
76,891274,DepthScenes,duration_manipulation_targetAtFixation,jsons/v1_VE1000_randls_4.json,http://54.235.29.9/FacialAge/BNav_EC2/DepthDuration/v2_depth_duration_MTurk/v2_DepthDuration_HTML.html#301,301,1920,937,1920,1080,9-19-2022,19-39-15,77,depth_duration_stimuli/000447_2014-06-08_16-15-46_260595134347_rgbf000130-resize_1/000447_2014-06-08_16-15-46_260595134347_rgbf000130-resize_1-target.png,1000,4.479,15,3455,1003,feet,jsons/v1_VE1000_randls_4.json,583487,676999,27,Man
77,891274,DepthScenes,duration_manipulation_targetAtFixation,jsons/v1_VE1000_randls_4.json,http://54.235.29.9/FacialAge/BNav_EC2/DepthDuration/v2_depth_duration_MTurk/v2_DepthDuration_HTML.html#301,301,1920,937,1920,1080,9-19-2022,19-39-15,78,depth_duration_stimuli/001447_2014-06-19_17-00-32_260595134347_rgbf000082-resize_5/001447_2014-06-19_17-00-32_260595134347_rgbf000082-resize_5-target.png,1000,4.13775,16,3410,995,feet,jsons/v1_VE1000_randls_4.json,583487,676999,27,Man
78,891274,DepthScenes,duration_manipulation_targetAtFixation,jsons/v1_VE1000_randls_4.json,http://54.235.29.9/FacialAge/BNav_EC2/DepthDuration/v2_depth_duration_MTurk/v2_DepthDuration_HTML.html#301,301,1920,937,1920,1080,9-19-2022,19-39-15,79,depth_duration_stimuli/002213_2014-06-28_18-37-58_260595134347_rgbf000055-resize_1/002213_2014-06-28_18-37-58_260595134347_rgbf000055-resize_1-target.png,1000,3.62,22,2980,997,feet,jsons/v1_VE1000_randls_4.json,583487,676999,27,Man
79,891274,DepthScenes,duration_manipulation_targetAtFixation,jsons/v1_VE1000_randls_4.json,http://54.235.29.9/FacialAge/BNav_EC2/DepthDuration/v2_depth_duration_MTurk/v2_DepthDuration_HTML.html#301,301,1920,937,1920,1080,9-19-2022,19-39-15,80,depth_duration_stimuli/000691_2014-06-08_13-08-50_260595134347_rgbf000132-resize_3/000691_2014-06-08_13-08-50_260595134347_rgbf000132-resize_3-target.png,1000,4.1530000000000005,15,2888,998,feet,jsons/v1_VE1000_randls_4.json,583487,676999,27,Man
80,891274,DepthScenes,duration_manipulation_targetAtFixation,jsons/v1_VE1000_randls_4.json,http://54.235.29.9/FacialAge/BNav_EC2/DepthDuration/v2_depth_duration_MTurk/v2_DepthDuration_HTML.html#301,301,1920,937,1920,1080,9-19-2022,19-39-15,81,depth_duration_stimuli/001244_2014-06-17_16-47-45_260595134347_rgbf000030-resize_4/001244_2014-06-17_16-47-45_260595134347_rgbf000030-resize_4-target.png,1000,2.0425,8,2874,1004,feet,jsons/v1_VE1000_randls_4.json,583487,676999,27,Man
81,891274,DepthScenes,duration_manipulation_targetAtFixation,jsons/v1_VE1000_randls_4.json,http://54.235.29.9/FacialAge/BNav_EC2/DepthDuration/v2_depth_duration_MTurk/v2_DepthDuration_HTML.html#301,301,1920,937,1920,1080,9-19-2022,19-39-15,82,depth_duration_stimuli/003495_2014-05-21_16-01-51_094959634447_rgbf000100-resize_3/003495_2014-05-21_16-01-51_094959634447_rgbf000100-resize_3-target.png,1000,1.6255,6,2797,1006,feet,jsons/v1_VE1000_randls_4.json,583487,676999,27,Man
82,891274,DepthScenes,duration_manipulation_targetAtFixation,jsons/v1_VE1000_randls_4.json,http://54.235.29.9/FacialAge/BNav_EC2/DepthDuration/v2_depth_duration_MTurk/v2_DepthDuration_HTML.html#301,301,1920,937,1920,1080,9-19-2022,19-39-15,83,depth_duration_stimuli/000469_2014-06-09_19-42-10_260595134347_rgbf000081-resize_1/000469_2014-06-09_19-42-10_260595134347_rgbf000081-resize_1-target.png,1000,1.652,5,2591,996,feet,jsons/v1_VE1000_randls_4.json,583487,676999,27,Man
83,891274,DepthScenes,duration_manipulation_targetAtFixation,jsons/v1_VE1000_randls_4.json,http://54.235.29.9/FacialAge/BNav_EC2/DepthDuration/v2_depth_duration_MTurk/v2_DepthDuration_HTML.html#301,301,1920,937,1920,1080,9-19-2022,19-39-15,84,depth_duration_stimuli/000483_2014-06-09_20-41-45_260595134347_rgbf000116-resize_4/000483_2014-06-09_20-41-45_260595134347_rgbf000116-resize_4-target.png,1000,1.337,3,2365,997,feet,jsons/v1_VE1000_randls_4.json,583487,676999,27,Man
84,891274,DepthScenes,duration_manipulation_targetAtFixation,jsons/v1_VE1000_randls_4.json,http://54.235.29.9/FacialAge/BNav_EC2/DepthDuration/v2_depth_duration_MTurk/v2_DepthDuration_HTML.html#301,301,1920,937,1920,1080,9-19-2022,19-39-15,85,depth_duration_stimuli/001056_2014-06-08_18-46-44_260595134347_rgbf000068-resize_0/001056_2014-06-08_18-46-44_260595134347_rgbf000068-resize_0-target.png,1000,2.6625,9,2943,997,feet,jsons/v1_VE1000_randls_4.json,583487,676999,27,Man
85,891274,DepthScenes,duration_manipulation_targetAtFixation,jsons/v1_VE1000_randls_4.json,http://54.235.29.9/FacialAge/BNav_EC2/DepthDuration/v2_depth_duration_MTurk/v2_DepthDuration_HTML.html#301,301,1920,937,1920,1080,9-19-2022,19-39-15,86,depth_duration_stimuli/002199_2014-06-28_18-33-56_260595134347_rgbf000074-resize_0/002199_2014-06-28_18-33-56_260595134347_rgbf000074-resize_0-target.png,1000,1.996,2,2206,1002,feet,jsons/v1_VE1000_randls_4.json,583487,676999,27,Man
86,891274,DepthScenes,duration_manipulation_targetAtFixation,jsons/v1_VE1000_randls_4.json,http://54.235.29.9/FacialAge/BNav_EC2/DepthDuration/v2_depth_duration_MTurk/v2_DepthDuration_HTML.html#301,301,1920,937,1920,1080,9-19-2022,19-39-15,87,depth_duration_stimuli/000906_2014-06-08_13-35-43_260595134347_rgbf000155-resize_1/000906_2014-06-08_13-35-43_260595134347_rgbf000155-resize_1-target.png,1000,2.8489999999999998,8,2784,1001,feet,jsons/v1_VE1000_randls_4.json,583487,676999,27,Man
87,891274,DepthScenes,duration_manipulation_targetAtFixation,jsons/v1_VE1000_randls_4.json,http://54.235.29.9/FacialAge/BNav_EC2/DepthDuration/v2_depth_duration_MTurk/v2_DepthDuration_HTML.html#301,301,1920,937,1920,1080,9-19-2022,19-39-15,88,depth_duration_stimuli/002805_2014-06-22_19-54-03_094959634447_rgbf000079-resize_1/002805_2014-06-22_19-54-03_094959634447_rgbf000079-resize_1-target.png,1000,3.1439999999999997,20,2724,986,feet,jsons/v1_VE1000_randls_4.json,583487,676999,27,Man
88,891274,DepthScenes,duration_manipulation_targetAtFixation,jsons/v1_VE1000_randls_4.json,http://54.235.29.9/FacialAge/BNav_EC2/DepthDuration/v2_depth_duration_MTurk/v2_DepthDuration_HTML.html#301,301,1920,937,1920,1080,9-19-2022,19-39-15,89,depth_duration_stimuli/002445_2014-06-28_20-32-16_260595134347_rgbf000029-resize_4/002445_2014-06-28_20-32-16_260595134347_rgbf000029-resize_4-target.png,1000,2.5315,12,2642,1002,feet,jsons/v1_VE1000_randls_4.json,583487,676999,27,Man
89,891274,DepthScenes,duration_manipulation_targetAtFixation,jsons/v1_VE1000_randls_4.json,http://54.235.29.9/FacialAge/BNav_EC2/DepthDuration/v2_depth_duration_MTurk/v2_DepthDuration_HTML.html#301,301,1920,937,1920,1080,9-19-2022,19-39-15,90,depth_duration_stimuli/000780_2014-06-08_22-28-29_260595134347_rgbf000126-resize_1/000780_2014-06-08_22-28-29_260595134347_rgbf000126-resize_1-target.png,1000,3.3825,14,2669,1004,feet,jsons/v1_VE1000_randls_4.json,583487,676999,27,Man
90,891274,DepthScenes,duration_manipulation_targetAtFixation,jsons/v1_VE1000_randls_4.json,http://54.235.29.9/FacialAge/BNav_EC2/DepthDuration/v2_depth_duration_MTurk/v2_DepthDuration_HTML.html#301,301,1920,937,1920,1080,9-19-2022,19-39-15,91,depth_duration_stimuli/001199_2014-06-17_16-03-48_260595134347_rgbf000077-resize_0/001199_2014-06-17_16-03-48_260595134347_rgbf000077-resize_0-target.png,1000,3.4375,18,3284,1007,feet,jsons/v1_VE1000_randls_4.json,583487,676999,27,Man
91,891274,DepthScenes,duration_manipulation_targetAtFixation,jsons/v1_VE1000_randls_4.json,http://54.235.29.9/FacialAge/BNav_EC2/DepthDuration/v2_depth_duration_MTurk/v2_DepthDuration_HTML.html#301,301,1920,937,1920,1080,9-19-2022,19-39-15,92,depth_duration_stimuli/000502_2014-06-08_23-02-32_260595134347_rgbf000063-resize_4/000502_2014-06-08_23-02-32_260595134347_rgbf000063-resize_4-target.png,1000,2.431,10,3254,994,feet,jsons/v1_VE1000_randls_4.json,583487,676999,27,Man
92,891274,DepthScenes,duration_manipulation_targetAtFixation,jsons/v1_VE1000_randls_4.json,http://54.235.29.9/FacialAge/BNav_EC2/DepthDuration/v2_depth_duration_MTurk/v2_DepthDuration_HTML.html#301,301,1920,937,1920,1080,9-19-2022,19-39-15,93,depth_duration_stimuli/000642_2014-06-08_16-59-25_260595134347_rgbf000098-resize_2/000642_2014-06-08_16-59-25_260595134347_rgbf000098-resize_2-target.png,1000,2.8815,8,2989,1004,feet,jsons/v1_VE1000_randls_4.json,583487,676999,27,Man
93,891274,DepthScenes,duration_manipulation_targetAtFixation,jsons/v1_VE1000_randls_4.json,http://54.235.29.9/FacialAge/BNav_EC2/DepthDuration/v2_depth_duration_MTurk/v2_DepthDuration_HTML.html#301,301,1920,937,1920,1080,9-19-2022,19-39-15,94,depth_duration_stimuli/002425_2014-06-28_20-27-29_260595134347_rgbf000031-resize_8/002425_2014-06-28_20-27-29_260595134347_rgbf000031-resize_8-target.png,1000,3.8960000000000004,15,2939,1004,feet,jsons/v1_VE1000_randls_4.json,583487,676999,27,Man
94,891274,DepthScenes,duration_manipulation_targetAtFixation,jsons/v1_VE1000_randls_4.json,http://54.235.29.9/FacialAge/BNav_EC2/DepthDuration/v2_depth_duration_MTurk/v2_DepthDuration_HTML.html#301,301,1920,937,1920,1080,9-19-2022,19-39-15,95,depth_duration_stimuli/001417_2014-06-19_16-25-36_260595134347_rgbf000115-resize_5/001417_2014-06-19_16-25-36_260595134347_rgbf000115-resize_5-target.png,1000,4.6255,16,3930,1005,feet,jsons/v1_VE1000_randls_4.json,583487,676999,27,Man
95,891274,DepthScenes,duration_manipulation_targetAtFixation,jsons/v1_VE1000_randls_4.json,http://54.235.29.9/FacialAge/BNav_EC2/DepthDuration/v2_depth_duration_MTurk/v2_DepthDuration_HTML.html#301,301,1920,937,1920,1080,9-19-2022,19-39-15,96,depth_duration_stimuli/003081_2014-06-15_15-19-16_094959634447_rgbf000150-resize_1/003081_2014-06-15_15-19-16_094959634447_rgbf000150-resize_1-target.png,1000,3.9125,10,4119,996,feet,jsons/v1_VE1000_randls_4.json,583487,676999,27,Man
96,891274,DepthScenes,duration_manipulation_targetAtFixation,jsons/v1_VE1000_randls_4.json,http://54.235.29.9/FacialAge/BNav_EC2/DepthDuration/v2_depth_duration_MTurk/v2_DepthDuration_HTML.html#301,301,1920,937,1920,1080,9-19-2022,19-39-15,97,depth_duration_stimuli/002663_2014-06-13_15-50-26_094959634447_rgbf000075-resize_1/002663_2014-06-13_15-50-26_094959634447_rgbf000075-resize_1-target.png,1000,4.7495,20,4064,990,feet,jsons/v1_VE1000_randls_4.json,583487,676999,27,Man
97,891274,DepthScenes,duration_manipulation_targetAtFixation,jsons/v1_VE1000_randls_4.json,http://54.235.29.9/FacialAge/BNav_EC2/DepthDuration/v2_depth_duration_MTurk/v2_DepthDuration_HTML.html#301,301,1920,937,1920,1080,9-19-2022,19-39-15,98,depth_duration_stimuli/000409_2014-06-04_19-23-33_260595134347_rgbf000067-resize_0/000409_2014-06-04_19-23-33_260595134347_rgbf000067-resize_0-target.png,1000,3.7335,15,2680,1005,feet,jsons/v1_VE1000_randls_4.json,583487,676999,27,Man
98,891274,DepthScenes,duration_manipulation_targetAtFixation,jsons/v1_VE1000_randls_4.json,http://54.235.29.9/FacialAge/BNav_EC2/DepthDuration/v2_depth_duration_MTurk/v2_DepthDuration_HTML.html#301,301,1920,937,1920,1080,9-19-2022,19-39-15,99,depth_duration_stimuli/001540_2014-06-20_17-01-05_260595134347_rgbf000086-resize_2/001540_2014-06-20_17-01-05_260595134347_rgbf000086-resize-original.jpg,1000,1.459,0,3016,1004,feet,jsons/v1_VE1000_randls_4.json,583487,676999,27,Man
99,891274,DepthScenes,duration_manipulation_targetAtFixation,jsons/v1_VE1000_randls_4.json,http://54.235.29.9/FacialAge/BNav_EC2/DepthDuration/v2_depth_duration_MTurk/v2_DepthDuration_HTML.html#301,301,1920,937,1920,1080,9-19-2022,19-39-15,100,depth_duration_stimuli/001029_2014-06-08_13-17-57_260595134347_rgbf000065-resize_1/001029_2014-06-08_13-17-57_260595134347_rgbf000065-resize_1-target.png,1000,3.0835,10,2988,986,feet,jsons/v1_VE1000_randls_4.json,583487,676999,27,Man
100,891274,DepthScenes,duration_manipulation_targetAtFixation,jsons/v1_VE1000_randls_4.json,http://54.235.29.9/FacialAge/BNav_EC2/DepthDuration/v2_depth_duration_MTurk/v2_DepthDuration_HTML.html#301,301,1920,937,1920,1080,9-19-2022,19-39-15,101,depth_duration_stimuli/000677_2014-06-08_23-10-32_260595134347_rgbf000158-resize_6/000677_2014-06-08_23-10-32_260595134347_rgbf000158-resize_6-target.png,1000,3.556,10,4999,1003,feet,jsons/v1_VE1000_randls_4.json,583487,676999,27,Man
101,891274,DepthScenes,duration_manipulation_targetAtFixation,jsons/v1_VE1000_randls_4.json,http://54.235.29.9/FacialAge/BNav_EC2/DepthDuration/v2_depth_duration_MTurk/v2_DepthDuration_HTML.html#301,301,1920,937,1920,1080,9-19-2022,19-39-15,102,depth_duration_stimuli/001055_2014-06-08_18-45-35_260595134347_rgbf000111-resize_4/001055_2014-06-08_18-45-35_260595134347_rgbf000111-resize_4-target.png,1000,2.4290000000000003,10,2728,998,feet,jsons/v1_VE1000_randls_4.json,583487,676999,27,Man
102,891274,DepthScenes,duration_manipulation_targetAtFixation,jsons/v1_VE1000_randls_4.json,http://54.235.29.9/FacialAge/BNav_EC2/DepthDuration/v2_depth_duration_MTurk/v2_DepthDuration_HTML.html#301,301,1920,937,1920,1080,9-19-2022,19-39-15,103,depth_duration_stimuli/000549_2014-06-08_22-10-24_260595134347_rgbf000247-resize_3/000549_2014-06-08_22-10-24_260595134347_rgbf000247-resize_3-target.png,1000,1.841,4,2502,991,feet,jsons/v1_VE1000_randls_4.json,583487,676999,27,Man
103,891274,DepthScenes,duration_manipulation_targetAtFixation,jsons/v1_VE1000_randls_4.json,http://54.235.29.9/FacialAge/BNav_EC2/DepthDuration/v2_depth_duration_MTurk/v2_DepthDuration_HTML.html#301,301,1920,937,1920,1080,9-19-2022,19-39-15,104,depth_duration_stimuli/001808_2014-06-26_20-50-58_260595134347_rgbf000029-resize_1/001808_2014-06-26_20-50-58_260595134347_rgbf000029-resize_1-target.png,1000,4.249,16,2645,1001,feet,jsons/v1_VE1000_randls_4.json,583487,676999,27,Man
104,891274,DepthScenes,duration_manipulation_targetAtFixation,jsons/v1_VE1000_randls_4.json,http://54.235.29.9/FacialAge/BNav_EC2/DepthDuration/v2_depth_duration_MTurk/v2_DepthDuration_HTML.html#301,301,1920,937,1920,1080,9-19-2022,19-39-15,105,depth_duration_stimuli/001815_2014-06-26_20-52-55_260595134347_rgbf000020-resize_0/001815_2014-06-26_20-52-55_260595134347_rgbf000020-resize_0-target.png,1000,3.3865,18,2746,1009,feet,jsons/v1_VE1000_randls_4.json,583487,676999,27,Man
105,891274,DepthScenes,duration_manipulation_targetAtFixation,jsons/v1_VE1000_randls_4.json,http://54.235.29.9/FacialAge/BNav_EC2/DepthDuration/v2_depth_duration_MTurk/v2_DepthDuration_HTML.html#301,301,1920,937,1920,1080,9-19-2022,19-39-15,106,depth_duration_stimuli/001092_2014-06-15_17-34-58_260595134347_rgbf000171-resize_3/001092_2014-06-15_17-34-58_260595134347_rgbf000171-resize_3-target.png,1000,2.6935,10,3929,1000,feet,jsons/v1_VE1000_randls_4.json,583487,676999,27,Man
106,891274,DepthScenes,duration_manipulation_targetAtFixation,jsons/v1_VE1000_randls_4.json,http://54.235.29.9/FacialAge/BNav_EC2/DepthDuration/v2_depth_duration_MTurk/v2_DepthDuration_HTML.html#301,301,1920,937,1920,1080,9-19-2022,19-39-15,107,depth_duration_stimuli/002545_2014-06-24_13-38-53_094959634447_rgbf000080-resize_4/002545_2014-06-24_13-38-53_094959634447_rgbf000080-resize_4-target.png,1000,1.9205,8,2501,995,feet,jsons/v1_VE1000_randls_4.json,583487,676999,27,Man
107,891274,DepthScenes,duration_manipulation_targetAtFixation,jsons/v1_VE1000_randls_4.json,http://54.235.29.9/FacialAge/BNav_EC2/DepthDuration/v2_depth_duration_MTurk/v2_DepthDuration_HTML.html#301,301,1920,937,1920,1080,9-19-2022,19-39-15,108,depth_duration_stimuli/001806_2014-06-26_20-50-20_260595134347_rgbf000091-resize_1/001806_2014-06-26_20-50-20_260595134347_rgbf000091-resize_1-target.png,1000,2.7305,7,2551,985,feet,jsons/v1_VE1000_randls_4.json,583487,676999,27,Man
108,891274,DepthScenes,duration_manipulation_targetAtFixation,jsons/v1_VE1000_randls_4.json,http://54.235.29.9/FacialAge/BNav_EC2/DepthDuration/v2_depth_duration_MTurk/v2_DepthDuration_HTML.html#301,301,1920,937,1920,1080,9-19-2022,19-39-15,109,depth_duration_stimuli/001617_2014-06-20_11-35-32_260595134347_rgbf000066-resize_1/001617_2014-06-20_11-35-32_260595134347_rgbf000066-resize_1-target.png,1000,3.7910000000000004,11,2893,992,feet,jsons/v1_VE1000_randls_4.json,583487,676999,27,Man
109,891274,DepthScenes,duration_manipulation_targetAtFixation,jsons/v1_VE1000_randls_4.json,http://54.235.29.9/FacialAge/BNav_EC2/DepthDuration/v2_depth_duration_MTurk/v2_DepthDuration_HTML.html#301,301,1920,937,1920,1080,9-19-2022,19-39-15,110,depth_duration_stimuli/001175_2014-06-17_15-45-55_260595134347_rgbf000129-resize_4/001175_2014-06-17_15-45-55_260595134347_rgbf000129-resize_4-target.png,1000,4.255,15,2693,1001,feet,jsons/v1_VE1000_randls_4.json,583487,676999,27,Man
110,891274,DepthScenes,duration_manipulation_targetAtFixation,jsons/v1_VE1000_randls_4.json,http://54.235.29.9/FacialAge/BNav_EC2/DepthDuration/v2_depth_duration_MTurk/v2_DepthDuration_HTML.html#301,301,1920,937,1920,1080,9-19-2022,19-39-15,111,depth_duration_stimuli/003490_2014-05-21_15-50-11_094959634447_rgbf000101-resize_3/003490_2014-05-21_15-50-11_094959634447_rgbf000101-resize_3-target.png,1000,3.6445,16,3061,1002,feet,jsons/v1_VE1000_randls_4.json,583487,676999,27,Man
111,891274,DepthScenes,duration_manipulation_targetAtFixation,jsons/v1_VE1000_randls_4.json,http://54.235.29.9/FacialAge/BNav_EC2/DepthDuration/v2_depth_duration_MTurk/v2_DepthDuration_HTML.html#301,301,1920,937,1920,1080,9-19-2022,19-39-15,112,depth_duration_stimuli/001167_2014-06-17_15-38-07_260595134347_rgbf000108-resize_0/001167_2014-06-17_15-38-07_260595134347_rgbf000108-resize_0-target.png,1000,1.8505,8,2781,996,feet,jsons/v1_VE1000_randls_4.json,583487,676999,27,Man
112,891274,DepthScenes,duration_manipulation_targetAtFixation,jsons/v1_VE1000_randls_4.json,http://54.235.29.9/FacialAge/BNav_EC2/DepthDuration/v2_depth_duration_MTurk/v2_DepthDuration_HTML.html#301,301,1920,937,1920,1080,9-19-2022,19-39-15,113,depth_duration_stimuli/003587_2014-05-23_16-48-02_094959634447_rgbf002384-resize_2/003587_2014-05-23_16-48-02_094959634447_rgbf002384-resize_2-target.png,1000,1.357,4,2394,1001,feet,jsons/v1_VE1000_randls_4.json,583487,676999,27,Man
113,891274,DepthScenes,duration_manipulation_targetAtFixation,jsons/v1_VE1000_randls_4.json,http://54.235.29.9/FacialAge/BNav_EC2/DepthDuration/v2_depth_duration_MTurk/v2_DepthDuration_HTML.html#301,301,1920,937,1920,1080,9-19-2022,19-39-15,114,depth_duration_stimuli/000917_2014-06-09_22-45-29_260595134347_rgbf000149-resize_3/000917_2014-06-09_22-45-29_260595134347_rgbf000149-resize_3-target.png,1000,4.1865,14,3295,1000,feet,jsons/v1_VE1000_randls_4.json,583487,676999,27,Man
114,891274,DepthScenes,duration_manipulation_targetAtFixation,jsons/v1_VE1000_randls_4.json,http://54.235.29.9/FacialAge/BNav_EC2/DepthDuration/v2_depth_duration_MTurk/v2_DepthDuration_HTML.html#301,301,1920,937,1920,1080,9-19-2022,19-39-15,115,depth_duration_stimuli/002323_2014-06-28_20-01-54_260595134347_rgbf000051-resize_4/002323_2014-06-28_20-01-54_260595134347_rgbf000051-resize_4-target.png,1000,3.7310000000000003,16,2822,998,feet,jsons/v1_VE1000_randls_4.json,583487,676999,27,Man
115,891274,DepthScenes,duration_manipulation_targetAtFixation,jsons/v1_VE1000_randls_4.json,http://54.235.29.9/FacialAge/BNav_EC2/DepthDuration/v2_depth_duration_MTurk/v2_DepthDuration_HTML.html#301,301,1920,937,1920,1080,9-19-2022,19-39-15,116,depth_duration_stimuli/001170_2014-06-17_15-43-44_260595134347_rgbf000096-resize_6/001170_2014-06-17_15-43-44_260595134347_rgbf000096-resize-original.jpg,1000,1.1909999999999998,0,2714,1001,feet,jsons/v1_VE1000_randls_4.json,583487,676999,27,Man
116,891274,DepthScenes,duration_manipulation_targetAtFixation,jsons/v1_VE1000_randls_4.json,http://54.235.29.9/FacialAge/BNav_EC2/DepthDuration/v2_depth_duration_MTurk/v2_DepthDuration_HTML.html#301,301,1920,937,1920,1080,9-19-2022,19-39-15,117,depth_duration_stimuli/002988_2014-06-15_12-24-20_094959634447_rgbf000150-resize_1/002988_2014-06-15_12-24-20_094959634447_rgbf000150-resize_1-target.png,1000,4.7669999999999995,20,2677,990,feet,jsons/v1_VE1000_randls_4.json,583487,676999,27,Man
117,891274,DepthScenes,duration_manipulation_targetAtFixation,jsons/v1_VE1000_randls_4.json,http://54.235.29.9/FacialAge/BNav_EC2/DepthDuration/v2_depth_duration_MTurk/v2_DepthDuration_HTML.html#301,301,1920,937,1920,1080,9-19-2022,19-39-15,118,depth_duration_stimuli/001052_2014-06-08_18-24-54_260595134347_rgbf000130-resize_1/001052_2014-06-08_18-24-54_260595134347_rgbf000130-resize_1-target.png,1000,4.1045,17,2954,996,feet,jsons/v1_VE1000_randls_4.json,583487,676999,27,Man
118,891274,DepthScenes,duration_manipulation_targetAtFixation,jsons/v1_VE1000_randls_4.json,http://54.235.29.9/FacialAge/BNav_EC2/DepthDuration/v2_depth_duration_MTurk/v2_DepthDuration_HTML.html#301,301,1920,937,1920,1080,9-19-2022,19-39-15,119,depth_duration_stimuli/000810_2014-06-08_17-20-01_260595134347_rgbf000105-resize_0/000810_2014-06-08_17-20-01_260595134347_rgbf000105-resize_0-target.png,1000,1.4865,10,3406,1004,feet,jsons/v1_VE1000_randls_4.json,583487,676999,27,Man
119,891274,DepthScenes,duration_manipulation_targetAtFixation,jsons/v1_VE1000_randls_4.json,http://54.235.29.9/FacialAge/BNav_EC2/DepthDuration/v2_depth_duration_MTurk/v2_DepthDuration_HTML.html#301,301,1920,937,1920,1080,9-19-2022,19-39-15,120,depth_duration_stimuli/001214_2014-06-17_16-13-55_260595134347_rgbf000111-resize_0/001214_2014-06-17_16-13-55_260595134347_rgbf000111-resize_0-target.png,1000,2.6505,12,3337,1001,feet,jsons/v1_VE1000_randls_4.json,583487,676999,27,Man
120,891274,DepthScenes,duration_manipulation_targetAtFixation,jsons/v1_VE1000_randls_4.json,http://54.235.29.9/FacialAge/BNav_EC2/DepthDuration/v2_depth_duration_MTurk/v2_DepthDuration_HTML.html#301,301,1920,937,1920,1080,9-19-2022,19-39-15,121,depth_duration_stimuli/000929_2014-06-09_16-33-19_260595134347_rgbf000139-resize_0/000929_2014-06-09_16-33-19_260595134347_rgbf000139-resize_0-target.png,1000,2.8680000000000003,10,2719,1000,feet,jsons/v1_VE1000_randls_4.json,583487,676999,27,Man
121,891274,DepthScenes,duration_manipulation_targetAtFixation,jsons/v1_VE1000_randls_4.json,http://54.235.29.9/FacialAge/BNav_EC2/DepthDuration/v2_depth_duration_MTurk/v2_DepthDuration_HTML.html#301,301,1920,937,1920,1080,9-19-2022,19-39-15,122,depth_duration_stimuli/000457_2014-06-08_16-52-43_260595134347_rgbf000199-resize_1/000457_2014-06-08_16-52-43_260595134347_rgbf000199-resize_1-target.png,1000,3.6489999999999996,8,2805,998,feet,jsons/v1_VE1000_randls_4.json,583487,676999,27,Man
122,891274,DepthScenes,duration_manipulation_targetAtFixation,jsons/v1_VE1000_randls_4.json,http://54.235.29.9/FacialAge/BNav_EC2/DepthDuration/v2_depth_duration_MTurk/v2_DepthDuration_HTML.html#301,301,1920,937,1920,1080,9-19-2022,19-39-15,123,depth_duration_stimuli/000773_2014-06-08_22-24-54_260595134347_rgbf000093-resize_1/000773_2014-06-08_22-24-54_260595134347_rgbf000093-resize_1-target.png,1000,4.973,11,2921,995,feet,jsons/v1_VE1000_randls_4.json,583487,676999,27,Man
123,891274,DepthScenes,duration_manipulation_targetAtFixation,jsons/v1_VE1000_randls_4.json,http://54.235.29.9/FacialAge/BNav_EC2/DepthDuration/v2_depth_duration_MTurk/v2_DepthDuration_HTML.html#301,301,1920,937,1920,1080,9-19-2022,19-39-15,124,depth_duration_stimuli/002414_2014-06-28_20-24-58_260595134347_rgbf000067-resize_4/002414_2014-06-28_20-24-58_260595134347_rgbf000067-resize_4-target.png,1000,4.363,18,3527,1002,feet,jsons/v1_VE1000_randls_4.json,583487,676999,27,Man
124,891274,DepthScenes,duration_manipulation_targetAtFixation,jsons/v1_VE1000_randls_4.json,http://54.235.29.9/FacialAge/BNav_EC2/DepthDuration/v2_depth_duration_MTurk/v2_DepthDuration_HTML.html#301,301,1920,937,1920,1080,9-19-2022,19-39-15,125,depth_duration_stimuli/002788_2014-06-22_19-36-03_094959634447_rgbf000088-resize_2/002788_2014-06-22_19-36-03_094959634447_rgbf000088-resize_2-target.png,1000,1.6465,10,3046,1001,feet,jsons/v1_VE1000_randls_4.json,583487,676999,27,Man
125,891274,DepthScenes,duration_manipulation_targetAtFixation,jsons/v1_VE1000_randls_4.json,http://54.235.29.9/FacialAge/BNav_EC2/DepthDuration/v2_depth_duration_MTurk/v2_DepthDuration_HTML.html#301,301,1920,937,1920,1080,9-19-2022,19-39-15,126,depth_duration_stimuli/000749_2014-06-08_21-55-06_260595134347_rgbf000070-resize_2/000749_2014-06-08_21-55-06_260595134347_rgbf000070-resize_2-target.png,1000,2.331,8,2814,993,feet,jsons/v1_VE1000_randls_4.json,583487,676999,27,Man
126,891274,DepthScenes,duration_manipulation_targetAtFixation,jsons/v1_VE1000_randls_4.json,http://54.235.29.9/FacialAge/BNav_EC2/DepthDuration/v2_depth_duration_MTurk/v2_DepthDuration_HTML.html#301,301,1920,937,1920,1080,9-19-2022,19-39-15,127,depth_duration_stimuli/000470_2014-06-09_19-42-40_260595134347_rgbf000094-resize_1/000470_2014-06-09_19-42-40_260595134347_rgbf000094-resize_1-target.png,1000,1.831,6,2876,1005,feet,jsons/v1_VE1000_randls_4.json,583487,676999,27,Man
127,891274,DepthScenes,duration_manipulation_targetAtFixation,jsons/v1_VE1000_randls_4.json,http://54.235.29.9/FacialAge/BNav_EC2/DepthDuration/v2_depth_duration_MTurk/v2_DepthDuration_HTML.html#301,301,1920,937,1920,1080,9-19-2022,19-39-15,128,depth_duration_stimuli/000109_2014-05-14_23-41-52_260595134347_rgbf000035-resize_9/000109_2014-05-14_23-41-52_260595134347_rgbf000035-resize_9-target.png,1000,1.3545,5,2236,1001,feet,jsons/v1_VE1000_randls_4.json,583487,676999,27,Man
128,891274,DepthScenes,duration_manipulation_targetAtFixation,jsons/v1_VE1000_randls_4.json,http://54.235.29.9/FacialAge/BNav_EC2/DepthDuration/v2_depth_duration_MTurk/v2_DepthDuration_HTML.html#301,301,1920,937,1920,1080,9-19-2022,19-39-15,129,depth_duration_stimuli/002570_2014-06-24_13-59-54_094959634447_rgbf000059-resize_0/002570_2014-06-24_13-59-54_094959634447_rgbf000059-resize_0-target.png,1000,4.037,15,3070,996,feet,jsons/v1_VE1000_randls_4.json,583487,676999,27,Man
129,891274,DepthScenes,duration_manipulation_targetAtFixation,jsons/v1_VE1000_randls_4.json,http://54.235.29.9/FacialAge/BNav_EC2/DepthDuration/v2_depth_duration_MTurk/v2_DepthDuration_HTML.html#301,301,1920,937,1920,1080,9-19-2022,19-39-15,130,depth_duration_stimuli/002467_2014-06-28_20-38-07_260595134347_rgbf000026-resize_2/002467_2014-06-28_20-38-07_260595134347_rgbf000026-resize_2-target.png,1000,4.742,17,3311,992,feet,jsons/v1_VE1000_randls_4.json,583487,676999,27,Man
130,891274,DepthScenes,duration_manipulation_targetAtFixation,jsons/v1_VE1000_randls_4.json,http://54.235.29.9/FacialAge/BNav_EC2/DepthDuration/v2_depth_duration_MTurk/v2_DepthDuration_HTML.html#301,301,1920,937,1920,1080,9-19-2022,19-39-15,131,depth_duration_stimuli/002039_2014-06-24_20-22-38_260595134347_rgbf000084-resize_1/002039_2014-06-24_20-22-38_260595134347_rgbf000084-resize_1-target.png,1000,4.408,20,2990,1002,feet,jsons/v1_VE1000_randls_4.json,583487,676999,27,Man
131,891274,DepthScenes,duration_manipulation_targetAtFixation,jsons/v1_VE1000_randls_4.json,http://54.235.29.9/FacialAge/BNav_EC2/DepthDuration/v2_depth_duration_MTurk/v2_DepthDuration_HTML.html#301,301,1920,937,1920,1080,9-19-2022,19-39-15,132,depth_duration_stimuli/002103_2014-06-25_20-00-40_260595134347_rgbf000049-resize_0/002103_2014-06-25_20-00-40_260595134347_rgbf000049-resize_0-target.png,1000,4.105,15,2750,999,feet,jsons/v1_VE1000_randls_4.json,583487,676999,27,Man
132,891274,DepthScenes,duration_manipulation_targetAtFixation,jsons/v1_VE1000_randls_4.json,http://54.235.29.9/FacialAge/BNav_EC2/DepthDuration/v2_depth_duration_MTurk/v2_DepthDuration_HTML.html#301,301,1920,937,1920,1080,9-19-2022,19-39-15,133,depth_duration_stimuli/000522_2014-06-08_13-35-06_260595134347_rgbf000244-resize_1/000522_2014-06-08_13-35-06_260595134347_rgbf000244-resize_1-target.png,1000,2.3715,3,2383,1001,feet,jsons/v1_VE1000_randls_4.json,583487,676999,27,Man
133,891274,DepthScenes,duration_manipulation_targetAtFixation,jsons/v1_VE1000_randls_4.json,http://54.235.29.9/FacialAge/BNav_EC2/DepthDuration/v2_depth_duration_MTurk/v2_DepthDuration_HTML.html#301,301,1920,937,1920,1080,9-19-2022,19-39-15,134,depth_duration_stimuli/002949_2014-06-26_15-57-42_094959634447_rgbf000079-resize_1/002949_2014-06-26_15-57-42_094959634447_rgbf000079-resize_1-target.png,1000,1.8915,5,2291,987,feet,jsons/v1_VE1000_randls_4.json,583487,676999,27,Man
134,891274,DepthScenes,duration_manipulation_targetAtFixation,jsons/v1_VE1000_randls_4.json,http://54.235.29.9/FacialAge/BNav_EC2/DepthDuration/v2_depth_duration_MTurk/v2_DepthDuration_HTML.html#301,301,1920,937,1920,1080,9-19-2022,19-39-15,135,depth_duration_stimuli/002072_2014-06-24_21-48-06_260595134347_rgbf000115-resize_0/002072_2014-06-24_21-48-06_260595134347_rgbf000115-resize-original.jpg,1000,4.702,0,2716,1003,feet,jsons/v1_VE1000_randls_4.json,583487,676999,27,Man
135,891274,DepthScenes,duration_manipulation_targetAtFixation,jsons/v1_VE1000_randls_4.json,http://54.235.29.9/FacialAge/BNav_EC2/DepthDuration/v2_depth_duration_MTurk/v2_DepthDuration_HTML.html#301,301,1920,937,1920,1080,9-19-2022,19-39-15,136,depth_duration_stimuli/003492_2014-05-21_15-50-55_094959634447_rgbf000828-resize_1/003492_2014-05-21_15-50-55_094959634447_rgbf000828-resize_1-target.png,1000,4.06875,14,3713,1001,feet,jsons/v1_VE1000_randls_4.json,583487,676999,27,Man
136,891274,DepthScenes,duration_manipulation_targetAtFixation,jsons/v1_VE1000_randls_4.json,http://54.235.29.9/FacialAge/BNav_EC2/DepthDuration/v2_depth_duration_MTurk/v2_DepthDuration_HTML.html#301,301,1920,937,1920,1080,9-19-2022,19-39-15,137,depth_duration_stimuli/002568_2014-06-24_13-59-21_094959634447_rgbf000062-resize_4/002568_2014-06-24_13-59-21_094959634447_rgbf000062-resize_4-target.png,1000,3.015,12,2928,1002,feet,jsons/v1_VE1000_randls_4.json,583487,676999,27,Man
137,891274,DepthScenes,duration_manipulation_targetAtFixation,jsons/v1_VE1000_randls_4.json,http://54.235.29.9/FacialAge/BNav_EC2/DepthDuration/v2_depth_duration_MTurk/v2_DepthDuration_HTML.html#301,301,1920,937,1920,1080,9-19-2022,19-39-15,138,depth_duration_stimuli/002153_2014-06-25_21-27-18_260595134347_rgbf000038-resize_5/002153_2014-06-25_21-27-18_260595134347_rgbf000038-resize_5-target.png,1000,2.505,10,2867,1009,feet,jsons/v1_VE1000_randls_4.json,583487,676999,27,Man
138,891274,DepthScenes,duration_manipulation_targetAtFixation,jsons/v1_VE1000_randls_4.json,http://54.235.29.9/FacialAge/BNav_EC2/DepthDuration/v2_depth_duration_MTurk/v2_DepthDuration_HTML.html#301,301,1920,937,1920,1080,9-19-2022,19-39-15,139,depth_duration_stimuli/002660_2014-06-13_15-44-18_094959634447_rgbf001878-resize_2/002660_2014-06-13_15-44-18_094959634447_rgbf001878-resize_2-target.png,1000,3.576,12,3024,1010,feet,jsons/v1_VE1000_randls_4.json,583487,676999,27,Man
139,891274,DepthScenes,duration_manipulation_targetAtFixation,jsons/v1_VE1000_randls_4.json,http://54.235.29.9/FacialAge/BNav_EC2/DepthDuration/v2_depth_duration_MTurk/v2_DepthDuration_HTML.html#301,301,1920,937,1920,1080,9-19-2022,19-39-15,140,depth_duration_stimuli/002784_2014-06-22_19-26-30_094959634447_rgbf000083-resize_3/002784_2014-06-22_19-26-30_094959634447_rgbf000083-resize_3-target.png,1000,1.8046666666667,8,2773,1003,feet,jsons/v1_VE1000_randls_4.json,583487,676999,27,Man
140,891274,DepthScenes,duration_manipulation_targetAtFixation,jsons/v1_VE1000_randls_4.json,http://54.235.29.9/FacialAge/BNav_EC2/DepthDuration/v2_depth_duration_MTurk/v2_DepthDuration_HTML.html#301,301,1920,937,1920,1080,9-19-2022,19-39-15,141,depth_duration_stimuli/001100_2014-06-15_17-46-26_260595134347_rgbf000225-resize_2/001100_2014-06-15_17-46-26_260595134347_rgbf000225-resize_2-target.png,1000,2.24,5,2967,1000,feet,jsons/v1_VE1000_randls_4.json,583487,676999,27,Man
141,891274,DepthScenes,duration_manipulation_targetAtFixation,jsons/v1_VE1000_randls_4.json,http://54.235.29.9/FacialAge/BNav_EC2/DepthDuration/v2_depth_duration_MTurk/v2_DepthDuration_HTML.html#301,301,1920,937,1920,1080,9-19-2022,19-39-15,142,depth_duration_stimuli/001810_2014-06-26_20-51-35_260595134347_rgbf000040-resize_3/001810_2014-06-26_20-51-35_260595134347_rgbf000040-resize_3-target.png,1000,2.2525,7,2910,987,feet,jsons/v1_VE1000_randls_4.json,583487,676999,27,Man
142,891274,DepthScenes,duration_manipulation_targetAtFixation,jsons/v1_VE1000_randls_4.json,http://54.235.29.9/FacialAge/BNav_EC2/DepthDuration/v2_depth_duration_MTurk/v2_DepthDuration_HTML.html#301,301,1920,937,1920,1080,9-19-2022,19-39-15,143,depth_duration_stimuli/003010_2014-06-15_12-54-35_094959634447_rgbf000112-resize_0/003010_2014-06-15_12-54-35_094959634447_rgbf000112-resize_0-target.png,1000,3.1185,12,3028,994,feet,jsons/v1_VE1000_randls_4.json,583487,676999,27,Man
143,891274,DepthScenes,duration_manipulation_targetAtFixation,jsons/v1_VE1000_randls_4.json,http://54.235.29.9/FacialAge/BNav_EC2/DepthDuration/v2_depth_duration_MTurk/v2_DepthDuration_HTML.html#301,301,1920,937,1920,1080,9-19-2022,19-39-15,144,depth_duration_stimuli/001059_2014-06-08_21-53-27_260595134347_rgbf000061-resize_4/001059_2014-06-08_21-53-27_260595134347_rgbf000061-resize_4-target.png,1000,2.4185,10,2711,1001,feet,jsons/v1_VE1000_randls_4.json,583487,676999,27,Man
144,891274,DepthScenes,duration_manipulation_targetAtFixation,jsons/v1_VE1000_randls_4.json,http://54.235.29.9/FacialAge/BNav_EC2/DepthDuration/v2_depth_duration_MTurk/v2_DepthDuration_HTML.html#301,301,1920,937,1920,1080,9-19-2022,19-39-15,145,depth_duration_stimuli/001032_2014-06-08_13-23-17_260595134347_rgbf000021-resize_3/001032_2014-06-08_13-23-17_260595134347_rgbf000021-resize_3-target.png,1000,3.2725,12,2821,992,feet,jsons/v1_VE1000_randls_4.json,583487,676999,27,Man
145,891274,DepthScenes,duration_manipulation_targetAtFixation,jsons/v1_VE1000_randls_4.json,http://54.235.29.9/FacialAge/BNav_EC2/DepthDuration/v2_depth_duration_MTurk/v2_DepthDuration_HTML.html#301,301,1920,937,1920,1080,9-19-2022,19-39-15,146,depth_duration_stimuli/001498_2014-06-19_17-45-14_260595134347_rgbf000129-resize_4/001498_2014-06-19_17-45-14_260595134347_rgbf000129-resize-original.jpg,1000,1.4075,0,2416,1002,feet,jsons/v1_VE1000_randls_4.json,583487,676999,27,Man
146,891274,DepthScenes,duration_manipulation_targetAtFixation,jsons/v1_VE1000_randls_4.json,http://54.235.29.9/FacialAge/BNav_EC2/DepthDuration/v2_depth_duration_MTurk/v2_DepthDuration_HTML.html#301,301,1920,937,1920,1080,9-19-2022,19-39-15,147,depth_duration_stimuli/000368_2014-06-09_15-53-01_260595134347_rgbf000155-resize_2/000368_2014-06-09_15-53-01_260595134347_rgbf000155-resize_2-target.png,1000,2.4859999999999998,6,3179,1000,feet,jsons/v1_VE1000_randls_4.json,583487,676999,27,Man
147,891274,DepthScenes,duration_manipulation_targetAtFixation,jsons/v1_VE1000_randls_4.json,http://54.235.29.9/FacialAge/BNav_EC2/DepthDuration/v2_depth_duration_MTurk/v2_DepthDuration_HTML.html#301,301,1920,937,1920,1080,9-19-2022,19-39-15,148,depth_duration_stimuli/002678_2014-06-13_16-15-32_094959634447_rgbf000151-resize_6/002678_2014-06-13_16-15-32_094959634447_rgbf000151-resize_6-target.png,1000,2.1830000000000003,9,2774,1006,feet,jsons/v1_VE1000_randls_4.json,583487,676999,27,Man
148,891274,DepthScenes,duration_manipulation_targetAtFixation,jsons/v1_VE1000_randls_4.json,http://54.235.29.9/FacialAge/BNav_EC2/DepthDuration/v2_depth_duration_MTurk/v2_DepthDuration_HTML.html#301,301,1920,937,1920,1080,9-19-2022,19-39-15,149,depth_duration_stimuli/001555_2014-06-20_17-12-10_260595134347_rgbf000065-resize_4/001555_2014-06-20_17-12-10_260595134347_rgbf000065-resize_4-target.png,1000,1.633,5,3166,994,feet,jsons/v1_VE1000_randls_4.json,583487,676999,27,Man
149,891274,DepthScenes,duration_manipulation_targetAtFixation,jsons/v1_VE1000_randls_4.json,http://54.235.29.9/FacialAge/BNav_EC2/DepthDuration/v2_depth_duration_MTurk/v2_DepthDuration_HTML.html#301,301,1920,937,1920,1080,9-19-2022,19-39-15,150,depth_duration_stimuli/000103_2014-05-14_22-01-17_260595134347_rgbf000152-resize_5/000103_2014-05-14_22-01-17_260595134347_rgbf000152-resize_5-target.png,1000,1.993,10,3811,1002,feet,jsons/v1_VE1000_randls_4.json,583487,676999,27,Man
150,891274,DepthScenes,duration_manipulation_targetAtFixation,jsons/v1_VE1000_randls_4.json,http://54.235.29.9/FacialAge/BNav_EC2/DepthDuration/v2_depth_duration_MTurk/v2_DepthDuration_HTML.html#301,301,1920,937,1920,1080,9-19-2022,19-39-15,151,depth_duration_stimuli/001066_2014-06-08_22-03-20_260595134347_rgbf000066-resize_4/001066_2014-06-08_22-03-20_260595134347_rgbf000066-resize_4-target.png,1000,4.2330000000000005,25,2822,995,feet,jsons/v1_VE1000_randls_4.json,583487,676999,27,Man
151,891274,DepthScenes,duration_manipulation_targetAtFixation,jsons/v1_VE1000_randls_4.json,http://54.235.29.9/FacialAge/BNav_EC2/DepthDuration/v2_depth_duration_MTurk/v2_DepthDuration_HTML.html#301,301,1920,937,1920,1080,9-19-2022,19-39-15,152,depth_duration_stimuli/000742_2014-06-08_18-48-09_260595134347_rgbf000164-resize_4/000742_2014-06-08_18-48-09_260595134347_rgbf000164-resize_4-target.png,1000,4.632,20,2697,1002,feet,jsons/v1_VE1000_randls_4.json,583487,676999,27,Man
152,891274,DepthScenes,duration_manipulation_targetAtFixation,jsons/v1_VE1000_randls_4.json,http://54.235.29.9/FacialAge/BNav_EC2/DepthDuration/v2_depth_duration_MTurk/v2_DepthDuration_HTML.html#301,301,1920,937,1920,1080,9-19-2022,19-39-15,153,depth_duration_stimuli/001110_2014-06-15_17-25-28_260595134347_rgbf000150-resize_1/001110_2014-06-15_17-25-28_260595134347_rgbf000150-resize_1-target.png,1000,1.7115,8,2744,1008,feet,jsons/v1_VE1000_randls_4.json,583487,676999,27,Man
153,891274,DepthScenes,duration_manipulation_targetAtFixation,jsons/v1_VE1000_randls_4.json,http://54.235.29.9/FacialAge/BNav_EC2/DepthDuration/v2_depth_duration_MTurk/v2_DepthDuration_HTML.html#301,301,1920,937,1920,1080,9-19-2022,19-39-15,154,depth_duration_stimuli/000927_2014-06-09_16-32-30_260595134347_rgbf000123-resize_3/000927_2014-06-09_16-32-30_260595134347_rgbf000123-resize_3-target.png,1000,2.6785,9,2958,1008,feet,jsons/v1_VE1000_randls_4.json,583487,676999,27,Man
154,891274,DepthScenes,duration_manipulation_targetAtFixation,jsons/v1_VE1000_randls_4.json,http://54.235.29.9/FacialAge/BNav_EC2/DepthDuration/v2_depth_duration_MTurk/v2_DepthDuration_HTML.html#301,301,1920,937,1920,1080,9-19-2022,19-39-15,155,depth_duration_stimuli/003292_2014-05-14_21-53-49_094959634447_rgbf000100-resize_2/003292_2014-05-14_21-53-49_094959634447_rgbf000100-resize_2-target.png,1000,3.4815,10,4109,1001,feet,jsons/v1_VE1000_randls_4.json,583487,676999,27,Man
155,891274,DepthScenes,duration_manipulation_targetAtFixation,jsons/v1_VE1000_randls_4.json,http://54.235.29.9/FacialAge/BNav_EC2/DepthDuration/v2_depth_duration_MTurk/v2_DepthDuration_HTML.html#301,301,1920,937,1920,1080,9-19-2022,19-39-15,156,depth_duration_stimuli/002639_2014-06-24_14-51-37_094959634447_rgbf000074-resize_4/002639_2014-06-24_14-51-37_094959634447_rgbf000074-resize_4-target.png,1000,4.0375,16,2988,1003,feet,jsons/v1_VE1000_randls_4.json,583487,676999,27,Man
156,891274,DepthScenes,duration_manipulation_targetAtFixation,jsons/v1_VE1000_randls_4.json,http://54.235.29.9/FacialAge/BNav_EC2/DepthDuration/v2_depth_duration_MTurk/v2_DepthDuration_HTML.html#301,301,1920,937,1920,1080,9-19-2022,19-39-15,157,depth_duration_stimuli/002043_2014-06-24_20-29-38_260595134347_rgbf000039-resize_4/002043_2014-06-24_20-29-38_260595134347_rgbf000039-resize_4-target.png,1000,2.8435,8,2816,1003,feet,jsons/v1_VE1000_randls_4.json,583487,676999,27,Man
157,891274,DepthScenes,duration_manipulation_targetAtFixation,jsons/v1_VE1000_randls_4.json,http://54.235.29.9/FacialAge/BNav_EC2/DepthDuration/v2_depth_duration_MTurk/v2_DepthDuration_HTML.html#301,301,1920,937,1920,1080,9-19-2022,19-39-15,158,depth_duration_stimuli/003048_2014-06-15_13-49-43_094959634447_rgbf000150-resize_1/003048_2014-06-15_13-49-43_094959634447_rgbf000150-resize_1-target.png,1000,4.0035,15,3189,977,feet,jsons/v1_VE1000_randls_4.json,583487,676999,27,Man
158,891274,DepthScenes,duration_manipulation_targetAtFixation,jsons/v1_VE1000_randls_4.json,http://54.235.29.9/FacialAge/BNav_EC2/DepthDuration/v2_depth_duration_MTurk/v2_DepthDuration_HTML.html#301,301,1920,937,1920,1080,9-19-2022,19-39-15,159,depth_duration_stimuli/000493_2014-06-09_21-01-18_260595134347_rgbf000196-resize_3/000493_2014-06-09_21-01-18_260595134347_rgbf000196-resize_3-target.png,1000,3.44,10,2678,999,feet,jsons/v1_VE1000_randls_4.json,583487,676999,27,Man
159,891274,DepthScenes,duration_manipulation_targetAtFixation,jsons/v1_VE1000_randls_4.json,http://54.235.29.9/FacialAge/BNav_EC2/DepthDuration/v2_depth_duration_MTurk/v2_DepthDuration_HTML.html#301,301,1920,937,1920,1080,9-19-2022,19-39-15,160,depth_duration_stimuli/000191_2014-05-12_17-07-38_260595134347_rgbf000199-resize_0/000191_2014-05-12_17-07-38_260595134347_rgbf000199-resize_0-target.png,1000,3.7995,16,2916,996,feet,jsons/v1_VE1000_randls_4.json,583487,676999,27,Man
160,891274,DepthScenes,duration_manipulation_targetAtFixation,jsons/v1_VE1000_randls_4.json,http://54.235.29.9/FacialAge/BNav_EC2/DepthDuration/v2_depth_duration_MTurk/v2_DepthDuration_HTML.html#301,301,1920,937,1920,1080,9-19-2022,19-39-15,161,depth_duration_stimuli/002549_2014-06-24_13-41-39_094959634447_rgbf000022-resize_3/002549_2014-06-24_13-41-39_094959634447_rgbf000022-resize_3-target.png,1000,1.476,7,3820,1008,feet,jsons/v1_VE1000_randls_4.json,583487,676999,27,Man
161,891274,DepthScenes,duration_manipulation_targetAtFixation,jsons/v1_VE1000_randls_4.json,http://54.235.29.9/FacialAge/BNav_EC2/DepthDuration/v2_depth_duration_MTurk/v2_DepthDuration_HTML.html#301,301,1920,937,1920,1080,9-19-2022,19-39-15,162,depth_duration_stimuli/002750_2014-06-22_19-08-03_094959634447_rgbf000094-resize_4/002750_2014-06-22_19-08-03_094959634447_rgbf000094-resize_4-target.png,1000,2.354,8,3222,1000,feet,jsons/v1_VE1000_randls_4.json,583487,676999,27,Man
162,891274,DepthScenes,duration_manipulation_targetAtFixation,jsons/v1_VE1000_randls_4.json,http://54.235.29.9/FacialAge/BNav_EC2/DepthDuration/v2_depth_duration_MTurk/v2_DepthDuration_HTML.html#301,301,1920,937,1920,1080,9-19-2022,19-39-15,163,depth_duration_stimuli/001449_2014-06-19_17-01-27_260595134347_rgbf000116-resize_2/001449_2014-06-19_17-01-27_260595134347_rgbf000116-resize_2-target.png,1000,3.452,9,2861,996,feet,jsons/v1_VE1000_randls_4.json,583487,676999,27,Man
163,891274,DepthScenes,duration_manipulation_targetAtFixation,jsons/v1_VE1000_randls_4.json,http://54.235.29.9/FacialAge/BNav_EC2/DepthDuration/v2_depth_duration_MTurk/v2_DepthDuration_HTML.html#301,301,1920,937,1920,1080,9-19-2022,19-39-15,164,depth_duration_stimuli/001450_2014-06-19_17-02-03_260595134347_rgbf000203-resize_4/001450_2014-06-19_17-02-03_260595134347_rgbf000203-resize_4-target.png,1000,4.0106666666667,14,3796,996,feet,jsons/v1_VE1000_randls_4.json,583487,676999,27,Man
