,subjID,experimentName,versionName,sequenceName,url,selected_row,windowWidth,windowHeight,screenWidth,screenHeight,startDate,startTime,trial,stimulus,duration,actual_depth,depth_estimate,trial_RT,log_sceneDuration,unitSelection,seq_filepath,experimentTime,totalTime,age,gender
0,892576,DepthScenes,duration_manipulation_targetAtFixation,jsons/v1_VE250_randls_6_rotated.json,http://54.235.29.9/FacialAge/BNav_EC2/DepthDuration/v2_depth_duration_MTurk/v2_DepthDuration_HTML.html#393,393,1366,625,1366,768,9-4-2022,10-18-44,1,depth_duration_stimuli/001132_2014-06-17_14-48-54_260595134347_rgbf000100-resize_2/001132_2014-06-17_14-48-54_260595134347_rgbf000100-resize_2-target.png,250,3.753,12345,13758,251,feet,jsons/v1_VE250_randls_6_rotated.json,1504919,1878520,64,Woman
1,892576,DepthScenes,duration_manipulation_targetAtFixation,jsons/v1_VE250_randls_6_rotated.json,http://54.235.29.9/FacialAge/BNav_EC2/DepthDuration/v2_depth_duration_MTurk/v2_DepthDuration_HTML.html#393,393,1366,625,1366,768,9-4-2022,10-18-44,2,depth_duration_stimuli/001133_2014-06-17_14-49-16_260595134347_rgbf000100-resize_0/001133_2014-06-17_14-49-16_260595134347_rgbf000100-resize_0-target.png,250,4.2115,21345,11520,244,feet,jsons/v1_VE250_randls_6_rotated.json,1504919,1878520,64,Woman
2,892576,DepthScenes,duration_manipulation_targetAtFixation,jsons/v1_VE250_randls_6_rotated.json,http://54.235.29.9/FacialAge/BNav_EC2/DepthDuration/v2_depth_duration_MTurk/v2_DepthDuration_HTML.html#393,393,1366,625,1366,768,9-4-2022,10-18-44,3,depth_duration_stimuli/002949_2014-06-26_15-57-42_094959634447_rgbf000079-resize_1/002949_2014-06-26_15-57-42_094959634447_rgbf000079-resize_1-target.png,250,1.8915,23145,8829,249,feet,jsons/v1_VE250_randls_6_rotated.json,1504919,1878520,64,Woman
3,892576,DepthScenes,duration_manipulation_targetAtFixation,jsons/v1_VE250_randls_6_rotated.json,http://54.235.29.9/FacialAge/BNav_EC2/DepthDuration/v2_depth_duration_MTurk/v2_DepthDuration_HTML.html#393,393,1366,625,1366,768,9-4-2022,10-18-44,4,depth_duration_stimuli/000522_2014-06-08_13-35-06_260595134347_rgbf000244-resize_1/000522_2014-06-08_13-35-06_260595134347_rgbf000244-resize_1-target.png,250,2.3715,13245,20977,240,feet,jsons/v1_VE250_randls_6_rotated.json,1504919,1878520,64,Woman
4,892576,DepthScenes,duration_manipulation_targetAtFixation,jsons/v1_VE250_randls_6_rotated.json,http://54.235.29.9/FacialAge/BNav_EC2/DepthDuration/v2_depth_duration_MTurk/v2_DepthDuration_HTML.html#393,393,1366,625,1366,768,9-4-2022,10-18-44,5,depth_duration_stimuli/003083_2014-06-15_15-21-03_094959634447_rgbf000063-resize_1/003083_2014-06-15_15-21-03_094959634447_rgbf000063-resize_1-target.png,250,4.1405,51432,10390,259,feet,jsons/v1_VE250_randls_6_rotated.json,1504919,1878520,64,Woman
5,892576,DepthScenes,duration_manipulation_targetAtFixation,jsons/v1_VE250_randls_6_rotated.json,http://54.235.29.9/FacialAge/BNav_EC2/DepthDuration/v2_depth_duration_MTurk/v2_DepthDuration_HTML.html#393,393,1366,625,1366,768,9-4-2022,10-18-44,6,depth_duration_stimuli/000486_2014-06-09_20-47-20_260595134347_rgbf000143-resize_2/000486_2014-06-09_20-47-20_260595134347_rgbf000143-resize_2-target.png,250,4.8325,12534,11549,253,feet,jsons/v1_VE250_randls_6_rotated.json,1504919,1878520,64,Woman
6,892576,DepthScenes,duration_manipulation_targetAtFixation,jsons/v1_VE250_randls_6_rotated.json,http://54.235.29.9/FacialAge/BNav_EC2/DepthDuration/v2_depth_duration_MTurk/v2_DepthDuration_HTML.html#393,393,1366,625,1366,768,9-4-2022,10-18-44,7,depth_duration_stimuli/003587_2014-05-23_16-48-02_094959634447_rgbf002384-resize_2/003587_2014-05-23_16-48-02_094959634447_rgbf002384-resize_2-target.png,250,1.357,21435,12556,235,feet,jsons/v1_VE250_randls_6_rotated.json,1504919,1878520,64,Woman
7,892576,DepthScenes,duration_manipulation_targetAtFixation,jsons/v1_VE250_randls_6_rotated.json,http://54.235.29.9/FacialAge/BNav_EC2/DepthDuration/v2_depth_duration_MTurk/v2_DepthDuration_HTML.html#393,393,1366,625,1366,768,9-4-2022,10-18-44,8,depth_duration_stimuli/001167_2014-06-17_15-38-07_260595134347_rgbf000108-resize_0/001167_2014-06-17_15-38-07_260595134347_rgbf000108-resize_0-target.png,250,1.8505,1,93319,240,feet,jsons/v1_VE250_randls_6_rotated.json,1504919,1878520,64,Woman
8,892576,DepthScenes,duration_manipulation_targetAtFixation,jsons/v1_VE250_randls_6_rotated.json,http://54.235.29.9/FacialAge/BNav_EC2/DepthDuration/v2_depth_duration_MTurk/v2_DepthDuration_HTML.html#393,393,1366,625,1366,768,9-4-2022,10-18-44,9,depth_duration_stimuli/001516_2014-06-20_16-25-09_260595134347_rgbf000076-resize_2/001516_2014-06-20_16-25-09_260595134347_rgbf000076-resize_2-target.png,250,1.7445,3,10801,248,feet,jsons/v1_VE250_randls_6_rotated.json,1504919,1878520,64,Woman
9,892576,DepthScenes,duration_manipulation_targetAtFixation,jsons/v1_VE250_randls_6_rotated.json,http://54.235.29.9/FacialAge/BNav_EC2/DepthDuration/v2_depth_duration_MTurk/v2_DepthDuration_HTML.html#393,393,1366,625,1366,768,9-4-2022,10-18-44,10,depth_duration_stimuli/002118_2014-06-25_20-32-08_260595134347_rgbf000078-resize_1/002118_2014-06-25_20-32-08_260595134347_rgbf000078-resize_1-target.png,250,2.6460000000000004,5,7887,239,feet,jsons/v1_VE250_randls_6_rotated.json,1504919,1878520,64,Woman
10,892576,DepthScenes,duration_manipulation_targetAtFixation,jsons/v1_VE250_randls_6_rotated.json,http://54.235.29.9/FacialAge/BNav_EC2/DepthDuration/v2_depth_duration_MTurk/v2_DepthDuration_HTML.html#393,393,1366,625,1366,768,9-4-2022,10-18-44,11,depth_duration_stimuli/002340_2014-06-28_20-05-46_260595134347_rgbf000113-resize_0/002340_2014-06-28_20-05-46_260595134347_rgbf000113-resize_0-target.png,250,2.4735,3,7199,250,feet,jsons/v1_VE250_randls_6_rotated.json,1504919,1878520,64,Woman
11,892576,DepthScenes,duration_manipulation_targetAtFixation,jsons/v1_VE250_randls_6_rotated.json,http://54.235.29.9/FacialAge/BNav_EC2/DepthDuration/v2_depth_duration_MTurk/v2_DepthDuration_HTML.html#393,393,1366,625,1366,768,9-4-2022,10-18-44,12,depth_duration_stimuli/001016_2014-06-09_16-16-10_260595134347_rgbf000112-resize_5/001016_2014-06-09_16-16-10_260595134347_rgbf000112-resize_5-target.png,250,1.6565,3,4811,248,feet,jsons/v1_VE250_randls_6_rotated.json,1504919,1878520,64,Woman
12,892576,DepthScenes,duration_manipulation_targetAtFixation,jsons/v1_VE250_randls_6_rotated.json,http://54.235.29.9/FacialAge/BNav_EC2/DepthDuration/v2_depth_duration_MTurk/v2_DepthDuration_HTML.html#393,393,1366,625,1366,768,9-4-2022,10-18-44,13,depth_duration_stimuli/003228_2014-05-14_13-42-35_094959634447_rgbf000101-resize_1/003228_2014-05-14_13-42-35_094959634447_rgbf000101-resize_1-target.png,250,1.9680000000000002,5,6140,255,feet,jsons/v1_VE250_randls_6_rotated.json,1504919,1878520,64,Woman
13,892576,DepthScenes,duration_manipulation_targetAtFixation,jsons/v1_VE250_randls_6_rotated.json,http://54.235.29.9/FacialAge/BNav_EC2/DepthDuration/v2_depth_duration_MTurk/v2_DepthDuration_HTML.html#393,393,1366,625,1366,768,9-4-2022,10-18-44,14,depth_duration_stimuli/002600_2014-06-24_14-27-04_094959634447_rgbf000074-resize_2/002600_2014-06-24_14-27-04_094959634447_rgbf000074-resize_2-target.png,250,2.7575,2,7152,251,feet,jsons/v1_VE250_randls_6_rotated.json,1504919,1878520,64,Woman
14,892576,DepthScenes,duration_manipulation_targetAtFixation,jsons/v1_VE250_randls_6_rotated.json,http://54.235.29.9/FacialAge/BNav_EC2/DepthDuration/v2_depth_duration_MTurk/v2_DepthDuration_HTML.html#393,393,1366,625,1366,768,9-4-2022,10-18-44,15,depth_duration_stimuli/000854_2014-06-09_19-43-13_260595134347_rgbf000066-resize_0/000854_2014-06-09_19-43-13_260595134347_rgbf000066-resize_0-target.png,250,3.068,4,5327,246,feet,jsons/v1_VE250_randls_6_rotated.json,1504919,1878520,64,Woman
15,892576,DepthScenes,duration_manipulation_targetAtFixation,jsons/v1_VE250_randls_6_rotated.json,http://54.235.29.9/FacialAge/BNav_EC2/DepthDuration/v2_depth_duration_MTurk/v2_DepthDuration_HTML.html#393,393,1366,625,1366,768,9-4-2022,10-18-44,16,depth_duration_stimuli/000758_2014-06-08_22-05-08_260595134347_rgbf000085-resize_0/000758_2014-06-08_22-05-08_260595134347_rgbf000085-resize_0-target.png,250,3.3810000000000002,2,12016,241,feet,jsons/v1_VE250_randls_6_rotated.json,1504919,1878520,64,Woman
16,892576,DepthScenes,duration_manipulation_targetAtFixation,jsons/v1_VE250_randls_6_rotated.json,http://54.235.29.9/FacialAge/BNav_EC2/DepthDuration/v2_depth_duration_MTurk/v2_DepthDuration_HTML.html#393,393,1366,625,1366,768,9-4-2022,10-18-44,17,depth_duration_stimuli/001650_2014-06-20_12-09-00_260595134347_rgbf000087-resize_3/001650_2014-06-20_12-09-00_260595134347_rgbf000087-resize_3-target.png,250,1.9505,4,6570,249,feet,jsons/v1_VE250_randls_6_rotated.json,1504919,1878520,64,Woman
17,892576,DepthScenes,duration_manipulation_targetAtFixation,jsons/v1_VE250_randls_6_rotated.json,http://54.235.29.9/FacialAge/BNav_EC2/DepthDuration/v2_depth_duration_MTurk/v2_DepthDuration_HTML.html#393,393,1366,625,1366,768,9-4-2022,10-18-44,18,depth_duration_stimuli/000682_2014-06-08_23-14-58_260595134347_rgbf000041-resize_5/000682_2014-06-08_23-14-58_260595134347_rgbf000041-resize_5-target.png,250,2.7239999999999998,5,4259,247,feet,jsons/v1_VE250_randls_6_rotated.json,1504919,1878520,64,Woman
18,892576,DepthScenes,duration_manipulation_targetAtFixation,jsons/v1_VE250_randls_6_rotated.json,http://54.235.29.9/FacialAge/BNav_EC2/DepthDuration/v2_depth_duration_MTurk/v2_DepthDuration_HTML.html#393,393,1366,625,1366,768,9-4-2022,10-18-44,19,depth_duration_stimuli/001498_2014-06-19_17-45-14_260595134347_rgbf000129-resize_4/001498_2014-06-19_17-45-14_260595134347_rgbf000129-resize-original.jpg,250,1.4075,4,5172,253,feet,jsons/v1_VE250_randls_6_rotated.json,1504919,1878520,64,Woman
19,892576,DepthScenes,duration_manipulation_targetAtFixation,jsons/v1_VE250_randls_6_rotated.json,http://54.235.29.9/FacialAge/BNav_EC2/DepthDuration/v2_depth_duration_MTurk/v2_DepthDuration_HTML.html#393,393,1366,625,1366,768,9-4-2022,10-18-44,20,depth_duration_stimuli/001815_2014-06-26_20-52-55_260595134347_rgbf000020-resize_0/001815_2014-06-26_20-52-55_260595134347_rgbf000020-resize_0-target.png,250,3.3865,3,5112,246,feet,jsons/v1_VE250_randls_6_rotated.json,1504919,1878520,64,Woman
20,892576,DepthScenes,duration_manipulation_targetAtFixation,jsons/v1_VE250_randls_6_rotated.json,http://54.235.29.9/FacialAge/BNav_EC2/DepthDuration/v2_depth_duration_MTurk/v2_DepthDuration_HTML.html#393,393,1366,625,1366,768,9-4-2022,10-18-44,21,depth_duration_stimuli/001808_2014-06-26_20-50-58_260595134347_rgbf000029-resize_1/001808_2014-06-26_20-50-58_260595134347_rgbf000029-resize_1-target.png,250,4.249,2,6578,253,feet,jsons/v1_VE250_randls_6_rotated.json,1504919,1878520,64,Woman
21,892576,DepthScenes,duration_manipulation_targetAtFixation,jsons/v1_VE250_randls_6_rotated.json,http://54.235.29.9/FacialAge/BNav_EC2/DepthDuration/v2_depth_duration_MTurk/v2_DepthDuration_HTML.html#393,393,1366,625,1366,768,9-4-2022,10-18-44,22,depth_duration_stimuli/000556_2014-06-09_22-42-56_260595134347_rgbf000214-resize_1/000556_2014-06-09_22-42-56_260595134347_rgbf000214-resize_1-target.png,250,4.8415,4,9305,264,feet,jsons/v1_VE250_randls_6_rotated.json,1504919,1878520,64,Woman
22,892576,DepthScenes,duration_manipulation_targetAtFixation,jsons/v1_VE250_randls_6_rotated.json,http://54.235.29.9/FacialAge/BNav_EC2/DepthDuration/v2_depth_duration_MTurk/v2_DepthDuration_HTML.html#393,393,1366,625,1366,768,9-4-2022,10-18-44,23,depth_duration_stimuli/001158_2014-06-17_15-32-16_260595134347_rgbf000138-resize_2/001158_2014-06-17_15-32-16_260595134347_rgbf000138-resize_2-target.png,250,4.5315,3,10997,255,feet,jsons/v1_VE250_randls_6_rotated.json,1504919,1878520,64,Woman
23,892576,DepthScenes,duration_manipulation_targetAtFixation,jsons/v1_VE250_randls_6_rotated.json,http://54.235.29.9/FacialAge/BNav_EC2/DepthDuration/v2_depth_duration_MTurk/v2_DepthDuration_HTML.html#393,393,1366,625,1366,768,9-4-2022,10-18-44,24,depth_duration_stimuli/002444_2014-06-28_20-32-08_260595134347_rgbf000027-resize_0/002444_2014-06-28_20-32-08_260595134347_rgbf000027-resize_0-target.png,250,4.388999999999999,4,12089,258,feet,jsons/v1_VE250_randls_6_rotated.json,1504919,1878520,64,Woman
24,892576,DepthScenes,duration_manipulation_targetAtFixation,jsons/v1_VE250_randls_6_rotated.json,http://54.235.29.9/FacialAge/BNav_EC2/DepthDuration/v2_depth_duration_MTurk/v2_DepthDuration_HTML.html#393,393,1366,625,1366,768,9-4-2022,10-18-44,25,depth_duration_stimuli/000436_2014-06-09_22-25-11_260595134347_rgbf000137-resize_1/000436_2014-06-09_22-25-11_260595134347_rgbf000137-resize_1-target.png,250,4.0705,1,6130,242,feet,jsons/v1_VE250_randls_6_rotated.json,1504919,1878520,64,Woman
25,892576,DepthScenes,duration_manipulation_targetAtFixation,jsons/v1_VE250_randls_6_rotated.json,http://54.235.29.9/FacialAge/BNav_EC2/DepthDuration/v2_depth_duration_MTurk/v2_DepthDuration_HTML.html#393,393,1366,625,1366,768,9-4-2022,10-18-44,26,depth_duration_stimuli/002199_2014-06-28_18-33-56_260595134347_rgbf000074-resize_0/002199_2014-06-28_18-33-56_260595134347_rgbf000074-resize_0-target.png,250,1.996,3,13246,247,feet,jsons/v1_VE250_randls_6_rotated.json,1504919,1878520,64,Woman
26,892576,DepthScenes,duration_manipulation_targetAtFixation,jsons/v1_VE250_randls_6_rotated.json,http://54.235.29.9/FacialAge/BNav_EC2/DepthDuration/v2_depth_duration_MTurk/v2_DepthDuration_HTML.html#393,393,1366,625,1366,768,9-4-2022,10-18-44,27,depth_duration_stimuli/001056_2014-06-08_18-46-44_260595134347_rgbf000068-resize_0/001056_2014-06-08_18-46-44_260595134347_rgbf000068-resize_0-target.png,250,2.6625,4,7038,243,feet,jsons/v1_VE250_randls_6_rotated.json,1504919,1878520,64,Woman
27,892576,DepthScenes,duration_manipulation_targetAtFixation,jsons/v1_VE250_randls_6_rotated.json,http://54.235.29.9/FacialAge/BNav_EC2/DepthDuration/v2_depth_duration_MTurk/v2_DepthDuration_HTML.html#393,393,1366,625,1366,768,9-4-2022,10-18-44,28,depth_duration_stimuli/000742_2014-06-08_18-48-09_260595134347_rgbf000164-resize_4/000742_2014-06-08_18-48-09_260595134347_rgbf000164-resize_4-target.png,250,4.632,1,4443,245,feet,jsons/v1_VE250_randls_6_rotated.json,1504919,1878520,64,Woman
28,892576,DepthScenes,duration_manipulation_targetAtFixation,jsons/v1_VE250_randls_6_rotated.json,http://54.235.29.9/FacialAge/BNav_EC2/DepthDuration/v2_depth_duration_MTurk/v2_DepthDuration_HTML.html#393,393,1366,625,1366,768,9-4-2022,10-18-44,29,depth_duration_stimuli/001066_2014-06-08_22-03-20_260595134347_rgbf000066-resize_4/001066_2014-06-08_22-03-20_260595134347_rgbf000066-resize_4-target.png,250,4.2330000000000005,2,4426,259,feet,jsons/v1_VE250_randls_6_rotated.json,1504919,1878520,64,Woman
29,892576,DepthScenes,duration_manipulation_targetAtFixation,jsons/v1_VE250_randls_6_rotated.json,http://54.235.29.9/FacialAge/BNav_EC2/DepthDuration/v2_depth_duration_MTurk/v2_DepthDuration_HTML.html#393,393,1366,625,1366,768,9-4-2022,10-18-44,30,depth_duration_stimuli/002072_2014-06-24_21-48-06_260595134347_rgbf000115-resize_0/002072_2014-06-24_21-48-06_260595134347_rgbf000115-resize-original.jpg,250,4.702,3,4173,250,feet,jsons/v1_VE250_randls_6_rotated.json,1504919,1878520,64,Woman
30,892576,DepthScenes,duration_manipulation_targetAtFixation,jsons/v1_VE250_randls_6_rotated.json,http://54.235.29.9/FacialAge/BNav_EC2/DepthDuration/v2_depth_duration_MTurk/v2_DepthDuration_HTML.html#393,393,1366,625,1366,768,9-4-2022,10-18-44,31,depth_duration_stimuli/001032_2014-06-08_13-23-17_260595134347_rgbf000021-resize_3/001032_2014-06-08_13-23-17_260595134347_rgbf000021-resize_3-target.png,250,3.2725,4,4500,262,feet,jsons/v1_VE250_randls_6_rotated.json,1504919,1878520,64,Woman
31,892576,DepthScenes,duration_manipulation_targetAtFixation,jsons/v1_VE250_randls_6_rotated.json,http://54.235.29.9/FacialAge/BNav_EC2/DepthDuration/v2_depth_duration_MTurk/v2_DepthDuration_HTML.html#393,393,1366,625,1366,768,9-4-2022,10-18-44,32,depth_duration_stimuli/001059_2014-06-08_21-53-27_260595134347_rgbf000061-resize_4/001059_2014-06-08_21-53-27_260595134347_rgbf000061-resize_4-target.png,250,2.4185,5,3650,245,feet,jsons/v1_VE250_randls_6_rotated.json,1504919,1878520,64,Woman
32,892576,DepthScenes,duration_manipulation_targetAtFixation,jsons/v1_VE250_randls_6_rotated.json,http://54.235.29.9/FacialAge/BNav_EC2/DepthDuration/v2_depth_duration_MTurk/v2_DepthDuration_HTML.html#393,393,1366,625,1366,768,9-4-2022,10-18-44,33,depth_duration_stimuli/000191_2014-05-12_17-07-38_260595134347_rgbf000199-resize_0/000191_2014-05-12_17-07-38_260595134347_rgbf000199-resize_0-target.png,250,3.7995,4,5157,250,feet,jsons/v1_VE250_randls_6_rotated.json,1504919,1878520,64,Woman
33,892576,DepthScenes,duration_manipulation_targetAtFixation,jsons/v1_VE250_randls_6_rotated.json,http://54.235.29.9/FacialAge/BNav_EC2/DepthDuration/v2_depth_duration_MTurk/v2_DepthDuration_HTML.html#393,393,1366,625,1366,768,9-4-2022,10-18-44,34,depth_duration_stimuli/000493_2014-06-09_21-01-18_260595134347_rgbf000196-resize_3/000493_2014-06-09_21-01-18_260595134347_rgbf000196-resize_3-target.png,250,3.44,3,4724,260,feet,jsons/v1_VE250_randls_6_rotated.json,1504919,1878520,64,Woman
34,892576,DepthScenes,duration_manipulation_targetAtFixation,jsons/v1_VE250_randls_6_rotated.json,http://54.235.29.9/FacialAge/BNav_EC2/DepthDuration/v2_depth_duration_MTurk/v2_DepthDuration_HTML.html#393,393,1366,625,1366,768,9-4-2022,10-18-44,35,depth_duration_stimuli/001447_2014-06-19_17-00-32_260595134347_rgbf000082-resize_5/001447_2014-06-19_17-00-32_260595134347_rgbf000082-resize_5-target.png,250,4.13775,2,4926,244,feet,jsons/v1_VE250_randls_6_rotated.json,1504919,1878520,64,Woman
35,892576,DepthScenes,duration_manipulation_targetAtFixation,jsons/v1_VE250_randls_6_rotated.json,http://54.235.29.9/FacialAge/BNav_EC2/DepthDuration/v2_depth_duration_MTurk/v2_DepthDuration_HTML.html#393,393,1366,625,1366,768,9-4-2022,10-18-44,36,depth_duration_stimuli/000447_2014-06-08_16-15-46_260595134347_rgbf000130-resize_1/000447_2014-06-08_16-15-46_260595134347_rgbf000130-resize_1-target.png,250,4.479,1,5827,243,feet,jsons/v1_VE250_randls_6_rotated.json,1504919,1878520,64,Woman
36,892576,DepthScenes,duration_manipulation_targetAtFixation,jsons/v1_VE250_randls_6_rotated.json,http://54.235.29.9/FacialAge/BNav_EC2/DepthDuration/v2_depth_duration_MTurk/v2_DepthDuration_HTML.html#393,393,1366,625,1366,768,9-4-2022,10-18-44,37,depth_duration_stimuli/002953_2014-06-08_17-32-18_094959634447_rgbf000059-resize_5/002953_2014-06-08_17-32-18_094959634447_rgbf000059-resize_5-target.png,250,1.551,3,5991,242,feet,jsons/v1_VE250_randls_6_rotated.json,1504919,1878520,64,Woman
37,892576,DepthScenes,duration_manipulation_targetAtFixation,jsons/v1_VE250_randls_6_rotated.json,http://54.235.29.9/FacialAge/BNav_EC2/DepthDuration/v2_depth_duration_MTurk/v2_DepthDuration_HTML.html#393,393,1366,625,1366,768,9-4-2022,10-18-44,38,depth_duration_stimuli/000878_2014-06-08_22-52-45_260595134347_rgbf000045-resize_2/000878_2014-06-08_22-52-45_260595134347_rgbf000045-resize_2-target.png,250,2.092,4,3406,203,feet,jsons/v1_VE250_randls_6_rotated.json,1504919,1878520,64,Woman
38,892576,DepthScenes,duration_manipulation_targetAtFixation,jsons/v1_VE250_randls_6_rotated.json,http://54.235.29.9/FacialAge/BNav_EC2/DepthDuration/v2_depth_duration_MTurk/v2_DepthDuration_HTML.html#393,393,1366,625,1366,768,9-4-2022,10-18-44,39,depth_duration_stimuli/000866_2014-06-09_20-45-42_260595134347_rgbf000139-resize_1/000866_2014-06-09_20-45-42_260595134347_rgbf000139-resize_1-target.png,250,3.2155,5,3609,250,feet,jsons/v1_VE250_randls_6_rotated.json,1504919,1878520,64,Woman
39,892576,DepthScenes,duration_manipulation_targetAtFixation,jsons/v1_VE250_randls_6_rotated.json,http://54.235.29.9/FacialAge/BNav_EC2/DepthDuration/v2_depth_duration_MTurk/v2_DepthDuration_HTML.html#393,393,1366,625,1366,768,9-4-2022,10-18-44,40,depth_duration_stimuli/002989_2014-06-15_12-25-03_094959634447_rgbf000150-resize_3/002989_2014-06-15_12-25-03_094959634447_rgbf000150-resize_3-target.png,250,4.1975,3,9103,176,feet,jsons/v1_VE250_randls_6_rotated.json,1504919,1878520,64,Woman
40,892576,DepthScenes,duration_manipulation_targetAtFixation,jsons/v1_VE250_randls_6_rotated.json,http://54.235.29.9/FacialAge/BNav_EC2/DepthDuration/v2_depth_duration_MTurk/v2_DepthDuration_HTML.html#393,393,1366,625,1366,768,9-4-2022,10-18-44,41,depth_duration_stimuli/002545_2014-06-24_13-38-53_094959634447_rgbf000080-resize_4/002545_2014-06-24_13-38-53_094959634447_rgbf000080-resize_4-target.png,250,1.9205,1,4442,253,feet,jsons/v1_VE250_randls_6_rotated.json,1504919,1878520,64,Woman
41,892576,DepthScenes,duration_manipulation_targetAtFixation,jsons/v1_VE250_randls_6_rotated.json,http://54.235.29.9/FacialAge/BNav_EC2/DepthDuration/v2_depth_duration_MTurk/v2_DepthDuration_HTML.html#393,393,1366,625,1366,768,9-4-2022,10-18-44,42,depth_duration_stimuli/001092_2014-06-15_17-34-58_260595134347_rgbf000171-resize_3/001092_2014-06-15_17-34-58_260595134347_rgbf000171-resize_3-target.png,250,2.6935,5,6849,251,feet,jsons/v1_VE250_randls_6_rotated.json,1504919,1878520,64,Woman
42,892576,DepthScenes,duration_manipulation_targetAtFixation,jsons/v1_VE250_randls_6_rotated.json,http://54.235.29.9/FacialAge/BNav_EC2/DepthDuration/v2_depth_duration_MTurk/v2_DepthDuration_HTML.html#393,393,1366,625,1366,768,9-4-2022,10-18-44,43,depth_duration_stimuli/000749_2014-06-08_21-55-06_260595134347_rgbf000070-resize_2/000749_2014-06-08_21-55-06_260595134347_rgbf000070-resize_2-target.png,250,2.331,4,2955,247,feet,jsons/v1_VE250_randls_6_rotated.json,1504919,1878520,64,Woman
43,892576,DepthScenes,duration_manipulation_targetAtFixation,jsons/v1_VE250_randls_6_rotated.json,http://54.235.29.9/FacialAge/BNav_EC2/DepthDuration/v2_depth_duration_MTurk/v2_DepthDuration_HTML.html#393,393,1366,625,1366,768,9-4-2022,10-18-44,44,depth_duration_stimuli/002788_2014-06-22_19-36-03_094959634447_rgbf000088-resize_2/002788_2014-06-22_19-36-03_094959634447_rgbf000088-resize_2-target.png,250,1.6465,3,4675,262,feet,jsons/v1_VE250_randls_6_rotated.json,1504919,1878520,64,Woman
44,892576,DepthScenes,duration_manipulation_targetAtFixation,jsons/v1_VE250_randls_6_rotated.json,http://54.235.29.9/FacialAge/BNav_EC2/DepthDuration/v2_depth_duration_MTurk/v2_DepthDuration_HTML.html#393,393,1366,625,1366,768,9-4-2022,10-18-44,45,depth_duration_stimuli/000502_2014-06-08_23-02-32_260595134347_rgbf000063-resize_4/000502_2014-06-08_23-02-32_260595134347_rgbf000063-resize_4-target.png,250,2.431,3,4676,230,feet,jsons/v1_VE250_randls_6_rotated.json,1504919,1878520,64,Woman
45,892576,DepthScenes,duration_manipulation_targetAtFixation,jsons/v1_VE250_randls_6_rotated.json,http://54.235.29.9/FacialAge/BNav_EC2/DepthDuration/v2_depth_duration_MTurk/v2_DepthDuration_HTML.html#393,393,1366,625,1366,768,9-4-2022,10-18-44,46,depth_duration_stimuli/001199_2014-06-17_16-03-48_260595134347_rgbf000077-resize_0/001199_2014-06-17_16-03-48_260595134347_rgbf000077-resize_0-target.png,250,3.4375,2,4490,252,feet,jsons/v1_VE250_randls_6_rotated.json,1504919,1878520,64,Woman
46,892576,DepthScenes,duration_manipulation_targetAtFixation,jsons/v1_VE250_randls_6_rotated.json,http://54.235.29.9/FacialAge/BNav_EC2/DepthDuration/v2_depth_duration_MTurk/v2_DepthDuration_HTML.html#393,393,1366,625,1366,768,9-4-2022,10-18-44,47,depth_duration_stimuli/001094_2014-06-15_17-36-00_260595134347_rgbf000205-resize_0/001094_2014-06-15_17-36-00_260595134347_rgbf000205-resize_0-target.png,250,4.2175,1,6623,249,feet,jsons/v1_VE250_randls_6_rotated.json,1504919,1878520,64,Woman
47,892576,DepthScenes,duration_manipulation_targetAtFixation,jsons/v1_VE250_randls_6_rotated.json,http://54.235.29.9/FacialAge/BNav_EC2/DepthDuration/v2_depth_duration_MTurk/v2_DepthDuration_HTML.html#393,393,1366,625,1366,768,9-4-2022,10-18-44,48,depth_duration_stimuli/000692_2014-06-08_13-09-42_260595134347_rgbf000199-resize_2/000692_2014-06-08_13-09-42_260595134347_rgbf000199-resize_2-target.png,250,3.661,2,10898,246,feet,jsons/v1_VE250_randls_6_rotated.json,1504919,1878520,64,Woman
48,892576,DepthScenes,duration_manipulation_targetAtFixation,jsons/v1_VE250_randls_6_rotated.json,http://54.235.29.9/FacialAge/BNav_EC2/DepthDuration/v2_depth_duration_MTurk/v2_DepthDuration_HTML.html#393,393,1366,625,1366,768,9-4-2022,10-18-44,49,depth_duration_stimuli/001170_2014-06-17_15-43-44_260595134347_rgbf000096-resize_6/001170_2014-06-17_15-43-44_260595134347_rgbf000096-resize-original.jpg,250,1.1909999999999998,3,6022,254,feet,jsons/v1_VE250_randls_6_rotated.json,1504919,1878520,64,Woman
49,892576,DepthScenes,duration_manipulation_targetAtFixation,jsons/v1_VE250_randls_6_rotated.json,http://54.235.29.9/FacialAge/BNav_EC2/DepthDuration/v2_depth_duration_MTurk/v2_DepthDuration_HTML.html#393,393,1366,625,1366,768,9-4-2022,10-18-44,50,depth_duration_stimuli/000635_2014-06-08_16-38-42_260595134347_rgbf000106-resize_1/000635_2014-06-08_16-38-42_260595134347_rgbf000106-resize_1-target.png,250,2.074,4,3352,250,feet,jsons/v1_VE250_randls_6_rotated.json,1504919,1878520,64,Woman
50,892576,DepthScenes,duration_manipulation_targetAtFixation,jsons/v1_VE250_randls_6_rotated.json,http://54.235.29.9/FacialAge/BNav_EC2/DepthDuration/v2_depth_duration_MTurk/v2_DepthDuration_HTML.html#393,393,1366,625,1366,768,9-4-2022,10-18-44,51,depth_duration_stimuli/002279_2014-06-28_18-55-32_260595134347_rgbf000040-resize_5/002279_2014-06-28_18-55-32_260595134347_rgbf000040-resize_5-target.png,250,1.5043333333333,5,5365,255,feet,jsons/v1_VE250_randls_6_rotated.json,1504919,1878520,64,Woman
51,892576,DepthScenes,duration_manipulation_targetAtFixation,jsons/v1_VE250_randls_6_rotated.json,http://54.235.29.9/FacialAge/BNav_EC2/DepthDuration/v2_depth_duration_MTurk/v2_DepthDuration_HTML.html#393,393,1366,625,1366,768,9-4-2022,10-18-44,52,depth_duration_stimuli/000457_2014-06-08_16-52-43_260595134347_rgbf000199-resize_1/000457_2014-06-08_16-52-43_260595134347_rgbf000199-resize_1-target.png,250,3.6489999999999996,2,5537,244,feet,jsons/v1_VE250_randls_6_rotated.json,1504919,1878520,64,Woman
52,892576,DepthScenes,duration_manipulation_targetAtFixation,jsons/v1_VE250_randls_6_rotated.json,http://54.235.29.9/FacialAge/BNav_EC2/DepthDuration/v2_depth_duration_MTurk/v2_DepthDuration_HTML.html#393,393,1366,625,1366,768,9-4-2022,10-18-44,53,depth_duration_stimuli/000929_2014-06-09_16-33-19_260595134347_rgbf000139-resize_0/000929_2014-06-09_16-33-19_260595134347_rgbf000139-resize_0-target.png,250,2.8680000000000003,3,3905,245,feet,jsons/v1_VE250_randls_6_rotated.json,1504919,1878520,64,Woman
53,892576,DepthScenes,duration_manipulation_targetAtFixation,jsons/v1_VE250_randls_6_rotated.json,http://54.235.29.9/FacialAge/BNav_EC2/DepthDuration/v2_depth_duration_MTurk/v2_DepthDuration_HTML.html#393,393,1366,625,1366,768,9-4-2022,10-18-44,54,depth_duration_stimuli/002344_2014-06-28_20-06-29_260595134347_rgbf000030-resize_1/002344_2014-06-28_20-06-29_260595134347_rgbf000030-resize_1-target.png,250,1.5795,4,3352,251,feet,jsons/v1_VE250_randls_6_rotated.json,1504919,1878520,64,Woman
54,892576,DepthScenes,duration_manipulation_targetAtFixation,jsons/v1_VE250_randls_6_rotated.json,http://54.235.29.9/FacialAge/BNav_EC2/DepthDuration/v2_depth_duration_MTurk/v2_DepthDuration_HTML.html#393,393,1366,625,1366,768,9-4-2022,10-18-44,55,depth_duration_stimuli/002725_2014-06-22_11-47-51_094959634447_rgbf000070-resize_1/002725_2014-06-22_11-47-51_094959634447_rgbf000070-resize_1-target.png,250,2.195,5,4635,245,feet,jsons/v1_VE250_randls_6_rotated.json,1504919,1878520,64,Woman
55,892576,DepthScenes,duration_manipulation_targetAtFixation,jsons/v1_VE250_randls_6_rotated.json,http://54.235.29.9/FacialAge/BNav_EC2/DepthDuration/v2_depth_duration_MTurk/v2_DepthDuration_HTML.html#393,393,1366,625,1366,768,9-4-2022,10-18-44,56,depth_duration_stimuli/002639_2014-06-24_14-51-37_094959634447_rgbf000074-resize_4/002639_2014-06-24_14-51-37_094959634447_rgbf000074-resize_4-target.png,250,4.0375,2,5041,254,feet,jsons/v1_VE250_randls_6_rotated.json,1504919,1878520,64,Woman
56,892576,DepthScenes,duration_manipulation_targetAtFixation,jsons/v1_VE250_randls_6_rotated.json,http://54.235.29.9/FacialAge/BNav_EC2/DepthDuration/v2_depth_duration_MTurk/v2_DepthDuration_HTML.html#393,393,1366,625,1366,768,9-4-2022,10-18-44,57,depth_duration_stimuli/003292_2014-05-14_21-53-49_094959634447_rgbf000100-resize_2/003292_2014-05-14_21-53-49_094959634447_rgbf000100-resize_2-target.png,250,3.4815,4,3618,252,feet,jsons/v1_VE250_randls_6_rotated.json,1504919,1878520,64,Woman
57,892576,DepthScenes,duration_manipulation_targetAtFixation,jsons/v1_VE250_randls_6_rotated.json,http://54.235.29.9/FacialAge/BNav_EC2/DepthDuration/v2_depth_duration_MTurk/v2_DepthDuration_HTML.html#393,393,1366,625,1366,768,9-4-2022,10-18-44,58,depth_duration_stimuli/001136_2014-06-17_15-19-41_260595134347_rgbf000076-resize_3/001136_2014-06-17_15-19-41_260595134347_rgbf000076-resize_3-target.png,250,1.8655,5,5260,247,feet,jsons/v1_VE250_randls_6_rotated.json,1504919,1878520,64,Woman
58,892576,DepthScenes,duration_manipulation_targetAtFixation,jsons/v1_VE250_randls_6_rotated.json,http://54.235.29.9/FacialAge/BNav_EC2/DepthDuration/v2_depth_duration_MTurk/v2_DepthDuration_HTML.html#393,393,1366,625,1366,768,9-4-2022,10-18-44,59,depth_duration_stimuli/001164_2014-06-17_15-35-46_260595134347_rgbf000085-resize_3/001164_2014-06-17_15-35-46_260595134347_rgbf000085-resize_3-target.png,250,2.354,3,4927,241,feet,jsons/v1_VE250_randls_6_rotated.json,1504919,1878520,64,Woman
59,892576,DepthScenes,duration_manipulation_targetAtFixation,jsons/v1_VE250_randls_6_rotated.json,http://54.235.29.9/FacialAge/BNav_EC2/DepthDuration/v2_depth_duration_MTurk/v2_DepthDuration_HTML.html#393,393,1366,625,1366,768,9-4-2022,10-18-44,60,depth_duration_stimuli/000483_2014-06-09_20-41-45_260595134347_rgbf000116-resize_4/000483_2014-06-09_20-41-45_260595134347_rgbf000116-resize_4-target.png,250,1.337,2,4053,259,feet,jsons/v1_VE250_randls_6_rotated.json,1504919,1878520,64,Woman
60,892576,DepthScenes,duration_manipulation_targetAtFixation,jsons/v1_VE250_randls_6_rotated.json,http://54.235.29.9/FacialAge/BNav_EC2/DepthDuration/v2_depth_duration_MTurk/v2_DepthDuration_HTML.html#393,393,1366,625,1366,768,9-4-2022,10-18-44,61,depth_duration_stimuli/000469_2014-06-09_19-42-10_260595134347_rgbf000081-resize_1/000469_2014-06-09_19-42-10_260595134347_rgbf000081-resize_1-target.png,250,1.652,1,3919,210,feet,jsons/v1_VE250_randls_6_rotated.json,1504919,1878520,64,Woman
61,892576,DepthScenes,duration_manipulation_targetAtFixation,jsons/v1_VE250_randls_6_rotated.json,http://54.235.29.9/FacialAge/BNav_EC2/DepthDuration/v2_depth_duration_MTurk/v2_DepthDuration_HTML.html#393,393,1366,625,1366,768,9-4-2022,10-18-44,62,depth_duration_stimuli/000109_2014-05-14_23-41-52_260595134347_rgbf000035-resize_9/000109_2014-05-14_23-41-52_260595134347_rgbf000035-resize_9-target.png,250,1.3545,4,4121,239,feet,jsons/v1_VE250_randls_6_rotated.json,1504919,1878520,64,Woman
62,892576,DepthScenes,duration_manipulation_targetAtFixation,jsons/v1_VE250_randls_6_rotated.json,http://54.235.29.9/FacialAge/BNav_EC2/DepthDuration/v2_depth_duration_MTurk/v2_DepthDuration_HTML.html#393,393,1366,625,1366,768,9-4-2022,10-18-44,63,depth_duration_stimuli/000470_2014-06-09_19-42-40_260595134347_rgbf000094-resize_1/000470_2014-06-09_19-42-40_260595134347_rgbf000094-resize_1-target.png,250,1.831,5,4313,251,feet,jsons/v1_VE250_randls_6_rotated.json,1504919,1878520,64,Woman
63,892576,DepthScenes,duration_manipulation_targetAtFixation,jsons/v1_VE250_randls_6_rotated.json,http://54.235.29.9/FacialAge/BNav_EC2/DepthDuration/v2_depth_duration_MTurk/v2_DepthDuration_HTML.html#393,393,1366,625,1366,768,9-4-2022,10-18-44,64,depth_duration_stimuli/000549_2014-06-08_22-10-24_260595134347_rgbf000247-resize_3/000549_2014-06-08_22-10-24_260595134347_rgbf000247-resize_3-target.png,250,1.841,4,6012,250,feet,jsons/v1_VE250_randls_6_rotated.json,1504919,1878520,64,Woman
64,892576,DepthScenes,duration_manipulation_targetAtFixation,jsons/v1_VE250_randls_6_rotated.json,http://54.235.29.9/FacialAge/BNav_EC2/DepthDuration/v2_depth_duration_MTurk/v2_DepthDuration_HTML.html#393,393,1366,625,1366,768,9-4-2022,10-18-44,65,depth_duration_stimuli/001055_2014-06-08_18-45-35_260595134347_rgbf000111-resize_4/001055_2014-06-08_18-45-35_260595134347_rgbf000111-resize_4-target.png,250,2.4290000000000003,3,4819,249,feet,jsons/v1_VE250_randls_6_rotated.json,1504919,1878520,64,Woman
65,892576,DepthScenes,duration_manipulation_targetAtFixation,jsons/v1_VE250_randls_6_rotated.json,http://54.235.29.9/FacialAge/BNav_EC2/DepthDuration/v2_depth_duration_MTurk/v2_DepthDuration_HTML.html#393,393,1366,625,1366,768,9-4-2022,10-18-44,66,depth_duration_stimuli/001540_2014-06-20_17-01-05_260595134347_rgbf000086-resize_2/001540_2014-06-20_17-01-05_260595134347_rgbf000086-resize-original.jpg,250,1.459,2,3649,280,feet,jsons/v1_VE250_randls_6_rotated.json,1504919,1878520,64,Woman
66,892576,DepthScenes,duration_manipulation_targetAtFixation,jsons/v1_VE250_randls_6_rotated.json,http://54.235.29.9/FacialAge/BNav_EC2/DepthDuration/v2_depth_duration_MTurk/v2_DepthDuration_HTML.html#393,393,1366,625,1366,768,9-4-2022,10-18-44,67,depth_duration_stimuli/002660_2014-06-13_15-44-18_094959634447_rgbf001878-resize_2/002660_2014-06-13_15-44-18_094959634447_rgbf001878-resize_2-target.png,250,3.576,1,4866,261,feet,jsons/v1_VE250_randls_6_rotated.json,1504919,1878520,64,Woman
67,892576,DepthScenes,duration_manipulation_targetAtFixation,jsons/v1_VE250_randls_6_rotated.json,http://54.235.29.9/FacialAge/BNav_EC2/DepthDuration/v2_depth_duration_MTurk/v2_DepthDuration_HTML.html#393,393,1366,625,1366,768,9-4-2022,10-18-44,68,depth_duration_stimuli/002153_2014-06-25_21-27-18_260595134347_rgbf000038-resize_5/002153_2014-06-25_21-27-18_260595134347_rgbf000038-resize_5-target.png,250,2.505,3,31093,254,feet,jsons/v1_VE250_randls_6_rotated.json,1504919,1878520,64,Woman
68,892576,DepthScenes,duration_manipulation_targetAtFixation,jsons/v1_VE250_randls_6_rotated.json,http://54.235.29.9/FacialAge/BNav_EC2/DepthDuration/v2_depth_duration_MTurk/v2_DepthDuration_HTML.html#393,393,1366,625,1366,768,9-4-2022,10-18-44,69,depth_duration_stimuli/001617_2014-06-20_11-35-32_260595134347_rgbf000066-resize_1/001617_2014-06-20_11-35-32_260595134347_rgbf000066-resize_1-target.png,250,3.7910000000000004,4,6964,251,feet,jsons/v1_VE250_randls_6_rotated.json,1504919,1878520,64,Woman
69,892576,DepthScenes,duration_manipulation_targetAtFixation,jsons/v1_VE250_randls_6_rotated.json,http://54.235.29.9/FacialAge/BNav_EC2/DepthDuration/v2_depth_duration_MTurk/v2_DepthDuration_HTML.html#393,393,1366,625,1366,768,9-4-2022,10-18-44,70,depth_duration_stimuli/001806_2014-06-26_20-50-20_260595134347_rgbf000091-resize_1/001806_2014-06-26_20-50-20_260595134347_rgbf000091-resize_1-target.png,250,2.7305,5,4085,250,feet,jsons/v1_VE250_randls_6_rotated.json,1504919,1878520,64,Woman
70,892576,DepthScenes,duration_manipulation_targetAtFixation,jsons/v1_VE250_randls_6_rotated.json,http://54.235.29.9/FacialAge/BNav_EC2/DepthDuration/v2_depth_duration_MTurk/v2_DepthDuration_HTML.html#393,393,1366,625,1366,768,9-4-2022,10-18-44,71,depth_duration_stimuli/002467_2014-06-28_20-38-07_260595134347_rgbf000026-resize_2/002467_2014-06-28_20-38-07_260595134347_rgbf000026-resize_2-target.png,250,4.742,4,5326,262,feet,jsons/v1_VE250_randls_6_rotated.json,1504919,1878520,64,Woman
71,892576,DepthScenes,duration_manipulation_targetAtFixation,jsons/v1_VE250_randls_6_rotated.json,http://54.235.29.9/FacialAge/BNav_EC2/DepthDuration/v2_depth_duration_MTurk/v2_DepthDuration_HTML.html#393,393,1366,625,1366,768,9-4-2022,10-18-44,72,depth_duration_stimuli/002570_2014-06-24_13-59-54_094959634447_rgbf000059-resize_0/002570_2014-06-24_13-59-54_094959634447_rgbf000059-resize_0-target.png,250,4.037,1,4417,246,feet,jsons/v1_VE250_randls_6_rotated.json,1504919,1878520,64,Woman
72,892576,DepthScenes,duration_manipulation_targetAtFixation,jsons/v1_VE250_randls_6_rotated.json,http://54.235.29.9/FacialAge/BNav_EC2/DepthDuration/v2_depth_duration_MTurk/v2_DepthDuration_HTML.html#393,393,1366,625,1366,768,9-4-2022,10-18-44,73,depth_duration_stimuli/002805_2014-06-22_19-54-03_094959634447_rgbf000079-resize_1/002805_2014-06-22_19-54-03_094959634447_rgbf000079-resize_1-target.png,250,3.1439999999999997,2,4298,252,feet,jsons/v1_VE250_randls_6_rotated.json,1504919,1878520,64,Woman
73,892576,DepthScenes,duration_manipulation_targetAtFixation,jsons/v1_VE250_randls_6_rotated.json,http://54.235.29.9/FacialAge/BNav_EC2/DepthDuration/v2_depth_duration_MTurk/v2_DepthDuration_HTML.html#393,393,1366,625,1366,768,9-4-2022,10-18-44,74,depth_duration_stimuli/000906_2014-06-08_13-35-43_260595134347_rgbf000155-resize_1/000906_2014-06-08_13-35-43_260595134347_rgbf000155-resize_1-target.png,250,2.8489999999999998,4,4179,245,feet,jsons/v1_VE250_randls_6_rotated.json,1504919,1878520,64,Woman
74,892576,DepthScenes,duration_manipulation_targetAtFixation,jsons/v1_VE250_randls_6_rotated.json,http://54.235.29.9/FacialAge/BNav_EC2/DepthDuration/v2_depth_duration_MTurk/v2_DepthDuration_HTML.html#393,393,1366,625,1366,768,9-4-2022,10-18-44,75,depth_duration_stimuli/002414_2014-06-28_20-24-58_260595134347_rgbf000067-resize_4/002414_2014-06-28_20-24-58_260595134347_rgbf000067-resize_4-target.png,250,4.363,5,4034,248,feet,jsons/v1_VE250_randls_6_rotated.json,1504919,1878520,64,Woman
75,892576,DepthScenes,duration_manipulation_targetAtFixation,jsons/v1_VE250_randls_6_rotated.json,http://54.235.29.9/FacialAge/BNav_EC2/DepthDuration/v2_depth_duration_MTurk/v2_DepthDuration_HTML.html#393,393,1366,625,1366,768,9-4-2022,10-18-44,76,depth_duration_stimuli/000773_2014-06-08_22-24-54_260595134347_rgbf000093-resize_1/000773_2014-06-08_22-24-54_260595134347_rgbf000093-resize_1-target.png,250,4.973,2,7678,242,feet,jsons/v1_VE250_randls_6_rotated.json,1504919,1878520,64,Woman
76,892576,DepthScenes,duration_manipulation_targetAtFixation,jsons/v1_VE250_randls_6_rotated.json,http://54.235.29.9/FacialAge/BNav_EC2/DepthDuration/v2_depth_duration_MTurk/v2_DepthDuration_HTML.html#393,393,1366,625,1366,768,9-4-2022,10-18-44,77,depth_duration_stimuli/000709_2014-06-08_13-51-55_260595134347_rgbf000068-resize_3/000709_2014-06-08_13-51-55_260595134347_rgbf000068-resize_3-target.png,250,1.8030000000000002,3,6427,242,feet,jsons/v1_VE250_randls_6_rotated.json,1504919,1878520,64,Woman
77,892576,DepthScenes,duration_manipulation_targetAtFixation,jsons/v1_VE250_randls_6_rotated.json,http://54.235.29.9/FacialAge/BNav_EC2/DepthDuration/v2_depth_duration_MTurk/v2_DepthDuration_HTML.html#393,393,1366,625,1366,768,9-4-2022,10-18-44,78,depth_duration_stimuli/002057_2014-06-24_21-00-13_260595134347_rgbf000120-resize_1/002057_2014-06-24_21-00-13_260595134347_rgbf000120-resize_1-target.png,250,2.967,4,14173,238,feet,jsons/v1_VE250_randls_6_rotated.json,1504919,1878520,64,Woman
78,892576,DepthScenes,duration_manipulation_targetAtFixation,jsons/v1_VE250_randls_6_rotated.json,http://54.235.29.9/FacialAge/BNav_EC2/DepthDuration/v2_depth_duration_MTurk/v2_DepthDuration_HTML.html#393,393,1366,625,1366,768,9-4-2022,10-18-44,79,depth_duration_stimuli/002750_2014-06-22_19-08-03_094959634447_rgbf000094-resize_4/002750_2014-06-22_19-08-03_094959634447_rgbf000094-resize_4-target.png,250,2.354,5,5070,248,feet,jsons/v1_VE250_randls_6_rotated.json,1504919,1878520,64,Woman
79,892576,DepthScenes,duration_manipulation_targetAtFixation,jsons/v1_VE250_randls_6_rotated.json,http://54.235.29.9/FacialAge/BNav_EC2/DepthDuration/v2_depth_duration_MTurk/v2_DepthDuration_HTML.html#393,393,1366,625,1366,768,9-4-2022,10-18-44,80,depth_duration_stimuli/002549_2014-06-24_13-41-39_094959634447_rgbf000022-resize_3/002549_2014-06-24_13-41-39_094959634447_rgbf000022-resize_3-target.png,250,1.476,1,3589,249,feet,jsons/v1_VE250_randls_6_rotated.json,1504919,1878520,64,Woman
80,892576,DepthScenes,duration_manipulation_targetAtFixation,jsons/v1_VE250_randls_6_rotated.json,http://54.235.29.9/FacialAge/BNav_EC2/DepthDuration/v2_depth_duration_MTurk/v2_DepthDuration_HTML.html#393,393,1366,625,1366,768,9-4-2022,10-18-44,81,depth_duration_stimuli/003338_2014-05-20_11-01-23_094959634447_rgbf000051-resize_6/003338_2014-05-20_11-01-23_094959634447_rgbf000051-resize_6-target.png,250,1.693,2,5919,241,feet,jsons/v1_VE250_randls_6_rotated.json,1504919,1878520,64,Woman
81,892576,DepthScenes,duration_manipulation_targetAtFixation,jsons/v1_VE250_randls_6_rotated.json,http://54.235.29.9/FacialAge/BNav_EC2/DepthDuration/v2_depth_duration_MTurk/v2_DepthDuration_HTML.html#393,393,1366,625,1366,768,9-4-2022,10-18-44,82,depth_duration_stimuli/002509_2014-06-24_13-19-22_094959634447_rgbf000077-resize_0/002509_2014-06-24_13-19-22_094959634447_rgbf000077-resize_0-target.png,250,1.3065,3,5965,249,feet,jsons/v1_VE250_randls_6_rotated.json,1504919,1878520,64,Woman
82,892576,DepthScenes,duration_manipulation_targetAtFixation,jsons/v1_VE250_randls_6_rotated.json,http://54.235.29.9/FacialAge/BNav_EC2/DepthDuration/v2_depth_duration_MTurk/v2_DepthDuration_HTML.html#393,393,1366,625,1366,768,9-4-2022,10-18-44,83,depth_duration_stimuli/002657_2014-06-13_15-29-54_094959634447_rgbf000150-resize_1/002657_2014-06-13_15-29-54_094959634447_rgbf000150-resize_1-target.png,250,4.919,4,4848,243,feet,jsons/v1_VE250_randls_6_rotated.json,1504919,1878520,64,Woman
83,892576,DepthScenes,duration_manipulation_targetAtFixation,jsons/v1_VE250_randls_6_rotated.json,http://54.235.29.9/FacialAge/BNav_EC2/DepthDuration/v2_depth_duration_MTurk/v2_DepthDuration_HTML.html#393,393,1366,625,1366,768,9-4-2022,10-18-44,84,depth_duration_stimuli/002375_2014-06-28_20-13-44_260595134347_rgbf000032-resize_1/002375_2014-06-28_20-13-44_260595134347_rgbf000032-resize_1-target.png,250,4.0175,5,4748,233,feet,jsons/v1_VE250_randls_6_rotated.json,1504919,1878520,64,Woman
84,892576,DepthScenes,duration_manipulation_targetAtFixation,jsons/v1_VE250_randls_6_rotated.json,http://54.235.29.9/FacialAge/BNav_EC2/DepthDuration/v2_depth_duration_MTurk/v2_DepthDuration_HTML.html#393,393,1366,625,1366,768,9-4-2022,10-18-44,85,depth_duration_stimuli/001584_2014-06-20_11-07-43_260595134347_rgbf000002-resize_1/001584_2014-06-20_11-07-43_260595134347_rgbf000002-resize_1-target.png,250,3.53,1,8857,238,feet,jsons/v1_VE250_randls_6_rotated.json,1504919,1878520,64,Woman
85,892576,DepthScenes,duration_manipulation_targetAtFixation,jsons/v1_VE250_randls_6_rotated.json,http://54.235.29.9/FacialAge/BNav_EC2/DepthDuration/v2_depth_duration_MTurk/v2_DepthDuration_HTML.html#393,393,1366,625,1366,768,9-4-2022,10-18-44,86,depth_duration_stimuli/003621_2014-05-23_18-06-08_094959634447_rgbf000101-resize_1/003621_2014-05-23_18-06-08_094959634447_rgbf000101-resize_1-target.png,250,3.9835,2,5800,242,feet,jsons/v1_VE250_randls_6_rotated.json,1504919,1878520,64,Woman
86,892576,DepthScenes,duration_manipulation_targetAtFixation,jsons/v1_VE250_randls_6_rotated.json,http://54.235.29.9/FacialAge/BNav_EC2/DepthDuration/v2_depth_duration_MTurk/v2_DepthDuration_HTML.html#393,393,1366,625,1366,768,9-4-2022,10-18-44,87,depth_duration_stimuli/003081_2014-06-15_15-19-16_094959634447_rgbf000150-resize_1/003081_2014-06-15_15-19-16_094959634447_rgbf000150-resize_1-target.png,250,3.9125,3,20183,261,feet,jsons/v1_VE250_randls_6_rotated.json,1504919,1878520,64,Woman
87,892576,DepthScenes,duration_manipulation_targetAtFixation,jsons/v1_VE250_randls_6_rotated.json,http://54.235.29.9/FacialAge/BNav_EC2/DepthDuration/v2_depth_duration_MTurk/v2_DepthDuration_HTML.html#393,393,1366,625,1366,768,9-4-2022,10-18-44,88,depth_duration_stimuli/001417_2014-06-19_16-25-36_260595134347_rgbf000115-resize_5/001417_2014-06-19_16-25-36_260595134347_rgbf000115-resize_5-target.png,250,4.6255,4,9676,245,feet,jsons/v1_VE250_randls_6_rotated.json,1504919,1878520,64,Woman
88,892576,DepthScenes,duration_manipulation_targetAtFixation,jsons/v1_VE250_randls_6_rotated.json,http://54.235.29.9/FacialAge/BNav_EC2/DepthDuration/v2_depth_duration_MTurk/v2_DepthDuration_HTML.html#393,393,1366,625,1366,768,9-4-2022,10-18-44,89,depth_duration_stimuli/003079_2014-06-15_15-18-20_094959634447_rgbf000152-resize_8/003079_2014-06-15_15-18-20_094959634447_rgbf000152-resize_8-target.png,250,2.8775,5,9678,252,feet,jsons/v1_VE250_randls_6_rotated.json,1504919,1878520,64,Woman
89,892576,DepthScenes,duration_manipulation_targetAtFixation,jsons/v1_VE250_randls_6_rotated.json,http://54.235.29.9/FacialAge/BNav_EC2/DepthDuration/v2_depth_duration_MTurk/v2_DepthDuration_HTML.html#393,393,1366,625,1366,768,9-4-2022,10-18-44,90,depth_duration_stimuli/000506_2014-06-08_23-21-00_260595134347_rgbf000070-resize_7/000506_2014-06-08_23-21-00_260595134347_rgbf000070-resize_7-target.png,250,4.0585,4,15396,233,feet,jsons/v1_VE250_randls_6_rotated.json,1504919,1878520,64,Woman
90,892576,DepthScenes,duration_manipulation_targetAtFixation,jsons/v1_VE250_randls_6_rotated.json,http://54.235.29.9/FacialAge/BNav_EC2/DepthDuration/v2_depth_duration_MTurk/v2_DepthDuration_HTML.html#393,393,1366,625,1366,768,9-4-2022,10-18-44,91,depth_duration_stimuli/000677_2014-06-08_23-10-32_260595134347_rgbf000158-resize_6/000677_2014-06-08_23-10-32_260595134347_rgbf000158-resize_6-target.png,250,3.556,3,4082,218,feet,jsons/v1_VE250_randls_6_rotated.json,1504919,1878520,64,Woman
91,892576,DepthScenes,duration_manipulation_targetAtFixation,jsons/v1_VE250_randls_6_rotated.json,http://54.235.29.9/FacialAge/BNav_EC2/DepthDuration/v2_depth_duration_MTurk/v2_DepthDuration_HTML.html#393,393,1366,625,1366,768,9-4-2022,10-18-44,92,depth_duration_stimuli/001029_2014-06-08_13-17-57_260595134347_rgbf000065-resize_1/001029_2014-06-08_13-17-57_260595134347_rgbf000065-resize_1-target.png,250,3.0835,2,13255,239,feet,jsons/v1_VE250_randls_6_rotated.json,1504919,1878520,64,Woman
92,892576,DepthScenes,duration_manipulation_targetAtFixation,jsons/v1_VE250_randls_6_rotated.json,http://54.235.29.9/FacialAge/BNav_EC2/DepthDuration/v2_depth_duration_MTurk/v2_DepthDuration_HTML.html#393,393,1366,625,1366,768,9-4-2022,10-18-44,93,depth_duration_stimuli/001214_2014-06-17_16-13-55_260595134347_rgbf000111-resize_0/001214_2014-06-17_16-13-55_260595134347_rgbf000111-resize_0-target.png,250,2.6505,3,228665,48,feet,jsons/v1_VE250_randls_6_rotated.json,1504919,1878520,64,Woman
93,892576,DepthScenes,duration_manipulation_targetAtFixation,jsons/v1_VE250_randls_6_rotated.json,http://54.235.29.9/FacialAge/BNav_EC2/DepthDuration/v2_depth_duration_MTurk/v2_DepthDuration_HTML.html#393,393,1366,625,1366,768,9-4-2022,10-18-44,94,depth_duration_stimuli/000810_2014-06-08_17-20-01_260595134347_rgbf000105-resize_0/000810_2014-06-08_17-20-01_260595134347_rgbf000105-resize_0-target.png,250,1.4865,1,4720,248,feet,jsons/v1_VE250_randls_6_rotated.json,1504919,1878520,64,Woman
94,892576,DepthScenes,duration_manipulation_targetAtFixation,jsons/v1_VE250_randls_6_rotated.json,http://54.235.29.9/FacialAge/BNav_EC2/DepthDuration/v2_depth_duration_MTurk/v2_DepthDuration_HTML.html#393,393,1366,625,1366,768,9-4-2022,10-18-44,95,depth_duration_stimuli/003048_2014-06-15_13-49-43_094959634447_rgbf000150-resize_1/003048_2014-06-15_13-49-43_094959634447_rgbf000150-resize_1-target.png,250,4.0035,2,5092,236,feet,jsons/v1_VE250_randls_6_rotated.json,1504919,1878520,64,Woman
95,892576,DepthScenes,duration_manipulation_targetAtFixation,jsons/v1_VE250_randls_6_rotated.json,http://54.235.29.9/FacialAge/BNav_EC2/DepthDuration/v2_depth_duration_MTurk/v2_DepthDuration_HTML.html#393,393,1366,625,1366,768,9-4-2022,10-18-44,96,depth_duration_stimuli/002043_2014-06-24_20-29-38_260595134347_rgbf000039-resize_4/002043_2014-06-24_20-29-38_260595134347_rgbf000039-resize_4-target.png,250,2.8435,4,5244,247,feet,jsons/v1_VE250_randls_6_rotated.json,1504919,1878520,64,Woman
96,892576,DepthScenes,duration_manipulation_targetAtFixation,jsons/v1_VE250_randls_6_rotated.json,http://54.235.29.9/FacialAge/BNav_EC2/DepthDuration/v2_depth_duration_MTurk/v2_DepthDuration_HTML.html#393,393,1366,625,1366,768,9-4-2022,10-18-44,97,depth_duration_stimuli/002678_2014-06-13_16-15-32_094959634447_rgbf000151-resize_6/002678_2014-06-13_16-15-32_094959634447_rgbf000151-resize_6-target.png,250,2.1830000000000003,5,4892,258,feet,jsons/v1_VE250_randls_6_rotated.json,1504919,1878520,64,Woman
97,892576,DepthScenes,duration_manipulation_targetAtFixation,jsons/v1_VE250_randls_6_rotated.json,http://54.235.29.9/FacialAge/BNav_EC2/DepthDuration/v2_depth_duration_MTurk/v2_DepthDuration_HTML.html#393,393,1366,625,1366,768,9-4-2022,10-18-44,98,depth_duration_stimuli/000368_2014-06-09_15-53-01_260595134347_rgbf000155-resize_2/000368_2014-06-09_15-53-01_260595134347_rgbf000155-resize_2-target.png,250,2.4859999999999998,3,6805,252,feet,jsons/v1_VE250_randls_6_rotated.json,1504919,1878520,64,Woman
98,892576,DepthScenes,duration_manipulation_targetAtFixation,jsons/v1_VE250_randls_6_rotated.json,http://54.235.29.9/FacialAge/BNav_EC2/DepthDuration/v2_depth_duration_MTurk/v2_DepthDuration_HTML.html#393,393,1366,625,1366,768,9-4-2022,10-18-44,99,depth_duration_stimuli/001222_2014-06-17_16-24-06_260595134347_rgbf000073-resize_0/001222_2014-06-17_16-24-06_260595134347_rgbf000073-resize-original.jpg,250,1.4385,3,11909,246,feet,jsons/v1_VE250_randls_6_rotated.json,1504919,1878520,64,Woman
99,892576,DepthScenes,duration_manipulation_targetAtFixation,jsons/v1_VE250_randls_6_rotated.json,http://54.235.29.9/FacialAge/BNav_EC2/DepthDuration/v2_depth_duration_MTurk/v2_DepthDuration_HTML.html#393,393,1366,625,1366,768,9-4-2022,10-18-44,100,depth_duration_stimuli/003129_2014-05-12_10-48-10_094959634447_rgbf000100-resize_0/003129_2014-05-12_10-48-10_094959634447_rgbf000100-resize_0-target.png,250,4.9305,2,5163,257,feet,jsons/v1_VE250_randls_6_rotated.json,1504919,1878520,64,Woman
100,892576,DepthScenes,duration_manipulation_targetAtFixation,jsons/v1_VE250_randls_6_rotated.json,http://54.235.29.9/FacialAge/BNav_EC2/DepthDuration/v2_depth_duration_MTurk/v2_DepthDuration_HTML.html#393,393,1366,625,1366,768,9-4-2022,10-18-44,101,depth_duration_stimuli/000414_2014-06-04_19-49-13_260595134347_rgbf000044-resize_0/000414_2014-06-04_19-49-13_260595134347_rgbf000044-resize_0-target.png,250,4.329,1,3915,249,feet,jsons/v1_VE250_randls_6_rotated.json,1504919,1878520,64,Woman
101,892576,DepthScenes,duration_manipulation_targetAtFixation,jsons/v1_VE250_randls_6_rotated.json,http://54.235.29.9/FacialAge/BNav_EC2/DepthDuration/v2_depth_duration_MTurk/v2_DepthDuration_HTML.html#393,393,1366,625,1366,768,9-4-2022,10-18-44,102,depth_duration_stimuli/000665_2014-06-09_20-42-35_260595134347_rgbf000110-resize_1/000665_2014-06-09_20-42-35_260595134347_rgbf000110-resize_1-target.png,250,3.057,5,3860,250,feet,jsons/v1_VE250_randls_6_rotated.json,1504919,1878520,64,Woman
102,892576,DepthScenes,duration_manipulation_targetAtFixation,jsons/v1_VE250_randls_6_rotated.json,http://54.235.29.9/FacialAge/BNav_EC2/DepthDuration/v2_depth_duration_MTurk/v2_DepthDuration_HTML.html#393,393,1366,625,1366,768,9-4-2022,10-18-44,103,depth_duration_stimuli/001150_2014-06-17_15-27-34_260595134347_rgbf000108-resize_2/001150_2014-06-17_15-27-34_260595134347_rgbf000108-resize_2-target.png,250,4.0325,4,3834,237,feet,jsons/v1_VE250_randls_6_rotated.json,1504919,1878520,64,Woman
103,892576,DepthScenes,duration_manipulation_targetAtFixation,jsons/v1_VE250_randls_6_rotated.json,http://54.235.29.9/FacialAge/BNav_EC2/DepthDuration/v2_depth_duration_MTurk/v2_DepthDuration_HTML.html#393,393,1366,625,1366,768,9-4-2022,10-18-44,104,depth_duration_stimuli/000943_2014-06-09_19-31-07_260595134347_rgbf000128-resize_1/000943_2014-06-09_19-31-07_260595134347_rgbf000128-resize_1-target.png,250,1.9765,3,4091,251,feet,jsons/v1_VE250_randls_6_rotated.json,1504919,1878520,64,Woman
104,892576,DepthScenes,duration_manipulation_targetAtFixation,jsons/v1_VE250_randls_6_rotated.json,http://54.235.29.9/FacialAge/BNav_EC2/DepthDuration/v2_depth_duration_MTurk/v2_DepthDuration_HTML.html#393,393,1366,625,1366,768,9-4-2022,10-18-44,105,depth_duration_stimuli/003070_2014-06-15_14-58-27_094959634447_rgbf000150-resize_3/003070_2014-06-15_14-58-27_094959634447_rgbf000150-resize_3-target.png,250,2.9415,2,8154,247,feet,jsons/v1_VE250_randls_6_rotated.json,1504919,1878520,64,Woman
105,892576,DepthScenes,duration_manipulation_targetAtFixation,jsons/v1_VE250_randls_6_rotated.json,http://54.235.29.9/FacialAge/BNav_EC2/DepthDuration/v2_depth_duration_MTurk/v2_DepthDuration_HTML.html#393,393,1366,625,1366,768,9-4-2022,10-18-44,106,depth_duration_stimuli/002103_2014-06-25_20-00-40_260595134347_rgbf000049-resize_0/002103_2014-06-25_20-00-40_260595134347_rgbf000049-resize_0-target.png,250,4.105,1,5754,252,feet,jsons/v1_VE250_randls_6_rotated.json,1504919,1878520,64,Woman
106,892576,DepthScenes,duration_manipulation_targetAtFixation,jsons/v1_VE250_randls_6_rotated.json,http://54.235.29.9/FacialAge/BNav_EC2/DepthDuration/v2_depth_duration_MTurk/v2_DepthDuration_HTML.html#393,393,1366,625,1366,768,9-4-2022,10-18-44,107,depth_duration_stimuli/002039_2014-06-24_20-22-38_260595134347_rgbf000084-resize_1/002039_2014-06-24_20-22-38_260595134347_rgbf000084-resize_1-target.png,250,4.408,3,6210,244,feet,jsons/v1_VE250_randls_6_rotated.json,1504919,1878520,64,Woman
107,892576,DepthScenes,duration_manipulation_targetAtFixation,jsons/v1_VE250_randls_6_rotated.json,http://54.235.29.9/FacialAge/BNav_EC2/DepthDuration/v2_depth_duration_MTurk/v2_DepthDuration_HTML.html#393,393,1366,625,1366,768,9-4-2022,10-18-44,108,depth_duration_stimuli/003495_2014-05-21_16-01-51_094959634447_rgbf000100-resize_3/003495_2014-05-21_16-01-51_094959634447_rgbf000100-resize_3-target.png,250,1.6255,5,5424,246,feet,jsons/v1_VE250_randls_6_rotated.json,1504919,1878520,64,Woman
108,892576,DepthScenes,duration_manipulation_targetAtFixation,jsons/v1_VE250_randls_6_rotated.json,http://54.235.29.9/FacialAge/BNav_EC2/DepthDuration/v2_depth_duration_MTurk/v2_DepthDuration_HTML.html#393,393,1366,625,1366,768,9-4-2022,10-18-44,109,depth_duration_stimuli/001244_2014-06-17_16-47-45_260595134347_rgbf000030-resize_4/001244_2014-06-17_16-47-45_260595134347_rgbf000030-resize_4-target.png,250,2.0425,3,10556,251,feet,jsons/v1_VE250_randls_6_rotated.json,1504919,1878520,64,Woman
109,892576,DepthScenes,duration_manipulation_targetAtFixation,jsons/v1_VE250_randls_6_rotated.json,http://54.235.29.9/FacialAge/BNav_EC2/DepthDuration/v2_depth_duration_MTurk/v2_DepthDuration_HTML.html#393,393,1366,625,1366,768,9-4-2022,10-18-44,110,depth_duration_stimuli/000137_2014-05-20_17-04-49_260595134347_rgbf000120-resize_1/000137_2014-05-20_17-04-49_260595134347_rgbf000120-resize_1-target.png,250,3.786,4,4398,249,feet,jsons/v1_VE250_randls_6_rotated.json,1504919,1878520,64,Woman
110,892576,DepthScenes,duration_manipulation_targetAtFixation,jsons/v1_VE250_randls_6_rotated.json,http://54.235.29.9/FacialAge/BNav_EC2/DepthDuration/v2_depth_duration_MTurk/v2_DepthDuration_HTML.html#393,393,1366,625,1366,768,9-4-2022,10-18-44,111,depth_duration_stimuli/000736_2014-06-08_18-24-15_260595134347_rgbf000206-resize_3/000736_2014-06-08_18-24-15_260595134347_rgbf000206-resize_3-target.png,250,3.515,5,5098,261,feet,jsons/v1_VE250_randls_6_rotated.json,1504919,1878520,64,Woman
111,892576,DepthScenes,duration_manipulation_targetAtFixation,jsons/v1_VE250_randls_6_rotated.json,http://54.235.29.9/FacialAge/BNav_EC2/DepthDuration/v2_depth_duration_MTurk/v2_DepthDuration_HTML.html#393,393,1366,625,1366,768,9-4-2022,10-18-44,112,depth_duration_stimuli/000734_2014-06-08_17-39-11_260595134347_rgbf000128-resize_2/000734_2014-06-08_17-39-11_260595134347_rgbf000128-resize_2-target.png,250,4.098,3,4710,248,feet,jsons/v1_VE250_randls_6_rotated.json,1504919,1878520,64,Woman
112,892576,DepthScenes,duration_manipulation_targetAtFixation,jsons/v1_VE250_randls_6_rotated.json,http://54.235.29.9/FacialAge/BNav_EC2/DepthDuration/v2_depth_duration_MTurk/v2_DepthDuration_HTML.html#393,393,1366,625,1366,768,9-4-2022,10-18-44,113,depth_duration_stimuli/000739_2014-06-08_18-45-58_260595134347_rgbf000068-resize_1/000739_2014-06-08_18-45-58_260595134347_rgbf000068-resize_1-target.png,250,3.534,1,5536,237,feet,jsons/v1_VE250_randls_6_rotated.json,1504919,1878520,64,Woman
113,892576,DepthScenes,duration_manipulation_targetAtFixation,jsons/v1_VE250_randls_6_rotated.json,http://54.235.29.9/FacialAge/BNav_EC2/DepthDuration/v2_depth_duration_MTurk/v2_DepthDuration_HTML.html#393,393,1366,625,1366,768,9-4-2022,10-18-44,114,depth_duration_stimuli/001235_2014-06-17_16-37-36_260595134347_rgbf000084-resize_4/001235_2014-06-17_16-37-36_260595134347_rgbf000084-resize_4-target.png,250,3.6605,2,4024,252,feet,jsons/v1_VE250_randls_6_rotated.json,1504919,1878520,64,Woman
114,892576,DepthScenes,duration_manipulation_targetAtFixation,jsons/v1_VE250_randls_6_rotated.json,http://54.235.29.9/FacialAge/BNav_EC2/DepthDuration/v2_depth_duration_MTurk/v2_DepthDuration_HTML.html#393,393,1366,625,1366,768,9-4-2022,10-18-44,115,depth_duration_stimuli/000788_2014-06-08_22-34-36_260595134347_rgbf000131-resize_1/000788_2014-06-08_22-34-36_260595134347_rgbf000131-resize_1-target.png,250,3.359,5,8991,265,feet,jsons/v1_VE250_randls_6_rotated.json,1504919,1878520,64,Woman
115,892576,DepthScenes,duration_manipulation_targetAtFixation,jsons/v1_VE250_randls_6_rotated.json,http://54.235.29.9/FacialAge/BNav_EC2/DepthDuration/v2_depth_duration_MTurk/v2_DepthDuration_HTML.html#393,393,1366,625,1366,768,9-4-2022,10-18-44,116,depth_duration_stimuli/001392_2014-06-19_16-07-59_260595134347_rgbf000046-resize_1/001392_2014-06-19_16-07-59_260595134347_rgbf000046-resize_1-target.png,250,4.135,3,7803,247,feet,jsons/v1_VE250_randls_6_rotated.json,1504919,1878520,64,Woman
116,892576,DepthScenes,duration_manipulation_targetAtFixation,jsons/v1_VE250_randls_6_rotated.json,http://54.235.29.9/FacialAge/BNav_EC2/DepthDuration/v2_depth_duration_MTurk/v2_DepthDuration_HTML.html#393,393,1366,625,1366,768,9-4-2022,10-18-44,117,depth_duration_stimuli/001570_2014-06-20_17-21-09_260595134347_rgbf000135-resize_4/001570_2014-06-20_17-21-09_260595134347_rgbf000135-resize_4-target.png,250,4.467,3,5993,258,feet,jsons/v1_VE250_randls_6_rotated.json,1504919,1878520,64,Woman
117,892576,DepthScenes,duration_manipulation_targetAtFixation,jsons/v1_VE250_randls_6_rotated.json,http://54.235.29.9/FacialAge/BNav_EC2/DepthDuration/v2_depth_duration_MTurk/v2_DepthDuration_HTML.html#393,393,1366,625,1366,768,9-4-2022,10-18-44,118,depth_duration_stimuli/002323_2014-06-28_20-01-54_260595134347_rgbf000051-resize_4/002323_2014-06-28_20-01-54_260595134347_rgbf000051-resize_4-target.png,250,3.7310000000000003,1,6590,249,feet,jsons/v1_VE250_randls_6_rotated.json,1504919,1878520,64,Woman
118,892576,DepthScenes,duration_manipulation_targetAtFixation,jsons/v1_VE250_randls_6_rotated.json,http://54.235.29.9/FacialAge/BNav_EC2/DepthDuration/v2_depth_duration_MTurk/v2_DepthDuration_HTML.html#393,393,1366,625,1366,768,9-4-2022,10-18-44,119,depth_duration_stimuli/000917_2014-06-09_22-45-29_260595134347_rgbf000149-resize_3/000917_2014-06-09_22-45-29_260595134347_rgbf000149-resize_3-target.png,250,4.1865,2,5185,247,feet,jsons/v1_VE250_randls_6_rotated.json,1504919,1878520,64,Woman
119,892576,DepthScenes,duration_manipulation_targetAtFixation,jsons/v1_VE250_randls_6_rotated.json,http://54.235.29.9/FacialAge/BNav_EC2/DepthDuration/v2_depth_duration_MTurk/v2_DepthDuration_HTML.html#393,393,1366,625,1366,768,9-4-2022,10-18-44,120,depth_duration_stimuli/000787_2014-06-08_22-33-53_260595134347_rgbf000175-resize_1/000787_2014-06-08_22-33-53_260595134347_rgbf000175-resize-original.jpg,250,4.784,4,10848,271,feet,jsons/v1_VE250_randls_6_rotated.json,1504919,1878520,64,Woman
120,892576,DepthScenes,duration_manipulation_targetAtFixation,jsons/v1_VE250_randls_6_rotated.json,http://54.235.29.9/FacialAge/BNav_EC2/DepthDuration/v2_depth_duration_MTurk/v2_DepthDuration_HTML.html#393,393,1366,625,1366,768,9-4-2022,10-18-44,121,depth_duration_stimuli/001828_2014-06-26_21-40-03_260595134347_rgbf000024-resize_0/001828_2014-06-26_21-40-03_260595134347_rgbf000024-resize_0-target.png,250,4.8260000000000005,5,4347,246,feet,jsons/v1_VE250_randls_6_rotated.json,1504919,1878520,64,Woman
121,892576,DepthScenes,duration_manipulation_targetAtFixation,jsons/v1_VE250_randls_6_rotated.json,http://54.235.29.9/FacialAge/BNav_EC2/DepthDuration/v2_depth_duration_MTurk/v2_DepthDuration_HTML.html#393,393,1366,625,1366,768,9-4-2022,10-18-44,122,depth_duration_stimuli/000009_2014-05-26_14-32-05_260595134347_rgbf000034-resize_3/000009_2014-05-26_14-32-05_260595134347_rgbf000034-resize_3-target.png,250,3.8715,3,7144,126,feet,jsons/v1_VE250_randls_6_rotated.json,1504919,1878520,64,Woman
122,892576,DepthScenes,duration_manipulation_targetAtFixation,jsons/v1_VE250_randls_6_rotated.json,http://54.235.29.9/FacialAge/BNav_EC2/DepthDuration/v2_depth_duration_MTurk/v2_DepthDuration_HTML.html#393,393,1366,625,1366,768,9-4-2022,10-18-44,123,depth_duration_stimuli/002209_2014-06-28_18-36-10_260595134347_rgbf000051-resize_1/002209_2014-06-28_18-36-10_260595134347_rgbf000051-resize_1-target.png,250,2.057,5,5578,250,feet,jsons/v1_VE250_randls_6_rotated.json,1504919,1878520,64,Woman
123,892576,DepthScenes,duration_manipulation_targetAtFixation,jsons/v1_VE250_randls_6_rotated.json,http://54.235.29.9/FacialAge/BNav_EC2/DepthDuration/v2_depth_duration_MTurk/v2_DepthDuration_HTML.html#393,393,1366,625,1366,768,9-4-2022,10-18-44,124,depth_duration_stimuli/002763_2014-06-22_19-13-10_094959634447_rgbf000075-resize_4/002763_2014-06-22_19-13-10_094959634447_rgbf000075-resize_4-target.png,250,1.68375,3,4253,260,feet,jsons/v1_VE250_randls_6_rotated.json,1504919,1878520,64,Woman
124,892576,DepthScenes,duration_manipulation_targetAtFixation,jsons/v1_VE250_randls_6_rotated.json,http://54.235.29.9/FacialAge/BNav_EC2/DepthDuration/v2_depth_duration_MTurk/v2_DepthDuration_HTML.html#393,393,1366,625,1366,768,9-4-2022,10-18-44,125,depth_duration_stimuli/000780_2014-06-08_22-28-29_260595134347_rgbf000126-resize_1/000780_2014-06-08_22-28-29_260595134347_rgbf000126-resize_1-target.png,250,3.3825,1,5860,247,feet,jsons/v1_VE250_randls_6_rotated.json,1504919,1878520,64,Woman
125,892576,DepthScenes,duration_manipulation_targetAtFixation,jsons/v1_VE250_randls_6_rotated.json,http://54.235.29.9/FacialAge/BNav_EC2/DepthDuration/v2_depth_duration_MTurk/v2_DepthDuration_HTML.html#393,393,1366,625,1366,768,9-4-2022,10-18-44,126,depth_duration_stimuli/002445_2014-06-28_20-32-16_260595134347_rgbf000029-resize_4/002445_2014-06-28_20-32-16_260595134347_rgbf000029-resize_4-target.png,250,2.5315,5,3959,246,feet,jsons/v1_VE250_randls_6_rotated.json,1504919,1878520,64,Woman
126,892576,DepthScenes,duration_manipulation_targetAtFixation,jsons/v1_VE250_randls_6_rotated.json,http://54.235.29.9/FacialAge/BNav_EC2/DepthDuration/v2_depth_duration_MTurk/v2_DepthDuration_HTML.html#393,393,1366,625,1366,768,9-4-2022,10-18-44,127,depth_duration_stimuli/003010_2014-06-15_12-54-35_094959634447_rgbf000112-resize_0/003010_2014-06-15_12-54-35_094959634447_rgbf000112-resize_0-target.png,250,3.1185,4,5750,249,feet,jsons/v1_VE250_randls_6_rotated.json,1504919,1878520,64,Woman
127,892576,DepthScenes,duration_manipulation_targetAtFixation,jsons/v1_VE250_randls_6_rotated.json,http://54.235.29.9/FacialAge/BNav_EC2/DepthDuration/v2_depth_duration_MTurk/v2_DepthDuration_HTML.html#393,393,1366,625,1366,768,9-4-2022,10-18-44,128,depth_duration_stimuli/001810_2014-06-26_20-51-35_260595134347_rgbf000040-resize_3/001810_2014-06-26_20-51-35_260595134347_rgbf000040-resize_3-target.png,250,2.2525,1,8806,235,feet,jsons/v1_VE250_randls_6_rotated.json,1504919,1878520,64,Woman
128,892576,DepthScenes,duration_manipulation_targetAtFixation,jsons/v1_VE250_randls_6_rotated.json,http://54.235.29.9/FacialAge/BNav_EC2/DepthDuration/v2_depth_duration_MTurk/v2_DepthDuration_HTML.html#393,393,1366,625,1366,768,9-4-2022,10-18-44,129,depth_duration_stimuli/000927_2014-06-09_16-32-30_260595134347_rgbf000123-resize_3/000927_2014-06-09_16-32-30_260595134347_rgbf000123-resize_3-target.png,250,2.6785,2,4797,236,feet,jsons/v1_VE250_randls_6_rotated.json,1504919,1878520,64,Woman
129,892576,DepthScenes,duration_manipulation_targetAtFixation,jsons/v1_VE250_randls_6_rotated.json,http://54.235.29.9/FacialAge/BNav_EC2/DepthDuration/v2_depth_duration_MTurk/v2_DepthDuration_HTML.html#393,393,1366,625,1366,768,9-4-2022,10-18-44,130,depth_duration_stimuli/001110_2014-06-15_17-25-28_260595134347_rgbf000150-resize_1/001110_2014-06-15_17-25-28_260595134347_rgbf000150-resize_1-target.png,250,1.7115,4,3549,245,feet,jsons/v1_VE250_randls_6_rotated.json,1504919,1878520,64,Woman
130,892576,DepthScenes,duration_manipulation_targetAtFixation,jsons/v1_VE250_randls_6_rotated.json,http://54.235.29.9/FacialAge/BNav_EC2/DepthDuration/v2_depth_duration_MTurk/v2_DepthDuration_HTML.html#393,393,1366,625,1366,768,9-4-2022,10-18-44,131,depth_duration_stimuli/002637_2014-06-24_14-51-13_094959634447_rgbf000066-resize_4/002637_2014-06-24_14-51-13_094959634447_rgbf000066-resize_4-target.png,250,1.9955,5,4094,256,feet,jsons/v1_VE250_randls_6_rotated.json,1504919,1878520,64,Woman
131,892576,DepthScenes,duration_manipulation_targetAtFixation,jsons/v1_VE250_randls_6_rotated.json,http://54.235.29.9/FacialAge/BNav_EC2/DepthDuration/v2_depth_duration_MTurk/v2_DepthDuration_HTML.html#393,393,1366,625,1366,768,9-4-2022,10-18-44,132,depth_duration_stimuli/003534_2014-05-22_15-06-10_094959634447_rgbf000102-resize_4/003534_2014-05-22_15-06-10_094959634447_rgbf000102-resize_4-target.png,250,1.426,5,5497,250,feet,jsons/v1_VE250_randls_6_rotated.json,1504919,1878520,64,Woman
132,892576,DepthScenes,duration_manipulation_targetAtFixation,jsons/v1_VE250_randls_6_rotated.json,http://54.235.29.9/FacialAge/BNav_EC2/DepthDuration/v2_depth_duration_MTurk/v2_DepthDuration_HTML.html#393,393,1366,625,1366,768,9-4-2022,10-18-44,133,depth_duration_stimuli/003490_2014-05-21_15-50-11_094959634447_rgbf000101-resize_3/003490_2014-05-21_15-50-11_094959634447_rgbf000101-resize_3-target.png,250,3.6445,2,5422,257,feet,jsons/v1_VE250_randls_6_rotated.json,1504919,1878520,64,Woman
133,892576,DepthScenes,duration_manipulation_targetAtFixation,jsons/v1_VE250_randls_6_rotated.json,http://54.235.29.9/FacialAge/BNav_EC2/DepthDuration/v2_depth_duration_MTurk/v2_DepthDuration_HTML.html#393,393,1366,625,1366,768,9-4-2022,10-18-44,134,depth_duration_stimuli/001175_2014-06-17_15-45-55_260595134347_rgbf000129-resize_4/001175_2014-06-17_15-45-55_260595134347_rgbf000129-resize_4-target.png,250,4.255,4,4619,330,feet,jsons/v1_VE250_randls_6_rotated.json,1504919,1878520,64,Woman
134,892576,DepthScenes,duration_manipulation_targetAtFixation,jsons/v1_VE250_randls_6_rotated.json,http://54.235.29.9/FacialAge/BNav_EC2/DepthDuration/v2_depth_duration_MTurk/v2_DepthDuration_HTML.html#393,393,1366,625,1366,768,9-4-2022,10-18-44,135,depth_duration_stimuli/000375_2014-06-08_11-17-29_260595134347_rgbf000133-resize_2/000375_2014-06-08_11-17-29_260595134347_rgbf000133-resize-original.jpg,250,4.718,2,6171,255,feet,jsons/v1_VE250_randls_6_rotated.json,1504919,1878520,64,Woman
135,892576,DepthScenes,duration_manipulation_targetAtFixation,jsons/v1_VE250_randls_6_rotated.json,http://54.235.29.9/FacialAge/BNav_EC2/DepthDuration/v2_depth_duration_MTurk/v2_DepthDuration_HTML.html#393,393,1366,625,1366,768,9-4-2022,10-18-44,136,depth_duration_stimuli/000103_2014-05-14_22-01-17_260595134347_rgbf000152-resize_5/000103_2014-05-14_22-01-17_260595134347_rgbf000152-resize_5-target.png,250,1.993,4,4422,248,feet,jsons/v1_VE250_randls_6_rotated.json,1504919,1878520,64,Woman
136,892576,DepthScenes,duration_manipulation_targetAtFixation,jsons/v1_VE250_randls_6_rotated.json,http://54.235.29.9/FacialAge/BNav_EC2/DepthDuration/v2_depth_duration_MTurk/v2_DepthDuration_HTML.html#393,393,1366,625,1366,768,9-4-2022,10-18-44,137,depth_duration_stimuli/001555_2014-06-20_17-12-10_260595134347_rgbf000065-resize_4/001555_2014-06-20_17-12-10_260595134347_rgbf000065-resize_4-target.png,250,1.633,2,3135,237,feet,jsons/v1_VE250_randls_6_rotated.json,1504919,1878520,64,Woman
137,892576,DepthScenes,duration_manipulation_targetAtFixation,jsons/v1_VE250_randls_6_rotated.json,http://54.235.29.9/FacialAge/BNav_EC2/DepthDuration/v2_depth_duration_MTurk/v2_DepthDuration_HTML.html#393,393,1366,625,1366,768,9-4-2022,10-18-44,138,depth_duration_stimuli/002136_2014-06-25_21-18-03_260595134347_rgbf000109-resize_3/002136_2014-06-25_21-18-03_260595134347_rgbf000109-resize_3-target.png,250,1.9569999999999999,1,8130,235,feet,jsons/v1_VE250_randls_6_rotated.json,1504919,1878520,64,Woman
138,892576,DepthScenes,duration_manipulation_targetAtFixation,jsons/v1_VE250_randls_6_rotated.json,http://54.235.29.9/FacialAge/BNav_EC2/DepthDuration/v2_depth_duration_MTurk/v2_DepthDuration_HTML.html#393,393,1366,625,1366,768,9-4-2022,10-18-44,139,depth_duration_stimuli/002964_2014-06-08_17-46-11_094959634447_rgbf000091-resize_4/002964_2014-06-08_17-46-11_094959634447_rgbf000091-resize_4-target.png,250,1.6909999999999998,4,7807,248,feet,jsons/v1_VE250_randls_6_rotated.json,1504919,1878520,64,Woman
139,892576,DepthScenes,duration_manipulation_targetAtFixation,jsons/v1_VE250_randls_6_rotated.json,http://54.235.29.9/FacialAge/BNav_EC2/DepthDuration/v2_depth_duration_MTurk/v2_DepthDuration_HTML.html#393,393,1366,625,1366,768,9-4-2022,10-18-44,140,depth_duration_stimuli/002875_2014-06-01_15-19-00_094959634447_rgbf000151-resize_1/002875_2014-06-01_15-19-00_094959634447_rgbf000151-resize_1-target.png,250,1.9675,3,4191,249,feet,jsons/v1_VE250_randls_6_rotated.json,1504919,1878520,64,Woman
140,892576,DepthScenes,duration_manipulation_targetAtFixation,jsons/v1_VE250_randls_6_rotated.json,http://54.235.29.9/FacialAge/BNav_EC2/DepthDuration/v2_depth_duration_MTurk/v2_DepthDuration_HTML.html#393,393,1366,625,1366,768,9-4-2022,10-18-44,141,depth_duration_stimuli/001011_2014-06-08_23-18-54_260595134347_rgbf000044-resize_4/001011_2014-06-08_23-18-54_260595134347_rgbf000044-resize_4-target.png,250,2.4730000000000003,4,4979,250,feet,jsons/v1_VE250_randls_6_rotated.json,1504919,1878520,64,Woman
141,892576,DepthScenes,duration_manipulation_targetAtFixation,jsons/v1_VE250_randls_6_rotated.json,http://54.235.29.9/FacialAge/BNav_EC2/DepthDuration/v2_depth_duration_MTurk/v2_DepthDuration_HTML.html#393,393,1366,625,1366,768,9-4-2022,10-18-44,142,depth_duration_stimuli/002568_2014-06-24_13-59-21_094959634447_rgbf000062-resize_4/002568_2014-06-24_13-59-21_094959634447_rgbf000062-resize_4-target.png,250,3.015,4,5478,235,feet,jsons/v1_VE250_randls_6_rotated.json,1504919,1878520,64,Woman
142,892576,DepthScenes,duration_manipulation_targetAtFixation,jsons/v1_VE250_randls_6_rotated.json,http://54.235.29.9/FacialAge/BNav_EC2/DepthDuration/v2_depth_duration_MTurk/v2_DepthDuration_HTML.html#393,393,1366,625,1366,768,9-4-2022,10-18-44,143,depth_duration_stimuli/003492_2014-05-21_15-50-55_094959634447_rgbf000828-resize_1/003492_2014-05-21_15-50-55_094959634447_rgbf000828-resize_1-target.png,250,4.06875,4,4821,244,feet,jsons/v1_VE250_randls_6_rotated.json,1504919,1878520,64,Woman
143,892576,DepthScenes,duration_manipulation_targetAtFixation,jsons/v1_VE250_randls_6_rotated.json,http://54.235.29.9/FacialAge/BNav_EC2/DepthDuration/v2_depth_duration_MTurk/v2_DepthDuration_HTML.html#393,393,1366,625,1366,768,9-4-2022,10-18-44,144,depth_duration_stimuli/000691_2014-06-08_13-08-50_260595134347_rgbf000132-resize_3/000691_2014-06-08_13-08-50_260595134347_rgbf000132-resize_3-target.png,250,4.1530000000000005,4,8496,252,feet,jsons/v1_VE250_randls_6_rotated.json,1504919,1878520,64,Woman
144,892576,DepthScenes,duration_manipulation_targetAtFixation,jsons/v1_VE250_randls_6_rotated.json,http://54.235.29.9/FacialAge/BNav_EC2/DepthDuration/v2_depth_duration_MTurk/v2_DepthDuration_HTML.html#393,393,1366,625,1366,768,9-4-2022,10-18-44,145,depth_duration_stimuli/002213_2014-06-28_18-37-58_260595134347_rgbf000055-resize_1/002213_2014-06-28_18-37-58_260595134347_rgbf000055-resize_1-target.png,250,3.62,3,5746,251,feet,jsons/v1_VE250_randls_6_rotated.json,1504919,1878520,64,Woman
145,892576,DepthScenes,duration_manipulation_targetAtFixation,jsons/v1_VE250_randls_6_rotated.json,http://54.235.29.9/FacialAge/BNav_EC2/DepthDuration/v2_depth_duration_MTurk/v2_DepthDuration_HTML.html#393,393,1366,625,1366,768,9-4-2022,10-18-44,146,depth_duration_stimuli/002995_2014-06-15_12-31-26_094959634447_rgbf000150-resize_1/002995_2014-06-15_12-31-26_094959634447_rgbf000150-resize_1-target.png,250,3.8360000000000003,3,3480,251,feet,jsons/v1_VE250_randls_6_rotated.json,1504919,1878520,64,Woman
146,892576,DepthScenes,duration_manipulation_targetAtFixation,jsons/v1_VE250_randls_6_rotated.json,http://54.235.29.9/FacialAge/BNav_EC2/DepthDuration/v2_depth_duration_MTurk/v2_DepthDuration_HTML.html#393,393,1366,625,1366,768,9-4-2022,10-18-44,147,depth_duration_stimuli/002748_2014-06-22_19-07-22_094959634447_rgbf000078-resize_1/002748_2014-06-22_19-07-22_094959634447_rgbf000078-resize_1-target.png,250,4.6705,2,4127,257,feet,jsons/v1_VE250_randls_6_rotated.json,1504919,1878520,64,Woman
147,892576,DepthScenes,duration_manipulation_targetAtFixation,jsons/v1_VE250_randls_6_rotated.json,http://54.235.29.9/FacialAge/BNav_EC2/DepthDuration/v2_depth_duration_MTurk/v2_DepthDuration_HTML.html#393,393,1366,625,1366,768,9-4-2022,10-18-44,148,depth_duration_stimuli/001052_2014-06-08_18-24-54_260595134347_rgbf000130-resize_1/001052_2014-06-08_18-24-54_260595134347_rgbf000130-resize_1-target.png,250,4.1045,5,8691,249,feet,jsons/v1_VE250_randls_6_rotated.json,1504919,1878520,64,Woman
148,892576,DepthScenes,duration_manipulation_targetAtFixation,jsons/v1_VE250_randls_6_rotated.json,http://54.235.29.9/FacialAge/BNav_EC2/DepthDuration/v2_depth_duration_MTurk/v2_DepthDuration_HTML.html#393,393,1366,625,1366,768,9-4-2022,10-18-44,149,depth_duration_stimuli/002988_2014-06-15_12-24-20_094959634447_rgbf000150-resize_1/002988_2014-06-15_12-24-20_094959634447_rgbf000150-resize_1-target.png,250,4.7669999999999995,3,6579,244,feet,jsons/v1_VE250_randls_6_rotated.json,1504919,1878520,64,Woman
149,892576,DepthScenes,duration_manipulation_targetAtFixation,jsons/v1_VE250_randls_6_rotated.json,http://54.235.29.9/FacialAge/BNav_EC2/DepthDuration/v2_depth_duration_MTurk/v2_DepthDuration_HTML.html#393,393,1366,625,1366,768,9-4-2022,10-18-44,150,depth_duration_stimuli/001100_2014-06-15_17-46-26_260595134347_rgbf000225-resize_2/001100_2014-06-15_17-46-26_260595134347_rgbf000225-resize_2-target.png,250,2.24,5,2998,248,feet,jsons/v1_VE250_randls_6_rotated.json,1504919,1878520,64,Woman
150,892576,DepthScenes,duration_manipulation_targetAtFixation,jsons/v1_VE250_randls_6_rotated.json,http://54.235.29.9/FacialAge/BNav_EC2/DepthDuration/v2_depth_duration_MTurk/v2_DepthDuration_HTML.html#393,393,1366,625,1366,768,9-4-2022,10-18-44,151,depth_duration_stimuli/002784_2014-06-22_19-26-30_094959634447_rgbf000083-resize_3/002784_2014-06-22_19-26-30_094959634447_rgbf000083-resize_3-target.png,250,1.8046666666667,2,4910,220,feet,jsons/v1_VE250_randls_6_rotated.json,1504919,1878520,64,Woman
151,892576,DepthScenes,duration_manipulation_targetAtFixation,jsons/v1_VE250_randls_6_rotated.json,http://54.235.29.9/FacialAge/BNav_EC2/DepthDuration/v2_depth_duration_MTurk/v2_DepthDuration_HTML.html#393,393,1366,625,1366,768,9-4-2022,10-18-44,152,depth_duration_stimuli/000569_2014-06-09_22-51-47_260595134347_rgbf000141-resize_3/000569_2014-06-09_22-51-47_260595134347_rgbf000141-resize-original.jpg,250,4.512,1,4274,235,feet,jsons/v1_VE250_randls_6_rotated.json,1504919,1878520,64,Woman
152,892576,DepthScenes,duration_manipulation_targetAtFixation,jsons/v1_VE250_randls_6_rotated.json,http://54.235.29.9/FacialAge/BNav_EC2/DepthDuration/v2_depth_duration_MTurk/v2_DepthDuration_HTML.html#393,393,1366,625,1366,768,9-4-2022,10-18-44,153,depth_duration_stimuli/002758_2014-06-22_19-11-20_094959634447_rgbf000128-resize_1/002758_2014-06-22_19-11-20_094959634447_rgbf000128-resize_1-target.png,250,2.555,2,3767,229,feet,jsons/v1_VE250_randls_6_rotated.json,1504919,1878520,64,Woman
153,892576,DepthScenes,duration_manipulation_targetAtFixation,jsons/v1_VE250_randls_6_rotated.json,http://54.235.29.9/FacialAge/BNav_EC2/DepthDuration/v2_depth_duration_MTurk/v2_DepthDuration_HTML.html#393,393,1366,625,1366,768,9-4-2022,10-18-44,154,depth_duration_stimuli/002630_2014-06-24_14-47-50_094959634447_rgbf000055-resize_1/002630_2014-06-24_14-47-50_094959634447_rgbf000055-resize_1-target.png,250,3.0095,3,4845,251,feet,jsons/v1_VE250_randls_6_rotated.json,1504919,1878520,64,Woman
154,892576,DepthScenes,duration_manipulation_targetAtFixation,jsons/v1_VE250_randls_6_rotated.json,http://54.235.29.9/FacialAge/BNav_EC2/DepthDuration/v2_depth_duration_MTurk/v2_DepthDuration_HTML.html#393,393,1366,625,1366,768,9-4-2022,10-18-44,155,depth_duration_stimuli/001571_2014-06-20_17-21-32_260595134347_rgbf000089-resize_1/001571_2014-06-20_17-21-32_260595134347_rgbf000089-resize_1-target.png,250,1.86,5,3204,159,feet,jsons/v1_VE250_randls_6_rotated.json,1504919,1878520,64,Woman
155,892576,DepthScenes,duration_manipulation_targetAtFixation,jsons/v1_VE250_randls_6_rotated.json,http://54.235.29.9/FacialAge/BNav_EC2/DepthDuration/v2_depth_duration_MTurk/v2_DepthDuration_HTML.html#393,393,1366,625,1366,768,9-4-2022,10-18-44,156,depth_duration_stimuli/002272_2014-06-28_18-53-56_260595134347_rgbf000067-resize_2/002272_2014-06-28_18-53-56_260595134347_rgbf000067-resize_2-target.png,250,1.138,4,8571,226,feet,jsons/v1_VE250_randls_6_rotated.json,1504919,1878520,64,Woman
156,892576,DepthScenes,duration_manipulation_targetAtFixation,jsons/v1_VE250_randls_6_rotated.json,http://54.235.29.9/FacialAge/BNav_EC2/DepthDuration/v2_depth_duration_MTurk/v2_DepthDuration_HTML.html#393,393,1366,625,1366,768,9-4-2022,10-18-44,157,depth_duration_stimuli/001450_2014-06-19_17-02-03_260595134347_rgbf000203-resize_4/001450_2014-06-19_17-02-03_260595134347_rgbf000203-resize_4-target.png,250,4.0106666666667,4,9182,241,feet,jsons/v1_VE250_randls_6_rotated.json,1504919,1878520,64,Woman
157,892576,DepthScenes,duration_manipulation_targetAtFixation,jsons/v1_VE250_randls_6_rotated.json,http://54.235.29.9/FacialAge/BNav_EC2/DepthDuration/v2_depth_duration_MTurk/v2_DepthDuration_HTML.html#393,393,1366,625,1366,768,9-4-2022,10-18-44,158,depth_duration_stimuli/001449_2014-06-19_17-01-27_260595134347_rgbf000116-resize_2/001449_2014-06-19_17-01-27_260595134347_rgbf000116-resize_2-target.png,250,3.452,2,14836,250,feet,jsons/v1_VE250_randls_6_rotated.json,1504919,1878520,64,Woman
158,892576,DepthScenes,duration_manipulation_targetAtFixation,jsons/v1_VE250_randls_6_rotated.json,http://54.235.29.9/FacialAge/BNav_EC2/DepthDuration/v2_depth_duration_MTurk/v2_DepthDuration_HTML.html#393,393,1366,625,1366,768,9-4-2022,10-18-44,159,depth_duration_stimuli/002425_2014-06-28_20-27-29_260595134347_rgbf000031-resize_8/002425_2014-06-28_20-27-29_260595134347_rgbf000031-resize_8-target.png,250,3.8960000000000004,2,12755,243,feet,jsons/v1_VE250_randls_6_rotated.json,1504919,1878520,64,Woman
159,892576,DepthScenes,duration_manipulation_targetAtFixation,jsons/v1_VE250_randls_6_rotated.json,http://54.235.29.9/FacialAge/BNav_EC2/DepthDuration/v2_depth_duration_MTurk/v2_DepthDuration_HTML.html#393,393,1366,625,1366,768,9-4-2022,10-18-44,160,depth_duration_stimuli/000642_2014-06-08_16-59-25_260595134347_rgbf000098-resize_2/000642_2014-06-08_16-59-25_260595134347_rgbf000098-resize_2-target.png,250,2.8815,1,5368,241,feet,jsons/v1_VE250_randls_6_rotated.json,1504919,1878520,64,Woman
160,892576,DepthScenes,duration_manipulation_targetAtFixation,jsons/v1_VE250_randls_6_rotated.json,http://54.235.29.9/FacialAge/BNav_EC2/DepthDuration/v2_depth_duration_MTurk/v2_DepthDuration_HTML.html#393,393,1366,625,1366,768,9-4-2022,10-18-44,161,depth_duration_stimuli/003423_2014-05-21_10-23-26_094959634447_rgbf002665-resize_2/003423_2014-05-21_10-23-26_094959634447_rgbf002665-resize_2-target.png,250,3.2575,3,3632,251,feet,jsons/v1_VE250_randls_6_rotated.json,1504919,1878520,64,Woman
161,892576,DepthScenes,duration_manipulation_targetAtFixation,jsons/v1_VE250_randls_6_rotated.json,http://54.235.29.9/FacialAge/BNav_EC2/DepthDuration/v2_depth_duration_MTurk/v2_DepthDuration_HTML.html#393,393,1366,625,1366,768,9-4-2022,10-18-44,162,depth_duration_stimuli/002905_2014-06-03_18-04-43_094959634447_rgbf000151-resize_2/002905_2014-06-03_18-04-43_094959634447_rgbf000151-resize_2-target.png,250,2.0295,2,7537,241,feet,jsons/v1_VE250_randls_6_rotated.json,1504919,1878520,64,Woman
162,892576,DepthScenes,duration_manipulation_targetAtFixation,jsons/v1_VE250_randls_6_rotated.json,http://54.235.29.9/FacialAge/BNav_EC2/DepthDuration/v2_depth_duration_MTurk/v2_DepthDuration_HTML.html#393,393,1366,625,1366,768,9-4-2022,10-18-44,163,depth_duration_stimuli/000409_2014-06-04_19-23-33_260595134347_rgbf000067-resize_0/000409_2014-06-04_19-23-33_260595134347_rgbf000067-resize_0-target.png,250,3.7335,5,40347,243,feet,jsons/v1_VE250_randls_6_rotated.json,1504919,1878520,64,Woman
163,892576,DepthScenes,duration_manipulation_targetAtFixation,jsons/v1_VE250_randls_6_rotated.json,http://54.235.29.9/FacialAge/BNav_EC2/DepthDuration/v2_depth_duration_MTurk/v2_DepthDuration_HTML.html#393,393,1366,625,1366,768,9-4-2022,10-18-44,164,depth_duration_stimuli/002663_2014-06-13_15-50-26_094959634447_rgbf000075-resize_1/002663_2014-06-13_15-50-26_094959634447_rgbf000075-resize_1-target.png,250,4.7495,1,4683,249,feet,jsons/v1_VE250_randls_6_rotated.json,1504919,1878520,64,Woman
