,subjID,experimentName,versionName,sequenceName,url,selected_row,windowWidth,windowHeight,screenWidth,screenHeight,startDate,startTime,trial,stimulus,duration,actual_depth,depth_estimate,trial_RT,log_sceneDuration,unitSelection,seq_filepath,experimentTime,totalTime,age,gender
0,897458,DepthScenes,duration_manipulation_targetAtFixation,jsons/v1_VE1000_randls_57.json,http://54.235.29.9/FacialAge/BNav_EC2/DepthDuration/v2_depth_duration_MTurk/v2_DepthDuration_HTML.html#86,86,1366,649,1366,768,8-29-2022,11-36-37,1,depth_duration_stimuli/002118_2014-06-25_20-32-08_260595134347_rgbf000078-resize_1/002118_2014-06-25_20-32-08_260595134347_rgbf000078-resize_1-target.png,1000,2.6460000000000004,7.0,4031,1030,feet,jsons/v1_VE1000_randls_57.json,810964,1068502,42,Woman
1,897458,DepthScenes,duration_manipulation_targetAtFixation,jsons/v1_VE1000_randls_57.json,http://54.235.29.9/FacialAge/BNav_EC2/DepthDuration/v2_depth_duration_MTurk/v2_DepthDuration_HTML.html#86,86,1366,649,1366,768,8-29-2022,11-36-37,2,depth_duration_stimuli/001516_2014-06-20_16-25-09_260595134347_rgbf000076-resize_2/001516_2014-06-20_16-25-09_260595134347_rgbf000076-resize_2-target.png,1000,1.7445,4.0,3581,998,feet,jsons/v1_VE1000_randls_57.json,810964,1068502,42,Woman
2,897458,DepthScenes,duration_manipulation_targetAtFixation,jsons/v1_VE1000_randls_57.json,http://54.235.29.9/FacialAge/BNav_EC2/DepthDuration/v2_depth_duration_MTurk/v2_DepthDuration_HTML.html#86,86,1366,649,1366,768,8-29-2022,11-36-37,3,depth_duration_stimuli/001150_2014-06-17_15-27-34_260595134347_rgbf000108-resize_2/001150_2014-06-17_15-27-34_260595134347_rgbf000108-resize_2-target.png,1000,4.0325,7.0,4916,999,feet,jsons/v1_VE1000_randls_57.json,810964,1068502,42,Woman
3,897458,DepthScenes,duration_manipulation_targetAtFixation,jsons/v1_VE1000_randls_57.json,http://54.235.29.9/FacialAge/BNav_EC2/DepthDuration/v2_depth_duration_MTurk/v2_DepthDuration_HTML.html#86,86,1366,649,1366,768,8-29-2022,11-36-37,4,depth_duration_stimuli/000665_2014-06-09_20-42-35_260595134347_rgbf000110-resize_1/000665_2014-06-09_20-42-35_260595134347_rgbf000110-resize_1-target.png,1000,3.057,9.0,3727,1003,feet,jsons/v1_VE1000_randls_57.json,810964,1068502,42,Woman
4,897458,DepthScenes,duration_manipulation_targetAtFixation,jsons/v1_VE1000_randls_57.json,http://54.235.29.9/FacialAge/BNav_EC2/DepthDuration/v2_depth_duration_MTurk/v2_DepthDuration_HTML.html#86,86,1366,649,1366,768,8-29-2022,11-36-37,5,depth_duration_stimuli/000447_2014-06-08_16-15-46_260595134347_rgbf000130-resize_1/000447_2014-06-08_16-15-46_260595134347_rgbf000130-resize_1-target.png,1000,4.479,12.0,4136,998,feet,jsons/v1_VE1000_randls_57.json,810964,1068502,42,Woman
5,897458,DepthScenes,duration_manipulation_targetAtFixation,jsons/v1_VE1000_randls_57.json,http://54.235.29.9/FacialAge/BNav_EC2/DepthDuration/v2_depth_duration_MTurk/v2_DepthDuration_HTML.html#86,86,1366,649,1366,768,8-29-2022,11-36-37,6,depth_duration_stimuli/001447_2014-06-19_17-00-32_260595134347_rgbf000082-resize_5/001447_2014-06-19_17-00-32_260595134347_rgbf000082-resize_5-target.png,1000,4.13775,6.0,3520,996,feet,jsons/v1_VE1000_randls_57.json,810964,1068502,42,Woman
6,897458,DepthScenes,duration_manipulation_targetAtFixation,jsons/v1_VE1000_randls_57.json,http://54.235.29.9/FacialAge/BNav_EC2/DepthDuration/v2_depth_duration_MTurk/v2_DepthDuration_HTML.html#86,86,1366,649,1366,768,8-29-2022,11-36-37,7,depth_duration_stimuli/002763_2014-06-22_19-13-10_094959634447_rgbf000075-resize_4/002763_2014-06-22_19-13-10_094959634447_rgbf000075-resize_4-target.png,1000,1.68375,4.5,5249,829,feet,jsons/v1_VE1000_randls_57.json,810964,1068502,42,Woman
7,897458,DepthScenes,duration_manipulation_targetAtFixation,jsons/v1_VE1000_randls_57.json,http://54.235.29.9/FacialAge/BNav_EC2/DepthDuration/v2_depth_duration_MTurk/v2_DepthDuration_HTML.html#86,86,1366,649,1366,768,8-29-2022,11-36-37,8,depth_duration_stimuli/002209_2014-06-28_18-36-10_260595134347_rgbf000051-resize_1/002209_2014-06-28_18-36-10_260595134347_rgbf000051-resize_1-target.png,1000,2.057,5.0,3420,998,feet,jsons/v1_VE1000_randls_57.json,810964,1068502,42,Woman
8,897458,DepthScenes,duration_manipulation_targetAtFixation,jsons/v1_VE1000_randls_57.json,http://54.235.29.9/FacialAge/BNav_EC2/DepthDuration/v2_depth_duration_MTurk/v2_DepthDuration_HTML.html#86,86,1366,649,1366,768,8-29-2022,11-36-37,9,depth_duration_stimuli/002988_2014-06-15_12-24-20_094959634447_rgbf000150-resize_1/002988_2014-06-15_12-24-20_094959634447_rgbf000150-resize_1-target.png,1000,4.7669999999999995,12.0,4996,996,feet,jsons/v1_VE1000_randls_57.json,810964,1068502,42,Woman
9,897458,DepthScenes,duration_manipulation_targetAtFixation,jsons/v1_VE1000_randls_57.json,http://54.235.29.9/FacialAge/BNav_EC2/DepthDuration/v2_depth_duration_MTurk/v2_DepthDuration_HTML.html#86,86,1366,649,1366,768,8-29-2022,11-36-37,10,depth_duration_stimuli/001052_2014-06-08_18-24-54_260595134347_rgbf000130-resize_1/001052_2014-06-08_18-24-54_260595134347_rgbf000130-resize_1-target.png,1000,4.1045,13.0,4536,999,feet,jsons/v1_VE1000_randls_57.json,810964,1068502,42,Woman
10,897458,DepthScenes,duration_manipulation_targetAtFixation,jsons/v1_VE1000_randls_57.json,http://54.235.29.9/FacialAge/BNav_EC2/DepthDuration/v2_depth_duration_MTurk/v2_DepthDuration_HTML.html#86,86,1366,649,1366,768,8-29-2022,11-36-37,11,depth_duration_stimuli/003292_2014-05-14_21-53-49_094959634447_rgbf000100-resize_2/003292_2014-05-14_21-53-49_094959634447_rgbf000100-resize_2-target.png,1000,3.4815,6.0,4249,998,feet,jsons/v1_VE1000_randls_57.json,810964,1068502,42,Woman
11,897458,DepthScenes,duration_manipulation_targetAtFixation,jsons/v1_VE1000_randls_57.json,http://54.235.29.9/FacialAge/BNav_EC2/DepthDuration/v2_depth_duration_MTurk/v2_DepthDuration_HTML.html#86,86,1366,649,1366,768,8-29-2022,11-36-37,12,depth_duration_stimuli/002639_2014-06-24_14-51-37_094959634447_rgbf000074-resize_4/002639_2014-06-24_14-51-37_094959634447_rgbf000074-resize_4-target.png,1000,4.0375,7.0,3238,998,feet,jsons/v1_VE1000_randls_57.json,810964,1068502,42,Woman
12,897458,DepthScenes,duration_manipulation_targetAtFixation,jsons/v1_VE1000_randls_57.json,http://54.235.29.9/FacialAge/BNav_EC2/DepthDuration/v2_depth_duration_MTurk/v2_DepthDuration_HTML.html#86,86,1366,649,1366,768,8-29-2022,11-36-37,13,depth_duration_stimuli/000569_2014-06-09_22-51-47_260595134347_rgbf000141-resize_3/000569_2014-06-09_22-51-47_260595134347_rgbf000141-resize-original.jpg,1000,4.512,0.0,3331,998,feet,jsons/v1_VE1000_randls_57.json,810964,1068502,42,Woman
13,897458,DepthScenes,duration_manipulation_targetAtFixation,jsons/v1_VE1000_randls_57.json,http://54.235.29.9/FacialAge/BNav_EC2/DepthDuration/v2_depth_duration_MTurk/v2_DepthDuration_HTML.html#86,86,1366,649,1366,768,8-29-2022,11-36-37,14,depth_duration_stimuli/001570_2014-06-20_17-21-09_260595134347_rgbf000135-resize_4/001570_2014-06-20_17-21-09_260595134347_rgbf000135-resize_4-target.png,1000,4.467,9.0,3351,998,feet,jsons/v1_VE1000_randls_57.json,810964,1068502,42,Woman
14,897458,DepthScenes,duration_manipulation_targetAtFixation,jsons/v1_VE1000_randls_57.json,http://54.235.29.9/FacialAge/BNav_EC2/DepthDuration/v2_depth_duration_MTurk/v2_DepthDuration_HTML.html#86,86,1366,649,1366,768,8-29-2022,11-36-37,15,depth_duration_stimuli/001392_2014-06-19_16-07-59_260595134347_rgbf000046-resize_1/001392_2014-06-19_16-07-59_260595134347_rgbf000046-resize_1-target.png,1000,4.135,11.0,4657,997,feet,jsons/v1_VE1000_randls_57.json,810964,1068502,42,Woman
15,897458,DepthScenes,duration_manipulation_targetAtFixation,jsons/v1_VE1000_randls_57.json,http://54.235.29.9/FacialAge/BNav_EC2/DepthDuration/v2_depth_duration_MTurk/v2_DepthDuration_HTML.html#86,86,1366,649,1366,768,8-29-2022,11-36-37,16,depth_duration_stimuli/000506_2014-06-08_23-21-00_260595134347_rgbf000070-resize_7/000506_2014-06-08_23-21-00_260595134347_rgbf000070-resize_7-target.png,1000,4.0585,12.0,3284,998,feet,jsons/v1_VE1000_randls_57.json,810964,1068502,42,Woman
16,897458,DepthScenes,duration_manipulation_targetAtFixation,jsons/v1_VE1000_randls_57.json,http://54.235.29.9/FacialAge/BNav_EC2/DepthDuration/v2_depth_duration_MTurk/v2_DepthDuration_HTML.html#86,86,1366,649,1366,768,8-29-2022,11-36-37,17,depth_duration_stimuli/003079_2014-06-15_15-18-20_094959634447_rgbf000152-resize_8/003079_2014-06-15_15-18-20_094959634447_rgbf000152-resize_8-target.png,1000,2.8775,9.0,3537,998,feet,jsons/v1_VE1000_randls_57.json,810964,1068502,42,Woman
17,897458,DepthScenes,duration_manipulation_targetAtFixation,jsons/v1_VE1000_randls_57.json,http://54.235.29.9/FacialAge/BNav_EC2/DepthDuration/v2_depth_duration_MTurk/v2_DepthDuration_HTML.html#86,86,1366,649,1366,768,8-29-2022,11-36-37,18,depth_duration_stimuli/002784_2014-06-22_19-26-30_094959634447_rgbf000083-resize_3/002784_2014-06-22_19-26-30_094959634447_rgbf000083-resize_3-target.png,1000,1.8046666666667,3.0,4016,996,feet,jsons/v1_VE1000_randls_57.json,810964,1068502,42,Woman
18,897458,DepthScenes,duration_manipulation_targetAtFixation,jsons/v1_VE1000_randls_57.json,http://54.235.29.9/FacialAge/BNav_EC2/DepthDuration/v2_depth_duration_MTurk/v2_DepthDuration_HTML.html#86,86,1366,649,1366,768,8-29-2022,11-36-37,19,depth_duration_stimuli/001100_2014-06-15_17-46-26_260595134347_rgbf000225-resize_2/001100_2014-06-15_17-46-26_260595134347_rgbf000225-resize_2-target.png,1000,2.24,3.0,2709,999,feet,jsons/v1_VE1000_randls_57.json,810964,1068502,42,Woman
19,897458,DepthScenes,duration_manipulation_targetAtFixation,jsons/v1_VE1000_randls_57.json,http://54.235.29.9/FacialAge/BNav_EC2/DepthDuration/v2_depth_duration_MTurk/v2_DepthDuration_HTML.html#86,86,1366,649,1366,768,8-29-2022,11-36-37,20,depth_duration_stimuli/000906_2014-06-08_13-35-43_260595134347_rgbf000155-resize_1/000906_2014-06-08_13-35-43_260595134347_rgbf000155-resize_1-target.png,1000,2.8489999999999998,8.0,5985,999,feet,jsons/v1_VE1000_randls_57.json,810964,1068502,42,Woman
20,897458,DepthScenes,duration_manipulation_targetAtFixation,jsons/v1_VE1000_randls_57.json,http://54.235.29.9/FacialAge/BNav_EC2/DepthDuration/v2_depth_duration_MTurk/v2_DepthDuration_HTML.html#86,86,1366,649,1366,768,8-29-2022,11-36-37,21,depth_duration_stimuli/002805_2014-06-22_19-54-03_094959634447_rgbf000079-resize_1/002805_2014-06-22_19-54-03_094959634447_rgbf000079-resize_1-target.png,1000,3.1439999999999997,9.0,6240,997,feet,jsons/v1_VE1000_randls_57.json,810964,1068502,42,Woman
21,897458,DepthScenes,duration_manipulation_targetAtFixation,jsons/v1_VE1000_randls_57.json,http://54.235.29.9/FacialAge/BNav_EC2/DepthDuration/v2_depth_duration_MTurk/v2_DepthDuration_HTML.html#86,86,1366,649,1366,768,8-29-2022,11-36-37,22,depth_duration_stimuli/001806_2014-06-26_20-50-20_260595134347_rgbf000091-resize_1/001806_2014-06-26_20-50-20_260595134347_rgbf000091-resize_1-target.png,1000,2.7305,5.0,3506,997,feet,jsons/v1_VE1000_randls_57.json,810964,1068502,42,Woman
22,897458,DepthScenes,duration_manipulation_targetAtFixation,jsons/v1_VE1000_randls_57.json,http://54.235.29.9/FacialAge/BNav_EC2/DepthDuration/v2_depth_duration_MTurk/v2_DepthDuration_HTML.html#86,86,1366,649,1366,768,8-29-2022,11-36-37,23,depth_duration_stimuli/001617_2014-06-20_11-35-32_260595134347_rgbf000066-resize_1/001617_2014-06-20_11-35-32_260595134347_rgbf000066-resize_1-target.png,1000,3.7910000000000004,9.0,3571,996,feet,jsons/v1_VE1000_randls_57.json,810964,1068502,42,Woman
23,897458,DepthScenes,duration_manipulation_targetAtFixation,jsons/v1_VE1000_randls_57.json,http://54.235.29.9/FacialAge/BNav_EC2/DepthDuration/v2_depth_duration_MTurk/v2_DepthDuration_HTML.html#86,86,1366,649,1366,768,8-29-2022,11-36-37,24,depth_duration_stimuli/000009_2014-05-26_14-32-05_260595134347_rgbf000034-resize_3/000009_2014-05-26_14-32-05_260595134347_rgbf000034-resize_3-target.png,1000,3.8715,12.0,9880,998,feet,jsons/v1_VE1000_randls_57.json,810964,1068502,42,Woman
24,897458,DepthScenes,duration_manipulation_targetAtFixation,jsons/v1_VE1000_randls_57.json,http://54.235.29.9/FacialAge/BNav_EC2/DepthDuration/v2_depth_duration_MTurk/v2_DepthDuration_HTML.html#86,86,1366,649,1366,768,8-29-2022,11-36-37,25,depth_duration_stimuli/001828_2014-06-26_21-40-03_260595134347_rgbf000024-resize_0/001828_2014-06-26_21-40-03_260595134347_rgbf000024-resize_0-target.png,1000,4.8260000000000005,11.0,3811,999,feet,jsons/v1_VE1000_randls_57.json,810964,1068502,42,Woman
25,897458,DepthScenes,duration_manipulation_targetAtFixation,jsons/v1_VE1000_randls_57.json,http://54.235.29.9/FacialAge/BNav_EC2/DepthDuration/v2_depth_duration_MTurk/v2_DepthDuration_HTML.html#86,86,1366,649,1366,768,8-29-2022,11-36-37,26,depth_duration_stimuli/002272_2014-06-28_18-53-56_260595134347_rgbf000067-resize_2/002272_2014-06-28_18-53-56_260595134347_rgbf000067-resize_2-target.png,1000,1.138,3.0,4931,997,feet,jsons/v1_VE1000_randls_57.json,810964,1068502,42,Woman
26,897458,DepthScenes,duration_manipulation_targetAtFixation,jsons/v1_VE1000_randls_57.json,http://54.235.29.9/FacialAge/BNav_EC2/DepthDuration/v2_depth_duration_MTurk/v2_DepthDuration_HTML.html#86,86,1366,649,1366,768,8-29-2022,11-36-37,27,depth_duration_stimuli/001571_2014-06-20_17-21-32_260595134347_rgbf000089-resize_1/001571_2014-06-20_17-21-32_260595134347_rgbf000089-resize_1-target.png,1000,1.86,4.0,4492,996,feet,jsons/v1_VE1000_randls_57.json,810964,1068502,42,Woman
27,897458,DepthScenes,duration_manipulation_targetAtFixation,jsons/v1_VE1000_randls_57.json,http://54.235.29.9/FacialAge/BNav_EC2/DepthDuration/v2_depth_duration_MTurk/v2_DepthDuration_HTML.html#86,86,1366,649,1366,768,8-29-2022,11-36-37,28,depth_duration_stimuli/000773_2014-06-08_22-24-54_260595134347_rgbf000093-resize_1/000773_2014-06-08_22-24-54_260595134347_rgbf000093-resize_1-target.png,1000,4.973,9.0,3401,998,feet,jsons/v1_VE1000_randls_57.json,810964,1068502,42,Woman
28,897458,DepthScenes,duration_manipulation_targetAtFixation,jsons/v1_VE1000_randls_57.json,http://54.235.29.9/FacialAge/BNav_EC2/DepthDuration/v2_depth_duration_MTurk/v2_DepthDuration_HTML.html#86,86,1366,649,1366,768,8-29-2022,11-36-37,29,depth_duration_stimuli/002414_2014-06-28_20-24-58_260595134347_rgbf000067-resize_4/002414_2014-06-28_20-24-58_260595134347_rgbf000067-resize_4-target.png,1000,4.363,14.0,4258,998,feet,jsons/v1_VE1000_randls_57.json,810964,1068502,42,Woman
29,897458,DepthScenes,duration_manipulation_targetAtFixation,jsons/v1_VE1000_randls_57.json,http://54.235.29.9/FacialAge/BNav_EC2/DepthDuration/v2_depth_duration_MTurk/v2_DepthDuration_HTML.html#86,86,1366,649,1366,768,8-29-2022,11-36-37,30,depth_duration_stimuli/000375_2014-06-08_11-17-29_260595134347_rgbf000133-resize_2/000375_2014-06-08_11-17-29_260595134347_rgbf000133-resize-original.jpg,1000,4.718,0.0,3723,999,feet,jsons/v1_VE1000_randls_57.json,810964,1068502,42,Woman
30,897458,DepthScenes,duration_manipulation_targetAtFixation,jsons/v1_VE1000_randls_57.json,http://54.235.29.9/FacialAge/BNav_EC2/DepthDuration/v2_depth_duration_MTurk/v2_DepthDuration_HTML.html#86,86,1366,649,1366,768,8-29-2022,11-36-37,31,depth_duration_stimuli/001158_2014-06-17_15-32-16_260595134347_rgbf000138-resize_2/001158_2014-06-17_15-32-16_260595134347_rgbf000138-resize_2-target.png,1000,4.5315,11.0,4690,995,feet,jsons/v1_VE1000_randls_57.json,810964,1068502,42,Woman
31,897458,DepthScenes,duration_manipulation_targetAtFixation,jsons/v1_VE1000_randls_57.json,http://54.235.29.9/FacialAge/BNav_EC2/DepthDuration/v2_depth_duration_MTurk/v2_DepthDuration_HTML.html#86,86,1366,649,1366,768,8-29-2022,11-36-37,32,depth_duration_stimuli/000556_2014-06-09_22-42-56_260595134347_rgbf000214-resize_1/000556_2014-06-09_22-42-56_260595134347_rgbf000214-resize_1-target.png,1000,4.8415,12.0,3620,996,feet,jsons/v1_VE1000_randls_57.json,810964,1068502,42,Woman
32,897458,DepthScenes,duration_manipulation_targetAtFixation,jsons/v1_VE1000_randls_57.json,http://54.235.29.9/FacialAge/BNav_EC2/DepthDuration/v2_depth_duration_MTurk/v2_DepthDuration_HTML.html#86,86,1366,649,1366,768,8-29-2022,11-36-37,33,depth_duration_stimuli/002375_2014-06-28_20-13-44_260595134347_rgbf000032-resize_1/002375_2014-06-28_20-13-44_260595134347_rgbf000032-resize_1-target.png,1000,4.0175,9.0,3933,999,feet,jsons/v1_VE1000_randls_57.json,810964,1068502,42,Woman
33,897458,DepthScenes,duration_manipulation_targetAtFixation,jsons/v1_VE1000_randls_57.json,http://54.235.29.9/FacialAge/BNav_EC2/DepthDuration/v2_depth_duration_MTurk/v2_DepthDuration_HTML.html#86,86,1366,649,1366,768,8-29-2022,11-36-37,34,depth_duration_stimuli/002657_2014-06-13_15-29-54_094959634447_rgbf000150-resize_1/002657_2014-06-13_15-29-54_094959634447_rgbf000150-resize_1-target.png,1000,4.919,11.0,12013,997,feet,jsons/v1_VE1000_randls_57.json,810964,1068502,42,Woman
34,897458,DepthScenes,duration_manipulation_targetAtFixation,jsons/v1_VE1000_randls_57.json,http://54.235.29.9/FacialAge/BNav_EC2/DepthDuration/v2_depth_duration_MTurk/v2_DepthDuration_HTML.html#86,86,1366,649,1366,768,8-29-2022,11-36-37,35,depth_duration_stimuli/000470_2014-06-09_19-42-40_260595134347_rgbf000094-resize_1/000470_2014-06-09_19-42-40_260595134347_rgbf000094-resize_1-target.png,1000,1.831,3.0,5144,998,feet,jsons/v1_VE1000_randls_57.json,810964,1068502,42,Woman
35,897458,DepthScenes,duration_manipulation_targetAtFixation,jsons/v1_VE1000_randls_57.json,http://54.235.29.9/FacialAge/BNav_EC2/DepthDuration/v2_depth_duration_MTurk/v2_DepthDuration_HTML.html#86,86,1366,649,1366,768,8-29-2022,11-36-37,36,depth_duration_stimuli/000109_2014-05-14_23-41-52_260595134347_rgbf000035-resize_9/000109_2014-05-14_23-41-52_260595134347_rgbf000035-resize_9-target.png,1000,1.3545,2.0,4236,998,feet,jsons/v1_VE1000_randls_57.json,810964,1068502,42,Woman
36,897458,DepthScenes,duration_manipulation_targetAtFixation,jsons/v1_VE1000_randls_57.json,http://54.235.29.9/FacialAge/BNav_EC2/DepthDuration/v2_depth_duration_MTurk/v2_DepthDuration_HTML.html#86,86,1366,649,1366,768,8-29-2022,11-36-37,37,depth_duration_stimuli/002663_2014-06-13_15-50-26_094959634447_rgbf000075-resize_1/002663_2014-06-13_15-50-26_094959634447_rgbf000075-resize_1-target.png,1000,4.7495,19.0,7243,995,feet,jsons/v1_VE1000_randls_57.json,810964,1068502,42,Woman
37,897458,DepthScenes,duration_manipulation_targetAtFixation,jsons/v1_VE1000_randls_57.json,http://54.235.29.9/FacialAge/BNav_EC2/DepthDuration/v2_depth_duration_MTurk/v2_DepthDuration_HTML.html#86,86,1366,649,1366,768,8-29-2022,11-36-37,38,depth_duration_stimuli/000409_2014-06-04_19-23-33_260595134347_rgbf000067-resize_0/000409_2014-06-04_19-23-33_260595134347_rgbf000067-resize_0-target.png,1000,3.7335,7.0,4301,997,feet,jsons/v1_VE1000_randls_57.json,810964,1068502,42,Woman
38,897458,DepthScenes,duration_manipulation_targetAtFixation,jsons/v1_VE1000_randls_57.json,http://54.235.29.9/FacialAge/BNav_EC2/DepthDuration/v2_depth_duration_MTurk/v2_DepthDuration_HTML.html#86,86,1366,649,1366,768,8-29-2022,11-36-37,39,depth_duration_stimuli/002630_2014-06-24_14-47-50_094959634447_rgbf000055-resize_1/002630_2014-06-24_14-47-50_094959634447_rgbf000055-resize_1-target.png,1000,3.0095,13.0,3997,999,feet,jsons/v1_VE1000_randls_57.json,810964,1068502,42,Woman
39,897458,DepthScenes,duration_manipulation_targetAtFixation,jsons/v1_VE1000_randls_57.json,http://54.235.29.9/FacialAge/BNav_EC2/DepthDuration/v2_depth_duration_MTurk/v2_DepthDuration_HTML.html#86,86,1366,649,1366,768,8-29-2022,11-36-37,40,depth_duration_stimuli/002758_2014-06-22_19-11-20_094959634447_rgbf000128-resize_1/002758_2014-06-22_19-11-20_094959634447_rgbf000128-resize_1-target.png,1000,2.555,7.0,5522,998,feet,jsons/v1_VE1000_randls_57.json,810964,1068502,42,Woman
40,897458,DepthScenes,duration_manipulation_targetAtFixation,jsons/v1_VE1000_randls_57.json,http://54.235.29.9/FacialAge/BNav_EC2/DepthDuration/v2_depth_duration_MTurk/v2_DepthDuration_HTML.html#86,86,1366,649,1366,768,8-29-2022,11-36-37,41,depth_duration_stimuli/000436_2014-06-09_22-25-11_260595134347_rgbf000137-resize_1/000436_2014-06-09_22-25-11_260595134347_rgbf000137-resize_1-target.png,1000,4.0705,13.0,4760,997,feet,jsons/v1_VE1000_randls_57.json,810964,1068502,42,Woman
41,897458,DepthScenes,duration_manipulation_targetAtFixation,jsons/v1_VE1000_randls_57.json,http://54.235.29.9/FacialAge/BNav_EC2/DepthDuration/v2_depth_duration_MTurk/v2_DepthDuration_HTML.html#86,86,1366,649,1366,768,8-29-2022,11-36-37,42,depth_duration_stimuli/002444_2014-06-28_20-32-08_260595134347_rgbf000027-resize_0/002444_2014-06-28_20-32-08_260595134347_rgbf000027-resize_0-target.png,1000,4.388999999999999,12.0,3809,991,feet,jsons/v1_VE1000_randls_57.json,810964,1068502,42,Woman
42,897458,DepthScenes,duration_manipulation_targetAtFixation,jsons/v1_VE1000_randls_57.json,http://54.235.29.9/FacialAge/BNav_EC2/DepthDuration/v2_depth_duration_MTurk/v2_DepthDuration_HTML.html#86,86,1366,649,1366,768,8-29-2022,11-36-37,43,depth_duration_stimuli/002039_2014-06-24_20-22-38_260595134347_rgbf000084-resize_1/002039_2014-06-24_20-22-38_260595134347_rgbf000084-resize_1-target.png,1000,4.408,12.0,4879,1000,feet,jsons/v1_VE1000_randls_57.json,810964,1068502,42,Woman
43,897458,DepthScenes,duration_manipulation_targetAtFixation,jsons/v1_VE1000_randls_57.json,http://54.235.29.9/FacialAge/BNav_EC2/DepthDuration/v2_depth_duration_MTurk/v2_DepthDuration_HTML.html#86,86,1366,649,1366,768,8-29-2022,11-36-37,44,depth_duration_stimuli/002103_2014-06-25_20-00-40_260595134347_rgbf000049-resize_0/002103_2014-06-25_20-00-40_260595134347_rgbf000049-resize_0-target.png,1000,4.105,11.0,3726,1003,feet,jsons/v1_VE1000_randls_57.json,810964,1068502,42,Woman
44,897458,DepthScenes,duration_manipulation_targetAtFixation,jsons/v1_VE1000_randls_57.json,http://54.235.29.9/FacialAge/BNav_EC2/DepthDuration/v2_depth_duration_MTurk/v2_DepthDuration_HTML.html#86,86,1366,649,1366,768,8-29-2022,11-36-37,45,depth_duration_stimuli/000787_2014-06-08_22-33-53_260595134347_rgbf000175-resize_1/000787_2014-06-08_22-33-53_260595134347_rgbf000175-resize-original.jpg,1000,4.784,0.0,3501,998,feet,jsons/v1_VE1000_randls_57.json,810964,1068502,42,Woman
45,897458,DepthScenes,duration_manipulation_targetAtFixation,jsons/v1_VE1000_randls_57.json,http://54.235.29.9/FacialAge/BNav_EC2/DepthDuration/v2_depth_duration_MTurk/v2_DepthDuration_HTML.html#86,86,1366,649,1366,768,8-29-2022,11-36-37,46,depth_duration_stimuli/000739_2014-06-08_18-45-58_260595134347_rgbf000068-resize_1/000739_2014-06-08_18-45-58_260595134347_rgbf000068-resize_1-target.png,1000,3.534,8.0,3347,998,feet,jsons/v1_VE1000_randls_57.json,810964,1068502,42,Woman
46,897458,DepthScenes,duration_manipulation_targetAtFixation,jsons/v1_VE1000_randls_57.json,http://54.235.29.9/FacialAge/BNav_EC2/DepthDuration/v2_depth_duration_MTurk/v2_DepthDuration_HTML.html#86,86,1366,649,1366,768,8-29-2022,11-36-37,47,depth_duration_stimuli/000734_2014-06-08_17-39-11_260595134347_rgbf000128-resize_2/000734_2014-06-08_17-39-11_260595134347_rgbf000128-resize_2-target.png,1000,4.098,7.0,4264,997,feet,jsons/v1_VE1000_randls_57.json,810964,1068502,42,Woman
47,897458,DepthScenes,duration_manipulation_targetAtFixation,jsons/v1_VE1000_randls_57.json,http://54.235.29.9/FacialAge/BNav_EC2/DepthDuration/v2_depth_duration_MTurk/v2_DepthDuration_HTML.html#86,86,1366,649,1366,768,8-29-2022,11-36-37,48,depth_duration_stimuli/000878_2014-06-08_22-52-45_260595134347_rgbf000045-resize_2/000878_2014-06-08_22-52-45_260595134347_rgbf000045-resize_2-target.png,1000,2.092,7.0,4780,995,feet,jsons/v1_VE1000_randls_57.json,810964,1068502,42,Woman
48,897458,DepthScenes,duration_manipulation_targetAtFixation,jsons/v1_VE1000_randls_57.json,http://54.235.29.9/FacialAge/BNav_EC2/DepthDuration/v2_depth_duration_MTurk/v2_DepthDuration_HTML.html#86,86,1366,649,1366,768,8-29-2022,11-36-37,49,depth_duration_stimuli/002953_2014-06-08_17-32-18_094959634447_rgbf000059-resize_5/002953_2014-06-08_17-32-18_094959634447_rgbf000059-resize_5-target.png,1000,1.551,2.0,3907,997,feet,jsons/v1_VE1000_randls_57.json,810964,1068502,42,Woman
49,897458,DepthScenes,duration_manipulation_targetAtFixation,jsons/v1_VE1000_randls_57.json,http://54.235.29.9/FacialAge/BNav_EC2/DepthDuration/v2_depth_duration_MTurk/v2_DepthDuration_HTML.html#86,86,1366,649,1366,768,8-29-2022,11-36-37,50,depth_duration_stimuli/001055_2014-06-08_18-45-35_260595134347_rgbf000111-resize_4/001055_2014-06-08_18-45-35_260595134347_rgbf000111-resize_4-target.png,1000,2.4290000000000003,0.0,3456,998,feet,jsons/v1_VE1000_randls_57.json,810964,1068502,42,Woman
50,897458,DepthScenes,duration_manipulation_targetAtFixation,jsons/v1_VE1000_randls_57.json,http://54.235.29.9/FacialAge/BNav_EC2/DepthDuration/v2_depth_duration_MTurk/v2_DepthDuration_HTML.html#86,86,1366,649,1366,768,8-29-2022,11-36-37,51,depth_duration_stimuli/000549_2014-06-08_22-10-24_260595134347_rgbf000247-resize_3/000549_2014-06-08_22-10-24_260595134347_rgbf000247-resize_3-target.png,1000,1.841,2.0,3994,995,feet,jsons/v1_VE1000_randls_57.json,810964,1068502,42,Woman
51,897458,DepthScenes,duration_manipulation_targetAtFixation,jsons/v1_VE1000_randls_57.json,http://54.235.29.9/FacialAge/BNav_EC2/DepthDuration/v2_depth_duration_MTurk/v2_DepthDuration_HTML.html#86,86,1366,649,1366,768,8-29-2022,11-36-37,52,depth_duration_stimuli/002279_2014-06-28_18-55-32_260595134347_rgbf000040-resize_5/002279_2014-06-28_18-55-32_260595134347_rgbf000040-resize_5-target.png,1000,1.5043333333333,3.0,3330,998,feet,jsons/v1_VE1000_randls_57.json,810964,1068502,42,Woman
52,897458,DepthScenes,duration_manipulation_targetAtFixation,jsons/v1_VE1000_randls_57.json,http://54.235.29.9/FacialAge/BNav_EC2/DepthDuration/v2_depth_duration_MTurk/v2_DepthDuration_HTML.html#86,86,1366,649,1366,768,8-29-2022,11-36-37,53,depth_duration_stimuli/000635_2014-06-08_16-38-42_260595134347_rgbf000106-resize_1/000635_2014-06-08_16-38-42_260595134347_rgbf000106-resize_1-target.png,1000,2.074,6.0,3524,999,feet,jsons/v1_VE1000_randls_57.json,810964,1068502,42,Woman
53,897458,DepthScenes,duration_manipulation_targetAtFixation,jsons/v1_VE1000_randls_57.json,http://54.235.29.9/FacialAge/BNav_EC2/DepthDuration/v2_depth_duration_MTurk/v2_DepthDuration_HTML.html#86,86,1366,649,1366,768,8-29-2022,11-36-37,54,depth_duration_stimuli/000368_2014-06-09_15-53-01_260595134347_rgbf000155-resize_2/000368_2014-06-09_15-53-01_260595134347_rgbf000155-resize_2-target.png,1000,2.4859999999999998,6.0,4113,997,feet,jsons/v1_VE1000_randls_57.json,810964,1068502,42,Woman
54,897458,DepthScenes,duration_manipulation_targetAtFixation,jsons/v1_VE1000_randls_57.json,http://54.235.29.9/FacialAge/BNav_EC2/DepthDuration/v2_depth_duration_MTurk/v2_DepthDuration_HTML.html#86,86,1366,649,1366,768,8-29-2022,11-36-37,55,depth_duration_stimuli/002678_2014-06-13_16-15-32_094959634447_rgbf000151-resize_6/002678_2014-06-13_16-15-32_094959634447_rgbf000151-resize_6-target.png,1000,2.1830000000000003,11.0,5366,1000,feet,jsons/v1_VE1000_randls_57.json,810964,1068502,42,Woman
55,897458,DepthScenes,duration_manipulation_targetAtFixation,jsons/v1_VE1000_randls_57.json,http://54.235.29.9/FacialAge/BNav_EC2/DepthDuration/v2_depth_duration_MTurk/v2_DepthDuration_HTML.html#86,86,1366,649,1366,768,8-29-2022,11-36-37,56,depth_duration_stimuli/001555_2014-06-20_17-12-10_260595134347_rgbf000065-resize_4/001555_2014-06-20_17-12-10_260595134347_rgbf000065-resize_4-target.png,1000,1.633,2.0,3230,997,feet,jsons/v1_VE1000_randls_57.json,810964,1068502,42,Woman
56,897458,DepthScenes,duration_manipulation_targetAtFixation,jsons/v1_VE1000_randls_57.json,http://54.235.29.9/FacialAge/BNav_EC2/DepthDuration/v2_depth_duration_MTurk/v2_DepthDuration_HTML.html#86,86,1366,649,1366,768,8-29-2022,11-36-37,57,depth_duration_stimuli/000103_2014-05-14_22-01-17_260595134347_rgbf000152-resize_5/000103_2014-05-14_22-01-17_260595134347_rgbf000152-resize_5-target.png,1000,1.993,7.0,3569,997,feet,jsons/v1_VE1000_randls_57.json,810964,1068502,42,Woman
57,897458,DepthScenes,duration_manipulation_targetAtFixation,jsons/v1_VE1000_randls_57.json,http://54.235.29.9/FacialAge/BNav_EC2/DepthDuration/v2_depth_duration_MTurk/v2_DepthDuration_HTML.html#86,86,1366,649,1366,768,8-29-2022,11-36-37,58,depth_duration_stimuli/002748_2014-06-22_19-07-22_094959634447_rgbf000078-resize_1/002748_2014-06-22_19-07-22_094959634447_rgbf000078-resize_1-target.png,1000,4.6705,111.0,3356,996,feet,jsons/v1_VE1000_randls_57.json,810964,1068502,42,Woman
58,897458,DepthScenes,duration_manipulation_targetAtFixation,jsons/v1_VE1000_randls_57.json,http://54.235.29.9/FacialAge/BNav_EC2/DepthDuration/v2_depth_duration_MTurk/v2_DepthDuration_HTML.html#86,86,1366,649,1366,768,8-29-2022,11-36-37,59,depth_duration_stimuli/002995_2014-06-15_12-31-26_094959634447_rgbf000150-resize_1/002995_2014-06-15_12-31-26_094959634447_rgbf000150-resize_1-target.png,1000,3.8360000000000003,0.0,4404,997,feet,jsons/v1_VE1000_randls_57.json,810964,1068502,42,Woman
59,897458,DepthScenes,duration_manipulation_targetAtFixation,jsons/v1_VE1000_randls_57.json,http://54.235.29.9/FacialAge/BNav_EC2/DepthDuration/v2_depth_duration_MTurk/v2_DepthDuration_HTML.html#86,86,1366,649,1366,768,8-29-2022,11-36-37,60,depth_duration_stimuli/000414_2014-06-04_19-49-13_260595134347_rgbf000044-resize_0/000414_2014-06-04_19-49-13_260595134347_rgbf000044-resize_0-target.png,1000,4.329,15.0,5114,996,feet,jsons/v1_VE1000_randls_57.json,810964,1068502,42,Woman
60,897458,DepthScenes,duration_manipulation_targetAtFixation,jsons/v1_VE1000_randls_57.json,http://54.235.29.9/FacialAge/BNav_EC2/DepthDuration/v2_depth_duration_MTurk/v2_DepthDuration_HTML.html#86,86,1366,649,1366,768,8-29-2022,11-36-37,61,depth_duration_stimuli/003129_2014-05-12_10-48-10_094959634447_rgbf000100-resize_0/003129_2014-05-12_10-48-10_094959634447_rgbf000100-resize_0-target.png,1000,4.9305,11.0,4554,998,feet,jsons/v1_VE1000_randls_57.json,810964,1068502,42,Woman
61,897458,DepthScenes,duration_manipulation_targetAtFixation,jsons/v1_VE1000_randls_57.json,http://54.235.29.9/FacialAge/BNav_EC2/DepthDuration/v2_depth_duration_MTurk/v2_DepthDuration_HTML.html#86,86,1366,649,1366,768,8-29-2022,11-36-37,62,depth_duration_stimuli/003492_2014-05-21_15-50-55_094959634447_rgbf000828-resize_1/003492_2014-05-21_15-50-55_094959634447_rgbf000828-resize_1-target.png,1000,4.06875,11.0,3706,999,feet,jsons/v1_VE1000_randls_57.json,810964,1068502,42,Woman
62,897458,DepthScenes,duration_manipulation_targetAtFixation,jsons/v1_VE1000_randls_57.json,http://54.235.29.9/FacialAge/BNav_EC2/DepthDuration/v2_depth_duration_MTurk/v2_DepthDuration_HTML.html#86,86,1366,649,1366,768,8-29-2022,11-36-37,63,depth_duration_stimuli/002568_2014-06-24_13-59-21_094959634447_rgbf000062-resize_4/002568_2014-06-24_13-59-21_094959634447_rgbf000062-resize_4-target.png,1000,3.015,11.0,5695,996,feet,jsons/v1_VE1000_randls_57.json,810964,1068502,42,Woman
63,897458,DepthScenes,duration_manipulation_targetAtFixation,jsons/v1_VE1000_randls_57.json,http://54.235.29.9/FacialAge/BNav_EC2/DepthDuration/v2_depth_duration_MTurk/v2_DepthDuration_HTML.html#86,86,1366,649,1366,768,8-29-2022,11-36-37,64,depth_duration_stimuli/000486_2014-06-09_20-47-20_260595134347_rgbf000143-resize_2/000486_2014-06-09_20-47-20_260595134347_rgbf000143-resize_2-target.png,1000,4.8325,13.0,5429,1002,feet,jsons/v1_VE1000_randls_57.json,810964,1068502,42,Woman
64,897458,DepthScenes,duration_manipulation_targetAtFixation,jsons/v1_VE1000_randls_57.json,http://54.235.29.9/FacialAge/BNav_EC2/DepthDuration/v2_depth_duration_MTurk/v2_DepthDuration_HTML.html#86,86,1366,649,1366,768,8-29-2022,11-36-37,65,depth_duration_stimuli/003083_2014-06-15_15-21-03_094959634447_rgbf000063-resize_1/003083_2014-06-15_15-21-03_094959634447_rgbf000063-resize_1-target.png,1000,4.1405,13.0,4308,999,feet,jsons/v1_VE1000_randls_57.json,810964,1068502,42,Woman
65,897458,DepthScenes,duration_manipulation_targetAtFixation,jsons/v1_VE1000_randls_57.json,http://54.235.29.9/FacialAge/BNav_EC2/DepthDuration/v2_depth_duration_MTurk/v2_DepthDuration_HTML.html#86,86,1366,649,1366,768,8-29-2022,11-36-37,66,depth_duration_stimuli/001222_2014-06-17_16-24-06_260595134347_rgbf000073-resize_0/001222_2014-06-17_16-24-06_260595134347_rgbf000073-resize-original.jpg,1000,1.4385,0.0,3853,996,feet,jsons/v1_VE1000_randls_57.json,810964,1068502,42,Woman
66,897458,DepthScenes,duration_manipulation_targetAtFixation,jsons/v1_VE1000_randls_57.json,http://54.235.29.9/FacialAge/BNav_EC2/DepthDuration/v2_depth_duration_MTurk/v2_DepthDuration_HTML.html#86,86,1366,649,1366,768,8-29-2022,11-36-37,67,depth_duration_stimuli/001199_2014-06-17_16-03-48_260595134347_rgbf000077-resize_0/001199_2014-06-17_16-03-48_260595134347_rgbf000077-resize_0-target.png,1000,3.4375,11.0,4083,998,feet,jsons/v1_VE1000_randls_57.json,810964,1068502,42,Woman
67,897458,DepthScenes,duration_manipulation_targetAtFixation,jsons/v1_VE1000_randls_57.json,http://54.235.29.9/FacialAge/BNav_EC2/DepthDuration/v2_depth_duration_MTurk/v2_DepthDuration_HTML.html#86,86,1366,649,1366,768,8-29-2022,11-36-37,68,depth_duration_stimuli/000502_2014-06-08_23-02-32_260595134347_rgbf000063-resize_4/000502_2014-06-08_23-02-32_260595134347_rgbf000063-resize_4-target.png,1000,2.431,11.0,4305,997,feet,jsons/v1_VE1000_randls_57.json,810964,1068502,42,Woman
68,897458,DepthScenes,duration_manipulation_targetAtFixation,jsons/v1_VE1000_randls_57.json,http://54.235.29.9/FacialAge/BNav_EC2/DepthDuration/v2_depth_duration_MTurk/v2_DepthDuration_HTML.html#86,86,1366,649,1366,768,8-29-2022,11-36-37,69,depth_duration_stimuli/000810_2014-06-08_17-20-01_260595134347_rgbf000105-resize_0/000810_2014-06-08_17-20-01_260595134347_rgbf000105-resize_0-target.png,1000,1.4865,5.0,6847,998,feet,jsons/v1_VE1000_randls_57.json,810964,1068502,42,Woman
69,897458,DepthScenes,duration_manipulation_targetAtFixation,jsons/v1_VE1000_randls_57.json,http://54.235.29.9/FacialAge/BNav_EC2/DepthDuration/v2_depth_duration_MTurk/v2_DepthDuration_HTML.html#86,86,1366,649,1366,768,8-29-2022,11-36-37,70,depth_duration_stimuli/001214_2014-06-17_16-13-55_260595134347_rgbf000111-resize_0/001214_2014-06-17_16-13-55_260595134347_rgbf000111-resize_0-target.png,1000,2.6505,5.0,4909,995,feet,jsons/v1_VE1000_randls_57.json,810964,1068502,42,Woman
70,897458,DepthScenes,duration_manipulation_targetAtFixation,jsons/v1_VE1000_randls_57.json,http://54.235.29.9/FacialAge/BNav_EC2/DepthDuration/v2_depth_duration_MTurk/v2_DepthDuration_HTML.html#86,86,1366,649,1366,768,8-29-2022,11-36-37,71,depth_duration_stimuli/002509_2014-06-24_13-19-22_094959634447_rgbf000077-resize_0/002509_2014-06-24_13-19-22_094959634447_rgbf000077-resize_0-target.png,1000,1.3065,3.0,4754,997,feet,jsons/v1_VE1000_randls_57.json,810964,1068502,42,Woman
71,897458,DepthScenes,duration_manipulation_targetAtFixation,jsons/v1_VE1000_randls_57.json,http://54.235.29.9/FacialAge/BNav_EC2/DepthDuration/v2_depth_duration_MTurk/v2_DepthDuration_HTML.html#86,86,1366,649,1366,768,8-29-2022,11-36-37,72,depth_duration_stimuli/003338_2014-05-20_11-01-23_094959634447_rgbf000051-resize_6/003338_2014-05-20_11-01-23_094959634447_rgbf000051-resize_6-target.png,1000,1.693,3.0,6077,996,feet,jsons/v1_VE1000_randls_57.json,810964,1068502,42,Woman
72,897458,DepthScenes,duration_manipulation_targetAtFixation,jsons/v1_VE1000_randls_57.json,http://54.235.29.9/FacialAge/BNav_EC2/DepthDuration/v2_depth_duration_MTurk/v2_DepthDuration_HTML.html#86,86,1366,649,1366,768,8-29-2022,11-36-37,73,depth_duration_stimuli/000682_2014-06-08_23-14-58_260595134347_rgbf000041-resize_5/000682_2014-06-08_23-14-58_260595134347_rgbf000041-resize_5-target.png,1000,2.7239999999999998,5.0,5267,999,feet,jsons/v1_VE1000_randls_57.json,810964,1068502,42,Woman
73,897458,DepthScenes,duration_manipulation_targetAtFixation,jsons/v1_VE1000_randls_57.json,http://54.235.29.9/FacialAge/BNav_EC2/DepthDuration/v2_depth_duration_MTurk/v2_DepthDuration_HTML.html#86,86,1366,649,1366,768,8-29-2022,11-36-37,74,depth_duration_stimuli/001650_2014-06-20_12-09-00_260595134347_rgbf000087-resize_3/001650_2014-06-20_12-09-00_260595134347_rgbf000087-resize_3-target.png,1000,1.9505,2.0,4327,997,feet,jsons/v1_VE1000_randls_57.json,810964,1068502,42,Woman
74,897458,DepthScenes,duration_manipulation_targetAtFixation,jsons/v1_VE1000_randls_57.json,http://54.235.29.9/FacialAge/BNav_EC2/DepthDuration/v2_depth_duration_MTurk/v2_DepthDuration_HTML.html#86,86,1366,649,1366,768,8-29-2022,11-36-37,75,depth_duration_stimuli/001059_2014-06-08_21-53-27_260595134347_rgbf000061-resize_4/001059_2014-06-08_21-53-27_260595134347_rgbf000061-resize_4-target.png,1000,2.4185,5.0,4010,995,feet,jsons/v1_VE1000_randls_57.json,810964,1068502,42,Woman
75,897458,DepthScenes,duration_manipulation_targetAtFixation,jsons/v1_VE1000_randls_57.json,http://54.235.29.9/FacialAge/BNav_EC2/DepthDuration/v2_depth_duration_MTurk/v2_DepthDuration_HTML.html#86,86,1366,649,1366,768,8-29-2022,11-36-37,76,depth_duration_stimuli/001032_2014-06-08_13-23-17_260595134347_rgbf000021-resize_3/001032_2014-06-08_13-23-17_260595134347_rgbf000021-resize_3-target.png,1000,3.2725,7.0,5189,1000,feet,jsons/v1_VE1000_randls_57.json,810964,1068502,42,Woman
76,897458,DepthScenes,duration_manipulation_targetAtFixation,jsons/v1_VE1000_randls_57.json,http://54.235.29.9/FacialAge/BNav_EC2/DepthDuration/v2_depth_duration_MTurk/v2_DepthDuration_HTML.html#86,86,1366,649,1366,768,8-29-2022,11-36-37,77,depth_duration_stimuli/000522_2014-06-08_13-35-06_260595134347_rgbf000244-resize_1/000522_2014-06-08_13-35-06_260595134347_rgbf000244-resize_1-target.png,1000,2.3715,2.0,3151,999,feet,jsons/v1_VE1000_randls_57.json,810964,1068502,42,Woman
77,897458,DepthScenes,duration_manipulation_targetAtFixation,jsons/v1_VE1000_randls_57.json,http://54.235.29.9/FacialAge/BNav_EC2/DepthDuration/v2_depth_duration_MTurk/v2_DepthDuration_HTML.html#86,86,1366,649,1366,768,8-29-2022,11-36-37,78,depth_duration_stimuli/002949_2014-06-26_15-57-42_094959634447_rgbf000079-resize_1/002949_2014-06-26_15-57-42_094959634447_rgbf000079-resize_1-target.png,1000,1.8915,3.0,3233,998,feet,jsons/v1_VE1000_randls_57.json,810964,1068502,42,Woman
78,897458,DepthScenes,duration_manipulation_targetAtFixation,jsons/v1_VE1000_randls_57.json,http://54.235.29.9/FacialAge/BNav_EC2/DepthDuration/v2_depth_duration_MTurk/v2_DepthDuration_HTML.html#86,86,1366,649,1366,768,8-29-2022,11-36-37,79,depth_duration_stimuli/001110_2014-06-15_17-25-28_260595134347_rgbf000150-resize_1/001110_2014-06-15_17-25-28_260595134347_rgbf000150-resize_1-target.png,1000,1.7115,5.0,4109,997,feet,jsons/v1_VE1000_randls_57.json,810964,1068502,42,Woman
79,897458,DepthScenes,duration_manipulation_targetAtFixation,jsons/v1_VE1000_randls_57.json,http://54.235.29.9/FacialAge/BNav_EC2/DepthDuration/v2_depth_duration_MTurk/v2_DepthDuration_HTML.html#86,86,1366,649,1366,768,8-29-2022,11-36-37,80,depth_duration_stimuli/000927_2014-06-09_16-32-30_260595134347_rgbf000123-resize_3/000927_2014-06-09_16-32-30_260595134347_rgbf000123-resize_3-target.png,1000,2.6785,5.0,4517,996,feet,jsons/v1_VE1000_randls_57.json,810964,1068502,42,Woman
80,897458,DepthScenes,duration_manipulation_targetAtFixation,jsons/v1_VE1000_randls_57.json,http://54.235.29.9/FacialAge/BNav_EC2/DepthDuration/v2_depth_duration_MTurk/v2_DepthDuration_HTML.html#86,86,1366,649,1366,768,8-29-2022,11-36-37,81,depth_duration_stimuli/001810_2014-06-26_20-51-35_260595134347_rgbf000040-resize_3/001810_2014-06-26_20-51-35_260595134347_rgbf000040-resize_3-target.png,1000,2.2525,4.0,4139,996,feet,jsons/v1_VE1000_randls_57.json,810964,1068502,42,Woman
81,897458,DepthScenes,duration_manipulation_targetAtFixation,jsons/v1_VE1000_randls_57.json,http://54.235.29.9/FacialAge/BNav_EC2/DepthDuration/v2_depth_duration_MTurk/v2_DepthDuration_HTML.html#86,86,1366,649,1366,768,8-29-2022,11-36-37,82,depth_duration_stimuli/003010_2014-06-15_12-54-35_094959634447_rgbf000112-resize_0/003010_2014-06-15_12-54-35_094959634447_rgbf000112-resize_0-target.png,1000,3.1185,8.0,4563,996,feet,jsons/v1_VE1000_randls_57.json,810964,1068502,42,Woman
82,897458,DepthScenes,duration_manipulation_targetAtFixation,jsons/v1_VE1000_randls_57.json,http://54.235.29.9/FacialAge/BNav_EC2/DepthDuration/v2_depth_duration_MTurk/v2_DepthDuration_HTML.html#86,86,1366,649,1366,768,8-29-2022,11-36-37,83,depth_duration_stimuli/000929_2014-06-09_16-33-19_260595134347_rgbf000139-resize_0/000929_2014-06-09_16-33-19_260595134347_rgbf000139-resize_0-target.png,1000,2.8680000000000003,6.0,4378,998,feet,jsons/v1_VE1000_randls_57.json,810964,1068502,42,Woman
83,897458,DepthScenes,duration_manipulation_targetAtFixation,jsons/v1_VE1000_randls_57.json,http://54.235.29.9/FacialAge/BNav_EC2/DepthDuration/v2_depth_duration_MTurk/v2_DepthDuration_HTML.html#86,86,1366,649,1366,768,8-29-2022,11-36-37,84,depth_duration_stimuli/000457_2014-06-08_16-52-43_260595134347_rgbf000199-resize_1/000457_2014-06-08_16-52-43_260595134347_rgbf000199-resize_1-target.png,1000,3.6489999999999996,6.0,4442,999,feet,jsons/v1_VE1000_randls_57.json,810964,1068502,42,Woman
84,897458,DepthScenes,duration_manipulation_targetAtFixation,jsons/v1_VE1000_randls_57.json,http://54.235.29.9/FacialAge/BNav_EC2/DepthDuration/v2_depth_duration_MTurk/v2_DepthDuration_HTML.html#86,86,1366,649,1366,768,8-29-2022,11-36-37,85,depth_duration_stimuli/002057_2014-06-24_21-00-13_260595134347_rgbf000120-resize_1/002057_2014-06-24_21-00-13_260595134347_rgbf000120-resize_1-target.png,1000,2.967,5.0,14158,997,feet,jsons/v1_VE1000_randls_57.json,810964,1068502,42,Woman
85,897458,DepthScenes,duration_manipulation_targetAtFixation,jsons/v1_VE1000_randls_57.json,http://54.235.29.9/FacialAge/BNav_EC2/DepthDuration/v2_depth_duration_MTurk/v2_DepthDuration_HTML.html#86,86,1366,649,1366,768,8-29-2022,11-36-37,86,depth_duration_stimuli/000709_2014-06-08_13-51-55_260595134347_rgbf000068-resize_3/000709_2014-06-08_13-51-55_260595134347_rgbf000068-resize_3-target.png,1000,1.8030000000000002,5.0,4962,999,feet,jsons/v1_VE1000_randls_57.json,810964,1068502,42,Woman
86,897458,DepthScenes,duration_manipulation_targetAtFixation,jsons/v1_VE1000_randls_57.json,http://54.235.29.9/FacialAge/BNav_EC2/DepthDuration/v2_depth_duration_MTurk/v2_DepthDuration_HTML.html#86,86,1366,649,1366,768,8-29-2022,11-36-37,87,depth_duration_stimuli/001175_2014-06-17_15-45-55_260595134347_rgbf000129-resize_4/001175_2014-06-17_15-45-55_260595134347_rgbf000129-resize_4-target.png,1000,4.255,8.0,9983,996,feet,jsons/v1_VE1000_randls_57.json,810964,1068502,42,Woman
87,897458,DepthScenes,duration_manipulation_targetAtFixation,jsons/v1_VE1000_randls_57.json,http://54.235.29.9/FacialAge/BNav_EC2/DepthDuration/v2_depth_duration_MTurk/v2_DepthDuration_HTML.html#86,86,1366,649,1366,768,8-29-2022,11-36-37,88,depth_duration_stimuli/003490_2014-05-21_15-50-11_094959634447_rgbf000101-resize_3/003490_2014-05-21_15-50-11_094959634447_rgbf000101-resize_3-target.png,1000,3.6445,8.0,5330,1000,feet,jsons/v1_VE1000_randls_57.json,810964,1068502,42,Woman
88,897458,DepthScenes,duration_manipulation_targetAtFixation,jsons/v1_VE1000_randls_57.json,http://54.235.29.9/FacialAge/BNav_EC2/DepthDuration/v2_depth_duration_MTurk/v2_DepthDuration_HTML.html#86,86,1366,649,1366,768,8-29-2022,11-36-37,89,depth_duration_stimuli/001808_2014-06-26_20-50-58_260595134347_rgbf000029-resize_1/001808_2014-06-26_20-50-58_260595134347_rgbf000029-resize_1-target.png,1000,4.249,9.0,3866,996,feet,jsons/v1_VE1000_randls_57.json,810964,1068502,42,Woman
89,897458,DepthScenes,duration_manipulation_targetAtFixation,jsons/v1_VE1000_randls_57.json,http://54.235.29.9/FacialAge/BNav_EC2/DepthDuration/v2_depth_duration_MTurk/v2_DepthDuration_HTML.html#86,86,1366,649,1366,768,8-29-2022,11-36-37,90,depth_duration_stimuli/001815_2014-06-26_20-52-55_260595134347_rgbf000020-resize_0/001815_2014-06-26_20-52-55_260595134347_rgbf000020-resize_0-target.png,1000,3.3865,9.0,5063,995,feet,jsons/v1_VE1000_randls_57.json,810964,1068502,42,Woman
90,897458,DepthScenes,duration_manipulation_targetAtFixation,jsons/v1_VE1000_randls_57.json,http://54.235.29.9/FacialAge/BNav_EC2/DepthDuration/v2_depth_duration_MTurk/v2_DepthDuration_HTML.html#86,86,1366,649,1366,768,8-29-2022,11-36-37,91,depth_duration_stimuli/002905_2014-06-03_18-04-43_094959634447_rgbf000151-resize_2/002905_2014-06-03_18-04-43_094959634447_rgbf000151-resize_2-target.png,1000,2.0295,4.0,3815,996,feet,jsons/v1_VE1000_randls_57.json,810964,1068502,42,Woman
91,897458,DepthScenes,duration_manipulation_targetAtFixation,jsons/v1_VE1000_randls_57.json,http://54.235.29.9/FacialAge/BNav_EC2/DepthDuration/v2_depth_duration_MTurk/v2_DepthDuration_HTML.html#86,86,1366,649,1366,768,8-29-2022,11-36-37,92,depth_duration_stimuli/003423_2014-05-21_10-23-26_094959634447_rgbf002665-resize_2/003423_2014-05-21_10-23-26_094959634447_rgbf002665-resize_2-target.png,1000,3.2575,11.0,4307,998,feet,jsons/v1_VE1000_randls_57.json,810964,1068502,42,Woman
92,897458,DepthScenes,duration_manipulation_targetAtFixation,jsons/v1_VE1000_randls_57.json,http://54.235.29.9/FacialAge/BNav_EC2/DepthDuration/v2_depth_duration_MTurk/v2_DepthDuration_HTML.html#86,86,1366,649,1366,768,8-29-2022,11-36-37,93,depth_duration_stimuli/000493_2014-06-09_21-01-18_260595134347_rgbf000196-resize_3/000493_2014-06-09_21-01-18_260595134347_rgbf000196-resize_3-target.png,1000,3.44,7.0,6210,998,feet,jsons/v1_VE1000_randls_57.json,810964,1068502,42,Woman
93,897458,DepthScenes,duration_manipulation_targetAtFixation,jsons/v1_VE1000_randls_57.json,http://54.235.29.9/FacialAge/BNav_EC2/DepthDuration/v2_depth_duration_MTurk/v2_DepthDuration_HTML.html#86,86,1366,649,1366,768,8-29-2022,11-36-37,94,depth_duration_stimuli/000191_2014-05-12_17-07-38_260595134347_rgbf000199-resize_0/000191_2014-05-12_17-07-38_260595134347_rgbf000199-resize_0-target.png,1000,3.7995,13.0,4103,997,feet,jsons/v1_VE1000_randls_57.json,810964,1068502,42,Woman
94,897458,DepthScenes,duration_manipulation_targetAtFixation,jsons/v1_VE1000_randls_57.json,http://54.235.29.9/FacialAge/BNav_EC2/DepthDuration/v2_depth_duration_MTurk/v2_DepthDuration_HTML.html#86,86,1366,649,1366,768,8-29-2022,11-36-37,95,depth_duration_stimuli/001016_2014-06-09_16-16-10_260595134347_rgbf000112-resize_5/001016_2014-06-09_16-16-10_260595134347_rgbf000112-resize_5-target.png,1000,1.6565,4.0,3644,996,feet,jsons/v1_VE1000_randls_57.json,810964,1068502,42,Woman
95,897458,DepthScenes,duration_manipulation_targetAtFixation,jsons/v1_VE1000_randls_57.json,http://54.235.29.9/FacialAge/BNav_EC2/DepthDuration/v2_depth_duration_MTurk/v2_DepthDuration_HTML.html#86,86,1366,649,1366,768,8-29-2022,11-36-37,96,depth_duration_stimuli/002340_2014-06-28_20-05-46_260595134347_rgbf000113-resize_0/002340_2014-06-28_20-05-46_260595134347_rgbf000113-resize_0-target.png,1000,2.4735,9.0,3870,997,feet,jsons/v1_VE1000_randls_57.json,810964,1068502,42,Woman
96,897458,DepthScenes,duration_manipulation_targetAtFixation,jsons/v1_VE1000_randls_57.json,http://54.235.29.9/FacialAge/BNav_EC2/DepthDuration/v2_depth_duration_MTurk/v2_DepthDuration_HTML.html#86,86,1366,649,1366,768,8-29-2022,11-36-37,97,depth_duration_stimuli/001029_2014-06-08_13-17-57_260595134347_rgbf000065-resize_1/001029_2014-06-08_13-17-57_260595134347_rgbf000065-resize_1-target.png,1000,3.0835,9.0,3276,996,feet,jsons/v1_VE1000_randls_57.json,810964,1068502,42,Woman
97,897458,DepthScenes,duration_manipulation_targetAtFixation,jsons/v1_VE1000_randls_57.json,http://54.235.29.9/FacialAge/BNav_EC2/DepthDuration/v2_depth_duration_MTurk/v2_DepthDuration_HTML.html#86,86,1366,649,1366,768,8-29-2022,11-36-37,98,depth_duration_stimuli/000677_2014-06-08_23-10-32_260595134347_rgbf000158-resize_6/000677_2014-06-08_23-10-32_260595134347_rgbf000158-resize_6-target.png,1000,3.556,9.0,3277,995,feet,jsons/v1_VE1000_randls_57.json,810964,1068502,42,Woman
98,897458,DepthScenes,duration_manipulation_targetAtFixation,jsons/v1_VE1000_randls_57.json,http://54.235.29.9/FacialAge/BNav_EC2/DepthDuration/v2_depth_duration_MTurk/v2_DepthDuration_HTML.html#86,86,1366,649,1366,768,8-29-2022,11-36-37,99,depth_duration_stimuli/001540_2014-06-20_17-01-05_260595134347_rgbf000086-resize_2/001540_2014-06-20_17-01-05_260595134347_rgbf000086-resize-original.jpg,1000,1.459,0.0,5820,997,feet,jsons/v1_VE1000_randls_57.json,810964,1068502,42,Woman
99,897458,DepthScenes,duration_manipulation_targetAtFixation,jsons/v1_VE1000_randls_57.json,http://54.235.29.9/FacialAge/BNav_EC2/DepthDuration/v2_depth_duration_MTurk/v2_DepthDuration_HTML.html#86,86,1366,649,1366,768,8-29-2022,11-36-37,100,depth_duration_stimuli/003534_2014-05-22_15-06-10_094959634447_rgbf000102-resize_4/003534_2014-05-22_15-06-10_094959634447_rgbf000102-resize_4-target.png,1000,1.426,2.0,4485,997,feet,jsons/v1_VE1000_randls_57.json,810964,1068502,42,Woman
100,897458,DepthScenes,duration_manipulation_targetAtFixation,jsons/v1_VE1000_randls_57.json,http://54.235.29.9/FacialAge/BNav_EC2/DepthDuration/v2_depth_duration_MTurk/v2_DepthDuration_HTML.html#86,86,1366,649,1366,768,8-29-2022,11-36-37,101,depth_duration_stimuli/002637_2014-06-24_14-51-13_094959634447_rgbf000066-resize_4/002637_2014-06-24_14-51-13_094959634447_rgbf000066-resize_4-target.png,1000,1.9955,9.0,5313,997,feet,jsons/v1_VE1000_randls_57.json,810964,1068502,42,Woman
101,897458,DepthScenes,duration_manipulation_targetAtFixation,jsons/v1_VE1000_randls_57.json,http://54.235.29.9/FacialAge/BNav_EC2/DepthDuration/v2_depth_duration_MTurk/v2_DepthDuration_HTML.html#86,86,1366,649,1366,768,8-29-2022,11-36-37,102,depth_duration_stimuli/002153_2014-06-25_21-27-18_260595134347_rgbf000038-resize_5/002153_2014-06-25_21-27-18_260595134347_rgbf000038-resize_5-target.png,1000,2.505,5.0,5887,995,feet,jsons/v1_VE1000_randls_57.json,810964,1068502,42,Woman
102,897458,DepthScenes,duration_manipulation_targetAtFixation,jsons/v1_VE1000_randls_57.json,http://54.235.29.9/FacialAge/BNav_EC2/DepthDuration/v2_depth_duration_MTurk/v2_DepthDuration_HTML.html#86,86,1366,649,1366,768,8-29-2022,11-36-37,103,depth_duration_stimuli/002660_2014-06-13_15-44-18_094959634447_rgbf001878-resize_2/002660_2014-06-13_15-44-18_094959634447_rgbf001878-resize_2-target.png,1000,3.576,8.0,4842,999,feet,jsons/v1_VE1000_randls_57.json,810964,1068502,42,Woman
103,897458,DepthScenes,duration_manipulation_targetAtFixation,jsons/v1_VE1000_randls_57.json,http://54.235.29.9/FacialAge/BNav_EC2/DepthDuration/v2_depth_duration_MTurk/v2_DepthDuration_HTML.html#86,86,1366,649,1366,768,8-29-2022,11-36-37,104,depth_duration_stimuli/002600_2014-06-24_14-27-04_094959634447_rgbf000074-resize_2/002600_2014-06-24_14-27-04_094959634447_rgbf000074-resize_2-target.png,1000,2.7575,11.0,3762,995,feet,jsons/v1_VE1000_randls_57.json,810964,1068502,42,Woman
104,897458,DepthScenes,duration_manipulation_targetAtFixation,jsons/v1_VE1000_randls_57.json,http://54.235.29.9/FacialAge/BNav_EC2/DepthDuration/v2_depth_duration_MTurk/v2_DepthDuration_HTML.html#86,86,1366,649,1366,768,8-29-2022,11-36-37,105,depth_duration_stimuli/003228_2014-05-14_13-42-35_094959634447_rgbf000101-resize_1/003228_2014-05-14_13-42-35_094959634447_rgbf000101-resize_1-target.png,1000,1.9680000000000002,4.0,3962,996,feet,jsons/v1_VE1000_randls_57.json,810964,1068502,42,Woman
105,897458,DepthScenes,duration_manipulation_targetAtFixation,jsons/v1_VE1000_randls_57.json,http://54.235.29.9/FacialAge/BNav_EC2/DepthDuration/v2_depth_duration_MTurk/v2_DepthDuration_HTML.html#86,86,1366,649,1366,768,8-29-2022,11-36-37,106,depth_duration_stimuli/001011_2014-06-08_23-18-54_260595134347_rgbf000044-resize_4/001011_2014-06-08_23-18-54_260595134347_rgbf000044-resize_4-target.png,1000,2.4730000000000003,6.0,3545,991,feet,jsons/v1_VE1000_randls_57.json,810964,1068502,42,Woman
106,897458,DepthScenes,duration_manipulation_targetAtFixation,jsons/v1_VE1000_randls_57.json,http://54.235.29.9/FacialAge/BNav_EC2/DepthDuration/v2_depth_duration_MTurk/v2_DepthDuration_HTML.html#86,86,1366,649,1366,768,8-29-2022,11-36-37,107,depth_duration_stimuli/002875_2014-06-01_15-19-00_094959634447_rgbf000151-resize_1/002875_2014-06-01_15-19-00_094959634447_rgbf000151-resize_1-target.png,1000,1.9675,6.0,3125,997,feet,jsons/v1_VE1000_randls_57.json,810964,1068502,42,Woman
107,897458,DepthScenes,duration_manipulation_targetAtFixation,jsons/v1_VE1000_randls_57.json,http://54.235.29.9/FacialAge/BNav_EC2/DepthDuration/v2_depth_duration_MTurk/v2_DepthDuration_HTML.html#86,86,1366,649,1366,768,8-29-2022,11-36-37,108,depth_duration_stimuli/001417_2014-06-19_16-25-36_260595134347_rgbf000115-resize_5/001417_2014-06-19_16-25-36_260595134347_rgbf000115-resize_5-target.png,1000,4.6255,13.0,4441,998,feet,jsons/v1_VE1000_randls_57.json,810964,1068502,42,Woman
108,897458,DepthScenes,duration_manipulation_targetAtFixation,jsons/v1_VE1000_randls_57.json,http://54.235.29.9/FacialAge/BNav_EC2/DepthDuration/v2_depth_duration_MTurk/v2_DepthDuration_HTML.html#86,86,1366,649,1366,768,8-29-2022,11-36-37,109,depth_duration_stimuli/003081_2014-06-15_15-19-16_094959634447_rgbf000150-resize_1/003081_2014-06-15_15-19-16_094959634447_rgbf000150-resize_1-target.png,1000,3.9125,11.0,3795,995,feet,jsons/v1_VE1000_randls_57.json,810964,1068502,42,Woman
109,897458,DepthScenes,duration_manipulation_targetAtFixation,jsons/v1_VE1000_randls_57.json,http://54.235.29.9/FacialAge/BNav_EC2/DepthDuration/v2_depth_duration_MTurk/v2_DepthDuration_HTML.html#86,86,1366,649,1366,768,8-29-2022,11-36-37,110,depth_duration_stimuli/003070_2014-06-15_14-58-27_094959634447_rgbf000150-resize_3/003070_2014-06-15_14-58-27_094959634447_rgbf000150-resize_3-target.png,1000,2.9415,9.0,4734,998,feet,jsons/v1_VE1000_randls_57.json,810964,1068502,42,Woman
110,897458,DepthScenes,duration_manipulation_targetAtFixation,jsons/v1_VE1000_randls_57.json,http://54.235.29.9/FacialAge/BNav_EC2/DepthDuration/v2_depth_duration_MTurk/v2_DepthDuration_HTML.html#86,86,1366,649,1366,768,8-29-2022,11-36-37,111,depth_duration_stimuli/000943_2014-06-09_19-31-07_260595134347_rgbf000128-resize_1/000943_2014-06-09_19-31-07_260595134347_rgbf000128-resize_1-target.png,1000,1.9765,4.0,5780,997,feet,jsons/v1_VE1000_randls_57.json,810964,1068502,42,Woman
111,897458,DepthScenes,duration_manipulation_targetAtFixation,jsons/v1_VE1000_randls_57.json,http://54.235.29.9/FacialAge/BNav_EC2/DepthDuration/v2_depth_duration_MTurk/v2_DepthDuration_HTML.html#86,86,1366,649,1366,768,8-29-2022,11-36-37,112,depth_duration_stimuli/000788_2014-06-08_22-34-36_260595134347_rgbf000131-resize_1/000788_2014-06-08_22-34-36_260595134347_rgbf000131-resize_1-target.png,1000,3.359,9.0,5574,997,feet,jsons/v1_VE1000_randls_57.json,810964,1068502,42,Woman
112,897458,DepthScenes,duration_manipulation_targetAtFixation,jsons/v1_VE1000_randls_57.json,http://54.235.29.9/FacialAge/BNav_EC2/DepthDuration/v2_depth_duration_MTurk/v2_DepthDuration_HTML.html#86,86,1366,649,1366,768,8-29-2022,11-36-37,113,depth_duration_stimuli/001235_2014-06-17_16-37-36_260595134347_rgbf000084-resize_4/001235_2014-06-17_16-37-36_260595134347_rgbf000084-resize_4-target.png,1000,3.6605,9.0,5428,998,feet,jsons/v1_VE1000_randls_57.json,810964,1068502,42,Woman
113,897458,DepthScenes,duration_manipulation_targetAtFixation,jsons/v1_VE1000_randls_57.json,http://54.235.29.9/FacialAge/BNav_EC2/DepthDuration/v2_depth_duration_MTurk/v2_DepthDuration_HTML.html#86,86,1366,649,1366,768,8-29-2022,11-36-37,114,depth_duration_stimuli/002445_2014-06-28_20-32-16_260595134347_rgbf000029-resize_4/002445_2014-06-28_20-32-16_260595134347_rgbf000029-resize_4-target.png,1000,2.5315,5.0,3740,999,feet,jsons/v1_VE1000_randls_57.json,810964,1068502,42,Woman
114,897458,DepthScenes,duration_manipulation_targetAtFixation,jsons/v1_VE1000_randls_57.json,http://54.235.29.9/FacialAge/BNav_EC2/DepthDuration/v2_depth_duration_MTurk/v2_DepthDuration_HTML.html#86,86,1366,649,1366,768,8-29-2022,11-36-37,115,depth_duration_stimuli/000780_2014-06-08_22-28-29_260595134347_rgbf000126-resize_1/000780_2014-06-08_22-28-29_260595134347_rgbf000126-resize_1-target.png,1000,3.3825,8.0,3507,997,feet,jsons/v1_VE1000_randls_57.json,810964,1068502,42,Woman
115,897458,DepthScenes,duration_manipulation_targetAtFixation,jsons/v1_VE1000_randls_57.json,http://54.235.29.9/FacialAge/BNav_EC2/DepthDuration/v2_depth_duration_MTurk/v2_DepthDuration_HTML.html#86,86,1366,649,1366,768,8-29-2022,11-36-37,116,depth_duration_stimuli/001170_2014-06-17_15-43-44_260595134347_rgbf000096-resize_6/001170_2014-06-17_15-43-44_260595134347_rgbf000096-resize-original.jpg,1000,1.1909999999999998,0.0,3856,999,feet,jsons/v1_VE1000_randls_57.json,810964,1068502,42,Woman
116,897458,DepthScenes,duration_manipulation_targetAtFixation,jsons/v1_VE1000_randls_57.json,http://54.235.29.9/FacialAge/BNav_EC2/DepthDuration/v2_depth_duration_MTurk/v2_DepthDuration_HTML.html#86,86,1366,649,1366,768,8-29-2022,11-36-37,117,depth_duration_stimuli/002570_2014-06-24_13-59-54_094959634447_rgbf000059-resize_0/002570_2014-06-24_13-59-54_094959634447_rgbf000059-resize_0-target.png,1000,4.037,15.0,4261,999,feet,jsons/v1_VE1000_randls_57.json,810964,1068502,42,Woman
117,897458,DepthScenes,duration_manipulation_targetAtFixation,jsons/v1_VE1000_randls_57.json,http://54.235.29.9/FacialAge/BNav_EC2/DepthDuration/v2_depth_duration_MTurk/v2_DepthDuration_HTML.html#86,86,1366,649,1366,768,8-29-2022,11-36-37,118,depth_duration_stimuli/002467_2014-06-28_20-38-07_260595134347_rgbf000026-resize_2/002467_2014-06-28_20-38-07_260595134347_rgbf000026-resize_2-target.png,1000,4.742,16.0,3859,999,feet,jsons/v1_VE1000_randls_57.json,810964,1068502,42,Woman
118,897458,DepthScenes,duration_manipulation_targetAtFixation,jsons/v1_VE1000_randls_57.json,http://54.235.29.9/FacialAge/BNav_EC2/DepthDuration/v2_depth_duration_MTurk/v2_DepthDuration_HTML.html#86,86,1366,649,1366,768,8-29-2022,11-36-37,119,depth_duration_stimuli/002549_2014-06-24_13-41-39_094959634447_rgbf000022-resize_3/002549_2014-06-24_13-41-39_094959634447_rgbf000022-resize_3-target.png,1000,1.476,2.0,3508,998,feet,jsons/v1_VE1000_randls_57.json,810964,1068502,42,Woman
119,897458,DepthScenes,duration_manipulation_targetAtFixation,jsons/v1_VE1000_randls_57.json,http://54.235.29.9/FacialAge/BNav_EC2/DepthDuration/v2_depth_duration_MTurk/v2_DepthDuration_HTML.html#86,86,1366,649,1366,768,8-29-2022,11-36-37,120,depth_duration_stimuli/002750_2014-06-22_19-08-03_094959634447_rgbf000094-resize_4/002750_2014-06-22_19-08-03_094959634447_rgbf000094-resize_4-target.png,1000,2.354,7.0,5111,998,feet,jsons/v1_VE1000_randls_57.json,810964,1068502,42,Woman
120,897458,DepthScenes,duration_manipulation_targetAtFixation,jsons/v1_VE1000_randls_57.json,http://54.235.29.9/FacialAge/BNav_EC2/DepthDuration/v2_depth_duration_MTurk/v2_DepthDuration_HTML.html#86,86,1366,649,1366,768,8-29-2022,11-36-37,121,depth_duration_stimuli/000469_2014-06-09_19-42-10_260595134347_rgbf000081-resize_1/000469_2014-06-09_19-42-10_260595134347_rgbf000081-resize_1-target.png,1000,1.652,0.0,6226,997,feet,jsons/v1_VE1000_randls_57.json,810964,1068502,42,Woman
121,897458,DepthScenes,duration_manipulation_targetAtFixation,jsons/v1_VE1000_randls_57.json,http://54.235.29.9/FacialAge/BNav_EC2/DepthDuration/v2_depth_duration_MTurk/v2_DepthDuration_HTML.html#86,86,1366,649,1366,768,8-29-2022,11-36-37,122,depth_duration_stimuli/000483_2014-06-09_20-41-45_260595134347_rgbf000116-resize_4/000483_2014-06-09_20-41-45_260595134347_rgbf000116-resize_4-target.png,1000,1.337,2.0,3484,998,feet,jsons/v1_VE1000_randls_57.json,810964,1068502,42,Woman
122,897458,DepthScenes,duration_manipulation_targetAtFixation,jsons/v1_VE1000_randls_57.json,http://54.235.29.9/FacialAge/BNav_EC2/DepthDuration/v2_depth_duration_MTurk/v2_DepthDuration_HTML.html#86,86,1366,649,1366,768,8-29-2022,11-36-37,123,depth_duration_stimuli/001244_2014-06-17_16-47-45_260595134347_rgbf000030-resize_4/001244_2014-06-17_16-47-45_260595134347_rgbf000030-resize_4-target.png,1000,2.0425,5.0,3543,999,feet,jsons/v1_VE1000_randls_57.json,810964,1068502,42,Woman
123,897458,DepthScenes,duration_manipulation_targetAtFixation,jsons/v1_VE1000_randls_57.json,http://54.235.29.9/FacialAge/BNav_EC2/DepthDuration/v2_depth_duration_MTurk/v2_DepthDuration_HTML.html#86,86,1366,649,1366,768,8-29-2022,11-36-37,124,depth_duration_stimuli/003495_2014-05-21_16-01-51_094959634447_rgbf000100-resize_3/003495_2014-05-21_16-01-51_094959634447_rgbf000100-resize_3-target.png,1000,1.6255,3.0,4241,998,feet,jsons/v1_VE1000_randls_57.json,810964,1068502,42,Woman
124,897458,DepthScenes,duration_manipulation_targetAtFixation,jsons/v1_VE1000_randls_57.json,http://54.235.29.9/FacialAge/BNav_EC2/DepthDuration/v2_depth_duration_MTurk/v2_DepthDuration_HTML.html#86,86,1366,649,1366,768,8-29-2022,11-36-37,125,depth_duration_stimuli/001056_2014-06-08_18-46-44_260595134347_rgbf000068-resize_0/001056_2014-06-08_18-46-44_260595134347_rgbf000068-resize_0-target.png,1000,2.6625,7.0,3536,999,feet,jsons/v1_VE1000_randls_57.json,810964,1068502,42,Woman
125,897458,DepthScenes,duration_manipulation_targetAtFixation,jsons/v1_VE1000_randls_57.json,http://54.235.29.9/FacialAge/BNav_EC2/DepthDuration/v2_depth_duration_MTurk/v2_DepthDuration_HTML.html#86,86,1366,649,1366,768,8-29-2022,11-36-37,126,depth_duration_stimuli/002199_2014-06-28_18-33-56_260595134347_rgbf000074-resize_0/002199_2014-06-28_18-33-56_260595134347_rgbf000074-resize_0-target.png,1000,1.996,4.0,3892,998,feet,jsons/v1_VE1000_randls_57.json,810964,1068502,42,Woman
126,897458,DepthScenes,duration_manipulation_targetAtFixation,jsons/v1_VE1000_randls_57.json,http://54.235.29.9/FacialAge/BNav_EC2/DepthDuration/v2_depth_duration_MTurk/v2_DepthDuration_HTML.html#86,86,1366,649,1366,768,8-29-2022,11-36-37,127,depth_duration_stimuli/001092_2014-06-15_17-34-58_260595134347_rgbf000171-resize_3/001092_2014-06-15_17-34-58_260595134347_rgbf000171-resize_3-target.png,1000,2.6935,5.0,3210,994,feet,jsons/v1_VE1000_randls_57.json,810964,1068502,42,Woman
127,897458,DepthScenes,duration_manipulation_targetAtFixation,jsons/v1_VE1000_randls_57.json,http://54.235.29.9/FacialAge/BNav_EC2/DepthDuration/v2_depth_duration_MTurk/v2_DepthDuration_HTML.html#86,86,1366,649,1366,768,8-29-2022,11-36-37,128,depth_duration_stimuli/002545_2014-06-24_13-38-53_094959634447_rgbf000080-resize_4/002545_2014-06-24_13-38-53_094959634447_rgbf000080-resize_4-target.png,1000,1.9205,7.0,3006,994,feet,jsons/v1_VE1000_randls_57.json,810964,1068502,42,Woman
128,897458,DepthScenes,duration_manipulation_targetAtFixation,jsons/v1_VE1000_randls_57.json,http://54.235.29.9/FacialAge/BNav_EC2/DepthDuration/v2_depth_duration_MTurk/v2_DepthDuration_HTML.html#86,86,1366,649,1366,768,8-29-2022,11-36-37,129,depth_duration_stimuli/002788_2014-06-22_19-36-03_094959634447_rgbf000088-resize_2/002788_2014-06-22_19-36-03_094959634447_rgbf000088-resize_2-target.png,1000,1.6465,78.0,4411,997,feet,jsons/v1_VE1000_randls_57.json,810964,1068502,42,Woman
129,897458,DepthScenes,duration_manipulation_targetAtFixation,jsons/v1_VE1000_randls_57.json,http://54.235.29.9/FacialAge/BNav_EC2/DepthDuration/v2_depth_duration_MTurk/v2_DepthDuration_HTML.html#86,86,1366,649,1366,768,8-29-2022,11-36-37,130,depth_duration_stimuli/000749_2014-06-08_21-55-06_260595134347_rgbf000070-resize_2/000749_2014-06-08_21-55-06_260595134347_rgbf000070-resize_2-target.png,1000,2.331,6.0,7067,998,feet,jsons/v1_VE1000_randls_57.json,810964,1068502,42,Woman
130,897458,DepthScenes,duration_manipulation_targetAtFixation,jsons/v1_VE1000_randls_57.json,http://54.235.29.9/FacialAge/BNav_EC2/DepthDuration/v2_depth_duration_MTurk/v2_DepthDuration_HTML.html#86,86,1366,649,1366,768,8-29-2022,11-36-37,131,depth_duration_stimuli/002725_2014-06-22_11-47-51_094959634447_rgbf000070-resize_1/002725_2014-06-22_11-47-51_094959634447_rgbf000070-resize_1-target.png,1000,2.195,6.0,6250,996,feet,jsons/v1_VE1000_randls_57.json,810964,1068502,42,Woman
131,897458,DepthScenes,duration_manipulation_targetAtFixation,jsons/v1_VE1000_randls_57.json,http://54.235.29.9/FacialAge/BNav_EC2/DepthDuration/v2_depth_duration_MTurk/v2_DepthDuration_HTML.html#86,86,1366,649,1366,768,8-29-2022,11-36-37,132,depth_duration_stimuli/002344_2014-06-28_20-06-29_260595134347_rgbf000030-resize_1/002344_2014-06-28_20-06-29_260595134347_rgbf000030-resize_1-target.png,1000,1.5795,2.0,3278,995,feet,jsons/v1_VE1000_randls_57.json,810964,1068502,42,Woman
132,897458,DepthScenes,duration_manipulation_targetAtFixation,jsons/v1_VE1000_randls_57.json,http://54.235.29.9/FacialAge/BNav_EC2/DepthDuration/v2_depth_duration_MTurk/v2_DepthDuration_HTML.html#86,86,1366,649,1366,768,8-29-2022,11-36-37,133,depth_duration_stimuli/001167_2014-06-17_15-38-07_260595134347_rgbf000108-resize_0/001167_2014-06-17_15-38-07_260595134347_rgbf000108-resize_0-target.png,1000,1.8505,4.0,3058,1001,feet,jsons/v1_VE1000_randls_57.json,810964,1068502,42,Woman
133,897458,DepthScenes,duration_manipulation_targetAtFixation,jsons/v1_VE1000_randls_57.json,http://54.235.29.9/FacialAge/BNav_EC2/DepthDuration/v2_depth_duration_MTurk/v2_DepthDuration_HTML.html#86,86,1366,649,1366,768,8-29-2022,11-36-37,134,depth_duration_stimuli/003587_2014-05-23_16-48-02_094959634447_rgbf002384-resize_2/003587_2014-05-23_16-48-02_094959634447_rgbf002384-resize_2-target.png,1000,1.357,2.0,2821,998,feet,jsons/v1_VE1000_randls_57.json,810964,1068502,42,Woman
134,897458,DepthScenes,duration_manipulation_targetAtFixation,jsons/v1_VE1000_randls_57.json,http://54.235.29.9/FacialAge/BNav_EC2/DepthDuration/v2_depth_duration_MTurk/v2_DepthDuration_HTML.html#86,86,1366,649,1366,768,8-29-2022,11-36-37,135,depth_duration_stimuli/002072_2014-06-24_21-48-06_260595134347_rgbf000115-resize_0/002072_2014-06-24_21-48-06_260595134347_rgbf000115-resize-original.jpg,1000,4.702,0.0,3298,995,feet,jsons/v1_VE1000_randls_57.json,810964,1068502,42,Woman
135,897458,DepthScenes,duration_manipulation_targetAtFixation,jsons/v1_VE1000_randls_57.json,http://54.235.29.9/FacialAge/BNav_EC2/DepthDuration/v2_depth_duration_MTurk/v2_DepthDuration_HTML.html#86,86,1366,649,1366,768,8-29-2022,11-36-37,136,depth_duration_stimuli/001164_2014-06-17_15-35-46_260595134347_rgbf000085-resize_3/001164_2014-06-17_15-35-46_260595134347_rgbf000085-resize_3-target.png,1000,2.354,4.0,3207,998,feet,jsons/v1_VE1000_randls_57.json,810964,1068502,42,Woman
136,897458,DepthScenes,duration_manipulation_targetAtFixation,jsons/v1_VE1000_randls_57.json,http://54.235.29.9/FacialAge/BNav_EC2/DepthDuration/v2_depth_duration_MTurk/v2_DepthDuration_HTML.html#86,86,1366,649,1366,768,8-29-2022,11-36-37,137,depth_duration_stimuli/001136_2014-06-17_15-19-41_260595134347_rgbf000076-resize_3/001136_2014-06-17_15-19-41_260595134347_rgbf000076-resize_3-target.png,1000,1.8655,4.0,4041,994,feet,jsons/v1_VE1000_randls_57.json,810964,1068502,42,Woman
137,897458,DepthScenes,duration_manipulation_targetAtFixation,jsons/v1_VE1000_randls_57.json,http://54.235.29.9/FacialAge/BNav_EC2/DepthDuration/v2_depth_duration_MTurk/v2_DepthDuration_HTML.html#86,86,1366,649,1366,768,8-29-2022,11-36-37,138,depth_duration_stimuli/001066_2014-06-08_22-03-20_260595134347_rgbf000066-resize_4/001066_2014-06-08_22-03-20_260595134347_rgbf000066-resize_4-target.png,1000,4.2330000000000005,12.0,4184,998,feet,jsons/v1_VE1000_randls_57.json,810964,1068502,42,Woman
138,897458,DepthScenes,duration_manipulation_targetAtFixation,jsons/v1_VE1000_randls_57.json,http://54.235.29.9/FacialAge/BNav_EC2/DepthDuration/v2_depth_duration_MTurk/v2_DepthDuration_HTML.html#86,86,1366,649,1366,768,8-29-2022,11-36-37,139,depth_duration_stimuli/000742_2014-06-08_18-48-09_260595134347_rgbf000164-resize_4/000742_2014-06-08_18-48-09_260595134347_rgbf000164-resize_4-target.png,1000,4.632,13.0,4602,998,feet,jsons/v1_VE1000_randls_57.json,810964,1068502,42,Woman
139,897458,DepthScenes,duration_manipulation_targetAtFixation,jsons/v1_VE1000_randls_57.json,http://54.235.29.9/FacialAge/BNav_EC2/DepthDuration/v2_depth_duration_MTurk/v2_DepthDuration_HTML.html#86,86,1366,649,1366,768,8-29-2022,11-36-37,140,depth_duration_stimuli/003621_2014-05-23_18-06-08_094959634447_rgbf000101-resize_1/003621_2014-05-23_18-06-08_094959634447_rgbf000101-resize_1-target.png,1000,3.9835,17.0,4263,997,feet,jsons/v1_VE1000_randls_57.json,810964,1068502,42,Woman
140,897458,DepthScenes,duration_manipulation_targetAtFixation,jsons/v1_VE1000_randls_57.json,http://54.235.29.9/FacialAge/BNav_EC2/DepthDuration/v2_depth_duration_MTurk/v2_DepthDuration_HTML.html#86,86,1366,649,1366,768,8-29-2022,11-36-37,141,depth_duration_stimuli/001584_2014-06-20_11-07-43_260595134347_rgbf000002-resize_1/001584_2014-06-20_11-07-43_260595134347_rgbf000002-resize_1-target.png,1000,3.53,0.0,5752,995,feet,jsons/v1_VE1000_randls_57.json,810964,1068502,42,Woman
141,897458,DepthScenes,duration_manipulation_targetAtFixation,jsons/v1_VE1000_randls_57.json,http://54.235.29.9/FacialAge/BNav_EC2/DepthDuration/v2_depth_duration_MTurk/v2_DepthDuration_HTML.html#86,86,1366,649,1366,768,8-29-2022,11-36-37,142,depth_duration_stimuli/001449_2014-06-19_17-01-27_260595134347_rgbf000116-resize_2/001449_2014-06-19_17-01-27_260595134347_rgbf000116-resize_2-target.png,1000,3.452,8.0,3897,996,feet,jsons/v1_VE1000_randls_57.json,810964,1068502,42,Woman
142,897458,DepthScenes,duration_manipulation_targetAtFixation,jsons/v1_VE1000_randls_57.json,http://54.235.29.9/FacialAge/BNav_EC2/DepthDuration/v2_depth_duration_MTurk/v2_DepthDuration_HTML.html#86,86,1366,649,1366,768,8-29-2022,11-36-37,143,depth_duration_stimuli/001450_2014-06-19_17-02-03_260595134347_rgbf000203-resize_4/001450_2014-06-19_17-02-03_260595134347_rgbf000203-resize_4-target.png,1000,4.0106666666667,15.0,6313,997,feet,jsons/v1_VE1000_randls_57.json,810964,1068502,42,Woman
143,897458,DepthScenes,duration_manipulation_targetAtFixation,jsons/v1_VE1000_randls_57.json,http://54.235.29.9/FacialAge/BNav_EC2/DepthDuration/v2_depth_duration_MTurk/v2_DepthDuration_HTML.html#86,86,1366,649,1366,768,8-29-2022,11-36-37,144,depth_duration_stimuli/001133_2014-06-17_14-49-16_260595134347_rgbf000100-resize_0/001133_2014-06-17_14-49-16_260595134347_rgbf000100-resize_0-target.png,1000,4.2115,16.0,4089,999,feet,jsons/v1_VE1000_randls_57.json,810964,1068502,42,Woman
144,897458,DepthScenes,duration_manipulation_targetAtFixation,jsons/v1_VE1000_randls_57.json,http://54.235.29.9/FacialAge/BNav_EC2/DepthDuration/v2_depth_duration_MTurk/v2_DepthDuration_HTML.html#86,86,1366,649,1366,768,8-29-2022,11-36-37,145,depth_duration_stimuli/001132_2014-06-17_14-48-54_260595134347_rgbf000100-resize_2/001132_2014-06-17_14-48-54_260595134347_rgbf000100-resize_2-target.png,1000,3.753,11.0,4873,999,feet,jsons/v1_VE1000_randls_57.json,810964,1068502,42,Woman
145,897458,DepthScenes,duration_manipulation_targetAtFixation,jsons/v1_VE1000_randls_57.json,http://54.235.29.9/FacialAge/BNav_EC2/DepthDuration/v2_depth_duration_MTurk/v2_DepthDuration_HTML.html#86,86,1366,649,1366,768,8-29-2022,11-36-37,146,depth_duration_stimuli/001498_2014-06-19_17-45-14_260595134347_rgbf000129-resize_4/001498_2014-06-19_17-45-14_260595134347_rgbf000129-resize-original.jpg,1000,1.4075,0.0,3906,994,feet,jsons/v1_VE1000_randls_57.json,810964,1068502,42,Woman
146,897458,DepthScenes,duration_manipulation_targetAtFixation,jsons/v1_VE1000_randls_57.json,http://54.235.29.9/FacialAge/BNav_EC2/DepthDuration/v2_depth_duration_MTurk/v2_DepthDuration_HTML.html#86,86,1366,649,1366,768,8-29-2022,11-36-37,147,depth_duration_stimuli/000692_2014-06-08_13-09-42_260595134347_rgbf000199-resize_2/000692_2014-06-08_13-09-42_260595134347_rgbf000199-resize_2-target.png,1000,3.661,17.0,3198,997,feet,jsons/v1_VE1000_randls_57.json,810964,1068502,42,Woman
147,897458,DepthScenes,duration_manipulation_targetAtFixation,jsons/v1_VE1000_randls_57.json,http://54.235.29.9/FacialAge/BNav_EC2/DepthDuration/v2_depth_duration_MTurk/v2_DepthDuration_HTML.html#86,86,1366,649,1366,768,8-29-2022,11-36-37,148,depth_duration_stimuli/001094_2014-06-15_17-36-00_260595134347_rgbf000205-resize_0/001094_2014-06-15_17-36-00_260595134347_rgbf000205-resize_0-target.png,1000,4.2175,9.0,4746,999,feet,jsons/v1_VE1000_randls_57.json,810964,1068502,42,Woman
148,897458,DepthScenes,duration_manipulation_targetAtFixation,jsons/v1_VE1000_randls_57.json,http://54.235.29.9/FacialAge/BNav_EC2/DepthDuration/v2_depth_duration_MTurk/v2_DepthDuration_HTML.html#86,86,1366,649,1366,768,8-29-2022,11-36-37,149,depth_duration_stimuli/000642_2014-06-08_16-59-25_260595134347_rgbf000098-resize_2/000642_2014-06-08_16-59-25_260595134347_rgbf000098-resize_2-target.png,1000,2.8815,9.0,3566,997,feet,jsons/v1_VE1000_randls_57.json,810964,1068502,42,Woman
149,897458,DepthScenes,duration_manipulation_targetAtFixation,jsons/v1_VE1000_randls_57.json,http://54.235.29.9/FacialAge/BNav_EC2/DepthDuration/v2_depth_duration_MTurk/v2_DepthDuration_HTML.html#86,86,1366,649,1366,768,8-29-2022,11-36-37,150,depth_duration_stimuli/002425_2014-06-28_20-27-29_260595134347_rgbf000031-resize_8/002425_2014-06-28_20-27-29_260595134347_rgbf000031-resize_8-target.png,1000,3.8960000000000004,9.0,2919,998,feet,jsons/v1_VE1000_randls_57.json,810964,1068502,42,Woman
150,897458,DepthScenes,duration_manipulation_targetAtFixation,jsons/v1_VE1000_randls_57.json,http://54.235.29.9/FacialAge/BNav_EC2/DepthDuration/v2_depth_duration_MTurk/v2_DepthDuration_HTML.html#86,86,1366,649,1366,768,8-29-2022,11-36-37,151,depth_duration_stimuli/002989_2014-06-15_12-25-03_094959634447_rgbf000150-resize_3/002989_2014-06-15_12-25-03_094959634447_rgbf000150-resize_3-target.png,1000,4.1975,15.0,3375,994,feet,jsons/v1_VE1000_randls_57.json,810964,1068502,42,Woman
151,897458,DepthScenes,duration_manipulation_targetAtFixation,jsons/v1_VE1000_randls_57.json,http://54.235.29.9/FacialAge/BNav_EC2/DepthDuration/v2_depth_duration_MTurk/v2_DepthDuration_HTML.html#86,86,1366,649,1366,768,8-29-2022,11-36-37,152,depth_duration_stimuli/000866_2014-06-09_20-45-42_260595134347_rgbf000139-resize_1/000866_2014-06-09_20-45-42_260595134347_rgbf000139-resize_1-target.png,1000,3.2155,9.0,4270,998,feet,jsons/v1_VE1000_randls_57.json,810964,1068502,42,Woman
152,897458,DepthScenes,duration_manipulation_targetAtFixation,jsons/v1_VE1000_randls_57.json,http://54.235.29.9/FacialAge/BNav_EC2/DepthDuration/v2_depth_duration_MTurk/v2_DepthDuration_HTML.html#86,86,1366,649,1366,768,8-29-2022,11-36-37,153,depth_duration_stimuli/000758_2014-06-08_22-05-08_260595134347_rgbf000085-resize_0/000758_2014-06-08_22-05-08_260595134347_rgbf000085-resize_0-target.png,1000,3.3810000000000002,12.0,2743,997,feet,jsons/v1_VE1000_randls_57.json,810964,1068502,42,Woman
153,897458,DepthScenes,duration_manipulation_targetAtFixation,jsons/v1_VE1000_randls_57.json,http://54.235.29.9/FacialAge/BNav_EC2/DepthDuration/v2_depth_duration_MTurk/v2_DepthDuration_HTML.html#86,86,1366,649,1366,768,8-29-2022,11-36-37,154,depth_duration_stimuli/000854_2014-06-09_19-43-13_260595134347_rgbf000066-resize_0/000854_2014-06-09_19-43-13_260595134347_rgbf000066-resize_0-target.png,1000,3.068,8.0,3044,997,feet,jsons/v1_VE1000_randls_57.json,810964,1068502,42,Woman
154,897458,DepthScenes,duration_manipulation_targetAtFixation,jsons/v1_VE1000_randls_57.json,http://54.235.29.9/FacialAge/BNav_EC2/DepthDuration/v2_depth_duration_MTurk/v2_DepthDuration_HTML.html#86,86,1366,649,1366,768,8-29-2022,11-36-37,155,depth_duration_stimuli/000736_2014-06-08_18-24-15_260595134347_rgbf000206-resize_3/000736_2014-06-08_18-24-15_260595134347_rgbf000206-resize_3-target.png,1000,3.515,8.0,3080,998,feet,jsons/v1_VE1000_randls_57.json,810964,1068502,42,Woman
155,897458,DepthScenes,duration_manipulation_targetAtFixation,jsons/v1_VE1000_randls_57.json,http://54.235.29.9/FacialAge/BNav_EC2/DepthDuration/v2_depth_duration_MTurk/v2_DepthDuration_HTML.html#86,86,1366,649,1366,768,8-29-2022,11-36-37,156,depth_duration_stimuli/000137_2014-05-20_17-04-49_260595134347_rgbf000120-resize_1/000137_2014-05-20_17-04-49_260595134347_rgbf000120-resize_1-target.png,1000,3.786,11.0,3017,999,feet,jsons/v1_VE1000_randls_57.json,810964,1068502,42,Woman
156,897458,DepthScenes,duration_manipulation_targetAtFixation,jsons/v1_VE1000_randls_57.json,http://54.235.29.9/FacialAge/BNav_EC2/DepthDuration/v2_depth_duration_MTurk/v2_DepthDuration_HTML.html#86,86,1366,649,1366,768,8-29-2022,11-36-37,157,depth_duration_stimuli/002213_2014-06-28_18-37-58_260595134347_rgbf000055-resize_1/002213_2014-06-28_18-37-58_260595134347_rgbf000055-resize_1-target.png,1000,3.62,13.0,9899,998,feet,jsons/v1_VE1000_randls_57.json,810964,1068502,42,Woman
157,897458,DepthScenes,duration_manipulation_targetAtFixation,jsons/v1_VE1000_randls_57.json,http://54.235.29.9/FacialAge/BNav_EC2/DepthDuration/v2_depth_duration_MTurk/v2_DepthDuration_HTML.html#86,86,1366,649,1366,768,8-29-2022,11-36-37,158,depth_duration_stimuli/000691_2014-06-08_13-08-50_260595134347_rgbf000132-resize_3/000691_2014-06-08_13-08-50_260595134347_rgbf000132-resize_3-target.png,1000,4.1530000000000005,12.0,4530,999,feet,jsons/v1_VE1000_randls_57.json,810964,1068502,42,Woman
158,897458,DepthScenes,duration_manipulation_targetAtFixation,jsons/v1_VE1000_randls_57.json,http://54.235.29.9/FacialAge/BNav_EC2/DepthDuration/v2_depth_duration_MTurk/v2_DepthDuration_HTML.html#86,86,1366,649,1366,768,8-29-2022,11-36-37,159,depth_duration_stimuli/002964_2014-06-08_17-46-11_094959634447_rgbf000091-resize_4/002964_2014-06-08_17-46-11_094959634447_rgbf000091-resize_4-target.png,1000,1.6909999999999998,2.0,2854,997,feet,jsons/v1_VE1000_randls_57.json,810964,1068502,42,Woman
159,897458,DepthScenes,duration_manipulation_targetAtFixation,jsons/v1_VE1000_randls_57.json,http://54.235.29.9/FacialAge/BNav_EC2/DepthDuration/v2_depth_duration_MTurk/v2_DepthDuration_HTML.html#86,86,1366,649,1366,768,8-29-2022,11-36-37,160,depth_duration_stimuli/002136_2014-06-25_21-18-03_260595134347_rgbf000109-resize_3/002136_2014-06-25_21-18-03_260595134347_rgbf000109-resize_3-target.png,1000,1.9569999999999999,2.0,3572,999,feet,jsons/v1_VE1000_randls_57.json,810964,1068502,42,Woman
160,897458,DepthScenes,duration_manipulation_targetAtFixation,jsons/v1_VE1000_randls_57.json,http://54.235.29.9/FacialAge/BNav_EC2/DepthDuration/v2_depth_duration_MTurk/v2_DepthDuration_HTML.html#86,86,1366,649,1366,768,8-29-2022,11-36-37,161,depth_duration_stimuli/000917_2014-06-09_22-45-29_260595134347_rgbf000149-resize_3/000917_2014-06-09_22-45-29_260595134347_rgbf000149-resize_3-target.png,1000,4.1865,9.0,3122,996,feet,jsons/v1_VE1000_randls_57.json,810964,1068502,42,Woman
161,897458,DepthScenes,duration_manipulation_targetAtFixation,jsons/v1_VE1000_randls_57.json,http://54.235.29.9/FacialAge/BNav_EC2/DepthDuration/v2_depth_duration_MTurk/v2_DepthDuration_HTML.html#86,86,1366,649,1366,768,8-29-2022,11-36-37,162,depth_duration_stimuli/002323_2014-06-28_20-01-54_260595134347_rgbf000051-resize_4/002323_2014-06-28_20-01-54_260595134347_rgbf000051-resize_4-target.png,1000,3.7310000000000003,11.0,3575,999,feet,jsons/v1_VE1000_randls_57.json,810964,1068502,42,Woman
162,897458,DepthScenes,duration_manipulation_targetAtFixation,jsons/v1_VE1000_randls_57.json,http://54.235.29.9/FacialAge/BNav_EC2/DepthDuration/v2_depth_duration_MTurk/v2_DepthDuration_HTML.html#86,86,1366,649,1366,768,8-29-2022,11-36-37,163,depth_duration_stimuli/002043_2014-06-24_20-29-38_260595134347_rgbf000039-resize_4/002043_2014-06-24_20-29-38_260595134347_rgbf000039-resize_4-target.png,1000,2.8435,11.0,5192,996,feet,jsons/v1_VE1000_randls_57.json,810964,1068502,42,Woman
163,897458,DepthScenes,duration_manipulation_targetAtFixation,jsons/v1_VE1000_randls_57.json,http://54.235.29.9/FacialAge/BNav_EC2/DepthDuration/v2_depth_duration_MTurk/v2_DepthDuration_HTML.html#86,86,1366,649,1366,768,8-29-2022,11-36-37,164,depth_duration_stimuli/003048_2014-06-15_13-49-43_094959634447_rgbf000150-resize_1/003048_2014-06-15_13-49-43_094959634447_rgbf000150-resize_1-target.png,1000,4.0035,12.0,3670,996,feet,jsons/v1_VE1000_randls_57.json,810964,1068502,42,Woman
