,subjID,experimentName,versionName,sequenceName,url,selected_row,windowWidth,windowHeight,screenWidth,screenHeight,startDate,startTime,trial,stimulus,duration,actual_depth,depth_estimate,trial_RT,log_sceneDuration,unitSelection,seq_filepath,experimentTime,totalTime,age,gender
0,902089,DepthScenes,duration_manipulation_targetAtFixation,jsons/v1_VE250_randls_63_rotated.json,http://54.235.29.9/FacialAge/BNav_EC2/DepthDuration/v2_depth_duration_MTurk/v2_DepthDuration_HTML.html#4,4,823,514,1440,900,8-20-2022,10-59-40,1,depth_duration_stimuli/003129_2014-05-12_10-48-10_094959634447_rgbf000100-resize_0/003129_2014-05-12_10-48-10_094959634447_rgbf000100-resize_0-target.png,250,4.9305,1,2027,249,feet,jsons/v1_VE250_randls_63_rotated.json,1424015,1631121,36,Man
1,902089,DepthScenes,duration_manipulation_targetAtFixation,jsons/v1_VE250_randls_63_rotated.json,http://54.235.29.9/FacialAge/BNav_EC2/DepthDuration/v2_depth_duration_MTurk/v2_DepthDuration_HTML.html#4,4,823,514,1440,900,8-20-2022,10-59-40,2,depth_duration_stimuli/000414_2014-06-04_19-49-13_260595134347_rgbf000044-resize_0/000414_2014-06-04_19-49-13_260595134347_rgbf000044-resize_0-target.png,250,4.329,1,1945,248,feet,jsons/v1_VE250_randls_63_rotated.json,1424015,1631121,36,Man
2,902089,DepthScenes,duration_manipulation_targetAtFixation,jsons/v1_VE250_randls_63_rotated.json,http://54.235.29.9/FacialAge/BNav_EC2/DepthDuration/v2_depth_duration_MTurk/v2_DepthDuration_HTML.html#4,4,823,514,1440,900,8-20-2022,10-59-40,3,depth_duration_stimuli/000109_2014-05-14_23-41-52_260595134347_rgbf000035-resize_9/000109_2014-05-14_23-41-52_260595134347_rgbf000035-resize_9-target.png,250,1.3545,1,4178,249,feet,jsons/v1_VE250_randls_63_rotated.json,1424015,1631121,36,Man
3,902089,DepthScenes,duration_manipulation_targetAtFixation,jsons/v1_VE250_randls_63_rotated.json,http://54.235.29.9/FacialAge/BNav_EC2/DepthDuration/v2_depth_duration_MTurk/v2_DepthDuration_HTML.html#4,4,823,514,1440,900,8-20-2022,10-59-40,4,depth_duration_stimuli/000470_2014-06-09_19-42-40_260595134347_rgbf000094-resize_1/000470_2014-06-09_19-42-40_260595134347_rgbf000094-resize_1-target.png,250,1.831,1,26648,248,feet,jsons/v1_VE250_randls_63_rotated.json,1424015,1631121,36,Man
4,902089,DepthScenes,duration_manipulation_targetAtFixation,jsons/v1_VE250_randls_63_rotated.json,http://54.235.29.9/FacialAge/BNav_EC2/DepthDuration/v2_depth_duration_MTurk/v2_DepthDuration_HTML.html#4,4,823,514,1440,900,8-20-2022,10-59-40,5,depth_duration_stimuli/003338_2014-05-20_11-01-23_094959634447_rgbf000051-resize_6/003338_2014-05-20_11-01-23_094959634447_rgbf000051-resize_6-target.png,250,1.693,1,4571,249,feet,jsons/v1_VE250_randls_63_rotated.json,1424015,1631121,36,Man
5,902089,DepthScenes,duration_manipulation_targetAtFixation,jsons/v1_VE250_randls_63_rotated.json,http://54.235.29.9/FacialAge/BNav_EC2/DepthDuration/v2_depth_duration_MTurk/v2_DepthDuration_HTML.html#4,4,823,514,1440,900,8-20-2022,10-59-40,6,depth_duration_stimuli/002509_2014-06-24_13-19-22_094959634447_rgbf000077-resize_0/002509_2014-06-24_13-19-22_094959634447_rgbf000077-resize_0-target.png,250,1.3065,0,3154,251,feet,jsons/v1_VE250_randls_63_rotated.json,1424015,1631121,36,Man
6,902089,DepthScenes,duration_manipulation_targetAtFixation,jsons/v1_VE250_randls_63_rotated.json,http://54.235.29.9/FacialAge/BNav_EC2/DepthDuration/v2_depth_duration_MTurk/v2_DepthDuration_HTML.html#4,4,823,514,1440,900,8-20-2022,10-59-40,7,depth_duration_stimuli/003010_2014-06-15_12-54-35_094959634447_rgbf000112-resize_0/003010_2014-06-15_12-54-35_094959634447_rgbf000112-resize_0-target.png,250,3.1185,1,2353,249,feet,jsons/v1_VE250_randls_63_rotated.json,1424015,1631121,36,Man
7,902089,DepthScenes,duration_manipulation_targetAtFixation,jsons/v1_VE250_randls_63_rotated.json,http://54.235.29.9/FacialAge/BNav_EC2/DepthDuration/v2_depth_duration_MTurk/v2_DepthDuration_HTML.html#4,4,823,514,1440,900,8-20-2022,10-59-40,8,depth_duration_stimuli/001810_2014-06-26_20-51-35_260595134347_rgbf000040-resize_3/001810_2014-06-26_20-51-35_260595134347_rgbf000040-resize_3-target.png,250,2.2525,1,2011,251,feet,jsons/v1_VE250_randls_63_rotated.json,1424015,1631121,36,Man
8,902089,DepthScenes,duration_manipulation_targetAtFixation,jsons/v1_VE250_randls_63_rotated.json,http://54.235.29.9/FacialAge/BNav_EC2/DepthDuration/v2_depth_duration_MTurk/v2_DepthDuration_HTML.html#4,4,823,514,1440,900,8-20-2022,10-59-40,9,depth_duration_stimuli/003228_2014-05-14_13-42-35_094959634447_rgbf000101-resize_1/003228_2014-05-14_13-42-35_094959634447_rgbf000101-resize_1-target.png,250,1.9680000000000002,1,1979,250,feet,jsons/v1_VE250_randls_63_rotated.json,1424015,1631121,36,Man
9,902089,DepthScenes,duration_manipulation_targetAtFixation,jsons/v1_VE250_randls_63_rotated.json,http://54.235.29.9/FacialAge/BNav_EC2/DepthDuration/v2_depth_duration_MTurk/v2_DepthDuration_HTML.html#4,4,823,514,1440,900,8-20-2022,10-59-40,10,depth_duration_stimuli/002600_2014-06-24_14-27-04_094959634447_rgbf000074-resize_2/002600_2014-06-24_14-27-04_094959634447_rgbf000074-resize_2-target.png,250,2.7575,1,2491,250,feet,jsons/v1_VE250_randls_63_rotated.json,1424015,1631121,36,Man
10,902089,DepthScenes,duration_manipulation_targetAtFixation,jsons/v1_VE250_randls_63_rotated.json,http://54.235.29.9/FacialAge/BNav_EC2/DepthDuration/v2_depth_duration_MTurk/v2_DepthDuration_HTML.html#4,4,823,514,1440,900,8-20-2022,10-59-40,11,depth_duration_stimuli/002805_2014-06-22_19-54-03_094959634447_rgbf000079-resize_1/002805_2014-06-22_19-54-03_094959634447_rgbf000079-resize_1-target.png,250,3.1439999999999997,1,2048,248,feet,jsons/v1_VE250_randls_63_rotated.json,1424015,1631121,36,Man
11,902089,DepthScenes,duration_manipulation_targetAtFixation,jsons/v1_VE250_randls_63_rotated.json,http://54.235.29.9/FacialAge/BNav_EC2/DepthDuration/v2_depth_duration_MTurk/v2_DepthDuration_HTML.html#4,4,823,514,1440,900,8-20-2022,10-59-40,12,depth_duration_stimuli/000906_2014-06-08_13-35-43_260595134347_rgbf000155-resize_1/000906_2014-06-08_13-35-43_260595134347_rgbf000155-resize_1-target.png,250,2.8489999999999998,1,2186,249,feet,jsons/v1_VE250_randls_63_rotated.json,1424015,1631121,36,Man
12,902089,DepthScenes,duration_manipulation_targetAtFixation,jsons/v1_VE250_randls_63_rotated.json,http://54.235.29.9/FacialAge/BNav_EC2/DepthDuration/v2_depth_duration_MTurk/v2_DepthDuration_HTML.html#4,4,823,514,1440,900,8-20-2022,10-59-40,13,depth_duration_stimuli/003587_2014-05-23_16-48-02_094959634447_rgbf002384-resize_2/003587_2014-05-23_16-48-02_094959634447_rgbf002384-resize_2-target.png,250,1.357,1,2002,249,feet,jsons/v1_VE250_randls_63_rotated.json,1424015,1631121,36,Man
13,902089,DepthScenes,duration_manipulation_targetAtFixation,jsons/v1_VE250_randls_63_rotated.json,http://54.235.29.9/FacialAge/BNav_EC2/DepthDuration/v2_depth_duration_MTurk/v2_DepthDuration_HTML.html#4,4,823,514,1440,900,8-20-2022,10-59-40,14,depth_duration_stimuli/001167_2014-06-17_15-38-07_260595134347_rgbf000108-resize_0/001167_2014-06-17_15-38-07_260595134347_rgbf000108-resize_0-target.png,250,1.8505,1,2195,251,feet,jsons/v1_VE250_randls_63_rotated.json,1424015,1631121,36,Man
14,902089,DepthScenes,duration_manipulation_targetAtFixation,jsons/v1_VE250_randls_63_rotated.json,http://54.235.29.9/FacialAge/BNav_EC2/DepthDuration/v2_depth_duration_MTurk/v2_DepthDuration_HTML.html#4,4,823,514,1440,900,8-20-2022,10-59-40,15,depth_duration_stimuli/002995_2014-06-15_12-31-26_094959634447_rgbf000150-resize_1/002995_2014-06-15_12-31-26_094959634447_rgbf000150-resize_1-target.png,250,3.8360000000000003,1,2178,250,feet,jsons/v1_VE250_randls_63_rotated.json,1424015,1631121,36,Man
15,902089,DepthScenes,duration_manipulation_targetAtFixation,jsons/v1_VE250_randls_63_rotated.json,http://54.235.29.9/FacialAge/BNav_EC2/DepthDuration/v2_depth_duration_MTurk/v2_DepthDuration_HTML.html#4,4,823,514,1440,900,8-20-2022,10-59-40,16,depth_duration_stimuli/002748_2014-06-22_19-07-22_094959634447_rgbf000078-resize_1/002748_2014-06-22_19-07-22_094959634447_rgbf000078-resize_1-target.png,250,4.6705,1,2595,251,feet,jsons/v1_VE250_randls_63_rotated.json,1424015,1631121,36,Man
16,902089,DepthScenes,duration_manipulation_targetAtFixation,jsons/v1_VE250_randls_63_rotated.json,http://54.235.29.9/FacialAge/BNav_EC2/DepthDuration/v2_depth_duration_MTurk/v2_DepthDuration_HTML.html#4,4,823,514,1440,900,8-20-2022,10-59-40,17,depth_duration_stimuli/001584_2014-06-20_11-07-43_260595134347_rgbf000002-resize_1/001584_2014-06-20_11-07-43_260595134347_rgbf000002-resize_1-target.png,250,3.53,1,2162,251,feet,jsons/v1_VE250_randls_63_rotated.json,1424015,1631121,36,Man
17,902089,DepthScenes,duration_manipulation_targetAtFixation,jsons/v1_VE250_randls_63_rotated.json,http://54.235.29.9/FacialAge/BNav_EC2/DepthDuration/v2_depth_duration_MTurk/v2_DepthDuration_HTML.html#4,4,823,514,1440,900,8-20-2022,10-59-40,18,depth_duration_stimuli/003621_2014-05-23_18-06-08_094959634447_rgbf000101-resize_1/003621_2014-05-23_18-06-08_094959634447_rgbf000101-resize_1-target.png,250,3.9835,1,2140,250,feet,jsons/v1_VE250_randls_63_rotated.json,1424015,1631121,36,Man
18,902089,DepthScenes,duration_manipulation_targetAtFixation,jsons/v1_VE250_randls_63_rotated.json,http://54.235.29.9/FacialAge/BNav_EC2/DepthDuration/v2_depth_duration_MTurk/v2_DepthDuration_HTML.html#4,4,823,514,1440,900,8-20-2022,10-59-40,19,depth_duration_stimuli/001498_2014-06-19_17-45-14_260595134347_rgbf000129-resize_4/001498_2014-06-19_17-45-14_260595134347_rgbf000129-resize-original.jpg,250,1.4075,0,2411,248,feet,jsons/v1_VE250_randls_63_rotated.json,1424015,1631121,36,Man
19,902089,DepthScenes,duration_manipulation_targetAtFixation,jsons/v1_VE250_randls_63_rotated.json,http://54.235.29.9/FacialAge/BNav_EC2/DepthDuration/v2_depth_duration_MTurk/v2_DepthDuration_HTML.html#4,4,823,514,1440,900,8-20-2022,10-59-40,20,depth_duration_stimuli/001447_2014-06-19_17-00-32_260595134347_rgbf000082-resize_5/001447_2014-06-19_17-00-32_260595134347_rgbf000082-resize_5-target.png,250,4.13775,1,4682,249,feet,jsons/v1_VE250_randls_63_rotated.json,1424015,1631121,36,Man
20,902089,DepthScenes,duration_manipulation_targetAtFixation,jsons/v1_VE250_randls_63_rotated.json,http://54.235.29.9/FacialAge/BNav_EC2/DepthDuration/v2_depth_duration_MTurk/v2_DepthDuration_HTML.html#4,4,823,514,1440,900,8-20-2022,10-59-40,21,depth_duration_stimuli/000447_2014-06-08_16-15-46_260595134347_rgbf000130-resize_1/000447_2014-06-08_16-15-46_260595134347_rgbf000130-resize_1-target.png,250,4.479,1,2499,251,feet,jsons/v1_VE250_randls_63_rotated.json,1424015,1631121,36,Man
21,902089,DepthScenes,duration_manipulation_targetAtFixation,jsons/v1_VE250_randls_63_rotated.json,http://54.235.29.9/FacialAge/BNav_EC2/DepthDuration/v2_depth_duration_MTurk/v2_DepthDuration_HTML.html#4,4,823,514,1440,900,8-20-2022,10-59-40,22,depth_duration_stimuli/001136_2014-06-17_15-19-41_260595134347_rgbf000076-resize_3/001136_2014-06-17_15-19-41_260595134347_rgbf000076-resize_3-target.png,250,1.8655,0,23530,250,feet,jsons/v1_VE250_randls_63_rotated.json,1424015,1631121,36,Man
22,902089,DepthScenes,duration_manipulation_targetAtFixation,jsons/v1_VE250_randls_63_rotated.json,http://54.235.29.9/FacialAge/BNav_EC2/DepthDuration/v2_depth_duration_MTurk/v2_DepthDuration_HTML.html#4,4,823,514,1440,900,8-20-2022,10-59-40,23,depth_duration_stimuli/001164_2014-06-17_15-35-46_260595134347_rgbf000085-resize_3/001164_2014-06-17_15-35-46_260595134347_rgbf000085-resize_3-target.png,250,2.354,1,15171,250,feet,jsons/v1_VE250_randls_63_rotated.json,1424015,1631121,36,Man
23,902089,DepthScenes,duration_manipulation_targetAtFixation,jsons/v1_VE250_randls_63_rotated.json,http://54.235.29.9/FacialAge/BNav_EC2/DepthDuration/v2_depth_duration_MTurk/v2_DepthDuration_HTML.html#4,4,823,514,1440,900,8-20-2022,10-59-40,24,depth_duration_stimuli/002467_2014-06-28_20-38-07_260595134347_rgbf000026-resize_2/002467_2014-06-28_20-38-07_260595134347_rgbf000026-resize_2-target.png,250,4.742,1,3082,251,feet,jsons/v1_VE250_randls_63_rotated.json,1424015,1631121,36,Man
24,902089,DepthScenes,duration_manipulation_targetAtFixation,jsons/v1_VE250_randls_63_rotated.json,http://54.235.29.9/FacialAge/BNav_EC2/DepthDuration/v2_depth_duration_MTurk/v2_DepthDuration_HTML.html#4,4,823,514,1440,900,8-20-2022,10-59-40,25,depth_duration_stimuli/002570_2014-06-24_13-59-54_094959634447_rgbf000059-resize_0/002570_2014-06-24_13-59-54_094959634447_rgbf000059-resize_0-target.png,250,4.037,1,17042,250,feet,jsons/v1_VE250_randls_63_rotated.json,1424015,1631121,36,Man
25,902089,DepthScenes,duration_manipulation_targetAtFixation,jsons/v1_VE250_randls_63_rotated.json,http://54.235.29.9/FacialAge/BNav_EC2/DepthDuration/v2_depth_duration_MTurk/v2_DepthDuration_HTML.html#4,4,823,514,1440,900,8-20-2022,10-59-40,26,depth_duration_stimuli/002209_2014-06-28_18-36-10_260595134347_rgbf000051-resize_1/002209_2014-06-28_18-36-10_260595134347_rgbf000051-resize_1-target.png,250,2.057,1,218396,251,feet,jsons/v1_VE250_randls_63_rotated.json,1424015,1631121,36,Man
26,902089,DepthScenes,duration_manipulation_targetAtFixation,jsons/v1_VE250_randls_63_rotated.json,http://54.235.29.9/FacialAge/BNav_EC2/DepthDuration/v2_depth_duration_MTurk/v2_DepthDuration_HTML.html#4,4,823,514,1440,900,8-20-2022,10-59-40,27,depth_duration_stimuli/002763_2014-06-22_19-13-10_094959634447_rgbf000075-resize_4/002763_2014-06-22_19-13-10_094959634447_rgbf000075-resize_4-target.png,250,1.68375,1,1930,248,feet,jsons/v1_VE250_randls_63_rotated.json,1424015,1631121,36,Man
27,902089,DepthScenes,duration_manipulation_targetAtFixation,jsons/v1_VE250_randls_63_rotated.json,http://54.235.29.9/FacialAge/BNav_EC2/DepthDuration/v2_depth_duration_MTurk/v2_DepthDuration_HTML.html#4,4,823,514,1440,900,8-20-2022,10-59-40,28,depth_duration_stimuli/001214_2014-06-17_16-13-55_260595134347_rgbf000111-resize_0/001214_2014-06-17_16-13-55_260595134347_rgbf000111-resize_0-target.png,250,2.6505,1,2066,251,feet,jsons/v1_VE250_randls_63_rotated.json,1424015,1631121,36,Man
28,902089,DepthScenes,duration_manipulation_targetAtFixation,jsons/v1_VE250_randls_63_rotated.json,http://54.235.29.9/FacialAge/BNav_EC2/DepthDuration/v2_depth_duration_MTurk/v2_DepthDuration_HTML.html#4,4,823,514,1440,900,8-20-2022,10-59-40,29,depth_duration_stimuli/000810_2014-06-08_17-20-01_260595134347_rgbf000105-resize_0/000810_2014-06-08_17-20-01_260595134347_rgbf000105-resize_0-target.png,250,1.4865,1,2059,251,feet,jsons/v1_VE250_randls_63_rotated.json,1424015,1631121,36,Man
29,902089,DepthScenes,duration_manipulation_targetAtFixation,jsons/v1_VE250_randls_63_rotated.json,http://54.235.29.9/FacialAge/BNav_EC2/DepthDuration/v2_depth_duration_MTurk/v2_DepthDuration_HTML.html#4,4,823,514,1440,900,8-20-2022,10-59-40,30,depth_duration_stimuli/002072_2014-06-24_21-48-06_260595134347_rgbf000115-resize_0/002072_2014-06-24_21-48-06_260595134347_rgbf000115-resize-original.jpg,250,4.702,0,2195,250,feet,jsons/v1_VE250_randls_63_rotated.json,1424015,1631121,36,Man
30,902089,DepthScenes,duration_manipulation_targetAtFixation,jsons/v1_VE250_randls_63_rotated.json,http://54.235.29.9/FacialAge/BNav_EC2/DepthDuration/v2_depth_duration_MTurk/v2_DepthDuration_HTML.html#4,4,823,514,1440,900,8-20-2022,10-59-40,31,depth_duration_stimuli/002414_2014-06-28_20-24-58_260595134347_rgbf000067-resize_4/002414_2014-06-28_20-24-58_260595134347_rgbf000067-resize_4-target.png,250,4.363,1,2025,249,feet,jsons/v1_VE250_randls_63_rotated.json,1424015,1631121,36,Man
31,902089,DepthScenes,duration_manipulation_targetAtFixation,jsons/v1_VE250_randls_63_rotated.json,http://54.235.29.9/FacialAge/BNav_EC2/DepthDuration/v2_depth_duration_MTurk/v2_DepthDuration_HTML.html#4,4,823,514,1440,900,8-20-2022,10-59-40,32,depth_duration_stimuli/000773_2014-06-08_22-24-54_260595134347_rgbf000093-resize_1/000773_2014-06-08_22-24-54_260595134347_rgbf000093-resize_1-target.png,250,4.973,1,1955,249,feet,jsons/v1_VE250_randls_63_rotated.json,1424015,1631121,36,Man
32,902089,DepthScenes,duration_manipulation_targetAtFixation,jsons/v1_VE250_randls_63_rotated.json,http://54.235.29.9/FacialAge/BNav_EC2/DepthDuration/v2_depth_duration_MTurk/v2_DepthDuration_HTML.html#4,4,823,514,1440,900,8-20-2022,10-59-40,33,depth_duration_stimuli/003423_2014-05-21_10-23-26_094959634447_rgbf002665-resize_2/003423_2014-05-21_10-23-26_094959634447_rgbf002665-resize_2-target.png,250,3.2575,1,1970,250,feet,jsons/v1_VE250_randls_63_rotated.json,1424015,1631121,36,Man
33,902089,DepthScenes,duration_manipulation_targetAtFixation,jsons/v1_VE250_randls_63_rotated.json,http://54.235.29.9/FacialAge/BNav_EC2/DepthDuration/v2_depth_duration_MTurk/v2_DepthDuration_HTML.html#4,4,823,514,1440,900,8-20-2022,10-59-40,34,depth_duration_stimuli/002905_2014-06-03_18-04-43_094959634447_rgbf000151-resize_2/002905_2014-06-03_18-04-43_094959634447_rgbf000151-resize_2-target.png,250,2.0295,1,1931,251,feet,jsons/v1_VE250_randls_63_rotated.json,1424015,1631121,36,Man
34,902089,DepthScenes,duration_manipulation_targetAtFixation,jsons/v1_VE250_randls_63_rotated.json,http://54.235.29.9/FacialAge/BNav_EC2/DepthDuration/v2_depth_duration_MTurk/v2_DepthDuration_HTML.html#4,4,823,514,1440,900,8-20-2022,10-59-40,35,depth_duration_stimuli/000691_2014-06-08_13-08-50_260595134347_rgbf000132-resize_3/000691_2014-06-08_13-08-50_260595134347_rgbf000132-resize_3-target.png,250,4.1530000000000005,1,2115,251,feet,jsons/v1_VE250_randls_63_rotated.json,1424015,1631121,36,Man
35,902089,DepthScenes,duration_manipulation_targetAtFixation,jsons/v1_VE250_randls_63_rotated.json,http://54.235.29.9/FacialAge/BNav_EC2/DepthDuration/v2_depth_duration_MTurk/v2_DepthDuration_HTML.html#4,4,823,514,1440,900,8-20-2022,10-59-40,36,depth_duration_stimuli/002213_2014-06-28_18-37-58_260595134347_rgbf000055-resize_1/002213_2014-06-28_18-37-58_260595134347_rgbf000055-resize_1-target.png,250,3.62,1,2043,250,feet,jsons/v1_VE250_randls_63_rotated.json,1424015,1631121,36,Man
36,902089,DepthScenes,duration_manipulation_targetAtFixation,jsons/v1_VE250_randls_63_rotated.json,http://54.235.29.9/FacialAge/BNav_EC2/DepthDuration/v2_depth_duration_MTurk/v2_DepthDuration_HTML.html#4,4,823,514,1440,900,8-20-2022,10-59-40,37,depth_duration_stimuli/003083_2014-06-15_15-21-03_094959634447_rgbf000063-resize_1/003083_2014-06-15_15-21-03_094959634447_rgbf000063-resize_1-target.png,250,4.1405,1,1994,250,feet,jsons/v1_VE250_randls_63_rotated.json,1424015,1631121,36,Man
37,902089,DepthScenes,duration_manipulation_targetAtFixation,jsons/v1_VE250_randls_63_rotated.json,http://54.235.29.9/FacialAge/BNav_EC2/DepthDuration/v2_depth_duration_MTurk/v2_DepthDuration_HTML.html#4,4,823,514,1440,900,8-20-2022,10-59-40,38,depth_duration_stimuli/000486_2014-06-09_20-47-20_260595134347_rgbf000143-resize_2/000486_2014-06-09_20-47-20_260595134347_rgbf000143-resize_2-target.png,250,4.8325,5,10362,249,feet,jsons/v1_VE250_randls_63_rotated.json,1424015,1631121,36,Man
38,902089,DepthScenes,duration_manipulation_targetAtFixation,jsons/v1_VE250_randls_63_rotated.json,http://54.235.29.9/FacialAge/BNav_EC2/DepthDuration/v2_depth_duration_MTurk/v2_DepthDuration_HTML.html#4,4,823,514,1440,900,8-20-2022,10-59-40,39,depth_duration_stimuli/001617_2014-06-20_11-35-32_260595134347_rgbf000066-resize_1/001617_2014-06-20_11-35-32_260595134347_rgbf000066-resize_1-target.png,250,3.7910000000000004,40,3201,250,feet,jsons/v1_VE250_randls_63_rotated.json,1424015,1631121,36,Man
39,902089,DepthScenes,duration_manipulation_targetAtFixation,jsons/v1_VE250_randls_63_rotated.json,http://54.235.29.9/FacialAge/BNav_EC2/DepthDuration/v2_depth_duration_MTurk/v2_DepthDuration_HTML.html#4,4,823,514,1440,900,8-20-2022,10-59-40,40,depth_duration_stimuli/001806_2014-06-26_20-50-20_260595134347_rgbf000091-resize_1/001806_2014-06-26_20-50-20_260595134347_rgbf000091-resize_1-target.png,250,2.7305,5,2747,251,feet,jsons/v1_VE250_randls_63_rotated.json,1424015,1631121,36,Man
40,902089,DepthScenes,duration_manipulation_targetAtFixation,jsons/v1_VE250_randls_63_rotated.json,http://54.235.29.9/FacialAge/BNav_EC2/DepthDuration/v2_depth_duration_MTurk/v2_DepthDuration_HTML.html#4,4,823,514,1440,900,8-20-2022,10-59-40,41,depth_duration_stimuli/000866_2014-06-09_20-45-42_260595134347_rgbf000139-resize_1/000866_2014-06-09_20-45-42_260595134347_rgbf000139-resize_1-target.png,250,3.2155,5,5861,251,feet,jsons/v1_VE250_randls_63_rotated.json,1424015,1631121,36,Man
41,902089,DepthScenes,duration_manipulation_targetAtFixation,jsons/v1_VE250_randls_63_rotated.json,http://54.235.29.9/FacialAge/BNav_EC2/DepthDuration/v2_depth_duration_MTurk/v2_DepthDuration_HTML.html#4,4,823,514,1440,900,8-20-2022,10-59-40,42,depth_duration_stimuli/002989_2014-06-15_12-25-03_094959634447_rgbf000150-resize_3/002989_2014-06-15_12-25-03_094959634447_rgbf000150-resize_3-target.png,250,4.1975,5,3002,250,feet,jsons/v1_VE250_randls_63_rotated.json,1424015,1631121,36,Man
42,902089,DepthScenes,duration_manipulation_targetAtFixation,jsons/v1_VE250_randls_63_rotated.json,http://54.235.29.9/FacialAge/BNav_EC2/DepthDuration/v2_depth_duration_MTurk/v2_DepthDuration_HTML.html#4,4,823,514,1440,900,8-20-2022,10-59-40,43,depth_duration_stimuli/000927_2014-06-09_16-32-30_260595134347_rgbf000123-resize_3/000927_2014-06-09_16-32-30_260595134347_rgbf000123-resize_3-target.png,250,2.6785,4,2901,250,feet,jsons/v1_VE250_randls_63_rotated.json,1424015,1631121,36,Man
43,902089,DepthScenes,duration_manipulation_targetAtFixation,jsons/v1_VE250_randls_63_rotated.json,http://54.235.29.9/FacialAge/BNav_EC2/DepthDuration/v2_depth_duration_MTurk/v2_DepthDuration_HTML.html#4,4,823,514,1440,900,8-20-2022,10-59-40,44,depth_duration_stimuli/001110_2014-06-15_17-25-28_260595134347_rgbf000150-resize_1/001110_2014-06-15_17-25-28_260595134347_rgbf000150-resize_1-target.png,250,1.7115,4,2259,251,feet,jsons/v1_VE250_randls_63_rotated.json,1424015,1631121,36,Man
44,902089,DepthScenes,duration_manipulation_targetAtFixation,jsons/v1_VE250_randls_63_rotated.json,http://54.235.29.9/FacialAge/BNav_EC2/DepthDuration/v2_depth_duration_MTurk/v2_DepthDuration_HTML.html#4,4,823,514,1440,900,8-20-2022,10-59-40,45,depth_duration_stimuli/001100_2014-06-15_17-46-26_260595134347_rgbf000225-resize_2/001100_2014-06-15_17-46-26_260595134347_rgbf000225-resize_2-target.png,250,2.24,4,2659,250,feet,jsons/v1_VE250_randls_63_rotated.json,1424015,1631121,36,Man
45,902089,DepthScenes,duration_manipulation_targetAtFixation,jsons/v1_VE250_randls_63_rotated.json,http://54.235.29.9/FacialAge/BNav_EC2/DepthDuration/v2_depth_duration_MTurk/v2_DepthDuration_HTML.html#4,4,823,514,1440,900,8-20-2022,10-59-40,46,depth_duration_stimuli/002784_2014-06-22_19-26-30_094959634447_rgbf000083-resize_3/002784_2014-06-22_19-26-30_094959634447_rgbf000083-resize_3-target.png,250,1.8046666666667,2,2779,250,feet,jsons/v1_VE250_randls_63_rotated.json,1424015,1631121,36,Man
46,902089,DepthScenes,duration_manipulation_targetAtFixation,jsons/v1_VE250_randls_63_rotated.json,http://54.235.29.9/FacialAge/BNav_EC2/DepthDuration/v2_depth_duration_MTurk/v2_DepthDuration_HTML.html#4,4,823,514,1440,900,8-20-2022,10-59-40,47,depth_duration_stimuli/001032_2014-06-08_13-23-17_260595134347_rgbf000021-resize_3/001032_2014-06-08_13-23-17_260595134347_rgbf000021-resize_3-target.png,250,3.2725,2,2675,250,feet,jsons/v1_VE250_randls_63_rotated.json,1424015,1631121,36,Man
47,902089,DepthScenes,duration_manipulation_targetAtFixation,jsons/v1_VE250_randls_63_rotated.json,http://54.235.29.9/FacialAge/BNav_EC2/DepthDuration/v2_depth_duration_MTurk/v2_DepthDuration_HTML.html#4,4,823,514,1440,900,8-20-2022,10-59-40,48,depth_duration_stimuli/001059_2014-06-08_21-53-27_260595134347_rgbf000061-resize_4/001059_2014-06-08_21-53-27_260595134347_rgbf000061-resize_4-target.png,250,2.4185,2,3809,250,feet,jsons/v1_VE250_randls_63_rotated.json,1424015,1631121,36,Man
48,902089,DepthScenes,duration_manipulation_targetAtFixation,jsons/v1_VE250_randls_63_rotated.json,http://54.235.29.9/FacialAge/BNav_EC2/DepthDuration/v2_depth_duration_MTurk/v2_DepthDuration_HTML.html#4,4,823,514,1440,900,8-20-2022,10-59-40,49,depth_duration_stimuli/001170_2014-06-17_15-43-44_260595134347_rgbf000096-resize_6/001170_2014-06-17_15-43-44_260595134347_rgbf000096-resize-original.jpg,250,1.1909999999999998,0,2754,251,feet,jsons/v1_VE250_randls_63_rotated.json,1424015,1631121,36,Man
49,902089,DepthScenes,duration_manipulation_targetAtFixation,jsons/v1_VE250_randls_63_rotated.json,http://54.235.29.9/FacialAge/BNav_EC2/DepthDuration/v2_depth_duration_MTurk/v2_DepthDuration_HTML.html#4,4,823,514,1440,900,8-20-2022,10-59-40,50,depth_duration_stimuli/001235_2014-06-17_16-37-36_260595134347_rgbf000084-resize_4/001235_2014-06-17_16-37-36_260595134347_rgbf000084-resize_4-target.png,250,3.6605,5,3461,249,feet,jsons/v1_VE250_randls_63_rotated.json,1424015,1631121,36,Man
50,902089,DepthScenes,duration_manipulation_targetAtFixation,jsons/v1_VE250_randls_63_rotated.json,http://54.235.29.9/FacialAge/BNav_EC2/DepthDuration/v2_depth_duration_MTurk/v2_DepthDuration_HTML.html#4,4,823,514,1440,900,8-20-2022,10-59-40,51,depth_duration_stimuli/000788_2014-06-08_22-34-36_260595134347_rgbf000131-resize_1/000788_2014-06-08_22-34-36_260595134347_rgbf000131-resize_1-target.png,250,3.359,5,2640,251,feet,jsons/v1_VE250_randls_63_rotated.json,1424015,1631121,36,Man
51,902089,DepthScenes,duration_manipulation_targetAtFixation,jsons/v1_VE250_randls_63_rotated.json,http://54.235.29.9/FacialAge/BNav_EC2/DepthDuration/v2_depth_duration_MTurk/v2_DepthDuration_HTML.html#4,4,823,514,1440,900,8-20-2022,10-59-40,52,depth_duration_stimuli/001516_2014-06-20_16-25-09_260595134347_rgbf000076-resize_2/001516_2014-06-20_16-25-09_260595134347_rgbf000076-resize_2-target.png,250,1.7445,2,2362,249,feet,jsons/v1_VE250_randls_63_rotated.json,1424015,1631121,36,Man
52,902089,DepthScenes,duration_manipulation_targetAtFixation,jsons/v1_VE250_randls_63_rotated.json,http://54.235.29.9/FacialAge/BNav_EC2/DepthDuration/v2_depth_duration_MTurk/v2_DepthDuration_HTML.html#4,4,823,514,1440,900,8-20-2022,10-59-40,53,depth_duration_stimuli/002118_2014-06-25_20-32-08_260595134347_rgbf000078-resize_1/002118_2014-06-25_20-32-08_260595134347_rgbf000078-resize_1-target.png,250,2.6460000000000004,2,2450,252,feet,jsons/v1_VE250_randls_63_rotated.json,1424015,1631121,36,Man
53,902089,DepthScenes,duration_manipulation_targetAtFixation,jsons/v1_VE250_randls_63_rotated.json,http://54.235.29.9/FacialAge/BNav_EC2/DepthDuration/v2_depth_duration_MTurk/v2_DepthDuration_HTML.html#4,4,823,514,1440,900,8-20-2022,10-59-40,54,depth_duration_stimuli/000854_2014-06-09_19-43-13_260595134347_rgbf000066-resize_0/000854_2014-06-09_19-43-13_260595134347_rgbf000066-resize_0-target.png,250,3.068,2,3003,251,feet,jsons/v1_VE250_randls_63_rotated.json,1424015,1631121,36,Man
54,902089,DepthScenes,duration_manipulation_targetAtFixation,jsons/v1_VE250_randls_63_rotated.json,http://54.235.29.9/FacialAge/BNav_EC2/DepthDuration/v2_depth_duration_MTurk/v2_DepthDuration_HTML.html#4,4,823,514,1440,900,8-20-2022,10-59-40,55,depth_duration_stimuli/000758_2014-06-08_22-05-08_260595134347_rgbf000085-resize_0/000758_2014-06-08_22-05-08_260595134347_rgbf000085-resize_0-target.png,250,3.3810000000000002,2,2761,249,feet,jsons/v1_VE250_randls_63_rotated.json,1424015,1631121,36,Man
55,902089,DepthScenes,duration_manipulation_targetAtFixation,jsons/v1_VE250_randls_63_rotated.json,http://54.235.29.9/FacialAge/BNav_EC2/DepthDuration/v2_depth_duration_MTurk/v2_DepthDuration_HTML.html#4,4,823,514,1440,900,8-20-2022,10-59-40,56,depth_duration_stimuli/000137_2014-05-20_17-04-49_260595134347_rgbf000120-resize_1/000137_2014-05-20_17-04-49_260595134347_rgbf000120-resize_1-target.png,250,3.786,2,2361,249,feet,jsons/v1_VE250_randls_63_rotated.json,1424015,1631121,36,Man
56,902089,DepthScenes,duration_manipulation_targetAtFixation,jsons/v1_VE250_randls_63_rotated.json,http://54.235.29.9/FacialAge/BNav_EC2/DepthDuration/v2_depth_duration_MTurk/v2_DepthDuration_HTML.html#4,4,823,514,1440,900,8-20-2022,10-59-40,57,depth_duration_stimuli/000736_2014-06-08_18-24-15_260595134347_rgbf000206-resize_3/000736_2014-06-08_18-24-15_260595134347_rgbf000206-resize_3-target.png,250,3.515,5,2826,250,feet,jsons/v1_VE250_randls_63_rotated.json,1424015,1631121,36,Man
57,902089,DepthScenes,duration_manipulation_targetAtFixation,jsons/v1_VE250_randls_63_rotated.json,http://54.235.29.9/FacialAge/BNav_EC2/DepthDuration/v2_depth_duration_MTurk/v2_DepthDuration_HTML.html#4,4,823,514,1440,900,8-20-2022,10-59-40,58,depth_duration_stimuli/001571_2014-06-20_17-21-32_260595134347_rgbf000089-resize_1/001571_2014-06-20_17-21-32_260595134347_rgbf000089-resize_1-target.png,250,1.86,5,2547,251,feet,jsons/v1_VE250_randls_63_rotated.json,1424015,1631121,36,Man
58,902089,DepthScenes,duration_manipulation_targetAtFixation,jsons/v1_VE250_randls_63_rotated.json,http://54.235.29.9/FacialAge/BNav_EC2/DepthDuration/v2_depth_duration_MTurk/v2_DepthDuration_HTML.html#4,4,823,514,1440,900,8-20-2022,10-59-40,59,depth_duration_stimuli/002272_2014-06-28_18-53-56_260595134347_rgbf000067-resize_2/002272_2014-06-28_18-53-56_260595134347_rgbf000067-resize_2-target.png,250,1.138,5,2539,249,feet,jsons/v1_VE250_randls_63_rotated.json,1424015,1631121,36,Man
59,902089,DepthScenes,duration_manipulation_targetAtFixation,jsons/v1_VE250_randls_63_rotated.json,http://54.235.29.9/FacialAge/BNav_EC2/DepthDuration/v2_depth_duration_MTurk/v2_DepthDuration_HTML.html#4,4,823,514,1440,900,8-20-2022,10-59-40,60,depth_duration_stimuli/002660_2014-06-13_15-44-18_094959634447_rgbf001878-resize_2/002660_2014-06-13_15-44-18_094959634447_rgbf001878-resize_2-target.png,250,3.576,4,2363,250,feet,jsons/v1_VE250_randls_63_rotated.json,1424015,1631121,36,Man
60,902089,DepthScenes,duration_manipulation_targetAtFixation,jsons/v1_VE250_randls_63_rotated.json,http://54.235.29.9/FacialAge/BNav_EC2/DepthDuration/v2_depth_duration_MTurk/v2_DepthDuration_HTML.html#4,4,823,514,1440,900,8-20-2022,10-59-40,61,depth_duration_stimuli/002153_2014-06-25_21-27-18_260595134347_rgbf000038-resize_5/002153_2014-06-25_21-27-18_260595134347_rgbf000038-resize_5-target.png,250,2.505,5,2145,249,feet,jsons/v1_VE250_randls_63_rotated.json,1424015,1631121,36,Man
61,902089,DepthScenes,duration_manipulation_targetAtFixation,jsons/v1_VE250_randls_63_rotated.json,http://54.235.29.9/FacialAge/BNav_EC2/DepthDuration/v2_depth_duration_MTurk/v2_DepthDuration_HTML.html#4,4,823,514,1440,900,8-20-2022,10-59-40,62,depth_duration_stimuli/000103_2014-05-14_22-01-17_260595134347_rgbf000152-resize_5/000103_2014-05-14_22-01-17_260595134347_rgbf000152-resize_5-target.png,250,1.993,5,2109,251,feet,jsons/v1_VE250_randls_63_rotated.json,1424015,1631121,36,Man
62,902089,DepthScenes,duration_manipulation_targetAtFixation,jsons/v1_VE250_randls_63_rotated.json,http://54.235.29.9/FacialAge/BNav_EC2/DepthDuration/v2_depth_duration_MTurk/v2_DepthDuration_HTML.html#4,4,823,514,1440,900,8-20-2022,10-59-40,63,depth_duration_stimuli/001555_2014-06-20_17-12-10_260595134347_rgbf000065-resize_4/001555_2014-06-20_17-12-10_260595134347_rgbf000065-resize_4-target.png,250,1.633,4,2241,250,feet,jsons/v1_VE250_randls_63_rotated.json,1424015,1631121,36,Man
63,902089,DepthScenes,duration_manipulation_targetAtFixation,jsons/v1_VE250_randls_63_rotated.json,http://54.235.29.9/FacialAge/BNav_EC2/DepthDuration/v2_depth_duration_MTurk/v2_DepthDuration_HTML.html#4,4,823,514,1440,900,8-20-2022,10-59-40,64,depth_duration_stimuli/000502_2014-06-08_23-02-32_260595134347_rgbf000063-resize_4/000502_2014-06-08_23-02-32_260595134347_rgbf000063-resize_4-target.png,250,2.431,5,2444,251,feet,jsons/v1_VE250_randls_63_rotated.json,1424015,1631121,36,Man
64,902089,DepthScenes,duration_manipulation_targetAtFixation,jsons/v1_VE250_randls_63_rotated.json,http://54.235.29.9/FacialAge/BNav_EC2/DepthDuration/v2_depth_duration_MTurk/v2_DepthDuration_HTML.html#4,4,823,514,1440,900,8-20-2022,10-59-40,65,depth_duration_stimuli/001199_2014-06-17_16-03-48_260595134347_rgbf000077-resize_0/001199_2014-06-17_16-03-48_260595134347_rgbf000077-resize_0-target.png,250,3.4375,4,2475,249,feet,jsons/v1_VE250_randls_63_rotated.json,1424015,1631121,36,Man
65,902089,DepthScenes,duration_manipulation_targetAtFixation,jsons/v1_VE250_randls_63_rotated.json,http://54.235.29.9/FacialAge/BNav_EC2/DepthDuration/v2_depth_duration_MTurk/v2_DepthDuration_HTML.html#4,4,823,514,1440,900,8-20-2022,10-59-40,66,depth_duration_stimuli/001540_2014-06-20_17-01-05_260595134347_rgbf000086-resize_2/001540_2014-06-20_17-01-05_260595134347_rgbf000086-resize-original.jpg,250,1.459,0,2707,250,feet,jsons/v1_VE250_randls_63_rotated.json,1424015,1631121,36,Man
66,902089,DepthScenes,duration_manipulation_targetAtFixation,jsons/v1_VE250_randls_63_rotated.json,http://54.235.29.9/FacialAge/BNav_EC2/DepthDuration/v2_depth_duration_MTurk/v2_DepthDuration_HTML.html#4,4,823,514,1440,900,8-20-2022,10-59-40,67,depth_duration_stimuli/000556_2014-06-09_22-42-56_260595134347_rgbf000214-resize_1/000556_2014-06-09_22-42-56_260595134347_rgbf000214-resize_1-target.png,250,4.8415,4,2419,250,feet,jsons/v1_VE250_randls_63_rotated.json,1424015,1631121,36,Man
67,902089,DepthScenes,duration_manipulation_targetAtFixation,jsons/v1_VE250_randls_63_rotated.json,http://54.235.29.9/FacialAge/BNav_EC2/DepthDuration/v2_depth_duration_MTurk/v2_DepthDuration_HTML.html#4,4,823,514,1440,900,8-20-2022,10-59-40,68,depth_duration_stimuli/001158_2014-06-17_15-32-16_260595134347_rgbf000138-resize_2/001158_2014-06-17_15-32-16_260595134347_rgbf000138-resize_2-target.png,250,4.5315,5,2260,250,feet,jsons/v1_VE250_randls_63_rotated.json,1424015,1631121,36,Man
68,902089,DepthScenes,duration_manipulation_targetAtFixation,jsons/v1_VE250_randls_63_rotated.json,http://54.235.29.9/FacialAge/BNav_EC2/DepthDuration/v2_depth_duration_MTurk/v2_DepthDuration_HTML.html#4,4,823,514,1440,900,8-20-2022,10-59-40,69,depth_duration_stimuli/000709_2014-06-08_13-51-55_260595134347_rgbf000068-resize_3/000709_2014-06-08_13-51-55_260595134347_rgbf000068-resize_3-target.png,250,1.8030000000000002,4,2267,249,feet,jsons/v1_VE250_randls_63_rotated.json,1424015,1631121,36,Man
69,902089,DepthScenes,duration_manipulation_targetAtFixation,jsons/v1_VE250_randls_63_rotated.json,http://54.235.29.9/FacialAge/BNav_EC2/DepthDuration/v2_depth_duration_MTurk/v2_DepthDuration_HTML.html#4,4,823,514,1440,900,8-20-2022,10-59-40,70,depth_duration_stimuli/002057_2014-06-24_21-00-13_260595134347_rgbf000120-resize_1/002057_2014-06-24_21-00-13_260595134347_rgbf000120-resize_1-target.png,250,2.967,5,2120,250,feet,jsons/v1_VE250_randls_63_rotated.json,1424015,1631121,36,Man
70,902089,DepthScenes,duration_manipulation_targetAtFixation,jsons/v1_VE250_randls_63_rotated.json,http://54.235.29.9/FacialAge/BNav_EC2/DepthDuration/v2_depth_duration_MTurk/v2_DepthDuration_HTML.html#4,4,823,514,1440,900,8-20-2022,10-59-40,71,depth_duration_stimuli/002545_2014-06-24_13-38-53_094959634447_rgbf000080-resize_4/002545_2014-06-24_13-38-53_094959634447_rgbf000080-resize_4-target.png,250,1.9205,4,5387,250,feet,jsons/v1_VE250_randls_63_rotated.json,1424015,1631121,36,Man
71,902089,DepthScenes,duration_manipulation_targetAtFixation,jsons/v1_VE250_randls_63_rotated.json,http://54.235.29.9/FacialAge/BNav_EC2/DepthDuration/v2_depth_duration_MTurk/v2_DepthDuration_HTML.html#4,4,823,514,1440,900,8-20-2022,10-59-40,72,depth_duration_stimuli/001092_2014-06-15_17-34-58_260595134347_rgbf000171-resize_3/001092_2014-06-15_17-34-58_260595134347_rgbf000171-resize_3-target.png,250,2.6935,5,2201,250,feet,jsons/v1_VE250_randls_63_rotated.json,1424015,1631121,36,Man
72,902089,DepthScenes,duration_manipulation_targetAtFixation,jsons/v1_VE250_randls_63_rotated.json,http://54.235.29.9/FacialAge/BNav_EC2/DepthDuration/v2_depth_duration_MTurk/v2_DepthDuration_HTML.html#4,4,823,514,1440,900,8-20-2022,10-59-40,73,depth_duration_stimuli/002344_2014-06-28_20-06-29_260595134347_rgbf000030-resize_1/002344_2014-06-28_20-06-29_260595134347_rgbf000030-resize_1-target.png,250,1.5795,5,8395,251,feet,jsons/v1_VE250_randls_63_rotated.json,1424015,1631121,36,Man
73,902089,DepthScenes,duration_manipulation_targetAtFixation,jsons/v1_VE250_randls_63_rotated.json,http://54.235.29.9/FacialAge/BNav_EC2/DepthDuration/v2_depth_duration_MTurk/v2_DepthDuration_HTML.html#4,4,823,514,1440,900,8-20-2022,10-59-40,74,depth_duration_stimuli/002725_2014-06-22_11-47-51_094959634447_rgbf000070-resize_1/002725_2014-06-22_11-47-51_094959634447_rgbf000070-resize_1-target.png,250,2.195,4,1985,249,feet,jsons/v1_VE250_randls_63_rotated.json,1424015,1631121,36,Man
74,902089,DepthScenes,duration_manipulation_targetAtFixation,jsons/v1_VE250_randls_63_rotated.json,http://54.235.29.9/FacialAge/BNav_EC2/DepthDuration/v2_depth_duration_MTurk/v2_DepthDuration_HTML.html#4,4,823,514,1440,900,8-20-2022,10-59-40,75,depth_duration_stimuli/002323_2014-06-28_20-01-54_260595134347_rgbf000051-resize_4/002323_2014-06-28_20-01-54_260595134347_rgbf000051-resize_4-target.png,250,3.7310000000000003,5,2556,251,feet,jsons/v1_VE250_randls_63_rotated.json,1424015,1631121,36,Man
75,902089,DepthScenes,duration_manipulation_targetAtFixation,jsons/v1_VE250_randls_63_rotated.json,http://54.235.29.9/FacialAge/BNav_EC2/DepthDuration/v2_depth_duration_MTurk/v2_DepthDuration_HTML.html#4,4,823,514,1440,900,8-20-2022,10-59-40,76,depth_duration_stimuli/000917_2014-06-09_22-45-29_260595134347_rgbf000149-resize_3/000917_2014-06-09_22-45-29_260595134347_rgbf000149-resize_3-target.png,250,4.1865,4,373675,248,feet,jsons/v1_VE250_randls_63_rotated.json,1424015,1631121,36,Man
76,902089,DepthScenes,duration_manipulation_targetAtFixation,jsons/v1_VE250_randls_63_rotated.json,http://54.235.29.9/FacialAge/BNav_EC2/DepthDuration/v2_depth_duration_MTurk/v2_DepthDuration_HTML.html#4,4,823,514,1440,900,8-20-2022,10-59-40,77,depth_duration_stimuli/001828_2014-06-26_21-40-03_260595134347_rgbf000024-resize_0/001828_2014-06-26_21-40-03_260595134347_rgbf000024-resize_0-target.png,250,4.8260000000000005,4,3745,249,feet,jsons/v1_VE250_randls_63_rotated.json,1424015,1631121,36,Man
77,902089,DepthScenes,duration_manipulation_targetAtFixation,jsons/v1_VE250_randls_63_rotated.json,http://54.235.29.9/FacialAge/BNav_EC2/DepthDuration/v2_depth_duration_MTurk/v2_DepthDuration_HTML.html#4,4,823,514,1440,900,8-20-2022,10-59-40,78,depth_duration_stimuli/000009_2014-05-26_14-32-05_260595134347_rgbf000034-resize_3/000009_2014-05-26_14-32-05_260595134347_rgbf000034-resize_3-target.png,250,3.8715,4,2083,250,feet,jsons/v1_VE250_randls_63_rotated.json,1424015,1631121,36,Man
78,902089,DepthScenes,duration_manipulation_targetAtFixation,jsons/v1_VE250_randls_63_rotated.json,http://54.235.29.9/FacialAge/BNav_EC2/DepthDuration/v2_depth_duration_MTurk/v2_DepthDuration_HTML.html#4,4,823,514,1440,900,8-20-2022,10-59-40,79,depth_duration_stimuli/003495_2014-05-21_16-01-51_094959634447_rgbf000100-resize_3/003495_2014-05-21_16-01-51_094959634447_rgbf000100-resize_3-target.png,250,1.6255,4,2579,249,feet,jsons/v1_VE250_randls_63_rotated.json,1424015,1631121,36,Man
79,902089,DepthScenes,duration_manipulation_targetAtFixation,jsons/v1_VE250_randls_63_rotated.json,http://54.235.29.9/FacialAge/BNav_EC2/DepthDuration/v2_depth_duration_MTurk/v2_DepthDuration_HTML.html#4,4,823,514,1440,900,8-20-2022,10-59-40,80,depth_duration_stimuli/001244_2014-06-17_16-47-45_260595134347_rgbf000030-resize_4/001244_2014-06-17_16-47-45_260595134347_rgbf000030-resize_4-target.png,250,2.0425,4,3034,250,feet,jsons/v1_VE250_randls_63_rotated.json,1424015,1631121,36,Man
80,902089,DepthScenes,duration_manipulation_targetAtFixation,jsons/v1_VE250_randls_63_rotated.json,http://54.235.29.9/FacialAge/BNav_EC2/DepthDuration/v2_depth_duration_MTurk/v2_DepthDuration_HTML.html#4,4,823,514,1440,900,8-20-2022,10-59-40,81,depth_duration_stimuli/000549_2014-06-08_22-10-24_260595134347_rgbf000247-resize_3/000549_2014-06-08_22-10-24_260595134347_rgbf000247-resize_3-target.png,250,1.841,4,10531,250,feet,jsons/v1_VE250_randls_63_rotated.json,1424015,1631121,36,Man
81,902089,DepthScenes,duration_manipulation_targetAtFixation,jsons/v1_VE250_randls_63_rotated.json,http://54.235.29.9/FacialAge/BNav_EC2/DepthDuration/v2_depth_duration_MTurk/v2_DepthDuration_HTML.html#4,4,823,514,1440,900,8-20-2022,10-59-40,82,depth_duration_stimuli/001055_2014-06-08_18-45-35_260595134347_rgbf000111-resize_4/001055_2014-06-08_18-45-35_260595134347_rgbf000111-resize_4-target.png,250,2.4290000000000003,1,143785,249,feet,jsons/v1_VE250_randls_63_rotated.json,1424015,1631121,36,Man
82,902089,DepthScenes,duration_manipulation_targetAtFixation,jsons/v1_VE250_randls_63_rotated.json,http://54.235.29.9/FacialAge/BNav_EC2/DepthDuration/v2_depth_duration_MTurk/v2_DepthDuration_HTML.html#4,4,823,514,1440,900,8-20-2022,10-59-40,83,depth_duration_stimuli/000635_2014-06-08_16-38-42_260595134347_rgbf000106-resize_1/000635_2014-06-08_16-38-42_260595134347_rgbf000106-resize_1-target.png,250,2.074,1,1858,250,feet,jsons/v1_VE250_randls_63_rotated.json,1424015,1631121,36,Man
83,902089,DepthScenes,duration_manipulation_targetAtFixation,jsons/v1_VE250_randls_63_rotated.json,http://54.235.29.9/FacialAge/BNav_EC2/DepthDuration/v2_depth_duration_MTurk/v2_DepthDuration_HTML.html#4,4,823,514,1440,900,8-20-2022,10-59-40,84,depth_duration_stimuli/002279_2014-06-28_18-55-32_260595134347_rgbf000040-resize_5/002279_2014-06-28_18-55-32_260595134347_rgbf000040-resize_5-target.png,250,1.5043333333333,1,2001,250,feet,jsons/v1_VE250_randls_63_rotated.json,1424015,1631121,36,Man
84,902089,DepthScenes,duration_manipulation_targetAtFixation,jsons/v1_VE250_randls_63_rotated.json,http://54.235.29.9/FacialAge/BNav_EC2/DepthDuration/v2_depth_duration_MTurk/v2_DepthDuration_HTML.html#4,4,823,514,1440,900,8-20-2022,10-59-40,85,depth_duration_stimuli/000409_2014-06-04_19-23-33_260595134347_rgbf000067-resize_0/000409_2014-06-04_19-23-33_260595134347_rgbf000067-resize_0-target.png,250,3.7335,1,2051,251,feet,jsons/v1_VE250_randls_63_rotated.json,1424015,1631121,36,Man
85,902089,DepthScenes,duration_manipulation_targetAtFixation,jsons/v1_VE250_randls_63_rotated.json,http://54.235.29.9/FacialAge/BNav_EC2/DepthDuration/v2_depth_duration_MTurk/v2_DepthDuration_HTML.html#4,4,823,514,1440,900,8-20-2022,10-59-40,86,depth_duration_stimuli/002663_2014-06-13_15-50-26_094959634447_rgbf000075-resize_1/002663_2014-06-13_15-50-26_094959634447_rgbf000075-resize_1-target.png,250,4.7495,1,2010,249,feet,jsons/v1_VE250_randls_63_rotated.json,1424015,1631121,36,Man
86,902089,DepthScenes,duration_manipulation_targetAtFixation,jsons/v1_VE250_randls_63_rotated.json,http://54.235.29.9/FacialAge/BNav_EC2/DepthDuration/v2_depth_duration_MTurk/v2_DepthDuration_HTML.html#4,4,823,514,1440,900,8-20-2022,10-59-40,87,depth_duration_stimuli/002953_2014-06-08_17-32-18_094959634447_rgbf000059-resize_5/002953_2014-06-08_17-32-18_094959634447_rgbf000059-resize_5-target.png,250,1.551,1,9941,250,feet,jsons/v1_VE250_randls_63_rotated.json,1424015,1631121,36,Man
87,902089,DepthScenes,duration_manipulation_targetAtFixation,jsons/v1_VE250_randls_63_rotated.json,http://54.235.29.9/FacialAge/BNav_EC2/DepthDuration/v2_depth_duration_MTurk/v2_DepthDuration_HTML.html#4,4,823,514,1440,900,8-20-2022,10-59-40,88,depth_duration_stimuli/000878_2014-06-08_22-52-45_260595134347_rgbf000045-resize_2/000878_2014-06-08_22-52-45_260595134347_rgbf000045-resize_2-target.png,250,2.092,1,3314,251,feet,jsons/v1_VE250_randls_63_rotated.json,1424015,1631121,36,Man
88,902089,DepthScenes,duration_manipulation_targetAtFixation,jsons/v1_VE250_randls_63_rotated.json,http://54.235.29.9/FacialAge/BNav_EC2/DepthDuration/v2_depth_duration_MTurk/v2_DepthDuration_HTML.html#4,4,823,514,1440,900,8-20-2022,10-59-40,89,depth_duration_stimuli/002678_2014-06-13_16-15-32_094959634447_rgbf000151-resize_6/002678_2014-06-13_16-15-32_094959634447_rgbf000151-resize_6-target.png,250,2.1830000000000003,1,2059,251,feet,jsons/v1_VE250_randls_63_rotated.json,1424015,1631121,36,Man
89,902089,DepthScenes,duration_manipulation_targetAtFixation,jsons/v1_VE250_randls_63_rotated.json,http://54.235.29.9/FacialAge/BNav_EC2/DepthDuration/v2_depth_duration_MTurk/v2_DepthDuration_HTML.html#4,4,823,514,1440,900,8-20-2022,10-59-40,90,depth_duration_stimuli/000368_2014-06-09_15-53-01_260595134347_rgbf000155-resize_2/000368_2014-06-09_15-53-01_260595134347_rgbf000155-resize_2-target.png,250,2.4859999999999998,1,2025,248,feet,jsons/v1_VE250_randls_63_rotated.json,1424015,1631121,36,Man
90,902089,DepthScenes,duration_manipulation_targetAtFixation,jsons/v1_VE250_randls_63_rotated.json,http://54.235.29.9/FacialAge/BNav_EC2/DepthDuration/v2_depth_duration_MTurk/v2_DepthDuration_HTML.html#4,4,823,514,1440,900,8-20-2022,10-59-40,91,depth_duration_stimuli/001132_2014-06-17_14-48-54_260595134347_rgbf000100-resize_2/001132_2014-06-17_14-48-54_260595134347_rgbf000100-resize_2-target.png,250,3.753,1,2296,250,feet,jsons/v1_VE250_randls_63_rotated.json,1424015,1631121,36,Man
91,902089,DepthScenes,duration_manipulation_targetAtFixation,jsons/v1_VE250_randls_63_rotated.json,http://54.235.29.9/FacialAge/BNav_EC2/DepthDuration/v2_depth_duration_MTurk/v2_DepthDuration_HTML.html#4,4,823,514,1440,900,8-20-2022,10-59-40,92,depth_duration_stimuli/001133_2014-06-17_14-49-16_260595134347_rgbf000100-resize_0/001133_2014-06-17_14-49-16_260595134347_rgbf000100-resize_0-target.png,250,4.2115,1,1979,250,feet,jsons/v1_VE250_randls_63_rotated.json,1424015,1631121,36,Man
92,902089,DepthScenes,duration_manipulation_targetAtFixation,jsons/v1_VE250_randls_63_rotated.json,http://54.235.29.9/FacialAge/BNav_EC2/DepthDuration/v2_depth_duration_MTurk/v2_DepthDuration_HTML.html#4,4,823,514,1440,900,8-20-2022,10-59-40,93,depth_duration_stimuli/003490_2014-05-21_15-50-11_094959634447_rgbf000101-resize_3/003490_2014-05-21_15-50-11_094959634447_rgbf000101-resize_3-target.png,250,3.6445,1,2395,250,feet,jsons/v1_VE250_randls_63_rotated.json,1424015,1631121,36,Man
93,902089,DepthScenes,duration_manipulation_targetAtFixation,jsons/v1_VE250_randls_63_rotated.json,http://54.235.29.9/FacialAge/BNav_EC2/DepthDuration/v2_depth_duration_MTurk/v2_DepthDuration_HTML.html#4,4,823,514,1440,900,8-20-2022,10-59-40,94,depth_duration_stimuli/001175_2014-06-17_15-45-55_260595134347_rgbf000129-resize_4/001175_2014-06-17_15-45-55_260595134347_rgbf000129-resize_4-target.png,250,4.255,1,14490,248,feet,jsons/v1_VE250_randls_63_rotated.json,1424015,1631121,36,Man
94,902089,DepthScenes,duration_manipulation_targetAtFixation,jsons/v1_VE250_randls_63_rotated.json,http://54.235.29.9/FacialAge/BNav_EC2/DepthDuration/v2_depth_duration_MTurk/v2_DepthDuration_HTML.html#4,4,823,514,1440,900,8-20-2022,10-59-40,95,depth_duration_stimuli/000943_2014-06-09_19-31-07_260595134347_rgbf000128-resize_1/000943_2014-06-09_19-31-07_260595134347_rgbf000128-resize_1-target.png,250,1.9765,1,2051,251,feet,jsons/v1_VE250_randls_63_rotated.json,1424015,1631121,36,Man
95,902089,DepthScenes,duration_manipulation_targetAtFixation,jsons/v1_VE250_randls_63_rotated.json,http://54.235.29.9/FacialAge/BNav_EC2/DepthDuration/v2_depth_duration_MTurk/v2_DepthDuration_HTML.html#4,4,823,514,1440,900,8-20-2022,10-59-40,96,depth_duration_stimuli/003070_2014-06-15_14-58-27_094959634447_rgbf000150-resize_3/003070_2014-06-15_14-58-27_094959634447_rgbf000150-resize_3-target.png,250,2.9415,1,2170,249,feet,jsons/v1_VE250_randls_63_rotated.json,1424015,1631121,36,Man
96,902089,DepthScenes,duration_manipulation_targetAtFixation,jsons/v1_VE250_randls_63_rotated.json,http://54.235.29.9/FacialAge/BNav_EC2/DepthDuration/v2_depth_duration_MTurk/v2_DepthDuration_HTML.html#4,4,823,514,1440,900,8-20-2022,10-59-40,97,depth_duration_stimuli/002103_2014-06-25_20-00-40_260595134347_rgbf000049-resize_0/002103_2014-06-25_20-00-40_260595134347_rgbf000049-resize_0-target.png,250,4.105,1,3396,252,feet,jsons/v1_VE250_randls_63_rotated.json,1424015,1631121,36,Man
97,902089,DepthScenes,duration_manipulation_targetAtFixation,jsons/v1_VE250_randls_63_rotated.json,http://54.235.29.9/FacialAge/BNav_EC2/DepthDuration/v2_depth_duration_MTurk/v2_DepthDuration_HTML.html#4,4,823,514,1440,900,8-20-2022,10-59-40,98,depth_duration_stimuli/002039_2014-06-24_20-22-38_260595134347_rgbf000084-resize_1/002039_2014-06-24_20-22-38_260595134347_rgbf000084-resize_1-target.png,250,4.408,1,1985,248,feet,jsons/v1_VE250_randls_63_rotated.json,1424015,1631121,36,Man
98,902089,DepthScenes,duration_manipulation_targetAtFixation,jsons/v1_VE250_randls_63_rotated.json,http://54.235.29.9/FacialAge/BNav_EC2/DepthDuration/v2_depth_duration_MTurk/v2_DepthDuration_HTML.html#4,4,823,514,1440,900,8-20-2022,10-59-40,99,depth_duration_stimuli/001222_2014-06-17_16-24-06_260595134347_rgbf000073-resize_0/001222_2014-06-17_16-24-06_260595134347_rgbf000073-resize-original.jpg,250,1.4385,0,2066,249,feet,jsons/v1_VE250_randls_63_rotated.json,1424015,1631121,36,Man
99,902089,DepthScenes,duration_manipulation_targetAtFixation,jsons/v1_VE250_randls_63_rotated.json,http://54.235.29.9/FacialAge/BNav_EC2/DepthDuration/v2_depth_duration_MTurk/v2_DepthDuration_HTML.html#4,4,823,514,1440,900,8-20-2022,10-59-40,100,depth_duration_stimuli/000191_2014-05-12_17-07-38_260595134347_rgbf000199-resize_0/000191_2014-05-12_17-07-38_260595134347_rgbf000199-resize_0-target.png,250,3.7995,1,2014,245,feet,jsons/v1_VE250_randls_63_rotated.json,1424015,1631121,36,Man
100,902089,DepthScenes,duration_manipulation_targetAtFixation,jsons/v1_VE250_randls_63_rotated.json,http://54.235.29.9/FacialAge/BNav_EC2/DepthDuration/v2_depth_duration_MTurk/v2_DepthDuration_HTML.html#4,4,823,514,1440,900,8-20-2022,10-59-40,101,depth_duration_stimuli/000493_2014-06-09_21-01-18_260595134347_rgbf000196-resize_3/000493_2014-06-09_21-01-18_260595134347_rgbf000196-resize_3-target.png,250,3.44,1,1820,250,feet,jsons/v1_VE250_randls_63_rotated.json,1424015,1631121,36,Man
101,902089,DepthScenes,duration_manipulation_targetAtFixation,jsons/v1_VE250_randls_63_rotated.json,http://54.235.29.9/FacialAge/BNav_EC2/DepthDuration/v2_depth_duration_MTurk/v2_DepthDuration_HTML.html#4,4,823,514,1440,900,8-20-2022,10-59-40,102,depth_duration_stimuli/003081_2014-06-15_15-19-16_094959634447_rgbf000150-resize_1/003081_2014-06-15_15-19-16_094959634447_rgbf000150-resize_1-target.png,250,3.9125,1,1898,251,feet,jsons/v1_VE250_randls_63_rotated.json,1424015,1631121,36,Man
102,902089,DepthScenes,duration_manipulation_targetAtFixation,jsons/v1_VE250_randls_63_rotated.json,http://54.235.29.9/FacialAge/BNav_EC2/DepthDuration/v2_depth_duration_MTurk/v2_DepthDuration_HTML.html#4,4,823,514,1440,900,8-20-2022,10-59-40,103,depth_duration_stimuli/001417_2014-06-19_16-25-36_260595134347_rgbf000115-resize_5/001417_2014-06-19_16-25-36_260595134347_rgbf000115-resize_5-target.png,250,4.6255,1,2067,251,feet,jsons/v1_VE250_randls_63_rotated.json,1424015,1631121,36,Man
103,902089,DepthScenes,duration_manipulation_targetAtFixation,jsons/v1_VE250_randls_63_rotated.json,http://54.235.29.9/FacialAge/BNav_EC2/DepthDuration/v2_depth_duration_MTurk/v2_DepthDuration_HTML.html#4,4,823,514,1440,900,8-20-2022,10-59-40,104,depth_duration_stimuli/002657_2014-06-13_15-29-54_094959634447_rgbf000150-resize_1/002657_2014-06-13_15-29-54_094959634447_rgbf000150-resize_1-target.png,250,4.919,1,1907,251,feet,jsons/v1_VE250_randls_63_rotated.json,1424015,1631121,36,Man
104,902089,DepthScenes,duration_manipulation_targetAtFixation,jsons/v1_VE250_randls_63_rotated.json,http://54.235.29.9/FacialAge/BNav_EC2/DepthDuration/v2_depth_duration_MTurk/v2_DepthDuration_HTML.html#4,4,823,514,1440,900,8-20-2022,10-59-40,105,depth_duration_stimuli/002375_2014-06-28_20-13-44_260595134347_rgbf000032-resize_1/002375_2014-06-28_20-13-44_260595134347_rgbf000032-resize_1-target.png,250,4.0175,2,2779,249,feet,jsons/v1_VE250_randls_63_rotated.json,1424015,1631121,36,Man
105,902089,DepthScenes,duration_manipulation_targetAtFixation,jsons/v1_VE250_randls_63_rotated.json,http://54.235.29.9/FacialAge/BNav_EC2/DepthDuration/v2_depth_duration_MTurk/v2_DepthDuration_HTML.html#4,4,823,514,1440,900,8-20-2022,10-59-40,106,depth_duration_stimuli/002758_2014-06-22_19-11-20_094959634447_rgbf000128-resize_1/002758_2014-06-22_19-11-20_094959634447_rgbf000128-resize_1-target.png,250,2.555,2,2090,249,feet,jsons/v1_VE250_randls_63_rotated.json,1424015,1631121,36,Man
106,902089,DepthScenes,duration_manipulation_targetAtFixation,jsons/v1_VE250_randls_63_rotated.json,http://54.235.29.9/FacialAge/BNav_EC2/DepthDuration/v2_depth_duration_MTurk/v2_DepthDuration_HTML.html#4,4,823,514,1440,900,8-20-2022,10-59-40,107,depth_duration_stimuli/002630_2014-06-24_14-47-50_094959634447_rgbf000055-resize_1/002630_2014-06-24_14-47-50_094959634447_rgbf000055-resize_1-target.png,250,3.0095,2,15980,249,feet,jsons/v1_VE250_randls_63_rotated.json,1424015,1631121,36,Man
107,902089,DepthScenes,duration_manipulation_targetAtFixation,jsons/v1_VE250_randls_63_rotated.json,http://54.235.29.9/FacialAge/BNav_EC2/DepthDuration/v2_depth_duration_MTurk/v2_DepthDuration_HTML.html#4,4,823,514,1440,900,8-20-2022,10-59-40,108,depth_duration_stimuli/000665_2014-06-09_20-42-35_260595134347_rgbf000110-resize_1/000665_2014-06-09_20-42-35_260595134347_rgbf000110-resize_1-target.png,250,3.057,2,2097,250,feet,jsons/v1_VE250_randls_63_rotated.json,1424015,1631121,36,Man
108,902089,DepthScenes,duration_manipulation_targetAtFixation,jsons/v1_VE250_randls_63_rotated.json,http://54.235.29.9/FacialAge/BNav_EC2/DepthDuration/v2_depth_duration_MTurk/v2_DepthDuration_HTML.html#4,4,823,514,1440,900,8-20-2022,10-59-40,109,depth_duration_stimuli/001150_2014-06-17_15-27-34_260595134347_rgbf000108-resize_2/001150_2014-06-17_15-27-34_260595134347_rgbf000108-resize_2-target.png,250,4.0325,4,2282,250,feet,jsons/v1_VE250_randls_63_rotated.json,1424015,1631121,36,Man
109,902089,DepthScenes,duration_manipulation_targetAtFixation,jsons/v1_VE250_randls_63_rotated.json,http://54.235.29.9/FacialAge/BNav_EC2/DepthDuration/v2_depth_duration_MTurk/v2_DepthDuration_HTML.html#4,4,823,514,1440,900,8-20-2022,10-59-40,110,depth_duration_stimuli/002425_2014-06-28_20-27-29_260595134347_rgbf000031-resize_8/002425_2014-06-28_20-27-29_260595134347_rgbf000031-resize_8-target.png,250,3.8960000000000004,4,2131,251,feet,jsons/v1_VE250_randls_63_rotated.json,1424015,1631121,36,Man
110,902089,DepthScenes,duration_manipulation_targetAtFixation,jsons/v1_VE250_randls_63_rotated.json,http://54.235.29.9/FacialAge/BNav_EC2/DepthDuration/v2_depth_duration_MTurk/v2_DepthDuration_HTML.html#4,4,823,514,1440,900,8-20-2022,10-59-40,111,depth_duration_stimuli/000642_2014-06-08_16-59-25_260595134347_rgbf000098-resize_2/000642_2014-06-08_16-59-25_260595134347_rgbf000098-resize_2-target.png,250,2.8815,4,2113,250,feet,jsons/v1_VE250_randls_63_rotated.json,1424015,1631121,36,Man
111,902089,DepthScenes,duration_manipulation_targetAtFixation,jsons/v1_VE250_randls_63_rotated.json,http://54.235.29.9/FacialAge/BNav_EC2/DepthDuration/v2_depth_duration_MTurk/v2_DepthDuration_HTML.html#4,4,823,514,1440,900,8-20-2022,10-59-40,112,depth_duration_stimuli/002444_2014-06-28_20-32-08_260595134347_rgbf000027-resize_0/002444_2014-06-28_20-32-08_260595134347_rgbf000027-resize_0-target.png,250,4.388999999999999,4,1930,250,feet,jsons/v1_VE250_randls_63_rotated.json,1424015,1631121,36,Man
112,902089,DepthScenes,duration_manipulation_targetAtFixation,jsons/v1_VE250_randls_63_rotated.json,http://54.235.29.9/FacialAge/BNav_EC2/DepthDuration/v2_depth_duration_MTurk/v2_DepthDuration_HTML.html#4,4,823,514,1440,900,8-20-2022,10-59-40,113,depth_duration_stimuli/000436_2014-06-09_22-25-11_260595134347_rgbf000137-resize_1/000436_2014-06-09_22-25-11_260595134347_rgbf000137-resize_1-target.png,250,4.0705,2,2428,251,feet,jsons/v1_VE250_randls_63_rotated.json,1424015,1631121,36,Man
113,902089,DepthScenes,duration_manipulation_targetAtFixation,jsons/v1_VE250_randls_63_rotated.json,http://54.235.29.9/FacialAge/BNav_EC2/DepthDuration/v2_depth_duration_MTurk/v2_DepthDuration_HTML.html#4,4,823,514,1440,900,8-20-2022,10-59-40,114,depth_duration_stimuli/001392_2014-06-19_16-07-59_260595134347_rgbf000046-resize_1/001392_2014-06-19_16-07-59_260595134347_rgbf000046-resize_1-target.png,250,4.135,4,3218,250,feet,jsons/v1_VE250_randls_63_rotated.json,1424015,1631121,36,Man
114,902089,DepthScenes,duration_manipulation_targetAtFixation,jsons/v1_VE250_randls_63_rotated.json,http://54.235.29.9/FacialAge/BNav_EC2/DepthDuration/v2_depth_duration_MTurk/v2_DepthDuration_HTML.html#4,4,823,514,1440,900,8-20-2022,10-59-40,115,depth_duration_stimuli/001570_2014-06-20_17-21-09_260595134347_rgbf000135-resize_4/001570_2014-06-20_17-21-09_260595134347_rgbf000135-resize_4-target.png,250,4.467,4,2538,251,feet,jsons/v1_VE250_randls_63_rotated.json,1424015,1631121,36,Man
115,902089,DepthScenes,duration_manipulation_targetAtFixation,jsons/v1_VE250_randls_63_rotated.json,http://54.235.29.9/FacialAge/BNav_EC2/DepthDuration/v2_depth_duration_MTurk/v2_DepthDuration_HTML.html#4,4,823,514,1440,900,8-20-2022,10-59-40,116,depth_duration_stimuli/001815_2014-06-26_20-52-55_260595134347_rgbf000020-resize_0/001815_2014-06-26_20-52-55_260595134347_rgbf000020-resize_0-target.png,250,3.3865,4,2122,250,feet,jsons/v1_VE250_randls_63_rotated.json,1424015,1631121,36,Man
116,902089,DepthScenes,duration_manipulation_targetAtFixation,jsons/v1_VE250_randls_63_rotated.json,http://54.235.29.9/FacialAge/BNav_EC2/DepthDuration/v2_depth_duration_MTurk/v2_DepthDuration_HTML.html#4,4,823,451,1440,900,8-20-2022,10-59-40,117,depth_duration_stimuli/001808_2014-06-26_20-50-58_260595134347_rgbf000029-resize_1/001808_2014-06-26_20-50-58_260595134347_rgbf000029-resize_1-target.png,250,4.249,4,12617,250,feet,jsons/v1_VE250_randls_63_rotated.json,1424015,1631121,36,Man
117,902089,DepthScenes,duration_manipulation_targetAtFixation,jsons/v1_VE250_randls_63_rotated.json,http://54.235.29.9/FacialAge/BNav_EC2/DepthDuration/v2_depth_duration_MTurk/v2_DepthDuration_HTML.html#4,4,823,451,1440,900,8-20-2022,10-59-40,118,depth_duration_stimuli/002750_2014-06-22_19-08-03_094959634447_rgbf000094-resize_4/002750_2014-06-22_19-08-03_094959634447_rgbf000094-resize_4-target.png,250,2.354,2,1890,248,feet,jsons/v1_VE250_randls_63_rotated.json,1424015,1631121,36,Man
118,902089,DepthScenes,duration_manipulation_targetAtFixation,jsons/v1_VE250_randls_63_rotated.json,http://54.235.29.9/FacialAge/BNav_EC2/DepthDuration/v2_depth_duration_MTurk/v2_DepthDuration_HTML.html#4,4,823,451,1440,900,8-20-2022,10-59-40,119,depth_duration_stimuli/002549_2014-06-24_13-41-39_094959634447_rgbf000022-resize_3/002549_2014-06-24_13-41-39_094959634447_rgbf000022-resize_3-target.png,250,1.476,4,1955,249,feet,jsons/v1_VE250_randls_63_rotated.json,1424015,1631121,36,Man
119,902089,DepthScenes,duration_manipulation_targetAtFixation,jsons/v1_VE250_randls_63_rotated.json,http://54.235.29.9/FacialAge/BNav_EC2/DepthDuration/v2_depth_duration_MTurk/v2_DepthDuration_HTML.html#4,4,823,451,1440,900,8-20-2022,10-59-40,120,depth_duration_stimuli/000787_2014-06-08_22-33-53_260595134347_rgbf000175-resize_1/000787_2014-06-08_22-33-53_260595134347_rgbf000175-resize-original.jpg,250,4.784,0,2395,251,feet,jsons/v1_VE250_randls_63_rotated.json,1424015,1631121,36,Man
120,902089,DepthScenes,duration_manipulation_targetAtFixation,jsons/v1_VE250_randls_63_rotated.json,http://54.235.29.9/FacialAge/BNav_EC2/DepthDuration/v2_depth_duration_MTurk/v2_DepthDuration_HTML.html#4,4,823,451,1440,900,8-20-2022,10-59-40,121,depth_duration_stimuli/003048_2014-06-15_13-49-43_094959634447_rgbf000150-resize_1/003048_2014-06-15_13-49-43_094959634447_rgbf000150-resize_1-target.png,250,4.0035,4,1905,250,feet,jsons/v1_VE250_randls_63_rotated.json,1424015,1631121,36,Man
121,902089,DepthScenes,duration_manipulation_targetAtFixation,jsons/v1_VE250_randls_63_rotated.json,http://54.235.29.9/FacialAge/BNav_EC2/DepthDuration/v2_depth_duration_MTurk/v2_DepthDuration_HTML.html#4,4,823,451,1440,900,8-20-2022,10-59-40,122,depth_duration_stimuli/002043_2014-06-24_20-29-38_260595134347_rgbf000039-resize_4/002043_2014-06-24_20-29-38_260595134347_rgbf000039-resize_4-target.png,250,2.8435,4,1893,251,feet,jsons/v1_VE250_randls_63_rotated.json,1424015,1631121,36,Man
122,902089,DepthScenes,duration_manipulation_targetAtFixation,jsons/v1_VE250_randls_63_rotated.json,http://54.235.29.9/FacialAge/BNav_EC2/DepthDuration/v2_depth_duration_MTurk/v2_DepthDuration_HTML.html#4,4,823,451,1440,900,8-20-2022,10-59-40,123,depth_duration_stimuli/001650_2014-06-20_12-09-00_260595134347_rgbf000087-resize_3/001650_2014-06-20_12-09-00_260595134347_rgbf000087-resize_3-target.png,250,1.9505,4,1930,250,feet,jsons/v1_VE250_randls_63_rotated.json,1424015,1631121,36,Man
123,902089,DepthScenes,duration_manipulation_targetAtFixation,jsons/v1_VE250_randls_63_rotated.json,http://54.235.29.9/FacialAge/BNav_EC2/DepthDuration/v2_depth_duration_MTurk/v2_DepthDuration_HTML.html#4,4,823,451,1440,900,8-20-2022,10-59-40,124,depth_duration_stimuli/000682_2014-06-08_23-14-58_260595134347_rgbf000041-resize_5/000682_2014-06-08_23-14-58_260595134347_rgbf000041-resize_5-target.png,250,2.7239999999999998,4,1914,249,feet,jsons/v1_VE250_randls_63_rotated.json,1424015,1631121,36,Man
124,902089,DepthScenes,duration_manipulation_targetAtFixation,jsons/v1_VE250_randls_63_rotated.json,http://54.235.29.9/FacialAge/BNav_EC2/DepthDuration/v2_depth_duration_MTurk/v2_DepthDuration_HTML.html#4,4,823,451,1440,900,8-20-2022,10-59-40,125,depth_duration_stimuli/001094_2014-06-15_17-36-00_260595134347_rgbf000205-resize_0/001094_2014-06-15_17-36-00_260595134347_rgbf000205-resize_0-target.png,250,4.2175,4,2082,251,feet,jsons/v1_VE250_randls_63_rotated.json,1424015,1631121,36,Man
125,902089,DepthScenes,duration_manipulation_targetAtFixation,jsons/v1_VE250_randls_63_rotated.json,http://54.235.29.9/FacialAge/BNav_EC2/DepthDuration/v2_depth_duration_MTurk/v2_DepthDuration_HTML.html#4,4,823,451,1440,900,8-20-2022,10-59-40,126,depth_duration_stimuli/000692_2014-06-08_13-09-42_260595134347_rgbf000199-resize_2/000692_2014-06-08_13-09-42_260595134347_rgbf000199-resize_2-target.png,250,3.661,0,49429,250,feet,jsons/v1_VE250_randls_63_rotated.json,1424015,1631121,36,Man
126,902089,DepthScenes,duration_manipulation_targetAtFixation,jsons/v1_VE250_randls_63_rotated.json,http://54.235.29.9/FacialAge/BNav_EC2/DepthDuration/v2_depth_duration_MTurk/v2_DepthDuration_HTML.html#4,4,823,451,1440,900,8-20-2022,10-59-40,127,depth_duration_stimuli/002875_2014-06-01_15-19-00_094959634447_rgbf000151-resize_1/002875_2014-06-01_15-19-00_094959634447_rgbf000151-resize_1-target.png,250,1.9675,1,2555,250,feet,jsons/v1_VE250_randls_63_rotated.json,1424015,1631121,36,Man
127,902089,DepthScenes,duration_manipulation_targetAtFixation,jsons/v1_VE250_randls_63_rotated.json,http://54.235.29.9/FacialAge/BNav_EC2/DepthDuration/v2_depth_duration_MTurk/v2_DepthDuration_HTML.html#4,4,823,451,1440,900,8-20-2022,10-59-40,128,depth_duration_stimuli/001011_2014-06-08_23-18-54_260595134347_rgbf000044-resize_4/001011_2014-06-08_23-18-54_260595134347_rgbf000044-resize_4-target.png,250,2.4730000000000003,2,2481,250,feet,jsons/v1_VE250_randls_63_rotated.json,1424015,1631121,36,Man
128,902089,DepthScenes,duration_manipulation_targetAtFixation,jsons/v1_VE250_randls_63_rotated.json,http://54.235.29.9/FacialAge/BNav_EC2/DepthDuration/v2_depth_duration_MTurk/v2_DepthDuration_HTML.html#4,4,823,451,1440,900,8-20-2022,10-59-40,129,depth_duration_stimuli/000742_2014-06-08_18-48-09_260595134347_rgbf000164-resize_4/000742_2014-06-08_18-48-09_260595134347_rgbf000164-resize_4-target.png,250,4.632,1,4961,249,feet,jsons/v1_VE250_randls_63_rotated.json,1424015,1631121,36,Man
129,902089,DepthScenes,duration_manipulation_targetAtFixation,jsons/v1_VE250_randls_63_rotated.json,http://54.235.29.9/FacialAge/BNav_EC2/DepthDuration/v2_depth_duration_MTurk/v2_DepthDuration_HTML.html#4,4,823,451,1440,900,8-20-2022,10-59-40,130,depth_duration_stimuli/001066_2014-06-08_22-03-20_260595134347_rgbf000066-resize_4/001066_2014-06-08_22-03-20_260595134347_rgbf000066-resize_4-target.png,250,4.2330000000000005,2,2499,251,feet,jsons/v1_VE250_randls_63_rotated.json,1424015,1631121,36,Man
130,902089,DepthScenes,duration_manipulation_targetAtFixation,jsons/v1_VE250_randls_63_rotated.json,http://54.235.29.9/FacialAge/BNav_EC2/DepthDuration/v2_depth_duration_MTurk/v2_DepthDuration_HTML.html#4,4,823,451,1440,900,8-20-2022,10-59-40,131,depth_duration_stimuli/002949_2014-06-26_15-57-42_094959634447_rgbf000079-resize_1/002949_2014-06-26_15-57-42_094959634447_rgbf000079-resize_1-target.png,250,1.8915,2,2345,249,feet,jsons/v1_VE250_randls_63_rotated.json,1424015,1631121,36,Man
131,902089,DepthScenes,duration_manipulation_targetAtFixation,jsons/v1_VE250_randls_63_rotated.json,http://54.235.29.9/FacialAge/BNav_EC2/DepthDuration/v2_depth_duration_MTurk/v2_DepthDuration_HTML.html#4,4,823,451,1440,900,8-20-2022,10-59-40,132,depth_duration_stimuli/000522_2014-06-08_13-35-06_260595134347_rgbf000244-resize_1/000522_2014-06-08_13-35-06_260595134347_rgbf000244-resize_1-target.png,250,2.3715,1,1979,250,feet,jsons/v1_VE250_randls_63_rotated.json,1424015,1631121,36,Man
132,902089,DepthScenes,duration_manipulation_targetAtFixation,jsons/v1_VE250_randls_63_rotated.json,http://54.235.29.9/FacialAge/BNav_EC2/DepthDuration/v2_depth_duration_MTurk/v2_DepthDuration_HTML.html#4,4,823,451,1440,900,8-20-2022,10-59-40,133,depth_duration_stimuli/002199_2014-06-28_18-33-56_260595134347_rgbf000074-resize_0/002199_2014-06-28_18-33-56_260595134347_rgbf000074-resize_0-target.png,250,1.996,2,1963,250,feet,jsons/v1_VE250_randls_63_rotated.json,1424015,1631121,36,Man
133,902089,DepthScenes,duration_manipulation_targetAtFixation,jsons/v1_VE250_randls_63_rotated.json,http://54.235.29.9/FacialAge/BNav_EC2/DepthDuration/v2_depth_duration_MTurk/v2_DepthDuration_HTML.html#4,4,823,451,1440,900,8-20-2022,10-59-40,134,depth_duration_stimuli/001056_2014-06-08_18-46-44_260595134347_rgbf000068-resize_0/001056_2014-06-08_18-46-44_260595134347_rgbf000068-resize_0-target.png,250,2.6625,2,1923,250,feet,jsons/v1_VE250_randls_63_rotated.json,1424015,1631121,36,Man
134,902089,DepthScenes,duration_manipulation_targetAtFixation,jsons/v1_VE250_randls_63_rotated.json,http://54.235.29.9/FacialAge/BNav_EC2/DepthDuration/v2_depth_duration_MTurk/v2_DepthDuration_HTML.html#4,4,823,451,1440,900,8-20-2022,10-59-40,135,depth_duration_stimuli/000375_2014-06-08_11-17-29_260595134347_rgbf000133-resize_2/000375_2014-06-08_11-17-29_260595134347_rgbf000133-resize-original.jpg,250,4.718,0,2332,250,feet,jsons/v1_VE250_randls_63_rotated.json,1424015,1631121,36,Man
135,902089,DepthScenes,duration_manipulation_targetAtFixation,jsons/v1_VE250_randls_63_rotated.json,http://54.235.29.9/FacialAge/BNav_EC2/DepthDuration/v2_depth_duration_MTurk/v2_DepthDuration_HTML.html#4,4,823,451,1440,900,8-20-2022,10-59-40,136,depth_duration_stimuli/002637_2014-06-24_14-51-13_094959634447_rgbf000066-resize_4/002637_2014-06-24_14-51-13_094959634447_rgbf000066-resize_4-target.png,250,1.9955,2,2035,249,feet,jsons/v1_VE250_randls_63_rotated.json,1424015,1631121,36,Man
136,902089,DepthScenes,duration_manipulation_targetAtFixation,jsons/v1_VE250_randls_63_rotated.json,http://54.235.29.9/FacialAge/BNav_EC2/DepthDuration/v2_depth_duration_MTurk/v2_DepthDuration_HTML.html#4,4,823,451,1440,900,8-20-2022,10-59-40,137,depth_duration_stimuli/003534_2014-05-22_15-06-10_094959634447_rgbf000102-resize_4/003534_2014-05-22_15-06-10_094959634447_rgbf000102-resize_4-target.png,250,1.426,1,2090,250,feet,jsons/v1_VE250_randls_63_rotated.json,1424015,1631121,36,Man
137,902089,DepthScenes,duration_manipulation_targetAtFixation,jsons/v1_VE250_randls_63_rotated.json,http://54.235.29.9/FacialAge/BNav_EC2/DepthDuration/v2_depth_duration_MTurk/v2_DepthDuration_HTML.html#4,4,823,451,1440,900,8-20-2022,10-59-40,138,depth_duration_stimuli/000749_2014-06-08_21-55-06_260595134347_rgbf000070-resize_2/000749_2014-06-08_21-55-06_260595134347_rgbf000070-resize_2-target.png,250,2.331,2,2506,250,feet,jsons/v1_VE250_randls_63_rotated.json,1424015,1631121,36,Man
138,902089,DepthScenes,duration_manipulation_targetAtFixation,jsons/v1_VE250_randls_63_rotated.json,http://54.235.29.9/FacialAge/BNav_EC2/DepthDuration/v2_depth_duration_MTurk/v2_DepthDuration_HTML.html#4,4,823,451,1440,900,8-20-2022,10-59-40,139,depth_duration_stimuli/002788_2014-06-22_19-36-03_094959634447_rgbf000088-resize_2/002788_2014-06-22_19-36-03_094959634447_rgbf000088-resize_2-target.png,250,1.6465,1,2266,249,feet,jsons/v1_VE250_randls_63_rotated.json,1424015,1631121,36,Man
139,902089,DepthScenes,duration_manipulation_targetAtFixation,jsons/v1_VE250_randls_63_rotated.json,http://54.235.29.9/FacialAge/BNav_EC2/DepthDuration/v2_depth_duration_MTurk/v2_DepthDuration_HTML.html#4,4,823,451,1440,900,8-20-2022,10-59-40,140,depth_duration_stimuli/002340_2014-06-28_20-05-46_260595134347_rgbf000113-resize_0/002340_2014-06-28_20-05-46_260595134347_rgbf000113-resize_0-target.png,250,2.4735,2,2651,251,feet,jsons/v1_VE250_randls_63_rotated.json,1424015,1631121,36,Man
140,902089,DepthScenes,duration_manipulation_targetAtFixation,jsons/v1_VE250_randls_63_rotated.json,http://54.235.29.9/FacialAge/BNav_EC2/DepthDuration/v2_depth_duration_MTurk/v2_DepthDuration_HTML.html#4,4,823,451,1440,900,8-20-2022,10-59-40,141,depth_duration_stimuli/001016_2014-06-09_16-16-10_260595134347_rgbf000112-resize_5/001016_2014-06-09_16-16-10_260595134347_rgbf000112-resize_5-target.png,250,1.6565,2,2675,251,feet,jsons/v1_VE250_randls_63_rotated.json,1424015,1631121,36,Man
141,902089,DepthScenes,duration_manipulation_targetAtFixation,jsons/v1_VE250_randls_63_rotated.json,http://54.235.29.9/FacialAge/BNav_EC2/DepthDuration/v2_depth_duration_MTurk/v2_DepthDuration_HTML.html#4,4,823,451,1440,900,8-20-2022,10-59-40,142,depth_duration_stimuli/001450_2014-06-19_17-02-03_260595134347_rgbf000203-resize_4/001450_2014-06-19_17-02-03_260595134347_rgbf000203-resize_4-target.png,250,4.0106666666667,2,2019,249,feet,jsons/v1_VE250_randls_63_rotated.json,1424015,1631121,36,Man
142,902089,DepthScenes,duration_manipulation_targetAtFixation,jsons/v1_VE250_randls_63_rotated.json,http://54.235.29.9/FacialAge/BNav_EC2/DepthDuration/v2_depth_duration_MTurk/v2_DepthDuration_HTML.html#4,4,823,451,1440,900,8-20-2022,10-59-40,143,depth_duration_stimuli/001449_2014-06-19_17-01-27_260595134347_rgbf000116-resize_2/001449_2014-06-19_17-01-27_260595134347_rgbf000116-resize_2-target.png,250,3.452,1,2243,250,feet,jsons/v1_VE250_randls_63_rotated.json,1424015,1631121,36,Man
143,902089,DepthScenes,duration_manipulation_targetAtFixation,jsons/v1_VE250_randls_63_rotated.json,http://54.235.29.9/FacialAge/BNav_EC2/DepthDuration/v2_depth_duration_MTurk/v2_DepthDuration_HTML.html#4,4,823,451,1440,900,8-20-2022,10-59-40,144,depth_duration_stimuli/003079_2014-06-15_15-18-20_094959634447_rgbf000152-resize_8/003079_2014-06-15_15-18-20_094959634447_rgbf000152-resize_8-target.png,250,2.8775,1,1858,251,feet,jsons/v1_VE250_randls_63_rotated.json,1424015,1631121,36,Man
144,902089,DepthScenes,duration_manipulation_targetAtFixation,jsons/v1_VE250_randls_63_rotated.json,http://54.235.29.9/FacialAge/BNav_EC2/DepthDuration/v2_depth_duration_MTurk/v2_DepthDuration_HTML.html#4,4,823,451,1440,900,8-20-2022,10-59-40,145,depth_duration_stimuli/000506_2014-06-08_23-21-00_260595134347_rgbf000070-resize_7/000506_2014-06-08_23-21-00_260595134347_rgbf000070-resize_7-target.png,250,4.0585,2,1795,251,feet,jsons/v1_VE250_randls_63_rotated.json,1424015,1631121,36,Man
145,902089,DepthScenes,duration_manipulation_targetAtFixation,jsons/v1_VE250_randls_63_rotated.json,http://54.235.29.9/FacialAge/BNav_EC2/DepthDuration/v2_depth_duration_MTurk/v2_DepthDuration_HTML.html#4,4,823,451,1440,900,8-20-2022,10-59-40,146,depth_duration_stimuli/002136_2014-06-25_21-18-03_260595134347_rgbf000109-resize_3/002136_2014-06-25_21-18-03_260595134347_rgbf000109-resize_3-target.png,250,1.9569999999999999,1,2172,250,feet,jsons/v1_VE250_randls_63_rotated.json,1424015,1631121,36,Man
146,902089,DepthScenes,duration_manipulation_targetAtFixation,jsons/v1_VE250_randls_63_rotated.json,http://54.235.29.9/FacialAge/BNav_EC2/DepthDuration/v2_depth_duration_MTurk/v2_DepthDuration_HTML.html#4,4,823,451,1440,900,8-20-2022,10-59-40,147,depth_duration_stimuli/002964_2014-06-08_17-46-11_094959634447_rgbf000091-resize_4/002964_2014-06-08_17-46-11_094959634447_rgbf000091-resize_4-target.png,250,1.6909999999999998,2,1868,251,feet,jsons/v1_VE250_randls_63_rotated.json,1424015,1631121,36,Man
147,902089,DepthScenes,duration_manipulation_targetAtFixation,jsons/v1_VE250_randls_63_rotated.json,http://54.235.29.9/FacialAge/BNav_EC2/DepthDuration/v2_depth_duration_MTurk/v2_DepthDuration_HTML.html#4,4,823,451,1440,900,8-20-2022,10-59-40,148,depth_duration_stimuli/000483_2014-06-09_20-41-45_260595134347_rgbf000116-resize_4/000483_2014-06-09_20-41-45_260595134347_rgbf000116-resize_4-target.png,250,1.337,1,2115,251,feet,jsons/v1_VE250_randls_63_rotated.json,1424015,1631121,36,Man
148,902089,DepthScenes,duration_manipulation_targetAtFixation,jsons/v1_VE250_randls_63_rotated.json,http://54.235.29.9/FacialAge/BNav_EC2/DepthDuration/v2_depth_duration_MTurk/v2_DepthDuration_HTML.html#4,4,823,451,1440,900,8-20-2022,10-59-40,149,depth_duration_stimuli/000469_2014-06-09_19-42-10_260595134347_rgbf000081-resize_1/000469_2014-06-09_19-42-10_260595134347_rgbf000081-resize_1-target.png,250,1.652,2,2107,250,feet,jsons/v1_VE250_randls_63_rotated.json,1424015,1631121,36,Man
149,902089,DepthScenes,duration_manipulation_targetAtFixation,jsons/v1_VE250_randls_63_rotated.json,http://54.235.29.9/FacialAge/BNav_EC2/DepthDuration/v2_depth_duration_MTurk/v2_DepthDuration_HTML.html#4,4,823,451,1440,900,8-20-2022,10-59-40,150,depth_duration_stimuli/000457_2014-06-08_16-52-43_260595134347_rgbf000199-resize_1/000457_2014-06-08_16-52-43_260595134347_rgbf000199-resize_1-target.png,250,3.6489999999999996,1,1906,250,feet,jsons/v1_VE250_randls_63_rotated.json,1424015,1631121,36,Man
150,902089,DepthScenes,duration_manipulation_targetAtFixation,jsons/v1_VE250_randls_63_rotated.json,http://54.235.29.9/FacialAge/BNav_EC2/DepthDuration/v2_depth_duration_MTurk/v2_DepthDuration_HTML.html#4,4,823,451,1440,900,8-20-2022,10-59-40,151,depth_duration_stimuli/000929_2014-06-09_16-33-19_260595134347_rgbf000139-resize_0/000929_2014-06-09_16-33-19_260595134347_rgbf000139-resize_0-target.png,250,2.8680000000000003,2,2195,250,feet,jsons/v1_VE250_randls_63_rotated.json,1424015,1631121,36,Man
151,902089,DepthScenes,duration_manipulation_targetAtFixation,jsons/v1_VE250_randls_63_rotated.json,http://54.235.29.9/FacialAge/BNav_EC2/DepthDuration/v2_depth_duration_MTurk/v2_DepthDuration_HTML.html#4,4,823,451,1440,900,8-20-2022,10-59-40,152,depth_duration_stimuli/000569_2014-06-09_22-51-47_260595134347_rgbf000141-resize_3/000569_2014-06-09_22-51-47_260595134347_rgbf000141-resize-original.jpg,250,4.512,1,34665,251,feet,jsons/v1_VE250_randls_63_rotated.json,1424015,1631121,36,Man
152,902089,DepthScenes,duration_manipulation_targetAtFixation,jsons/v1_VE250_randls_63_rotated.json,http://54.235.29.9/FacialAge/BNav_EC2/DepthDuration/v2_depth_duration_MTurk/v2_DepthDuration_HTML.html#4,4,823,451,1440,900,8-20-2022,10-59-40,153,depth_duration_stimuli/002568_2014-06-24_13-59-21_094959634447_rgbf000062-resize_4/002568_2014-06-24_13-59-21_094959634447_rgbf000062-resize_4-target.png,250,3.015,1,1947,250,feet,jsons/v1_VE250_randls_63_rotated.json,1424015,1631121,36,Man
153,902089,DepthScenes,duration_manipulation_targetAtFixation,jsons/v1_VE250_randls_63_rotated.json,http://54.235.29.9/FacialAge/BNav_EC2/DepthDuration/v2_depth_duration_MTurk/v2_DepthDuration_HTML.html#4,4,823,451,1440,900,8-20-2022,10-59-40,154,depth_duration_stimuli/003492_2014-05-21_15-50-55_094959634447_rgbf000828-resize_1/003492_2014-05-21_15-50-55_094959634447_rgbf000828-resize_1-target.png,250,4.06875,2,1907,250,feet,jsons/v1_VE250_randls_63_rotated.json,1424015,1631121,36,Man
154,902089,DepthScenes,duration_manipulation_targetAtFixation,jsons/v1_VE250_randls_63_rotated.json,http://54.235.29.9/FacialAge/BNav_EC2/DepthDuration/v2_depth_duration_MTurk/v2_DepthDuration_HTML.html#4,4,823,451,1440,900,8-20-2022,10-59-40,155,depth_duration_stimuli/000677_2014-06-08_23-10-32_260595134347_rgbf000158-resize_6/000677_2014-06-08_23-10-32_260595134347_rgbf000158-resize_6-target.png,250,3.556,2,2211,250,feet,jsons/v1_VE250_randls_63_rotated.json,1424015,1631121,36,Man
155,902089,DepthScenes,duration_manipulation_targetAtFixation,jsons/v1_VE250_randls_63_rotated.json,http://54.235.29.9/FacialAge/BNav_EC2/DepthDuration/v2_depth_duration_MTurk/v2_DepthDuration_HTML.html#4,4,823,451,1440,900,8-20-2022,10-59-40,156,depth_duration_stimuli/001029_2014-06-08_13-17-57_260595134347_rgbf000065-resize_1/001029_2014-06-08_13-17-57_260595134347_rgbf000065-resize_1-target.png,250,3.0835,1,2189,250,feet,jsons/v1_VE250_randls_63_rotated.json,1424015,1631121,36,Man
156,902089,DepthScenes,duration_manipulation_targetAtFixation,jsons/v1_VE250_randls_63_rotated.json,http://54.235.29.9/FacialAge/BNav_EC2/DepthDuration/v2_depth_duration_MTurk/v2_DepthDuration_HTML.html#4,4,823,451,1440,900,8-20-2022,10-59-40,157,depth_duration_stimuli/001052_2014-06-08_18-24-54_260595134347_rgbf000130-resize_1/001052_2014-06-08_18-24-54_260595134347_rgbf000130-resize_1-target.png,250,4.1045,2,1955,250,feet,jsons/v1_VE250_randls_63_rotated.json,1424015,1631121,36,Man
157,902089,DepthScenes,duration_manipulation_targetAtFixation,jsons/v1_VE250_randls_63_rotated.json,http://54.235.29.9/FacialAge/BNav_EC2/DepthDuration/v2_depth_duration_MTurk/v2_DepthDuration_HTML.html#4,4,823,451,1440,900,8-20-2022,10-59-40,158,depth_duration_stimuli/002988_2014-06-15_12-24-20_094959634447_rgbf000150-resize_1/002988_2014-06-15_12-24-20_094959634447_rgbf000150-resize_1-target.png,250,4.7669999999999995,1,2051,251,feet,jsons/v1_VE250_randls_63_rotated.json,1424015,1631121,36,Man
158,902089,DepthScenes,duration_manipulation_targetAtFixation,jsons/v1_VE250_randls_63_rotated.json,http://54.235.29.9/FacialAge/BNav_EC2/DepthDuration/v2_depth_duration_MTurk/v2_DepthDuration_HTML.html#4,4,823,451,1440,900,8-20-2022,10-59-40,159,depth_duration_stimuli/000780_2014-06-08_22-28-29_260595134347_rgbf000126-resize_1/000780_2014-06-08_22-28-29_260595134347_rgbf000126-resize_1-target.png,250,3.3825,2,2058,250,feet,jsons/v1_VE250_randls_63_rotated.json,1424015,1631121,36,Man
159,902089,DepthScenes,duration_manipulation_targetAtFixation,jsons/v1_VE250_randls_63_rotated.json,http://54.235.29.9/FacialAge/BNav_EC2/DepthDuration/v2_depth_duration_MTurk/v2_DepthDuration_HTML.html#4,4,823,451,1440,900,8-20-2022,10-59-40,160,depth_duration_stimuli/002445_2014-06-28_20-32-16_260595134347_rgbf000029-resize_4/002445_2014-06-28_20-32-16_260595134347_rgbf000029-resize_4-target.png,250,2.5315,1,2171,250,feet,jsons/v1_VE250_randls_63_rotated.json,1424015,1631121,36,Man
160,902089,DepthScenes,duration_manipulation_targetAtFixation,jsons/v1_VE250_randls_63_rotated.json,http://54.235.29.9/FacialAge/BNav_EC2/DepthDuration/v2_depth_duration_MTurk/v2_DepthDuration_HTML.html#4,4,823,451,1440,900,8-20-2022,10-59-40,161,depth_duration_stimuli/000734_2014-06-08_17-39-11_260595134347_rgbf000128-resize_2/000734_2014-06-08_17-39-11_260595134347_rgbf000128-resize_2-target.png,250,4.098,2,1979,250,feet,jsons/v1_VE250_randls_63_rotated.json,1424015,1631121,36,Man
161,902089,DepthScenes,duration_manipulation_targetAtFixation,jsons/v1_VE250_randls_63_rotated.json,http://54.235.29.9/FacialAge/BNav_EC2/DepthDuration/v2_depth_duration_MTurk/v2_DepthDuration_HTML.html#4,4,823,451,1440,900,8-20-2022,10-59-40,162,depth_duration_stimuli/000739_2014-06-08_18-45-58_260595134347_rgbf000068-resize_1/000739_2014-06-08_18-45-58_260595134347_rgbf000068-resize_1-target.png,250,3.534,2,3706,249,feet,jsons/v1_VE250_randls_63_rotated.json,1424015,1631121,36,Man
162,902089,DepthScenes,duration_manipulation_targetAtFixation,jsons/v1_VE250_randls_63_rotated.json,http://54.235.29.9/FacialAge/BNav_EC2/DepthDuration/v2_depth_duration_MTurk/v2_DepthDuration_HTML.html#4,4,823,451,1440,900,8-20-2022,10-59-40,163,depth_duration_stimuli/002639_2014-06-24_14-51-37_094959634447_rgbf000074-resize_4/002639_2014-06-24_14-51-37_094959634447_rgbf000074-resize_4-target.png,250,4.0375,1,2195,250,feet,jsons/v1_VE250_randls_63_rotated.json,1424015,1631121,36,Man
163,902089,DepthScenes,duration_manipulation_targetAtFixation,jsons/v1_VE250_randls_63_rotated.json,http://54.235.29.9/FacialAge/BNav_EC2/DepthDuration/v2_depth_duration_MTurk/v2_DepthDuration_HTML.html#4,4,823,451,1440,900,8-20-2022,10-59-40,164,depth_duration_stimuli/003292_2014-05-14_21-53-49_094959634447_rgbf000100-resize_2/003292_2014-05-14_21-53-49_094959634447_rgbf000100-resize_2-target.png,250,3.4815,1,2260,250,feet,jsons/v1_VE250_randls_63_rotated.json,1424015,1631121,36,Man
