,subjID,experimentName,versionName,sequenceName,url,selected_row,windowWidth,windowHeight,screenWidth,screenHeight,startDate,startTime,trial,stimulus,duration,actual_depth,depth_estimate,trial_RT,log_sceneDuration,unitSelection,seq_filepath,experimentTime,totalTime,age,gender
0,903206,DepthScenes,duration_manipulation_targetAtFixation,jsons/v1_VE250_randls_75_rotated.json,http://54.235.29.9/FacialAge/BNav_EC2/DepthDuration/v2_depth_duration_MTurk/v2_DepthDuration_HTML.html#378,378,1536,864,1536,864,9-18-2022,12-23-22,1,depth_duration_stimuli/001516_2014-06-20_16-25-09_260595134347_rgbf000076-resize_2/001516_2014-06-20_16-25-09_260595134347_rgbf000076-resize_2-target.png,250,1.7445,5.0,5750,249,feet,jsons/v1_VE250_randls_75_rotated.json,834406,1078611,38,Man
1,903206,DepthScenes,duration_manipulation_targetAtFixation,jsons/v1_VE250_randls_75_rotated.json,http://54.235.29.9/FacialAge/BNav_EC2/DepthDuration/v2_depth_duration_MTurk/v2_DepthDuration_HTML.html#378,378,1536,864,1536,864,9-18-2022,12-23-22,2,depth_duration_stimuli/002118_2014-06-25_20-32-08_260595134347_rgbf000078-resize_1/002118_2014-06-25_20-32-08_260595134347_rgbf000078-resize_1-target.png,250,2.6460000000000004,8.0,5334,251,feet,jsons/v1_VE250_randls_75_rotated.json,834406,1078611,38,Man
2,903206,DepthScenes,duration_manipulation_targetAtFixation,jsons/v1_VE250_randls_75_rotated.json,http://54.235.29.9/FacialAge/BNav_EC2/DepthDuration/v2_depth_duration_MTurk/v2_DepthDuration_HTML.html#378,378,1536,864,1536,864,9-18-2022,12-23-22,3,depth_duration_stimuli/002414_2014-06-28_20-24-58_260595134347_rgbf000067-resize_4/002414_2014-06-28_20-24-58_260595134347_rgbf000067-resize_4-target.png,250,4.363,9.0,5182,259,feet,jsons/v1_VE250_randls_75_rotated.json,834406,1078611,38,Man
3,903206,DepthScenes,duration_manipulation_targetAtFixation,jsons/v1_VE250_randls_75_rotated.json,http://54.235.29.9/FacialAge/BNav_EC2/DepthDuration/v2_depth_duration_MTurk/v2_DepthDuration_HTML.html#378,378,1536,864,1536,864,9-18-2022,12-23-22,4,depth_duration_stimuli/000773_2014-06-08_22-24-54_260595134347_rgbf000093-resize_1/000773_2014-06-08_22-24-54_260595134347_rgbf000093-resize_1-target.png,250,4.973,11.0,5575,251,feet,jsons/v1_VE250_randls_75_rotated.json,834406,1078611,38,Man
4,903206,DepthScenes,duration_manipulation_targetAtFixation,jsons/v1_VE250_randls_75_rotated.json,http://54.235.29.9/FacialAge/BNav_EC2/DepthDuration/v2_depth_duration_MTurk/v2_DepthDuration_HTML.html#378,378,1536,864,1536,864,9-18-2022,12-23-22,5,depth_duration_stimuli/001617_2014-06-20_11-35-32_260595134347_rgbf000066-resize_1/001617_2014-06-20_11-35-32_260595134347_rgbf000066-resize_1-target.png,250,3.7910000000000004,8.0,5002,252,feet,jsons/v1_VE250_randls_75_rotated.json,834406,1078611,38,Man
5,903206,DepthScenes,duration_manipulation_targetAtFixation,jsons/v1_VE250_randls_75_rotated.json,http://54.235.29.9/FacialAge/BNav_EC2/DepthDuration/v2_depth_duration_MTurk/v2_DepthDuration_HTML.html#378,378,1536,864,1536,864,9-18-2022,12-23-22,6,depth_duration_stimuli/001806_2014-06-26_20-50-20_260595134347_rgbf000091-resize_1/001806_2014-06-26_20-50-20_260595134347_rgbf000091-resize_1-target.png,250,2.7305,6.0,5093,249,feet,jsons/v1_VE250_randls_75_rotated.json,834406,1078611,38,Man
6,903206,DepthScenes,duration_manipulation_targetAtFixation,jsons/v1_VE250_randls_75_rotated.json,http://54.235.29.9/FacialAge/BNav_EC2/DepthDuration/v2_depth_duration_MTurk/v2_DepthDuration_HTML.html#378,378,1536,864,1536,864,9-18-2022,12-23-22,7,depth_duration_stimuli/000854_2014-06-09_19-43-13_260595134347_rgbf000066-resize_0/000854_2014-06-09_19-43-13_260595134347_rgbf000066-resize_0-target.png,250,3.068,5.0,4957,251,feet,jsons/v1_VE250_randls_75_rotated.json,834406,1078611,38,Man
7,903206,DepthScenes,duration_manipulation_targetAtFixation,jsons/v1_VE250_randls_75_rotated.json,http://54.235.29.9/FacialAge/BNav_EC2/DepthDuration/v2_depth_duration_MTurk/v2_DepthDuration_HTML.html#378,378,1536,864,1536,864,9-18-2022,12-23-22,8,depth_duration_stimuli/000758_2014-06-08_22-05-08_260595134347_rgbf000085-resize_0/000758_2014-06-08_22-05-08_260595134347_rgbf000085-resize_0-target.png,250,3.3810000000000002,4.0,6576,256,feet,jsons/v1_VE250_randls_75_rotated.json,834406,1078611,38,Man
8,903206,DepthScenes,duration_manipulation_targetAtFixation,jsons/v1_VE250_randls_75_rotated.json,http://54.235.29.9/FacialAge/BNav_EC2/DepthDuration/v2_depth_duration_MTurk/v2_DepthDuration_HTML.html#378,378,1536,864,1536,864,9-18-2022,12-23-22,9,depth_duration_stimuli/002953_2014-06-08_17-32-18_094959634447_rgbf000059-resize_5/002953_2014-06-08_17-32-18_094959634447_rgbf000059-resize_5-target.png,250,1.551,5.0,5773,241,feet,jsons/v1_VE250_randls_75_rotated.json,834406,1078611,38,Man
9,903206,DepthScenes,duration_manipulation_targetAtFixation,jsons/v1_VE250_randls_75_rotated.json,http://54.235.29.9/FacialAge/BNav_EC2/DepthDuration/v2_depth_duration_MTurk/v2_DepthDuration_HTML.html#378,378,1536,864,1536,864,9-18-2022,12-23-22,10,depth_duration_stimuli/000878_2014-06-08_22-52-45_260595134347_rgbf000045-resize_2/000878_2014-06-08_22-52-45_260595134347_rgbf000045-resize_2-target.png,250,2.092,3.0,2255,252,feet,jsons/v1_VE250_randls_75_rotated.json,834406,1078611,38,Man
10,903206,DepthScenes,duration_manipulation_targetAtFixation,jsons/v1_VE250_randls_75_rotated.json,http://54.235.29.9/FacialAge/BNav_EC2/DepthDuration/v2_depth_duration_MTurk/v2_DepthDuration_HTML.html#378,378,1536,864,1536,864,9-18-2022,12-23-22,11,depth_duration_stimuli/000749_2014-06-08_21-55-06_260595134347_rgbf000070-resize_2/000749_2014-06-08_21-55-06_260595134347_rgbf000070-resize_2-target.png,250,2.331,5.0,4583,250,feet,jsons/v1_VE250_randls_75_rotated.json,834406,1078611,38,Man
11,903206,DepthScenes,duration_manipulation_targetAtFixation,jsons/v1_VE250_randls_75_rotated.json,http://54.235.29.9/FacialAge/BNav_EC2/DepthDuration/v2_depth_duration_MTurk/v2_DepthDuration_HTML.html#378,378,1536,864,1536,864,9-18-2022,12-23-22,12,depth_duration_stimuli/002788_2014-06-22_19-36-03_094959634447_rgbf000088-resize_2/002788_2014-06-22_19-36-03_094959634447_rgbf000088-resize_2-target.png,250,1.6465,8.5,8029,234,feet,jsons/v1_VE250_randls_75_rotated.json,834406,1078611,38,Man
12,903206,DepthScenes,duration_manipulation_targetAtFixation,jsons/v1_VE250_randls_75_rotated.json,http://54.235.29.9/FacialAge/BNav_EC2/DepthDuration/v2_depth_duration_MTurk/v2_DepthDuration_HTML.html#378,378,1536,864,1536,864,9-18-2022,12-23-22,13,depth_duration_stimuli/003129_2014-05-12_10-48-10_094959634447_rgbf000100-resize_0/003129_2014-05-12_10-48-10_094959634447_rgbf000100-resize_0-target.png,250,4.9305,13.0,7171,250,feet,jsons/v1_VE250_randls_75_rotated.json,834406,1078611,38,Man
13,903206,DepthScenes,duration_manipulation_targetAtFixation,jsons/v1_VE250_randls_75_rotated.json,http://54.235.29.9/FacialAge/BNav_EC2/DepthDuration/v2_depth_duration_MTurk/v2_DepthDuration_HTML.html#378,378,1536,864,1536,864,9-18-2022,12-23-22,14,depth_duration_stimuli/000414_2014-06-04_19-49-13_260595134347_rgbf000044-resize_0/000414_2014-06-04_19-49-13_260595134347_rgbf000044-resize_0-target.png,250,4.329,15.0,4572,250,feet,jsons/v1_VE250_randls_75_rotated.json,834406,1078611,38,Man
14,903206,DepthScenes,duration_manipulation_targetAtFixation,jsons/v1_VE250_randls_75_rotated.json,http://54.235.29.9/FacialAge/BNav_EC2/DepthDuration/v2_depth_duration_MTurk/v2_DepthDuration_HTML.html#378,378,1536,864,1536,864,9-18-2022,12-23-22,15,depth_duration_stimuli/000502_2014-06-08_23-02-32_260595134347_rgbf000063-resize_4/000502_2014-06-08_23-02-32_260595134347_rgbf000063-resize_4-target.png,250,2.431,9.0,5745,237,feet,jsons/v1_VE250_randls_75_rotated.json,834406,1078611,38,Man
15,903206,DepthScenes,duration_manipulation_targetAtFixation,jsons/v1_VE250_randls_75_rotated.json,http://54.235.29.9/FacialAge/BNav_EC2/DepthDuration/v2_depth_duration_MTurk/v2_DepthDuration_HTML.html#378,378,1536,864,1536,864,9-18-2022,12-23-22,16,depth_duration_stimuli/001199_2014-06-17_16-03-48_260595134347_rgbf000077-resize_0/001199_2014-06-17_16-03-48_260595134347_rgbf000077-resize_0-target.png,250,3.4375,7.0,5968,249,feet,jsons/v1_VE250_randls_75_rotated.json,834406,1078611,38,Man
16,903206,DepthScenes,duration_manipulation_targetAtFixation,jsons/v1_VE250_randls_75_rotated.json,http://54.235.29.9/FacialAge/BNav_EC2/DepthDuration/v2_depth_duration_MTurk/v2_DepthDuration_HTML.html#378,378,1536,864,1536,864,9-18-2022,12-23-22,17,depth_duration_stimuli/002545_2014-06-24_13-38-53_094959634447_rgbf000080-resize_4/002545_2014-06-24_13-38-53_094959634447_rgbf000080-resize_4-target.png,250,1.9205,6.0,10635,251,feet,jsons/v1_VE250_randls_75_rotated.json,834406,1078611,38,Man
17,903206,DepthScenes,duration_manipulation_targetAtFixation,jsons/v1_VE250_randls_75_rotated.json,http://54.235.29.9/FacialAge/BNav_EC2/DepthDuration/v2_depth_duration_MTurk/v2_DepthDuration_HTML.html#378,378,1536,864,1536,864,9-18-2022,12-23-22,18,depth_duration_stimuli/001092_2014-06-15_17-34-58_260595134347_rgbf000171-resize_3/001092_2014-06-15_17-34-58_260595134347_rgbf000171-resize_3-target.png,250,2.6935,7.0,7496,250,feet,jsons/v1_VE250_randls_75_rotated.json,834406,1078611,38,Man
18,903206,DepthScenes,duration_manipulation_targetAtFixation,jsons/v1_VE250_randls_75_rotated.json,http://54.235.29.9/FacialAge/BNav_EC2/DepthDuration/v2_depth_duration_MTurk/v2_DepthDuration_HTML.html#378,378,1536,864,1536,864,9-18-2022,12-23-22,19,depth_duration_stimuli/001498_2014-06-19_17-45-14_260595134347_rgbf000129-resize_4/001498_2014-06-19_17-45-14_260595134347_rgbf000129-resize-original.jpg,250,1.4075,0.0,4536,250,feet,jsons/v1_VE250_randls_75_rotated.json,834406,1078611,38,Man
19,903206,DepthScenes,duration_manipulation_targetAtFixation,jsons/v1_VE250_randls_75_rotated.json,http://54.235.29.9/FacialAge/BNav_EC2/DepthDuration/v2_depth_duration_MTurk/v2_DepthDuration_HTML.html#378,378,1536,864,1536,864,9-18-2022,12-23-22,20,depth_duration_stimuli/003490_2014-05-21_15-50-11_094959634447_rgbf000101-resize_3/003490_2014-05-21_15-50-11_094959634447_rgbf000101-resize_3-target.png,250,3.6445,8.0,3602,253,feet,jsons/v1_VE250_randls_75_rotated.json,834406,1078611,38,Man
20,903206,DepthScenes,duration_manipulation_targetAtFixation,jsons/v1_VE250_randls_75_rotated.json,http://54.235.29.9/FacialAge/BNav_EC2/DepthDuration/v2_depth_duration_MTurk/v2_DepthDuration_HTML.html#378,378,1536,864,1536,864,9-18-2022,12-23-22,21,depth_duration_stimuli/001175_2014-06-17_15-45-55_260595134347_rgbf000129-resize_4/001175_2014-06-17_15-45-55_260595134347_rgbf000129-resize_4-target.png,250,4.255,4.0,3215,251,feet,jsons/v1_VE250_randls_75_rotated.json,834406,1078611,38,Man
21,903206,DepthScenes,duration_manipulation_targetAtFixation,jsons/v1_VE250_randls_75_rotated.json,http://54.235.29.9/FacialAge/BNav_EC2/DepthDuration/v2_depth_duration_MTurk/v2_DepthDuration_HTML.html#378,378,1536,864,1536,864,9-18-2022,12-23-22,22,depth_duration_stimuli/002805_2014-06-22_19-54-03_094959634447_rgbf000079-resize_1/002805_2014-06-22_19-54-03_094959634447_rgbf000079-resize_1-target.png,250,3.1439999999999997,8.0,5436,237,feet,jsons/v1_VE250_randls_75_rotated.json,834406,1078611,38,Man
22,903206,DepthScenes,duration_manipulation_targetAtFixation,jsons/v1_VE250_randls_75_rotated.json,http://54.235.29.9/FacialAge/BNav_EC2/DepthDuration/v2_depth_duration_MTurk/v2_DepthDuration_HTML.html#378,378,1536,864,1536,864,9-18-2022,12-23-22,23,depth_duration_stimuli/000906_2014-06-08_13-35-43_260595134347_rgbf000155-resize_1/000906_2014-06-08_13-35-43_260595134347_rgbf000155-resize_1-target.png,250,2.8489999999999998,8.0,7022,250,feet,jsons/v1_VE250_randls_75_rotated.json,834406,1078611,38,Man
23,903206,DepthScenes,duration_manipulation_targetAtFixation,jsons/v1_VE250_randls_75_rotated.json,http://54.235.29.9/FacialAge/BNav_EC2/DepthDuration/v2_depth_duration_MTurk/v2_DepthDuration_HTML.html#378,378,1536,864,1536,864,9-18-2022,12-23-22,24,depth_duration_stimuli/002340_2014-06-28_20-05-46_260595134347_rgbf000113-resize_0/002340_2014-06-28_20-05-46_260595134347_rgbf000113-resize_0-target.png,250,2.4735,7.0,11710,248,feet,jsons/v1_VE250_randls_75_rotated.json,834406,1078611,38,Man
24,903206,DepthScenes,duration_manipulation_targetAtFixation,jsons/v1_VE250_randls_75_rotated.json,http://54.235.29.9/FacialAge/BNav_EC2/DepthDuration/v2_depth_duration_MTurk/v2_DepthDuration_HTML.html#378,378,1536,864,1536,864,9-18-2022,12-23-22,25,depth_duration_stimuli/001016_2014-06-09_16-16-10_260595134347_rgbf000112-resize_5/001016_2014-06-09_16-16-10_260595134347_rgbf000112-resize_5-target.png,250,1.6565,5.0,3142,250,feet,jsons/v1_VE250_randls_75_rotated.json,834406,1078611,38,Man
25,903206,DepthScenes,duration_manipulation_targetAtFixation,jsons/v1_VE250_randls_75_rotated.json,http://54.235.29.9/FacialAge/BNav_EC2/DepthDuration/v2_depth_duration_MTurk/v2_DepthDuration_HTML.html#378,378,1536,864,1536,864,9-18-2022,12-23-22,26,depth_duration_stimuli/002323_2014-06-28_20-01-54_260595134347_rgbf000051-resize_4/002323_2014-06-28_20-01-54_260595134347_rgbf000051-resize_4-target.png,250,3.7310000000000003,9.0,4202,258,feet,jsons/v1_VE250_randls_75_rotated.json,834406,1078611,38,Man
26,903206,DepthScenes,duration_manipulation_targetAtFixation,jsons/v1_VE250_randls_75_rotated.json,http://54.235.29.9/FacialAge/BNav_EC2/DepthDuration/v2_depth_duration_MTurk/v2_DepthDuration_HTML.html#378,378,1536,864,1536,864,9-18-2022,12-23-22,27,depth_duration_stimuli/000917_2014-06-09_22-45-29_260595134347_rgbf000149-resize_3/000917_2014-06-09_22-45-29_260595134347_rgbf000149-resize_3-target.png,250,4.1865,10.0,4871,261,feet,jsons/v1_VE250_randls_75_rotated.json,834406,1078611,38,Man
27,903206,DepthScenes,duration_manipulation_targetAtFixation,jsons/v1_VE250_randls_75_rotated.json,http://54.235.29.9/FacialAge/BNav_EC2/DepthDuration/v2_depth_duration_MTurk/v2_DepthDuration_HTML.html#378,378,1536,864,1536,864,9-18-2022,12-23-22,28,depth_duration_stimuli/002425_2014-06-28_20-27-29_260595134347_rgbf000031-resize_8/002425_2014-06-28_20-27-29_260595134347_rgbf000031-resize_8-target.png,250,3.8960000000000004,8.0,5238,254,feet,jsons/v1_VE250_randls_75_rotated.json,834406,1078611,38,Man
28,903206,DepthScenes,duration_manipulation_targetAtFixation,jsons/v1_VE250_randls_75_rotated.json,http://54.235.29.9/FacialAge/BNav_EC2/DepthDuration/v2_depth_duration_MTurk/v2_DepthDuration_HTML.html#378,378,1536,864,1536,864,9-18-2022,12-23-22,29,depth_duration_stimuli/000642_2014-06-08_16-59-25_260595134347_rgbf000098-resize_2/000642_2014-06-08_16-59-25_260595134347_rgbf000098-resize_2-target.png,250,2.8815,7.0,5551,251,feet,jsons/v1_VE250_randls_75_rotated.json,834406,1078611,38,Man
29,903206,DepthScenes,duration_manipulation_targetAtFixation,jsons/v1_VE250_randls_75_rotated.json,http://54.235.29.9/FacialAge/BNav_EC2/DepthDuration/v2_depth_duration_MTurk/v2_DepthDuration_HTML.html#378,378,1536,864,1536,864,9-18-2022,12-23-22,30,depth_duration_stimuli/002072_2014-06-24_21-48-06_260595134347_rgbf000115-resize_0/002072_2014-06-24_21-48-06_260595134347_rgbf000115-resize-original.jpg,250,4.702,0.0,4361,249,feet,jsons/v1_VE250_randls_75_rotated.json,834406,1078611,38,Man
30,903206,DepthScenes,duration_manipulation_targetAtFixation,jsons/v1_VE250_randls_75_rotated.json,http://54.235.29.9/FacialAge/BNav_EC2/DepthDuration/v2_depth_duration_MTurk/v2_DepthDuration_HTML.html#378,378,1536,864,1536,864,9-18-2022,12-23-22,31,depth_duration_stimuli/001447_2014-06-19_17-00-32_260595134347_rgbf000082-resize_5/001447_2014-06-19_17-00-32_260595134347_rgbf000082-resize_5-target.png,250,4.13775,3.0,3086,251,feet,jsons/v1_VE250_randls_75_rotated.json,834406,1078611,38,Man
31,903206,DepthScenes,duration_manipulation_targetAtFixation,jsons/v1_VE250_randls_75_rotated.json,http://54.235.29.9/FacialAge/BNav_EC2/DepthDuration/v2_depth_duration_MTurk/v2_DepthDuration_HTML.html#378,378,1536,864,1536,864,9-18-2022,12-23-22,32,depth_duration_stimuli/000447_2014-06-08_16-15-46_260595134347_rgbf000130-resize_1/000447_2014-06-08_16-15-46_260595134347_rgbf000130-resize_1-target.png,250,4.479,14.0,4788,254,feet,jsons/v1_VE250_randls_75_rotated.json,834406,1078611,38,Man
32,903206,DepthScenes,duration_manipulation_targetAtFixation,jsons/v1_VE250_randls_75_rotated.json,http://54.235.29.9/FacialAge/BNav_EC2/DepthDuration/v2_depth_duration_MTurk/v2_DepthDuration_HTML.html#378,378,1536,864,1536,864,9-18-2022,12-23-22,33,depth_duration_stimuli/002949_2014-06-26_15-57-42_094959634447_rgbf000079-resize_1/002949_2014-06-26_15-57-42_094959634447_rgbf000079-resize_1-target.png,250,1.8915,4.0,6251,250,feet,jsons/v1_VE250_randls_75_rotated.json,834406,1078611,38,Man
33,903206,DepthScenes,duration_manipulation_targetAtFixation,jsons/v1_VE250_randls_75_rotated.json,http://54.235.29.9/FacialAge/BNav_EC2/DepthDuration/v2_depth_duration_MTurk/v2_DepthDuration_HTML.html#378,378,1536,864,1536,864,9-18-2022,12-23-22,34,depth_duration_stimuli/000522_2014-06-08_13-35-06_260595134347_rgbf000244-resize_1/000522_2014-06-08_13-35-06_260595134347_rgbf000244-resize_1-target.png,250,2.3715,4.0,4001,249,feet,jsons/v1_VE250_randls_75_rotated.json,834406,1078611,38,Man
34,903206,DepthScenes,duration_manipulation_targetAtFixation,jsons/v1_VE250_randls_75_rotated.json,http://54.235.29.9/FacialAge/BNav_EC2/DepthDuration/v2_depth_duration_MTurk/v2_DepthDuration_HTML.html#378,378,1536,864,1536,864,9-18-2022,12-23-22,35,depth_duration_stimuli/001828_2014-06-26_21-40-03_260595134347_rgbf000024-resize_0/001828_2014-06-26_21-40-03_260595134347_rgbf000024-resize_0-target.png,250,4.8260000000000005,9.0,4098,251,feet,jsons/v1_VE250_randls_75_rotated.json,834406,1078611,38,Man
35,903206,DepthScenes,duration_manipulation_targetAtFixation,jsons/v1_VE250_randls_75_rotated.json,http://54.235.29.9/FacialAge/BNav_EC2/DepthDuration/v2_depth_duration_MTurk/v2_DepthDuration_HTML.html#378,378,1536,864,1536,864,9-18-2022,12-23-22,36,depth_duration_stimuli/000009_2014-05-26_14-32-05_260595134347_rgbf000034-resize_3/000009_2014-05-26_14-32-05_260595134347_rgbf000034-resize_3-target.png,250,3.8715,13.0,4992,250,feet,jsons/v1_VE250_randls_75_rotated.json,834406,1078611,38,Man
36,903206,DepthScenes,duration_manipulation_targetAtFixation,jsons/v1_VE250_randls_75_rotated.json,http://54.235.29.9/FacialAge/BNav_EC2/DepthDuration/v2_depth_duration_MTurk/v2_DepthDuration_HTML.html#378,378,1536,864,1536,864,9-18-2022,12-23-22,37,depth_duration_stimuli/003338_2014-05-20_11-01-23_094959634447_rgbf000051-resize_6/003338_2014-05-20_11-01-23_094959634447_rgbf000051-resize_6-target.png,250,1.693,5.0,5750,248,feet,jsons/v1_VE250_randls_75_rotated.json,834406,1078611,38,Man
37,903206,DepthScenes,duration_manipulation_targetAtFixation,jsons/v1_VE250_randls_75_rotated.json,http://54.235.29.9/FacialAge/BNav_EC2/DepthDuration/v2_depth_duration_MTurk/v2_DepthDuration_HTML.html#378,378,1536,864,1536,864,9-18-2022,12-23-22,38,depth_duration_stimuli/002509_2014-06-24_13-19-22_094959634447_rgbf000077-resize_0/002509_2014-06-24_13-19-22_094959634447_rgbf000077-resize_0-target.png,250,1.3065,4.0,3833,252,feet,jsons/v1_VE250_randls_75_rotated.json,834406,1078611,38,Man
38,903206,DepthScenes,duration_manipulation_targetAtFixation,jsons/v1_VE250_randls_75_rotated.json,http://54.235.29.9/FacialAge/BNav_EC2/DepthDuration/v2_depth_duration_MTurk/v2_DepthDuration_HTML.html#378,378,1536,864,1536,864,9-18-2022,12-23-22,39,depth_duration_stimuli/001450_2014-06-19_17-02-03_260595134347_rgbf000203-resize_4/001450_2014-06-19_17-02-03_260595134347_rgbf000203-resize_4-target.png,250,4.0106666666667,6.0,3568,250,feet,jsons/v1_VE250_randls_75_rotated.json,834406,1078611,38,Man
39,903206,DepthScenes,duration_manipulation_targetAtFixation,jsons/v1_VE250_randls_75_rotated.json,http://54.235.29.9/FacialAge/BNav_EC2/DepthDuration/v2_depth_duration_MTurk/v2_DepthDuration_HTML.html#378,378,1536,864,1536,864,9-18-2022,12-23-22,40,depth_duration_stimuli/001449_2014-06-19_17-01-27_260595134347_rgbf000116-resize_2/001449_2014-06-19_17-01-27_260595134347_rgbf000116-resize_2-target.png,250,3.452,8.0,3729,261,feet,jsons/v1_VE250_randls_75_rotated.json,834406,1078611,38,Man
40,903206,DepthScenes,duration_manipulation_targetAtFixation,jsons/v1_VE250_randls_75_rotated.json,http://54.235.29.9/FacialAge/BNav_EC2/DepthDuration/v2_depth_duration_MTurk/v2_DepthDuration_HTML.html#378,378,1536,864,1536,864,9-18-2022,12-23-22,41,depth_duration_stimuli/000549_2014-06-08_22-10-24_260595134347_rgbf000247-resize_3/000549_2014-06-08_22-10-24_260595134347_rgbf000247-resize_3-target.png,250,1.841,3.0,2775,261,feet,jsons/v1_VE250_randls_75_rotated.json,834406,1078611,38,Man
41,903206,DepthScenes,duration_manipulation_targetAtFixation,jsons/v1_VE250_randls_75_rotated.json,http://54.235.29.9/FacialAge/BNav_EC2/DepthDuration/v2_depth_duration_MTurk/v2_DepthDuration_HTML.html#378,378,1536,864,1536,864,9-18-2022,12-23-22,42,depth_duration_stimuli/001055_2014-06-08_18-45-35_260595134347_rgbf000111-resize_4/001055_2014-06-08_18-45-35_260595134347_rgbf000111-resize_4-target.png,250,2.4290000000000003,8.0,2665,251,feet,jsons/v1_VE250_randls_75_rotated.json,834406,1078611,38,Man
42,903206,DepthScenes,duration_manipulation_targetAtFixation,jsons/v1_VE250_randls_75_rotated.json,http://54.235.29.9/FacialAge/BNav_EC2/DepthDuration/v2_depth_duration_MTurk/v2_DepthDuration_HTML.html#378,378,1536,864,1536,864,9-18-2022,12-23-22,43,depth_duration_stimuli/000780_2014-06-08_22-28-29_260595134347_rgbf000126-resize_1/000780_2014-06-08_22-28-29_260595134347_rgbf000126-resize_1-target.png,250,3.3825,5.0,2736,264,feet,jsons/v1_VE250_randls_75_rotated.json,834406,1078611,38,Man
43,903206,DepthScenes,duration_manipulation_targetAtFixation,jsons/v1_VE250_randls_75_rotated.json,http://54.235.29.9/FacialAge/BNav_EC2/DepthDuration/v2_depth_duration_MTurk/v2_DepthDuration_HTML.html#378,378,1536,864,1536,864,9-18-2022,12-23-22,44,depth_duration_stimuli/002445_2014-06-28_20-32-16_260595134347_rgbf000029-resize_4/002445_2014-06-28_20-32-16_260595134347_rgbf000029-resize_4-target.png,250,2.5315,7.0,3138,253,feet,jsons/v1_VE250_randls_75_rotated.json,834406,1078611,38,Man
44,903206,DepthScenes,duration_manipulation_targetAtFixation,jsons/v1_VE250_randls_75_rotated.json,http://54.235.29.9/FacialAge/BNav_EC2/DepthDuration/v2_depth_duration_MTurk/v2_DepthDuration_HTML.html#378,378,1536,864,1536,864,9-18-2022,12-23-22,45,depth_duration_stimuli/003048_2014-06-15_13-49-43_094959634447_rgbf000150-resize_1/003048_2014-06-15_13-49-43_094959634447_rgbf000150-resize_1-target.png,250,4.0035,5.0,7213,264,feet,jsons/v1_VE250_randls_75_rotated.json,834406,1078611,38,Man
45,903206,DepthScenes,duration_manipulation_targetAtFixation,jsons/v1_VE250_randls_75_rotated.json,http://54.235.29.9/FacialAge/BNav_EC2/DepthDuration/v2_depth_duration_MTurk/v2_DepthDuration_HTML.html#378,378,1536,864,1536,864,9-18-2022,12-23-22,46,depth_duration_stimuli/002043_2014-06-24_20-29-38_260595134347_rgbf000039-resize_4/002043_2014-06-24_20-29-38_260595134347_rgbf000039-resize_4-target.png,250,2.8435,8.0,6997,250,feet,jsons/v1_VE250_randls_75_rotated.json,834406,1078611,38,Man
46,903206,DepthScenes,duration_manipulation_targetAtFixation,jsons/v1_VE250_randls_75_rotated.json,http://54.235.29.9/FacialAge/BNav_EC2/DepthDuration/v2_depth_duration_MTurk/v2_DepthDuration_HTML.html#378,378,1536,864,1536,864,9-18-2022,12-23-22,47,depth_duration_stimuli/001235_2014-06-17_16-37-36_260595134347_rgbf000084-resize_4/001235_2014-06-17_16-37-36_260595134347_rgbf000084-resize_4-target.png,250,3.6605,5.0,2977,243,feet,jsons/v1_VE250_randls_75_rotated.json,834406,1078611,38,Man
47,903206,DepthScenes,duration_manipulation_targetAtFixation,jsons/v1_VE250_randls_75_rotated.json,http://54.235.29.9/FacialAge/BNav_EC2/DepthDuration/v2_depth_duration_MTurk/v2_DepthDuration_HTML.html#378,378,1536,864,1536,864,9-18-2022,12-23-22,48,depth_duration_stimuli/000788_2014-06-08_22-34-36_260595134347_rgbf000131-resize_1/000788_2014-06-08_22-34-36_260595134347_rgbf000131-resize_1-target.png,250,3.359,9.0,4000,260,feet,jsons/v1_VE250_randls_75_rotated.json,834406,1078611,38,Man
48,903206,DepthScenes,duration_manipulation_targetAtFixation,jsons/v1_VE250_randls_75_rotated.json,http://54.235.29.9/FacialAge/BNav_EC2/DepthDuration/v2_depth_duration_MTurk/v2_DepthDuration_HTML.html#378,378,1536,864,1536,864,9-18-2022,12-23-22,49,depth_duration_stimuli/001170_2014-06-17_15-43-44_260595134347_rgbf000096-resize_6/001170_2014-06-17_15-43-44_260595134347_rgbf000096-resize-original.jpg,250,1.1909999999999998,0.0,3316,248,feet,jsons/v1_VE250_randls_75_rotated.json,834406,1078611,38,Man
49,903206,DepthScenes,duration_manipulation_targetAtFixation,jsons/v1_VE250_randls_75_rotated.json,http://54.235.29.9/FacialAge/BNav_EC2/DepthDuration/v2_depth_duration_MTurk/v2_DepthDuration_HTML.html#378,378,1536,864,1536,864,9-18-2022,12-23-22,50,depth_duration_stimuli/000943_2014-06-09_19-31-07_260595134347_rgbf000128-resize_1/000943_2014-06-09_19-31-07_260595134347_rgbf000128-resize_1-target.png,250,1.9765,4.0,2751,258,feet,jsons/v1_VE250_randls_75_rotated.json,834406,1078611,38,Man
50,903206,DepthScenes,duration_manipulation_targetAtFixation,jsons/v1_VE250_randls_75_rotated.json,http://54.235.29.9/FacialAge/BNav_EC2/DepthDuration/v2_depth_duration_MTurk/v2_DepthDuration_HTML.html#378,378,1536,864,1536,864,9-18-2022,12-23-22,51,depth_duration_stimuli/003070_2014-06-15_14-58-27_094959634447_rgbf000150-resize_3/003070_2014-06-15_14-58-27_094959634447_rgbf000150-resize_3-target.png,250,2.9415,6.0,3241,256,feet,jsons/v1_VE250_randls_75_rotated.json,834406,1078611,38,Man
51,903206,DepthScenes,duration_manipulation_targetAtFixation,jsons/v1_VE250_randls_75_rotated.json,http://54.235.29.9/FacialAge/BNav_EC2/DepthDuration/v2_depth_duration_MTurk/v2_DepthDuration_HTML.html#378,378,1536,864,1536,864,9-18-2022,12-23-22,52,depth_duration_stimuli/001094_2014-06-15_17-36-00_260595134347_rgbf000205-resize_0/001094_2014-06-15_17-36-00_260595134347_rgbf000205-resize_0-target.png,250,4.2175,4.0,3866,260,feet,jsons/v1_VE250_randls_75_rotated.json,834406,1078611,38,Man
52,903206,DepthScenes,duration_manipulation_targetAtFixation,jsons/v1_VE250_randls_75_rotated.json,http://54.235.29.9/FacialAge/BNav_EC2/DepthDuration/v2_depth_duration_MTurk/v2_DepthDuration_HTML.html#378,378,1536,864,1536,864,9-18-2022,12-23-22,53,depth_duration_stimuli/000692_2014-06-08_13-09-42_260595134347_rgbf000199-resize_2/000692_2014-06-08_13-09-42_260595134347_rgbf000199-resize_2-target.png,250,3.661,6.0,3678,251,feet,jsons/v1_VE250_randls_75_rotated.json,834406,1078611,38,Man
53,903206,DepthScenes,duration_manipulation_targetAtFixation,jsons/v1_VE250_randls_75_rotated.json,http://54.235.29.9/FacialAge/BNav_EC2/DepthDuration/v2_depth_duration_MTurk/v2_DepthDuration_HTML.html#378,378,1536,864,1536,864,9-18-2022,12-23-22,54,depth_duration_stimuli/001815_2014-06-26_20-52-55_260595134347_rgbf000020-resize_0/001815_2014-06-26_20-52-55_260595134347_rgbf000020-resize_0-target.png,250,3.3865,7.0,2624,265,feet,jsons/v1_VE250_randls_75_rotated.json,834406,1078611,38,Man
54,903206,DepthScenes,duration_manipulation_targetAtFixation,jsons/v1_VE250_randls_75_rotated.json,http://54.235.29.9/FacialAge/BNav_EC2/DepthDuration/v2_depth_duration_MTurk/v2_DepthDuration_HTML.html#378,378,1536,864,1536,864,9-18-2022,12-23-22,55,depth_duration_stimuli/001808_2014-06-26_20-50-58_260595134347_rgbf000029-resize_1/001808_2014-06-26_20-50-58_260595134347_rgbf000029-resize_1-target.png,250,4.249,4.0,3253,249,feet,jsons/v1_VE250_randls_75_rotated.json,834406,1078611,38,Man
55,903206,DepthScenes,duration_manipulation_targetAtFixation,jsons/v1_VE250_randls_75_rotated.json,http://54.235.29.9/FacialAge/BNav_EC2/DepthDuration/v2_depth_duration_MTurk/v2_DepthDuration_HTML.html#378,378,1536,864,1536,864,9-18-2022,12-23-22,56,depth_duration_stimuli/000191_2014-05-12_17-07-38_260595134347_rgbf000199-resize_0/000191_2014-05-12_17-07-38_260595134347_rgbf000199-resize_0-target.png,250,3.7995,8.0,4347,249,feet,jsons/v1_VE250_randls_75_rotated.json,834406,1078611,38,Man
56,903206,DepthScenes,duration_manipulation_targetAtFixation,jsons/v1_VE250_randls_75_rotated.json,http://54.235.29.9/FacialAge/BNav_EC2/DepthDuration/v2_depth_duration_MTurk/v2_DepthDuration_HTML.html#378,378,1536,864,1536,864,9-18-2022,12-23-22,57,depth_duration_stimuli/000493_2014-06-09_21-01-18_260595134347_rgbf000196-resize_3/000493_2014-06-09_21-01-18_260595134347_rgbf000196-resize_3-target.png,250,3.44,3.0,5807,250,feet,jsons/v1_VE250_randls_75_rotated.json,834406,1078611,38,Man
57,903206,DepthScenes,duration_manipulation_targetAtFixation,jsons/v1_VE250_randls_75_rotated.json,http://54.235.29.9/FacialAge/BNav_EC2/DepthDuration/v2_depth_duration_MTurk/v2_DepthDuration_HTML.html#378,378,1536,864,1536,864,9-18-2022,12-23-22,58,depth_duration_stimuli/000742_2014-06-08_18-48-09_260595134347_rgbf000164-resize_4/000742_2014-06-08_18-48-09_260595134347_rgbf000164-resize_4-target.png,250,4.632,4.0,6383,248,feet,jsons/v1_VE250_randls_75_rotated.json,834406,1078611,38,Man
58,903206,DepthScenes,duration_manipulation_targetAtFixation,jsons/v1_VE250_randls_75_rotated.json,http://54.235.29.9/FacialAge/BNav_EC2/DepthDuration/v2_depth_duration_MTurk/v2_DepthDuration_HTML.html#378,378,1536,864,1536,864,9-18-2022,12-23-22,59,depth_duration_stimuli/001066_2014-06-08_22-03-20_260595134347_rgbf000066-resize_4/001066_2014-06-08_22-03-20_260595134347_rgbf000066-resize_4-target.png,250,4.2330000000000005,6.0,6910,250,feet,jsons/v1_VE250_randls_75_rotated.json,834406,1078611,38,Man
59,903206,DepthScenes,duration_manipulation_targetAtFixation,jsons/v1_VE250_randls_75_rotated.json,http://54.235.29.9/FacialAge/BNav_EC2/DepthDuration/v2_depth_duration_MTurk/v2_DepthDuration_HTML.html#378,378,1536,864,1536,864,9-18-2022,12-23-22,60,depth_duration_stimuli/002209_2014-06-28_18-36-10_260595134347_rgbf000051-resize_1/002209_2014-06-28_18-36-10_260595134347_rgbf000051-resize_1-target.png,250,2.057,4.0,3540,250,feet,jsons/v1_VE250_randls_75_rotated.json,834406,1078611,38,Man
60,903206,DepthScenes,duration_manipulation_targetAtFixation,jsons/v1_VE250_randls_75_rotated.json,http://54.235.29.9/FacialAge/BNav_EC2/DepthDuration/v2_depth_duration_MTurk/v2_DepthDuration_HTML.html#378,378,1536,864,1536,864,9-18-2022,12-23-22,61,depth_duration_stimuli/002763_2014-06-22_19-13-10_094959634447_rgbf000075-resize_4/002763_2014-06-22_19-13-10_094959634447_rgbf000075-resize_4-target.png,250,1.68375,8.0,3602,249,feet,jsons/v1_VE250_randls_75_rotated.json,834406,1078611,38,Man
61,903206,DepthScenes,duration_manipulation_targetAtFixation,jsons/v1_VE250_randls_75_rotated.json,http://54.235.29.9/FacialAge/BNav_EC2/DepthDuration/v2_depth_duration_MTurk/v2_DepthDuration_HTML.html#378,378,1536,864,1536,864,9-18-2022,12-23-22,62,depth_duration_stimuli/000709_2014-06-08_13-51-55_260595134347_rgbf000068-resize_3/000709_2014-06-08_13-51-55_260595134347_rgbf000068-resize_3-target.png,250,1.8030000000000002,9.0,2505,249,feet,jsons/v1_VE250_randls_75_rotated.json,834406,1078611,38,Man
62,903206,DepthScenes,duration_manipulation_targetAtFixation,jsons/v1_VE250_randls_75_rotated.json,http://54.235.29.9/FacialAge/BNav_EC2/DepthDuration/v2_depth_duration_MTurk/v2_DepthDuration_HTML.html#378,378,1536,864,1536,864,9-18-2022,12-23-22,63,depth_duration_stimuli/002057_2014-06-24_21-00-13_260595134347_rgbf000120-resize_1/002057_2014-06-24_21-00-13_260595134347_rgbf000120-resize_1-target.png,250,2.967,5.0,3201,253,feet,jsons/v1_VE250_randls_75_rotated.json,834406,1078611,38,Man
63,903206,DepthScenes,duration_manipulation_targetAtFixation,jsons/v1_VE250_randls_75_rotated.json,http://54.235.29.9/FacialAge/BNav_EC2/DepthDuration/v2_depth_duration_MTurk/v2_DepthDuration_HTML.html#378,378,1536,864,1536,864,9-18-2022,12-23-22,64,depth_duration_stimuli/001650_2014-06-20_12-09-00_260595134347_rgbf000087-resize_3/001650_2014-06-20_12-09-00_260595134347_rgbf000087-resize_3-target.png,250,1.9505,6.0,3651,254,feet,jsons/v1_VE250_randls_75_rotated.json,834406,1078611,38,Man
64,903206,DepthScenes,duration_manipulation_targetAtFixation,jsons/v1_VE250_randls_75_rotated.json,http://54.235.29.9/FacialAge/BNav_EC2/DepthDuration/v2_depth_duration_MTurk/v2_DepthDuration_HTML.html#378,378,1536,864,1536,864,9-18-2022,12-23-22,65,depth_duration_stimuli/000682_2014-06-08_23-14-58_260595134347_rgbf000041-resize_5/000682_2014-06-08_23-14-58_260595134347_rgbf000041-resize_5-target.png,250,2.7239999999999998,3.0,2646,250,feet,jsons/v1_VE250_randls_75_rotated.json,834406,1078611,38,Man
65,903206,DepthScenes,duration_manipulation_targetAtFixation,jsons/v1_VE250_randls_75_rotated.json,http://54.235.29.9/FacialAge/BNav_EC2/DepthDuration/v2_depth_duration_MTurk/v2_DepthDuration_HTML.html#378,378,1536,864,1536,864,9-18-2022,12-23-22,66,depth_duration_stimuli/001540_2014-06-20_17-01-05_260595134347_rgbf000086-resize_2/001540_2014-06-20_17-01-05_260595134347_rgbf000086-resize-original.jpg,250,1.459,0.0,3222,264,feet,jsons/v1_VE250_randls_75_rotated.json,834406,1078611,38,Man
66,903206,DepthScenes,duration_manipulation_targetAtFixation,jsons/v1_VE250_randls_75_rotated.json,http://54.235.29.9/FacialAge/BNav_EC2/DepthDuration/v2_depth_duration_MTurk/v2_DepthDuration_HTML.html#378,378,1536,864,1536,864,9-18-2022,12-23-22,67,depth_duration_stimuli/000103_2014-05-14_22-01-17_260595134347_rgbf000152-resize_5/000103_2014-05-14_22-01-17_260595134347_rgbf000152-resize_5-target.png,250,1.993,7.0,2871,250,feet,jsons/v1_VE250_randls_75_rotated.json,834406,1078611,38,Man
67,903206,DepthScenes,duration_manipulation_targetAtFixation,jsons/v1_VE250_randls_75_rotated.json,http://54.235.29.9/FacialAge/BNav_EC2/DepthDuration/v2_depth_duration_MTurk/v2_DepthDuration_HTML.html#378,378,1536,864,1536,864,9-18-2022,12-23-22,68,depth_duration_stimuli/001555_2014-06-20_17-12-10_260595134347_rgbf000065-resize_4/001555_2014-06-20_17-12-10_260595134347_rgbf000065-resize_4-target.png,250,1.633,2.0,2647,248,feet,jsons/v1_VE250_randls_75_rotated.json,834406,1078611,38,Man
68,903206,DepthScenes,duration_manipulation_targetAtFixation,jsons/v1_VE250_randls_75_rotated.json,http://54.235.29.9/FacialAge/BNav_EC2/DepthDuration/v2_depth_duration_MTurk/v2_DepthDuration_HTML.html#378,378,1536,864,1536,864,9-18-2022,12-23-22,69,depth_duration_stimuli/003587_2014-05-23_16-48-02_094959634447_rgbf002384-resize_2/003587_2014-05-23_16-48-02_094959634447_rgbf002384-resize_2-target.png,250,1.357,3.0,2711,259,feet,jsons/v1_VE250_randls_75_rotated.json,834406,1078611,38,Man
69,903206,DepthScenes,duration_manipulation_targetAtFixation,jsons/v1_VE250_randls_75_rotated.json,http://54.235.29.9/FacialAge/BNav_EC2/DepthDuration/v2_depth_duration_MTurk/v2_DepthDuration_HTML.html#378,378,1536,864,1536,864,9-18-2022,12-23-22,70,depth_duration_stimuli/001167_2014-06-17_15-38-07_260595134347_rgbf000108-resize_0/001167_2014-06-17_15-38-07_260595134347_rgbf000108-resize_0-target.png,250,1.8505,3.0,3202,251,feet,jsons/v1_VE250_randls_75_rotated.json,834406,1078611,38,Man
70,903206,DepthScenes,duration_manipulation_targetAtFixation,jsons/v1_VE250_randls_75_rotated.json,http://54.235.29.9/FacialAge/BNav_EC2/DepthDuration/v2_depth_duration_MTurk/v2_DepthDuration_HTML.html#378,378,1536,864,1536,864,9-18-2022,12-23-22,71,depth_duration_stimuli/000457_2014-06-08_16-52-43_260595134347_rgbf000199-resize_1/000457_2014-06-08_16-52-43_260595134347_rgbf000199-resize_1-target.png,250,3.6489999999999996,4.0,3105,263,feet,jsons/v1_VE250_randls_75_rotated.json,834406,1078611,38,Man
71,903206,DepthScenes,duration_manipulation_targetAtFixation,jsons/v1_VE250_randls_75_rotated.json,http://54.235.29.9/FacialAge/BNav_EC2/DepthDuration/v2_depth_duration_MTurk/v2_DepthDuration_HTML.html#378,378,1536,864,1536,864,9-18-2022,12-23-22,72,depth_duration_stimuli/000929_2014-06-09_16-33-19_260595134347_rgbf000139-resize_0/000929_2014-06-09_16-33-19_260595134347_rgbf000139-resize_0-target.png,250,2.8680000000000003,3.0,2752,261,feet,jsons/v1_VE250_randls_75_rotated.json,834406,1078611,38,Man
72,903206,DepthScenes,duration_manipulation_targetAtFixation,jsons/v1_VE250_randls_75_rotated.json,http://54.235.29.9/FacialAge/BNav_EC2/DepthDuration/v2_depth_duration_MTurk/v2_DepthDuration_HTML.html#378,378,1536,864,1536,864,9-18-2022,12-23-22,73,depth_duration_stimuli/002444_2014-06-28_20-32-08_260595134347_rgbf000027-resize_0/002444_2014-06-28_20-32-08_260595134347_rgbf000027-resize_0-target.png,250,4.388999999999999,5.0,3074,250,feet,jsons/v1_VE250_randls_75_rotated.json,834406,1078611,38,Man
73,903206,DepthScenes,duration_manipulation_targetAtFixation,jsons/v1_VE250_randls_75_rotated.json,http://54.235.29.9/FacialAge/BNav_EC2/DepthDuration/v2_depth_duration_MTurk/v2_DepthDuration_HTML.html#378,378,1536,864,1536,864,9-18-2022,12-23-22,74,depth_duration_stimuli/000436_2014-06-09_22-25-11_260595134347_rgbf000137-resize_1/000436_2014-06-09_22-25-11_260595134347_rgbf000137-resize_1-target.png,250,4.0705,6.0,2766,258,feet,jsons/v1_VE250_randls_75_rotated.json,834406,1078611,38,Man
74,903206,DepthScenes,duration_manipulation_targetAtFixation,jsons/v1_VE250_randls_75_rotated.json,http://54.235.29.9/FacialAge/BNav_EC2/DepthDuration/v2_depth_duration_MTurk/v2_DepthDuration_HTML.html#378,378,1536,864,1536,864,9-18-2022,12-23-22,75,depth_duration_stimuli/002639_2014-06-24_14-51-37_094959634447_rgbf000074-resize_4/002639_2014-06-24_14-51-37_094959634447_rgbf000074-resize_4-target.png,250,4.0375,5.5,5675,251,feet,jsons/v1_VE250_randls_75_rotated.json,834406,1078611,38,Man
75,903206,DepthScenes,duration_manipulation_targetAtFixation,jsons/v1_VE250_randls_75_rotated.json,http://54.235.29.9/FacialAge/BNav_EC2/DepthDuration/v2_depth_duration_MTurk/v2_DepthDuration_HTML.html#378,378,1536,864,1536,864,9-18-2022,12-23-22,76,depth_duration_stimuli/003292_2014-05-14_21-53-49_094959634447_rgbf000100-resize_2/003292_2014-05-14_21-53-49_094959634447_rgbf000100-resize_2-target.png,250,3.4815,4.5,5976,250,feet,jsons/v1_VE250_randls_75_rotated.json,834406,1078611,38,Man
76,903206,DepthScenes,duration_manipulation_targetAtFixation,jsons/v1_VE250_randls_75_rotated.json,http://54.235.29.9/FacialAge/BNav_EC2/DepthDuration/v2_depth_duration_MTurk/v2_DepthDuration_HTML.html#378,378,1536,864,1536,864,9-18-2022,12-23-22,77,depth_duration_stimuli/002103_2014-06-25_20-00-40_260595134347_rgbf000049-resize_0/002103_2014-06-25_20-00-40_260595134347_rgbf000049-resize_0-target.png,250,4.105,5.25,10633,250,feet,jsons/v1_VE250_randls_75_rotated.json,834406,1078611,38,Man
77,903206,DepthScenes,duration_manipulation_targetAtFixation,jsons/v1_VE250_randls_75_rotated.json,http://54.235.29.9/FacialAge/BNav_EC2/DepthDuration/v2_depth_duration_MTurk/v2_DepthDuration_HTML.html#378,378,1536,864,1536,864,9-18-2022,12-23-22,78,depth_duration_stimuli/002039_2014-06-24_20-22-38_260595134347_rgbf000084-resize_1/002039_2014-06-24_20-22-38_260595134347_rgbf000084-resize_1-target.png,250,4.408,4.0,4531,250,feet,jsons/v1_VE250_randls_75_rotated.json,834406,1078611,38,Man
78,903206,DepthScenes,duration_manipulation_targetAtFixation,jsons/v1_VE250_randls_75_rotated.json,http://54.235.29.9/FacialAge/BNav_EC2/DepthDuration/v2_depth_duration_MTurk/v2_DepthDuration_HTML.html#378,378,1536,864,1536,864,9-18-2022,12-23-22,79,depth_duration_stimuli/002660_2014-06-13_15-44-18_094959634447_rgbf001878-resize_2/002660_2014-06-13_15-44-18_094959634447_rgbf001878-resize_2-target.png,250,3.576,4.0,3063,251,feet,jsons/v1_VE250_randls_75_rotated.json,834406,1078611,38,Man
79,903206,DepthScenes,duration_manipulation_targetAtFixation,jsons/v1_VE250_randls_75_rotated.json,http://54.235.29.9/FacialAge/BNav_EC2/DepthDuration/v2_depth_duration_MTurk/v2_DepthDuration_HTML.html#378,378,1536,864,1536,864,9-18-2022,12-23-22,80,depth_duration_stimuli/002153_2014-06-25_21-27-18_260595134347_rgbf000038-resize_5/002153_2014-06-25_21-27-18_260595134347_rgbf000038-resize_5-target.png,250,2.505,2.5,9849,252,feet,jsons/v1_VE250_randls_75_rotated.json,834406,1078611,38,Man
80,903206,DepthScenes,duration_manipulation_targetAtFixation,jsons/v1_VE250_randls_75_rotated.json,http://54.235.29.9/FacialAge/BNav_EC2/DepthDuration/v2_depth_duration_MTurk/v2_DepthDuration_HTML.html#378,378,1536,864,1536,864,9-18-2022,12-23-22,81,depth_duration_stimuli/000691_2014-06-08_13-08-50_260595134347_rgbf000132-resize_3/000691_2014-06-08_13-08-50_260595134347_rgbf000132-resize_3-target.png,250,4.1530000000000005,2.8,7945,252,feet,jsons/v1_VE250_randls_75_rotated.json,834406,1078611,38,Man
81,903206,DepthScenes,duration_manipulation_targetAtFixation,jsons/v1_VE250_randls_75_rotated.json,http://54.235.29.9/FacialAge/BNav_EC2/DepthDuration/v2_depth_duration_MTurk/v2_DepthDuration_HTML.html#378,378,1536,864,1536,864,9-18-2022,12-23-22,82,depth_duration_stimuli/002213_2014-06-28_18-37-58_260595134347_rgbf000055-resize_1/002213_2014-06-28_18-37-58_260595134347_rgbf000055-resize_1-target.png,250,3.62,7.0,10434,256,feet,jsons/v1_VE250_randls_75_rotated.json,834406,1078611,38,Man
82,903206,DepthScenes,duration_manipulation_targetAtFixation,jsons/v1_VE250_randls_75_rotated.json,http://54.235.29.9/FacialAge/BNav_EC2/DepthDuration/v2_depth_duration_MTurk/v2_DepthDuration_HTML.html#378,378,1536,864,1536,864,9-18-2022,12-23-22,83,depth_duration_stimuli/002467_2014-06-28_20-38-07_260595134347_rgbf000026-resize_2/002467_2014-06-28_20-38-07_260595134347_rgbf000026-resize_2-target.png,250,4.742,5.0,3265,250,feet,jsons/v1_VE250_randls_75_rotated.json,834406,1078611,38,Man
83,903206,DepthScenes,duration_manipulation_targetAtFixation,jsons/v1_VE250_randls_75_rotated.json,http://54.235.29.9/FacialAge/BNav_EC2/DepthDuration/v2_depth_duration_MTurk/v2_DepthDuration_HTML.html#378,378,1536,864,1536,864,9-18-2022,12-23-22,84,depth_duration_stimuli/002570_2014-06-24_13-59-54_094959634447_rgbf000059-resize_0/002570_2014-06-24_13-59-54_094959634447_rgbf000059-resize_0-target.png,250,4.037,8.0,3786,256,feet,jsons/v1_VE250_randls_75_rotated.json,834406,1078611,38,Man
84,903206,DepthScenes,duration_manipulation_targetAtFixation,jsons/v1_VE250_randls_75_rotated.json,http://54.235.29.9/FacialAge/BNav_EC2/DepthDuration/v2_depth_duration_MTurk/v2_DepthDuration_HTML.html#378,378,1536,864,1536,864,9-18-2022,12-23-22,85,depth_duration_stimuli/000734_2014-06-08_17-39-11_260595134347_rgbf000128-resize_2/000734_2014-06-08_17-39-11_260595134347_rgbf000128-resize_2-target.png,250,4.098,5.0,2911,251,feet,jsons/v1_VE250_randls_75_rotated.json,834406,1078611,38,Man
85,903206,DepthScenes,duration_manipulation_targetAtFixation,jsons/v1_VE250_randls_75_rotated.json,http://54.235.29.9/FacialAge/BNav_EC2/DepthDuration/v2_depth_duration_MTurk/v2_DepthDuration_HTML.html#378,378,1536,864,1536,864,9-18-2022,12-23-22,86,depth_duration_stimuli/000739_2014-06-08_18-45-58_260595134347_rgbf000068-resize_1/000739_2014-06-08_18-45-58_260595134347_rgbf000068-resize_1-target.png,250,3.534,3.0,3783,252,feet,jsons/v1_VE250_randls_75_rotated.json,834406,1078611,38,Man
86,903206,DepthScenes,duration_manipulation_targetAtFixation,jsons/v1_VE250_randls_75_rotated.json,http://54.235.29.9/FacialAge/BNav_EC2/DepthDuration/v2_depth_duration_MTurk/v2_DepthDuration_HTML.html#378,378,1536,864,1536,864,9-18-2022,12-23-22,87,depth_duration_stimuli/001032_2014-06-08_13-23-17_260595134347_rgbf000021-resize_3/001032_2014-06-08_13-23-17_260595134347_rgbf000021-resize_3-target.png,250,3.2725,1.0,2330,251,feet,jsons/v1_VE250_randls_75_rotated.json,834406,1078611,38,Man
87,903206,DepthScenes,duration_manipulation_targetAtFixation,jsons/v1_VE250_randls_75_rotated.json,http://54.235.29.9/FacialAge/BNav_EC2/DepthDuration/v2_depth_duration_MTurk/v2_DepthDuration_HTML.html#378,378,1536,864,1536,864,9-18-2022,12-23-22,88,depth_duration_stimuli/001059_2014-06-08_21-53-27_260595134347_rgbf000061-resize_4/001059_2014-06-08_21-53-27_260595134347_rgbf000061-resize_4-target.png,250,2.4185,4.0,4332,253,feet,jsons/v1_VE250_randls_75_rotated.json,834406,1078611,38,Man
88,903206,DepthScenes,duration_manipulation_targetAtFixation,jsons/v1_VE250_randls_75_rotated.json,http://54.235.29.9/FacialAge/BNav_EC2/DepthDuration/v2_depth_duration_MTurk/v2_DepthDuration_HTML.html#378,378,1536,864,1536,864,9-18-2022,12-23-22,89,depth_duration_stimuli/003495_2014-05-21_16-01-51_094959634447_rgbf000100-resize_3/003495_2014-05-21_16-01-51_094959634447_rgbf000100-resize_3-target.png,250,1.6255,3.0,3281,261,feet,jsons/v1_VE250_randls_75_rotated.json,834406,1078611,38,Man
89,903206,DepthScenes,duration_manipulation_targetAtFixation,jsons/v1_VE250_randls_75_rotated.json,http://54.235.29.9/FacialAge/BNav_EC2/DepthDuration/v2_depth_duration_MTurk/v2_DepthDuration_HTML.html#378,378,1536,864,1536,864,9-18-2022,12-23-22,90,depth_duration_stimuli/001244_2014-06-17_16-47-45_260595134347_rgbf000030-resize_4/001244_2014-06-17_16-47-45_260595134347_rgbf000030-resize_4-target.png,250,2.0425,5.0,4034,251,feet,jsons/v1_VE250_randls_75_rotated.json,834406,1078611,38,Man
90,903206,DepthScenes,duration_manipulation_targetAtFixation,jsons/v1_VE250_randls_75_rotated.json,http://54.235.29.9/FacialAge/BNav_EC2/DepthDuration/v2_depth_duration_MTurk/v2_DepthDuration_HTML.html#378,378,1536,864,1536,864,9-18-2022,12-23-22,91,depth_duration_stimuli/003010_2014-06-15_12-54-35_094959634447_rgbf000112-resize_0/003010_2014-06-15_12-54-35_094959634447_rgbf000112-resize_0-target.png,250,3.1185,8.5,6985,250,feet,jsons/v1_VE250_randls_75_rotated.json,834406,1078611,38,Man
91,903206,DepthScenes,duration_manipulation_targetAtFixation,jsons/v1_VE250_randls_75_rotated.json,http://54.235.29.9/FacialAge/BNav_EC2/DepthDuration/v2_depth_duration_MTurk/v2_DepthDuration_HTML.html#378,378,1536,864,1536,864,9-18-2022,12-23-22,92,depth_duration_stimuli/001810_2014-06-26_20-51-35_260595134347_rgbf000040-resize_3/001810_2014-06-26_20-51-35_260595134347_rgbf000040-resize_3-target.png,250,2.2525,4.5,6272,249,feet,jsons/v1_VE250_randls_75_rotated.json,834406,1078611,38,Man
92,903206,DepthScenes,duration_manipulation_targetAtFixation,jsons/v1_VE250_randls_75_rotated.json,http://54.235.29.9/FacialAge/BNav_EC2/DepthDuration/v2_depth_duration_MTurk/v2_DepthDuration_HTML.html#378,378,1536,864,1536,864,9-18-2022,12-23-22,93,depth_duration_stimuli/001584_2014-06-20_11-07-43_260595134347_rgbf000002-resize_1/001584_2014-06-20_11-07-43_260595134347_rgbf000002-resize_1-target.png,250,3.53,3.5,9302,252,feet,jsons/v1_VE250_randls_75_rotated.json,834406,1078611,38,Man
93,903206,DepthScenes,duration_manipulation_targetAtFixation,jsons/v1_VE250_randls_75_rotated.json,http://54.235.29.9/FacialAge/BNav_EC2/DepthDuration/v2_depth_duration_MTurk/v2_DepthDuration_HTML.html#378,378,1536,864,1536,864,9-18-2022,12-23-22,94,depth_duration_stimuli/003621_2014-05-23_18-06-08_094959634447_rgbf000101-resize_1/003621_2014-05-23_18-06-08_094959634447_rgbf000101-resize_1-target.png,250,3.9835,5.25,7276,258,feet,jsons/v1_VE250_randls_75_rotated.json,834406,1078611,38,Man
94,903206,DepthScenes,duration_manipulation_targetAtFixation,jsons/v1_VE250_randls_75_rotated.json,http://54.235.29.9/FacialAge/BNav_EC2/DepthDuration/v2_depth_duration_MTurk/v2_DepthDuration_HTML.html#378,378,1536,864,1536,864,9-18-2022,12-23-22,95,depth_duration_stimuli/002637_2014-06-24_14-51-13_094959634447_rgbf000066-resize_4/002637_2014-06-24_14-51-13_094959634447_rgbf000066-resize_4-target.png,250,1.9955,4.0,4217,252,feet,jsons/v1_VE250_randls_75_rotated.json,834406,1078611,38,Man
95,903206,DepthScenes,duration_manipulation_targetAtFixation,jsons/v1_VE250_randls_75_rotated.json,http://54.235.29.9/FacialAge/BNav_EC2/DepthDuration/v2_depth_duration_MTurk/v2_DepthDuration_HTML.html#378,378,1536,864,1536,864,9-18-2022,12-23-22,96,depth_duration_stimuli/003534_2014-05-22_15-06-10_094959634447_rgbf000102-resize_4/003534_2014-05-22_15-06-10_094959634447_rgbf000102-resize_4-target.png,250,1.426,1.0,4927,249,feet,jsons/v1_VE250_randls_75_rotated.json,834406,1078611,38,Man
96,903206,DepthScenes,duration_manipulation_targetAtFixation,jsons/v1_VE250_randls_75_rotated.json,http://54.235.29.9/FacialAge/BNav_EC2/DepthDuration/v2_depth_duration_MTurk/v2_DepthDuration_HTML.html#378,378,1536,864,1536,864,9-18-2022,12-23-22,97,depth_duration_stimuli/002199_2014-06-28_18-33-56_260595134347_rgbf000074-resize_0/002199_2014-06-28_18-33-56_260595134347_rgbf000074-resize_0-target.png,250,1.996,4.0,3883,262,feet,jsons/v1_VE250_randls_75_rotated.json,834406,1078611,38,Man
97,903206,DepthScenes,duration_manipulation_targetAtFixation,jsons/v1_VE250_randls_75_rotated.json,http://54.235.29.9/FacialAge/BNav_EC2/DepthDuration/v2_depth_duration_MTurk/v2_DepthDuration_HTML.html#378,378,1536,864,1536,864,9-18-2022,12-23-22,98,depth_duration_stimuli/001056_2014-06-08_18-46-44_260595134347_rgbf000068-resize_0/001056_2014-06-08_18-46-44_260595134347_rgbf000068-resize_0-target.png,250,2.6625,4.25,9262,262,feet,jsons/v1_VE250_randls_75_rotated.json,834406,1078611,38,Man
98,903206,DepthScenes,duration_manipulation_targetAtFixation,jsons/v1_VE250_randls_75_rotated.json,http://54.235.29.9/FacialAge/BNav_EC2/DepthDuration/v2_depth_duration_MTurk/v2_DepthDuration_HTML.html#378,378,1536,864,1536,864,9-18-2022,12-23-22,99,depth_duration_stimuli/001222_2014-06-17_16-24-06_260595134347_rgbf000073-resize_0/001222_2014-06-17_16-24-06_260595134347_rgbf000073-resize-original.jpg,250,1.4385,0.0,3087,264,feet,jsons/v1_VE250_randls_75_rotated.json,834406,1078611,38,Man
99,903206,DepthScenes,duration_manipulation_targetAtFixation,jsons/v1_VE250_randls_75_rotated.json,http://54.235.29.9/FacialAge/BNav_EC2/DepthDuration/v2_depth_duration_MTurk/v2_DepthDuration_HTML.html#378,378,1536,864,1536,864,9-18-2022,12-23-22,100,depth_duration_stimuli/000665_2014-06-09_20-42-35_260595134347_rgbf000110-resize_1/000665_2014-06-09_20-42-35_260595134347_rgbf000110-resize_1-target.png,250,3.057,3.0,3434,263,feet,jsons/v1_VE250_randls_75_rotated.json,834406,1078611,38,Man
100,903206,DepthScenes,duration_manipulation_targetAtFixation,jsons/v1_VE250_randls_75_rotated.json,http://54.235.29.9/FacialAge/BNav_EC2/DepthDuration/v2_depth_duration_MTurk/v2_DepthDuration_HTML.html#378,378,1536,864,1536,864,9-18-2022,12-23-22,101,depth_duration_stimuli/001150_2014-06-17_15-27-34_260595134347_rgbf000108-resize_2/001150_2014-06-17_15-27-34_260595134347_rgbf000108-resize_2-target.png,250,4.0325,6.0,6423,249,feet,jsons/v1_VE250_randls_75_rotated.json,834406,1078611,38,Man
101,903206,DepthScenes,duration_manipulation_targetAtFixation,jsons/v1_VE250_randls_75_rotated.json,http://54.235.29.9/FacialAge/BNav_EC2/DepthDuration/v2_depth_duration_MTurk/v2_DepthDuration_HTML.html#378,378,1536,864,1536,864,9-18-2022,12-23-22,102,depth_duration_stimuli/003228_2014-05-14_13-42-35_094959634447_rgbf000101-resize_1/003228_2014-05-14_13-42-35_094959634447_rgbf000101-resize_1-target.png,250,1.9680000000000002,3.0,3504,250,feet,jsons/v1_VE250_randls_75_rotated.json,834406,1078611,38,Man
102,903206,DepthScenes,duration_manipulation_targetAtFixation,jsons/v1_VE250_randls_75_rotated.json,http://54.235.29.9/FacialAge/BNav_EC2/DepthDuration/v2_depth_duration_MTurk/v2_DepthDuration_HTML.html#378,378,1536,864,1536,864,9-18-2022,12-23-22,103,depth_duration_stimuli/002600_2014-06-24_14-27-04_094959634447_rgbf000074-resize_2/002600_2014-06-24_14-27-04_094959634447_rgbf000074-resize_2-target.png,250,2.7575,4.0,3472,254,feet,jsons/v1_VE250_randls_75_rotated.json,834406,1078611,38,Man
103,903206,DepthScenes,duration_manipulation_targetAtFixation,jsons/v1_VE250_randls_75_rotated.json,http://54.235.29.9/FacialAge/BNav_EC2/DepthDuration/v2_depth_duration_MTurk/v2_DepthDuration_HTML.html#378,378,1536,864,1536,864,9-18-2022,12-23-22,104,depth_duration_stimuli/001132_2014-06-17_14-48-54_260595134347_rgbf000100-resize_2/001132_2014-06-17_14-48-54_260595134347_rgbf000100-resize_2-target.png,250,3.753,4.0,6865,250,feet,jsons/v1_VE250_randls_75_rotated.json,834406,1078611,38,Man
104,903206,DepthScenes,duration_manipulation_targetAtFixation,jsons/v1_VE250_randls_75_rotated.json,http://54.235.29.9/FacialAge/BNav_EC2/DepthDuration/v2_depth_duration_MTurk/v2_DepthDuration_HTML.html#378,378,1536,864,1536,864,9-18-2022,12-23-22,105,depth_duration_stimuli/001133_2014-06-17_14-49-16_260595134347_rgbf000100-resize_0/001133_2014-06-17_14-49-16_260595134347_rgbf000100-resize_0-target.png,250,4.2115,3.5,5567,255,feet,jsons/v1_VE250_randls_75_rotated.json,834406,1078611,38,Man
105,903206,DepthScenes,duration_manipulation_targetAtFixation,jsons/v1_VE250_randls_75_rotated.json,http://54.235.29.9/FacialAge/BNav_EC2/DepthDuration/v2_depth_duration_MTurk/v2_DepthDuration_HTML.html#378,378,1536,864,1536,864,9-18-2022,12-23-22,106,depth_duration_stimuli/002344_2014-06-28_20-06-29_260595134347_rgbf000030-resize_1/002344_2014-06-28_20-06-29_260595134347_rgbf000030-resize_1-target.png,250,1.5795,2.5,8404,250,feet,jsons/v1_VE250_randls_75_rotated.json,834406,1078611,38,Man
106,903206,DepthScenes,duration_manipulation_targetAtFixation,jsons/v1_VE250_randls_75_rotated.json,http://54.235.29.9/FacialAge/BNav_EC2/DepthDuration/v2_depth_duration_MTurk/v2_DepthDuration_HTML.html#378,378,1536,864,1536,864,9-18-2022,12-23-22,107,depth_duration_stimuli/002725_2014-06-22_11-47-51_094959634447_rgbf000070-resize_1/002725_2014-06-22_11-47-51_094959634447_rgbf000070-resize_1-target.png,250,2.195,3.0,3552,249,feet,jsons/v1_VE250_randls_75_rotated.json,834406,1078611,38,Man
107,903206,DepthScenes,duration_manipulation_targetAtFixation,jsons/v1_VE250_randls_75_rotated.json,http://54.235.29.9/FacialAge/BNav_EC2/DepthDuration/v2_depth_duration_MTurk/v2_DepthDuration_HTML.html#378,378,1536,864,1536,864,9-18-2022,12-23-22,108,depth_duration_stimuli/002750_2014-06-22_19-08-03_094959634447_rgbf000094-resize_4/002750_2014-06-22_19-08-03_094959634447_rgbf000094-resize_4-target.png,250,2.354,3.5,6764,256,feet,jsons/v1_VE250_randls_75_rotated.json,834406,1078611,38,Man
108,903206,DepthScenes,duration_manipulation_targetAtFixation,jsons/v1_VE250_randls_75_rotated.json,http://54.235.29.9/FacialAge/BNav_EC2/DepthDuration/v2_depth_duration_MTurk/v2_DepthDuration_HTML.html#378,378,1536,864,1536,864,9-18-2022,12-23-22,109,depth_duration_stimuli/002549_2014-06-24_13-41-39_094959634447_rgbf000022-resize_3/002549_2014-06-24_13-41-39_094959634447_rgbf000022-resize_3-target.png,250,1.476,4.0,5314,265,feet,jsons/v1_VE250_randls_75_rotated.json,834406,1078611,38,Man
109,903206,DepthScenes,duration_manipulation_targetAtFixation,jsons/v1_VE250_randls_75_rotated.json,http://54.235.29.9/FacialAge/BNav_EC2/DepthDuration/v2_depth_duration_MTurk/v2_DepthDuration_HTML.html#378,378,1536,864,1536,864,9-18-2022,12-23-22,110,depth_duration_stimuli/002875_2014-06-01_15-19-00_094959634447_rgbf000151-resize_1/002875_2014-06-01_15-19-00_094959634447_rgbf000151-resize_1-target.png,250,1.9675,5.0,2986,250,feet,jsons/v1_VE250_randls_75_rotated.json,834406,1078611,38,Man
110,903206,DepthScenes,duration_manipulation_targetAtFixation,jsons/v1_VE250_randls_75_rotated.json,http://54.235.29.9/FacialAge/BNav_EC2/DepthDuration/v2_depth_duration_MTurk/v2_DepthDuration_HTML.html#378,378,1536,864,1536,864,9-18-2022,12-23-22,111,depth_duration_stimuli/001011_2014-06-08_23-18-54_260595134347_rgbf000044-resize_4/001011_2014-06-08_23-18-54_260595134347_rgbf000044-resize_4-target.png,250,2.4730000000000003,4.0,3947,254,feet,jsons/v1_VE250_randls_75_rotated.json,834406,1078611,38,Man
111,903206,DepthScenes,duration_manipulation_targetAtFixation,jsons/v1_VE250_randls_75_rotated.json,http://54.235.29.9/FacialAge/BNav_EC2/DepthDuration/v2_depth_duration_MTurk/v2_DepthDuration_HTML.html#378,378,1536,864,1536,864,9-18-2022,12-23-22,112,depth_duration_stimuli/002657_2014-06-13_15-29-54_094959634447_rgbf000150-resize_1/002657_2014-06-13_15-29-54_094959634447_rgbf000150-resize_1-target.png,250,4.919,9.0,6786,259,feet,jsons/v1_VE250_randls_75_rotated.json,834406,1078611,38,Man
112,903206,DepthScenes,duration_manipulation_targetAtFixation,jsons/v1_VE250_randls_75_rotated.json,http://54.235.29.9/FacialAge/BNav_EC2/DepthDuration/v2_depth_duration_MTurk/v2_DepthDuration_HTML.html#378,378,1536,864,1536,864,9-18-2022,12-23-22,113,depth_duration_stimuli/002375_2014-06-28_20-13-44_260595134347_rgbf000032-resize_1/002375_2014-06-28_20-13-44_260595134347_rgbf000032-resize_1-target.png,250,4.0175,4.0,4378,262,feet,jsons/v1_VE250_randls_75_rotated.json,834406,1078611,38,Man
113,903206,DepthScenes,duration_manipulation_targetAtFixation,jsons/v1_VE250_randls_75_rotated.json,http://54.235.29.9/FacialAge/BNav_EC2/DepthDuration/v2_depth_duration_MTurk/v2_DepthDuration_HTML.html#378,378,1536,864,1536,864,9-18-2022,12-23-22,114,depth_duration_stimuli/002995_2014-06-15_12-31-26_094959634447_rgbf000150-resize_1/002995_2014-06-15_12-31-26_094959634447_rgbf000150-resize_1-target.png,250,3.8360000000000003,5.0,3462,251,feet,jsons/v1_VE250_randls_75_rotated.json,834406,1078611,38,Man
114,903206,DepthScenes,duration_manipulation_targetAtFixation,jsons/v1_VE250_randls_75_rotated.json,http://54.235.29.9/FacialAge/BNav_EC2/DepthDuration/v2_depth_duration_MTurk/v2_DepthDuration_HTML.html#378,378,1536,864,1536,864,9-18-2022,12-23-22,115,depth_duration_stimuli/002748_2014-06-22_19-07-22_094959634447_rgbf000078-resize_1/002748_2014-06-22_19-07-22_094959634447_rgbf000078-resize_1-target.png,250,4.6705,5.0,4452,256,feet,jsons/v1_VE250_randls_75_rotated.json,834406,1078611,38,Man
115,903206,DepthScenes,duration_manipulation_targetAtFixation,jsons/v1_VE250_randls_75_rotated.json,http://54.235.29.9/FacialAge/BNav_EC2/DepthDuration/v2_depth_duration_MTurk/v2_DepthDuration_HTML.html#378,378,1536,864,1536,864,9-18-2022,12-23-22,116,depth_duration_stimuli/003081_2014-06-15_15-19-16_094959634447_rgbf000150-resize_1/003081_2014-06-15_15-19-16_094959634447_rgbf000150-resize_1-target.png,250,3.9125,4.0,3450,256,feet,jsons/v1_VE250_randls_75_rotated.json,834406,1078611,38,Man
116,903206,DepthScenes,duration_manipulation_targetAtFixation,jsons/v1_VE250_randls_75_rotated.json,http://54.235.29.9/FacialAge/BNav_EC2/DepthDuration/v2_depth_duration_MTurk/v2_DepthDuration_HTML.html#378,378,1536,864,1536,864,9-18-2022,12-23-22,117,depth_duration_stimuli/001417_2014-06-19_16-25-36_260595134347_rgbf000115-resize_5/001417_2014-06-19_16-25-36_260595134347_rgbf000115-resize_5-target.png,250,4.6255,4.0,2929,251,feet,jsons/v1_VE250_randls_75_rotated.json,834406,1078611,38,Man
117,903206,DepthScenes,duration_manipulation_targetAtFixation,jsons/v1_VE250_randls_75_rotated.json,http://54.235.29.9/FacialAge/BNav_EC2/DepthDuration/v2_depth_duration_MTurk/v2_DepthDuration_HTML.html#378,378,1536,864,1536,864,9-18-2022,12-23-22,118,depth_duration_stimuli/000556_2014-06-09_22-42-56_260595134347_rgbf000214-resize_1/000556_2014-06-09_22-42-56_260595134347_rgbf000214-resize_1-target.png,250,4.8415,2.0,3317,250,feet,jsons/v1_VE250_randls_75_rotated.json,834406,1078611,38,Man
118,903206,DepthScenes,duration_manipulation_targetAtFixation,jsons/v1_VE250_randls_75_rotated.json,http://54.235.29.9/FacialAge/BNav_EC2/DepthDuration/v2_depth_duration_MTurk/v2_DepthDuration_HTML.html#378,378,1536,864,1536,864,9-18-2022,12-23-22,119,depth_duration_stimuli/001158_2014-06-17_15-32-16_260595134347_rgbf000138-resize_2/001158_2014-06-17_15-32-16_260595134347_rgbf000138-resize_2-target.png,250,4.5315,4.0,4487,250,feet,jsons/v1_VE250_randls_75_rotated.json,834406,1078611,38,Man
119,903206,DepthScenes,duration_manipulation_targetAtFixation,jsons/v1_VE250_randls_75_rotated.json,http://54.235.29.9/FacialAge/BNav_EC2/DepthDuration/v2_depth_duration_MTurk/v2_DepthDuration_HTML.html#378,378,1536,864,1536,864,9-18-2022,12-23-22,120,depth_duration_stimuli/000787_2014-06-08_22-33-53_260595134347_rgbf000175-resize_1/000787_2014-06-08_22-33-53_260595134347_rgbf000175-resize-original.jpg,250,4.784,0.0,3720,251,feet,jsons/v1_VE250_randls_75_rotated.json,834406,1078611,38,Man
120,903206,DepthScenes,duration_manipulation_targetAtFixation,jsons/v1_VE250_randls_75_rotated.json,http://54.235.29.9/FacialAge/BNav_EC2/DepthDuration/v2_depth_duration_MTurk/v2_DepthDuration_HTML.html#378,378,1536,864,1536,864,9-18-2022,12-23-22,121,depth_duration_stimuli/001214_2014-06-17_16-13-55_260595134347_rgbf000111-resize_0/001214_2014-06-17_16-13-55_260595134347_rgbf000111-resize_0-target.png,250,2.6505,1.5,7019,253,feet,jsons/v1_VE250_randls_75_rotated.json,834406,1078611,38,Man
121,903206,DepthScenes,duration_manipulation_targetAtFixation,jsons/v1_VE250_randls_75_rotated.json,http://54.235.29.9/FacialAge/BNav_EC2/DepthDuration/v2_depth_duration_MTurk/v2_DepthDuration_HTML.html#378,378,1536,864,1536,864,9-18-2022,12-23-22,122,depth_duration_stimuli/000810_2014-06-08_17-20-01_260595134347_rgbf000105-resize_0/000810_2014-06-08_17-20-01_260595134347_rgbf000105-resize_0-target.png,250,1.4865,1.25,5086,244,feet,jsons/v1_VE250_randls_75_rotated.json,834406,1078611,38,Man
122,903206,DepthScenes,duration_manipulation_targetAtFixation,jsons/v1_VE250_randls_75_rotated.json,http://54.235.29.9/FacialAge/BNav_EC2/DepthDuration/v2_depth_duration_MTurk/v2_DepthDuration_HTML.html#378,378,1536,864,1536,864,9-18-2022,12-23-22,123,depth_duration_stimuli/000635_2014-06-08_16-38-42_260595134347_rgbf000106-resize_1/000635_2014-06-08_16-38-42_260595134347_rgbf000106-resize_1-target.png,250,2.074,4.0,3762,262,feet,jsons/v1_VE250_randls_75_rotated.json,834406,1078611,38,Man
123,903206,DepthScenes,duration_manipulation_targetAtFixation,jsons/v1_VE250_randls_75_rotated.json,http://54.235.29.9/FacialAge/BNav_EC2/DepthDuration/v2_depth_duration_MTurk/v2_DepthDuration_HTML.html#378,378,1536,864,1536,864,9-18-2022,12-23-22,124,depth_duration_stimuli/002279_2014-06-28_18-55-32_260595134347_rgbf000040-resize_5/002279_2014-06-28_18-55-32_260595134347_rgbf000040-resize_5-target.png,250,1.5043333333333,3.0,3232,250,feet,jsons/v1_VE250_randls_75_rotated.json,834406,1078611,38,Man
124,903206,DepthScenes,duration_manipulation_targetAtFixation,jsons/v1_VE250_randls_75_rotated.json,http://54.235.29.9/FacialAge/BNav_EC2/DepthDuration/v2_depth_duration_MTurk/v2_DepthDuration_HTML.html#378,378,1536,864,1536,864,9-18-2022,12-23-22,125,depth_duration_stimuli/000109_2014-05-14_23-41-52_260595134347_rgbf000035-resize_9/000109_2014-05-14_23-41-52_260595134347_rgbf000035-resize_9-target.png,250,1.3545,1.0,3707,251,feet,jsons/v1_VE250_randls_75_rotated.json,834406,1078611,38,Man
125,903206,DepthScenes,duration_manipulation_targetAtFixation,jsons/v1_VE250_randls_75_rotated.json,http://54.235.29.9/FacialAge/BNav_EC2/DepthDuration/v2_depth_duration_MTurk/v2_DepthDuration_HTML.html#378,378,1536,864,1536,864,9-18-2022,12-23-22,126,depth_duration_stimuli/000470_2014-06-09_19-42-40_260595134347_rgbf000094-resize_1/000470_2014-06-09_19-42-40_260595134347_rgbf000094-resize_1-target.png,250,1.831,3.0,3099,249,feet,jsons/v1_VE250_randls_75_rotated.json,834406,1078611,38,Man
126,903206,DepthScenes,duration_manipulation_targetAtFixation,jsons/v1_VE250_randls_75_rotated.json,http://54.235.29.9/FacialAge/BNav_EC2/DepthDuration/v2_depth_duration_MTurk/v2_DepthDuration_HTML.html#378,378,1536,864,1536,864,9-18-2022,12-23-22,127,depth_duration_stimuli/001136_2014-06-17_15-19-41_260595134347_rgbf000076-resize_3/001136_2014-06-17_15-19-41_260595134347_rgbf000076-resize_3-target.png,250,1.8655,3.0,5196,258,feet,jsons/v1_VE250_randls_75_rotated.json,834406,1078611,38,Man
127,903206,DepthScenes,duration_manipulation_targetAtFixation,jsons/v1_VE250_randls_75_rotated.json,http://54.235.29.9/FacialAge/BNav_EC2/DepthDuration/v2_depth_duration_MTurk/v2_DepthDuration_HTML.html#378,378,1536,864,1536,864,9-18-2022,12-23-22,128,depth_duration_stimuli/001164_2014-06-17_15-35-46_260595134347_rgbf000085-resize_3/001164_2014-06-17_15-35-46_260595134347_rgbf000085-resize_3-target.png,250,2.354,4.0,2944,263,feet,jsons/v1_VE250_randls_75_rotated.json,834406,1078611,38,Man
128,903206,DepthScenes,duration_manipulation_targetAtFixation,jsons/v1_VE250_randls_75_rotated.json,http://54.235.29.9/FacialAge/BNav_EC2/DepthDuration/v2_depth_duration_MTurk/v2_DepthDuration_HTML.html#378,378,1536,864,1536,864,9-18-2022,12-23-22,129,depth_duration_stimuli/003423_2014-05-21_10-23-26_094959634447_rgbf002665-resize_2/003423_2014-05-21_10-23-26_094959634447_rgbf002665-resize_2-target.png,250,3.2575,1.0,3106,250,feet,jsons/v1_VE250_randls_75_rotated.json,834406,1078611,38,Man
129,903206,DepthScenes,duration_manipulation_targetAtFixation,jsons/v1_VE250_randls_75_rotated.json,http://54.235.29.9/FacialAge/BNav_EC2/DepthDuration/v2_depth_duration_MTurk/v2_DepthDuration_HTML.html#378,378,1536,864,1536,864,9-18-2022,12-23-22,130,depth_duration_stimuli/002905_2014-06-03_18-04-43_094959634447_rgbf000151-resize_2/002905_2014-06-03_18-04-43_094959634447_rgbf000151-resize_2-target.png,250,2.0295,3.0,3345,258,feet,jsons/v1_VE250_randls_75_rotated.json,834406,1078611,38,Man
130,903206,DepthScenes,duration_manipulation_targetAtFixation,jsons/v1_VE250_randls_75_rotated.json,http://54.235.29.9/FacialAge/BNav_EC2/DepthDuration/v2_depth_duration_MTurk/v2_DepthDuration_HTML.html#378,378,1536,864,1536,864,9-18-2022,12-23-22,131,depth_duration_stimuli/000137_2014-05-20_17-04-49_260595134347_rgbf000120-resize_1/000137_2014-05-20_17-04-49_260595134347_rgbf000120-resize_1-target.png,250,3.786,4.0,2176,235,feet,jsons/v1_VE250_randls_75_rotated.json,834406,1078611,38,Man
131,903206,DepthScenes,duration_manipulation_targetAtFixation,jsons/v1_VE250_randls_75_rotated.json,http://54.235.29.9/FacialAge/BNav_EC2/DepthDuration/v2_depth_duration_MTurk/v2_DepthDuration_HTML.html#378,378,1536,864,1536,864,9-18-2022,12-23-22,132,depth_duration_stimuli/000736_2014-06-08_18-24-15_260595134347_rgbf000206-resize_3/000736_2014-06-08_18-24-15_260595134347_rgbf000206-resize_3-target.png,250,3.515,3.0,2609,255,feet,jsons/v1_VE250_randls_75_rotated.json,834406,1078611,38,Man
132,903206,DepthScenes,duration_manipulation_targetAtFixation,jsons/v1_VE250_randls_75_rotated.json,http://54.235.29.9/FacialAge/BNav_EC2/DepthDuration/v2_depth_duration_MTurk/v2_DepthDuration_HTML.html#378,378,1536,864,1536,864,9-18-2022,12-23-22,133,depth_duration_stimuli/000866_2014-06-09_20-45-42_260595134347_rgbf000139-resize_1/000866_2014-06-09_20-45-42_260595134347_rgbf000139-resize_1-target.png,250,3.2155,5.0,3187,237,feet,jsons/v1_VE250_randls_75_rotated.json,834406,1078611,38,Man
133,903206,DepthScenes,duration_manipulation_targetAtFixation,jsons/v1_VE250_randls_75_rotated.json,http://54.235.29.9/FacialAge/BNav_EC2/DepthDuration/v2_depth_duration_MTurk/v2_DepthDuration_HTML.html#378,378,1536,864,1536,864,9-18-2022,12-23-22,134,depth_duration_stimuli/002989_2014-06-15_12-25-03_094959634447_rgbf000150-resize_3/002989_2014-06-15_12-25-03_094959634447_rgbf000150-resize_3-target.png,250,4.1975,6.0,2310,260,feet,jsons/v1_VE250_randls_75_rotated.json,834406,1078611,38,Man
134,903206,DepthScenes,duration_manipulation_targetAtFixation,jsons/v1_VE250_randls_75_rotated.json,http://54.235.29.9/FacialAge/BNav_EC2/DepthDuration/v2_depth_duration_MTurk/v2_DepthDuration_HTML.html#378,378,1536,864,1536,864,9-18-2022,12-23-22,135,depth_duration_stimuli/000375_2014-06-08_11-17-29_260595134347_rgbf000133-resize_2/000375_2014-06-08_11-17-29_260595134347_rgbf000133-resize-original.jpg,250,4.718,0.0,3562,235,feet,jsons/v1_VE250_randls_75_rotated.json,834406,1078611,38,Man
135,903206,DepthScenes,duration_manipulation_targetAtFixation,jsons/v1_VE250_randls_75_rotated.json,http://54.235.29.9/FacialAge/BNav_EC2/DepthDuration/v2_depth_duration_MTurk/v2_DepthDuration_HTML.html#378,378,1536,864,1536,864,9-18-2022,12-23-22,136,depth_duration_stimuli/000483_2014-06-09_20-41-45_260595134347_rgbf000116-resize_4/000483_2014-06-09_20-41-45_260595134347_rgbf000116-resize_4-target.png,250,1.337,6.0,3039,260,feet,jsons/v1_VE250_randls_75_rotated.json,834406,1078611,38,Man
136,903206,DepthScenes,duration_manipulation_targetAtFixation,jsons/v1_VE250_randls_75_rotated.json,http://54.235.29.9/FacialAge/BNav_EC2/DepthDuration/v2_depth_duration_MTurk/v2_DepthDuration_HTML.html#378,378,1536,864,1536,864,9-18-2022,12-23-22,137,depth_duration_stimuli/000469_2014-06-09_19-42-10_260595134347_rgbf000081-resize_1/000469_2014-06-09_19-42-10_260595134347_rgbf000081-resize_1-target.png,250,1.652,3.0,2439,253,feet,jsons/v1_VE250_randls_75_rotated.json,834406,1078611,38,Man
137,903206,DepthScenes,duration_manipulation_targetAtFixation,jsons/v1_VE250_randls_75_rotated.json,http://54.235.29.9/FacialAge/BNav_EC2/DepthDuration/v2_depth_duration_MTurk/v2_DepthDuration_HTML.html#378,378,1536,864,1536,864,9-18-2022,12-23-22,138,depth_duration_stimuli/002758_2014-06-22_19-11-20_094959634447_rgbf000128-resize_1/002758_2014-06-22_19-11-20_094959634447_rgbf000128-resize_1-target.png,250,2.555,4.0,2602,259,feet,jsons/v1_VE250_randls_75_rotated.json,834406,1078611,38,Man
138,903206,DepthScenes,duration_manipulation_targetAtFixation,jsons/v1_VE250_randls_75_rotated.json,http://54.235.29.9/FacialAge/BNav_EC2/DepthDuration/v2_depth_duration_MTurk/v2_DepthDuration_HTML.html#378,378,1536,864,1536,864,9-18-2022,12-23-22,139,depth_duration_stimuli/002630_2014-06-24_14-47-50_094959634447_rgbf000055-resize_1/002630_2014-06-24_14-47-50_094959634447_rgbf000055-resize_1-target.png,250,3.0095,5.0,2183,250,feet,jsons/v1_VE250_randls_75_rotated.json,834406,1078611,38,Man
139,903206,DepthScenes,duration_manipulation_targetAtFixation,jsons/v1_VE250_randls_75_rotated.json,http://54.235.29.9/FacialAge/BNav_EC2/DepthDuration/v2_depth_duration_MTurk/v2_DepthDuration_HTML.html#378,378,1536,864,1536,864,9-18-2022,12-23-22,140,depth_duration_stimuli/001571_2014-06-20_17-21-32_260595134347_rgbf000089-resize_1/001571_2014-06-20_17-21-32_260595134347_rgbf000089-resize_1-target.png,250,1.86,4.0,2135,256,feet,jsons/v1_VE250_randls_75_rotated.json,834406,1078611,38,Man
140,903206,DepthScenes,duration_manipulation_targetAtFixation,jsons/v1_VE250_randls_75_rotated.json,http://54.235.29.9/FacialAge/BNav_EC2/DepthDuration/v2_depth_duration_MTurk/v2_DepthDuration_HTML.html#378,378,1536,864,1536,864,9-18-2022,12-23-22,141,depth_duration_stimuli/002272_2014-06-28_18-53-56_260595134347_rgbf000067-resize_2/002272_2014-06-28_18-53-56_260595134347_rgbf000067-resize_2-target.png,250,1.138,3.0,3681,250,feet,jsons/v1_VE250_randls_75_rotated.json,834406,1078611,38,Man
141,903206,DepthScenes,duration_manipulation_targetAtFixation,jsons/v1_VE250_randls_75_rotated.json,http://54.235.29.9/FacialAge/BNav_EC2/DepthDuration/v2_depth_duration_MTurk/v2_DepthDuration_HTML.html#378,378,1536,864,1536,864,9-18-2022,12-23-22,142,depth_duration_stimuli/000927_2014-06-09_16-32-30_260595134347_rgbf000123-resize_3/000927_2014-06-09_16-32-30_260595134347_rgbf000123-resize_3-target.png,250,2.6785,4.0,2565,248,feet,jsons/v1_VE250_randls_75_rotated.json,834406,1078611,38,Man
142,903206,DepthScenes,duration_manipulation_targetAtFixation,jsons/v1_VE250_randls_75_rotated.json,http://54.235.29.9/FacialAge/BNav_EC2/DepthDuration/v2_depth_duration_MTurk/v2_DepthDuration_HTML.html#378,378,1536,864,1536,864,9-18-2022,12-23-22,143,depth_duration_stimuli/001110_2014-06-15_17-25-28_260595134347_rgbf000150-resize_1/001110_2014-06-15_17-25-28_260595134347_rgbf000150-resize_1-target.png,250,1.7115,3.0,3320,249,feet,jsons/v1_VE250_randls_75_rotated.json,834406,1078611,38,Man
143,903206,DepthScenes,duration_manipulation_targetAtFixation,jsons/v1_VE250_randls_75_rotated.json,http://54.235.29.9/FacialAge/BNav_EC2/DepthDuration/v2_depth_duration_MTurk/v2_DepthDuration_HTML.html#378,378,1536,864,1536,864,9-18-2022,12-23-22,144,depth_duration_stimuli/001052_2014-06-08_18-24-54_260595134347_rgbf000130-resize_1/001052_2014-06-08_18-24-54_260595134347_rgbf000130-resize_1-target.png,250,4.1045,5.0,3069,251,feet,jsons/v1_VE250_randls_75_rotated.json,834406,1078611,38,Man
144,903206,DepthScenes,duration_manipulation_targetAtFixation,jsons/v1_VE250_randls_75_rotated.json,http://54.235.29.9/FacialAge/BNav_EC2/DepthDuration/v2_depth_duration_MTurk/v2_DepthDuration_HTML.html#378,378,1536,864,1536,864,9-18-2022,12-23-22,145,depth_duration_stimuli/002988_2014-06-15_12-24-20_094959634447_rgbf000150-resize_1/002988_2014-06-15_12-24-20_094959634447_rgbf000150-resize_1-target.png,250,4.7669999999999995,7.0,3334,249,feet,jsons/v1_VE250_randls_75_rotated.json,834406,1078611,38,Man
145,903206,DepthScenes,duration_manipulation_targetAtFixation,jsons/v1_VE250_randls_75_rotated.json,http://54.235.29.9/FacialAge/BNav_EC2/DepthDuration/v2_depth_duration_MTurk/v2_DepthDuration_HTML.html#378,378,1536,864,1536,864,9-18-2022,12-23-22,146,depth_duration_stimuli/000677_2014-06-08_23-10-32_260595134347_rgbf000158-resize_6/000677_2014-06-08_23-10-32_260595134347_rgbf000158-resize_6-target.png,250,3.556,4.5,8435,253,feet,jsons/v1_VE250_randls_75_rotated.json,834406,1078611,38,Man
146,903206,DepthScenes,duration_manipulation_targetAtFixation,jsons/v1_VE250_randls_75_rotated.json,http://54.235.29.9/FacialAge/BNav_EC2/DepthDuration/v2_depth_duration_MTurk/v2_DepthDuration_HTML.html#378,378,1536,864,1536,864,9-18-2022,12-23-22,147,depth_duration_stimuli/001029_2014-06-08_13-17-57_260595134347_rgbf000065-resize_1/001029_2014-06-08_13-17-57_260595134347_rgbf000065-resize_1-target.png,250,3.0835,4.25,30908,250,feet,jsons/v1_VE250_randls_75_rotated.json,834406,1078611,38,Man
147,903206,DepthScenes,duration_manipulation_targetAtFixation,jsons/v1_VE250_randls_75_rotated.json,http://54.235.29.9/FacialAge/BNav_EC2/DepthDuration/v2_depth_duration_MTurk/v2_DepthDuration_HTML.html#378,378,1536,864,1536,864,9-18-2022,12-23-22,148,depth_duration_stimuli/002568_2014-06-24_13-59-21_094959634447_rgbf000062-resize_4/002568_2014-06-24_13-59-21_094959634447_rgbf000062-resize_4-target.png,250,3.015,4.0,7197,252,feet,jsons/v1_VE250_randls_75_rotated.json,834406,1078611,38,Man
148,903206,DepthScenes,duration_manipulation_targetAtFixation,jsons/v1_VE250_randls_75_rotated.json,http://54.235.29.9/FacialAge/BNav_EC2/DepthDuration/v2_depth_duration_MTurk/v2_DepthDuration_HTML.html#378,378,1536,864,1536,864,9-18-2022,12-23-22,149,depth_duration_stimuli/003492_2014-05-21_15-50-55_094959634447_rgbf000828-resize_1/003492_2014-05-21_15-50-55_094959634447_rgbf000828-resize_1-target.png,250,4.06875,4.0,3867,250,feet,jsons/v1_VE250_randls_75_rotated.json,834406,1078611,38,Man
149,903206,DepthScenes,duration_manipulation_targetAtFixation,jsons/v1_VE250_randls_75_rotated.json,http://54.235.29.9/FacialAge/BNav_EC2/DepthDuration/v2_depth_duration_MTurk/v2_DepthDuration_HTML.html#378,378,1536,864,1536,864,9-18-2022,12-23-22,150,depth_duration_stimuli/002136_2014-06-25_21-18-03_260595134347_rgbf000109-resize_3/002136_2014-06-25_21-18-03_260595134347_rgbf000109-resize_3-target.png,250,1.9569999999999999,3.0,2569,251,feet,jsons/v1_VE250_randls_75_rotated.json,834406,1078611,38,Man
150,903206,DepthScenes,duration_manipulation_targetAtFixation,jsons/v1_VE250_randls_75_rotated.json,http://54.235.29.9/FacialAge/BNav_EC2/DepthDuration/v2_depth_duration_MTurk/v2_DepthDuration_HTML.html#378,378,1536,864,1536,864,9-18-2022,12-23-22,151,depth_duration_stimuli/002964_2014-06-08_17-46-11_094959634447_rgbf000091-resize_4/002964_2014-06-08_17-46-11_094959634447_rgbf000091-resize_4-target.png,250,1.6909999999999998,3.0,2617,248,feet,jsons/v1_VE250_randls_75_rotated.json,834406,1078611,38,Man
151,903206,DepthScenes,duration_manipulation_targetAtFixation,jsons/v1_VE250_randls_75_rotated.json,http://54.235.29.9/FacialAge/BNav_EC2/DepthDuration/v2_depth_duration_MTurk/v2_DepthDuration_HTML.html#378,378,1536,864,1536,864,9-18-2022,12-23-22,152,depth_duration_stimuli/000569_2014-06-09_22-51-47_260595134347_rgbf000141-resize_3/000569_2014-06-09_22-51-47_260595134347_rgbf000141-resize-original.jpg,250,4.512,0.0,3080,257,feet,jsons/v1_VE250_randls_75_rotated.json,834406,1078611,38,Man
152,903206,DepthScenes,duration_manipulation_targetAtFixation,jsons/v1_VE250_randls_75_rotated.json,http://54.235.29.9/FacialAge/BNav_EC2/DepthDuration/v2_depth_duration_MTurk/v2_DepthDuration_HTML.html#378,378,1536,864,1536,864,9-18-2022,12-23-22,153,depth_duration_stimuli/000409_2014-06-04_19-23-33_260595134347_rgbf000067-resize_0/000409_2014-06-04_19-23-33_260595134347_rgbf000067-resize_0-target.png,250,3.7335,3.0,3046,250,feet,jsons/v1_VE250_randls_75_rotated.json,834406,1078611,38,Man
153,903206,DepthScenes,duration_manipulation_targetAtFixation,jsons/v1_VE250_randls_75_rotated.json,http://54.235.29.9/FacialAge/BNav_EC2/DepthDuration/v2_depth_duration_MTurk/v2_DepthDuration_HTML.html#378,378,1536,864,1536,864,9-18-2022,12-23-22,154,depth_duration_stimuli/002663_2014-06-13_15-50-26_094959634447_rgbf000075-resize_1/002663_2014-06-13_15-50-26_094959634447_rgbf000075-resize_1-target.png,250,4.7495,2.0,3082,260,feet,jsons/v1_VE250_randls_75_rotated.json,834406,1078611,38,Man
154,903206,DepthScenes,duration_manipulation_targetAtFixation,jsons/v1_VE250_randls_75_rotated.json,http://54.235.29.9/FacialAge/BNav_EC2/DepthDuration/v2_depth_duration_MTurk/v2_DepthDuration_HTML.html#378,378,1536,864,1536,864,9-18-2022,12-23-22,155,depth_duration_stimuli/003083_2014-06-15_15-21-03_094959634447_rgbf000063-resize_1/003083_2014-06-15_15-21-03_094959634447_rgbf000063-resize_1-target.png,250,4.1405,6.0,3159,234,feet,jsons/v1_VE250_randls_75_rotated.json,834406,1078611,38,Man
155,903206,DepthScenes,duration_manipulation_targetAtFixation,jsons/v1_VE250_randls_75_rotated.json,http://54.235.29.9/FacialAge/BNav_EC2/DepthDuration/v2_depth_duration_MTurk/v2_DepthDuration_HTML.html#378,378,1536,864,1536,864,9-18-2022,12-23-22,156,depth_duration_stimuli/000486_2014-06-09_20-47-20_260595134347_rgbf000143-resize_2/000486_2014-06-09_20-47-20_260595134347_rgbf000143-resize_2-target.png,250,4.8325,4.0,2536,263,feet,jsons/v1_VE250_randls_75_rotated.json,834406,1078611,38,Man
156,903206,DepthScenes,duration_manipulation_targetAtFixation,jsons/v1_VE250_randls_75_rotated.json,http://54.235.29.9/FacialAge/BNav_EC2/DepthDuration/v2_depth_duration_MTurk/v2_DepthDuration_HTML.html#378,378,1536,864,1536,864,9-18-2022,12-23-22,157,depth_duration_stimuli/002678_2014-06-13_16-15-32_094959634447_rgbf000151-resize_6/002678_2014-06-13_16-15-32_094959634447_rgbf000151-resize_6-target.png,250,2.1830000000000003,8.0,2387,249,feet,jsons/v1_VE250_randls_75_rotated.json,834406,1078611,38,Man
157,903206,DepthScenes,duration_manipulation_targetAtFixation,jsons/v1_VE250_randls_75_rotated.json,http://54.235.29.9/FacialAge/BNav_EC2/DepthDuration/v2_depth_duration_MTurk/v2_DepthDuration_HTML.html#378,378,1536,864,1536,864,9-18-2022,12-23-22,158,depth_duration_stimuli/000368_2014-06-09_15-53-01_260595134347_rgbf000155-resize_2/000368_2014-06-09_15-53-01_260595134347_rgbf000155-resize_2-target.png,250,2.4859999999999998,6.0,2431,250,feet,jsons/v1_VE250_randls_75_rotated.json,834406,1078611,38,Man
158,903206,DepthScenes,duration_manipulation_targetAtFixation,jsons/v1_VE250_randls_75_rotated.json,http://54.235.29.9/FacialAge/BNav_EC2/DepthDuration/v2_depth_duration_MTurk/v2_DepthDuration_HTML.html#378,378,1536,864,1536,864,9-18-2022,12-23-22,159,depth_duration_stimuli/001100_2014-06-15_17-46-26_260595134347_rgbf000225-resize_2/001100_2014-06-15_17-46-26_260595134347_rgbf000225-resize_2-target.png,250,2.24,4.0,3007,264,feet,jsons/v1_VE250_randls_75_rotated.json,834406,1078611,38,Man
159,903206,DepthScenes,duration_manipulation_targetAtFixation,jsons/v1_VE250_randls_75_rotated.json,http://54.235.29.9/FacialAge/BNav_EC2/DepthDuration/v2_depth_duration_MTurk/v2_DepthDuration_HTML.html#378,378,1536,864,1536,864,9-18-2022,12-23-22,160,depth_duration_stimuli/002784_2014-06-22_19-26-30_094959634447_rgbf000083-resize_3/002784_2014-06-22_19-26-30_094959634447_rgbf000083-resize_3-target.png,250,1.8046666666667,1.0,2968,250,feet,jsons/v1_VE250_randls_75_rotated.json,834406,1078611,38,Man
160,903206,DepthScenes,duration_manipulation_targetAtFixation,jsons/v1_VE250_randls_75_rotated.json,http://54.235.29.9/FacialAge/BNav_EC2/DepthDuration/v2_depth_duration_MTurk/v2_DepthDuration_HTML.html#378,378,1536,864,1536,864,9-18-2022,12-23-22,161,depth_duration_stimuli/001392_2014-06-19_16-07-59_260595134347_rgbf000046-resize_1/001392_2014-06-19_16-07-59_260595134347_rgbf000046-resize_1-target.png,250,4.135,4.0,2534,262,feet,jsons/v1_VE250_randls_75_rotated.json,834406,1078611,38,Man
161,903206,DepthScenes,duration_manipulation_targetAtFixation,jsons/v1_VE250_randls_75_rotated.json,http://54.235.29.9/FacialAge/BNav_EC2/DepthDuration/v2_depth_duration_MTurk/v2_DepthDuration_HTML.html#378,378,1536,864,1536,864,9-18-2022,12-23-22,162,depth_duration_stimuli/001570_2014-06-20_17-21-09_260595134347_rgbf000135-resize_4/001570_2014-06-20_17-21-09_260595134347_rgbf000135-resize_4-target.png,250,4.467,6.0,2402,245,feet,jsons/v1_VE250_randls_75_rotated.json,834406,1078611,38,Man
162,903206,DepthScenes,duration_manipulation_targetAtFixation,jsons/v1_VE250_randls_75_rotated.json,http://54.235.29.9/FacialAge/BNav_EC2/DepthDuration/v2_depth_duration_MTurk/v2_DepthDuration_HTML.html#378,378,1536,864,1536,864,9-18-2022,12-23-22,163,depth_duration_stimuli/003079_2014-06-15_15-18-20_094959634447_rgbf000152-resize_8/003079_2014-06-15_15-18-20_094959634447_rgbf000152-resize_8-target.png,250,2.8775,7.0,2988,250,feet,jsons/v1_VE250_randls_75_rotated.json,834406,1078611,38,Man
163,903206,DepthScenes,duration_manipulation_targetAtFixation,jsons/v1_VE250_randls_75_rotated.json,http://54.235.29.9/FacialAge/BNav_EC2/DepthDuration/v2_depth_duration_MTurk/v2_DepthDuration_HTML.html#378,378,1536,864,1536,864,9-18-2022,12-23-22,164,depth_duration_stimuli/000506_2014-06-08_23-21-00_260595134347_rgbf000070-resize_7/000506_2014-06-08_23-21-00_260595134347_rgbf000070-resize_7-target.png,250,4.0585,4.0,4611,250,feet,jsons/v1_VE250_randls_75_rotated.json,834406,1078611,38,Man
