,subjID,experimentName,versionName,sequenceName,url,selected_row,windowWidth,windowHeight,screenWidth,screenHeight,startDate,startTime,trial,stimulus,duration,actual_depth,depth_estimate,trial_RT,log_sceneDuration,unitSelection,seq_filepath,experimentTime,totalTime,age,gender
0,905663,DepthScenes,duration_manipulation_targetAtFixation,jsons/v1_VE1000_randls_30.json,http://54.235.29.9/FacialAge/BNav_EC2/DepthDuration/v2_depth_duration_MTurk/v2_DepthDuration_HTML.html#236,236,1366,625,1366,768,9-3-2022,10-19-49,1,depth_duration_stimuli/002570_2014-06-24_13-59-54_094959634447_rgbf000059-resize_0/002570_2014-06-24_13-59-54_094959634447_rgbf000059-resize_0-target.png,1000,4.037,1,5126,1006,meters,jsons/v1_VE1000_randls_30.json,1417622,1596043,40,Man
1,905663,DepthScenes,duration_manipulation_targetAtFixation,jsons/v1_VE1000_randls_30.json,http://54.235.29.9/FacialAge/BNav_EC2/DepthDuration/v2_depth_duration_MTurk/v2_DepthDuration_HTML.html#236,236,1366,625,1366,768,9-3-2022,10-19-49,2,depth_duration_stimuli/002467_2014-06-28_20-38-07_260595134347_rgbf000026-resize_2/002467_2014-06-28_20-38-07_260595134347_rgbf000026-resize_2-target.png,1000,4.742,2,4506,1004,meters,jsons/v1_VE1000_randls_30.json,1417622,1596043,40,Man
2,905663,DepthScenes,duration_manipulation_targetAtFixation,jsons/v1_VE1000_randls_30.json,http://54.235.29.9/FacialAge/BNav_EC2/DepthDuration/v2_depth_duration_MTurk/v2_DepthDuration_HTML.html#236,236,1366,625,1366,768,9-3-2022,10-19-49,3,depth_duration_stimuli/000506_2014-06-08_23-21-00_260595134347_rgbf000070-resize_7/000506_2014-06-08_23-21-00_260595134347_rgbf000070-resize_7-target.png,1000,4.0585,1,4619,979,meters,jsons/v1_VE1000_randls_30.json,1417622,1596043,40,Man
3,905663,DepthScenes,duration_manipulation_targetAtFixation,jsons/v1_VE1000_randls_30.json,http://54.235.29.9/FacialAge/BNav_EC2/DepthDuration/v2_depth_duration_MTurk/v2_DepthDuration_HTML.html#236,236,1366,625,1366,768,9-3-2022,10-19-49,4,depth_duration_stimuli/003079_2014-06-15_15-18-20_094959634447_rgbf000152-resize_8/003079_2014-06-15_15-18-20_094959634447_rgbf000152-resize_8-target.png,1000,2.8775,2,4164,998,meters,jsons/v1_VE1000_randls_30.json,1417622,1596043,40,Man
4,905663,DepthScenes,duration_manipulation_targetAtFixation,jsons/v1_VE1000_randls_30.json,http://54.235.29.9/FacialAge/BNav_EC2/DepthDuration/v2_depth_duration_MTurk/v2_DepthDuration_HTML.html#236,236,1366,625,1366,768,9-3-2022,10-19-49,5,depth_duration_stimuli/001806_2014-06-26_20-50-20_260595134347_rgbf000091-resize_1/001806_2014-06-26_20-50-20_260595134347_rgbf000091-resize_1-target.png,1000,2.7305,1,4878,1017,meters,jsons/v1_VE1000_randls_30.json,1417622,1596043,40,Man
5,905663,DepthScenes,duration_manipulation_targetAtFixation,jsons/v1_VE1000_randls_30.json,http://54.235.29.9/FacialAge/BNav_EC2/DepthDuration/v2_depth_duration_MTurk/v2_DepthDuration_HTML.html#236,236,1366,625,1366,768,9-3-2022,10-19-49,6,depth_duration_stimuli/001617_2014-06-20_11-35-32_260595134347_rgbf000066-resize_1/001617_2014-06-20_11-35-32_260595134347_rgbf000066-resize_1-target.png,1000,3.7910000000000004,1,5181,982,meters,jsons/v1_VE1000_randls_30.json,1417622,1596043,40,Man
6,905663,DepthScenes,duration_manipulation_targetAtFixation,jsons/v1_VE1000_randls_30.json,http://54.235.29.9/FacialAge/BNav_EC2/DepthDuration/v2_depth_duration_MTurk/v2_DepthDuration_HTML.html#236,236,1366,625,1366,768,9-3-2022,10-19-49,7,depth_duration_stimuli/001164_2014-06-17_15-35-46_260595134347_rgbf000085-resize_3/001164_2014-06-17_15-35-46_260595134347_rgbf000085-resize_3-target.png,1000,2.354,1,4916,995,meters,jsons/v1_VE1000_randls_30.json,1417622,1596043,40,Man
7,905663,DepthScenes,duration_manipulation_targetAtFixation,jsons/v1_VE1000_randls_30.json,http://54.235.29.9/FacialAge/BNav_EC2/DepthDuration/v2_depth_duration_MTurk/v2_DepthDuration_HTML.html#236,236,1366,625,1366,768,9-3-2022,10-19-49,8,depth_duration_stimuli/001136_2014-06-17_15-19-41_260595134347_rgbf000076-resize_3/001136_2014-06-17_15-19-41_260595134347_rgbf000076-resize_3-target.png,1000,1.8655,1,4645,998,meters,jsons/v1_VE1000_randls_30.json,1417622,1596043,40,Man
8,905663,DepthScenes,duration_manipulation_targetAtFixation,jsons/v1_VE1000_randls_30.json,http://54.235.29.9/FacialAge/BNav_EC2/DepthDuration/v2_depth_duration_MTurk/v2_DepthDuration_HTML.html#236,236,1366,625,1366,768,9-3-2022,10-19-49,9,depth_duration_stimuli/001059_2014-06-08_21-53-27_260595134347_rgbf000061-resize_4/001059_2014-06-08_21-53-27_260595134347_rgbf000061-resize_4-target.png,1000,2.4185,2,5139,996,meters,jsons/v1_VE1000_randls_30.json,1417622,1596043,40,Man
9,905663,DepthScenes,duration_manipulation_targetAtFixation,jsons/v1_VE1000_randls_30.json,http://54.235.29.9/FacialAge/BNav_EC2/DepthDuration/v2_depth_duration_MTurk/v2_DepthDuration_HTML.html#236,236,1366,625,1366,768,9-3-2022,10-19-49,10,depth_duration_stimuli/001032_2014-06-08_13-23-17_260595134347_rgbf000021-resize_3/001032_2014-06-08_13-23-17_260595134347_rgbf000021-resize_3-target.png,1000,3.2725,1,3833,997,meters,jsons/v1_VE1000_randls_30.json,1417622,1596043,40,Man
10,905663,DepthScenes,duration_manipulation_targetAtFixation,jsons/v1_VE1000_randls_30.json,http://54.235.29.9/FacialAge/BNav_EC2/DepthDuration/v2_depth_duration_MTurk/v2_DepthDuration_HTML.html#236,236,1366,625,1366,768,9-3-2022,10-19-49,11,depth_duration_stimuli/002279_2014-06-28_18-55-32_260595134347_rgbf000040-resize_5/002279_2014-06-28_18-55-32_260595134347_rgbf000040-resize_5-target.png,1000,1.5043333333333,1,4422,992,meters,jsons/v1_VE1000_randls_30.json,1417622,1596043,40,Man
11,905663,DepthScenes,duration_manipulation_targetAtFixation,jsons/v1_VE1000_randls_30.json,http://54.235.29.9/FacialAge/BNav_EC2/DepthDuration/v2_depth_duration_MTurk/v2_DepthDuration_HTML.html#236,236,1366,625,1366,768,9-3-2022,10-19-49,12,depth_duration_stimuli/000635_2014-06-08_16-38-42_260595134347_rgbf000106-resize_1/000635_2014-06-08_16-38-42_260595134347_rgbf000106-resize_1-target.png,1000,2.074,1,3724,982,meters,jsons/v1_VE1000_randls_30.json,1417622,1596043,40,Man
12,905663,DepthScenes,duration_manipulation_targetAtFixation,jsons/v1_VE1000_randls_30.json,http://54.235.29.9/FacialAge/BNav_EC2/DepthDuration/v2_depth_duration_MTurk/v2_DepthDuration_HTML.html#236,236,1366,625,1366,768,9-3-2022,10-19-49,13,depth_duration_stimuli/000569_2014-06-09_22-51-47_260595134347_rgbf000141-resize_3/000569_2014-06-09_22-51-47_260595134347_rgbf000141-resize-original.jpg,1000,4.512,0,8766,1020,meters,jsons/v1_VE1000_randls_30.json,1417622,1596043,40,Man
13,905663,DepthScenes,duration_manipulation_targetAtFixation,jsons/v1_VE1000_randls_30.json,http://54.235.29.9/FacialAge/BNav_EC2/DepthDuration/v2_depth_duration_MTurk/v2_DepthDuration_HTML.html#236,236,1366,625,1366,768,9-3-2022,10-19-49,14,depth_duration_stimuli/000470_2014-06-09_19-42-40_260595134347_rgbf000094-resize_1/000470_2014-06-09_19-42-40_260595134347_rgbf000094-resize_1-target.png,1000,1.831,1,5056,996,meters,jsons/v1_VE1000_randls_30.json,1417622,1596043,40,Man
14,905663,DepthScenes,duration_manipulation_targetAtFixation,jsons/v1_VE1000_randls_30.json,http://54.235.29.9/FacialAge/BNav_EC2/DepthDuration/v2_depth_duration_MTurk/v2_DepthDuration_HTML.html#236,236,1366,625,1366,768,9-3-2022,10-19-49,15,depth_duration_stimuli/000109_2014-05-14_23-41-52_260595134347_rgbf000035-resize_9/000109_2014-05-14_23-41-52_260595134347_rgbf000035-resize_9-target.png,1000,1.3545,1,4289,985,meters,jsons/v1_VE1000_randls_30.json,1417622,1596043,40,Man
15,905663,DepthScenes,duration_manipulation_targetAtFixation,jsons/v1_VE1000_randls_30.json,http://54.235.29.9/FacialAge/BNav_EC2/DepthDuration/v2_depth_duration_MTurk/v2_DepthDuration_HTML.html#236,236,1366,625,1366,768,9-3-2022,10-19-49,16,depth_duration_stimuli/000692_2014-06-08_13-09-42_260595134347_rgbf000199-resize_2/000692_2014-06-08_13-09-42_260595134347_rgbf000199-resize_2-target.png,1000,3.661,1,4639,998,meters,jsons/v1_VE1000_randls_30.json,1417622,1596043,40,Man
16,905663,DepthScenes,duration_manipulation_targetAtFixation,jsons/v1_VE1000_randls_30.json,http://54.235.29.9/FacialAge/BNav_EC2/DepthDuration/v2_depth_duration_MTurk/v2_DepthDuration_HTML.html#236,236,1366,625,1366,768,9-3-2022,10-19-49,17,depth_duration_stimuli/001094_2014-06-15_17-36-00_260595134347_rgbf000205-resize_0/001094_2014-06-15_17-36-00_260595134347_rgbf000205-resize_0-target.png,1000,4.2175,1,4371,979,meters,jsons/v1_VE1000_randls_30.json,1417622,1596043,40,Man
17,905663,DepthScenes,duration_manipulation_targetAtFixation,jsons/v1_VE1000_randls_30.json,http://54.235.29.9/FacialAge/BNav_EC2/DepthDuration/v2_depth_duration_MTurk/v2_DepthDuration_HTML.html#236,236,1366,625,1366,768,9-3-2022,10-19-49,18,depth_duration_stimuli/002988_2014-06-15_12-24-20_094959634447_rgbf000150-resize_1/002988_2014-06-15_12-24-20_094959634447_rgbf000150-resize_1-target.png,1000,4.7669999999999995,1,3877,996,meters,jsons/v1_VE1000_randls_30.json,1417622,1596043,40,Man
18,905663,DepthScenes,duration_manipulation_targetAtFixation,jsons/v1_VE1000_randls_30.json,http://54.235.29.9/FacialAge/BNav_EC2/DepthDuration/v2_depth_duration_MTurk/v2_DepthDuration_HTML.html#236,236,1366,625,1366,768,9-3-2022,10-19-49,19,depth_duration_stimuli/001052_2014-06-08_18-24-54_260595134347_rgbf000130-resize_1/001052_2014-06-08_18-24-54_260595134347_rgbf000130-resize_1-target.png,1000,4.1045,1,3869,984,meters,jsons/v1_VE1000_randls_30.json,1417622,1596043,40,Man
19,905663,DepthScenes,duration_manipulation_targetAtFixation,jsons/v1_VE1000_randls_30.json,http://54.235.29.9/FacialAge/BNav_EC2/DepthDuration/v2_depth_duration_MTurk/v2_DepthDuration_HTML.html#236,236,1366,625,1366,768,9-3-2022,10-19-49,20,depth_duration_stimuli/003621_2014-05-23_18-06-08_094959634447_rgbf000101-resize_1/003621_2014-05-23_18-06-08_094959634447_rgbf000101-resize_1-target.png,1000,3.9835,1,5045,993,meters,jsons/v1_VE1000_randls_30.json,1417622,1596043,40,Man
20,905663,DepthScenes,duration_manipulation_targetAtFixation,jsons/v1_VE1000_randls_30.json,http://54.235.29.9/FacialAge/BNav_EC2/DepthDuration/v2_depth_duration_MTurk/v2_DepthDuration_HTML.html#236,236,1366,625,1366,768,9-3-2022,10-19-49,21,depth_duration_stimuli/001584_2014-06-20_11-07-43_260595134347_rgbf000002-resize_1/001584_2014-06-20_11-07-43_260595134347_rgbf000002-resize_1-target.png,1000,3.53,2,4619,999,meters,jsons/v1_VE1000_randls_30.json,1417622,1596043,40,Man
21,905663,DepthScenes,duration_manipulation_targetAtFixation,jsons/v1_VE1000_randls_30.json,http://54.235.29.9/FacialAge/BNav_EC2/DepthDuration/v2_depth_duration_MTurk/v2_DepthDuration_HTML.html#236,236,1366,625,1366,768,9-3-2022,10-19-49,22,depth_duration_stimuli/001555_2014-06-20_17-12-10_260595134347_rgbf000065-resize_4/001555_2014-06-20_17-12-10_260595134347_rgbf000065-resize_4-target.png,1000,1.633,5,8525,998,meters,jsons/v1_VE1000_randls_30.json,1417622,1596043,40,Man
22,905663,DepthScenes,duration_manipulation_targetAtFixation,jsons/v1_VE1000_randls_30.json,http://54.235.29.9/FacialAge/BNav_EC2/DepthDuration/v2_depth_duration_MTurk/v2_DepthDuration_HTML.html#236,236,1366,625,1366,768,9-3-2022,10-19-49,23,depth_duration_stimuli/000103_2014-05-14_22-01-17_260595134347_rgbf000152-resize_5/000103_2014-05-14_22-01-17_260595134347_rgbf000152-resize_5-target.png,1000,1.993,3,5360,994,meters,jsons/v1_VE1000_randls_30.json,1417622,1596043,40,Man
23,905663,DepthScenes,duration_manipulation_targetAtFixation,jsons/v1_VE1000_randls_30.json,http://54.235.29.9/FacialAge/BNav_EC2/DepthDuration/v2_depth_duration_MTurk/v2_DepthDuration_HTML.html#236,236,1366,625,1366,768,9-3-2022,10-19-49,24,depth_duration_stimuli/001133_2014-06-17_14-49-16_260595134347_rgbf000100-resize_0/001133_2014-06-17_14-49-16_260595134347_rgbf000100-resize_0-target.png,1000,4.2115,4,5139,1011,meters,jsons/v1_VE1000_randls_30.json,1417622,1596043,40,Man
24,905663,DepthScenes,duration_manipulation_targetAtFixation,jsons/v1_VE1000_randls_30.json,http://54.235.29.9/FacialAge/BNav_EC2/DepthDuration/v2_depth_duration_MTurk/v2_DepthDuration_HTML.html#236,236,1366,625,1366,768,9-3-2022,10-19-49,25,depth_duration_stimuli/001132_2014-06-17_14-48-54_260595134347_rgbf000100-resize_2/001132_2014-06-17_14-48-54_260595134347_rgbf000100-resize_2-target.png,1000,3.753,2,4415,1010,meters,jsons/v1_VE1000_randls_30.json,1417622,1596043,40,Man
25,905663,DepthScenes,duration_manipulation_targetAtFixation,jsons/v1_VE1000_randls_30.json,http://54.235.29.9/FacialAge/BNav_EC2/DepthDuration/v2_depth_duration_MTurk/v2_DepthDuration_HTML.html#236,236,1366,625,1366,768,9-3-2022,10-19-49,26,depth_duration_stimuli/000436_2014-06-09_22-25-11_260595134347_rgbf000137-resize_1/000436_2014-06-09_22-25-11_260595134347_rgbf000137-resize_1-target.png,1000,4.0705,1,9896,969,meters,jsons/v1_VE1000_randls_30.json,1417622,1596043,40,Man
26,905663,DepthScenes,duration_manipulation_targetAtFixation,jsons/v1_VE1000_randls_30.json,http://54.235.29.9/FacialAge/BNav_EC2/DepthDuration/v2_depth_duration_MTurk/v2_DepthDuration_HTML.html#236,236,1366,625,1366,768,9-3-2022,10-19-49,27,depth_duration_stimuli/002444_2014-06-28_20-32-08_260595134347_rgbf000027-resize_0/002444_2014-06-28_20-32-08_260595134347_rgbf000027-resize_0-target.png,1000,4.388999999999999,1,3794,1001,meters,jsons/v1_VE1000_randls_30.json,1417622,1596043,40,Man
27,905663,DepthScenes,duration_manipulation_targetAtFixation,jsons/v1_VE1000_randls_30.json,http://54.235.29.9/FacialAge/BNav_EC2/DepthDuration/v2_depth_duration_MTurk/v2_DepthDuration_HTML.html#236,236,1366,625,1366,768,9-3-2022,10-19-49,28,depth_duration_stimuli/002630_2014-06-24_14-47-50_094959634447_rgbf000055-resize_1/002630_2014-06-24_14-47-50_094959634447_rgbf000055-resize_1-target.png,1000,3.0095,1,3855,1001,meters,jsons/v1_VE1000_randls_30.json,1417622,1596043,40,Man
28,905663,DepthScenes,duration_manipulation_targetAtFixation,jsons/v1_VE1000_randls_30.json,http://54.235.29.9/FacialAge/BNav_EC2/DepthDuration/v2_depth_duration_MTurk/v2_DepthDuration_HTML.html#236,236,1366,625,1366,768,9-3-2022,10-19-49,29,depth_duration_stimuli/002758_2014-06-22_19-11-20_094959634447_rgbf000128-resize_1/002758_2014-06-22_19-11-20_094959634447_rgbf000128-resize_1-target.png,1000,2.555,1,3936,995,meters,jsons/v1_VE1000_randls_30.json,1417622,1596043,40,Man
29,905663,DepthScenes,duration_manipulation_targetAtFixation,jsons/v1_VE1000_randls_30.json,http://54.235.29.9/FacialAge/BNav_EC2/DepthDuration/v2_depth_duration_MTurk/v2_DepthDuration_HTML.html#236,236,1366,625,1366,768,9-3-2022,10-19-49,30,depth_duration_stimuli/000375_2014-06-08_11-17-29_260595134347_rgbf000133-resize_2/000375_2014-06-08_11-17-29_260595134347_rgbf000133-resize-original.jpg,1000,4.718,1,7802,998,meters,jsons/v1_VE1000_randls_30.json,1417622,1596043,40,Man
30,905663,DepthScenes,duration_manipulation_targetAtFixation,jsons/v1_VE1000_randls_30.json,http://54.235.29.9/FacialAge/BNav_EC2/DepthDuration/v2_depth_duration_MTurk/v2_DepthDuration_HTML.html#236,236,1366,625,1366,768,9-3-2022,10-19-49,31,depth_duration_stimuli/001150_2014-06-17_15-27-34_260595134347_rgbf000108-resize_2/001150_2014-06-17_15-27-34_260595134347_rgbf000108-resize_2-target.png,1000,4.0325,1,5991,998,meters,jsons/v1_VE1000_randls_30.json,1417622,1596043,40,Man
31,905663,DepthScenes,duration_manipulation_targetAtFixation,jsons/v1_VE1000_randls_30.json,http://54.235.29.9/FacialAge/BNav_EC2/DepthDuration/v2_depth_duration_MTurk/v2_DepthDuration_HTML.html#236,236,1366,625,1366,768,9-3-2022,10-19-49,32,depth_duration_stimuli/000665_2014-06-09_20-42-35_260595134347_rgbf000110-resize_1/000665_2014-06-09_20-42-35_260595134347_rgbf000110-resize_1-target.png,1000,3.057,1,5282,996,meters,jsons/v1_VE1000_randls_30.json,1417622,1596043,40,Man
32,905663,DepthScenes,duration_manipulation_targetAtFixation,jsons/v1_VE1000_randls_30.json,http://54.235.29.9/FacialAge/BNav_EC2/DepthDuration/v2_depth_duration_MTurk/v2_DepthDuration_HTML.html#236,236,1366,625,1366,768,9-3-2022,10-19-49,33,depth_duration_stimuli/002039_2014-06-24_20-22-38_260595134347_rgbf000084-resize_1/002039_2014-06-24_20-22-38_260595134347_rgbf000084-resize_1-target.png,1000,4.408,2,5151,971,meters,jsons/v1_VE1000_randls_30.json,1417622,1596043,40,Man
33,905663,DepthScenes,duration_manipulation_targetAtFixation,jsons/v1_VE1000_randls_30.json,http://54.235.29.9/FacialAge/BNav_EC2/DepthDuration/v2_depth_duration_MTurk/v2_DepthDuration_HTML.html#236,236,1366,625,1366,768,9-3-2022,10-19-49,34,depth_duration_stimuli/002103_2014-06-25_20-00-40_260595134347_rgbf000049-resize_0/002103_2014-06-25_20-00-40_260595134347_rgbf000049-resize_0-target.png,1000,4.105,2,4850,998,meters,jsons/v1_VE1000_randls_30.json,1417622,1596043,40,Man
34,905663,DepthScenes,duration_manipulation_targetAtFixation,jsons/v1_VE1000_randls_30.json,http://54.235.29.9/FacialAge/BNav_EC2/DepthDuration/v2_depth_duration_MTurk/v2_DepthDuration_HTML.html#236,236,1366,625,1366,768,9-3-2022,10-19-49,35,depth_duration_stimuli/002725_2014-06-22_11-47-51_094959634447_rgbf000070-resize_1/002725_2014-06-22_11-47-51_094959634447_rgbf000070-resize_1-target.png,1000,2.195,2,43142,998,meters,jsons/v1_VE1000_randls_30.json,1417622,1596043,40,Man
35,905663,DepthScenes,duration_manipulation_targetAtFixation,jsons/v1_VE1000_randls_30.json,http://54.235.29.9/FacialAge/BNav_EC2/DepthDuration/v2_depth_duration_MTurk/v2_DepthDuration_HTML.html#236,236,1366,625,1366,768,9-3-2022,10-19-49,36,depth_duration_stimuli/002344_2014-06-28_20-06-29_260595134347_rgbf000030-resize_1/002344_2014-06-28_20-06-29_260595134347_rgbf000030-resize_1-target.png,1000,1.5795,1,13238,991,meters,jsons/v1_VE1000_randls_30.json,1417622,1596043,40,Man
36,905663,DepthScenes,duration_manipulation_targetAtFixation,jsons/v1_VE1000_randls_30.json,http://54.235.29.9/FacialAge/BNav_EC2/DepthDuration/v2_depth_duration_MTurk/v2_DepthDuration_HTML.html#236,236,1366,625,1366,768,9-3-2022,10-19-49,37,depth_duration_stimuli/002153_2014-06-25_21-27-18_260595134347_rgbf000038-resize_5/002153_2014-06-25_21-27-18_260595134347_rgbf000038-resize_5-target.png,1000,2.505,2,6517,983,meters,jsons/v1_VE1000_randls_30.json,1417622,1596043,40,Man
37,905663,DepthScenes,duration_manipulation_targetAtFixation,jsons/v1_VE1000_randls_30.json,http://54.235.29.9/FacialAge/BNav_EC2/DepthDuration/v2_depth_duration_MTurk/v2_DepthDuration_HTML.html#236,236,1366,625,1366,768,9-3-2022,10-19-49,38,depth_duration_stimuli/002660_2014-06-13_15-44-18_094959634447_rgbf001878-resize_2/002660_2014-06-13_15-44-18_094959634447_rgbf001878-resize_2-target.png,1000,3.576,2,4418,1045,meters,jsons/v1_VE1000_randls_30.json,1417622,1596043,40,Man
38,905663,DepthScenes,duration_manipulation_targetAtFixation,jsons/v1_VE1000_randls_30.json,http://54.235.29.9/FacialAge/BNav_EC2/DepthDuration/v2_depth_duration_MTurk/v2_DepthDuration_HTML.html#236,236,1366,625,1366,768,9-3-2022,10-19-49,39,depth_duration_stimuli/002763_2014-06-22_19-13-10_094959634447_rgbf000075-resize_4/002763_2014-06-22_19-13-10_094959634447_rgbf000075-resize_4-target.png,1000,1.68375,1,4962,997,meters,jsons/v1_VE1000_randls_30.json,1417622,1596043,40,Man
39,905663,DepthScenes,duration_manipulation_targetAtFixation,jsons/v1_VE1000_randls_30.json,http://54.235.29.9/FacialAge/BNav_EC2/DepthDuration/v2_depth_duration_MTurk/v2_DepthDuration_HTML.html#236,236,1366,625,1366,768,9-3-2022,10-19-49,40,depth_duration_stimuli/002209_2014-06-28_18-36-10_260595134347_rgbf000051-resize_1/002209_2014-06-28_18-36-10_260595134347_rgbf000051-resize_1-target.png,1000,2.057,1,5411,992,meters,jsons/v1_VE1000_randls_30.json,1417622,1596043,40,Man
40,905663,DepthScenes,duration_manipulation_targetAtFixation,jsons/v1_VE1000_randls_30.json,http://54.235.29.9/FacialAge/BNav_EC2/DepthDuration/v2_depth_duration_MTurk/v2_DepthDuration_HTML.html#236,236,1366,625,1366,768,9-3-2022,10-19-49,41,depth_duration_stimuli/001011_2014-06-08_23-18-54_260595134347_rgbf000044-resize_4/001011_2014-06-08_23-18-54_260595134347_rgbf000044-resize_4-target.png,1000,2.4730000000000003,2,38756,994,meters,jsons/v1_VE1000_randls_30.json,1417622,1596043,40,Man
41,905663,DepthScenes,duration_manipulation_targetAtFixation,jsons/v1_VE1000_randls_30.json,http://54.235.29.9/FacialAge/BNav_EC2/DepthDuration/v2_depth_duration_MTurk/v2_DepthDuration_HTML.html#236,236,1366,625,1366,768,9-3-2022,10-19-49,42,depth_duration_stimuli/002875_2014-06-01_15-19-00_094959634447_rgbf000151-resize_1/002875_2014-06-01_15-19-00_094959634447_rgbf000151-resize_1-target.png,1000,1.9675,1,6572,1007,meters,jsons/v1_VE1000_randls_30.json,1417622,1596043,40,Man
42,905663,DepthScenes,duration_manipulation_targetAtFixation,jsons/v1_VE1000_randls_30.json,http://54.235.29.9/FacialAge/BNav_EC2/DepthDuration/v2_depth_duration_MTurk/v2_DepthDuration_HTML.html#236,236,1366,625,1366,768,9-3-2022,10-19-49,43,depth_duration_stimuli/003292_2014-05-14_21-53-49_094959634447_rgbf000100-resize_2/003292_2014-05-14_21-53-49_094959634447_rgbf000100-resize_2-target.png,1000,3.4815,2,10534,998,meters,jsons/v1_VE1000_randls_30.json,1417622,1596043,40,Man
43,905663,DepthScenes,duration_manipulation_targetAtFixation,jsons/v1_VE1000_randls_30.json,http://54.235.29.9/FacialAge/BNav_EC2/DepthDuration/v2_depth_duration_MTurk/v2_DepthDuration_HTML.html#236,236,1366,625,1366,768,9-3-2022,10-19-49,44,depth_duration_stimuli/002639_2014-06-24_14-51-37_094959634447_rgbf000074-resize_4/002639_2014-06-24_14-51-37_094959634447_rgbf000074-resize_4-target.png,1000,4.0375,1,6131,1013,meters,jsons/v1_VE1000_randls_30.json,1417622,1596043,40,Man
44,905663,DepthScenes,duration_manipulation_targetAtFixation,jsons/v1_VE1000_randls_30.json,http://54.235.29.9/FacialAge/BNav_EC2/DepthDuration/v2_depth_duration_MTurk/v2_DepthDuration_HTML.html#236,236,1366,625,1366,768,9-3-2022,10-19-49,45,depth_duration_stimuli/000787_2014-06-08_22-33-53_260595134347_rgbf000175-resize_1/000787_2014-06-08_22-33-53_260595134347_rgbf000175-resize-original.jpg,1000,4.784,3,6145,998,meters,jsons/v1_VE1000_randls_30.json,1417622,1596043,40,Man
45,905663,DepthScenes,duration_manipulation_targetAtFixation,jsons/v1_VE1000_randls_30.json,http://54.235.29.9/FacialAge/BNav_EC2/DepthDuration/v2_depth_duration_MTurk/v2_DepthDuration_HTML.html#236,236,1366,625,1366,768,9-3-2022,10-19-49,46,depth_duration_stimuli/001055_2014-06-08_18-45-35_260595134347_rgbf000111-resize_4/001055_2014-06-08_18-45-35_260595134347_rgbf000111-resize_4-target.png,1000,2.4290000000000003,1,7382,998,meters,jsons/v1_VE1000_randls_30.json,1417622,1596043,40,Man
46,905663,DepthScenes,duration_manipulation_targetAtFixation,jsons/v1_VE1000_randls_30.json,http://54.235.29.9/FacialAge/BNav_EC2/DepthDuration/v2_depth_duration_MTurk/v2_DepthDuration_HTML.html#236,236,1366,625,1366,768,9-3-2022,10-19-49,47,depth_duration_stimuli/000549_2014-06-08_22-10-24_260595134347_rgbf000247-resize_3/000549_2014-06-08_22-10-24_260595134347_rgbf000247-resize_3-target.png,1000,1.841,2,19317,1000,meters,jsons/v1_VE1000_randls_30.json,1417622,1596043,40,Man
47,905663,DepthScenes,duration_manipulation_targetAtFixation,jsons/v1_VE1000_randls_30.json,http://54.235.29.9/FacialAge/BNav_EC2/DepthDuration/v2_depth_duration_MTurk/v2_DepthDuration_HTML.html#236,236,1366,625,1366,768,9-3-2022,10-19-49,48,depth_duration_stimuli/001810_2014-06-26_20-51-35_260595134347_rgbf000040-resize_3/001810_2014-06-26_20-51-35_260595134347_rgbf000040-resize_3-target.png,1000,2.2525,2,15072,992,meters,jsons/v1_VE1000_randls_30.json,1417622,1596043,40,Man
48,905663,DepthScenes,duration_manipulation_targetAtFixation,jsons/v1_VE1000_randls_30.json,http://54.235.29.9/FacialAge/BNav_EC2/DepthDuration/v2_depth_duration_MTurk/v2_DepthDuration_HTML.html#236,236,1366,625,1366,768,9-3-2022,10-19-49,49,depth_duration_stimuli/003010_2014-06-15_12-54-35_094959634447_rgbf000112-resize_0/003010_2014-06-15_12-54-35_094959634447_rgbf000112-resize_0-target.png,1000,3.1185,3,9303,1004,meters,jsons/v1_VE1000_randls_30.json,1417622,1596043,40,Man
49,905663,DepthScenes,duration_manipulation_targetAtFixation,jsons/v1_VE1000_randls_30.json,http://54.235.29.9/FacialAge/BNav_EC2/DepthDuration/v2_depth_duration_MTurk/v2_DepthDuration_HTML.html#236,236,1366,625,1366,768,9-3-2022,10-19-49,50,depth_duration_stimuli/002509_2014-06-24_13-19-22_094959634447_rgbf000077-resize_0/002509_2014-06-24_13-19-22_094959634447_rgbf000077-resize_0-target.png,1000,1.3065,2,6655,1008,meters,jsons/v1_VE1000_randls_30.json,1417622,1596043,40,Man
50,905663,DepthScenes,duration_manipulation_targetAtFixation,jsons/v1_VE1000_randls_30.json,http://54.235.29.9/FacialAge/BNav_EC2/DepthDuration/v2_depth_duration_MTurk/v2_DepthDuration_HTML.html#236,236,1366,625,1366,768,9-3-2022,10-19-49,51,depth_duration_stimuli/003338_2014-05-20_11-01-23_094959634447_rgbf000051-resize_6/003338_2014-05-20_11-01-23_094959634447_rgbf000051-resize_6-target.png,1000,1.693,2,9323,961,meters,jsons/v1_VE1000_randls_30.json,1417622,1596043,40,Man
51,905663,DepthScenes,duration_manipulation_targetAtFixation,jsons/v1_VE1000_randls_30.json,http://54.235.29.9/FacialAge/BNav_EC2/DepthDuration/v2_depth_duration_MTurk/v2_DepthDuration_HTML.html#236,236,1366,625,1366,768,9-3-2022,10-19-49,52,depth_duration_stimuli/000736_2014-06-08_18-24-15_260595134347_rgbf000206-resize_3/000736_2014-06-08_18-24-15_260595134347_rgbf000206-resize_3-target.png,1000,3.515,1,5910,1001,meters,jsons/v1_VE1000_randls_30.json,1417622,1596043,40,Man
52,905663,DepthScenes,duration_manipulation_targetAtFixation,jsons/v1_VE1000_randls_30.json,http://54.235.29.9/FacialAge/BNav_EC2/DepthDuration/v2_depth_duration_MTurk/v2_DepthDuration_HTML.html#236,236,1366,625,1366,768,9-3-2022,10-19-49,53,depth_duration_stimuli/000137_2014-05-20_17-04-49_260595134347_rgbf000120-resize_1/000137_2014-05-20_17-04-49_260595134347_rgbf000120-resize_1-target.png,1000,3.786,3,5538,999,meters,jsons/v1_VE1000_randls_30.json,1417622,1596043,40,Man
53,905663,DepthScenes,duration_manipulation_targetAtFixation,jsons/v1_VE1000_randls_30.json,http://54.235.29.9/FacialAge/BNav_EC2/DepthDuration/v2_depth_duration_MTurk/v2_DepthDuration_HTML.html#236,236,1366,625,1366,768,9-3-2022,10-19-49,54,depth_duration_stimuli/002057_2014-06-24_21-00-13_260595134347_rgbf000120-resize_1/002057_2014-06-24_21-00-13_260595134347_rgbf000120-resize_1-target.png,1000,2.967,2,5921,1024,meters,jsons/v1_VE1000_randls_30.json,1417622,1596043,40,Man
54,905663,DepthScenes,duration_manipulation_targetAtFixation,jsons/v1_VE1000_randls_30.json,http://54.235.29.9/FacialAge/BNav_EC2/DepthDuration/v2_depth_duration_MTurk/v2_DepthDuration_HTML.html#236,236,1366,625,1366,768,9-3-2022,10-19-49,55,depth_duration_stimuli/000709_2014-06-08_13-51-55_260595134347_rgbf000068-resize_3/000709_2014-06-08_13-51-55_260595134347_rgbf000068-resize_3-target.png,1000,1.8030000000000002,3,11934,995,meters,jsons/v1_VE1000_randls_30.json,1417622,1596043,40,Man
55,905663,DepthScenes,duration_manipulation_targetAtFixation,jsons/v1_VE1000_randls_30.json,http://54.235.29.9/FacialAge/BNav_EC2/DepthDuration/v2_depth_duration_MTurk/v2_DepthDuration_HTML.html#236,236,1366,625,1366,768,9-3-2022,10-19-49,56,depth_duration_stimuli/000682_2014-06-08_23-14-58_260595134347_rgbf000041-resize_5/000682_2014-06-08_23-14-58_260595134347_rgbf000041-resize_5-target.png,1000,2.7239999999999998,2,5507,1006,meters,jsons/v1_VE1000_randls_30.json,1417622,1596043,40,Man
56,905663,DepthScenes,duration_manipulation_targetAtFixation,jsons/v1_VE1000_randls_30.json,http://54.235.29.9/FacialAge/BNav_EC2/DepthDuration/v2_depth_duration_MTurk/v2_DepthDuration_HTML.html#236,236,1366,625,1366,768,9-3-2022,10-19-49,57,depth_duration_stimuli/001650_2014-06-20_12-09-00_260595134347_rgbf000087-resize_3/001650_2014-06-20_12-09-00_260595134347_rgbf000087-resize_3-target.png,1000,1.9505,2,4764,993,meters,jsons/v1_VE1000_randls_30.json,1417622,1596043,40,Man
57,905663,DepthScenes,duration_manipulation_targetAtFixation,jsons/v1_VE1000_randls_30.json,http://54.235.29.9/FacialAge/BNav_EC2/DepthDuration/v2_depth_duration_MTurk/v2_DepthDuration_HTML.html#236,236,1366,625,1366,768,9-3-2022,10-19-49,58,depth_duration_stimuli/000642_2014-06-08_16-59-25_260595134347_rgbf000098-resize_2/000642_2014-06-08_16-59-25_260595134347_rgbf000098-resize_2-target.png,1000,2.8815,3,9146,979,meters,jsons/v1_VE1000_randls_30.json,1417622,1596043,40,Man
58,905663,DepthScenes,duration_manipulation_targetAtFixation,jsons/v1_VE1000_randls_30.json,http://54.235.29.9/FacialAge/BNav_EC2/DepthDuration/v2_depth_duration_MTurk/v2_DepthDuration_HTML.html#236,236,1366,625,1366,768,9-3-2022,10-19-49,59,depth_duration_stimuli/002425_2014-06-28_20-27-29_260595134347_rgbf000031-resize_8/002425_2014-06-28_20-27-29_260595134347_rgbf000031-resize_8-target.png,1000,3.8960000000000004,4,6225,994,meters,jsons/v1_VE1000_randls_30.json,1417622,1596043,40,Man
59,905663,DepthScenes,duration_manipulation_targetAtFixation,jsons/v1_VE1000_randls_30.json,http://54.235.29.9/FacialAge/BNav_EC2/DepthDuration/v2_depth_duration_MTurk/v2_DepthDuration_HTML.html#236,236,1366,625,1366,768,9-3-2022,10-19-49,60,depth_duration_stimuli/002784_2014-06-22_19-26-30_094959634447_rgbf000083-resize_3/002784_2014-06-22_19-26-30_094959634447_rgbf000083-resize_3-target.png,1000,1.8046666666667,2,9534,995,meters,jsons/v1_VE1000_randls_30.json,1417622,1596043,40,Man
60,905663,DepthScenes,duration_manipulation_targetAtFixation,jsons/v1_VE1000_randls_30.json,http://54.235.29.9/FacialAge/BNav_EC2/DepthDuration/v2_depth_duration_MTurk/v2_DepthDuration_HTML.html#236,236,1366,625,1366,768,9-3-2022,10-19-49,61,depth_duration_stimuli/001100_2014-06-15_17-46-26_260595134347_rgbf000225-resize_2/001100_2014-06-15_17-46-26_260595134347_rgbf000225-resize_2-target.png,1000,2.24,4,6755,1008,meters,jsons/v1_VE1000_randls_30.json,1417622,1596043,40,Man
61,905663,DepthScenes,duration_manipulation_targetAtFixation,jsons/v1_VE1000_randls_30.json,http://54.235.29.9/FacialAge/BNav_EC2/DepthDuration/v2_depth_duration_MTurk/v2_DepthDuration_HTML.html#236,236,1366,625,1366,768,9-3-2022,10-19-49,62,depth_duration_stimuli/002964_2014-06-08_17-46-11_094959634447_rgbf000091-resize_4/002964_2014-06-08_17-46-11_094959634447_rgbf000091-resize_4-target.png,1000,1.6909999999999998,4,6547,1005,meters,jsons/v1_VE1000_randls_30.json,1417622,1596043,40,Man
62,905663,DepthScenes,duration_manipulation_targetAtFixation,jsons/v1_VE1000_randls_30.json,http://54.235.29.9/FacialAge/BNav_EC2/DepthDuration/v2_depth_duration_MTurk/v2_DepthDuration_HTML.html#236,236,1366,625,1366,768,9-3-2022,10-19-49,63,depth_duration_stimuli/002136_2014-06-25_21-18-03_260595134347_rgbf000109-resize_3/002136_2014-06-25_21-18-03_260595134347_rgbf000109-resize_3-target.png,1000,1.9569999999999999,3,5383,1002,meters,jsons/v1_VE1000_randls_30.json,1417622,1596043,40,Man
63,905663,DepthScenes,duration_manipulation_targetAtFixation,jsons/v1_VE1000_randls_30.json,http://54.235.29.9/FacialAge/BNav_EC2/DepthDuration/v2_depth_duration_MTurk/v2_DepthDuration_HTML.html#236,236,1366,625,1366,768,9-3-2022,10-19-49,64,depth_duration_stimuli/001016_2014-06-09_16-16-10_260595134347_rgbf000112-resize_5/001016_2014-06-09_16-16-10_260595134347_rgbf000112-resize_5-target.png,1000,1.6565,2,6330,972,meters,jsons/v1_VE1000_randls_30.json,1417622,1596043,40,Man
64,905663,DepthScenes,duration_manipulation_targetAtFixation,jsons/v1_VE1000_randls_30.json,http://54.235.29.9/FacialAge/BNav_EC2/DepthDuration/v2_depth_duration_MTurk/v2_DepthDuration_HTML.html#236,236,1366,625,1366,768,9-3-2022,10-19-49,65,depth_duration_stimuli/002340_2014-06-28_20-05-46_260595134347_rgbf000113-resize_0/002340_2014-06-28_20-05-46_260595134347_rgbf000113-resize_0-target.png,1000,2.4735,4,11207,1013,meters,jsons/v1_VE1000_randls_30.json,1417622,1596043,40,Man
65,905663,DepthScenes,duration_manipulation_targetAtFixation,jsons/v1_VE1000_randls_30.json,http://54.235.29.9/FacialAge/BNav_EC2/DepthDuration/v2_depth_duration_MTurk/v2_DepthDuration_HTML.html#236,236,1366,625,1366,768,9-3-2022,10-19-49,66,depth_duration_stimuli/001222_2014-06-17_16-24-06_260595134347_rgbf000073-resize_0/001222_2014-06-17_16-24-06_260595134347_rgbf000073-resize-original.jpg,1000,1.4385,3,14364,922,meters,jsons/v1_VE1000_randls_30.json,1417622,1596043,40,Man
66,905663,DepthScenes,duration_manipulation_targetAtFixation,jsons/v1_VE1000_randls_30.json,http://54.235.29.9/FacialAge/BNav_EC2/DepthDuration/v2_depth_duration_MTurk/v2_DepthDuration_HTML.html#236,236,1366,625,1366,768,9-3-2022,10-19-49,67,depth_duration_stimuli/000414_2014-06-04_19-49-13_260595134347_rgbf000044-resize_0/000414_2014-06-04_19-49-13_260595134347_rgbf000044-resize_0-target.png,1000,4.329,3,82425,985,meters,jsons/v1_VE1000_randls_30.json,1417622,1596043,40,Man
67,905663,DepthScenes,duration_manipulation_targetAtFixation,jsons/v1_VE1000_randls_30.json,http://54.235.29.9/FacialAge/BNav_EC2/DepthDuration/v2_depth_duration_MTurk/v2_DepthDuration_HTML.html#236,236,1366,625,1366,768,9-3-2022,10-19-49,68,depth_duration_stimuli/003129_2014-05-12_10-48-10_094959634447_rgbf000100-resize_0/003129_2014-05-12_10-48-10_094959634447_rgbf000100-resize_0-target.png,1000,4.9305,1,4896,968,meters,jsons/v1_VE1000_randls_30.json,1417622,1596043,40,Man
68,905663,DepthScenes,duration_manipulation_targetAtFixation,jsons/v1_VE1000_randls_30.json,http://54.235.29.9/FacialAge/BNav_EC2/DepthDuration/v2_depth_duration_MTurk/v2_DepthDuration_HTML.html#236,236,1366,625,1366,768,9-3-2022,10-19-49,69,depth_duration_stimuli/001158_2014-06-17_15-32-16_260595134347_rgbf000138-resize_2/001158_2014-06-17_15-32-16_260595134347_rgbf000138-resize_2-target.png,1000,4.5315,4,6760,1005,meters,jsons/v1_VE1000_randls_30.json,1417622,1596043,40,Man
69,905663,DepthScenes,duration_manipulation_targetAtFixation,jsons/v1_VE1000_randls_30.json,http://54.235.29.9/FacialAge/BNav_EC2/DepthDuration/v2_depth_duration_MTurk/v2_DepthDuration_HTML.html#236,236,1366,625,1366,768,9-3-2022,10-19-49,70,depth_duration_stimuli/000556_2014-06-09_22-42-56_260595134347_rgbf000214-resize_1/000556_2014-06-09_22-42-56_260595134347_rgbf000214-resize_1-target.png,1000,4.8415,1,4985,1024,meters,jsons/v1_VE1000_randls_30.json,1417622,1596043,40,Man
70,905663,DepthScenes,duration_manipulation_targetAtFixation,jsons/v1_VE1000_randls_30.json,http://54.235.29.9/FacialAge/BNav_EC2/DepthDuration/v2_depth_duration_MTurk/v2_DepthDuration_HTML.html#236,236,1366,625,1366,768,9-3-2022,10-19-49,71,depth_duration_stimuli/000758_2014-06-08_22-05-08_260595134347_rgbf000085-resize_0/000758_2014-06-08_22-05-08_260595134347_rgbf000085-resize_0-target.png,1000,3.3810000000000002,3,7179,1007,meters,jsons/v1_VE1000_randls_30.json,1417622,1596043,40,Man
71,905663,DepthScenes,duration_manipulation_targetAtFixation,jsons/v1_VE1000_randls_30.json,http://54.235.29.9/FacialAge/BNav_EC2/DepthDuration/v2_depth_duration_MTurk/v2_DepthDuration_HTML.html#236,236,1366,625,1366,768,9-3-2022,10-19-49,72,depth_duration_stimuli/000854_2014-06-09_19-43-13_260595134347_rgbf000066-resize_0/000854_2014-06-09_19-43-13_260595134347_rgbf000066-resize_0-target.png,1000,3.068,4,11298,1006,meters,jsons/v1_VE1000_randls_30.json,1417622,1596043,40,Man
72,905663,DepthScenes,duration_manipulation_targetAtFixation,jsons/v1_VE1000_randls_30.json,http://54.235.29.9/FacialAge/BNav_EC2/DepthDuration/v2_depth_duration_MTurk/v2_DepthDuration_HTML.html#236,236,1366,625,1366,768,9-3-2022,10-19-49,73,depth_duration_stimuli/002118_2014-06-25_20-32-08_260595134347_rgbf000078-resize_1/002118_2014-06-25_20-32-08_260595134347_rgbf000078-resize_1-target.png,1000,2.6460000000000004,2,9753,983,meters,jsons/v1_VE1000_randls_30.json,1417622,1596043,40,Man
73,905663,DepthScenes,duration_manipulation_targetAtFixation,jsons/v1_VE1000_randls_30.json,http://54.235.29.9/FacialAge/BNav_EC2/DepthDuration/v2_depth_duration_MTurk/v2_DepthDuration_HTML.html#236,236,1366,625,1366,768,9-3-2022,10-19-49,74,depth_duration_stimuli/001516_2014-06-20_16-25-09_260595134347_rgbf000076-resize_2/001516_2014-06-20_16-25-09_260595134347_rgbf000076-resize_2-target.png,1000,1.7445,2,17642,978,meters,jsons/v1_VE1000_randls_30.json,1417622,1596043,40,Man
74,905663,DepthScenes,duration_manipulation_targetAtFixation,jsons/v1_VE1000_randls_30.json,http://54.235.29.9/FacialAge/BNav_EC2/DepthDuration/v2_depth_duration_MTurk/v2_DepthDuration_HTML.html#236,236,1366,625,1366,768,9-3-2022,10-19-49,75,depth_duration_stimuli/000739_2014-06-08_18-45-58_260595134347_rgbf000068-resize_1/000739_2014-06-08_18-45-58_260595134347_rgbf000068-resize_1-target.png,1000,3.534,1,6634,1008,meters,jsons/v1_VE1000_randls_30.json,1417622,1596043,40,Man
75,905663,DepthScenes,duration_manipulation_targetAtFixation,jsons/v1_VE1000_randls_30.json,http://54.235.29.9/FacialAge/BNav_EC2/DepthDuration/v2_depth_duration_MTurk/v2_DepthDuration_HTML.html#236,236,1366,625,1366,768,9-3-2022,10-19-49,76,depth_duration_stimuli/000734_2014-06-08_17-39-11_260595134347_rgbf000128-resize_2/000734_2014-06-08_17-39-11_260595134347_rgbf000128-resize_2-target.png,1000,4.098,2,5368,1004,meters,jsons/v1_VE1000_randls_30.json,1417622,1596043,40,Man
76,905663,DepthScenes,duration_manipulation_targetAtFixation,jsons/v1_VE1000_randls_30.json,http://54.235.29.9/FacialAge/BNav_EC2/DepthDuration/v2_depth_duration_MTurk/v2_DepthDuration_HTML.html#236,236,1366,625,1366,768,9-3-2022,10-19-49,77,depth_duration_stimuli/000368_2014-06-09_15-53-01_260595134347_rgbf000155-resize_2/000368_2014-06-09_15-53-01_260595134347_rgbf000155-resize_2-target.png,1000,2.4859999999999998,3,22137,996,meters,jsons/v1_VE1000_randls_30.json,1417622,1596043,40,Man
77,905663,DepthScenes,duration_manipulation_targetAtFixation,jsons/v1_VE1000_randls_30.json,http://54.235.29.9/FacialAge/BNav_EC2/DepthDuration/v2_depth_duration_MTurk/v2_DepthDuration_HTML.html#236,236,1366,625,1366,768,9-3-2022,10-19-49,78,depth_duration_stimuli/002678_2014-06-13_16-15-32_094959634447_rgbf000151-resize_6/002678_2014-06-13_16-15-32_094959634447_rgbf000151-resize_6-target.png,1000,2.1830000000000003,5,9480,966,meters,jsons/v1_VE1000_randls_30.json,1417622,1596043,40,Man
78,905663,DepthScenes,duration_manipulation_targetAtFixation,jsons/v1_VE1000_randls_30.json,http://54.235.29.9/FacialAge/BNav_EC2/DepthDuration/v2_depth_duration_MTurk/v2_DepthDuration_HTML.html#236,236,1366,625,1366,768,9-3-2022,10-19-49,79,depth_duration_stimuli/000493_2014-06-09_21-01-18_260595134347_rgbf000196-resize_3/000493_2014-06-09_21-01-18_260595134347_rgbf000196-resize_3-target.png,1000,3.44,6,7721,990,meters,jsons/v1_VE1000_randls_30.json,1417622,1596043,40,Man
79,905663,DepthScenes,duration_manipulation_targetAtFixation,jsons/v1_VE1000_randls_30.json,http://54.235.29.9/FacialAge/BNav_EC2/DepthDuration/v2_depth_duration_MTurk/v2_DepthDuration_HTML.html#236,236,1366,625,1366,768,9-3-2022,10-19-49,80,depth_duration_stimuli/000191_2014-05-12_17-07-38_260595134347_rgbf000199-resize_0/000191_2014-05-12_17-07-38_260595134347_rgbf000199-resize_0-target.png,1000,3.7995,5,13522,997,meters,jsons/v1_VE1000_randls_30.json,1417622,1596043,40,Man
80,905663,DepthScenes,duration_manipulation_targetAtFixation,jsons/v1_VE1000_randls_30.json,http://54.235.29.9/FacialAge/BNav_EC2/DepthDuration/v2_depth_duration_MTurk/v2_DepthDuration_HTML.html#236,236,1366,625,1366,768,9-3-2022,10-19-49,81,depth_duration_stimuli/002445_2014-06-28_20-32-16_260595134347_rgbf000029-resize_4/002445_2014-06-28_20-32-16_260595134347_rgbf000029-resize_4-target.png,1000,2.5315,5,24450,1003,meters,jsons/v1_VE1000_randls_30.json,1417622,1596043,40,Man
81,905663,DepthScenes,duration_manipulation_targetAtFixation,jsons/v1_VE1000_randls_30.json,http://54.235.29.9/FacialAge/BNav_EC2/DepthDuration/v2_depth_duration_MTurk/v2_DepthDuration_HTML.html#236,236,1366,625,1366,768,9-3-2022,10-19-49,82,depth_duration_stimuli/000780_2014-06-08_22-28-29_260595134347_rgbf000126-resize_1/000780_2014-06-08_22-28-29_260595134347_rgbf000126-resize_1-target.png,1000,3.3825,3,6112,1005,meters,jsons/v1_VE1000_randls_30.json,1417622,1596043,40,Man
82,905663,DepthScenes,duration_manipulation_targetAtFixation,jsons/v1_VE1000_randls_30.json,http://54.235.29.9/FacialAge/BNav_EC2/DepthDuration/v2_depth_duration_MTurk/v2_DepthDuration_HTML.html#236,236,1366,625,1366,768,9-3-2022,10-19-49,83,depth_duration_stimuli/001175_2014-06-17_15-45-55_260595134347_rgbf000129-resize_4/001175_2014-06-17_15-45-55_260595134347_rgbf000129-resize_4-target.png,1000,4.255,2,8509,1061,meters,jsons/v1_VE1000_randls_30.json,1417622,1596043,40,Man
83,905663,DepthScenes,duration_manipulation_targetAtFixation,jsons/v1_VE1000_randls_30.json,http://54.235.29.9/FacialAge/BNav_EC2/DepthDuration/v2_depth_duration_MTurk/v2_DepthDuration_HTML.html#236,236,1366,625,1366,768,9-3-2022,10-19-49,84,depth_duration_stimuli/003490_2014-05-21_15-50-11_094959634447_rgbf000101-resize_3/003490_2014-05-21_15-50-11_094959634447_rgbf000101-resize_3-target.png,1000,3.6445,5,5956,1001,meters,jsons/v1_VE1000_randls_30.json,1417622,1596043,40,Man
84,905663,DepthScenes,duration_manipulation_targetAtFixation,jsons/v1_VE1000_randls_30.json,http://54.235.29.9/FacialAge/BNav_EC2/DepthDuration/v2_depth_duration_MTurk/v2_DepthDuration_HTML.html#236,236,1366,625,1366,768,9-3-2022,10-19-49,85,depth_duration_stimuli/000788_2014-06-08_22-34-36_260595134347_rgbf000131-resize_1/000788_2014-06-08_22-34-36_260595134347_rgbf000131-resize_1-target.png,1000,3.359,3,14038,1000,meters,jsons/v1_VE1000_randls_30.json,1417622,1596043,40,Man
85,905663,DepthScenes,duration_manipulation_targetAtFixation,jsons/v1_VE1000_randls_30.json,http://54.235.29.9/FacialAge/BNav_EC2/DepthDuration/v2_depth_duration_MTurk/v2_DepthDuration_HTML.html#236,236,1366,625,1366,768,9-3-2022,10-19-49,86,depth_duration_stimuli/001235_2014-06-17_16-37-36_260595134347_rgbf000084-resize_4/001235_2014-06-17_16-37-36_260595134347_rgbf000084-resize_4-target.png,1000,3.6605,3,11649,993,meters,jsons/v1_VE1000_randls_30.json,1417622,1596043,40,Man
86,905663,DepthScenes,duration_manipulation_targetAtFixation,jsons/v1_VE1000_randls_30.json,http://54.235.29.9/FacialAge/BNav_EC2/DepthDuration/v2_depth_duration_MTurk/v2_DepthDuration_HTML.html#236,236,1366,625,1366,768,9-3-2022,10-19-49,87,depth_duration_stimuli/002272_2014-06-28_18-53-56_260595134347_rgbf000067-resize_2/002272_2014-06-28_18-53-56_260595134347_rgbf000067-resize_2-target.png,1000,1.138,2,30787,1013,meters,jsons/v1_VE1000_randls_30.json,1417622,1596043,40,Man
87,905663,DepthScenes,duration_manipulation_targetAtFixation,jsons/v1_VE1000_randls_30.json,http://54.235.29.9/FacialAge/BNav_EC2/DepthDuration/v2_depth_duration_MTurk/v2_DepthDuration_HTML.html#236,236,1366,625,1366,768,9-3-2022,10-19-49,88,depth_duration_stimuli/001571_2014-06-20_17-21-32_260595134347_rgbf000089-resize_1/001571_2014-06-20_17-21-32_260595134347_rgbf000089-resize_1-target.png,1000,1.86,4,5549,1010,meters,jsons/v1_VE1000_randls_30.json,1417622,1596043,40,Man
88,905663,DepthScenes,duration_manipulation_targetAtFixation,jsons/v1_VE1000_randls_30.json,http://54.235.29.9/FacialAge/BNav_EC2/DepthDuration/v2_depth_duration_MTurk/v2_DepthDuration_HTML.html#236,236,1366,625,1366,768,9-3-2022,10-19-49,89,depth_duration_stimuli/001056_2014-06-08_18-46-44_260595134347_rgbf000068-resize_0/001056_2014-06-08_18-46-44_260595134347_rgbf000068-resize_0-target.png,1000,2.6625,3,26070,1006,meters,jsons/v1_VE1000_randls_30.json,1417622,1596043,40,Man
89,905663,DepthScenes,duration_manipulation_targetAtFixation,jsons/v1_VE1000_randls_30.json,http://54.235.29.9/FacialAge/BNav_EC2/DepthDuration/v2_depth_duration_MTurk/v2_DepthDuration_HTML.html#236,236,1366,625,1366,768,9-3-2022,10-19-49,90,depth_duration_stimuli/002199_2014-06-28_18-33-56_260595134347_rgbf000074-resize_0/002199_2014-06-28_18-33-56_260595134347_rgbf000074-resize_0-target.png,1000,1.996,2,17977,985,meters,jsons/v1_VE1000_randls_30.json,1417622,1596043,40,Man
90,905663,DepthScenes,duration_manipulation_targetAtFixation,jsons/v1_VE1000_randls_30.json,http://54.235.29.9/FacialAge/BNav_EC2/DepthDuration/v2_depth_duration_MTurk/v2_DepthDuration_HTML.html#236,236,1366,625,1366,768,9-3-2022,10-19-49,91,depth_duration_stimuli/003070_2014-06-15_14-58-27_094959634447_rgbf000150-resize_3/003070_2014-06-15_14-58-27_094959634447_rgbf000150-resize_3-target.png,1000,2.9415,3,10862,988,meters,jsons/v1_VE1000_randls_30.json,1417622,1596043,40,Man
91,905663,DepthScenes,duration_manipulation_targetAtFixation,jsons/v1_VE1000_randls_30.json,http://54.235.29.9/FacialAge/BNav_EC2/DepthDuration/v2_depth_duration_MTurk/v2_DepthDuration_HTML.html#236,236,1366,625,1366,768,9-3-2022,10-19-49,92,depth_duration_stimuli/000943_2014-06-09_19-31-07_260595134347_rgbf000128-resize_1/000943_2014-06-09_19-31-07_260595134347_rgbf000128-resize_1-target.png,1000,1.9765,4,6414,1010,meters,jsons/v1_VE1000_randls_30.json,1417622,1596043,40,Man
92,905663,DepthScenes,duration_manipulation_targetAtFixation,jsons/v1_VE1000_randls_30.json,http://54.235.29.9/FacialAge/BNav_EC2/DepthDuration/v2_depth_duration_MTurk/v2_DepthDuration_HTML.html#236,236,1366,625,1366,768,9-3-2022,10-19-49,93,depth_duration_stimuli/000486_2014-06-09_20-47-20_260595134347_rgbf000143-resize_2/000486_2014-06-09_20-47-20_260595134347_rgbf000143-resize_2-target.png,1000,4.8325,3,7620,1010,meters,jsons/v1_VE1000_randls_30.json,1417622,1596043,40,Man
93,905663,DepthScenes,duration_manipulation_targetAtFixation,jsons/v1_VE1000_randls_30.json,http://54.235.29.9/FacialAge/BNav_EC2/DepthDuration/v2_depth_duration_MTurk/v2_DepthDuration_HTML.html#236,236,1366,625,1366,768,9-3-2022,10-19-49,94,depth_duration_stimuli/003083_2014-06-15_15-21-03_094959634447_rgbf000063-resize_1/003083_2014-06-15_15-21-03_094959634447_rgbf000063-resize_1-target.png,1000,4.1405,2,5646,1012,meters,jsons/v1_VE1000_randls_30.json,1417622,1596043,40,Man
94,905663,DepthScenes,duration_manipulation_targetAtFixation,jsons/v1_VE1000_randls_30.json,http://54.235.29.9/FacialAge/BNav_EC2/DepthDuration/v2_depth_duration_MTurk/v2_DepthDuration_HTML.html#236,236,1366,625,1366,768,9-3-2022,10-19-49,95,depth_duration_stimuli/000009_2014-05-26_14-32-05_260595134347_rgbf000034-resize_3/000009_2014-05-26_14-32-05_260595134347_rgbf000034-resize_3-target.png,1000,3.8715,3,9620,1002,meters,jsons/v1_VE1000_randls_30.json,1417622,1596043,40,Man
95,905663,DepthScenes,duration_manipulation_targetAtFixation,jsons/v1_VE1000_randls_30.json,http://54.235.29.9/FacialAge/BNav_EC2/DepthDuration/v2_depth_duration_MTurk/v2_DepthDuration_HTML.html#236,236,1366,625,1366,768,9-3-2022,10-19-49,96,depth_duration_stimuli/001828_2014-06-26_21-40-03_260595134347_rgbf000024-resize_0/001828_2014-06-26_21-40-03_260595134347_rgbf000024-resize_0-target.png,1000,4.8260000000000005,2,5263,990,meters,jsons/v1_VE1000_randls_30.json,1417622,1596043,40,Man
96,905663,DepthScenes,duration_manipulation_targetAtFixation,jsons/v1_VE1000_randls_30.json,http://54.235.29.9/FacialAge/BNav_EC2/DepthDuration/v2_depth_duration_MTurk/v2_DepthDuration_HTML.html#236,236,1366,625,1366,768,9-3-2022,10-19-49,97,depth_duration_stimuli/002213_2014-06-28_18-37-58_260595134347_rgbf000055-resize_1/002213_2014-06-28_18-37-58_260595134347_rgbf000055-resize_1-target.png,1000,3.62,0,5762,998,meters,jsons/v1_VE1000_randls_30.json,1417622,1596043,40,Man
97,905663,DepthScenes,duration_manipulation_targetAtFixation,jsons/v1_VE1000_randls_30.json,http://54.235.29.9/FacialAge/BNav_EC2/DepthDuration/v2_depth_duration_MTurk/v2_DepthDuration_HTML.html#236,236,1366,625,1366,768,9-3-2022,10-19-49,98,depth_duration_stimuli/000691_2014-06-08_13-08-50_260595134347_rgbf000132-resize_3/000691_2014-06-08_13-08-50_260595134347_rgbf000132-resize_3-target.png,1000,4.1530000000000005,2,13711,992,meters,jsons/v1_VE1000_randls_30.json,1417622,1596043,40,Man
98,905663,DepthScenes,duration_manipulation_targetAtFixation,jsons/v1_VE1000_randls_30.json,http://54.235.29.9/FacialAge/BNav_EC2/DepthDuration/v2_depth_duration_MTurk/v2_DepthDuration_HTML.html#236,236,1366,625,1366,768,9-3-2022,10-19-49,99,depth_duration_stimuli/001540_2014-06-20_17-01-05_260595134347_rgbf000086-resize_2/001540_2014-06-20_17-01-05_260595134347_rgbf000086-resize-original.jpg,1000,1.459,3,6248,999,meters,jsons/v1_VE1000_randls_30.json,1417622,1596043,40,Man
99,905663,DepthScenes,duration_manipulation_targetAtFixation,jsons/v1_VE1000_randls_30.json,http://54.235.29.9/FacialAge/BNav_EC2/DepthDuration/v2_depth_duration_MTurk/v2_DepthDuration_HTML.html#236,236,1366,625,1366,768,9-3-2022,10-19-49,100,depth_duration_stimuli/001167_2014-06-17_15-38-07_260595134347_rgbf000108-resize_0/001167_2014-06-17_15-38-07_260595134347_rgbf000108-resize_0-target.png,1000,1.8505,1,4507,996,meters,jsons/v1_VE1000_randls_30.json,1417622,1596043,40,Man
100,905663,DepthScenes,duration_manipulation_targetAtFixation,jsons/v1_VE1000_randls_30.json,http://54.235.29.9/FacialAge/BNav_EC2/DepthDuration/v2_depth_duration_MTurk/v2_DepthDuration_HTML.html#236,236,1366,625,1366,768,9-3-2022,10-19-49,101,depth_duration_stimuli/003587_2014-05-23_16-48-02_094959634447_rgbf002384-resize_2/003587_2014-05-23_16-48-02_094959634447_rgbf002384-resize_2-target.png,1000,1.357,2,4492,996,meters,jsons/v1_VE1000_randls_30.json,1417622,1596043,40,Man
101,905663,DepthScenes,duration_manipulation_targetAtFixation,jsons/v1_VE1000_randls_30.json,http://54.235.29.9/FacialAge/BNav_EC2/DepthDuration/v2_depth_duration_MTurk/v2_DepthDuration_HTML.html#236,236,1366,625,1366,768,9-3-2022,10-19-49,102,depth_duration_stimuli/002549_2014-06-24_13-41-39_094959634447_rgbf000022-resize_3/002549_2014-06-24_13-41-39_094959634447_rgbf000022-resize_3-target.png,1000,1.476,2,8778,996,meters,jsons/v1_VE1000_randls_30.json,1417622,1596043,40,Man
102,905663,DepthScenes,duration_manipulation_targetAtFixation,jsons/v1_VE1000_randls_30.json,http://54.235.29.9/FacialAge/BNav_EC2/DepthDuration/v2_depth_duration_MTurk/v2_DepthDuration_HTML.html#236,236,1366,625,1366,768,9-3-2022,10-19-49,103,depth_duration_stimuli/002750_2014-06-22_19-08-03_094959634447_rgbf000094-resize_4/002750_2014-06-22_19-08-03_094959634447_rgbf000094-resize_4-target.png,1000,2.354,2,5215,1000,meters,jsons/v1_VE1000_randls_30.json,1417622,1596043,40,Man
103,905663,DepthScenes,duration_manipulation_targetAtFixation,jsons/v1_VE1000_randls_30.json,http://54.235.29.9/FacialAge/BNav_EC2/DepthDuration/v2_depth_duration_MTurk/v2_DepthDuration_HTML.html#236,236,1366,625,1366,768,9-3-2022,10-19-49,104,depth_duration_stimuli/000810_2014-06-08_17-20-01_260595134347_rgbf000105-resize_0/000810_2014-06-08_17-20-01_260595134347_rgbf000105-resize_0-target.png,1000,1.4865,2,4404,1062,meters,jsons/v1_VE1000_randls_30.json,1417622,1596043,40,Man
104,905663,DepthScenes,duration_manipulation_targetAtFixation,jsons/v1_VE1000_randls_30.json,http://54.235.29.9/FacialAge/BNav_EC2/DepthDuration/v2_depth_duration_MTurk/v2_DepthDuration_HTML.html#236,236,1366,625,1366,768,9-3-2022,10-19-49,105,depth_duration_stimuli/001214_2014-06-17_16-13-55_260595134347_rgbf000111-resize_0/001214_2014-06-17_16-13-55_260595134347_rgbf000111-resize_0-target.png,1000,2.6505,3,4752,1034,meters,jsons/v1_VE1000_randls_30.json,1417622,1596043,40,Man
105,905663,DepthScenes,duration_manipulation_targetAtFixation,jsons/v1_VE1000_randls_30.json,http://54.235.29.9/FacialAge/BNav_EC2/DepthDuration/v2_depth_duration_MTurk/v2_DepthDuration_HTML.html#236,236,1366,625,1366,768,9-3-2022,10-19-49,106,depth_duration_stimuli/001449_2014-06-19_17-01-27_260595134347_rgbf000116-resize_2/001449_2014-06-19_17-01-27_260595134347_rgbf000116-resize_2-target.png,1000,3.452,2,5301,996,meters,jsons/v1_VE1000_randls_30.json,1417622,1596043,40,Man
106,905663,DepthScenes,duration_manipulation_targetAtFixation,jsons/v1_VE1000_randls_30.json,http://54.235.29.9/FacialAge/BNav_EC2/DepthDuration/v2_depth_duration_MTurk/v2_DepthDuration_HTML.html#236,236,1366,625,1366,768,9-3-2022,10-19-49,107,depth_duration_stimuli/001450_2014-06-19_17-02-03_260595134347_rgbf000203-resize_4/001450_2014-06-19_17-02-03_260595134347_rgbf000203-resize_4-target.png,1000,4.0106666666667,2,5048,1005,meters,jsons/v1_VE1000_randls_30.json,1417622,1596043,40,Man
107,905663,DepthScenes,duration_manipulation_targetAtFixation,jsons/v1_VE1000_randls_30.json,http://54.235.29.9/FacialAge/BNav_EC2/DepthDuration/v2_depth_duration_MTurk/v2_DepthDuration_HTML.html#236,236,1366,625,1366,768,9-3-2022,10-19-49,108,depth_duration_stimuli/002989_2014-06-15_12-25-03_094959634447_rgbf000150-resize_3/002989_2014-06-15_12-25-03_094959634447_rgbf000150-resize_3-target.png,1000,4.1975,2,4754,998,meters,jsons/v1_VE1000_randls_30.json,1417622,1596043,40,Man
108,905663,DepthScenes,duration_manipulation_targetAtFixation,jsons/v1_VE1000_randls_30.json,http://54.235.29.9/FacialAge/BNav_EC2/DepthDuration/v2_depth_duration_MTurk/v2_DepthDuration_HTML.html#236,236,1366,625,1366,768,9-3-2022,10-19-49,109,depth_duration_stimuli/000866_2014-06-09_20-45-42_260595134347_rgbf000139-resize_1/000866_2014-06-09_20-45-42_260595134347_rgbf000139-resize_1-target.png,1000,3.2155,2,6681,988,meters,jsons/v1_VE1000_randls_30.json,1417622,1596043,40,Man
109,905663,DepthScenes,duration_manipulation_targetAtFixation,jsons/v1_VE1000_randls_30.json,http://54.235.29.9/FacialAge/BNav_EC2/DepthDuration/v2_depth_duration_MTurk/v2_DepthDuration_HTML.html#236,236,1366,625,1366,768,9-3-2022,10-19-49,110,depth_duration_stimuli/001417_2014-06-19_16-25-36_260595134347_rgbf000115-resize_5/001417_2014-06-19_16-25-36_260595134347_rgbf000115-resize_5-target.png,1000,4.6255,2,6207,994,meters,jsons/v1_VE1000_randls_30.json,1417622,1596043,40,Man
110,905663,DepthScenes,duration_manipulation_targetAtFixation,jsons/v1_VE1000_randls_30.json,http://54.235.29.9/FacialAge/BNav_EC2/DepthDuration/v2_depth_duration_MTurk/v2_DepthDuration_HTML.html#236,236,1366,625,1366,768,9-3-2022,10-19-49,111,depth_duration_stimuli/003081_2014-06-15_15-19-16_094959634447_rgbf000150-resize_1/003081_2014-06-15_15-19-16_094959634447_rgbf000150-resize_1-target.png,1000,3.9125,3,4766,999,meters,jsons/v1_VE1000_randls_30.json,1417622,1596043,40,Man
111,905663,DepthScenes,duration_manipulation_targetAtFixation,jsons/v1_VE1000_randls_30.json,http://54.235.29.9/FacialAge/BNav_EC2/DepthDuration/v2_depth_duration_MTurk/v2_DepthDuration_HTML.html#236,236,1366,625,1366,768,9-3-2022,10-19-49,112,depth_duration_stimuli/001066_2014-06-08_22-03-20_260595134347_rgbf000066-resize_4/001066_2014-06-08_22-03-20_260595134347_rgbf000066-resize_4-target.png,1000,4.2330000000000005,4,5354,1005,meters,jsons/v1_VE1000_randls_30.json,1417622,1596043,40,Man
112,905663,DepthScenes,duration_manipulation_targetAtFixation,jsons/v1_VE1000_randls_30.json,http://54.235.29.9/FacialAge/BNav_EC2/DepthDuration/v2_depth_duration_MTurk/v2_DepthDuration_HTML.html#236,236,1366,625,1366,768,9-3-2022,10-19-49,113,depth_duration_stimuli/000742_2014-06-08_18-48-09_260595134347_rgbf000164-resize_4/000742_2014-06-08_18-48-09_260595134347_rgbf000164-resize_4-target.png,1000,4.632,2,4630,939,meters,jsons/v1_VE1000_randls_30.json,1417622,1596043,40,Man
113,905663,DepthScenes,duration_manipulation_targetAtFixation,jsons/v1_VE1000_randls_30.json,http://54.235.29.9/FacialAge/BNav_EC2/DepthDuration/v2_depth_duration_MTurk/v2_DepthDuration_HTML.html#236,236,1366,625,1366,768,9-3-2022,10-19-49,114,depth_duration_stimuli/001570_2014-06-20_17-21-09_260595134347_rgbf000135-resize_4/001570_2014-06-20_17-21-09_260595134347_rgbf000135-resize_4-target.png,1000,4.467,3,6731,994,meters,jsons/v1_VE1000_randls_30.json,1417622,1596043,40,Man
114,905663,DepthScenes,duration_manipulation_targetAtFixation,jsons/v1_VE1000_randls_30.json,http://54.235.29.9/FacialAge/BNav_EC2/DepthDuration/v2_depth_duration_MTurk/v2_DepthDuration_HTML.html#236,236,1366,625,1366,768,9-3-2022,10-19-49,115,depth_duration_stimuli/001392_2014-06-19_16-07-59_260595134347_rgbf000046-resize_1/001392_2014-06-19_16-07-59_260595134347_rgbf000046-resize_1-target.png,1000,4.135,2,4213,1002,meters,jsons/v1_VE1000_randls_30.json,1417622,1596043,40,Man
115,905663,DepthScenes,duration_manipulation_targetAtFixation,jsons/v1_VE1000_randls_30.json,http://54.235.29.9/FacialAge/BNav_EC2/DepthDuration/v2_depth_duration_MTurk/v2_DepthDuration_HTML.html#236,236,1366,625,1366,768,9-3-2022,10-19-49,116,depth_duration_stimuli/001170_2014-06-17_15-43-44_260595134347_rgbf000096-resize_6/001170_2014-06-17_15-43-44_260595134347_rgbf000096-resize-original.jpg,1000,1.1909999999999998,3,5062,983,meters,jsons/v1_VE1000_randls_30.json,1417622,1596043,40,Man
116,905663,DepthScenes,duration_manipulation_targetAtFixation,jsons/v1_VE1000_randls_30.json,http://54.235.29.9/FacialAge/BNav_EC2/DepthDuration/v2_depth_duration_MTurk/v2_DepthDuration_HTML.html#236,236,1366,625,1366,768,9-3-2022,10-19-49,117,depth_duration_stimuli/002748_2014-06-22_19-07-22_094959634447_rgbf000078-resize_1/002748_2014-06-22_19-07-22_094959634447_rgbf000078-resize_1-target.png,1000,4.6705,2,4605,961,meters,jsons/v1_VE1000_randls_30.json,1417622,1596043,40,Man
117,905663,DepthScenes,duration_manipulation_targetAtFixation,jsons/v1_VE1000_randls_30.json,http://54.235.29.9/FacialAge/BNav_EC2/DepthDuration/v2_depth_duration_MTurk/v2_DepthDuration_HTML.html#236,236,1366,625,1366,768,9-3-2022,10-19-49,118,depth_duration_stimuli/002995_2014-06-15_12-31-26_094959634447_rgbf000150-resize_1/002995_2014-06-15_12-31-26_094959634447_rgbf000150-resize_1-target.png,1000,3.8360000000000003,4,4469,1001,meters,jsons/v1_VE1000_randls_30.json,1417622,1596043,40,Man
118,905663,DepthScenes,duration_manipulation_targetAtFixation,jsons/v1_VE1000_randls_30.json,http://54.235.29.9/FacialAge/BNav_EC2/DepthDuration/v2_depth_duration_MTurk/v2_DepthDuration_HTML.html#236,236,1366,625,1366,768,9-3-2022,10-19-49,119,depth_duration_stimuli/000469_2014-06-09_19-42-10_260595134347_rgbf000081-resize_1/000469_2014-06-09_19-42-10_260595134347_rgbf000081-resize_1-target.png,1000,1.652,2,16292,1015,meters,jsons/v1_VE1000_randls_30.json,1417622,1596043,40,Man
119,905663,DepthScenes,duration_manipulation_targetAtFixation,jsons/v1_VE1000_randls_30.json,http://54.235.29.9/FacialAge/BNav_EC2/DepthDuration/v2_depth_duration_MTurk/v2_DepthDuration_HTML.html#236,236,1366,625,1366,768,9-3-2022,10-19-49,120,depth_duration_stimuli/000483_2014-06-09_20-41-45_260595134347_rgbf000116-resize_4/000483_2014-06-09_20-41-45_260595134347_rgbf000116-resize_4-target.png,1000,1.337,1,3884,1009,meters,jsons/v1_VE1000_randls_30.json,1417622,1596043,40,Man
120,905663,DepthScenes,duration_manipulation_targetAtFixation,jsons/v1_VE1000_randls_30.json,http://54.235.29.9/FacialAge/BNav_EC2/DepthDuration/v2_depth_duration_MTurk/v2_DepthDuration_HTML.html#236,236,1366,625,1366,768,9-3-2022,10-19-49,121,depth_duration_stimuli/000447_2014-06-08_16-15-46_260595134347_rgbf000130-resize_1/000447_2014-06-08_16-15-46_260595134347_rgbf000130-resize_1-target.png,1000,4.479,3,5971,982,meters,jsons/v1_VE1000_randls_30.json,1417622,1596043,40,Man
121,905663,DepthScenes,duration_manipulation_targetAtFixation,jsons/v1_VE1000_randls_30.json,http://54.235.29.9/FacialAge/BNav_EC2/DepthDuration/v2_depth_duration_MTurk/v2_DepthDuration_HTML.html#236,236,1366,625,1366,768,9-3-2022,10-19-49,122,depth_duration_stimuli/001447_2014-06-19_17-00-32_260595134347_rgbf000082-resize_5/001447_2014-06-19_17-00-32_260595134347_rgbf000082-resize_5-target.png,1000,4.13775,2,26897,1017,meters,jsons/v1_VE1000_randls_30.json,1417622,1596043,40,Man
122,905663,DepthScenes,duration_manipulation_targetAtFixation,jsons/v1_VE1000_randls_30.json,http://54.235.29.9/FacialAge/BNav_EC2/DepthDuration/v2_depth_duration_MTurk/v2_DepthDuration_HTML.html#236,236,1366,625,1366,768,9-3-2022,10-19-49,123,depth_duration_stimuli/001808_2014-06-26_20-50-58_260595134347_rgbf000029-resize_1/001808_2014-06-26_20-50-58_260595134347_rgbf000029-resize_1-target.png,1000,4.249,2,4707,998,meters,jsons/v1_VE1000_randls_30.json,1417622,1596043,40,Man
123,905663,DepthScenes,duration_manipulation_targetAtFixation,jsons/v1_VE1000_randls_30.json,http://54.235.29.9/FacialAge/BNav_EC2/DepthDuration/v2_depth_duration_MTurk/v2_DepthDuration_HTML.html#236,236,1366,625,1366,768,9-3-2022,10-19-49,124,depth_duration_stimuli/001815_2014-06-26_20-52-55_260595134347_rgbf000020-resize_0/001815_2014-06-26_20-52-55_260595134347_rgbf000020-resize_0-target.png,1000,3.3865,4,5043,985,meters,jsons/v1_VE1000_randls_30.json,1417622,1596043,40,Man
124,905663,DepthScenes,duration_manipulation_targetAtFixation,jsons/v1_VE1000_randls_30.json,http://54.235.29.9/FacialAge/BNav_EC2/DepthDuration/v2_depth_duration_MTurk/v2_DepthDuration_HTML.html#236,236,1366,625,1366,768,9-3-2022,10-19-49,125,depth_duration_stimuli/003492_2014-05-21_15-50-55_094959634447_rgbf000828-resize_1/003492_2014-05-21_15-50-55_094959634447_rgbf000828-resize_1-target.png,1000,4.06875,2,4837,986,meters,jsons/v1_VE1000_randls_30.json,1417622,1596043,40,Man
125,905663,DepthScenes,duration_manipulation_targetAtFixation,jsons/v1_VE1000_randls_30.json,http://54.235.29.9/FacialAge/BNav_EC2/DepthDuration/v2_depth_duration_MTurk/v2_DepthDuration_HTML.html#236,236,1366,625,1366,768,9-3-2022,10-19-49,126,depth_duration_stimuli/002568_2014-06-24_13-59-21_094959634447_rgbf000062-resize_4/002568_2014-06-24_13-59-21_094959634447_rgbf000062-resize_4-target.png,1000,3.015,2,3890,1003,meters,jsons/v1_VE1000_randls_30.json,1417622,1596043,40,Man
126,905663,DepthScenes,duration_manipulation_targetAtFixation,jsons/v1_VE1000_randls_30.json,http://54.235.29.9/FacialAge/BNav_EC2/DepthDuration/v2_depth_duration_MTurk/v2_DepthDuration_HTML.html#236,236,1366,625,1366,768,9-3-2022,10-19-49,127,depth_duration_stimuli/002905_2014-06-03_18-04-43_094959634447_rgbf000151-resize_2/002905_2014-06-03_18-04-43_094959634447_rgbf000151-resize_2-target.png,1000,2.0295,4,6100,1008,meters,jsons/v1_VE1000_randls_30.json,1417622,1596043,40,Man
127,905663,DepthScenes,duration_manipulation_targetAtFixation,jsons/v1_VE1000_randls_30.json,http://54.235.29.9/FacialAge/BNav_EC2/DepthDuration/v2_depth_duration_MTurk/v2_DepthDuration_HTML.html#236,236,1366,625,1366,768,9-3-2022,10-19-49,128,depth_duration_stimuli/003423_2014-05-21_10-23-26_094959634447_rgbf002665-resize_2/003423_2014-05-21_10-23-26_094959634447_rgbf002665-resize_2-target.png,1000,3.2575,2,4504,999,meters,jsons/v1_VE1000_randls_30.json,1417622,1596043,40,Man
128,905663,DepthScenes,duration_manipulation_targetAtFixation,jsons/v1_VE1000_randls_30.json,http://54.235.29.9/FacialAge/BNav_EC2/DepthDuration/v2_depth_duration_MTurk/v2_DepthDuration_HTML.html#236,236,1366,625,1366,768,9-3-2022,10-19-49,129,depth_duration_stimuli/003534_2014-05-22_15-06-10_094959634447_rgbf000102-resize_4/003534_2014-05-22_15-06-10_094959634447_rgbf000102-resize_4-target.png,1000,1.426,4,4392,1004,meters,jsons/v1_VE1000_randls_30.json,1417622,1596043,40,Man
129,905663,DepthScenes,duration_manipulation_targetAtFixation,jsons/v1_VE1000_randls_30.json,http://54.235.29.9/FacialAge/BNav_EC2/DepthDuration/v2_depth_duration_MTurk/v2_DepthDuration_HTML.html#236,236,1366,625,1366,768,9-3-2022,10-19-49,130,depth_duration_stimuli/002637_2014-06-24_14-51-13_094959634447_rgbf000066-resize_4/002637_2014-06-24_14-51-13_094959634447_rgbf000066-resize_4-target.png,1000,1.9955,2,4034,984,meters,jsons/v1_VE1000_randls_30.json,1417622,1596043,40,Man
130,905663,DepthScenes,duration_manipulation_targetAtFixation,jsons/v1_VE1000_randls_30.json,http://54.235.29.9/FacialAge/BNav_EC2/DepthDuration/v2_depth_duration_MTurk/v2_DepthDuration_HTML.html#236,236,1366,625,1366,768,9-3-2022,10-19-49,131,depth_duration_stimuli/002043_2014-06-24_20-29-38_260595134347_rgbf000039-resize_4/002043_2014-06-24_20-29-38_260595134347_rgbf000039-resize_4-target.png,1000,2.8435,2,4604,997,meters,jsons/v1_VE1000_randls_30.json,1417622,1596043,40,Man
131,905663,DepthScenes,duration_manipulation_targetAtFixation,jsons/v1_VE1000_randls_30.json,http://54.235.29.9/FacialAge/BNav_EC2/DepthDuration/v2_depth_duration_MTurk/v2_DepthDuration_HTML.html#236,236,1366,625,1366,768,9-3-2022,10-19-49,132,depth_duration_stimuli/003048_2014-06-15_13-49-43_094959634447_rgbf000150-resize_1/003048_2014-06-15_13-49-43_094959634447_rgbf000150-resize_1-target.png,1000,4.0035,4,5146,995,meters,jsons/v1_VE1000_randls_30.json,1417622,1596043,40,Man
132,905663,DepthScenes,duration_manipulation_targetAtFixation,jsons/v1_VE1000_randls_30.json,http://54.235.29.9/FacialAge/BNav_EC2/DepthDuration/v2_depth_duration_MTurk/v2_DepthDuration_HTML.html#236,236,1366,625,1366,768,9-3-2022,10-19-49,133,depth_duration_stimuli/000929_2014-06-09_16-33-19_260595134347_rgbf000139-resize_0/000929_2014-06-09_16-33-19_260595134347_rgbf000139-resize_0-target.png,1000,2.8680000000000003,2,11126,1010,meters,jsons/v1_VE1000_randls_30.json,1417622,1596043,40,Man
133,905663,DepthScenes,duration_manipulation_targetAtFixation,jsons/v1_VE1000_randls_30.json,http://54.235.29.9/FacialAge/BNav_EC2/DepthDuration/v2_depth_duration_MTurk/v2_DepthDuration_HTML.html#236,236,1366,625,1366,768,9-3-2022,10-19-49,134,depth_duration_stimuli/000457_2014-06-08_16-52-43_260595134347_rgbf000199-resize_1/000457_2014-06-08_16-52-43_260595134347_rgbf000199-resize_1-target.png,1000,3.6489999999999996,4,10101,1004,meters,jsons/v1_VE1000_randls_30.json,1417622,1596043,40,Man
134,905663,DepthScenes,duration_manipulation_targetAtFixation,jsons/v1_VE1000_randls_30.json,http://54.235.29.9/FacialAge/BNav_EC2/DepthDuration/v2_depth_duration_MTurk/v2_DepthDuration_HTML.html#236,236,1366,625,1366,768,9-3-2022,10-19-49,135,depth_duration_stimuli/002072_2014-06-24_21-48-06_260595134347_rgbf000115-resize_0/002072_2014-06-24_21-48-06_260595134347_rgbf000115-resize-original.jpg,1000,4.702,0,4971,997,meters,jsons/v1_VE1000_randls_30.json,1417622,1596043,40,Man
135,905663,DepthScenes,duration_manipulation_targetAtFixation,jsons/v1_VE1000_randls_30.json,http://54.235.29.9/FacialAge/BNav_EC2/DepthDuration/v2_depth_duration_MTurk/v2_DepthDuration_HTML.html#236,236,1366,625,1366,768,9-3-2022,10-19-49,136,depth_duration_stimuli/001092_2014-06-15_17-34-58_260595134347_rgbf000171-resize_3/001092_2014-06-15_17-34-58_260595134347_rgbf000171-resize_3-target.png,1000,2.6935,3,4863,999,meters,jsons/v1_VE1000_randls_30.json,1417622,1596043,40,Man
136,905663,DepthScenes,duration_manipulation_targetAtFixation,jsons/v1_VE1000_randls_30.json,http://54.235.29.9/FacialAge/BNav_EC2/DepthDuration/v2_depth_duration_MTurk/v2_DepthDuration_HTML.html#236,236,1366,625,1366,768,9-3-2022,10-19-49,137,depth_duration_stimuli/002545_2014-06-24_13-38-53_094959634447_rgbf000080-resize_4/002545_2014-06-24_13-38-53_094959634447_rgbf000080-resize_4-target.png,1000,1.9205,2,4033,984,meters,jsons/v1_VE1000_randls_30.json,1417622,1596043,40,Man
137,905663,DepthScenes,duration_manipulation_targetAtFixation,jsons/v1_VE1000_randls_30.json,http://54.235.29.9/FacialAge/BNav_EC2/DepthDuration/v2_depth_duration_MTurk/v2_DepthDuration_HTML.html#236,236,1366,625,1366,768,9-3-2022,10-19-49,138,depth_duration_stimuli/002600_2014-06-24_14-27-04_094959634447_rgbf000074-resize_2/002600_2014-06-24_14-27-04_094959634447_rgbf000074-resize_2-target.png,1000,2.7575,4,5247,982,meters,jsons/v1_VE1000_randls_30.json,1417622,1596043,40,Man
138,905663,DepthScenes,duration_manipulation_targetAtFixation,jsons/v1_VE1000_randls_30.json,http://54.235.29.9/FacialAge/BNav_EC2/DepthDuration/v2_depth_duration_MTurk/v2_DepthDuration_HTML.html#236,236,1366,625,1366,768,9-3-2022,10-19-49,139,depth_duration_stimuli/003228_2014-05-14_13-42-35_094959634447_rgbf000101-resize_1/003228_2014-05-14_13-42-35_094959634447_rgbf000101-resize_1-target.png,1000,1.9680000000000002,2,7371,1009,meters,jsons/v1_VE1000_randls_30.json,1417622,1596043,40,Man
139,905663,DepthScenes,duration_manipulation_targetAtFixation,jsons/v1_VE1000_randls_30.json,http://54.235.29.9/FacialAge/BNav_EC2/DepthDuration/v2_depth_duration_MTurk/v2_DepthDuration_HTML.html#236,236,1366,625,1366,768,9-3-2022,10-19-49,140,depth_duration_stimuli/001244_2014-06-17_16-47-45_260595134347_rgbf000030-resize_4/001244_2014-06-17_16-47-45_260595134347_rgbf000030-resize_4-target.png,1000,2.0425,3,4405,983,meters,jsons/v1_VE1000_randls_30.json,1417622,1596043,40,Man
140,905663,DepthScenes,duration_manipulation_targetAtFixation,jsons/v1_VE1000_randls_30.json,http://54.235.29.9/FacialAge/BNav_EC2/DepthDuration/v2_depth_duration_MTurk/v2_DepthDuration_HTML.html#236,236,1366,625,1366,768,9-3-2022,10-19-49,141,depth_duration_stimuli/003495_2014-05-21_16-01-51_094959634447_rgbf000100-resize_3/003495_2014-05-21_16-01-51_094959634447_rgbf000100-resize_3-target.png,1000,1.6255,4,4378,993,meters,jsons/v1_VE1000_randls_30.json,1417622,1596043,40,Man
141,905663,DepthScenes,duration_manipulation_targetAtFixation,jsons/v1_VE1000_randls_30.json,http://54.235.29.9/FacialAge/BNav_EC2/DepthDuration/v2_depth_duration_MTurk/v2_DepthDuration_HTML.html#236,236,1366,625,1366,768,9-3-2022,10-19-49,142,depth_duration_stimuli/002663_2014-06-13_15-50-26_094959634447_rgbf000075-resize_1/002663_2014-06-13_15-50-26_094959634447_rgbf000075-resize_1-target.png,1000,4.7495,4,5427,1013,meters,jsons/v1_VE1000_randls_30.json,1417622,1596043,40,Man
142,905663,DepthScenes,duration_manipulation_targetAtFixation,jsons/v1_VE1000_randls_30.json,http://54.235.29.9/FacialAge/BNav_EC2/DepthDuration/v2_depth_duration_MTurk/v2_DepthDuration_HTML.html#236,236,1366,625,1366,768,9-3-2022,10-19-49,143,depth_duration_stimuli/000409_2014-06-04_19-23-33_260595134347_rgbf000067-resize_0/000409_2014-06-04_19-23-33_260595134347_rgbf000067-resize_0-target.png,1000,3.7335,2,7948,985,meters,jsons/v1_VE1000_randls_30.json,1417622,1596043,40,Man
143,905663,DepthScenes,duration_manipulation_targetAtFixation,jsons/v1_VE1000_randls_30.json,http://54.235.29.9/FacialAge/BNav_EC2/DepthDuration/v2_depth_duration_MTurk/v2_DepthDuration_HTML.html#236,236,1366,625,1366,768,9-3-2022,10-19-49,144,depth_duration_stimuli/000917_2014-06-09_22-45-29_260595134347_rgbf000149-resize_3/000917_2014-06-09_22-45-29_260595134347_rgbf000149-resize_3-target.png,1000,4.1865,1,4304,999,meters,jsons/v1_VE1000_randls_30.json,1417622,1596043,40,Man
144,905663,DepthScenes,duration_manipulation_targetAtFixation,jsons/v1_VE1000_randls_30.json,http://54.235.29.9/FacialAge/BNav_EC2/DepthDuration/v2_depth_duration_MTurk/v2_DepthDuration_HTML.html#236,236,1366,625,1366,768,9-3-2022,10-19-49,145,depth_duration_stimuli/002323_2014-06-28_20-01-54_260595134347_rgbf000051-resize_4/002323_2014-06-28_20-01-54_260595134347_rgbf000051-resize_4-target.png,1000,3.7310000000000003,5,3944,989,meters,jsons/v1_VE1000_randls_30.json,1417622,1596043,40,Man
145,905663,DepthScenes,duration_manipulation_targetAtFixation,jsons/v1_VE1000_randls_30.json,http://54.235.29.9/FacialAge/BNav_EC2/DepthDuration/v2_depth_duration_MTurk/v2_DepthDuration_HTML.html#236,236,1366,625,1366,768,9-3-2022,10-19-49,146,depth_duration_stimuli/001498_2014-06-19_17-45-14_260595134347_rgbf000129-resize_4/001498_2014-06-19_17-45-14_260595134347_rgbf000129-resize-original.jpg,1000,1.4075,3,7658,976,meters,jsons/v1_VE1000_randls_30.json,1417622,1596043,40,Man
146,905663,DepthScenes,duration_manipulation_targetAtFixation,jsons/v1_VE1000_randls_30.json,http://54.235.29.9/FacialAge/BNav_EC2/DepthDuration/v2_depth_duration_MTurk/v2_DepthDuration_HTML.html#236,236,1366,625,1366,768,9-3-2022,10-19-49,147,depth_duration_stimuli/000773_2014-06-08_22-24-54_260595134347_rgbf000093-resize_1/000773_2014-06-08_22-24-54_260595134347_rgbf000093-resize_1-target.png,1000,4.973,3,12027,996,meters,jsons/v1_VE1000_randls_30.json,1417622,1596043,40,Man
147,905663,DepthScenes,duration_manipulation_targetAtFixation,jsons/v1_VE1000_randls_30.json,http://54.235.29.9/FacialAge/BNav_EC2/DepthDuration/v2_depth_duration_MTurk/v2_DepthDuration_HTML.html#236,236,1366,625,1366,768,9-3-2022,10-19-49,148,depth_duration_stimuli/002414_2014-06-28_20-24-58_260595134347_rgbf000067-resize_4/002414_2014-06-28_20-24-58_260595134347_rgbf000067-resize_4-target.png,1000,4.363,3,4358,994,meters,jsons/v1_VE1000_randls_30.json,1417622,1596043,40,Man
148,905663,DepthScenes,duration_manipulation_targetAtFixation,jsons/v1_VE1000_randls_30.json,http://54.235.29.9/FacialAge/BNav_EC2/DepthDuration/v2_depth_duration_MTurk/v2_DepthDuration_HTML.html#236,236,1366,625,1366,768,9-3-2022,10-19-49,149,depth_duration_stimuli/001029_2014-06-08_13-17-57_260595134347_rgbf000065-resize_1/001029_2014-06-08_13-17-57_260595134347_rgbf000065-resize_1-target.png,1000,3.0835,4,5189,986,meters,jsons/v1_VE1000_randls_30.json,1417622,1596043,40,Man
149,905663,DepthScenes,duration_manipulation_targetAtFixation,jsons/v1_VE1000_randls_30.json,http://54.235.29.9/FacialAge/BNav_EC2/DepthDuration/v2_depth_duration_MTurk/v2_DepthDuration_HTML.html#236,236,1366,625,1366,768,9-3-2022,10-19-49,150,depth_duration_stimuli/000677_2014-06-08_23-10-32_260595134347_rgbf000158-resize_6/000677_2014-06-08_23-10-32_260595134347_rgbf000158-resize_6-target.png,1000,3.556,5,4304,1000,meters,jsons/v1_VE1000_randls_30.json,1417622,1596043,40,Man
150,905663,DepthScenes,duration_manipulation_targetAtFixation,jsons/v1_VE1000_randls_30.json,http://54.235.29.9/FacialAge/BNav_EC2/DepthDuration/v2_depth_duration_MTurk/v2_DepthDuration_HTML.html#236,236,1366,625,1366,768,9-3-2022,10-19-49,151,depth_duration_stimuli/000906_2014-06-08_13-35-43_260595134347_rgbf000155-resize_1/000906_2014-06-08_13-35-43_260595134347_rgbf000155-resize_1-target.png,1000,2.8489999999999998,2,4683,1000,meters,jsons/v1_VE1000_randls_30.json,1417622,1596043,40,Man
151,905663,DepthScenes,duration_manipulation_targetAtFixation,jsons/v1_VE1000_randls_30.json,http://54.235.29.9/FacialAge/BNav_EC2/DepthDuration/v2_depth_duration_MTurk/v2_DepthDuration_HTML.html#236,236,1366,625,1366,768,9-3-2022,10-19-49,152,depth_duration_stimuli/002805_2014-06-22_19-54-03_094959634447_rgbf000079-resize_1/002805_2014-06-22_19-54-03_094959634447_rgbf000079-resize_1-target.png,1000,3.1439999999999997,1,11953,1012,meters,jsons/v1_VE1000_randls_30.json,1417622,1596043,40,Man
152,905663,DepthScenes,duration_manipulation_targetAtFixation,jsons/v1_VE1000_randls_30.json,http://54.235.29.9/FacialAge/BNav_EC2/DepthDuration/v2_depth_duration_MTurk/v2_DepthDuration_HTML.html#236,236,1366,625,1366,768,9-3-2022,10-19-49,153,depth_duration_stimuli/000522_2014-06-08_13-35-06_260595134347_rgbf000244-resize_1/000522_2014-06-08_13-35-06_260595134347_rgbf000244-resize_1-target.png,1000,2.3715,2,3839,996,meters,jsons/v1_VE1000_randls_30.json,1417622,1596043,40,Man
153,905663,DepthScenes,duration_manipulation_targetAtFixation,jsons/v1_VE1000_randls_30.json,http://54.235.29.9/FacialAge/BNav_EC2/DepthDuration/v2_depth_duration_MTurk/v2_DepthDuration_HTML.html#236,236,1366,625,1366,768,9-3-2022,10-19-49,154,depth_duration_stimuli/002949_2014-06-26_15-57-42_094959634447_rgbf000079-resize_1/002949_2014-06-26_15-57-42_094959634447_rgbf000079-resize_1-target.png,1000,1.8915,3,3965,995,meters,jsons/v1_VE1000_randls_30.json,1417622,1596043,40,Man
154,905663,DepthScenes,duration_manipulation_targetAtFixation,jsons/v1_VE1000_randls_30.json,http://54.235.29.9/FacialAge/BNav_EC2/DepthDuration/v2_depth_duration_MTurk/v2_DepthDuration_HTML.html#236,236,1366,625,1366,768,9-3-2022,10-19-49,155,depth_duration_stimuli/001110_2014-06-15_17-25-28_260595134347_rgbf000150-resize_1/001110_2014-06-15_17-25-28_260595134347_rgbf000150-resize_1-target.png,1000,1.7115,2,4077,1003,meters,jsons/v1_VE1000_randls_30.json,1417622,1596043,40,Man
155,905663,DepthScenes,duration_manipulation_targetAtFixation,jsons/v1_VE1000_randls_30.json,http://54.235.29.9/FacialAge/BNav_EC2/DepthDuration/v2_depth_duration_MTurk/v2_DepthDuration_HTML.html#236,236,1366,625,1366,768,9-3-2022,10-19-49,156,depth_duration_stimuli/000927_2014-06-09_16-32-30_260595134347_rgbf000123-resize_3/000927_2014-06-09_16-32-30_260595134347_rgbf000123-resize_3-target.png,1000,2.6785,2,3642,995,meters,jsons/v1_VE1000_randls_30.json,1417622,1596043,40,Man
156,905663,DepthScenes,duration_manipulation_targetAtFixation,jsons/v1_VE1000_randls_30.json,http://54.235.29.9/FacialAge/BNav_EC2/DepthDuration/v2_depth_duration_MTurk/v2_DepthDuration_HTML.html#236,236,1366,625,1366,768,9-3-2022,10-19-49,157,depth_duration_stimuli/000878_2014-06-08_22-52-45_260595134347_rgbf000045-resize_2/000878_2014-06-08_22-52-45_260595134347_rgbf000045-resize_2-target.png,1000,2.092,2,4154,976,meters,jsons/v1_VE1000_randls_30.json,1417622,1596043,40,Man
157,905663,DepthScenes,duration_manipulation_targetAtFixation,jsons/v1_VE1000_randls_30.json,http://54.235.29.9/FacialAge/BNav_EC2/DepthDuration/v2_depth_duration_MTurk/v2_DepthDuration_HTML.html#236,236,1366,625,1366,768,9-3-2022,10-19-49,158,depth_duration_stimuli/002953_2014-06-08_17-32-18_094959634447_rgbf000059-resize_5/002953_2014-06-08_17-32-18_094959634447_rgbf000059-resize_5-target.png,1000,1.551,2,4057,983,meters,jsons/v1_VE1000_randls_30.json,1417622,1596043,40,Man
158,905663,DepthScenes,duration_manipulation_targetAtFixation,jsons/v1_VE1000_randls_30.json,http://54.235.29.9/FacialAge/BNav_EC2/DepthDuration/v2_depth_duration_MTurk/v2_DepthDuration_HTML.html#236,236,1366,625,1366,768,9-3-2022,10-19-49,159,depth_duration_stimuli/001199_2014-06-17_16-03-48_260595134347_rgbf000077-resize_0/001199_2014-06-17_16-03-48_260595134347_rgbf000077-resize_0-target.png,1000,3.4375,2,3749,988,meters,jsons/v1_VE1000_randls_30.json,1417622,1596043,40,Man
159,905663,DepthScenes,duration_manipulation_targetAtFixation,jsons/v1_VE1000_randls_30.json,http://54.235.29.9/FacialAge/BNav_EC2/DepthDuration/v2_depth_duration_MTurk/v2_DepthDuration_HTML.html#236,236,1366,625,1366,768,9-3-2022,10-19-49,160,depth_duration_stimuli/000502_2014-06-08_23-02-32_260595134347_rgbf000063-resize_4/000502_2014-06-08_23-02-32_260595134347_rgbf000063-resize_4-target.png,1000,2.431,2,5293,987,meters,jsons/v1_VE1000_randls_30.json,1417622,1596043,40,Man
160,905663,DepthScenes,duration_manipulation_targetAtFixation,jsons/v1_VE1000_randls_30.json,http://54.235.29.9/FacialAge/BNav_EC2/DepthDuration/v2_depth_duration_MTurk/v2_DepthDuration_HTML.html#236,236,1366,625,1366,768,9-3-2022,10-19-49,161,depth_duration_stimuli/002788_2014-06-22_19-36-03_094959634447_rgbf000088-resize_2/002788_2014-06-22_19-36-03_094959634447_rgbf000088-resize_2-target.png,1000,1.6465,2,3894,998,meters,jsons/v1_VE1000_randls_30.json,1417622,1596043,40,Man
161,905663,DepthScenes,duration_manipulation_targetAtFixation,jsons/v1_VE1000_randls_30.json,http://54.235.29.9/FacialAge/BNav_EC2/DepthDuration/v2_depth_duration_MTurk/v2_DepthDuration_HTML.html#236,236,1366,625,1366,768,9-3-2022,10-19-49,162,depth_duration_stimuli/000749_2014-06-08_21-55-06_260595134347_rgbf000070-resize_2/000749_2014-06-08_21-55-06_260595134347_rgbf000070-resize_2-target.png,1000,2.331,1,4766,992,meters,jsons/v1_VE1000_randls_30.json,1417622,1596043,40,Man
162,905663,DepthScenes,duration_manipulation_targetAtFixation,jsons/v1_VE1000_randls_30.json,http://54.235.29.9/FacialAge/BNav_EC2/DepthDuration/v2_depth_duration_MTurk/v2_DepthDuration_HTML.html#236,236,1366,625,1366,768,9-3-2022,10-19-49,163,depth_duration_stimuli/002375_2014-06-28_20-13-44_260595134347_rgbf000032-resize_1/002375_2014-06-28_20-13-44_260595134347_rgbf000032-resize_1-target.png,1000,4.0175,2,4019,999,meters,jsons/v1_VE1000_randls_30.json,1417622,1596043,40,Man
163,905663,DepthScenes,duration_manipulation_targetAtFixation,jsons/v1_VE1000_randls_30.json,http://54.235.29.9/FacialAge/BNav_EC2/DepthDuration/v2_depth_duration_MTurk/v2_DepthDuration_HTML.html#236,236,1366,625,1366,768,9-3-2022,10-19-49,164,depth_duration_stimuli/002657_2014-06-13_15-29-54_094959634447_rgbf000150-resize_1/002657_2014-06-13_15-29-54_094959634447_rgbf000150-resize_1-target.png,1000,4.919,2,26000,988,meters,jsons/v1_VE1000_randls_30.json,1417622,1596043,40,Man
