,subjID,experimentName,versionName,sequenceName,url,selected_row,windowWidth,windowHeight,screenWidth,screenHeight,startDate,startTime,trial,stimulus,duration,actual_depth,depth_estimate,trial_RT,log_sceneDuration,unitSelection,seq_filepath,experimentTime,totalTime,age,gender
0,907260,DepthScenes,duration_manipulation_targetAtFixation,jsons/VE83_randls_36_rotated.json,http://54.235.29.9/FacialAge/BNav_EC2/DepthDuration/v2_depth_duration_MTurk/v2_DepthDuration_HTML.html#7,7,1821,1024,1366,768,8-29-2023,12-18-58,1,depth_duration_stimuli/002750_2014-06-22_19-08-03_094959634447_rgbf000094-resize_4/002750_2014-06-22_19-08-03_094959634447_rgbf000094-resize_4-target.png,83,2.354,35,4954,82,meters,jsons/VE83_randls_36_rotated.json,688530,1005116,25,Woman
1,907260,DepthScenes,duration_manipulation_targetAtFixation,jsons/VE83_randls_36_rotated.json,http://54.235.29.9/FacialAge/BNav_EC2/DepthDuration/v2_depth_duration_MTurk/v2_DepthDuration_HTML.html#7,7,1821,1024,1366,768,8-29-2023,12-18-58,2,depth_duration_stimuli/002549_2014-06-24_13-41-39_094959634447_rgbf000022-resize_3/002549_2014-06-24_13-41-39_094959634447_rgbf000022-resize_3-target.png,83,1.476,20,3041,83,meters,jsons/VE83_randls_36_rotated.json,688530,1005116,25,Woman
2,907260,DepthScenes,duration_manipulation_targetAtFixation,jsons/VE83_randls_36_rotated.json,http://54.235.29.9/FacialAge/BNav_EC2/DepthDuration/v2_depth_duration_MTurk/v2_DepthDuration_HTML.html#7,7,1821,1024,1366,768,8-29-2023,12-18-58,3,depth_duration_stimuli/003490_2014-05-21_15-50-11_094959634447_rgbf000101-resize_3/003490_2014-05-21_15-50-11_094959634447_rgbf000101-resize_3-target.png,83,3.6445,35,3177,83,meters,jsons/VE83_randls_36_rotated.json,688530,1005116,25,Woman
3,907260,DepthScenes,duration_manipulation_targetAtFixation,jsons/VE83_randls_36_rotated.json,http://54.235.29.9/FacialAge/BNav_EC2/DepthDuration/v2_depth_duration_MTurk/v2_DepthDuration_HTML.html#7,7,1821,1024,1366,768,8-29-2023,12-18-58,4,depth_duration_stimuli/001175_2014-06-17_15-45-55_260595134347_rgbf000129-resize_4/001175_2014-06-17_15-45-55_260595134347_rgbf000129-resize_4-target.png,83,4.255,55,2963,83,meters,jsons/VE83_randls_36_rotated.json,688530,1005116,25,Woman
4,907260,DepthScenes,duration_manipulation_targetAtFixation,jsons/VE83_randls_36_rotated.json,http://54.235.29.9/FacialAge/BNav_EC2/DepthDuration/v2_depth_duration_MTurk/v2_DepthDuration_HTML.html#7,7,1821,1024,1366,768,8-29-2023,12-18-58,5,depth_duration_stimuli/003495_2014-05-21_16-01-51_094959634447_rgbf000100-resize_3/003495_2014-05-21_16-01-51_094959634447_rgbf000100-resize_3-target.png,83,1.6255,25,3667,83,meters,jsons/VE83_randls_36_rotated.json,688530,1005116,25,Woman
5,907260,DepthScenes,duration_manipulation_targetAtFixation,jsons/VE83_randls_36_rotated.json,http://54.235.29.9/FacialAge/BNav_EC2/DepthDuration/v2_depth_duration_MTurk/v2_DepthDuration_HTML.html#7,7,1821,1024,1366,768,8-29-2023,12-18-58,6,depth_duration_stimuli/001244_2014-06-17_16-47-45_260595134347_rgbf000030-resize_4/001244_2014-06-17_16-47-45_260595134347_rgbf000030-resize_4-target.png,83,2.0425,50,3139,84,meters,jsons/VE83_randls_36_rotated.json,688530,1005116,25,Woman
6,907260,DepthScenes,duration_manipulation_targetAtFixation,jsons/VE83_randls_36_rotated.json,http://54.235.29.9/FacialAge/BNav_EC2/DepthDuration/v2_depth_duration_MTurk/v2_DepthDuration_HTML.html#7,7,1821,1024,1366,768,8-29-2023,12-18-58,7,depth_duration_stimuli/001571_2014-06-20_17-21-32_260595134347_rgbf000089-resize_1/001571_2014-06-20_17-21-32_260595134347_rgbf000089-resize_1-target.png,83,1.86,50,2924,83,meters,jsons/VE83_randls_36_rotated.json,688530,1005116,25,Woman
7,907260,DepthScenes,duration_manipulation_targetAtFixation,jsons/VE83_randls_36_rotated.json,http://54.235.29.9/FacialAge/BNav_EC2/DepthDuration/v2_depth_duration_MTurk/v2_DepthDuration_HTML.html#7,7,1821,1024,1366,768,8-29-2023,12-18-58,8,depth_duration_stimuli/002272_2014-06-28_18-53-56_260595134347_rgbf000067-resize_2/002272_2014-06-28_18-53-56_260595134347_rgbf000067-resize_2-target.png,83,1.138,35,2963,84,meters,jsons/VE83_randls_36_rotated.json,688530,1005116,25,Woman
8,907260,DepthScenes,duration_manipulation_targetAtFixation,jsons/VE83_randls_36_rotated.json,http://54.235.29.9/FacialAge/BNav_EC2/DepthDuration/v2_depth_duration_MTurk/v2_DepthDuration_HTML.html#7,7,1821,1024,1366,768,8-29-2023,12-18-58,9,depth_duration_stimuli/002103_2014-06-25_20-00-40_260595134347_rgbf000049-resize_0/002103_2014-06-25_20-00-40_260595134347_rgbf000049-resize_0-target.png,83,4.105,45,3259,84,meters,jsons/VE83_randls_36_rotated.json,688530,1005116,25,Woman
9,907260,DepthScenes,duration_manipulation_targetAtFixation,jsons/VE83_randls_36_rotated.json,http://54.235.29.9/FacialAge/BNav_EC2/DepthDuration/v2_depth_duration_MTurk/v2_DepthDuration_HTML.html#7,7,1821,1024,1366,768,8-29-2023,12-18-58,10,depth_duration_stimuli/002039_2014-06-24_20-22-38_260595134347_rgbf000084-resize_1/002039_2014-06-24_20-22-38_260595134347_rgbf000084-resize_1-target.png,83,4.408,70,3369,82,meters,jsons/VE83_randls_36_rotated.json,688530,1005116,25,Woman
10,907260,DepthScenes,duration_manipulation_targetAtFixation,jsons/VE83_randls_36_rotated.json,http://54.235.29.9/FacialAge/BNav_EC2/DepthDuration/v2_depth_duration_MTurk/v2_DepthDuration_HTML.html#7,7,1821,1024,1366,768,8-29-2023,12-18-58,11,depth_duration_stimuli/002657_2014-06-13_15-29-54_094959634447_rgbf000150-resize_1/002657_2014-06-13_15-29-54_094959634447_rgbf000150-resize_1-target.png,83,4.919,65,3242,84,meters,jsons/VE83_randls_36_rotated.json,688530,1005116,25,Woman
11,907260,DepthScenes,duration_manipulation_targetAtFixation,jsons/VE83_randls_36_rotated.json,http://54.235.29.9/FacialAge/BNav_EC2/DepthDuration/v2_depth_duration_MTurk/v2_DepthDuration_HTML.html#7,7,1821,1024,1366,768,8-29-2023,12-18-58,12,depth_duration_stimuli/002375_2014-06-28_20-13-44_260595134347_rgbf000032-resize_1/002375_2014-06-28_20-13-44_260595134347_rgbf000032-resize_1-target.png,83,4.0175,45,3291,84,meters,jsons/VE83_randls_36_rotated.json,688530,1005116,25,Woman
12,907260,DepthScenes,duration_manipulation_targetAtFixation,jsons/VE83_randls_36_rotated.json,http://54.235.29.9/FacialAge/BNav_EC2/DepthDuration/v2_depth_duration_MTurk/v2_DepthDuration_HTML.html#7,7,1821,1024,1366,768,8-29-2023,12-18-58,13,depth_duration_stimuli/002758_2014-06-22_19-11-20_094959634447_rgbf000128-resize_1/002758_2014-06-22_19-11-20_094959634447_rgbf000128-resize_1-target.png,83,2.555,55,5355,83,meters,jsons/VE83_randls_36_rotated.json,688530,1005116,25,Woman
13,907260,DepthScenes,duration_manipulation_targetAtFixation,jsons/VE83_randls_36_rotated.json,http://54.235.29.9/FacialAge/BNav_EC2/DepthDuration/v2_depth_duration_MTurk/v2_DepthDuration_HTML.html#7,7,1821,1024,1366,768,8-29-2023,12-18-58,14,depth_duration_stimuli/002630_2014-06-24_14-47-50_094959634447_rgbf000055-resize_1/002630_2014-06-24_14-47-50_094959634447_rgbf000055-resize_1-target.png,83,3.0095,72,3491,83,meters,jsons/VE83_randls_36_rotated.json,688530,1005116,25,Woman
14,907260,DepthScenes,duration_manipulation_targetAtFixation,jsons/VE83_randls_36_rotated.json,http://54.235.29.9/FacialAge/BNav_EC2/DepthDuration/v2_depth_duration_MTurk/v2_DepthDuration_HTML.html#7,7,1821,1024,1366,768,8-29-2023,12-18-58,15,depth_duration_stimuli/002340_2014-06-28_20-05-46_260595134347_rgbf000113-resize_0/002340_2014-06-28_20-05-46_260595134347_rgbf000113-resize_0-target.png,83,2.4735,35,3115,84,meters,jsons/VE83_randls_36_rotated.json,688530,1005116,25,Woman
15,907260,DepthScenes,duration_manipulation_targetAtFixation,jsons/VE83_randls_36_rotated.json,http://54.235.29.9/FacialAge/BNav_EC2/DepthDuration/v2_depth_duration_MTurk/v2_DepthDuration_HTML.html#7,7,1821,1024,1366,768,8-29-2023,12-18-58,16,depth_duration_stimuli/001016_2014-06-09_16-16-10_260595134347_rgbf000112-resize_5/001016_2014-06-09_16-16-10_260595134347_rgbf000112-resize_5-target.png,83,1.6565,45,3771,84,meters,jsons/VE83_randls_36_rotated.json,688530,1005116,25,Woman
16,907260,DepthScenes,duration_manipulation_targetAtFixation,jsons/VE83_randls_36_rotated.json,http://54.235.29.9/FacialAge/BNav_EC2/DepthDuration/v2_depth_duration_MTurk/v2_DepthDuration_HTML.html#7,7,1821,1024,1366,768,8-29-2023,12-18-58,17,depth_duration_stimuli/000502_2014-06-08_23-02-32_260595134347_rgbf000063-resize_4/000502_2014-06-08_23-02-32_260595134347_rgbf000063-resize_4-target.png,83,2.431,50,2834,84,meters,jsons/VE83_randls_36_rotated.json,688530,1005116,25,Woman
17,907260,DepthScenes,duration_manipulation_targetAtFixation,jsons/VE83_randls_36_rotated.json,http://54.235.29.9/FacialAge/BNav_EC2/DepthDuration/v2_depth_duration_MTurk/v2_DepthDuration_HTML.html#7,7,1821,1024,1366,768,8-29-2023,12-18-58,18,depth_duration_stimuli/001199_2014-06-17_16-03-48_260595134347_rgbf000077-resize_0/001199_2014-06-17_16-03-48_260595134347_rgbf000077-resize_0-target.png,83,3.4375,65,3347,84,meters,jsons/VE83_randls_36_rotated.json,688530,1005116,25,Woman
18,907260,DepthScenes,duration_manipulation_targetAtFixation,jsons/VE83_randls_36_rotated.json,http://54.235.29.9/FacialAge/BNav_EC2/DepthDuration/v2_depth_duration_MTurk/v2_DepthDuration_HTML.html#7,7,1821,1024,1366,768,8-29-2023,12-18-58,19,depth_duration_stimuli/001498_2014-06-19_17-45-14_260595134347_rgbf000129-resize_4/001498_2014-06-19_17-45-14_260595134347_rgbf000129-resize-original.jpg,83,1.4075,52,5914,82,meters,jsons/VE83_randls_36_rotated.json,688530,1005116,25,Woman
19,907260,DepthScenes,duration_manipulation_targetAtFixation,jsons/VE83_randls_36_rotated.json,http://54.235.29.9/FacialAge/BNav_EC2/DepthDuration/v2_depth_duration_MTurk/v2_DepthDuration_HTML.html#7,7,1821,1024,1366,768,8-29-2023,12-18-58,20,depth_duration_stimuli/000191_2014-05-12_17-07-38_260595134347_rgbf000199-resize_0/000191_2014-05-12_17-07-38_260595134347_rgbf000199-resize_0-target.png,83,3.7995,70,3587,82,meters,jsons/VE83_randls_36_rotated.json,688530,1005116,25,Woman
20,907260,DepthScenes,duration_manipulation_targetAtFixation,jsons/VE83_randls_36_rotated.json,http://54.235.29.9/FacialAge/BNav_EC2/DepthDuration/v2_depth_duration_MTurk/v2_DepthDuration_HTML.html#7,7,1821,1024,1366,768,8-29-2023,12-18-58,21,depth_duration_stimuli/000493_2014-06-09_21-01-18_260595134347_rgbf000196-resize_3/000493_2014-06-09_21-01-18_260595134347_rgbf000196-resize_3-target.png,83,3.44,75,3052,82,meters,jsons/VE83_randls_36_rotated.json,688530,1005116,25,Woman
21,907260,DepthScenes,duration_manipulation_targetAtFixation,jsons/VE83_randls_36_rotated.json,http://54.235.29.9/FacialAge/BNav_EC2/DepthDuration/v2_depth_duration_MTurk/v2_DepthDuration_HTML.html#7,7,1821,1024,1366,768,8-29-2023,12-18-58,22,depth_duration_stimuli/002995_2014-06-15_12-31-26_094959634447_rgbf000150-resize_1/002995_2014-06-15_12-31-26_094959634447_rgbf000150-resize_1-target.png,83,3.8360000000000003,25,3808,83,meters,jsons/VE83_randls_36_rotated.json,688530,1005116,25,Woman
22,907260,DepthScenes,duration_manipulation_targetAtFixation,jsons/VE83_randls_36_rotated.json,http://54.235.29.9/FacialAge/BNav_EC2/DepthDuration/v2_depth_duration_MTurk/v2_DepthDuration_HTML.html#7,7,1821,1024,1366,768,8-29-2023,12-18-58,23,depth_duration_stimuli/002748_2014-06-22_19-07-22_094959634447_rgbf000078-resize_1/002748_2014-06-22_19-07-22_094959634447_rgbf000078-resize_1-target.png,83,4.6705,80,2936,82,meters,jsons/VE83_randls_36_rotated.json,688530,1005116,25,Woman
23,907260,DepthScenes,duration_manipulation_targetAtFixation,jsons/VE83_randls_36_rotated.json,http://54.235.29.9/FacialAge/BNav_EC2/DepthDuration/v2_depth_duration_MTurk/v2_DepthDuration_HTML.html#7,7,1821,1024,1366,768,8-29-2023,12-18-58,24,depth_duration_stimuli/001094_2014-06-15_17-36-00_260595134347_rgbf000205-resize_0/001094_2014-06-15_17-36-00_260595134347_rgbf000205-resize_0-target.png,83,4.2175,85,3468,83,meters,jsons/VE83_randls_36_rotated.json,688530,1005116,25,Woman
24,907260,DepthScenes,duration_manipulation_targetAtFixation,jsons/VE83_randls_36_rotated.json,http://54.235.29.9/FacialAge/BNav_EC2/DepthDuration/v2_depth_duration_MTurk/v2_DepthDuration_HTML.html#7,7,1821,1024,1366,768,8-29-2023,12-18-58,25,depth_duration_stimuli/000692_2014-06-08_13-09-42_260595134347_rgbf000199-resize_2/000692_2014-06-08_13-09-42_260595134347_rgbf000199-resize_2-target.png,83,3.661,95,2964,84,meters,jsons/VE83_randls_36_rotated.json,688530,1005116,25,Woman
25,907260,DepthScenes,duration_manipulation_targetAtFixation,jsons/VE83_randls_36_rotated.json,http://54.235.29.9/FacialAge/BNav_EC2/DepthDuration/v2_depth_duration_MTurk/v2_DepthDuration_HTML.html#7,7,1821,1024,1366,768,8-29-2023,12-18-58,26,depth_duration_stimuli/002639_2014-06-24_14-51-37_094959634447_rgbf000074-resize_4/002639_2014-06-24_14-51-37_094959634447_rgbf000074-resize_4-target.png,83,4.0375,85,3177,84,meters,jsons/VE83_randls_36_rotated.json,688530,1005116,25,Woman
26,907260,DepthScenes,duration_manipulation_targetAtFixation,jsons/VE83_randls_36_rotated.json,http://54.235.29.9/FacialAge/BNav_EC2/DepthDuration/v2_depth_duration_MTurk/v2_DepthDuration_HTML.html#7,7,1821,1024,1366,768,8-29-2023,12-18-58,27,depth_duration_stimuli/003292_2014-05-14_21-53-49_094959634447_rgbf000100-resize_2/003292_2014-05-14_21-53-49_094959634447_rgbf000100-resize_2-target.png,83,3.4815,75,2786,84,meters,jsons/VE83_randls_36_rotated.json,688530,1005116,25,Woman
27,907260,DepthScenes,duration_manipulation_targetAtFixation,jsons/VE83_randls_36_rotated.json,http://54.235.29.9/FacialAge/BNav_EC2/DepthDuration/v2_depth_duration_MTurk/v2_DepthDuration_HTML.html#7,7,1821,1024,1366,768,8-29-2023,12-18-58,28,depth_duration_stimuli/000409_2014-06-04_19-23-33_260595134347_rgbf000067-resize_0/000409_2014-06-04_19-23-33_260595134347_rgbf000067-resize_0-target.png,83,3.7335,45,3002,82,meters,jsons/VE83_randls_36_rotated.json,688530,1005116,25,Woman
28,907260,DepthScenes,duration_manipulation_targetAtFixation,jsons/VE83_randls_36_rotated.json,http://54.235.29.9/FacialAge/BNav_EC2/DepthDuration/v2_depth_duration_MTurk/v2_DepthDuration_HTML.html#7,7,1821,1024,1366,768,8-29-2023,12-18-58,29,depth_duration_stimuli/002663_2014-06-13_15-50-26_094959634447_rgbf000075-resize_1/002663_2014-06-13_15-50-26_094959634447_rgbf000075-resize_1-target.png,83,4.7495,55,3203,83,meters,jsons/VE83_randls_36_rotated.json,688530,1005116,25,Woman
29,907260,DepthScenes,duration_manipulation_targetAtFixation,jsons/VE83_randls_36_rotated.json,http://54.235.29.9/FacialAge/BNav_EC2/DepthDuration/v2_depth_duration_MTurk/v2_DepthDuration_HTML.html#7,7,1821,1024,1366,768,8-29-2023,12-18-58,30,depth_duration_stimuli/002072_2014-06-24_21-48-06_260595134347_rgbf000115-resize_0/002072_2014-06-24_21-48-06_260595134347_rgbf000115-resize-original.jpg,83,4.702,42,7651,84,meters,jsons/VE83_randls_36_rotated.json,688530,1005116,25,Woman
30,907260,DepthScenes,duration_manipulation_targetAtFixation,jsons/VE83_randls_36_rotated.json,http://54.235.29.9/FacialAge/BNav_EC2/DepthDuration/v2_depth_duration_MTurk/v2_DepthDuration_HTML.html#7,7,1821,1024,1366,768,8-29-2023,12-18-58,31,depth_duration_stimuli/000109_2014-05-14_23-41-52_260595134347_rgbf000035-resize_9/000109_2014-05-14_23-41-52_260595134347_rgbf000035-resize_9-target.png,83,1.3545,35,3113,83,meters,jsons/VE83_randls_36_rotated.json,688530,1005116,25,Woman
31,907260,DepthScenes,duration_manipulation_targetAtFixation,jsons/VE83_randls_36_rotated.json,http://54.235.29.9/FacialAge/BNav_EC2/DepthDuration/v2_depth_duration_MTurk/v2_DepthDuration_HTML.html#7,7,1821,1024,1366,768,8-29-2023,12-18-58,32,depth_duration_stimuli/000470_2014-06-09_19-42-40_260595134347_rgbf000094-resize_1/000470_2014-06-09_19-42-40_260595134347_rgbf000094-resize_1-target.png,83,1.831,20,4612,83,meters,jsons/VE83_randls_36_rotated.json,688530,1005116,25,Woman
32,907260,DepthScenes,duration_manipulation_targetAtFixation,jsons/VE83_randls_36_rotated.json,http://54.235.29.9/FacialAge/BNav_EC2/DepthDuration/v2_depth_duration_MTurk/v2_DepthDuration_HTML.html#7,7,1821,1024,1366,768,8-29-2023,12-18-58,33,depth_duration_stimuli/001650_2014-06-20_12-09-00_260595134347_rgbf000087-resize_3/001650_2014-06-20_12-09-00_260595134347_rgbf000087-resize_3-target.png,83,1.9505,15,2923,84,meters,jsons/VE83_randls_36_rotated.json,688530,1005116,25,Woman
33,907260,DepthScenes,duration_manipulation_targetAtFixation,jsons/VE83_randls_36_rotated.json,http://54.235.29.9/FacialAge/BNav_EC2/DepthDuration/v2_depth_duration_MTurk/v2_DepthDuration_HTML.html#7,7,1821,1024,1366,768,8-29-2023,12-18-58,34,depth_duration_stimuli/000682_2014-06-08_23-14-58_260595134347_rgbf000041-resize_5/000682_2014-06-08_23-14-58_260595134347_rgbf000041-resize_5-target.png,83,2.7239999999999998,35,3034,84,meters,jsons/VE83_randls_36_rotated.json,688530,1005116,25,Woman
34,907260,DepthScenes,duration_manipulation_targetAtFixation,jsons/VE83_randls_36_rotated.json,http://54.235.29.9/FacialAge/BNav_EC2/DepthDuration/v2_depth_duration_MTurk/v2_DepthDuration_HTML.html#7,7,1821,1024,1366,768,8-29-2023,12-18-58,35,depth_duration_stimuli/000103_2014-05-14_22-01-17_260595134347_rgbf000152-resize_5/000103_2014-05-14_22-01-17_260595134347_rgbf000152-resize_5-target.png,83,1.993,40,3794,83,meters,jsons/VE83_randls_36_rotated.json,688530,1005116,25,Woman
35,907260,DepthScenes,duration_manipulation_targetAtFixation,jsons/VE83_randls_36_rotated.json,http://54.235.29.9/FacialAge/BNav_EC2/DepthDuration/v2_depth_duration_MTurk/v2_DepthDuration_HTML.html#7,7,1821,1024,1366,768,8-29-2023,12-18-58,36,depth_duration_stimuli/001555_2014-06-20_17-12-10_260595134347_rgbf000065-resize_4/001555_2014-06-20_17-12-10_260595134347_rgbf000065-resize_4-target.png,83,1.633,25,3219,84,meters,jsons/VE83_randls_36_rotated.json,688530,1005116,25,Woman
36,907260,DepthScenes,duration_manipulation_targetAtFixation,jsons/VE83_randls_36_rotated.json,http://54.235.29.9/FacialAge/BNav_EC2/DepthDuration/v2_depth_duration_MTurk/v2_DepthDuration_HTML.html#7,7,1821,1024,1366,768,8-29-2023,12-18-58,37,depth_duration_stimuli/001214_2014-06-17_16-13-55_260595134347_rgbf000111-resize_0/001214_2014-06-17_16-13-55_260595134347_rgbf000111-resize_0-target.png,83,2.6505,36,4331,84,meters,jsons/VE83_randls_36_rotated.json,688530,1005116,25,Woman
37,907260,DepthScenes,duration_manipulation_targetAtFixation,jsons/VE83_randls_36_rotated.json,http://54.235.29.9/FacialAge/BNav_EC2/DepthDuration/v2_depth_duration_MTurk/v2_DepthDuration_HTML.html#7,7,1821,1024,1366,768,8-29-2023,12-18-58,38,depth_duration_stimuli/000810_2014-06-08_17-20-01_260595134347_rgbf000105-resize_0/000810_2014-06-08_17-20-01_260595134347_rgbf000105-resize_0-target.png,83,1.4865,42,3251,83,meters,jsons/VE83_randls_36_rotated.json,688530,1005116,25,Woman
38,907260,DepthScenes,duration_manipulation_targetAtFixation,jsons/VE83_randls_36_rotated.json,http://54.235.29.9/FacialAge/BNav_EC2/DepthDuration/v2_depth_duration_MTurk/v2_DepthDuration_HTML.html#7,7,1821,1024,1366,768,8-29-2023,12-18-58,39,depth_duration_stimuli/000677_2014-06-08_23-10-32_260595134347_rgbf000158-resize_6/000677_2014-06-08_23-10-32_260595134347_rgbf000158-resize_6-target.png,83,3.556,56,3115,83,meters,jsons/VE83_randls_36_rotated.json,688530,1005116,25,Woman
39,907260,DepthScenes,duration_manipulation_targetAtFixation,jsons/VE83_randls_36_rotated.json,http://54.235.29.9/FacialAge/BNav_EC2/DepthDuration/v2_depth_duration_MTurk/v2_DepthDuration_HTML.html#7,7,1821,1024,1366,768,8-29-2023,12-18-58,40,depth_duration_stimuli/001029_2014-06-08_13-17-57_260595134347_rgbf000065-resize_1/001029_2014-06-08_13-17-57_260595134347_rgbf000065-resize_1-target.png,83,3.0835,66,3481,81,meters,jsons/VE83_randls_36_rotated.json,688530,1005116,25,Woman
40,907260,DepthScenes,duration_manipulation_targetAtFixation,jsons/VE83_randls_36_rotated.json,http://54.235.29.9/FacialAge/BNav_EC2/DepthDuration/v2_depth_duration_MTurk/v2_DepthDuration_HTML.html#7,7,1821,1024,1366,768,8-29-2023,12-18-58,41,depth_duration_stimuli/002637_2014-06-24_14-51-13_094959634447_rgbf000066-resize_4/002637_2014-06-24_14-51-13_094959634447_rgbf000066-resize_4-target.png,83,1.9955,71,3299,85,meters,jsons/VE83_randls_36_rotated.json,688530,1005116,25,Woman
41,907260,DepthScenes,duration_manipulation_targetAtFixation,jsons/VE83_randls_36_rotated.json,http://54.235.29.9/FacialAge/BNav_EC2/DepthDuration/v2_depth_duration_MTurk/v2_DepthDuration_HTML.html#7,7,1821,1024,1366,768,8-29-2023,12-18-58,42,depth_duration_stimuli/003534_2014-05-22_15-06-10_094959634447_rgbf000102-resize_4/003534_2014-05-22_15-06-10_094959634447_rgbf000102-resize_4-target.png,83,1.426,45,3819,84,meters,jsons/VE83_randls_36_rotated.json,688530,1005116,25,Woman
42,907260,DepthScenes,duration_manipulation_targetAtFixation,jsons/VE83_randls_36_rotated.json,http://54.235.29.9/FacialAge/BNav_EC2/DepthDuration/v2_depth_duration_MTurk/v2_DepthDuration_HTML.html#7,7,1821,1024,1366,768,8-29-2023,12-18-58,43,depth_duration_stimuli/001584_2014-06-20_11-07-43_260595134347_rgbf000002-resize_1/001584_2014-06-20_11-07-43_260595134347_rgbf000002-resize_1-target.png,83,3.53,55,3475,83,meters,jsons/VE83_randls_36_rotated.json,688530,1005116,25,Woman
43,907260,DepthScenes,duration_manipulation_targetAtFixation,jsons/VE83_randls_36_rotated.json,http://54.235.29.9/FacialAge/BNav_EC2/DepthDuration/v2_depth_duration_MTurk/v2_DepthDuration_HTML.html#7,7,1821,1024,1366,768,8-29-2023,12-18-58,44,depth_duration_stimuli/003621_2014-05-23_18-06-08_094959634447_rgbf000101-resize_1/003621_2014-05-23_18-06-08_094959634447_rgbf000101-resize_1-target.png,83,3.9835,45,36924,84,meters,jsons/VE83_randls_36_rotated.json,688530,1005116,25,Woman
44,907260,DepthScenes,duration_manipulation_targetAtFixation,jsons/VE83_randls_36_rotated.json,http://54.235.29.9/FacialAge/BNav_EC2/DepthDuration/v2_depth_duration_MTurk/v2_DepthDuration_HTML.html#7,7,1821,1024,1366,768,8-29-2023,12-18-58,45,depth_duration_stimuli/002678_2014-06-13_16-15-32_094959634447_rgbf000151-resize_6/002678_2014-06-13_16-15-32_094959634447_rgbf000151-resize_6-target.png,83,2.1830000000000003,65,3106,84,meters,jsons/VE83_randls_36_rotated.json,688530,1005116,25,Woman
45,907260,DepthScenes,duration_manipulation_targetAtFixation,jsons/VE83_randls_36_rotated.json,http://54.235.29.9/FacialAge/BNav_EC2/DepthDuration/v2_depth_duration_MTurk/v2_DepthDuration_HTML.html#7,7,1821,1024,1366,768,8-29-2023,12-18-58,46,depth_duration_stimuli/000368_2014-06-09_15-53-01_260595134347_rgbf000155-resize_2/000368_2014-06-09_15-53-01_260595134347_rgbf000155-resize_2-target.png,83,2.4859999999999998,35,2850,84,meters,jsons/VE83_randls_36_rotated.json,688530,1005116,25,Woman
46,907260,DepthScenes,duration_manipulation_targetAtFixation,jsons/VE83_randls_36_rotated.json,http://54.235.29.9/FacialAge/BNav_EC2/DepthDuration/v2_depth_duration_MTurk/v2_DepthDuration_HTML.html#7,7,1821,1024,1366,768,8-29-2023,12-18-58,47,depth_duration_stimuli/003083_2014-06-15_15-21-03_094959634447_rgbf000063-resize_1/003083_2014-06-15_15-21-03_094959634447_rgbf000063-resize_1-target.png,83,4.1405,55,2810,84,meters,jsons/VE83_randls_36_rotated.json,688530,1005116,25,Woman
47,907260,DepthScenes,duration_manipulation_targetAtFixation,jsons/VE83_randls_36_rotated.json,http://54.235.29.9/FacialAge/BNav_EC2/DepthDuration/v2_depth_duration_MTurk/v2_DepthDuration_HTML.html#7,7,1821,1024,1366,768,8-29-2023,12-18-58,48,depth_duration_stimuli/000486_2014-06-09_20-47-20_260595134347_rgbf000143-resize_2/000486_2014-06-09_20-47-20_260595134347_rgbf000143-resize_2-target.png,83,4.8325,35,3331,84,meters,jsons/VE83_randls_36_rotated.json,688530,1005116,25,Woman
48,907260,DepthScenes,duration_manipulation_targetAtFixation,jsons/VE83_randls_36_rotated.json,http://54.235.29.9/FacialAge/BNav_EC2/DepthDuration/v2_depth_duration_MTurk/v2_DepthDuration_HTML.html#7,7,1821,1024,1366,768,8-29-2023,12-18-58,49,depth_duration_stimuli/001170_2014-06-17_15-43-44_260595134347_rgbf000096-resize_6/001170_2014-06-17_15-43-44_260595134347_rgbf000096-resize-original.jpg,83,1.1909999999999998,65,3227,83,meters,jsons/VE83_randls_36_rotated.json,688530,1005116,25,Woman
49,907260,DepthScenes,duration_manipulation_targetAtFixation,jsons/VE83_randls_36_rotated.json,http://54.235.29.9/FacialAge/BNav_EC2/DepthDuration/v2_depth_duration_MTurk/v2_DepthDuration_HTML.html#7,7,1821,1024,1366,768,8-29-2023,12-18-58,50,depth_duration_stimuli/000709_2014-06-08_13-51-55_260595134347_rgbf000068-resize_3/000709_2014-06-08_13-51-55_260595134347_rgbf000068-resize_3-target.png,83,1.8030000000000002,50,3147,82,meters,jsons/VE83_randls_36_rotated.json,688530,1005116,25,Woman
50,907260,DepthScenes,duration_manipulation_targetAtFixation,jsons/VE83_randls_36_rotated.json,http://54.235.29.9/FacialAge/BNav_EC2/DepthDuration/v2_depth_duration_MTurk/v2_DepthDuration_HTML.html#7,7,1821,825,1366,768,8-29-2023,12-18-58,51,depth_duration_stimuli/002057_2014-06-24_21-00-13_260595134347_rgbf000120-resize_1/002057_2014-06-24_21-00-13_260595134347_rgbf000120-resize_1-target.png,83,2.967,45,11810,84,meters,jsons/VE83_randls_36_rotated.json,688530,1005116,25,Woman
51,907260,DepthScenes,duration_manipulation_targetAtFixation,jsons/VE83_randls_36_rotated.json,http://54.235.29.9/FacialAge/BNav_EC2/DepthDuration/v2_depth_duration_MTurk/v2_DepthDuration_HTML.html#7,7,1821,825,1366,768,8-29-2023,12-18-58,52,depth_duration_stimuli/002444_2014-06-28_20-32-08_260595134347_rgbf000027-resize_0/002444_2014-06-28_20-32-08_260595134347_rgbf000027-resize_0-target.png,83,4.388999999999999,56,3659,84,meters,jsons/VE83_randls_36_rotated.json,688530,1005116,25,Woman
52,907260,DepthScenes,duration_manipulation_targetAtFixation,jsons/VE83_randls_36_rotated.json,http://54.235.29.9/FacialAge/BNav_EC2/DepthDuration/v2_depth_duration_MTurk/v2_DepthDuration_HTML.html#7,7,1821,825,1366,768,8-29-2023,12-18-58,53,depth_duration_stimuli/000436_2014-06-09_22-25-11_260595134347_rgbf000137-resize_1/000436_2014-06-09_22-25-11_260595134347_rgbf000137-resize_1-target.png,83,4.0705,65,2962,84,meters,jsons/VE83_randls_36_rotated.json,688530,1005116,25,Woman
53,907260,DepthScenes,duration_manipulation_targetAtFixation,jsons/VE83_randls_36_rotated.json,http://54.235.29.9/FacialAge/BNav_EC2/DepthDuration/v2_depth_duration_MTurk/v2_DepthDuration_HTML.html#7,7,1821,825,1366,768,8-29-2023,12-18-58,54,depth_duration_stimuli/000780_2014-06-08_22-28-29_260595134347_rgbf000126-resize_1/000780_2014-06-08_22-28-29_260595134347_rgbf000126-resize_1-target.png,83,3.3825,85,2796,85,meters,jsons/VE83_randls_36_rotated.json,688530,1005116,25,Woman
54,907260,DepthScenes,duration_manipulation_targetAtFixation,jsons/VE83_randls_36_rotated.json,http://54.235.29.9/FacialAge/BNav_EC2/DepthDuration/v2_depth_duration_MTurk/v2_DepthDuration_HTML.html#7,7,1821,825,1366,768,8-29-2023,12-18-58,55,depth_duration_stimuli/002445_2014-06-28_20-32-16_260595134347_rgbf000029-resize_4/002445_2014-06-28_20-32-16_260595134347_rgbf000029-resize_4-target.png,83,2.5315,45,2674,84,meters,jsons/VE83_randls_36_rotated.json,688530,1005116,25,Woman
55,907260,DepthScenes,duration_manipulation_targetAtFixation,jsons/VE83_randls_36_rotated.json,http://54.235.29.9/FacialAge/BNav_EC2/DepthDuration/v2_depth_duration_MTurk/v2_DepthDuration_HTML.html#7,7,1821,825,1366,768,8-29-2023,12-18-58,56,depth_duration_stimuli/003587_2014-05-23_16-48-02_094959634447_rgbf002384-resize_2/003587_2014-05-23_16-48-02_094959634447_rgbf002384-resize_2-target.png,83,1.357,25,2666,84,meters,jsons/VE83_randls_36_rotated.json,688530,1005116,25,Woman
56,907260,DepthScenes,duration_manipulation_targetAtFixation,jsons/VE83_randls_36_rotated.json,http://54.235.29.9/FacialAge/BNav_EC2/DepthDuration/v2_depth_duration_MTurk/v2_DepthDuration_HTML.html#7,7,1821,825,1366,768,8-29-2023,12-18-58,57,depth_duration_stimuli/001167_2014-06-17_15-38-07_260595134347_rgbf000108-resize_0/001167_2014-06-17_15-38-07_260595134347_rgbf000108-resize_0-target.png,83,1.8505,12,3098,82,meters,jsons/VE83_randls_36_rotated.json,688530,1005116,25,Woman
57,907260,DepthScenes,duration_manipulation_targetAtFixation,jsons/VE83_randls_36_rotated.json,http://54.235.29.9/FacialAge/BNav_EC2/DepthDuration/v2_depth_duration_MTurk/v2_DepthDuration_HTML.html#7,7,1821,825,1366,768,8-29-2023,12-18-58,58,depth_duration_stimuli/002467_2014-06-28_20-38-07_260595134347_rgbf000026-resize_2/002467_2014-06-28_20-38-07_260595134347_rgbf000026-resize_2-target.png,83,4.742,45,2908,83,meters,jsons/VE83_randls_36_rotated.json,688530,1005116,25,Woman
58,907260,DepthScenes,duration_manipulation_targetAtFixation,jsons/VE83_randls_36_rotated.json,http://54.235.29.9/FacialAge/BNav_EC2/DepthDuration/v2_depth_duration_MTurk/v2_DepthDuration_HTML.html#7,7,1821,825,1366,768,8-29-2023,12-18-58,59,depth_duration_stimuli/002570_2014-06-24_13-59-54_094959634447_rgbf000059-resize_0/002570_2014-06-24_13-59-54_094959634447_rgbf000059-resize_0-target.png,83,4.037,56,2905,81,meters,jsons/VE83_randls_36_rotated.json,688530,1005116,25,Woman
59,907260,DepthScenes,duration_manipulation_targetAtFixation,jsons/VE83_randls_36_rotated.json,http://54.235.29.9/FacialAge/BNav_EC2/DepthDuration/v2_depth_duration_MTurk/v2_DepthDuration_HTML.html#7,7,1821,825,1366,768,8-29-2023,12-18-58,60,depth_duration_stimuli/002425_2014-06-28_20-27-29_260595134347_rgbf000031-resize_8/002425_2014-06-28_20-27-29_260595134347_rgbf000031-resize_8-target.png,83,3.8960000000000004,85,2683,84,meters,jsons/VE83_randls_36_rotated.json,688530,1005116,25,Woman
60,907260,DepthScenes,duration_manipulation_targetAtFixation,jsons/VE83_randls_36_rotated.json,http://54.235.29.9/FacialAge/BNav_EC2/DepthDuration/v2_depth_duration_MTurk/v2_DepthDuration_HTML.html#7,7,1821,825,1366,768,8-29-2023,12-18-58,61,depth_duration_stimuli/000642_2014-06-08_16-59-25_260595134347_rgbf000098-resize_2/000642_2014-06-08_16-59-25_260595134347_rgbf000098-resize_2-target.png,83,2.8815,75,15993,82,meters,jsons/VE83_randls_36_rotated.json,688530,1005116,25,Woman
61,907260,DepthScenes,duration_manipulation_targetAtFixation,jsons/VE83_randls_36_rotated.json,http://54.235.29.9/FacialAge/BNav_EC2/DepthDuration/v2_depth_duration_MTurk/v2_DepthDuration_HTML.html#7,7,1821,825,1366,768,8-29-2023,12-18-58,62,depth_duration_stimuli/001815_2014-06-26_20-52-55_260595134347_rgbf000020-resize_0/001815_2014-06-26_20-52-55_260595134347_rgbf000020-resize_0-target.png,83,3.3865,45,2939,84,meters,jsons/VE83_randls_36_rotated.json,688530,1005116,25,Woman
62,907260,DepthScenes,duration_manipulation_targetAtFixation,jsons/VE83_randls_36_rotated.json,http://54.235.29.9/FacialAge/BNav_EC2/DepthDuration/v2_depth_duration_MTurk/v2_DepthDuration_HTML.html#7,7,1821,825,1366,768,8-29-2023,12-18-58,63,depth_duration_stimuli/001808_2014-06-26_20-50-58_260595134347_rgbf000029-resize_1/001808_2014-06-26_20-50-58_260595134347_rgbf000029-resize_1-target.png,83,4.249,45,4355,84,meters,jsons/VE83_randls_36_rotated.json,688530,1005116,25,Woman
63,907260,DepthScenes,duration_manipulation_targetAtFixation,jsons/VE83_randls_36_rotated.json,http://54.235.29.9/FacialAge/BNav_EC2/DepthDuration/v2_depth_duration_MTurk/v2_DepthDuration_HTML.html#7,7,1821,825,1366,768,8-29-2023,12-18-58,64,depth_duration_stimuli/003423_2014-05-21_10-23-26_094959634447_rgbf002665-resize_2/003423_2014-05-21_10-23-26_094959634447_rgbf002665-resize_2-target.png,83,3.2575,80,2907,83,meters,jsons/VE83_randls_36_rotated.json,688530,1005116,25,Woman
64,907260,DepthScenes,duration_manipulation_targetAtFixation,jsons/VE83_randls_36_rotated.json,http://54.235.29.9/FacialAge/BNav_EC2/DepthDuration/v2_depth_duration_MTurk/v2_DepthDuration_HTML.html#7,7,1821,825,1366,768,8-29-2023,12-18-58,65,depth_duration_stimuli/002905_2014-06-03_18-04-43_094959634447_rgbf000151-resize_2/002905_2014-06-03_18-04-43_094959634447_rgbf000151-resize_2-target.png,83,2.0295,30,2979,82,meters,jsons/VE83_randls_36_rotated.json,688530,1005116,25,Woman
65,907260,DepthScenes,duration_manipulation_targetAtFixation,jsons/VE83_randls_36_rotated.json,http://54.235.29.9/FacialAge/BNav_EC2/DepthDuration/v2_depth_duration_MTurk/v2_DepthDuration_HTML.html#7,7,1821,825,1366,768,8-29-2023,12-18-58,66,depth_duration_stimuli/001540_2014-06-20_17-01-05_260595134347_rgbf000086-resize_2/001540_2014-06-20_17-01-05_260595134347_rgbf000086-resize-original.jpg,83,1.459,45,4034,84,meters,jsons/VE83_randls_36_rotated.json,688530,1005116,25,Woman
66,907260,DepthScenes,duration_manipulation_targetAtFixation,jsons/VE83_randls_36_rotated.json,http://54.235.29.9/FacialAge/BNav_EC2/DepthDuration/v2_depth_duration_MTurk/v2_DepthDuration_HTML.html#7,7,1821,825,1366,768,8-29-2023,12-18-58,67,depth_duration_stimuli/000943_2014-06-09_19-31-07_260595134347_rgbf000128-resize_1/000943_2014-06-09_19-31-07_260595134347_rgbf000128-resize_1-target.png,83,1.9765,43,2492,83,meters,jsons/VE83_randls_36_rotated.json,688530,1005116,25,Woman
67,907260,DepthScenes,duration_manipulation_targetAtFixation,jsons/VE83_randls_36_rotated.json,http://54.235.29.9/FacialAge/BNav_EC2/DepthDuration/v2_depth_duration_MTurk/v2_DepthDuration_HTML.html#7,7,1821,825,1366,768,8-29-2023,12-18-58,68,depth_duration_stimuli/003070_2014-06-15_14-58-27_094959634447_rgbf000150-resize_3/003070_2014-06-15_14-58-27_094959634447_rgbf000150-resize_3-target.png,83,2.9415,65,2546,84,meters,jsons/VE83_randls_36_rotated.json,688530,1005116,25,Woman
68,907260,DepthScenes,duration_manipulation_targetAtFixation,jsons/VE83_randls_36_rotated.json,http://54.235.29.9/FacialAge/BNav_EC2/DepthDuration/v2_depth_duration_MTurk/v2_DepthDuration_HTML.html#7,7,1821,825,1366,768,8-29-2023,12-18-58,69,depth_duration_stimuli/000691_2014-06-08_13-08-50_260595134347_rgbf000132-resize_3/000691_2014-06-08_13-08-50_260595134347_rgbf000132-resize_3-target.png,83,4.1530000000000005,50,3186,81,meters,jsons/VE83_randls_36_rotated.json,688530,1005116,25,Woman
69,907260,DepthScenes,duration_manipulation_targetAtFixation,jsons/VE83_randls_36_rotated.json,http://54.235.29.9/FacialAge/BNav_EC2/DepthDuration/v2_depth_duration_MTurk/v2_DepthDuration_HTML.html#7,7,1821,825,1366,768,8-29-2023,12-18-58,70,depth_duration_stimuli/002213_2014-06-28_18-37-58_260595134347_rgbf000055-resize_1/002213_2014-06-28_18-37-58_260595134347_rgbf000055-resize_1-target.png,83,3.62,45,6179,83,meters,jsons/VE83_randls_36_rotated.json,688530,1005116,25,Woman
70,907260,DepthScenes,duration_manipulation_targetAtFixation,jsons/VE83_randls_36_rotated.json,http://54.235.29.9/FacialAge/BNav_EC2/DepthDuration/v2_depth_duration_MTurk/v2_DepthDuration_HTML.html#7,7,1821,825,1366,768,8-29-2023,12-18-58,71,depth_duration_stimuli/001828_2014-06-26_21-40-03_260595134347_rgbf000024-resize_0/001828_2014-06-26_21-40-03_260595134347_rgbf000024-resize_0-target.png,83,4.8260000000000005,50,2683,84,meters,jsons/VE83_randls_36_rotated.json,688530,1005116,25,Woman
71,907260,DepthScenes,duration_manipulation_targetAtFixation,jsons/VE83_randls_36_rotated.json,http://54.235.29.9/FacialAge/BNav_EC2/DepthDuration/v2_depth_duration_MTurk/v2_DepthDuration_HTML.html#7,7,1821,825,1366,768,8-29-2023,12-18-58,72,depth_duration_stimuli/000009_2014-05-26_14-32-05_260595134347_rgbf000034-resize_3/000009_2014-05-26_14-32-05_260595134347_rgbf000034-resize_3-target.png,83,3.8715,55,2748,84,meters,jsons/VE83_randls_36_rotated.json,688530,1005116,25,Woman
72,907260,DepthScenes,duration_manipulation_targetAtFixation,jsons/VE83_randls_36_rotated.json,http://54.235.29.9/FacialAge/BNav_EC2/DepthDuration/v2_depth_duration_MTurk/v2_DepthDuration_HTML.html#7,7,1821,825,1366,768,8-29-2023,12-18-58,73,depth_duration_stimuli/002953_2014-06-08_17-32-18_094959634447_rgbf000059-resize_5/002953_2014-06-08_17-32-18_094959634447_rgbf000059-resize_5-target.png,83,1.551,56,2994,84,meters,jsons/VE83_randls_36_rotated.json,688530,1005116,25,Woman
73,907260,DepthScenes,duration_manipulation_targetAtFixation,jsons/VE83_randls_36_rotated.json,http://54.235.29.9/FacialAge/BNav_EC2/DepthDuration/v2_depth_duration_MTurk/v2_DepthDuration_HTML.html#7,7,1821,825,1366,768,8-29-2023,12-18-58,74,depth_duration_stimuli/000878_2014-06-08_22-52-45_260595134347_rgbf000045-resize_2/000878_2014-06-08_22-52-45_260595134347_rgbf000045-resize_2-target.png,83,2.092,85,3354,84,meters,jsons/VE83_randls_36_rotated.json,688530,1005116,25,Woman
74,907260,DepthScenes,duration_manipulation_targetAtFixation,jsons/VE83_randls_36_rotated.json,http://54.235.29.9/FacialAge/BNav_EC2/DepthDuration/v2_depth_duration_MTurk/v2_DepthDuration_HTML.html#7,7,1821,825,1366,768,8-29-2023,12-18-58,75,depth_duration_stimuli/000483_2014-06-09_20-41-45_260595134347_rgbf000116-resize_4/000483_2014-06-09_20-41-45_260595134347_rgbf000116-resize_4-target.png,83,1.337,29,2762,84,meters,jsons/VE83_randls_36_rotated.json,688530,1005116,25,Woman
75,907260,DepthScenes,duration_manipulation_targetAtFixation,jsons/VE83_randls_36_rotated.json,http://54.235.29.9/FacialAge/BNav_EC2/DepthDuration/v2_depth_duration_MTurk/v2_DepthDuration_HTML.html#7,7,1821,825,1366,768,8-29-2023,12-18-58,76,depth_duration_stimuli/000469_2014-06-09_19-42-10_260595134347_rgbf000081-resize_1/000469_2014-06-09_19-42-10_260595134347_rgbf000081-resize_1-target.png,83,1.652,25,2681,83,meters,jsons/VE83_randls_36_rotated.json,688530,1005116,25,Woman
76,907260,DepthScenes,duration_manipulation_targetAtFixation,jsons/VE83_randls_36_rotated.json,http://54.235.29.9/FacialAge/BNav_EC2/DepthDuration/v2_depth_duration_MTurk/v2_DepthDuration_HTML.html#7,7,1821,825,1366,768,8-29-2023,12-18-58,77,depth_duration_stimuli/003129_2014-05-12_10-48-10_094959634447_rgbf000100-resize_0/003129_2014-05-12_10-48-10_094959634447_rgbf000100-resize_0-target.png,83,4.9305,45,2716,83,meters,jsons/VE83_randls_36_rotated.json,688530,1005116,25,Woman
77,907260,DepthScenes,duration_manipulation_targetAtFixation,jsons/VE83_randls_36_rotated.json,http://54.235.29.9/FacialAge/BNav_EC2/DepthDuration/v2_depth_duration_MTurk/v2_DepthDuration_HTML.html#7,7,1821,825,1366,768,8-29-2023,12-18-58,78,depth_duration_stimuli/000414_2014-06-04_19-49-13_260595134347_rgbf000044-resize_0/000414_2014-06-04_19-49-13_260595134347_rgbf000044-resize_0-target.png,83,4.329,70,2595,83,meters,jsons/VE83_randls_36_rotated.json,688530,1005116,25,Woman
78,907260,DepthScenes,duration_manipulation_targetAtFixation,jsons/VE83_randls_36_rotated.json,http://54.235.29.9/FacialAge/BNav_EC2/DepthDuration/v2_depth_duration_MTurk/v2_DepthDuration_HTML.html#7,7,1821,825,1366,768,8-29-2023,12-18-58,79,depth_duration_stimuli/001100_2014-06-15_17-46-26_260595134347_rgbf000225-resize_2/001100_2014-06-15_17-46-26_260595134347_rgbf000225-resize_2-target.png,83,2.24,25,2731,83,meters,jsons/VE83_randls_36_rotated.json,688530,1005116,25,Woman
79,907260,DepthScenes,duration_manipulation_targetAtFixation,jsons/VE83_randls_36_rotated.json,http://54.235.29.9/FacialAge/BNav_EC2/DepthDuration/v2_depth_duration_MTurk/v2_DepthDuration_HTML.html#7,7,1821,825,1366,768,8-29-2023,12-18-58,80,depth_duration_stimuli/002784_2014-06-22_19-26-30_094959634447_rgbf000083-resize_3/002784_2014-06-22_19-26-30_094959634447_rgbf000083-resize_3-target.png,83,1.8046666666667,35,4228,83,meters,jsons/VE83_randls_36_rotated.json,688530,1005116,25,Woman
80,907260,DepthScenes,duration_manipulation_targetAtFixation,jsons/VE83_randls_36_rotated.json,http://54.235.29.9/FacialAge/BNav_EC2/DepthDuration/v2_depth_duration_MTurk/v2_DepthDuration_HTML.html#7,7,1821,825,1366,768,8-29-2023,12-18-58,81,depth_duration_stimuli/000866_2014-06-09_20-45-42_260595134347_rgbf000139-resize_1/000866_2014-06-09_20-45-42_260595134347_rgbf000139-resize_1-target.png,83,3.2155,45,4449,82,meters,jsons/VE83_randls_36_rotated.json,688530,1005116,25,Woman
81,907260,DepthScenes,duration_manipulation_targetAtFixation,jsons/VE83_randls_36_rotated.json,http://54.235.29.9/FacialAge/BNav_EC2/DepthDuration/v2_depth_duration_MTurk/v2_DepthDuration_HTML.html#7,7,1821,825,1366,768,8-29-2023,12-18-58,82,depth_duration_stimuli/002989_2014-06-15_12-25-03_094959634447_rgbf000150-resize_3/002989_2014-06-15_12-25-03_094959634447_rgbf000150-resize_3-target.png,83,4.1975,35,3002,82,meters,jsons/VE83_randls_36_rotated.json,688530,1005116,25,Woman
82,907260,DepthScenes,duration_manipulation_targetAtFixation,jsons/VE83_randls_36_rotated.json,http://54.235.29.9/FacialAge/BNav_EC2/DepthDuration/v2_depth_duration_MTurk/v2_DepthDuration_HTML.html#7,7,1821,825,1366,768,8-29-2023,12-18-58,83,depth_duration_stimuli/002209_2014-06-28_18-36-10_260595134347_rgbf000051-resize_1/002209_2014-06-28_18-36-10_260595134347_rgbf000051-resize_1-target.png,83,2.057,56,2930,83,meters,jsons/VE83_randls_36_rotated.json,688530,1005116,25,Woman
83,907260,DepthScenes,duration_manipulation_targetAtFixation,jsons/VE83_randls_36_rotated.json,http://54.235.29.9/FacialAge/BNav_EC2/DepthDuration/v2_depth_duration_MTurk/v2_DepthDuration_HTML.html#7,7,1821,825,1366,768,8-29-2023,12-18-58,84,depth_duration_stimuli/002763_2014-06-22_19-13-10_094959634447_rgbf000075-resize_4/002763_2014-06-22_19-13-10_094959634447_rgbf000075-resize_4-target.png,83,1.68375,75,3434,83,meters,jsons/VE83_randls_36_rotated.json,688530,1005116,25,Woman
84,907260,DepthScenes,duration_manipulation_targetAtFixation,jsons/VE83_randls_36_rotated.json,http://54.235.29.9/FacialAge/BNav_EC2/DepthDuration/v2_depth_duration_MTurk/v2_DepthDuration_HTML.html#7,7,1821,825,1366,768,8-29-2023,12-18-58,85,depth_duration_stimuli/002545_2014-06-24_13-38-53_094959634447_rgbf000080-resize_4/002545_2014-06-24_13-38-53_094959634447_rgbf000080-resize_4-target.png,83,1.9205,35,2954,83,meters,jsons/VE83_randls_36_rotated.json,688530,1005116,25,Woman
85,907260,DepthScenes,duration_manipulation_targetAtFixation,jsons/VE83_randls_36_rotated.json,http://54.235.29.9/FacialAge/BNav_EC2/DepthDuration/v2_depth_duration_MTurk/v2_DepthDuration_HTML.html#7,7,1821,825,1366,768,8-29-2023,12-18-58,86,depth_duration_stimuli/001092_2014-06-15_17-34-58_260595134347_rgbf000171-resize_3/001092_2014-06-15_17-34-58_260595134347_rgbf000171-resize_3-target.png,83,2.6935,55,3131,83,meters,jsons/VE83_randls_36_rotated.json,688530,1005116,25,Woman
86,907260,DepthScenes,duration_manipulation_targetAtFixation,jsons/VE83_randls_36_rotated.json,http://54.235.29.9/FacialAge/BNav_EC2/DepthDuration/v2_depth_duration_MTurk/v2_DepthDuration_HTML.html#7,7,1821,825,1366,768,8-29-2023,12-18-58,87,depth_duration_stimuli/002805_2014-06-22_19-54-03_094959634447_rgbf000079-resize_1/002805_2014-06-22_19-54-03_094959634447_rgbf000079-resize_1-target.png,83,3.1439999999999997,89,3683,83,meters,jsons/VE83_randls_36_rotated.json,688530,1005116,25,Woman
87,907260,DepthScenes,duration_manipulation_targetAtFixation,jsons/VE83_randls_36_rotated.json,http://54.235.29.9/FacialAge/BNav_EC2/DepthDuration/v2_depth_duration_MTurk/v2_DepthDuration_HTML.html#7,7,1821,825,1366,768,8-29-2023,12-18-58,88,depth_duration_stimuli/000906_2014-06-08_13-35-43_260595134347_rgbf000155-resize_1/000906_2014-06-08_13-35-43_260595134347_rgbf000155-resize_1-target.png,83,2.8489999999999998,90,3185,83,meters,jsons/VE83_randls_36_rotated.json,688530,1005116,25,Woman
88,907260,DepthScenes,duration_manipulation_targetAtFixation,jsons/VE83_randls_36_rotated.json,http://54.235.29.9/FacialAge/BNav_EC2/DepthDuration/v2_depth_duration_MTurk/v2_DepthDuration_HTML.html#7,7,1821,825,1366,768,8-29-2023,12-18-58,89,depth_duration_stimuli/003010_2014-06-15_12-54-35_094959634447_rgbf000112-resize_0/003010_2014-06-15_12-54-35_094959634447_rgbf000112-resize_0-target.png,83,3.1185,100,2906,83,meters,jsons/VE83_randls_36_rotated.json,688530,1005116,25,Woman
89,907260,DepthScenes,duration_manipulation_targetAtFixation,jsons/VE83_randls_36_rotated.json,http://54.235.29.9/FacialAge/BNav_EC2/DepthDuration/v2_depth_duration_MTurk/v2_DepthDuration_HTML.html#7,7,1821,825,1366,768,8-29-2023,12-18-58,90,depth_duration_stimuli/001810_2014-06-26_20-51-35_260595134347_rgbf000040-resize_3/001810_2014-06-26_20-51-35_260595134347_rgbf000040-resize_3-target.png,83,2.2525,45,3179,83,meters,jsons/VE83_randls_36_rotated.json,688530,1005116,25,Woman
90,907260,DepthScenes,duration_manipulation_targetAtFixation,jsons/VE83_randls_36_rotated.json,http://54.235.29.9/FacialAge/BNav_EC2/DepthDuration/v2_depth_duration_MTurk/v2_DepthDuration_HTML.html#7,7,1821,825,1366,768,8-29-2023,12-18-58,91,depth_duration_stimuli/000854_2014-06-09_19-43-13_260595134347_rgbf000066-resize_0/000854_2014-06-09_19-43-13_260595134347_rgbf000066-resize_0-target.png,83,3.068,45,3010,82,meters,jsons/VE83_randls_36_rotated.json,688530,1005116,25,Woman
91,907260,DepthScenes,duration_manipulation_targetAtFixation,jsons/VE83_randls_36_rotated.json,http://54.235.29.9/FacialAge/BNav_EC2/DepthDuration/v2_depth_duration_MTurk/v2_DepthDuration_HTML.html#7,7,1821,825,1366,768,8-29-2023,12-18-58,92,depth_duration_stimuli/000758_2014-06-08_22-05-08_260595134347_rgbf000085-resize_0/000758_2014-06-08_22-05-08_260595134347_rgbf000085-resize_0-target.png,83,3.3810000000000002,50,3546,84,meters,jsons/VE83_randls_36_rotated.json,688530,1005116,25,Woman
92,907260,DepthScenes,duration_manipulation_targetAtFixation,jsons/VE83_randls_36_rotated.json,http://54.235.29.9/FacialAge/BNav_EC2/DepthDuration/v2_depth_duration_MTurk/v2_DepthDuration_HTML.html#7,7,1821,825,1366,768,8-29-2023,12-18-58,93,depth_duration_stimuli/000635_2014-06-08_16-38-42_260595134347_rgbf000106-resize_1/000635_2014-06-08_16-38-42_260595134347_rgbf000106-resize_1-target.png,83,2.074,60,2987,83,meters,jsons/VE83_randls_36_rotated.json,688530,1005116,25,Woman
93,907260,DepthScenes,duration_manipulation_targetAtFixation,jsons/VE83_randls_36_rotated.json,http://54.235.29.9/FacialAge/BNav_EC2/DepthDuration/v2_depth_duration_MTurk/v2_DepthDuration_HTML.html#7,7,1821,825,1366,768,8-29-2023,12-18-58,94,depth_duration_stimuli/002279_2014-06-28_18-55-32_260595134347_rgbf000040-resize_5/002279_2014-06-28_18-55-32_260595134347_rgbf000040-resize_5-target.png,83,1.5043333333333,45,2907,84,meters,jsons/VE83_randls_36_rotated.json,688530,1005116,25,Woman
94,907260,DepthScenes,duration_manipulation_targetAtFixation,jsons/VE83_randls_36_rotated.json,http://54.235.29.9/FacialAge/BNav_EC2/DepthDuration/v2_depth_duration_MTurk/v2_DepthDuration_HTML.html#7,7,1821,825,1366,768,8-29-2023,12-18-58,95,depth_duration_stimuli/002344_2014-06-28_20-06-29_260595134347_rgbf000030-resize_1/002344_2014-06-28_20-06-29_260595134347_rgbf000030-resize_1-target.png,83,1.5795,35,2803,84,meters,jsons/VE83_randls_36_rotated.json,688530,1005116,25,Woman
95,907260,DepthScenes,duration_manipulation_targetAtFixation,jsons/VE83_randls_36_rotated.json,http://54.235.29.9/FacialAge/BNav_EC2/DepthDuration/v2_depth_duration_MTurk/v2_DepthDuration_HTML.html#7,7,1821,825,1366,768,8-29-2023,12-18-58,96,depth_duration_stimuli/002725_2014-06-22_11-47-51_094959634447_rgbf000070-resize_1/002725_2014-06-22_11-47-51_094959634447_rgbf000070-resize_1-target.png,83,2.195,57,3571,84,meters,jsons/VE83_randls_36_rotated.json,688530,1005116,25,Woman
96,907260,DepthScenes,duration_manipulation_targetAtFixation,jsons/VE83_randls_36_rotated.json,http://54.235.29.9/FacialAge/BNav_EC2/DepthDuration/v2_depth_duration_MTurk/v2_DepthDuration_HTML.html#7,7,1821,825,1366,768,8-29-2023,12-18-58,97,depth_duration_stimuli/001516_2014-06-20_16-25-09_260595134347_rgbf000076-resize_2/001516_2014-06-20_16-25-09_260595134347_rgbf000076-resize_2-target.png,83,1.7445,58,2795,83,meters,jsons/VE83_randls_36_rotated.json,688530,1005116,25,Woman
97,907260,DepthScenes,duration_manipulation_targetAtFixation,jsons/VE83_randls_36_rotated.json,http://54.235.29.9/FacialAge/BNav_EC2/DepthDuration/v2_depth_duration_MTurk/v2_DepthDuration_HTML.html#7,7,1821,825,1366,768,8-29-2023,12-18-58,98,depth_duration_stimuli/002118_2014-06-25_20-32-08_260595134347_rgbf000078-resize_1/002118_2014-06-25_20-32-08_260595134347_rgbf000078-resize_1-target.png,83,2.6460000000000004,45,2817,84,meters,jsons/VE83_randls_36_rotated.json,688530,1005116,25,Woman
98,907260,DepthScenes,duration_manipulation_targetAtFixation,jsons/VE83_randls_36_rotated.json,http://54.235.29.9/FacialAge/BNav_EC2/DepthDuration/v2_depth_duration_MTurk/v2_DepthDuration_HTML.html#7,7,1821,825,1366,768,8-29-2023,12-18-58,99,depth_duration_stimuli/001222_2014-06-17_16-24-06_260595134347_rgbf000073-resize_0/001222_2014-06-17_16-24-06_260595134347_rgbf000073-resize-original.jpg,83,1.4385,65,2739,84,meters,jsons/VE83_randls_36_rotated.json,688530,1005116,25,Woman
99,907260,DepthScenes,duration_manipulation_targetAtFixation,jsons/VE83_randls_36_rotated.json,http://54.235.29.9/FacialAge/BNav_EC2/DepthDuration/v2_depth_duration_MTurk/v2_DepthDuration_HTML.html#7,7,1821,825,1366,768,8-29-2023,12-18-58,100,depth_duration_stimuli/003081_2014-06-15_15-19-16_094959634447_rgbf000150-resize_1/003081_2014-06-15_15-19-16_094959634447_rgbf000150-resize_1-target.png,83,3.9125,85,3475,84,meters,jsons/VE83_randls_36_rotated.json,688530,1005116,25,Woman
100,907260,DepthScenes,duration_manipulation_targetAtFixation,jsons/VE83_randls_36_rotated.json,http://54.235.29.9/FacialAge/BNav_EC2/DepthDuration/v2_depth_duration_MTurk/v2_DepthDuration_HTML.html#7,7,1821,825,1366,768,8-29-2023,12-18-58,101,depth_duration_stimuli/001417_2014-06-19_16-25-36_260595134347_rgbf000115-resize_5/001417_2014-06-19_16-25-36_260595134347_rgbf000115-resize_5-target.png,83,4.6255,55,3939,84,meters,jsons/VE83_randls_36_rotated.json,688530,1005116,25,Woman
101,907260,DepthScenes,duration_manipulation_targetAtFixation,jsons/VE83_randls_36_rotated.json,http://54.235.29.9/FacialAge/BNav_EC2/DepthDuration/v2_depth_duration_MTurk/v2_DepthDuration_HTML.html#7,7,1821,825,1366,768,8-29-2023,12-18-58,102,depth_duration_stimuli/001032_2014-06-08_13-23-17_260595134347_rgbf000021-resize_3/001032_2014-06-08_13-23-17_260595134347_rgbf000021-resize_3-target.png,83,3.2725,59,2771,83,meters,jsons/VE83_randls_36_rotated.json,688530,1005116,25,Woman
102,907260,DepthScenes,duration_manipulation_targetAtFixation,jsons/VE83_randls_36_rotated.json,http://54.235.29.9/FacialAge/BNav_EC2/DepthDuration/v2_depth_duration_MTurk/v2_DepthDuration_HTML.html#7,7,1821,825,1366,768,8-29-2023,12-18-58,103,depth_duration_stimuli/001059_2014-06-08_21-53-27_260595134347_rgbf000061-resize_4/001059_2014-06-08_21-53-27_260595134347_rgbf000061-resize_4-target.png,83,2.4185,45,2796,84,meters,jsons/VE83_randls_36_rotated.json,688530,1005116,25,Woman
103,907260,DepthScenes,duration_manipulation_targetAtFixation,jsons/VE83_randls_36_rotated.json,http://54.235.29.9/FacialAge/BNav_EC2/DepthDuration/v2_depth_duration_MTurk/v2_DepthDuration_HTML.html#7,7,1821,825,1366,768,8-29-2023,12-18-58,104,depth_duration_stimuli/002875_2014-06-01_15-19-00_094959634447_rgbf000151-resize_1/002875_2014-06-01_15-19-00_094959634447_rgbf000151-resize_1-target.png,83,1.9675,15,2794,84,meters,jsons/VE83_randls_36_rotated.json,688530,1005116,25,Woman
104,907260,DepthScenes,duration_manipulation_targetAtFixation,jsons/VE83_randls_36_rotated.json,http://54.235.29.9/FacialAge/BNav_EC2/DepthDuration/v2_depth_duration_MTurk/v2_DepthDuration_HTML.html#7,7,1821,825,1366,768,8-29-2023,12-18-58,105,depth_duration_stimuli/001011_2014-06-08_23-18-54_260595134347_rgbf000044-resize_4/001011_2014-06-08_23-18-54_260595134347_rgbf000044-resize_4-target.png,83,2.4730000000000003,45,2867,83,meters,jsons/VE83_randls_36_rotated.json,688530,1005116,25,Woman
105,907260,DepthScenes,duration_manipulation_targetAtFixation,jsons/VE83_randls_36_rotated.json,http://54.235.29.9/FacialAge/BNav_EC2/DepthDuration/v2_depth_duration_MTurk/v2_DepthDuration_HTML.html#7,7,1821,825,1366,768,8-29-2023,12-18-58,106,depth_duration_stimuli/003079_2014-06-15_15-18-20_094959634447_rgbf000152-resize_8/003079_2014-06-15_15-18-20_094959634447_rgbf000152-resize_8-target.png,83,2.8775,85,2700,82,meters,jsons/VE83_randls_36_rotated.json,688530,1005116,25,Woman
106,907260,DepthScenes,duration_manipulation_targetAtFixation,jsons/VE83_randls_36_rotated.json,http://54.235.29.9/FacialAge/BNav_EC2/DepthDuration/v2_depth_duration_MTurk/v2_DepthDuration_HTML.html#7,7,1821,825,1366,768,8-29-2023,12-18-58,107,depth_duration_stimuli/000506_2014-06-08_23-21-00_260595134347_rgbf000070-resize_7/000506_2014-06-08_23-21-00_260595134347_rgbf000070-resize_7-target.png,83,4.0585,75,2732,83,meters,jsons/VE83_randls_36_rotated.json,688530,1005116,25,Woman
107,907260,DepthScenes,duration_manipulation_targetAtFixation,jsons/VE83_randls_36_rotated.json,http://54.235.29.9/FacialAge/BNav_EC2/DepthDuration/v2_depth_duration_MTurk/v2_DepthDuration_HTML.html#7,7,1821,825,1366,768,8-29-2023,12-18-58,108,depth_duration_stimuli/001132_2014-06-17_14-48-54_260595134347_rgbf000100-resize_2/001132_2014-06-17_14-48-54_260595134347_rgbf000100-resize_2-target.png,83,3.753,95,2563,83,meters,jsons/VE83_randls_36_rotated.json,688530,1005116,25,Woman
108,907260,DepthScenes,duration_manipulation_targetAtFixation,jsons/VE83_randls_36_rotated.json,http://54.235.29.9/FacialAge/BNav_EC2/DepthDuration/v2_depth_duration_MTurk/v2_DepthDuration_HTML.html#7,7,1821,825,1366,768,8-29-2023,12-18-58,109,depth_duration_stimuli/001133_2014-06-17_14-49-16_260595134347_rgbf000100-resize_0/001133_2014-06-17_14-49-16_260595134347_rgbf000100-resize_0-target.png,83,4.2115,85,2716,83,meters,jsons/VE83_randls_36_rotated.json,688530,1005116,25,Woman
109,907260,DepthScenes,duration_manipulation_targetAtFixation,jsons/VE83_randls_36_rotated.json,http://54.235.29.9/FacialAge/BNav_EC2/DepthDuration/v2_depth_duration_MTurk/v2_DepthDuration_HTML.html#7,7,1821,825,1366,768,8-29-2023,12-18-58,110,depth_duration_stimuli/000927_2014-06-09_16-32-30_260595134347_rgbf000123-resize_3/000927_2014-06-09_16-32-30_260595134347_rgbf000123-resize_3-target.png,83,2.6785,45,2628,83,meters,jsons/VE83_randls_36_rotated.json,688530,1005116,25,Woman
110,907260,DepthScenes,duration_manipulation_targetAtFixation,jsons/VE83_randls_36_rotated.json,http://54.235.29.9/FacialAge/BNav_EC2/DepthDuration/v2_depth_duration_MTurk/v2_DepthDuration_HTML.html#7,7,1821,825,1366,768,8-29-2023,12-18-58,111,depth_duration_stimuli/001110_2014-06-15_17-25-28_260595134347_rgbf000150-resize_1/001110_2014-06-15_17-25-28_260595134347_rgbf000150-resize_1-target.png,83,1.7115,45,3858,83,meters,jsons/VE83_randls_36_rotated.json,688530,1005116,25,Woman
111,907260,DepthScenes,duration_manipulation_targetAtFixation,jsons/VE83_randls_36_rotated.json,http://54.235.29.9/FacialAge/BNav_EC2/DepthDuration/v2_depth_duration_MTurk/v2_DepthDuration_HTML.html#7,7,1821,825,1366,768,8-29-2023,12-18-58,112,depth_duration_stimuli/001136_2014-06-17_15-19-41_260595134347_rgbf000076-resize_3/001136_2014-06-17_15-19-41_260595134347_rgbf000076-resize_3-target.png,83,1.8655,58,4186,83,meters,jsons/VE83_randls_36_rotated.json,688530,1005116,25,Woman
112,907260,DepthScenes,duration_manipulation_targetAtFixation,jsons/VE83_randls_36_rotated.json,http://54.235.29.9/FacialAge/BNav_EC2/DepthDuration/v2_depth_duration_MTurk/v2_DepthDuration_HTML.html#7,7,1821,825,1366,768,8-29-2023,12-18-58,113,depth_duration_stimuli/001164_2014-06-17_15-35-46_260595134347_rgbf000085-resize_3/001164_2014-06-17_15-35-46_260595134347_rgbf000085-resize_3-target.png,83,2.354,45,2722,82,meters,jsons/VE83_randls_36_rotated.json,688530,1005116,25,Woman
113,907260,DepthScenes,duration_manipulation_targetAtFixation,jsons/VE83_randls_36_rotated.json,http://54.235.29.9/FacialAge/BNav_EC2/DepthDuration/v2_depth_duration_MTurk/v2_DepthDuration_HTML.html#7,7,1821,825,1366,768,8-29-2023,12-18-58,114,depth_duration_stimuli/001450_2014-06-19_17-02-03_260595134347_rgbf000203-resize_4/001450_2014-06-19_17-02-03_260595134347_rgbf000203-resize_4-target.png,83,4.0106666666667,75,3044,83,meters,jsons/VE83_randls_36_rotated.json,688530,1005116,25,Woman
114,907260,DepthScenes,duration_manipulation_targetAtFixation,jsons/VE83_randls_36_rotated.json,http://54.235.29.9/FacialAge/BNav_EC2/DepthDuration/v2_depth_duration_MTurk/v2_DepthDuration_HTML.html#7,7,1821,825,1366,768,8-29-2023,12-18-58,115,depth_duration_stimuli/001449_2014-06-19_17-01-27_260595134347_rgbf000116-resize_2/001449_2014-06-19_17-01-27_260595134347_rgbf000116-resize_2-target.png,83,3.452,88,2667,83,meters,jsons/VE83_randls_36_rotated.json,688530,1005116,25,Woman
115,907260,DepthScenes,duration_manipulation_targetAtFixation,jsons/VE83_randls_36_rotated.json,http://54.235.29.9/FacialAge/BNav_EC2/DepthDuration/v2_depth_duration_MTurk/v2_DepthDuration_HTML.html#7,7,1821,825,1366,768,8-29-2023,12-18-58,116,depth_duration_stimuli/000734_2014-06-08_17-39-11_260595134347_rgbf000128-resize_2/000734_2014-06-08_17-39-11_260595134347_rgbf000128-resize_2-target.png,83,4.098,84,2723,83,meters,jsons/VE83_randls_36_rotated.json,688530,1005116,25,Woman
116,907260,DepthScenes,duration_manipulation_targetAtFixation,jsons/VE83_randls_36_rotated.json,http://54.235.29.9/FacialAge/BNav_EC2/DepthDuration/v2_depth_duration_MTurk/v2_DepthDuration_HTML.html#7,7,1821,825,1366,768,8-29-2023,12-18-58,117,depth_duration_stimuli/000739_2014-06-08_18-45-58_260595134347_rgbf000068-resize_1/000739_2014-06-08_18-45-58_260595134347_rgbf000068-resize_1-target.png,83,3.534,95,2627,83,meters,jsons/VE83_randls_36_rotated.json,688530,1005116,25,Woman
117,907260,DepthScenes,duration_manipulation_targetAtFixation,jsons/VE83_randls_36_rotated.json,http://54.235.29.9/FacialAge/BNav_EC2/DepthDuration/v2_depth_duration_MTurk/v2_DepthDuration_HTML.html#7,7,1821,825,1366,768,8-29-2023,12-18-58,118,depth_duration_stimuli/000742_2014-06-08_18-48-09_260595134347_rgbf000164-resize_4/000742_2014-06-08_18-48-09_260595134347_rgbf000164-resize_4-target.png,83,4.632,85,5194,84,meters,jsons/VE83_randls_36_rotated.json,688530,1005116,25,Woman
118,907260,DepthScenes,duration_manipulation_targetAtFixation,jsons/VE83_randls_36_rotated.json,http://54.235.29.9/FacialAge/BNav_EC2/DepthDuration/v2_depth_duration_MTurk/v2_DepthDuration_HTML.html#7,7,1821,825,1366,768,8-29-2023,12-18-58,119,depth_duration_stimuli/001066_2014-06-08_22-03-20_260595134347_rgbf000066-resize_4/001066_2014-06-08_22-03-20_260595134347_rgbf000066-resize_4-target.png,83,4.2330000000000005,84,2825,82,meters,jsons/VE83_randls_36_rotated.json,688530,1005116,25,Woman
119,907260,DepthScenes,duration_manipulation_targetAtFixation,jsons/VE83_randls_36_rotated.json,http://54.235.29.9/FacialAge/BNav_EC2/DepthDuration/v2_depth_duration_MTurk/v2_DepthDuration_HTML.html#7,7,1821,825,1366,768,8-29-2023,12-18-58,120,depth_duration_stimuli/000787_2014-06-08_22-33-53_260595134347_rgbf000175-resize_1/000787_2014-06-08_22-33-53_260595134347_rgbf000175-resize-original.jpg,83,4.784,75,2805,83,meters,jsons/VE83_randls_36_rotated.json,688530,1005116,25,Woman
120,907260,DepthScenes,duration_manipulation_targetAtFixation,jsons/VE83_randls_36_rotated.json,http://54.235.29.9/FacialAge/BNav_EC2/DepthDuration/v2_depth_duration_MTurk/v2_DepthDuration_HTML.html#7,7,1821,825,1366,768,8-29-2023,12-18-58,121,depth_duration_stimuli/003338_2014-05-20_11-01-23_094959634447_rgbf000051-resize_6/003338_2014-05-20_11-01-23_094959634447_rgbf000051-resize_6-target.png,83,1.693,45,2691,84,meters,jsons/VE83_randls_36_rotated.json,688530,1005116,25,Woman
121,907260,DepthScenes,duration_manipulation_targetAtFixation,jsons/VE83_randls_36_rotated.json,http://54.235.29.9/FacialAge/BNav_EC2/DepthDuration/v2_depth_duration_MTurk/v2_DepthDuration_HTML.html#7,7,1821,825,1366,768,8-29-2023,12-18-58,122,depth_duration_stimuli/002509_2014-06-24_13-19-22_094959634447_rgbf000077-resize_0/002509_2014-06-24_13-19-22_094959634447_rgbf000077-resize_0-target.png,83,1.3065,33,2659,84,meters,jsons/VE83_randls_36_rotated.json,688530,1005116,25,Woman
122,907260,DepthScenes,duration_manipulation_targetAtFixation,jsons/VE83_randls_36_rotated.json,http://54.235.29.9/FacialAge/BNav_EC2/DepthDuration/v2_depth_duration_MTurk/v2_DepthDuration_HTML.html#7,7,1821,825,1366,768,8-29-2023,12-18-58,123,depth_duration_stimuli/002199_2014-06-28_18-33-56_260595134347_rgbf000074-resize_0/002199_2014-06-28_18-33-56_260595134347_rgbf000074-resize_0-target.png,83,1.996,27,2675,84,meters,jsons/VE83_randls_36_rotated.json,688530,1005116,25,Woman
123,907260,DepthScenes,duration_manipulation_targetAtFixation,jsons/VE83_randls_36_rotated.json,http://54.235.29.9/FacialAge/BNav_EC2/DepthDuration/v2_depth_duration_MTurk/v2_DepthDuration_HTML.html#7,7,1821,825,1366,768,8-29-2023,12-18-58,124,depth_duration_stimuli/001056_2014-06-08_18-46-44_260595134347_rgbf000068-resize_0/001056_2014-06-08_18-46-44_260595134347_rgbf000068-resize_0-target.png,83,2.6625,28,2651,84,meters,jsons/VE83_randls_36_rotated.json,688530,1005116,25,Woman
124,907260,DepthScenes,duration_manipulation_targetAtFixation,jsons/VE83_randls_36_rotated.json,http://54.235.29.9/FacialAge/BNav_EC2/DepthDuration/v2_depth_duration_MTurk/v2_DepthDuration_HTML.html#7,7,1821,825,1366,768,8-29-2023,12-18-58,125,depth_duration_stimuli/001052_2014-06-08_18-24-54_260595134347_rgbf000130-resize_1/001052_2014-06-08_18-24-54_260595134347_rgbf000130-resize_1-target.png,83,4.1045,34,2834,84,meters,jsons/VE83_randls_36_rotated.json,688530,1005116,25,Woman
125,907260,DepthScenes,duration_manipulation_targetAtFixation,jsons/VE83_randls_36_rotated.json,http://54.235.29.9/FacialAge/BNav_EC2/DepthDuration/v2_depth_duration_MTurk/v2_DepthDuration_HTML.html#7,7,1821,825,1366,768,8-29-2023,12-18-58,126,depth_duration_stimuli/002988_2014-06-15_12-24-20_094959634447_rgbf000150-resize_1/002988_2014-06-15_12-24-20_094959634447_rgbf000150-resize_1-target.png,83,4.7669999999999995,85,2706,83,meters,jsons/VE83_randls_36_rotated.json,688530,1005116,25,Woman
126,907260,DepthScenes,duration_manipulation_targetAtFixation,jsons/VE83_randls_36_rotated.json,http://54.235.29.9/FacialAge/BNav_EC2/DepthDuration/v2_depth_duration_MTurk/v2_DepthDuration_HTML.html#7,7,1821,825,1366,768,8-29-2023,12-18-58,127,depth_duration_stimuli/001617_2014-06-20_11-35-32_260595134347_rgbf000066-resize_1/001617_2014-06-20_11-35-32_260595134347_rgbf000066-resize_1-target.png,83,3.7910000000000004,89,2835,82,meters,jsons/VE83_randls_36_rotated.json,688530,1005116,25,Woman
127,907260,DepthScenes,duration_manipulation_targetAtFixation,jsons/VE83_randls_36_rotated.json,http://54.235.29.9/FacialAge/BNav_EC2/DepthDuration/v2_depth_duration_MTurk/v2_DepthDuration_HTML.html#7,7,1821,825,1366,768,8-29-2023,12-18-58,128,depth_duration_stimuli/001806_2014-06-26_20-50-20_260595134347_rgbf000091-resize_1/001806_2014-06-26_20-50-20_260595134347_rgbf000091-resize_1-target.png,83,2.7305,45,2804,83,meters,jsons/VE83_randls_36_rotated.json,688530,1005116,25,Woman
128,907260,DepthScenes,duration_manipulation_targetAtFixation,jsons/VE83_randls_36_rotated.json,http://54.235.29.9/FacialAge/BNav_EC2/DepthDuration/v2_depth_duration_MTurk/v2_DepthDuration_HTML.html#7,7,1821,825,1366,768,8-29-2023,12-18-58,129,depth_duration_stimuli/001447_2014-06-19_17-00-32_260595134347_rgbf000082-resize_5/001447_2014-06-19_17-00-32_260595134347_rgbf000082-resize_5-target.png,83,4.13775,55,3132,83,meters,jsons/VE83_randls_36_rotated.json,688530,1005116,25,Woman
129,907260,DepthScenes,duration_manipulation_targetAtFixation,jsons/VE83_randls_36_rotated.json,http://54.235.29.9/FacialAge/BNav_EC2/DepthDuration/v2_depth_duration_MTurk/v2_DepthDuration_HTML.html#7,7,1821,825,1366,768,8-29-2023,12-18-58,130,depth_duration_stimuli/000447_2014-06-08_16-15-46_260595134347_rgbf000130-resize_1/000447_2014-06-08_16-15-46_260595134347_rgbf000130-resize_1-target.png,83,4.479,45,12381,1,meters,jsons/VE83_randls_36_rotated.json,688530,1005116,25,Woman
130,907260,DepthScenes,duration_manipulation_targetAtFixation,jsons/VE83_randls_36_rotated.json,http://54.235.29.9/FacialAge/BNav_EC2/DepthDuration/v2_depth_duration_MTurk/v2_DepthDuration_HTML.html#7,7,1821,825,1366,768,8-29-2023,12-18-58,131,depth_duration_stimuli/000556_2014-06-09_22-42-56_260595134347_rgbf000214-resize_1/000556_2014-06-09_22-42-56_260595134347_rgbf000214-resize_1-target.png,83,4.8415,55,3009,82,meters,jsons/VE83_randls_36_rotated.json,688530,1005116,25,Woman
131,907260,DepthScenes,duration_manipulation_targetAtFixation,jsons/VE83_randls_36_rotated.json,http://54.235.29.9/FacialAge/BNav_EC2/DepthDuration/v2_depth_duration_MTurk/v2_DepthDuration_HTML.html#7,7,1821,825,1366,768,8-29-2023,12-18-58,132,depth_duration_stimuli/001158_2014-06-17_15-32-16_260595134347_rgbf000138-resize_2/001158_2014-06-17_15-32-16_260595134347_rgbf000138-resize_2-target.png,83,4.5315,55,8146,83,meters,jsons/VE83_randls_36_rotated.json,688530,1005116,25,Woman
132,907260,DepthScenes,duration_manipulation_targetAtFixation,jsons/VE83_randls_36_rotated.json,http://54.235.29.9/FacialAge/BNav_EC2/DepthDuration/v2_depth_duration_MTurk/v2_DepthDuration_HTML.html#7,7,1821,825,1366,768,8-29-2023,12-18-58,133,depth_duration_stimuli/000549_2014-06-08_22-10-24_260595134347_rgbf000247-resize_3/000549_2014-06-08_22-10-24_260595134347_rgbf000247-resize_3-target.png,83,1.841,55,3107,84,meters,jsons/VE83_randls_36_rotated.json,688530,1005116,25,Woman
133,907260,DepthScenes,duration_manipulation_targetAtFixation,jsons/VE83_randls_36_rotated.json,http://54.235.29.9/FacialAge/BNav_EC2/DepthDuration/v2_depth_duration_MTurk/v2_DepthDuration_HTML.html#7,7,1821,825,1366,768,8-29-2023,12-18-58,134,depth_duration_stimuli/001055_2014-06-08_18-45-35_260595134347_rgbf000111-resize_4/001055_2014-06-08_18-45-35_260595134347_rgbf000111-resize_4-target.png,83,2.4290000000000003,65,2925,87,meters,jsons/VE83_randls_36_rotated.json,688530,1005116,25,Woman
134,907260,DepthScenes,duration_manipulation_targetAtFixation,jsons/VE83_randls_36_rotated.json,http://54.235.29.9/FacialAge/BNav_EC2/DepthDuration/v2_depth_duration_MTurk/v2_DepthDuration_HTML.html#7,7,1821,825,1366,768,8-29-2023,12-18-58,135,depth_duration_stimuli/000375_2014-06-08_11-17-29_260595134347_rgbf000133-resize_2/000375_2014-06-08_11-17-29_260595134347_rgbf000133-resize-original.jpg,83,4.718,60,2835,84,meters,jsons/VE83_randls_36_rotated.json,688530,1005116,25,Woman
135,907260,DepthScenes,duration_manipulation_targetAtFixation,jsons/VE83_randls_36_rotated.json,http://54.235.29.9/FacialAge/BNav_EC2/DepthDuration/v2_depth_duration_MTurk/v2_DepthDuration_HTML.html#7,7,1821,825,1366,768,8-29-2023,12-18-58,136,depth_duration_stimuli/002568_2014-06-24_13-59-21_094959634447_rgbf000062-resize_4/002568_2014-06-24_13-59-21_094959634447_rgbf000062-resize_4-target.png,83,3.015,80,2804,82,meters,jsons/VE83_randls_36_rotated.json,688530,1005116,25,Woman
136,907260,DepthScenes,duration_manipulation_targetAtFixation,jsons/VE83_randls_36_rotated.json,http://54.235.29.9/FacialAge/BNav_EC2/DepthDuration/v2_depth_duration_MTurk/v2_DepthDuration_HTML.html#7,7,1821,825,1366,768,8-29-2023,12-18-58,137,depth_duration_stimuli/003492_2014-05-21_15-50-55_094959634447_rgbf000828-resize_1/003492_2014-05-21_15-50-55_094959634447_rgbf000828-resize_1-target.png,83,4.06875,90,2723,82,meters,jsons/VE83_randls_36_rotated.json,688530,1005116,25,Woman
137,907260,DepthScenes,duration_manipulation_targetAtFixation,jsons/VE83_randls_36_rotated.json,http://54.235.29.9/FacialAge/BNav_EC2/DepthDuration/v2_depth_duration_MTurk/v2_DepthDuration_HTML.html#7,7,1821,825,1366,768,8-29-2023,12-18-58,138,depth_duration_stimuli/003048_2014-06-15_13-49-43_094959634447_rgbf000150-resize_1/003048_2014-06-15_13-49-43_094959634447_rgbf000150-resize_1-target.png,83,4.0035,105,2924,83,meters,jsons/VE83_randls_36_rotated.json,688530,1005116,25,Woman
138,907260,DepthScenes,duration_manipulation_targetAtFixation,jsons/VE83_randls_36_rotated.json,http://54.235.29.9/FacialAge/BNav_EC2/DepthDuration/v2_depth_duration_MTurk/v2_DepthDuration_HTML.html#7,7,1821,825,1366,768,8-29-2023,12-18-58,139,depth_duration_stimuli/002043_2014-06-24_20-29-38_260595134347_rgbf000039-resize_4/002043_2014-06-24_20-29-38_260595134347_rgbf000039-resize_4-target.png,83,2.8435,85,2659,82,meters,jsons/VE83_randls_36_rotated.json,688530,1005116,25,Woman
139,907260,DepthScenes,duration_manipulation_targetAtFixation,jsons/VE83_randls_36_rotated.json,http://54.235.29.9/FacialAge/BNav_EC2/DepthDuration/v2_depth_duration_MTurk/v2_DepthDuration_HTML.html#7,7,1821,825,1366,768,8-29-2023,12-18-58,140,depth_duration_stimuli/000665_2014-06-09_20-42-35_260595134347_rgbf000110-resize_1/000665_2014-06-09_20-42-35_260595134347_rgbf000110-resize_1-target.png,83,3.057,75,2796,83,meters,jsons/VE83_randls_36_rotated.json,688530,1005116,25,Woman
140,907260,DepthScenes,duration_manipulation_targetAtFixation,jsons/VE83_randls_36_rotated.json,http://54.235.29.9/FacialAge/BNav_EC2/DepthDuration/v2_depth_duration_MTurk/v2_DepthDuration_HTML.html#7,7,1821,825,1366,768,8-29-2023,12-18-58,141,depth_duration_stimuli/001150_2014-06-17_15-27-34_260595134347_rgbf000108-resize_2/001150_2014-06-17_15-27-34_260595134347_rgbf000108-resize_2-target.png,83,4.0325,84,2915,83,meters,jsons/VE83_randls_36_rotated.json,688530,1005116,25,Woman
141,907260,DepthScenes,duration_manipulation_targetAtFixation,jsons/VE83_randls_36_rotated.json,http://54.235.29.9/FacialAge/BNav_EC2/DepthDuration/v2_depth_duration_MTurk/v2_DepthDuration_HTML.html#7,7,1821,825,1366,768,8-29-2023,12-18-58,142,depth_duration_stimuli/003228_2014-05-14_13-42-35_094959634447_rgbf000101-resize_1/003228_2014-05-14_13-42-35_094959634447_rgbf000101-resize_1-target.png,83,1.9680000000000002,35,2755,84,meters,jsons/VE83_randls_36_rotated.json,688530,1005116,25,Woman
142,907260,DepthScenes,duration_manipulation_targetAtFixation,jsons/VE83_randls_36_rotated.json,http://54.235.29.9/FacialAge/BNav_EC2/DepthDuration/v2_depth_duration_MTurk/v2_DepthDuration_HTML.html#7,7,1821,825,1366,768,8-29-2023,12-18-58,143,depth_duration_stimuli/002600_2014-06-24_14-27-04_094959634447_rgbf000074-resize_2/002600_2014-06-24_14-27-04_094959634447_rgbf000074-resize_2-target.png,83,2.7575,33,2755,84,meters,jsons/VE83_randls_36_rotated.json,688530,1005116,25,Woman
143,907260,DepthScenes,duration_manipulation_targetAtFixation,jsons/VE83_randls_36_rotated.json,http://54.235.29.9/FacialAge/BNav_EC2/DepthDuration/v2_depth_duration_MTurk/v2_DepthDuration_HTML.html#7,7,1821,825,1366,768,8-29-2023,12-18-58,144,depth_duration_stimuli/002323_2014-06-28_20-01-54_260595134347_rgbf000051-resize_4/002323_2014-06-28_20-01-54_260595134347_rgbf000051-resize_4-target.png,83,3.7310000000000003,34,3090,84,meters,jsons/VE83_randls_36_rotated.json,688530,1005116,25,Woman
144,907260,DepthScenes,duration_manipulation_targetAtFixation,jsons/VE83_randls_36_rotated.json,http://54.235.29.9/FacialAge/BNav_EC2/DepthDuration/v2_depth_duration_MTurk/v2_DepthDuration_HTML.html#7,7,1821,825,1366,768,8-29-2023,12-18-58,145,depth_duration_stimuli/000917_2014-06-09_22-45-29_260595134347_rgbf000149-resize_3/000917_2014-06-09_22-45-29_260595134347_rgbf000149-resize_3-target.png,83,4.1865,25,2779,84,meters,jsons/VE83_randls_36_rotated.json,688530,1005116,25,Woman
145,907260,DepthScenes,duration_manipulation_targetAtFixation,jsons/VE83_randls_36_rotated.json,http://54.235.29.9/FacialAge/BNav_EC2/DepthDuration/v2_depth_duration_MTurk/v2_DepthDuration_HTML.html#7,7,1821,825,1366,768,8-29-2023,12-18-58,146,depth_duration_stimuli/001235_2014-06-17_16-37-36_260595134347_rgbf000084-resize_4/001235_2014-06-17_16-37-36_260595134347_rgbf000084-resize_4-target.png,83,3.6605,24,3012,83,meters,jsons/VE83_randls_36_rotated.json,688530,1005116,25,Woman
146,907260,DepthScenes,duration_manipulation_targetAtFixation,jsons/VE83_randls_36_rotated.json,http://54.235.29.9/FacialAge/BNav_EC2/DepthDuration/v2_depth_duration_MTurk/v2_DepthDuration_HTML.html#7,7,1821,825,1366,768,8-29-2023,12-18-58,147,depth_duration_stimuli/000788_2014-06-08_22-34-36_260595134347_rgbf000131-resize_1/000788_2014-06-08_22-34-36_260595134347_rgbf000131-resize_1-target.png,83,3.359,55,3178,83,meters,jsons/VE83_randls_36_rotated.json,688530,1005116,25,Woman
147,907260,DepthScenes,duration_manipulation_targetAtFixation,jsons/VE83_randls_36_rotated.json,http://54.235.29.9/FacialAge/BNav_EC2/DepthDuration/v2_depth_duration_MTurk/v2_DepthDuration_HTML.html#7,7,1821,825,1366,768,8-29-2023,12-18-58,148,depth_duration_stimuli/000457_2014-06-08_16-52-43_260595134347_rgbf000199-resize_1/000457_2014-06-08_16-52-43_260595134347_rgbf000199-resize_1-target.png,83,3.6489999999999996,65,3131,83,meters,jsons/VE83_randls_36_rotated.json,688530,1005116,25,Woman
148,907260,DepthScenes,duration_manipulation_targetAtFixation,jsons/VE83_randls_36_rotated.json,http://54.235.29.9/FacialAge/BNav_EC2/DepthDuration/v2_depth_duration_MTurk/v2_DepthDuration_HTML.html#7,7,1821,825,1366,768,8-29-2023,12-18-58,149,depth_duration_stimuli/000929_2014-06-09_16-33-19_260595134347_rgbf000139-resize_0/000929_2014-06-09_16-33-19_260595134347_rgbf000139-resize_0-target.png,83,2.8680000000000003,25,2772,83,meters,jsons/VE83_randls_36_rotated.json,688530,1005116,25,Woman
149,907260,DepthScenes,duration_manipulation_targetAtFixation,jsons/VE83_randls_36_rotated.json,http://54.235.29.9/FacialAge/BNav_EC2/DepthDuration/v2_depth_duration_MTurk/v2_DepthDuration_HTML.html#7,7,1821,825,1366,768,8-29-2023,12-18-58,150,depth_duration_stimuli/002414_2014-06-28_20-24-58_260595134347_rgbf000067-resize_4/002414_2014-06-28_20-24-58_260595134347_rgbf000067-resize_4-target.png,83,4.363,30,2778,83,meters,jsons/VE83_randls_36_rotated.json,688530,1005116,25,Woman
150,907260,DepthScenes,duration_manipulation_targetAtFixation,jsons/VE83_randls_36_rotated.json,http://54.235.29.9/FacialAge/BNav_EC2/DepthDuration/v2_depth_duration_MTurk/v2_DepthDuration_HTML.html#7,7,1821,825,1366,768,8-29-2023,12-18-58,151,depth_duration_stimuli/000773_2014-06-08_22-24-54_260595134347_rgbf000093-resize_1/000773_2014-06-08_22-24-54_260595134347_rgbf000093-resize_1-target.png,83,4.973,34,2635,81,meters,jsons/VE83_randls_36_rotated.json,688530,1005116,25,Woman
151,907260,DepthScenes,duration_manipulation_targetAtFixation,jsons/VE83_randls_36_rotated.json,http://54.235.29.9/FacialAge/BNav_EC2/DepthDuration/v2_depth_duration_MTurk/v2_DepthDuration_HTML.html#7,7,1821,825,1366,768,8-29-2023,12-18-58,152,depth_duration_stimuli/000569_2014-06-09_22-51-47_260595134347_rgbf000141-resize_3/000569_2014-06-09_22-51-47_260595134347_rgbf000141-resize-original.jpg,83,4.512,35,2618,84,meters,jsons/VE83_randls_36_rotated.json,688530,1005116,25,Woman
152,907260,DepthScenes,duration_manipulation_targetAtFixation,jsons/VE83_randls_36_rotated.json,http://54.235.29.9/FacialAge/BNav_EC2/DepthDuration/v2_depth_duration_MTurk/v2_DepthDuration_HTML.html#7,7,1821,825,1366,768,8-29-2023,12-18-58,153,depth_duration_stimuli/002949_2014-06-26_15-57-42_094959634447_rgbf000079-resize_1/002949_2014-06-26_15-57-42_094959634447_rgbf000079-resize_1-target.png,83,1.8915,45,2996,83,meters,jsons/VE83_randls_36_rotated.json,688530,1005116,25,Woman
153,907260,DepthScenes,duration_manipulation_targetAtFixation,jsons/VE83_randls_36_rotated.json,http://54.235.29.9/FacialAge/BNav_EC2/DepthDuration/v2_depth_duration_MTurk/v2_DepthDuration_HTML.html#7,7,1821,825,1366,768,8-29-2023,12-18-58,154,depth_duration_stimuli/000522_2014-06-08_13-35-06_260595134347_rgbf000244-resize_1/000522_2014-06-08_13-35-06_260595134347_rgbf000244-resize_1-target.png,83,2.3715,35,4443,84,meters,jsons/VE83_randls_36_rotated.json,688530,1005116,25,Woman
154,907260,DepthScenes,duration_manipulation_targetAtFixation,jsons/VE83_randls_36_rotated.json,http://54.235.29.9/FacialAge/BNav_EC2/DepthDuration/v2_depth_duration_MTurk/v2_DepthDuration_HTML.html#7,7,1821,825,1366,768,8-29-2023,12-18-58,155,depth_duration_stimuli/002660_2014-06-13_15-44-18_094959634447_rgbf001878-resize_2/002660_2014-06-13_15-44-18_094959634447_rgbf001878-resize_2-target.png,83,3.576,65,3361,84,meters,jsons/VE83_randls_36_rotated.json,688530,1005116,25,Woman
155,907260,DepthScenes,duration_manipulation_targetAtFixation,jsons/VE83_randls_36_rotated.json,http://54.235.29.9/FacialAge/BNav_EC2/DepthDuration/v2_depth_duration_MTurk/v2_DepthDuration_HTML.html#7,7,1821,825,1366,768,8-29-2023,12-18-58,156,depth_duration_stimuli/002153_2014-06-25_21-27-18_260595134347_rgbf000038-resize_5/002153_2014-06-25_21-27-18_260595134347_rgbf000038-resize_5-target.png,83,2.505,66,3115,83,meters,jsons/VE83_randls_36_rotated.json,688530,1005116,25,Woman
156,907260,DepthScenes,duration_manipulation_targetAtFixation,jsons/VE83_randls_36_rotated.json,http://54.235.29.9/FacialAge/BNav_EC2/DepthDuration/v2_depth_duration_MTurk/v2_DepthDuration_HTML.html#7,7,1821,825,1366,768,8-29-2023,12-18-58,157,depth_duration_stimuli/002136_2014-06-25_21-18-03_260595134347_rgbf000109-resize_3/002136_2014-06-25_21-18-03_260595134347_rgbf000109-resize_3-target.png,83,1.9569999999999999,55,5821,83,meters,jsons/VE83_randls_36_rotated.json,688530,1005116,25,Woman
157,907260,DepthScenes,duration_manipulation_targetAtFixation,jsons/VE83_randls_36_rotated.json,http://54.235.29.9/FacialAge/BNav_EC2/DepthDuration/v2_depth_duration_MTurk/v2_DepthDuration_HTML.html#7,7,1821,825,1366,768,8-29-2023,12-18-58,158,depth_duration_stimuli/002964_2014-06-08_17-46-11_094959634447_rgbf000091-resize_4/002964_2014-06-08_17-46-11_094959634447_rgbf000091-resize_4-target.png,83,1.6909999999999998,55,11129,1,meters,jsons/VE83_randls_36_rotated.json,688530,1005116,25,Woman
158,907260,DepthScenes,duration_manipulation_targetAtFixation,jsons/VE83_randls_36_rotated.json,http://54.235.29.9/FacialAge/BNav_EC2/DepthDuration/v2_depth_duration_MTurk/v2_DepthDuration_HTML.html#7,7,1821,825,1366,768,8-29-2023,12-18-58,159,depth_duration_stimuli/001392_2014-06-19_16-07-59_260595134347_rgbf000046-resize_1/001392_2014-06-19_16-07-59_260595134347_rgbf000046-resize_1-target.png,83,4.135,55,4155,82,meters,jsons/VE83_randls_36_rotated.json,688530,1005116,25,Woman
159,907260,DepthScenes,duration_manipulation_targetAtFixation,jsons/VE83_randls_36_rotated.json,http://54.235.29.9/FacialAge/BNav_EC2/DepthDuration/v2_depth_duration_MTurk/v2_DepthDuration_HTML.html#7,7,1821,825,1366,768,8-29-2023,12-18-58,160,depth_duration_stimuli/001570_2014-06-20_17-21-09_260595134347_rgbf000135-resize_4/001570_2014-06-20_17-21-09_260595134347_rgbf000135-resize_4-target.png,83,4.467,35,2771,83,meters,jsons/VE83_randls_36_rotated.json,688530,1005116,25,Woman
160,907260,DepthScenes,duration_manipulation_targetAtFixation,jsons/VE83_randls_36_rotated.json,http://54.235.29.9/FacialAge/BNav_EC2/DepthDuration/v2_depth_duration_MTurk/v2_DepthDuration_HTML.html#7,7,1821,825,1366,768,8-29-2023,12-18-58,161,depth_duration_stimuli/000137_2014-05-20_17-04-49_260595134347_rgbf000120-resize_1/000137_2014-05-20_17-04-49_260595134347_rgbf000120-resize_1-target.png,83,3.786,65,2771,83,meters,jsons/VE83_randls_36_rotated.json,688530,1005116,25,Woman
161,907260,DepthScenes,duration_manipulation_targetAtFixation,jsons/VE83_randls_36_rotated.json,http://54.235.29.9/FacialAge/BNav_EC2/DepthDuration/v2_depth_duration_MTurk/v2_DepthDuration_HTML.html#7,7,1821,825,1366,768,8-29-2023,12-18-58,162,depth_duration_stimuli/000736_2014-06-08_18-24-15_260595134347_rgbf000206-resize_3/000736_2014-06-08_18-24-15_260595134347_rgbf000206-resize_3-target.png,83,3.515,25,3922,84,meters,jsons/VE83_randls_36_rotated.json,688530,1005116,25,Woman
162,907260,DepthScenes,duration_manipulation_targetAtFixation,jsons/VE83_randls_36_rotated.json,http://54.235.29.9/FacialAge/BNav_EC2/DepthDuration/v2_depth_duration_MTurk/v2_DepthDuration_HTML.html#7,7,1821,825,1366,768,8-29-2023,12-18-58,163,depth_duration_stimuli/000749_2014-06-08_21-55-06_260595134347_rgbf000070-resize_2/000749_2014-06-08_21-55-06_260595134347_rgbf000070-resize_2-target.png,83,2.331,35,3091,84,meters,jsons/VE83_randls_36_rotated.json,688530,1005116,25,Woman
163,907260,DepthScenes,duration_manipulation_targetAtFixation,jsons/VE83_randls_36_rotated.json,http://54.235.29.9/FacialAge/BNav_EC2/DepthDuration/v2_depth_duration_MTurk/v2_DepthDuration_HTML.html#7,7,1821,825,1366,768,8-29-2023,12-18-58,164,depth_duration_stimuli/002788_2014-06-22_19-36-03_094959634447_rgbf000088-resize_2/002788_2014-06-22_19-36-03_094959634447_rgbf000088-resize_2-target.png,83,1.6465,35,3933,84,meters,jsons/VE83_randls_36_rotated.json,688530,1005116,25,Woman
