,subjID,experimentName,versionName,sequenceName,url,selected_row,windowWidth,windowHeight,screenWidth,screenHeight,startDate,startTime,trial,stimulus,duration,actual_depth,depth_estimate,trial_RT,log_sceneDuration,unitSelection,seq_filepath,experimentTime,totalTime,age,gender
0,909513,DepthScenes,duration_manipulation_targetAtFixation,jsons/v1_VE1000_randls_9.json,http://54.235.29.9/FacialAge/BNav_EC2/DepthDuration/v2_depth_duration_MTurk/v2_DepthDuration_HTML.html#357,357,1536,755,1536,864,8-30-2022,9-59-7,1,depth_duration_stimuli/000470_2014-06-09_19-42-40_260595134347_rgbf000094-resize_1/000470_2014-06-09_19-42-40_260595134347_rgbf000094-resize_1-target.png,1000,1.831,2.2,13167,993,feet,jsons/v1_VE1000_randls_9.json,2307009,2697032,60,Man
1,909513,DepthScenes,duration_manipulation_targetAtFixation,jsons/v1_VE1000_randls_9.json,http://54.235.29.9/FacialAge/BNav_EC2/DepthDuration/v2_depth_duration_MTurk/v2_DepthDuration_HTML.html#357,357,1536,755,1536,864,8-30-2022,9-59-7,2,depth_duration_stimuli/000109_2014-05-14_23-41-52_260595134347_rgbf000035-resize_9/000109_2014-05-14_23-41-52_260595134347_rgbf000035-resize_9-target.png,1000,1.3545,0.0,15879,993,feet,jsons/v1_VE1000_randls_9.json,2307009,2697032,60,Man
2,909513,DepthScenes,duration_manipulation_targetAtFixation,jsons/v1_VE1000_randls_9.json,http://54.235.29.9/FacialAge/BNav_EC2/DepthDuration/v2_depth_duration_MTurk/v2_DepthDuration_HTML.html#357,357,1536,755,1536,864,8-30-2022,9-59-7,3,depth_duration_stimuli/000758_2014-06-08_22-05-08_260595134347_rgbf000085-resize_0/000758_2014-06-08_22-05-08_260595134347_rgbf000085-resize_0-target.png,1000,3.3810000000000002,4.3,17513,988,feet,jsons/v1_VE1000_randls_9.json,2307009,2697032,60,Man
3,909513,DepthScenes,duration_manipulation_targetAtFixation,jsons/v1_VE1000_randls_9.json,http://54.235.29.9/FacialAge/BNav_EC2/DepthDuration/v2_depth_duration_MTurk/v2_DepthDuration_HTML.html#357,357,1536,755,1536,864,8-30-2022,9-59-7,4,depth_duration_stimuli/000854_2014-06-09_19-43-13_260595134347_rgbf000066-resize_0/000854_2014-06-09_19-43-13_260595134347_rgbf000066-resize_0-target.png,1000,3.068,2.1,9486,1001,feet,jsons/v1_VE1000_randls_9.json,2307009,2697032,60,Man
4,909513,DepthScenes,duration_manipulation_targetAtFixation,jsons/v1_VE1000_randls_9.json,http://54.235.29.9/FacialAge/BNav_EC2/DepthDuration/v2_depth_duration_MTurk/v2_DepthDuration_HTML.html#357,357,1536,755,1536,864,8-30-2022,9-59-7,5,depth_duration_stimuli/002905_2014-06-03_18-04-43_094959634447_rgbf000151-resize_2/002905_2014-06-03_18-04-43_094959634447_rgbf000151-resize_2-target.png,1000,2.0295,1.65,10437,998,feet,jsons/v1_VE1000_randls_9.json,2307009,2697032,60,Man
5,909513,DepthScenes,duration_manipulation_targetAtFixation,jsons/v1_VE1000_randls_9.json,http://54.235.29.9/FacialAge/BNav_EC2/DepthDuration/v2_depth_duration_MTurk/v2_DepthDuration_HTML.html#357,357,1536,755,1536,864,8-30-2022,9-59-7,6,depth_duration_stimuli/003423_2014-05-21_10-23-26_094959634447_rgbf002665-resize_2/003423_2014-05-21_10-23-26_094959634447_rgbf002665-resize_2-target.png,1000,3.2575,0.5,8975,999,feet,jsons/v1_VE1000_randls_9.json,2307009,2697032,60,Man
6,909513,DepthScenes,duration_manipulation_targetAtFixation,jsons/v1_VE1000_randls_9.json,http://54.235.29.9/FacialAge/BNav_EC2/DepthDuration/v2_depth_duration_MTurk/v2_DepthDuration_HTML.html#357,357,1536,755,1536,864,8-30-2022,9-59-7,7,depth_duration_stimuli/002118_2014-06-25_20-32-08_260595134347_rgbf000078-resize_1/002118_2014-06-25_20-32-08_260595134347_rgbf000078-resize_1-target.png,1000,2.6460000000000004,1.2,9791,996,feet,jsons/v1_VE1000_randls_9.json,2307009,2697032,60,Man
7,909513,DepthScenes,duration_manipulation_targetAtFixation,jsons/v1_VE1000_randls_9.json,http://54.235.29.9/FacialAge/BNav_EC2/DepthDuration/v2_depth_duration_MTurk/v2_DepthDuration_HTML.html#357,357,1536,755,1536,864,8-30-2022,9-59-7,8,depth_duration_stimuli/001516_2014-06-20_16-25-09_260595134347_rgbf000076-resize_2/001516_2014-06-20_16-25-09_260595134347_rgbf000076-resize_2-target.png,1000,1.7445,2.0,82883,999,feet,jsons/v1_VE1000_randls_9.json,2307009,2697032,60,Man
8,909513,DepthScenes,duration_manipulation_targetAtFixation,jsons/v1_VE1000_randls_9.json,http://54.235.29.9/FacialAge/BNav_EC2/DepthDuration/v2_depth_duration_MTurk/v2_DepthDuration_HTML.html#357,357,1536,755,1536,864,8-30-2022,9-59-7,9,depth_duration_stimuli/002549_2014-06-24_13-41-39_094959634447_rgbf000022-resize_3/002549_2014-06-24_13-41-39_094959634447_rgbf000022-resize_3-target.png,1000,1.476,3.1,17131,996,feet,jsons/v1_VE1000_randls_9.json,2307009,2697032,60,Man
9,909513,DepthScenes,duration_manipulation_targetAtFixation,jsons/v1_VE1000_randls_9.json,http://54.235.29.9/FacialAge/BNav_EC2/DepthDuration/v2_depth_duration_MTurk/v2_DepthDuration_HTML.html#357,357,1536,755,1536,864,8-30-2022,9-59-7,10,depth_duration_stimuli/002750_2014-06-22_19-08-03_094959634447_rgbf000094-resize_4/002750_2014-06-22_19-08-03_094959634447_rgbf000094-resize_4-target.png,1000,2.354,2.0,11451,1289,feet,jsons/v1_VE1000_randls_9.json,2307009,2697032,60,Man
10,909513,DepthScenes,duration_manipulation_targetAtFixation,jsons/v1_VE1000_randls_9.json,http://54.235.29.9/FacialAge/BNav_EC2/DepthDuration/v2_depth_duration_MTurk/v2_DepthDuration_HTML.html#357,357,1536,755,1536,864,8-30-2022,9-59-7,11,depth_duration_stimuli/000469_2014-06-09_19-42-10_260595134347_rgbf000081-resize_1/000469_2014-06-09_19-42-10_260595134347_rgbf000081-resize_1-target.png,1000,1.652,1.8,12690,996,feet,jsons/v1_VE1000_randls_9.json,2307009,2697032,60,Man
11,909513,DepthScenes,duration_manipulation_targetAtFixation,jsons/v1_VE1000_randls_9.json,http://54.235.29.9/FacialAge/BNav_EC2/DepthDuration/v2_depth_duration_MTurk/v2_DepthDuration_HTML.html#357,357,1536,755,1536,864,8-30-2022,9-59-7,12,depth_duration_stimuli/000483_2014-06-09_20-41-45_260595134347_rgbf000116-resize_4/000483_2014-06-09_20-41-45_260595134347_rgbf000116-resize_4-target.png,1000,1.337,2.1,13612,996,feet,jsons/v1_VE1000_randls_9.json,2307009,2697032,60,Man
12,909513,DepthScenes,duration_manipulation_targetAtFixation,jsons/v1_VE1000_randls_9.json,http://54.235.29.9/FacialAge/BNav_EC2/DepthDuration/v2_depth_duration_MTurk/v2_DepthDuration_HTML.html#357,357,1536,755,1536,864,8-30-2022,9-59-7,13,depth_duration_stimuli/000569_2014-06-09_22-51-47_260595134347_rgbf000141-resize_3/000569_2014-06-09_22-51-47_260595134347_rgbf000141-resize-original.jpg,1000,4.512,0.0,7304,998,feet,jsons/v1_VE1000_randls_9.json,2307009,2697032,60,Man
13,909513,DepthScenes,duration_manipulation_targetAtFixation,jsons/v1_VE1000_randls_9.json,http://54.235.29.9/FacialAge/BNav_EC2/DepthDuration/v2_depth_duration_MTurk/v2_DepthDuration_HTML.html#357,357,1536,755,1536,864,8-30-2022,9-59-7,14,depth_duration_stimuli/002663_2014-06-13_15-50-26_094959634447_rgbf000075-resize_1/002663_2014-06-13_15-50-26_094959634447_rgbf000075-resize_1-target.png,1000,4.7495,4.5,11417,998,feet,jsons/v1_VE1000_randls_9.json,2307009,2697032,60,Man
14,909513,DepthScenes,duration_manipulation_targetAtFixation,jsons/v1_VE1000_randls_9.json,http://54.235.29.9/FacialAge/BNav_EC2/DepthDuration/v2_depth_duration_MTurk/v2_DepthDuration_HTML.html#357,357,1536,755,1536,864,8-30-2022,9-59-7,15,depth_duration_stimuli/000409_2014-06-04_19-23-33_260595134347_rgbf000067-resize_0/000409_2014-06-04_19-23-33_260595134347_rgbf000067-resize_0-target.png,1000,3.7335,2.9,11081,999,feet,jsons/v1_VE1000_randls_9.json,2307009,2697032,60,Man
15,909513,DepthScenes,duration_manipulation_targetAtFixation,jsons/v1_VE1000_randls_9.json,http://54.235.29.9/FacialAge/BNav_EC2/DepthDuration/v2_depth_duration_MTurk/v2_DepthDuration_HTML.html#357,357,1536,755,1536,864,8-30-2022,9-59-7,16,depth_duration_stimuli/002964_2014-06-08_17-46-11_094959634447_rgbf000091-resize_4/002964_2014-06-08_17-46-11_094959634447_rgbf000091-resize_4-target.png,1000,1.6909999999999998,1.6,11785,998,feet,jsons/v1_VE1000_randls_9.json,2307009,2697032,60,Man
16,909513,DepthScenes,duration_manipulation_targetAtFixation,jsons/v1_VE1000_randls_9.json,http://54.235.29.9/FacialAge/BNav_EC2/DepthDuration/v2_depth_duration_MTurk/v2_DepthDuration_HTML.html#357,357,1536,755,1536,864,8-30-2022,9-59-7,17,depth_duration_stimuli/002136_2014-06-25_21-18-03_260595134347_rgbf000109-resize_3/002136_2014-06-25_21-18-03_260595134347_rgbf000109-resize_3-target.png,1000,1.9569999999999999,2.6,31092,1000,feet,jsons/v1_VE1000_randls_9.json,2307009,2697032,60,Man
17,909513,DepthScenes,duration_manipulation_targetAtFixation,jsons/v1_VE1000_randls_9.json,http://54.235.29.9/FacialAge/BNav_EC2/DepthDuration/v2_depth_duration_MTurk/v2_DepthDuration_HTML.html#357,357,1536,755,1536,864,8-30-2022,9-59-7,18,depth_duration_stimuli/002763_2014-06-22_19-13-10_094959634447_rgbf000075-resize_4/002763_2014-06-22_19-13-10_094959634447_rgbf000075-resize_4-target.png,1000,1.68375,3.6,16966,995,feet,jsons/v1_VE1000_randls_9.json,2307009,2697032,60,Man
18,909513,DepthScenes,duration_manipulation_targetAtFixation,jsons/v1_VE1000_randls_9.json,http://54.235.29.9/FacialAge/BNav_EC2/DepthDuration/v2_depth_duration_MTurk/v2_DepthDuration_HTML.html#357,357,1536,755,1536,864,8-30-2022,9-59-7,19,depth_duration_stimuli/002209_2014-06-28_18-36-10_260595134347_rgbf000051-resize_1/002209_2014-06-28_18-36-10_260595134347_rgbf000051-resize_1-target.png,1000,2.057,3.2,13010,873,feet,jsons/v1_VE1000_randls_9.json,2307009,2697032,60,Man
19,909513,DepthScenes,duration_manipulation_targetAtFixation,jsons/v1_VE1000_randls_9.json,http://54.235.29.9/FacialAge/BNav_EC2/DepthDuration/v2_depth_duration_MTurk/v2_DepthDuration_HTML.html#357,357,1536,755,1536,864,8-30-2022,9-59-7,20,depth_duration_stimuli/003534_2014-05-22_15-06-10_094959634447_rgbf000102-resize_4/003534_2014-05-22_15-06-10_094959634447_rgbf000102-resize_4-target.png,1000,1.426,0.5,17680,994,feet,jsons/v1_VE1000_randls_9.json,2307009,2697032,60,Man
20,909513,DepthScenes,duration_manipulation_targetAtFixation,jsons/v1_VE1000_randls_9.json,http://54.235.29.9/FacialAge/BNav_EC2/DepthDuration/v2_depth_duration_MTurk/v2_DepthDuration_HTML.html#357,357,1536,755,1536,864,8-30-2022,9-59-7,21,depth_duration_stimuli/002637_2014-06-24_14-51-13_094959634447_rgbf000066-resize_4/002637_2014-06-24_14-51-13_094959634447_rgbf000066-resize_4-target.png,1000,1.9955,4.3,21688,1076,feet,jsons/v1_VE1000_randls_9.json,2307009,2697032,60,Man
21,909513,DepthScenes,duration_manipulation_targetAtFixation,jsons/v1_VE1000_randls_9.json,http://54.235.29.9/FacialAge/BNav_EC2/DepthDuration/v2_depth_duration_MTurk/v2_DepthDuration_HTML.html#357,357,1536,755,1536,864,8-30-2022,9-59-7,22,depth_duration_stimuli/001167_2014-06-17_15-38-07_260595134347_rgbf000108-resize_0/001167_2014-06-17_15-38-07_260595134347_rgbf000108-resize_0-target.png,1000,1.8505,3.6,12965,1007,feet,jsons/v1_VE1000_randls_9.json,2307009,2697032,60,Man
22,909513,DepthScenes,duration_manipulation_targetAtFixation,jsons/v1_VE1000_randls_9.json,http://54.235.29.9/FacialAge/BNav_EC2/DepthDuration/v2_depth_duration_MTurk/v2_DepthDuration_HTML.html#357,357,1536,755,1536,864,8-30-2022,9-59-7,23,depth_duration_stimuli/003587_2014-05-23_16-48-02_094959634447_rgbf002384-resize_2/003587_2014-05-23_16-48-02_094959634447_rgbf002384-resize_2-target.png,1000,1.357,3.5,12273,959,feet,jsons/v1_VE1000_randls_9.json,2307009,2697032,60,Man
23,909513,DepthScenes,duration_manipulation_targetAtFixation,jsons/v1_VE1000_randls_9.json,http://54.235.29.9/FacialAge/BNav_EC2/DepthDuration/v2_depth_duration_MTurk/v2_DepthDuration_HTML.html#357,357,1536,755,1536,864,8-30-2022,9-59-7,24,depth_duration_stimuli/000878_2014-06-08_22-52-45_260595134347_rgbf000045-resize_2/000878_2014-06-08_22-52-45_260595134347_rgbf000045-resize_2-target.png,1000,2.092,3.9,48139,987,feet,jsons/v1_VE1000_randls_9.json,2307009,2697032,60,Man
24,909513,DepthScenes,duration_manipulation_targetAtFixation,jsons/v1_VE1000_randls_9.json,http://54.235.29.9/FacialAge/BNav_EC2/DepthDuration/v2_depth_duration_MTurk/v2_DepthDuration_HTML.html#357,357,1536,755,1536,864,8-30-2022,9-59-7,25,depth_duration_stimuli/002953_2014-06-08_17-32-18_094959634447_rgbf000059-resize_5/002953_2014-06-08_17-32-18_094959634447_rgbf000059-resize_5-target.png,1000,1.551,2.9,9603,1000,feet,jsons/v1_VE1000_randls_9.json,2307009,2697032,60,Man
25,909513,DepthScenes,duration_manipulation_targetAtFixation,jsons/v1_VE1000_randls_9.json,http://54.235.29.9/FacialAge/BNav_EC2/DepthDuration/v2_depth_duration_MTurk/v2_DepthDuration_HTML.html#357,357,1536,755,1536,864,8-30-2022,9-59-7,26,depth_duration_stimuli/001417_2014-06-19_16-25-36_260595134347_rgbf000115-resize_5/001417_2014-06-19_16-25-36_260595134347_rgbf000115-resize_5-target.png,1000,4.6255,3.2,6552,1160,feet,jsons/v1_VE1000_randls_9.json,2307009,2697032,60,Man
26,909513,DepthScenes,duration_manipulation_targetAtFixation,jsons/v1_VE1000_randls_9.json,http://54.235.29.9/FacialAge/BNav_EC2/DepthDuration/v2_depth_duration_MTurk/v2_DepthDuration_HTML.html#357,357,1536,755,1536,864,8-30-2022,9-59-7,27,depth_duration_stimuli/003081_2014-06-15_15-19-16_094959634447_rgbf000150-resize_1/003081_2014-06-15_15-19-16_094959634447_rgbf000150-resize_1-target.png,1000,3.9125,4.1,12028,994,feet,jsons/v1_VE1000_randls_9.json,2307009,2697032,60,Man
27,909513,DepthScenes,duration_manipulation_targetAtFixation,jsons/v1_VE1000_randls_9.json,http://54.235.29.9/FacialAge/BNav_EC2/DepthDuration/v2_depth_duration_MTurk/v2_DepthDuration_HTML.html#357,357,1536,755,1536,864,8-30-2022,9-59-7,28,depth_duration_stimuli/001092_2014-06-15_17-34-58_260595134347_rgbf000171-resize_3/001092_2014-06-15_17-34-58_260595134347_rgbf000171-resize_3-target.png,1000,2.6935,2.8,6925,986,feet,jsons/v1_VE1000_randls_9.json,2307009,2697032,60,Man
28,909513,DepthScenes,duration_manipulation_targetAtFixation,jsons/v1_VE1000_randls_9.json,http://54.235.29.9/FacialAge/BNav_EC2/DepthDuration/v2_depth_duration_MTurk/v2_DepthDuration_HTML.html#357,357,1536,755,1536,864,8-30-2022,9-59-7,29,depth_duration_stimuli/002545_2014-06-24_13-38-53_094959634447_rgbf000080-resize_4/002545_2014-06-24_13-38-53_094959634447_rgbf000080-resize_4-target.png,1000,1.9205,4.2,8319,775,feet,jsons/v1_VE1000_randls_9.json,2307009,2697032,60,Man
29,909513,DepthScenes,duration_manipulation_targetAtFixation,jsons/v1_VE1000_randls_9.json,http://54.235.29.9/FacialAge/BNav_EC2/DepthDuration/v2_depth_duration_MTurk/v2_DepthDuration_HTML.html#357,357,1536,755,1536,864,8-30-2022,9-59-7,30,depth_duration_stimuli/000375_2014-06-08_11-17-29_260595134347_rgbf000133-resize_2/000375_2014-06-08_11-17-29_260595134347_rgbf000133-resize-original.jpg,1000,4.718,0.0,8225,1000,feet,jsons/v1_VE1000_randls_9.json,2307009,2697032,60,Man
30,909513,DepthScenes,duration_manipulation_targetAtFixation,jsons/v1_VE1000_randls_9.json,http://54.235.29.9/FacialAge/BNav_EC2/DepthDuration/v2_depth_duration_MTurk/v2_DepthDuration_HTML.html#357,357,1536,755,1536,864,8-30-2022,9-59-7,31,depth_duration_stimuli/003070_2014-06-15_14-58-27_094959634447_rgbf000150-resize_3/003070_2014-06-15_14-58-27_094959634447_rgbf000150-resize_3-target.png,1000,2.9415,4.6,19444,996,feet,jsons/v1_VE1000_randls_9.json,2307009,2697032,60,Man
31,909513,DepthScenes,duration_manipulation_targetAtFixation,jsons/v1_VE1000_randls_9.json,http://54.235.29.9/FacialAge/BNav_EC2/DepthDuration/v2_depth_duration_MTurk/v2_DepthDuration_HTML.html#357,357,1536,755,1536,864,8-30-2022,9-59-7,32,depth_duration_stimuli/000943_2014-06-09_19-31-07_260595134347_rgbf000128-resize_1/000943_2014-06-09_19-31-07_260595134347_rgbf000128-resize_1-target.png,1000,1.9765,3.6,9898,996,feet,jsons/v1_VE1000_randls_9.json,2307009,2697032,60,Man
32,909513,DepthScenes,duration_manipulation_targetAtFixation,jsons/v1_VE1000_randls_9.json,http://54.235.29.9/FacialAge/BNav_EC2/DepthDuration/v2_depth_duration_MTurk/v2_DepthDuration_HTML.html#357,357,1536,755,1536,864,8-30-2022,9-59-7,33,depth_duration_stimuli/001110_2014-06-15_17-25-28_260595134347_rgbf000150-resize_1/001110_2014-06-15_17-25-28_260595134347_rgbf000150-resize_1-target.png,1000,1.7115,3.9,21083,995,feet,jsons/v1_VE1000_randls_9.json,2307009,2697032,60,Man
33,909513,DepthScenes,duration_manipulation_targetAtFixation,jsons/v1_VE1000_randls_9.json,http://54.235.29.9/FacialAge/BNav_EC2/DepthDuration/v2_depth_duration_MTurk/v2_DepthDuration_HTML.html#357,357,1536,755,1536,864,8-30-2022,9-59-7,34,depth_duration_stimuli/000927_2014-06-09_16-32-30_260595134347_rgbf000123-resize_3/000927_2014-06-09_16-32-30_260595134347_rgbf000123-resize_3-target.png,1000,2.6785,3.6,15824,981,feet,jsons/v1_VE1000_randls_9.json,2307009,2697032,60,Man
34,909513,DepthScenes,duration_manipulation_targetAtFixation,jsons/v1_VE1000_randls_9.json,http://54.235.29.9/FacialAge/BNav_EC2/DepthDuration/v2_depth_duration_MTurk/v2_DepthDuration_HTML.html#357,357,1536,755,1536,864,8-30-2022,9-59-7,35,depth_duration_stimuli/001244_2014-06-17_16-47-45_260595134347_rgbf000030-resize_4/001244_2014-06-17_16-47-45_260595134347_rgbf000030-resize_4-target.png,1000,2.0425,4.6,16810,998,feet,jsons/v1_VE1000_randls_9.json,2307009,2697032,60,Man
35,909513,DepthScenes,duration_manipulation_targetAtFixation,jsons/v1_VE1000_randls_9.json,http://54.235.29.9/FacialAge/BNav_EC2/DepthDuration/v2_depth_duration_MTurk/v2_DepthDuration_HTML.html#357,357,1536,755,1536,864,8-30-2022,9-59-7,36,depth_duration_stimuli/003495_2014-05-21_16-01-51_094959634447_rgbf000100-resize_3/003495_2014-05-21_16-01-51_094959634447_rgbf000100-resize_3-target.png,1000,1.6255,0.8,13677,998,feet,jsons/v1_VE1000_randls_9.json,2307009,2697032,60,Man
36,909513,DepthScenes,duration_manipulation_targetAtFixation,jsons/v1_VE1000_randls_9.json,http://54.235.29.9/FacialAge/BNav_EC2/DepthDuration/v2_depth_duration_MTurk/v2_DepthDuration_HTML.html#357,357,1536,755,1536,864,8-30-2022,9-59-7,37,depth_duration_stimuli/002039_2014-06-24_20-22-38_260595134347_rgbf000084-resize_1/002039_2014-06-24_20-22-38_260595134347_rgbf000084-resize_1-target.png,1000,4.408,0.0,7169,891,feet,jsons/v1_VE1000_randls_9.json,2307009,2697032,60,Man
37,909513,DepthScenes,duration_manipulation_targetAtFixation,jsons/v1_VE1000_randls_9.json,http://54.235.29.9/FacialAge/BNav_EC2/DepthDuration/v2_depth_duration_MTurk/v2_DepthDuration_HTML.html#357,357,1536,755,1536,864,8-30-2022,9-59-7,38,depth_duration_stimuli/002103_2014-06-25_20-00-40_260595134347_rgbf000049-resize_0/002103_2014-06-25_20-00-40_260595134347_rgbf000049-resize_0-target.png,1000,4.105,4.1,10755,994,feet,jsons/v1_VE1000_randls_9.json,2307009,2697032,60,Man
38,909513,DepthScenes,duration_manipulation_targetAtFixation,jsons/v1_VE1000_randls_9.json,http://54.235.29.9/FacialAge/BNav_EC2/DepthDuration/v2_depth_duration_MTurk/v2_DepthDuration_HTML.html#357,357,1536,755,1536,864,8-30-2022,9-59-7,39,depth_duration_stimuli/001133_2014-06-17_14-49-16_260595134347_rgbf000100-resize_0/001133_2014-06-17_14-49-16_260595134347_rgbf000100-resize_0-target.png,1000,4.2115,3.2,23829,985,feet,jsons/v1_VE1000_randls_9.json,2307009,2697032,60,Man
39,909513,DepthScenes,duration_manipulation_targetAtFixation,jsons/v1_VE1000_randls_9.json,http://54.235.29.9/FacialAge/BNav_EC2/DepthDuration/v2_depth_duration_MTurk/v2_DepthDuration_HTML.html#357,357,1536,755,1536,864,8-30-2022,9-59-7,40,depth_duration_stimuli/001132_2014-06-17_14-48-54_260595134347_rgbf000100-resize_2/001132_2014-06-17_14-48-54_260595134347_rgbf000100-resize_2-target.png,1000,3.753,4.6,19845,998,feet,jsons/v1_VE1000_randls_9.json,2307009,2697032,60,Man
40,909513,DepthScenes,duration_manipulation_targetAtFixation,jsons/v1_VE1000_randls_9.json,http://54.235.29.9/FacialAge/BNav_EC2/DepthDuration/v2_depth_duration_MTurk/v2_DepthDuration_HTML.html#357,357,1536,755,1536,864,8-30-2022,9-59-7,41,depth_duration_stimuli/003621_2014-05-23_18-06-08_094959634447_rgbf000101-resize_1/003621_2014-05-23_18-06-08_094959634447_rgbf000101-resize_1-target.png,1000,3.9835,4.1,37929,998,feet,jsons/v1_VE1000_randls_9.json,2307009,2697032,60,Man
41,909513,DepthScenes,duration_manipulation_targetAtFixation,jsons/v1_VE1000_randls_9.json,http://54.235.29.9/FacialAge/BNav_EC2/DepthDuration/v2_depth_duration_MTurk/v2_DepthDuration_HTML.html#357,357,1536,755,1536,864,8-30-2022,9-59-7,42,depth_duration_stimuli/001584_2014-06-20_11-07-43_260595134347_rgbf000002-resize_1/001584_2014-06-20_11-07-43_260595134347_rgbf000002-resize_1-target.png,1000,3.53,4.1,16297,1229,feet,jsons/v1_VE1000_randls_9.json,2307009,2697032,60,Man
42,909513,DepthScenes,duration_manipulation_targetAtFixation,jsons/v1_VE1000_randls_9.json,http://54.235.29.9/FacialAge/BNav_EC2/DepthDuration/v2_depth_duration_MTurk/v2_DepthDuration_HTML.html#357,357,1536,755,1536,864,8-30-2022,9-59-7,43,depth_duration_stimuli/001808_2014-06-26_20-50-58_260595134347_rgbf000029-resize_1/001808_2014-06-26_20-50-58_260595134347_rgbf000029-resize_1-target.png,1000,4.249,5.0,10366,999,feet,jsons/v1_VE1000_randls_9.json,2307009,2697032,60,Man
43,909513,DepthScenes,duration_manipulation_targetAtFixation,jsons/v1_VE1000_randls_9.json,http://54.235.29.9/FacialAge/BNav_EC2/DepthDuration/v2_depth_duration_MTurk/v2_DepthDuration_HTML.html#357,357,1536,755,1536,864,8-30-2022,9-59-7,44,depth_duration_stimuli/001815_2014-06-26_20-52-55_260595134347_rgbf000020-resize_0/001815_2014-06-26_20-52-55_260595134347_rgbf000020-resize_0-target.png,1000,3.3865,5.2,8632,991,feet,jsons/v1_VE1000_randls_9.json,2307009,2697032,60,Man
44,909513,DepthScenes,duration_manipulation_targetAtFixation,jsons/v1_VE1000_randls_9.json,http://54.235.29.9/FacialAge/BNav_EC2/DepthDuration/v2_depth_duration_MTurk/v2_DepthDuration_HTML.html#357,357,1536,755,1536,864,8-30-2022,9-59-7,45,depth_duration_stimuli/000787_2014-06-08_22-33-53_260595134347_rgbf000175-resize_1/000787_2014-06-08_22-33-53_260595134347_rgbf000175-resize-original.jpg,1000,4.784,0.0,6512,917,feet,jsons/v1_VE1000_randls_9.json,2307009,2697032,60,Man
45,909513,DepthScenes,duration_manipulation_targetAtFixation,jsons/v1_VE1000_randls_9.json,http://54.235.29.9/FacialAge/BNav_EC2/DepthDuration/v2_depth_duration_MTurk/v2_DepthDuration_HTML.html#357,357,1536,755,1536,864,8-30-2022,9-59-7,46,depth_duration_stimuli/001199_2014-06-17_16-03-48_260595134347_rgbf000077-resize_0/001199_2014-06-17_16-03-48_260595134347_rgbf000077-resize_0-target.png,1000,3.4375,3.1,12097,1000,feet,jsons/v1_VE1000_randls_9.json,2307009,2697032,60,Man
46,909513,DepthScenes,duration_manipulation_targetAtFixation,jsons/v1_VE1000_randls_9.json,http://54.235.29.9/FacialAge/BNav_EC2/DepthDuration/v2_depth_duration_MTurk/v2_DepthDuration_HTML.html#357,357,1536,755,1536,864,8-30-2022,9-59-7,47,depth_duration_stimuli/000502_2014-06-08_23-02-32_260595134347_rgbf000063-resize_4/000502_2014-06-08_23-02-32_260595134347_rgbf000063-resize_4-target.png,1000,2.431,2.1,17789,998,feet,jsons/v1_VE1000_randls_9.json,2307009,2697032,60,Man
47,909513,DepthScenes,duration_manipulation_targetAtFixation,jsons/v1_VE1000_randls_9.json,http://54.235.29.9/FacialAge/BNav_EC2/DepthDuration/v2_depth_duration_MTurk/v2_DepthDuration_HTML.html#357,357,1536,755,1536,864,8-30-2022,9-59-7,48,depth_duration_stimuli/000788_2014-06-08_22-34-36_260595134347_rgbf000131-resize_1/000788_2014-06-08_22-34-36_260595134347_rgbf000131-resize_1-target.png,1000,3.359,1.2,9491,1109,feet,jsons/v1_VE1000_randls_9.json,2307009,2697032,60,Man
48,909513,DepthScenes,duration_manipulation_targetAtFixation,jsons/v1_VE1000_randls_9.json,http://54.235.29.9/FacialAge/BNav_EC2/DepthDuration/v2_depth_duration_MTurk/v2_DepthDuration_HTML.html#357,357,1536,755,1536,864,8-30-2022,9-59-7,49,depth_duration_stimuli/001235_2014-06-17_16-37-36_260595134347_rgbf000084-resize_4/001235_2014-06-17_16-37-36_260595134347_rgbf000084-resize_4-target.png,1000,3.6605,0.0,7110,989,feet,jsons/v1_VE1000_randls_9.json,2307009,2697032,60,Man
49,909513,DepthScenes,duration_manipulation_targetAtFixation,jsons/v1_VE1000_randls_9.json,http://54.235.29.9/FacialAge/BNav_EC2/DepthDuration/v2_depth_duration_MTurk/v2_DepthDuration_HTML.html#357,357,1536,755,1536,864,8-30-2022,9-59-7,50,depth_duration_stimuli/000493_2014-06-09_21-01-18_260595134347_rgbf000196-resize_3/000493_2014-06-09_21-01-18_260595134347_rgbf000196-resize_3-target.png,1000,3.44,3.9,8218,1000,feet,jsons/v1_VE1000_randls_9.json,2307009,2697032,60,Man
50,909513,DepthScenes,duration_manipulation_targetAtFixation,jsons/v1_VE1000_randls_9.json,http://54.235.29.9/FacialAge/BNav_EC2/DepthDuration/v2_depth_duration_MTurk/v2_DepthDuration_HTML.html#357,357,1536,755,1536,864,8-30-2022,9-59-7,51,depth_duration_stimuli/000191_2014-05-12_17-07-38_260595134347_rgbf000199-resize_0/000191_2014-05-12_17-07-38_260595134347_rgbf000199-resize_0-target.png,1000,3.7995,5.6,10981,995,feet,jsons/v1_VE1000_randls_9.json,2307009,2697032,60,Man
51,909513,DepthScenes,duration_manipulation_targetAtFixation,jsons/v1_VE1000_randls_9.json,http://54.235.29.9/FacialAge/BNav_EC2/DepthDuration/v2_depth_duration_MTurk/v2_DepthDuration_HTML.html#357,357,1536,755,1536,864,8-30-2022,9-59-7,52,depth_duration_stimuli/002748_2014-06-22_19-07-22_094959634447_rgbf000078-resize_1/002748_2014-06-22_19-07-22_094959634447_rgbf000078-resize_1-target.png,1000,4.6705,5.7,18068,998,feet,jsons/v1_VE1000_randls_9.json,2307009,2697032,60,Man
52,909513,DepthScenes,duration_manipulation_targetAtFixation,jsons/v1_VE1000_randls_9.json,http://54.235.29.9/FacialAge/BNav_EC2/DepthDuration/v2_depth_duration_MTurk/v2_DepthDuration_HTML.html#357,357,1536,755,1536,864,8-30-2022,9-59-7,53,depth_duration_stimuli/002995_2014-06-15_12-31-26_094959634447_rgbf000150-resize_1/002995_2014-06-15_12-31-26_094959634447_rgbf000150-resize_1-target.png,1000,3.8360000000000003,0.0,10640,998,feet,jsons/v1_VE1000_randls_9.json,2307009,2697032,60,Man
53,909513,DepthScenes,duration_manipulation_targetAtFixation,jsons/v1_VE1000_randls_9.json,http://54.235.29.9/FacialAge/BNav_EC2/DepthDuration/v2_depth_duration_MTurk/v2_DepthDuration_HTML.html#357,357,1536,755,1536,864,8-30-2022,9-59-7,54,depth_duration_stimuli/001059_2014-06-08_21-53-27_260595134347_rgbf000061-resize_4/001059_2014-06-08_21-53-27_260595134347_rgbf000061-resize_4-target.png,1000,2.4185,3.1,20964,1048,feet,jsons/v1_VE1000_randls_9.json,2307009,2697032,60,Man
54,909513,DepthScenes,duration_manipulation_targetAtFixation,jsons/v1_VE1000_randls_9.json,http://54.235.29.9/FacialAge/BNav_EC2/DepthDuration/v2_depth_duration_MTurk/v2_DepthDuration_HTML.html#357,357,1536,755,1536,864,8-30-2022,9-59-7,55,depth_duration_stimuli/001032_2014-06-08_13-23-17_260595134347_rgbf000021-resize_3/001032_2014-06-08_13-23-17_260595134347_rgbf000021-resize_3-target.png,1000,3.2725,2.5,40486,997,feet,jsons/v1_VE1000_randls_9.json,2307009,2697032,60,Man
55,909513,DepthScenes,duration_manipulation_targetAtFixation,jsons/v1_VE1000_randls_9.json,http://54.235.29.9/FacialAge/BNav_EC2/DepthDuration/v2_depth_duration_MTurk/v2_DepthDuration_HTML.html#357,357,1536,755,1536,864,8-30-2022,9-59-7,56,depth_duration_stimuli/002600_2014-06-24_14-27-04_094959634447_rgbf000074-resize_2/002600_2014-06-24_14-27-04_094959634447_rgbf000074-resize_2-target.png,1000,2.7575,1.1,16284,1000,feet,jsons/v1_VE1000_randls_9.json,2307009,2697032,60,Man
56,909513,DepthScenes,duration_manipulation_targetAtFixation,jsons/v1_VE1000_randls_9.json,http://54.235.29.9/FacialAge/BNav_EC2/DepthDuration/v2_depth_duration_MTurk/v2_DepthDuration_HTML.html#357,357,1536,755,1536,864,8-30-2022,9-59-7,57,depth_duration_stimuli/003228_2014-05-14_13-42-35_094959634447_rgbf000101-resize_1/003228_2014-05-14_13-42-35_094959634447_rgbf000101-resize_1-target.png,1000,1.9680000000000002,2.6,73513,999,feet,jsons/v1_VE1000_randls_9.json,2307009,2697032,60,Man
57,909513,DepthScenes,duration_manipulation_targetAtFixation,jsons/v1_VE1000_randls_9.json,http://54.235.29.9/FacialAge/BNav_EC2/DepthDuration/v2_depth_duration_MTurk/v2_DepthDuration_HTML.html#357,357,1536,755,1536,864,8-30-2022,9-59-7,58,depth_duration_stimuli/001150_2014-06-17_15-27-34_260595134347_rgbf000108-resize_2/001150_2014-06-17_15-27-34_260595134347_rgbf000108-resize_2-target.png,1000,4.0325,5.1,15782,998,feet,jsons/v1_VE1000_randls_9.json,2307009,2697032,60,Man
58,909513,DepthScenes,duration_manipulation_targetAtFixation,jsons/v1_VE1000_randls_9.json,http://54.235.29.9/FacialAge/BNav_EC2/DepthDuration/v2_depth_duration_MTurk/v2_DepthDuration_HTML.html#357,357,1536,755,1536,864,8-30-2022,9-59-7,59,depth_duration_stimuli/000665_2014-06-09_20-42-35_260595134347_rgbf000110-resize_1/000665_2014-06-09_20-42-35_260595134347_rgbf000110-resize_1-target.png,1000,3.057,4.5,8141,998,feet,jsons/v1_VE1000_randls_9.json,2307009,2697032,60,Man
59,909513,DepthScenes,duration_manipulation_targetAtFixation,jsons/v1_VE1000_randls_9.json,http://54.235.29.9/FacialAge/BNav_EC2/DepthDuration/v2_depth_duration_MTurk/v2_DepthDuration_HTML.html#357,357,1536,755,1536,864,8-30-2022,9-59-7,60,depth_duration_stimuli/002445_2014-06-28_20-32-16_260595134347_rgbf000029-resize_4/002445_2014-06-28_20-32-16_260595134347_rgbf000029-resize_4-target.png,1000,2.5315,2.2,12458,993,feet,jsons/v1_VE1000_randls_9.json,2307009,2697032,60,Man
60,909513,DepthScenes,duration_manipulation_targetAtFixation,jsons/v1_VE1000_randls_9.json,http://54.235.29.9/FacialAge/BNav_EC2/DepthDuration/v2_depth_duration_MTurk/v2_DepthDuration_HTML.html#357,357,1536,755,1536,864,8-30-2022,9-59-7,61,depth_duration_stimuli/000780_2014-06-08_22-28-29_260595134347_rgbf000126-resize_1/000780_2014-06-08_22-28-29_260595134347_rgbf000126-resize_1-target.png,1000,3.3825,4.8,8409,722,feet,jsons/v1_VE1000_randls_9.json,2307009,2697032,60,Man
61,909513,DepthScenes,duration_manipulation_targetAtFixation,jsons/v1_VE1000_randls_9.json,http://54.235.29.9/FacialAge/BNav_EC2/DepthDuration/v2_depth_duration_MTurk/v2_DepthDuration_HTML.html#357,357,1536,755,1536,864,8-30-2022,9-59-7,62,depth_duration_stimuli/001164_2014-06-17_15-35-46_260595134347_rgbf000085-resize_3/001164_2014-06-17_15-35-46_260595134347_rgbf000085-resize_3-target.png,1000,2.354,5.1,8586,1000,feet,jsons/v1_VE1000_randls_9.json,2307009,2697032,60,Man
62,909513,DepthScenes,duration_manipulation_targetAtFixation,jsons/v1_VE1000_randls_9.json,http://54.235.29.9/FacialAge/BNav_EC2/DepthDuration/v2_depth_duration_MTurk/v2_DepthDuration_HTML.html#357,357,1536,755,1536,864,8-30-2022,9-59-7,63,depth_duration_stimuli/001136_2014-06-17_15-19-41_260595134347_rgbf000076-resize_3/001136_2014-06-17_15-19-41_260595134347_rgbf000076-resize_3-target.png,1000,1.8655,4.2,26160,1182,feet,jsons/v1_VE1000_randls_9.json,2307009,2697032,60,Man
63,909513,DepthScenes,duration_manipulation_targetAtFixation,jsons/v1_VE1000_randls_9.json,http://54.235.29.9/FacialAge/BNav_EC2/DepthDuration/v2_depth_duration_MTurk/v2_DepthDuration_HTML.html#357,357,1536,755,1536,864,8-30-2022,9-59-7,64,depth_duration_stimuli/002375_2014-06-28_20-13-44_260595134347_rgbf000032-resize_1/002375_2014-06-28_20-13-44_260595134347_rgbf000032-resize_1-target.png,1000,4.0175,4.5,46755,999,feet,jsons/v1_VE1000_randls_9.json,2307009,2697032,60,Man
64,909513,DepthScenes,duration_manipulation_targetAtFixation,jsons/v1_VE1000_randls_9.json,http://54.235.29.9/FacialAge/BNav_EC2/DepthDuration/v2_depth_duration_MTurk/v2_DepthDuration_HTML.html#357,357,1536,755,1536,864,8-30-2022,9-59-7,65,depth_duration_stimuli/002657_2014-06-13_15-29-54_094959634447_rgbf000150-resize_1/002657_2014-06-13_15-29-54_094959634447_rgbf000150-resize_1-target.png,1000,4.919,1.9,11800,996,feet,jsons/v1_VE1000_randls_9.json,2307009,2697032,60,Man
65,909513,DepthScenes,duration_manipulation_targetAtFixation,jsons/v1_VE1000_randls_9.json,http://54.235.29.9/FacialAge/BNav_EC2/DepthDuration/v2_depth_duration_MTurk/v2_DepthDuration_HTML.html#357,357,1536,755,1536,864,8-30-2022,9-59-7,66,depth_duration_stimuli/001222_2014-06-17_16-24-06_260595134347_rgbf000073-resize_0/001222_2014-06-17_16-24-06_260595134347_rgbf000073-resize-original.jpg,1000,1.4385,0.0,6039,998,feet,jsons/v1_VE1000_randls_9.json,2307009,2697032,60,Man
66,909513,DepthScenes,duration_manipulation_targetAtFixation,jsons/v1_VE1000_randls_9.json,http://54.235.29.9/FacialAge/BNav_EC2/DepthDuration/v2_depth_duration_MTurk/v2_DepthDuration_HTML.html#357,357,1536,755,1536,864,8-30-2022,9-59-7,67,depth_duration_stimuli/000692_2014-06-08_13-09-42_260595134347_rgbf000199-resize_2/000692_2014-06-08_13-09-42_260595134347_rgbf000199-resize_2-target.png,1000,3.661,4.8,8071,995,feet,jsons/v1_VE1000_randls_9.json,2307009,2697032,60,Man
67,909513,DepthScenes,duration_manipulation_targetAtFixation,jsons/v1_VE1000_randls_9.json,http://54.235.29.9/FacialAge/BNav_EC2/DepthDuration/v2_depth_duration_MTurk/v2_DepthDuration_HTML.html#357,357,1536,755,1536,864,8-30-2022,9-59-7,68,depth_duration_stimuli/001094_2014-06-15_17-36-00_260595134347_rgbf000205-resize_0/001094_2014-06-15_17-36-00_260595134347_rgbf000205-resize_0-target.png,1000,4.2175,3.2,8761,1003,feet,jsons/v1_VE1000_randls_9.json,2307009,2697032,60,Man
68,909513,DepthScenes,duration_manipulation_targetAtFixation,jsons/v1_VE1000_randls_9.json,http://54.235.29.9/FacialAge/BNav_EC2/DepthDuration/v2_depth_duration_MTurk/v2_DepthDuration_HTML.html#357,357,1536,755,1536,864,8-30-2022,9-59-7,69,depth_duration_stimuli/000486_2014-06-09_20-47-20_260595134347_rgbf000143-resize_2/000486_2014-06-09_20-47-20_260595134347_rgbf000143-resize_2-target.png,1000,4.8325,3.2,10605,865,feet,jsons/v1_VE1000_randls_9.json,2307009,2697032,60,Man
69,909513,DepthScenes,duration_manipulation_targetAtFixation,jsons/v1_VE1000_randls_9.json,http://54.235.29.9/FacialAge/BNav_EC2/DepthDuration/v2_depth_duration_MTurk/v2_DepthDuration_HTML.html#357,357,1536,755,1536,864,8-30-2022,9-59-7,70,depth_duration_stimuli/003083_2014-06-15_15-21-03_094959634447_rgbf000063-resize_1/003083_2014-06-15_15-21-03_094959634447_rgbf000063-resize_1-target.png,1000,4.1405,5.4,9311,997,feet,jsons/v1_VE1000_randls_9.json,2307009,2697032,60,Man
70,909513,DepthScenes,duration_manipulation_targetAtFixation,jsons/v1_VE1000_randls_9.json,http://54.235.29.9/FacialAge/BNav_EC2/DepthDuration/v2_depth_duration_MTurk/v2_DepthDuration_HTML.html#357,357,1536,755,1536,864,8-30-2022,9-59-7,71,depth_duration_stimuli/000522_2014-06-08_13-35-06_260595134347_rgbf000244-resize_1/000522_2014-06-08_13-35-06_260595134347_rgbf000244-resize_1-target.png,1000,2.3715,3.8,12710,977,feet,jsons/v1_VE1000_randls_9.json,2307009,2697032,60,Man
71,909513,DepthScenes,duration_manipulation_targetAtFixation,jsons/v1_VE1000_randls_9.json,http://54.235.29.9/FacialAge/BNav_EC2/DepthDuration/v2_depth_duration_MTurk/v2_DepthDuration_HTML.html#357,357,1536,755,1536,864,8-30-2022,9-59-7,72,depth_duration_stimuli/002949_2014-06-26_15-57-42_094959634447_rgbf000079-resize_1/002949_2014-06-26_15-57-42_094959634447_rgbf000079-resize_1-target.png,1000,1.8915,2.8,17114,1097,feet,jsons/v1_VE1000_randls_9.json,2307009,2697032,60,Man
72,909513,DepthScenes,duration_manipulation_targetAtFixation,jsons/v1_VE1000_randls_9.json,http://54.235.29.9/FacialAge/BNav_EC2/DepthDuration/v2_depth_duration_MTurk/v2_DepthDuration_HTML.html#357,357,1536,755,1536,864,8-30-2022,9-59-7,73,depth_duration_stimuli/003492_2014-05-21_15-50-55_094959634447_rgbf000828-resize_1/003492_2014-05-21_15-50-55_094959634447_rgbf000828-resize_1-target.png,1000,4.06875,2.1,33086,1037,feet,jsons/v1_VE1000_randls_9.json,2307009,2697032,60,Man
73,909513,DepthScenes,duration_manipulation_targetAtFixation,jsons/v1_VE1000_randls_9.json,http://54.235.29.9/FacialAge/BNav_EC2/DepthDuration/v2_depth_duration_MTurk/v2_DepthDuration_HTML.html#357,357,1536,755,1536,864,8-30-2022,9-59-7,74,depth_duration_stimuli/002568_2014-06-24_13-59-21_094959634447_rgbf000062-resize_4/002568_2014-06-24_13-59-21_094959634447_rgbf000062-resize_4-target.png,1000,3.015,3.1,8447,989,feet,jsons/v1_VE1000_randls_9.json,2307009,2697032,60,Man
74,909513,DepthScenes,duration_manipulation_targetAtFixation,jsons/v1_VE1000_randls_9.json,http://54.235.29.9/FacialAge/BNav_EC2/DepthDuration/v2_depth_duration_MTurk/v2_DepthDuration_HTML.html#357,357,1536,755,1536,864,8-30-2022,9-59-7,75,depth_duration_stimuli/001029_2014-06-08_13-17-57_260595134347_rgbf000065-resize_1/001029_2014-06-08_13-17-57_260595134347_rgbf000065-resize_1-target.png,1000,3.0835,4.2,7752,1017,feet,jsons/v1_VE1000_randls_9.json,2307009,2697032,60,Man
75,909513,DepthScenes,duration_manipulation_targetAtFixation,jsons/v1_VE1000_randls_9.json,http://54.235.29.9/FacialAge/BNav_EC2/DepthDuration/v2_depth_duration_MTurk/v2_DepthDuration_HTML.html#357,357,1536,755,1536,864,8-30-2022,9-59-7,76,depth_duration_stimuli/000677_2014-06-08_23-10-32_260595134347_rgbf000158-resize_6/000677_2014-06-08_23-10-32_260595134347_rgbf000158-resize_6-target.png,1000,3.556,4.6,8473,1000,feet,jsons/v1_VE1000_randls_9.json,2307009,2697032,60,Man
76,909513,DepthScenes,duration_manipulation_targetAtFixation,jsons/v1_VE1000_randls_9.json,http://54.235.29.9/FacialAge/BNav_EC2/DepthDuration/v2_depth_duration_MTurk/v2_DepthDuration_HTML.html#357,357,1536,755,1536,864,8-30-2022,9-59-7,77,depth_duration_stimuli/002788_2014-06-22_19-36-03_094959634447_rgbf000088-resize_2/002788_2014-06-22_19-36-03_094959634447_rgbf000088-resize_2-target.png,1000,1.6465,5.0,10354,1000,feet,jsons/v1_VE1000_randls_9.json,2307009,2697032,60,Man
77,909513,DepthScenes,duration_manipulation_targetAtFixation,jsons/v1_VE1000_randls_9.json,http://54.235.29.9/FacialAge/BNav_EC2/DepthDuration/v2_depth_duration_MTurk/v2_DepthDuration_HTML.html#357,357,1536,755,1536,864,8-30-2022,9-59-7,78,depth_duration_stimuli/000749_2014-06-08_21-55-06_260595134347_rgbf000070-resize_2/000749_2014-06-08_21-55-06_260595134347_rgbf000070-resize_2-target.png,1000,2.331,4.1,10160,1099,feet,jsons/v1_VE1000_randls_9.json,2307009,2697032,60,Man
78,909513,DepthScenes,duration_manipulation_targetAtFixation,jsons/v1_VE1000_randls_9.json,http://54.235.29.9/FacialAge/BNav_EC2/DepthDuration/v2_depth_duration_MTurk/v2_DepthDuration_HTML.html#357,357,1536,755,1536,864,8-30-2022,9-59-7,79,depth_duration_stimuli/002272_2014-06-28_18-53-56_260595134347_rgbf000067-resize_2/002272_2014-06-28_18-53-56_260595134347_rgbf000067-resize_2-target.png,1000,1.138,2.1,11308,999,feet,jsons/v1_VE1000_randls_9.json,2307009,2697032,60,Man
79,909513,DepthScenes,duration_manipulation_targetAtFixation,jsons/v1_VE1000_randls_9.json,http://54.235.29.9/FacialAge/BNav_EC2/DepthDuration/v2_depth_duration_MTurk/v2_DepthDuration_HTML.html#357,357,1536,755,1536,864,8-30-2022,9-59-7,80,depth_duration_stimuli/001571_2014-06-20_17-21-32_260595134347_rgbf000089-resize_1/001571_2014-06-20_17-21-32_260595134347_rgbf000089-resize_1-target.png,1000,1.86,1.8,10212,840,feet,jsons/v1_VE1000_randls_9.json,2307009,2697032,60,Man
80,909513,DepthScenes,duration_manipulation_targetAtFixation,jsons/v1_VE1000_randls_9.json,http://54.235.29.9/FacialAge/BNav_EC2/DepthDuration/v2_depth_duration_MTurk/v2_DepthDuration_HTML.html#357,357,1536,755,1536,864,8-30-2022,9-59-7,81,depth_duration_stimuli/001055_2014-06-08_18-45-35_260595134347_rgbf000111-resize_4/001055_2014-06-08_18-45-35_260595134347_rgbf000111-resize_4-target.png,1000,2.4290000000000003,6.2,9500,996,feet,jsons/v1_VE1000_randls_9.json,2307009,2697032,60,Man
81,909513,DepthScenes,duration_manipulation_targetAtFixation,jsons/v1_VE1000_randls_9.json,http://54.235.29.9/FacialAge/BNav_EC2/DepthDuration/v2_depth_duration_MTurk/v2_DepthDuration_HTML.html#357,357,1536,755,1536,864,8-30-2022,9-59-7,82,depth_duration_stimuli/000549_2014-06-08_22-10-24_260595134347_rgbf000247-resize_3/000549_2014-06-08_22-10-24_260595134347_rgbf000247-resize_3-target.png,1000,1.841,2.1,8776,996,feet,jsons/v1_VE1000_randls_9.json,2307009,2697032,60,Man
82,909513,DepthScenes,duration_manipulation_targetAtFixation,jsons/v1_VE1000_randls_9.json,http://54.235.29.9/FacialAge/BNav_EC2/DepthDuration/v2_depth_duration_MTurk/v2_DepthDuration_HTML.html#357,357,1536,755,1536,864,8-30-2022,9-59-7,83,depth_duration_stimuli/002784_2014-06-22_19-26-30_094959634447_rgbf000083-resize_3/002784_2014-06-22_19-26-30_094959634447_rgbf000083-resize_3-target.png,1000,1.8046666666667,0.8,17955,998,feet,jsons/v1_VE1000_randls_9.json,2307009,2697032,60,Man
83,909513,DepthScenes,duration_manipulation_targetAtFixation,jsons/v1_VE1000_randls_9.json,http://54.235.29.9/FacialAge/BNav_EC2/DepthDuration/v2_depth_duration_MTurk/v2_DepthDuration_HTML.html#357,357,1536,755,1536,864,8-30-2022,9-59-7,84,depth_duration_stimuli/001100_2014-06-15_17-46-26_260595134347_rgbf000225-resize_2/001100_2014-06-15_17-46-26_260595134347_rgbf000225-resize_2-target.png,1000,2.24,3.8,16101,997,feet,jsons/v1_VE1000_randls_9.json,2307009,2697032,60,Man
84,909513,DepthScenes,duration_manipulation_targetAtFixation,jsons/v1_VE1000_randls_9.json,http://54.235.29.9/FacialAge/BNav_EC2/DepthDuration/v2_depth_duration_MTurk/v2_DepthDuration_HTML.html#357,357,1536,755,1536,864,8-30-2022,9-59-7,85,depth_duration_stimuli/001016_2014-06-09_16-16-10_260595134347_rgbf000112-resize_5/001016_2014-06-09_16-16-10_260595134347_rgbf000112-resize_5-target.png,1000,1.6565,4.3,13458,998,feet,jsons/v1_VE1000_randls_9.json,2307009,2697032,60,Man
85,909513,DepthScenes,duration_manipulation_targetAtFixation,jsons/v1_VE1000_randls_9.json,http://54.235.29.9/FacialAge/BNav_EC2/DepthDuration/v2_depth_duration_MTurk/v2_DepthDuration_HTML.html#357,357,1536,755,1536,864,8-30-2022,9-59-7,86,depth_duration_stimuli/002340_2014-06-28_20-05-46_260595134347_rgbf000113-resize_0/002340_2014-06-28_20-05-46_260595134347_rgbf000113-resize_0-target.png,1000,2.4735,5.3,19578,998,feet,jsons/v1_VE1000_randls_9.json,2307009,2697032,60,Man
86,909513,DepthScenes,duration_manipulation_targetAtFixation,jsons/v1_VE1000_randls_9.json,http://54.235.29.9/FacialAge/BNav_EC2/DepthDuration/v2_depth_duration_MTurk/v2_DepthDuration_HTML.html#357,357,1536,755,1536,864,8-30-2022,9-59-7,87,depth_duration_stimuli/002043_2014-06-24_20-29-38_260595134347_rgbf000039-resize_4/002043_2014-06-24_20-29-38_260595134347_rgbf000039-resize_4-target.png,1000,2.8435,3.8,11073,1000,feet,jsons/v1_VE1000_randls_9.json,2307009,2697032,60,Man
87,909513,DepthScenes,duration_manipulation_targetAtFixation,jsons/v1_VE1000_randls_9.json,http://54.235.29.9/FacialAge/BNav_EC2/DepthDuration/v2_depth_duration_MTurk/v2_DepthDuration_HTML.html#357,357,1536,755,1536,864,8-30-2022,9-59-7,88,depth_duration_stimuli/003048_2014-06-15_13-49-43_094959634447_rgbf000150-resize_1/003048_2014-06-15_13-49-43_094959634447_rgbf000150-resize_1-target.png,1000,4.0035,4.8,7613,997,feet,jsons/v1_VE1000_randls_9.json,2307009,2697032,60,Man
88,909513,DepthScenes,duration_manipulation_targetAtFixation,jsons/v1_VE1000_randls_9.json,http://54.235.29.9/FacialAge/BNav_EC2/DepthDuration/v2_depth_duration_MTurk/v2_DepthDuration_HTML.html#357,357,1536,755,1536,864,8-30-2022,9-59-7,89,depth_duration_stimuli/002570_2014-06-24_13-59-54_094959634447_rgbf000059-resize_0/002570_2014-06-24_13-59-54_094959634447_rgbf000059-resize_0-target.png,1000,4.037,1.2,6749,995,feet,jsons/v1_VE1000_randls_9.json,2307009,2697032,60,Man
89,909513,DepthScenes,duration_manipulation_targetAtFixation,jsons/v1_VE1000_randls_9.json,http://54.235.29.9/FacialAge/BNav_EC2/DepthDuration/v2_depth_duration_MTurk/v2_DepthDuration_HTML.html#357,357,1536,755,1536,864,8-30-2022,9-59-7,90,depth_duration_stimuli/002467_2014-06-28_20-38-07_260595134347_rgbf000026-resize_2/002467_2014-06-28_20-38-07_260595134347_rgbf000026-resize_2-target.png,1000,4.742,3.3,7869,998,feet,jsons/v1_VE1000_randls_9.json,2307009,2697032,60,Man
90,909513,DepthScenes,duration_manipulation_targetAtFixation,jsons/v1_VE1000_randls_9.json,http://54.235.29.9/FacialAge/BNav_EC2/DepthDuration/v2_depth_duration_MTurk/v2_DepthDuration_HTML.html#357,357,1536,755,1536,864,8-30-2022,9-59-7,91,depth_duration_stimuli/000736_2014-06-08_18-24-15_260595134347_rgbf000206-resize_3/000736_2014-06-08_18-24-15_260595134347_rgbf000206-resize_3-target.png,1000,3.515,1.8,13430,997,feet,jsons/v1_VE1000_randls_9.json,2307009,2697032,60,Man
91,909513,DepthScenes,duration_manipulation_targetAtFixation,jsons/v1_VE1000_randls_9.json,http://54.235.29.9/FacialAge/BNav_EC2/DepthDuration/v2_depth_duration_MTurk/v2_DepthDuration_HTML.html#357,357,1536,755,1536,864,8-30-2022,9-59-7,92,depth_duration_stimuli/000137_2014-05-20_17-04-49_260595134347_rgbf000120-resize_1/000137_2014-05-20_17-04-49_260595134347_rgbf000120-resize_1-target.png,1000,3.786,2.8,21282,995,feet,jsons/v1_VE1000_randls_9.json,2307009,2697032,60,Man
92,909513,DepthScenes,duration_manipulation_targetAtFixation,jsons/v1_VE1000_randls_9.json,http://54.235.29.9/FacialAge/BNav_EC2/DepthDuration/v2_depth_duration_MTurk/v2_DepthDuration_HTML.html#357,357,1536,755,1536,864,8-30-2022,9-59-7,93,depth_duration_stimuli/001806_2014-06-26_20-50-20_260595134347_rgbf000091-resize_1/001806_2014-06-26_20-50-20_260595134347_rgbf000091-resize_1-target.png,1000,2.7305,1.8,8057,1000,feet,jsons/v1_VE1000_randls_9.json,2307009,2697032,60,Man
93,909513,DepthScenes,duration_manipulation_targetAtFixation,jsons/v1_VE1000_randls_9.json,http://54.235.29.9/FacialAge/BNav_EC2/DepthDuration/v2_depth_duration_MTurk/v2_DepthDuration_HTML.html#357,357,1536,755,1536,864,8-30-2022,9-59-7,94,depth_duration_stimuli/001617_2014-06-20_11-35-32_260595134347_rgbf000066-resize_1/001617_2014-06-20_11-35-32_260595134347_rgbf000066-resize_1-target.png,1000,3.7910000000000004,3.8,19059,999,feet,jsons/v1_VE1000_randls_9.json,2307009,2697032,60,Man
94,909513,DepthScenes,duration_manipulation_targetAtFixation,jsons/v1_VE1000_randls_9.json,http://54.235.29.9/FacialAge/BNav_EC2/DepthDuration/v2_depth_duration_MTurk/v2_DepthDuration_HTML.html#357,357,1536,755,1536,864,8-30-2022,9-59-7,95,depth_duration_stimuli/001810_2014-06-26_20-51-35_260595134347_rgbf000040-resize_3/001810_2014-06-26_20-51-35_260595134347_rgbf000040-resize_3-target.png,1000,2.2525,3.9,10829,1025,feet,jsons/v1_VE1000_randls_9.json,2307009,2697032,60,Man
95,909513,DepthScenes,duration_manipulation_targetAtFixation,jsons/v1_VE1000_randls_9.json,http://54.235.29.9/FacialAge/BNav_EC2/DepthDuration/v2_depth_duration_MTurk/v2_DepthDuration_HTML.html#357,357,1536,755,1536,864,8-30-2022,9-59-7,96,depth_duration_stimuli/003010_2014-06-15_12-54-35_094959634447_rgbf000112-resize_0/003010_2014-06-15_12-54-35_094959634447_rgbf000112-resize_0-target.png,1000,3.1185,5.6,22831,1002,feet,jsons/v1_VE1000_randls_9.json,2307009,2697032,60,Man
96,909513,DepthScenes,duration_manipulation_targetAtFixation,jsons/v1_VE1000_randls_9.json,http://54.235.29.9/FacialAge/BNav_EC2/DepthDuration/v2_depth_duration_MTurk/v2_DepthDuration_HTML.html#357,357,1536,755,1536,864,8-30-2022,9-59-7,97,depth_duration_stimuli/000009_2014-05-26_14-32-05_260595134347_rgbf000034-resize_3/000009_2014-05-26_14-32-05_260595134347_rgbf000034-resize_3-target.png,1000,3.8715,6.5,8866,999,feet,jsons/v1_VE1000_randls_9.json,2307009,2697032,60,Man
97,909513,DepthScenes,duration_manipulation_targetAtFixation,jsons/v1_VE1000_randls_9.json,http://54.235.29.9/FacialAge/BNav_EC2/DepthDuration/v2_depth_duration_MTurk/v2_DepthDuration_HTML.html#357,357,1536,755,1536,864,8-30-2022,9-59-7,98,depth_duration_stimuli/001828_2014-06-26_21-40-03_260595134347_rgbf000024-resize_0/001828_2014-06-26_21-40-03_260595134347_rgbf000024-resize_0-target.png,1000,4.8260000000000005,3.8,8948,998,feet,jsons/v1_VE1000_randls_9.json,2307009,2697032,60,Man
98,909513,DepthScenes,duration_manipulation_targetAtFixation,jsons/v1_VE1000_randls_9.json,http://54.235.29.9/FacialAge/BNav_EC2/DepthDuration/v2_depth_duration_MTurk/v2_DepthDuration_HTML.html#357,357,1536,755,1536,864,8-30-2022,9-59-7,99,depth_duration_stimuli/001540_2014-06-20_17-01-05_260595134347_rgbf000086-resize_2/001540_2014-06-20_17-01-05_260595134347_rgbf000086-resize-original.jpg,1000,1.459,0.0,7147,1000,feet,jsons/v1_VE1000_randls_9.json,2307009,2697032,60,Man
99,909513,DepthScenes,duration_manipulation_targetAtFixation,jsons/v1_VE1000_randls_9.json,http://54.235.29.9/FacialAge/BNav_EC2/DepthDuration/v2_depth_duration_MTurk/v2_DepthDuration_HTML.html#357,357,1536,755,1536,864,8-30-2022,9-59-7,100,depth_duration_stimuli/000917_2014-06-09_22-45-29_260595134347_rgbf000149-resize_3/000917_2014-06-09_22-45-29_260595134347_rgbf000149-resize_3-target.png,1000,4.1865,4.5,12944,999,feet,jsons/v1_VE1000_randls_9.json,2307009,2697032,60,Man
100,909513,DepthScenes,duration_manipulation_targetAtFixation,jsons/v1_VE1000_randls_9.json,http://54.235.29.9/FacialAge/BNav_EC2/DepthDuration/v2_depth_duration_MTurk/v2_DepthDuration_HTML.html#357,357,1536,755,1536,864,8-30-2022,9-59-7,101,depth_duration_stimuli/002323_2014-06-28_20-01-54_260595134347_rgbf000051-resize_4/002323_2014-06-28_20-01-54_260595134347_rgbf000051-resize_4-target.png,1000,3.7310000000000003,4.2,12074,1001,feet,jsons/v1_VE1000_randls_9.json,2307009,2697032,60,Man
101,909513,DepthScenes,duration_manipulation_targetAtFixation,jsons/v1_VE1000_randls_9.json,http://54.235.29.9/FacialAge/BNav_EC2/DepthDuration/v2_depth_duration_MTurk/v2_DepthDuration_HTML.html#357,357,1536,755,1536,864,8-30-2022,9-59-7,102,depth_duration_stimuli/002509_2014-06-24_13-19-22_094959634447_rgbf000077-resize_0/002509_2014-06-24_13-19-22_094959634447_rgbf000077-resize_0-target.png,1000,1.3065,4.8,11227,1014,feet,jsons/v1_VE1000_randls_9.json,2307009,2697032,60,Man
102,909513,DepthScenes,duration_manipulation_targetAtFixation,jsons/v1_VE1000_randls_9.json,http://54.235.29.9/FacialAge/BNav_EC2/DepthDuration/v2_depth_duration_MTurk/v2_DepthDuration_HTML.html#357,357,1536,755,1536,864,8-30-2022,9-59-7,103,depth_duration_stimuli/003338_2014-05-20_11-01-23_094959634447_rgbf000051-resize_6/003338_2014-05-20_11-01-23_094959634447_rgbf000051-resize_6-target.png,1000,1.693,3.1,19839,1000,feet,jsons/v1_VE1000_randls_9.json,2307009,2697032,60,Man
103,909513,DepthScenes,duration_manipulation_targetAtFixation,jsons/v1_VE1000_randls_9.json,http://54.235.29.9/FacialAge/BNav_EC2/DepthDuration/v2_depth_duration_MTurk/v2_DepthDuration_HTML.html#357,357,1536,755,1536,864,8-30-2022,9-59-7,104,depth_duration_stimuli/002988_2014-06-15_12-24-20_094959634447_rgbf000150-resize_1/002988_2014-06-15_12-24-20_094959634447_rgbf000150-resize_1-target.png,1000,4.7669999999999995,6.2,8063,996,feet,jsons/v1_VE1000_randls_9.json,2307009,2697032,60,Man
104,909513,DepthScenes,duration_manipulation_targetAtFixation,jsons/v1_VE1000_randls_9.json,http://54.235.29.9/FacialAge/BNav_EC2/DepthDuration/v2_depth_duration_MTurk/v2_DepthDuration_HTML.html#357,357,1536,755,1536,864,8-30-2022,9-59-7,105,depth_duration_stimuli/001052_2014-06-08_18-24-54_260595134347_rgbf000130-resize_1/001052_2014-06-08_18-24-54_260595134347_rgbf000130-resize_1-target.png,1000,4.1045,5.8,7964,991,feet,jsons/v1_VE1000_randls_9.json,2307009,2697032,60,Man
105,909513,DepthScenes,duration_manipulation_targetAtFixation,jsons/v1_VE1000_randls_9.json,http://54.235.29.9/FacialAge/BNav_EC2/DepthDuration/v2_depth_duration_MTurk/v2_DepthDuration_HTML.html#357,357,1536,755,1536,864,8-30-2022,9-59-7,106,depth_duration_stimuli/001555_2014-06-20_17-12-10_260595134347_rgbf000065-resize_4/001555_2014-06-20_17-12-10_260595134347_rgbf000065-resize_4-target.png,1000,1.633,5.0,36765,1015,feet,jsons/v1_VE1000_randls_9.json,2307009,2697032,60,Man
106,909513,DepthScenes,duration_manipulation_targetAtFixation,jsons/v1_VE1000_randls_9.json,http://54.235.29.9/FacialAge/BNav_EC2/DepthDuration/v2_depth_duration_MTurk/v2_DepthDuration_HTML.html#357,357,1536,755,1536,864,8-30-2022,9-59-7,107,depth_duration_stimuli/000103_2014-05-14_22-01-17_260595134347_rgbf000152-resize_5/000103_2014-05-14_22-01-17_260595134347_rgbf000152-resize_5-target.png,1000,1.993,4.8,12426,998,feet,jsons/v1_VE1000_randls_9.json,2307009,2697032,60,Man
107,909513,DepthScenes,duration_manipulation_targetAtFixation,jsons/v1_VE1000_randls_9.json,http://54.235.29.9/FacialAge/BNav_EC2/DepthDuration/v2_depth_duration_MTurk/v2_DepthDuration_HTML.html#357,357,1536,755,1536,864,8-30-2022,9-59-7,108,depth_duration_stimuli/000929_2014-06-09_16-33-19_260595134347_rgbf000139-resize_0/000929_2014-06-09_16-33-19_260595134347_rgbf000139-resize_0-target.png,1000,2.8680000000000003,1.5,9634,738,feet,jsons/v1_VE1000_randls_9.json,2307009,2697032,60,Man
108,909513,DepthScenes,duration_manipulation_targetAtFixation,jsons/v1_VE1000_randls_9.json,http://54.235.29.9/FacialAge/BNav_EC2/DepthDuration/v2_depth_duration_MTurk/v2_DepthDuration_HTML.html#357,357,1536,755,1536,864,8-30-2022,9-59-7,109,depth_duration_stimuli/000457_2014-06-08_16-52-43_260595134347_rgbf000199-resize_1/000457_2014-06-08_16-52-43_260595134347_rgbf000199-resize_1-target.png,1000,3.6489999999999996,5.5,19923,998,feet,jsons/v1_VE1000_randls_9.json,2307009,2697032,60,Man
109,909513,DepthScenes,duration_manipulation_targetAtFixation,jsons/v1_VE1000_randls_9.json,http://54.235.29.9/FacialAge/BNav_EC2/DepthDuration/v2_depth_duration_MTurk/v2_DepthDuration_HTML.html#357,357,1536,755,1536,864,8-30-2022,9-59-7,110,depth_duration_stimuli/002213_2014-06-28_18-37-58_260595134347_rgbf000055-resize_1/002213_2014-06-28_18-37-58_260595134347_rgbf000055-resize_1-target.png,1000,3.62,5.5,11289,998,feet,jsons/v1_VE1000_randls_9.json,2307009,2697032,60,Man
110,909513,DepthScenes,duration_manipulation_targetAtFixation,jsons/v1_VE1000_randls_9.json,http://54.235.29.9/FacialAge/BNav_EC2/DepthDuration/v2_depth_duration_MTurk/v2_DepthDuration_HTML.html#357,357,1536,755,1536,864,8-30-2022,9-59-7,111,depth_duration_stimuli/000691_2014-06-08_13-08-50_260595134347_rgbf000132-resize_3/000691_2014-06-08_13-08-50_260595134347_rgbf000132-resize_3-target.png,1000,4.1530000000000005,3.8,11284,1003,feet,jsons/v1_VE1000_randls_9.json,2307009,2697032,60,Man
111,909513,DepthScenes,duration_manipulation_targetAtFixation,jsons/v1_VE1000_randls_9.json,http://54.235.29.9/FacialAge/BNav_EC2/DepthDuration/v2_depth_duration_MTurk/v2_DepthDuration_HTML.html#357,357,1536,755,1536,864,8-30-2022,9-59-7,112,depth_duration_stimuli/002153_2014-06-25_21-27-18_260595134347_rgbf000038-resize_5/002153_2014-06-25_21-27-18_260595134347_rgbf000038-resize_5-target.png,1000,2.505,1.8,12769,997,feet,jsons/v1_VE1000_randls_9.json,2307009,2697032,60,Man
112,909513,DepthScenes,duration_manipulation_targetAtFixation,jsons/v1_VE1000_randls_9.json,http://54.235.29.9/FacialAge/BNav_EC2/DepthDuration/v2_depth_duration_MTurk/v2_DepthDuration_HTML.html#357,357,1536,755,1536,864,8-30-2022,9-59-7,113,depth_duration_stimuli/002660_2014-06-13_15-44-18_094959634447_rgbf001878-resize_2/002660_2014-06-13_15-44-18_094959634447_rgbf001878-resize_2-target.png,1000,3.576,3.2,27555,996,feet,jsons/v1_VE1000_randls_9.json,2307009,2697032,60,Man
113,909513,DepthScenes,duration_manipulation_targetAtFixation,jsons/v1_VE1000_randls_9.json,http://54.235.29.9/FacialAge/BNav_EC2/DepthDuration/v2_depth_duration_MTurk/v2_DepthDuration_HTML.html#357,357,1536,755,1536,864,8-30-2022,9-59-7,114,depth_duration_stimuli/000810_2014-06-08_17-20-01_260595134347_rgbf000105-resize_0/000810_2014-06-08_17-20-01_260595134347_rgbf000105-resize_0-target.png,1000,1.4865,1.2,12181,996,feet,jsons/v1_VE1000_randls_9.json,2307009,2697032,60,Man
114,909513,DepthScenes,duration_manipulation_targetAtFixation,jsons/v1_VE1000_randls_9.json,http://54.235.29.9/FacialAge/BNav_EC2/DepthDuration/v2_depth_duration_MTurk/v2_DepthDuration_HTML.html#357,357,1536,755,1536,864,8-30-2022,9-59-7,115,depth_duration_stimuli/001214_2014-06-17_16-13-55_260595134347_rgbf000111-resize_0/001214_2014-06-17_16-13-55_260595134347_rgbf000111-resize_0-target.png,1000,2.6505,2.1,9796,993,feet,jsons/v1_VE1000_randls_9.json,2307009,2697032,60,Man
115,909513,DepthScenes,duration_manipulation_targetAtFixation,jsons/v1_VE1000_randls_9.json,http://54.235.29.9/FacialAge/BNav_EC2/DepthDuration/v2_depth_duration_MTurk/v2_DepthDuration_HTML.html#357,357,1536,755,1536,864,8-30-2022,9-59-7,116,depth_duration_stimuli/001170_2014-06-17_15-43-44_260595134347_rgbf000096-resize_6/001170_2014-06-17_15-43-44_260595134347_rgbf000096-resize-original.jpg,1000,1.1909999999999998,0.0,5784,1040,feet,jsons/v1_VE1000_randls_9.json,2307009,2697032,60,Man
116,909513,DepthScenes,duration_manipulation_targetAtFixation,jsons/v1_VE1000_randls_9.json,http://54.235.29.9/FacialAge/BNav_EC2/DepthDuration/v2_depth_duration_MTurk/v2_DepthDuration_HTML.html#357,357,1536,755,1536,864,8-30-2022,9-59-7,117,depth_duration_stimuli/000642_2014-06-08_16-59-25_260595134347_rgbf000098-resize_2/000642_2014-06-08_16-59-25_260595134347_rgbf000098-resize_2-target.png,1000,2.8815,2.1,7677,999,feet,jsons/v1_VE1000_randls_9.json,2307009,2697032,60,Man
117,909513,DepthScenes,duration_manipulation_targetAtFixation,jsons/v1_VE1000_randls_9.json,http://54.235.29.9/FacialAge/BNav_EC2/DepthDuration/v2_depth_duration_MTurk/v2_DepthDuration_HTML.html#357,357,1536,755,1536,864,8-30-2022,9-59-7,118,depth_duration_stimuli/002425_2014-06-28_20-27-29_260595134347_rgbf000031-resize_8/002425_2014-06-28_20-27-29_260595134347_rgbf000031-resize_8-target.png,1000,3.8960000000000004,4.5,6922,1008,feet,jsons/v1_VE1000_randls_9.json,2307009,2697032,60,Man
118,909513,DepthScenes,duration_manipulation_targetAtFixation,jsons/v1_VE1000_randls_9.json,http://54.235.29.9/FacialAge/BNav_EC2/DepthDuration/v2_depth_duration_MTurk/v2_DepthDuration_HTML.html#357,357,1536,755,1536,864,8-30-2022,9-59-7,119,depth_duration_stimuli/002057_2014-06-24_21-00-13_260595134347_rgbf000120-resize_1/002057_2014-06-24_21-00-13_260595134347_rgbf000120-resize_1-target.png,1000,2.967,5.2,19639,1002,feet,jsons/v1_VE1000_randls_9.json,2307009,2697032,60,Man
119,909513,DepthScenes,duration_manipulation_targetAtFixation,jsons/v1_VE1000_randls_9.json,http://54.235.29.9/FacialAge/BNav_EC2/DepthDuration/v2_depth_duration_MTurk/v2_DepthDuration_HTML.html#357,357,1536,755,1536,864,8-30-2022,9-59-7,120,depth_duration_stimuli/000709_2014-06-08_13-51-55_260595134347_rgbf000068-resize_3/000709_2014-06-08_13-51-55_260595134347_rgbf000068-resize_3-target.png,1000,1.8030000000000002,5.9,8386,999,feet,jsons/v1_VE1000_randls_9.json,2307009,2697032,60,Man
120,909513,DepthScenes,duration_manipulation_targetAtFixation,jsons/v1_VE1000_randls_9.json,http://54.235.29.9/FacialAge/BNav_EC2/DepthDuration/v2_depth_duration_MTurk/v2_DepthDuration_HTML.html#357,357,1536,755,1536,864,8-30-2022,9-59-7,121,depth_duration_stimuli/001011_2014-06-08_23-18-54_260595134347_rgbf000044-resize_4/001011_2014-06-08_23-18-54_260595134347_rgbf000044-resize_4-target.png,1000,2.4730000000000003,4.8,11336,1000,feet,jsons/v1_VE1000_randls_9.json,2307009,2697032,60,Man
121,909513,DepthScenes,duration_manipulation_targetAtFixation,jsons/v1_VE1000_randls_9.json,http://54.235.29.9/FacialAge/BNav_EC2/DepthDuration/v2_depth_duration_MTurk/v2_DepthDuration_HTML.html#357,357,1536,755,1536,864,8-30-2022,9-59-7,122,depth_duration_stimuli/002875_2014-06-01_15-19-00_094959634447_rgbf000151-resize_1/002875_2014-06-01_15-19-00_094959634447_rgbf000151-resize_1-target.png,1000,1.9675,4.5,14931,1007,feet,jsons/v1_VE1000_randls_9.json,2307009,2697032,60,Man
122,909513,DepthScenes,duration_manipulation_targetAtFixation,jsons/v1_VE1000_randls_9.json,http://54.235.29.9/FacialAge/BNav_EC2/DepthDuration/v2_depth_duration_MTurk/v2_DepthDuration_HTML.html#357,357,1536,755,1536,864,8-30-2022,9-59-7,123,depth_duration_stimuli/001056_2014-06-08_18-46-44_260595134347_rgbf000068-resize_0/001056_2014-06-08_18-46-44_260595134347_rgbf000068-resize_0-target.png,1000,2.6625,3.5,12827,1000,feet,jsons/v1_VE1000_randls_9.json,2307009,2697032,60,Man
123,909513,DepthScenes,duration_manipulation_targetAtFixation,jsons/v1_VE1000_randls_9.json,http://54.235.29.9/FacialAge/BNav_EC2/DepthDuration/v2_depth_duration_MTurk/v2_DepthDuration_HTML.html#357,357,1536,755,1536,864,8-30-2022,9-59-7,124,depth_duration_stimuli/002199_2014-06-28_18-33-56_260595134347_rgbf000074-resize_0/002199_2014-06-28_18-33-56_260595134347_rgbf000074-resize_0-target.png,1000,1.996,3.0,36092,1163,feet,jsons/v1_VE1000_randls_9.json,2307009,2697032,60,Man
124,909513,DepthScenes,duration_manipulation_targetAtFixation,jsons/v1_VE1000_randls_9.json,http://54.235.29.9/FacialAge/BNav_EC2/DepthDuration/v2_depth_duration_MTurk/v2_DepthDuration_HTML.html#357,357,1536,755,1536,864,8-30-2022,9-59-7,125,depth_duration_stimuli/000436_2014-06-09_22-25-11_260595134347_rgbf000137-resize_1/000436_2014-06-09_22-25-11_260595134347_rgbf000137-resize_1-target.png,1000,4.0705,3.0,7722,996,feet,jsons/v1_VE1000_randls_9.json,2307009,2697032,60,Man
125,909513,DepthScenes,duration_manipulation_targetAtFixation,jsons/v1_VE1000_randls_9.json,http://54.235.29.9/FacialAge/BNav_EC2/DepthDuration/v2_depth_duration_MTurk/v2_DepthDuration_HTML.html#357,357,1536,755,1536,864,8-30-2022,9-59-7,126,depth_duration_stimuli/002444_2014-06-28_20-32-08_260595134347_rgbf000027-resize_0/002444_2014-06-28_20-32-08_260595134347_rgbf000027-resize_0-target.png,1000,4.388999999999999,2.0,5228,998,feet,jsons/v1_VE1000_randls_9.json,2307009,2697032,60,Man
126,909513,DepthScenes,duration_manipulation_targetAtFixation,jsons/v1_VE1000_randls_9.json,http://54.235.29.9/FacialAge/BNav_EC2/DepthDuration/v2_depth_duration_MTurk/v2_DepthDuration_HTML.html#357,357,1536,755,1536,864,8-30-2022,9-59-7,127,depth_duration_stimuli/000739_2014-06-08_18-45-58_260595134347_rgbf000068-resize_1/000739_2014-06-08_18-45-58_260595134347_rgbf000068-resize_1-target.png,1000,3.534,3.5,10157,1000,feet,jsons/v1_VE1000_randls_9.json,2307009,2697032,60,Man
127,909513,DepthScenes,duration_manipulation_targetAtFixation,jsons/v1_VE1000_randls_9.json,http://54.235.29.9/FacialAge/BNav_EC2/DepthDuration/v2_depth_duration_MTurk/v2_DepthDuration_HTML.html#357,357,1536,755,1536,864,8-30-2022,9-59-7,128,depth_duration_stimuli/000734_2014-06-08_17-39-11_260595134347_rgbf000128-resize_2/000734_2014-06-08_17-39-11_260595134347_rgbf000128-resize_2-target.png,1000,4.098,4.0,7472,998,feet,jsons/v1_VE1000_randls_9.json,2307009,2697032,60,Man
128,909513,DepthScenes,duration_manipulation_targetAtFixation,jsons/v1_VE1000_randls_9.json,http://54.235.29.9/FacialAge/BNav_EC2/DepthDuration/v2_depth_duration_MTurk/v2_DepthDuration_HTML.html#357,357,1536,755,1536,864,8-30-2022,9-59-7,129,depth_duration_stimuli/001066_2014-06-08_22-03-20_260595134347_rgbf000066-resize_4/001066_2014-06-08_22-03-20_260595134347_rgbf000066-resize_4-target.png,1000,4.2330000000000005,5.0,8295,999,feet,jsons/v1_VE1000_randls_9.json,2307009,2697032,60,Man
129,909513,DepthScenes,duration_manipulation_targetAtFixation,jsons/v1_VE1000_randls_9.json,http://54.235.29.9/FacialAge/BNav_EC2/DepthDuration/v2_depth_duration_MTurk/v2_DepthDuration_HTML.html#357,357,1536,755,1536,864,8-30-2022,9-59-7,130,depth_duration_stimuli/000742_2014-06-08_18-48-09_260595134347_rgbf000164-resize_4/000742_2014-06-08_18-48-09_260595134347_rgbf000164-resize_4-target.png,1000,4.632,4.0,5871,992,feet,jsons/v1_VE1000_randls_9.json,2307009,2697032,60,Man
130,909513,DepthScenes,duration_manipulation_targetAtFixation,jsons/v1_VE1000_randls_9.json,http://54.235.29.9/FacialAge/BNav_EC2/DepthDuration/v2_depth_duration_MTurk/v2_DepthDuration_HTML.html#357,357,1536,755,1536,864,8-30-2022,9-59-7,131,depth_duration_stimuli/000368_2014-06-09_15-53-01_260595134347_rgbf000155-resize_2/000368_2014-06-09_15-53-01_260595134347_rgbf000155-resize_2-target.png,1000,2.4859999999999998,1.5,7274,983,feet,jsons/v1_VE1000_randls_9.json,2307009,2697032,60,Man
131,909513,DepthScenes,duration_manipulation_targetAtFixation,jsons/v1_VE1000_randls_9.json,http://54.235.29.9/FacialAge/BNav_EC2/DepthDuration/v2_depth_duration_MTurk/v2_DepthDuration_HTML.html#357,357,1536,755,1536,864,8-30-2022,9-59-7,132,depth_duration_stimuli/002678_2014-06-13_16-15-32_094959634447_rgbf000151-resize_6/002678_2014-06-13_16-15-32_094959634447_rgbf000151-resize_6-target.png,1000,2.1830000000000003,4.0,13661,997,feet,jsons/v1_VE1000_randls_9.json,2307009,2697032,60,Man
132,909513,DepthScenes,duration_manipulation_targetAtFixation,jsons/v1_VE1000_randls_9.json,http://54.235.29.9/FacialAge/BNav_EC2/DepthDuration/v2_depth_duration_MTurk/v2_DepthDuration_HTML.html#357,357,1536,755,1536,864,8-30-2022,9-59-7,133,depth_duration_stimuli/000682_2014-06-08_23-14-58_260595134347_rgbf000041-resize_5/000682_2014-06-08_23-14-58_260595134347_rgbf000041-resize_5-target.png,1000,2.7239999999999998,1.5,12817,633,feet,jsons/v1_VE1000_randls_9.json,2307009,2697032,60,Man
133,909513,DepthScenes,duration_manipulation_targetAtFixation,jsons/v1_VE1000_randls_9.json,http://54.235.29.9/FacialAge/BNav_EC2/DepthDuration/v2_depth_duration_MTurk/v2_DepthDuration_HTML.html#357,357,1536,755,1536,864,8-30-2022,9-59-7,134,depth_duration_stimuli/001650_2014-06-20_12-09-00_260595134347_rgbf000087-resize_3/001650_2014-06-20_12-09-00_260595134347_rgbf000087-resize_3-target.png,1000,1.9505,2.0,8487,1006,feet,jsons/v1_VE1000_randls_9.json,2307009,2697032,60,Man
134,909513,DepthScenes,duration_manipulation_targetAtFixation,jsons/v1_VE1000_randls_9.json,http://54.235.29.9/FacialAge/BNav_EC2/DepthDuration/v2_depth_duration_MTurk/v2_DepthDuration_HTML.html#357,357,1536,755,1536,864,8-30-2022,9-59-7,135,depth_duration_stimuli/002072_2014-06-24_21-48-06_260595134347_rgbf000115-resize_0/002072_2014-06-24_21-48-06_260595134347_rgbf000115-resize-original.jpg,1000,4.702,0.0,14624,999,feet,jsons/v1_VE1000_randls_9.json,2307009,2697032,60,Man
135,909513,DepthScenes,duration_manipulation_targetAtFixation,jsons/v1_VE1000_randls_9.json,http://54.235.29.9/FacialAge/BNav_EC2/DepthDuration/v2_depth_duration_MTurk/v2_DepthDuration_HTML.html#357,357,1536,755,1536,864,8-30-2022,9-59-7,136,depth_duration_stimuli/001158_2014-06-17_15-32-16_260595134347_rgbf000138-resize_2/001158_2014-06-17_15-32-16_260595134347_rgbf000138-resize_2-target.png,1000,4.5315,3.5,16331,1094,feet,jsons/v1_VE1000_randls_9.json,2307009,2697032,60,Man
136,909513,DepthScenes,duration_manipulation_targetAtFixation,jsons/v1_VE1000_randls_9.json,http://54.235.29.9/FacialAge/BNav_EC2/DepthDuration/v2_depth_duration_MTurk/v2_DepthDuration_HTML.html#357,357,1536,755,1536,864,8-30-2022,9-59-7,137,depth_duration_stimuli/000556_2014-06-09_22-42-56_260595134347_rgbf000214-resize_1/000556_2014-06-09_22-42-56_260595134347_rgbf000214-resize_1-target.png,1000,4.8415,1.0,4857,997,feet,jsons/v1_VE1000_randls_9.json,2307009,2697032,60,Man
137,909513,DepthScenes,duration_manipulation_targetAtFixation,jsons/v1_VE1000_randls_9.json,http://54.235.29.9/FacialAge/BNav_EC2/DepthDuration/v2_depth_duration_MTurk/v2_DepthDuration_HTML.html#357,357,1536,755,1536,864,8-30-2022,9-59-7,138,depth_duration_stimuli/002279_2014-06-28_18-55-32_260595134347_rgbf000040-resize_5/002279_2014-06-28_18-55-32_260595134347_rgbf000040-resize_5-target.png,1000,1.5043333333333,2.5,7766,1108,feet,jsons/v1_VE1000_randls_9.json,2307009,2697032,60,Man
138,909513,DepthScenes,duration_manipulation_targetAtFixation,jsons/v1_VE1000_randls_9.json,http://54.235.29.9/FacialAge/BNav_EC2/DepthDuration/v2_depth_duration_MTurk/v2_DepthDuration_HTML.html#357,357,1536,755,1536,864,8-30-2022,9-59-7,139,depth_duration_stimuli/000635_2014-06-08_16-38-42_260595134347_rgbf000106-resize_1/000635_2014-06-08_16-38-42_260595134347_rgbf000106-resize_1-target.png,1000,2.074,3.0,6504,923,feet,jsons/v1_VE1000_randls_9.json,2307009,2697032,60,Man
139,909513,DepthScenes,duration_manipulation_targetAtFixation,jsons/v1_VE1000_randls_9.json,http://54.235.29.9/FacialAge/BNav_EC2/DepthDuration/v2_depth_duration_MTurk/v2_DepthDuration_HTML.html#357,357,1536,755,1536,864,8-30-2022,9-59-7,140,depth_duration_stimuli/000906_2014-06-08_13-35-43_260595134347_rgbf000155-resize_1/000906_2014-06-08_13-35-43_260595134347_rgbf000155-resize_1-target.png,1000,2.8489999999999998,2.0,8487,999,feet,jsons/v1_VE1000_randls_9.json,2307009,2697032,60,Man
140,909513,DepthScenes,duration_manipulation_targetAtFixation,jsons/v1_VE1000_randls_9.json,http://54.235.29.9/FacialAge/BNav_EC2/DepthDuration/v2_depth_duration_MTurk/v2_DepthDuration_HTML.html#357,357,1536,755,1536,864,8-30-2022,9-59-7,141,depth_duration_stimuli/002805_2014-06-22_19-54-03_094959634447_rgbf000079-resize_1/002805_2014-06-22_19-54-03_094959634447_rgbf000079-resize_1-target.png,1000,3.1439999999999997,3.5,18462,997,feet,jsons/v1_VE1000_randls_9.json,2307009,2697032,60,Man
141,909513,DepthScenes,duration_manipulation_targetAtFixation,jsons/v1_VE1000_randls_9.json,http://54.235.29.9/FacialAge/BNav_EC2/DepthDuration/v2_depth_duration_MTurk/v2_DepthDuration_HTML.html#357,357,1536,755,1536,864,8-30-2022,9-59-7,142,depth_duration_stimuli/003292_2014-05-14_21-53-49_094959634447_rgbf000100-resize_2/003292_2014-05-14_21-53-49_094959634447_rgbf000100-resize_2-target.png,1000,3.4815,2.5,9833,1375,feet,jsons/v1_VE1000_randls_9.json,2307009,2697032,60,Man
142,909513,DepthScenes,duration_manipulation_targetAtFixation,jsons/v1_VE1000_randls_9.json,http://54.235.29.9/FacialAge/BNav_EC2/DepthDuration/v2_depth_duration_MTurk/v2_DepthDuration_HTML.html#357,357,1536,755,1536,864,8-30-2022,9-59-7,143,depth_duration_stimuli/002639_2014-06-24_14-51-37_094959634447_rgbf000074-resize_4/002639_2014-06-24_14-51-37_094959634447_rgbf000074-resize_4-target.png,1000,4.0375,2.5,10194,997,feet,jsons/v1_VE1000_randls_9.json,2307009,2697032,60,Man
143,909513,DepthScenes,duration_manipulation_targetAtFixation,jsons/v1_VE1000_randls_9.json,http://54.235.29.9/FacialAge/BNav_EC2/DepthDuration/v2_depth_duration_MTurk/v2_DepthDuration_HTML.html#357,357,1536,755,1536,864,8-30-2022,9-59-7,144,depth_duration_stimuli/001570_2014-06-20_17-21-09_260595134347_rgbf000135-resize_4/001570_2014-06-20_17-21-09_260595134347_rgbf000135-resize_4-target.png,1000,4.467,3.5,7746,999,feet,jsons/v1_VE1000_randls_9.json,2307009,2697032,60,Man
144,909513,DepthScenes,duration_manipulation_targetAtFixation,jsons/v1_VE1000_randls_9.json,http://54.235.29.9/FacialAge/BNav_EC2/DepthDuration/v2_depth_duration_MTurk/v2_DepthDuration_HTML.html#357,357,1536,755,1536,864,8-30-2022,9-59-7,145,depth_duration_stimuli/001392_2014-06-19_16-07-59_260595134347_rgbf000046-resize_1/001392_2014-06-19_16-07-59_260595134347_rgbf000046-resize_1-target.png,1000,4.135,5.0,5946,995,feet,jsons/v1_VE1000_randls_9.json,2307009,2697032,60,Man
145,909513,DepthScenes,duration_manipulation_targetAtFixation,jsons/v1_VE1000_randls_9.json,http://54.235.29.9/FacialAge/BNav_EC2/DepthDuration/v2_depth_duration_MTurk/v2_DepthDuration_HTML.html#357,357,1536,755,1536,864,8-30-2022,9-59-7,146,depth_duration_stimuli/001498_2014-06-19_17-45-14_260595134347_rgbf000129-resize_4/001498_2014-06-19_17-45-14_260595134347_rgbf000129-resize-original.jpg,1000,1.4075,0.0,5054,701,feet,jsons/v1_VE1000_randls_9.json,2307009,2697032,60,Man
146,909513,DepthScenes,duration_manipulation_targetAtFixation,jsons/v1_VE1000_randls_9.json,http://54.235.29.9/FacialAge/BNav_EC2/DepthDuration/v2_depth_duration_MTurk/v2_DepthDuration_HTML.html#357,357,1536,755,1536,864,8-30-2022,9-59-7,147,depth_duration_stimuli/002989_2014-06-15_12-25-03_094959634447_rgbf000150-resize_3/002989_2014-06-15_12-25-03_094959634447_rgbf000150-resize_3-target.png,1000,4.1975,5.0,5042,1231,feet,jsons/v1_VE1000_randls_9.json,2307009,2697032,60,Man
147,909513,DepthScenes,duration_manipulation_targetAtFixation,jsons/v1_VE1000_randls_9.json,http://54.235.29.9/FacialAge/BNav_EC2/DepthDuration/v2_depth_duration_MTurk/v2_DepthDuration_HTML.html#357,357,1536,755,1536,864,8-30-2022,9-59-7,148,depth_duration_stimuli/000866_2014-06-09_20-45-42_260595134347_rgbf000139-resize_1/000866_2014-06-09_20-45-42_260595134347_rgbf000139-resize_1-target.png,1000,3.2155,3.0,10629,999,feet,jsons/v1_VE1000_randls_9.json,2307009,2697032,60,Man
148,909513,DepthScenes,duration_manipulation_targetAtFixation,jsons/v1_VE1000_randls_9.json,http://54.235.29.9/FacialAge/BNav_EC2/DepthDuration/v2_depth_duration_MTurk/v2_DepthDuration_HTML.html#357,357,1536,755,1536,864,8-30-2022,9-59-7,149,depth_duration_stimuli/000506_2014-06-08_23-21-00_260595134347_rgbf000070-resize_7/000506_2014-06-08_23-21-00_260595134347_rgbf000070-resize_7-target.png,1000,4.0585,2.5,5058,941,feet,jsons/v1_VE1000_randls_9.json,2307009,2697032,60,Man
149,909513,DepthScenes,duration_manipulation_targetAtFixation,jsons/v1_VE1000_randls_9.json,http://54.235.29.9/FacialAge/BNav_EC2/DepthDuration/v2_depth_duration_MTurk/v2_DepthDuration_HTML.html#357,357,1536,755,1536,864,8-30-2022,9-59-7,150,depth_duration_stimuli/003079_2014-06-15_15-18-20_094959634447_rgbf000152-resize_8/003079_2014-06-15_15-18-20_094959634447_rgbf000152-resize_8-target.png,1000,2.8775,5.0,8224,1362,feet,jsons/v1_VE1000_randls_9.json,2307009,2697032,60,Man
150,909513,DepthScenes,duration_manipulation_targetAtFixation,jsons/v1_VE1000_randls_9.json,http://54.235.29.9/FacialAge/BNav_EC2/DepthDuration/v2_depth_duration_MTurk/v2_DepthDuration_HTML.html#357,357,1536,755,1536,864,8-30-2022,9-59-7,151,depth_duration_stimuli/001449_2014-06-19_17-01-27_260595134347_rgbf000116-resize_2/001449_2014-06-19_17-01-27_260595134347_rgbf000116-resize_2-target.png,1000,3.452,2.0,13973,998,feet,jsons/v1_VE1000_randls_9.json,2307009,2697032,60,Man
151,909513,DepthScenes,duration_manipulation_targetAtFixation,jsons/v1_VE1000_randls_9.json,http://54.235.29.9/FacialAge/BNav_EC2/DepthDuration/v2_depth_duration_MTurk/v2_DepthDuration_HTML.html#357,357,1536,755,1536,864,8-30-2022,9-59-7,152,depth_duration_stimuli/001450_2014-06-19_17-02-03_260595134347_rgbf000203-resize_4/001450_2014-06-19_17-02-03_260595134347_rgbf000203-resize_4-target.png,1000,4.0106666666667,3.0,10276,995,feet,jsons/v1_VE1000_randls_9.json,2307009,2697032,60,Man
152,909513,DepthScenes,duration_manipulation_targetAtFixation,jsons/v1_VE1000_randls_9.json,http://54.235.29.9/FacialAge/BNav_EC2/DepthDuration/v2_depth_duration_MTurk/v2_DepthDuration_HTML.html#357,357,1536,755,1536,864,8-30-2022,9-59-7,153,depth_duration_stimuli/000773_2014-06-08_22-24-54_260595134347_rgbf000093-resize_1/000773_2014-06-08_22-24-54_260595134347_rgbf000093-resize_1-target.png,1000,4.973,2.5,6252,995,feet,jsons/v1_VE1000_randls_9.json,2307009,2697032,60,Man
153,909513,DepthScenes,duration_manipulation_targetAtFixation,jsons/v1_VE1000_randls_9.json,http://54.235.29.9/FacialAge/BNav_EC2/DepthDuration/v2_depth_duration_MTurk/v2_DepthDuration_HTML.html#357,357,1536,755,1536,864,8-30-2022,9-59-7,154,depth_duration_stimuli/002414_2014-06-28_20-24-58_260595134347_rgbf000067-resize_4/002414_2014-06-28_20-24-58_260595134347_rgbf000067-resize_4-target.png,1000,4.363,2.0,7935,989,feet,jsons/v1_VE1000_randls_9.json,2307009,2697032,60,Man
154,909513,DepthScenes,duration_manipulation_targetAtFixation,jsons/v1_VE1000_randls_9.json,http://54.235.29.9/FacialAge/BNav_EC2/DepthDuration/v2_depth_duration_MTurk/v2_DepthDuration_HTML.html#357,357,1536,755,1536,864,8-30-2022,9-59-7,155,depth_duration_stimuli/002630_2014-06-24_14-47-50_094959634447_rgbf000055-resize_1/002630_2014-06-24_14-47-50_094959634447_rgbf000055-resize_1-target.png,1000,3.0095,3.5,9290,1051,feet,jsons/v1_VE1000_randls_9.json,2307009,2697032,60,Man
155,909513,DepthScenes,duration_manipulation_targetAtFixation,jsons/v1_VE1000_randls_9.json,http://54.235.29.9/FacialAge/BNav_EC2/DepthDuration/v2_depth_duration_MTurk/v2_DepthDuration_HTML.html#357,357,1536,755,1536,864,8-30-2022,9-59-7,156,depth_duration_stimuli/002758_2014-06-22_19-11-20_094959634447_rgbf000128-resize_1/002758_2014-06-22_19-11-20_094959634447_rgbf000128-resize_1-target.png,1000,2.555,3.5,8255,999,feet,jsons/v1_VE1000_randls_9.json,2307009,2697032,60,Man
156,909513,DepthScenes,duration_manipulation_targetAtFixation,jsons/v1_VE1000_randls_9.json,http://54.235.29.9/FacialAge/BNav_EC2/DepthDuration/v2_depth_duration_MTurk/v2_DepthDuration_HTML.html#357,357,1536,755,1536,864,8-30-2022,9-59-7,157,depth_duration_stimuli/000447_2014-06-08_16-15-46_260595134347_rgbf000130-resize_1/000447_2014-06-08_16-15-46_260595134347_rgbf000130-resize_1-target.png,1000,4.479,3.0,11135,993,feet,jsons/v1_VE1000_randls_9.json,2307009,2697032,60,Man
157,909513,DepthScenes,duration_manipulation_targetAtFixation,jsons/v1_VE1000_randls_9.json,http://54.235.29.9/FacialAge/BNav_EC2/DepthDuration/v2_depth_duration_MTurk/v2_DepthDuration_HTML.html#357,357,1536,755,1536,864,8-30-2022,9-59-7,158,depth_duration_stimuli/001447_2014-06-19_17-00-32_260595134347_rgbf000082-resize_5/001447_2014-06-19_17-00-32_260595134347_rgbf000082-resize_5-target.png,1000,4.13775,2.5,6475,1003,feet,jsons/v1_VE1000_randls_9.json,2307009,2697032,60,Man
158,909513,DepthScenes,duration_manipulation_targetAtFixation,jsons/v1_VE1000_randls_9.json,http://54.235.29.9/FacialAge/BNav_EC2/DepthDuration/v2_depth_duration_MTurk/v2_DepthDuration_HTML.html#357,357,1536,755,1536,864,8-30-2022,9-59-7,159,depth_duration_stimuli/000414_2014-06-04_19-49-13_260595134347_rgbf000044-resize_0/000414_2014-06-04_19-49-13_260595134347_rgbf000044-resize_0-target.png,1000,4.329,4.0,5551,999,feet,jsons/v1_VE1000_randls_9.json,2307009,2697032,60,Man
159,909513,DepthScenes,duration_manipulation_targetAtFixation,jsons/v1_VE1000_randls_9.json,http://54.235.29.9/FacialAge/BNav_EC2/DepthDuration/v2_depth_duration_MTurk/v2_DepthDuration_HTML.html#357,357,1536,755,1536,864,8-30-2022,9-59-7,160,depth_duration_stimuli/003129_2014-05-12_10-48-10_094959634447_rgbf000100-resize_0/003129_2014-05-12_10-48-10_094959634447_rgbf000100-resize_0-target.png,1000,4.9305,1.5,6210,910,feet,jsons/v1_VE1000_randls_9.json,2307009,2697032,60,Man
160,909513,DepthScenes,duration_manipulation_targetAtFixation,jsons/v1_VE1000_randls_9.json,http://54.235.29.9/FacialAge/BNav_EC2/DepthDuration/v2_depth_duration_MTurk/v2_DepthDuration_HTML.html#357,357,1536,755,1536,864,8-30-2022,9-59-7,161,depth_duration_stimuli/002725_2014-06-22_11-47-51_094959634447_rgbf000070-resize_1/002725_2014-06-22_11-47-51_094959634447_rgbf000070-resize_1-target.png,1000,2.195,2.5,7111,999,feet,jsons/v1_VE1000_randls_9.json,2307009,2697032,60,Man
161,909513,DepthScenes,duration_manipulation_targetAtFixation,jsons/v1_VE1000_randls_9.json,http://54.235.29.9/FacialAge/BNav_EC2/DepthDuration/v2_depth_duration_MTurk/v2_DepthDuration_HTML.html#357,357,1536,755,1536,864,8-30-2022,9-59-7,162,depth_duration_stimuli/002344_2014-06-28_20-06-29_260595134347_rgbf000030-resize_1/002344_2014-06-28_20-06-29_260595134347_rgbf000030-resize_1-target.png,1000,1.5795,1.5,4786,1001,feet,jsons/v1_VE1000_randls_9.json,2307009,2697032,60,Man
162,909513,DepthScenes,duration_manipulation_targetAtFixation,jsons/v1_VE1000_randls_9.json,http://54.235.29.9/FacialAge/BNav_EC2/DepthDuration/v2_depth_duration_MTurk/v2_DepthDuration_HTML.html#357,357,1536,755,1536,864,8-30-2022,9-59-7,163,depth_duration_stimuli/001175_2014-06-17_15-45-55_260595134347_rgbf000129-resize_4/001175_2014-06-17_15-45-55_260595134347_rgbf000129-resize_4-target.png,1000,4.255,3.0,6168,1000,feet,jsons/v1_VE1000_randls_9.json,2307009,2697032,60,Man
163,909513,DepthScenes,duration_manipulation_targetAtFixation,jsons/v1_VE1000_randls_9.json,http://54.235.29.9/FacialAge/BNav_EC2/DepthDuration/v2_depth_duration_MTurk/v2_DepthDuration_HTML.html#357,357,1536,755,1536,864,8-30-2022,9-59-7,164,depth_duration_stimuli/003490_2014-05-21_15-50-11_094959634447_rgbf000101-resize_3/003490_2014-05-21_15-50-11_094959634447_rgbf000101-resize_3-target.png,1000,3.6445,2.0,4050,1129,feet,jsons/v1_VE1000_randls_9.json,2307009,2697032,60,Man
