,subjID,experimentName,versionName,sequenceName,url,selected_row,windowWidth,windowHeight,screenWidth,screenHeight,startDate,startTime,trial,stimulus,duration,actual_depth,depth_estimate,trial_RT,log_sceneDuration,unitSelection,seq_filepath,experimentTime,totalTime,age,gender
0,910402,DepthScenes,duration_manipulation_targetAtFixation,jsons/v1_VE250_randls_37_rotated.json,http://54.235.29.9/FacialAge/BNav_EC2/DepthDuration/v2_depth_duration_MTurk/v2_DepthDuration_HTML.html#41,41,1366,768,1366,768,8-20-2022,11-3-49,1,depth_duration_stimuli/000191_2014-05-12_17-07-38_260595134347_rgbf000199-resize_0/000191_2014-05-12_17-07-38_260595134347_rgbf000199-resize_0-target.png,250,3.7995,4.0,2159,257,feet,jsons/v1_VE250_randls_37_rotated.json,490058,1108099,49,Man
1,910402,DepthScenes,duration_manipulation_targetAtFixation,jsons/v1_VE250_randls_37_rotated.json,http://54.235.29.9/FacialAge/BNav_EC2/DepthDuration/v2_depth_duration_MTurk/v2_DepthDuration_HTML.html#41,41,1366,768,1366,768,8-20-2022,11-3-49,2,depth_duration_stimuli/000493_2014-06-09_21-01-18_260595134347_rgbf000196-resize_3/000493_2014-06-09_21-01-18_260595134347_rgbf000196-resize_3-target.png,250,3.44,2.5,2480,253,feet,jsons/v1_VE250_randls_37_rotated.json,490058,1108099,49,Man
2,910402,DepthScenes,duration_manipulation_targetAtFixation,jsons/v1_VE250_randls_37_rotated.json,http://54.235.29.9/FacialAge/BNav_EC2/DepthDuration/v2_depth_duration_MTurk/v2_DepthDuration_HTML.html#41,41,1366,768,1366,768,8-20-2022,11-3-49,3,depth_duration_stimuli/003048_2014-06-15_13-49-43_094959634447_rgbf000150-resize_1/003048_2014-06-15_13-49-43_094959634447_rgbf000150-resize_1-target.png,250,4.0035,4.0,1957,251,feet,jsons/v1_VE250_randls_37_rotated.json,490058,1108099,49,Man
3,910402,DepthScenes,duration_manipulation_targetAtFixation,jsons/v1_VE250_randls_37_rotated.json,http://54.235.29.9/FacialAge/BNav_EC2/DepthDuration/v2_depth_duration_MTurk/v2_DepthDuration_HTML.html#41,41,1366,768,1366,768,8-20-2022,11-3-49,4,depth_duration_stimuli/002043_2014-06-24_20-29-38_260595134347_rgbf000039-resize_4/002043_2014-06-24_20-29-38_260595134347_rgbf000039-resize_4-target.png,250,2.8435,3.0,2290,258,feet,jsons/v1_VE250_randls_37_rotated.json,490058,1108099,49,Man
4,910402,DepthScenes,duration_manipulation_targetAtFixation,jsons/v1_VE250_randls_37_rotated.json,http://54.235.29.9/FacialAge/BNav_EC2/DepthDuration/v2_depth_duration_MTurk/v2_DepthDuration_HTML.html#41,41,1366,768,1366,768,8-20-2022,11-3-49,5,depth_duration_stimuli/002199_2014-06-28_18-33-56_260595134347_rgbf000074-resize_0/002199_2014-06-28_18-33-56_260595134347_rgbf000074-resize_0-target.png,250,1.996,1.0,2335,252,feet,jsons/v1_VE250_randls_37_rotated.json,490058,1108099,49,Man
5,910402,DepthScenes,duration_manipulation_targetAtFixation,jsons/v1_VE250_randls_37_rotated.json,http://54.235.29.9/FacialAge/BNav_EC2/DepthDuration/v2_depth_duration_MTurk/v2_DepthDuration_HTML.html#41,41,1366,768,1366,768,8-20-2022,11-3-49,6,depth_duration_stimuli/001056_2014-06-08_18-46-44_260595134347_rgbf000068-resize_0/001056_2014-06-08_18-46-44_260595134347_rgbf000068-resize_0-target.png,250,2.6625,3.0,1866,240,feet,jsons/v1_VE250_randls_37_rotated.json,490058,1108099,49,Man
6,910402,DepthScenes,duration_manipulation_targetAtFixation,jsons/v1_VE250_randls_37_rotated.json,http://54.235.29.9/FacialAge/BNav_EC2/DepthDuration/v2_depth_duration_MTurk/v2_DepthDuration_HTML.html#41,41,1366,768,1366,768,8-20-2022,11-3-49,7,depth_duration_stimuli/003423_2014-05-21_10-23-26_094959634447_rgbf002665-resize_2/003423_2014-05-21_10-23-26_094959634447_rgbf002665-resize_2-target.png,250,3.2575,3.5,2148,249,feet,jsons/v1_VE250_randls_37_rotated.json,490058,1108099,49,Man
7,910402,DepthScenes,duration_manipulation_targetAtFixation,jsons/v1_VE250_randls_37_rotated.json,http://54.235.29.9/FacialAge/BNav_EC2/DepthDuration/v2_depth_duration_MTurk/v2_DepthDuration_HTML.html#41,41,1366,768,1366,768,8-20-2022,11-3-49,8,depth_duration_stimuli/002905_2014-06-03_18-04-43_094959634447_rgbf000151-resize_2/002905_2014-06-03_18-04-43_094959634447_rgbf000151-resize_2-target.png,250,2.0295,1.5,2492,250,feet,jsons/v1_VE250_randls_37_rotated.json,490058,1108099,49,Man
8,910402,DepthScenes,duration_manipulation_targetAtFixation,jsons/v1_VE250_randls_37_rotated.json,http://54.235.29.9/FacialAge/BNav_EC2/DepthDuration/v2_depth_duration_MTurk/v2_DepthDuration_HTML.html#41,41,1366,768,1366,768,8-20-2022,11-3-49,9,depth_duration_stimuli/002425_2014-06-28_20-27-29_260595134347_rgbf000031-resize_8/002425_2014-06-28_20-27-29_260595134347_rgbf000031-resize_8-target.png,250,3.8960000000000004,4.0,2562,235,feet,jsons/v1_VE250_randls_37_rotated.json,490058,1108099,49,Man
9,910402,DepthScenes,duration_manipulation_targetAtFixation,jsons/v1_VE250_randls_37_rotated.json,http://54.235.29.9/FacialAge/BNav_EC2/DepthDuration/v2_depth_duration_MTurk/v2_DepthDuration_HTML.html#41,41,1366,768,1366,768,8-20-2022,11-3-49,10,depth_duration_stimuli/000642_2014-06-08_16-59-25_260595134347_rgbf000098-resize_2/000642_2014-06-08_16-59-25_260595134347_rgbf000098-resize_2-target.png,250,2.8815,2.5,2272,249,feet,jsons/v1_VE250_randls_37_rotated.json,490058,1108099,49,Man
10,910402,DepthScenes,duration_manipulation_targetAtFixation,jsons/v1_VE250_randls_37_rotated.json,http://54.235.29.9/FacialAge/BNav_EC2/DepthDuration/v2_depth_duration_MTurk/v2_DepthDuration_HTML.html#41,41,1366,768,1366,768,8-20-2022,11-3-49,11,depth_duration_stimuli/003010_2014-06-15_12-54-35_094959634447_rgbf000112-resize_0/003010_2014-06-15_12-54-35_094959634447_rgbf000112-resize_0-target.png,250,3.1185,5.0,2714,250,feet,jsons/v1_VE250_randls_37_rotated.json,490058,1108099,49,Man
11,910402,DepthScenes,duration_manipulation_targetAtFixation,jsons/v1_VE250_randls_37_rotated.json,http://54.235.29.9/FacialAge/BNav_EC2/DepthDuration/v2_depth_duration_MTurk/v2_DepthDuration_HTML.html#41,41,1366,768,1366,768,8-20-2022,11-3-49,12,depth_duration_stimuli/001810_2014-06-26_20-51-35_260595134347_rgbf000040-resize_3/001810_2014-06-26_20-51-35_260595134347_rgbf000040-resize_3-target.png,250,2.2525,1.5,2535,248,feet,jsons/v1_VE250_randls_37_rotated.json,490058,1108099,49,Man
12,910402,DepthScenes,duration_manipulation_targetAtFixation,jsons/v1_VE250_randls_37_rotated.json,http://54.235.29.9/FacialAge/BNav_EC2/DepthDuration/v2_depth_duration_MTurk/v2_DepthDuration_HTML.html#41,41,1366,768,1366,768,8-20-2022,11-3-49,13,depth_duration_stimuli/001132_2014-06-17_14-48-54_260595134347_rgbf000100-resize_2/001132_2014-06-17_14-48-54_260595134347_rgbf000100-resize_2-target.png,250,3.753,4.5,2591,251,feet,jsons/v1_VE250_randls_37_rotated.json,490058,1108099,49,Man
13,910402,DepthScenes,duration_manipulation_targetAtFixation,jsons/v1_VE250_randls_37_rotated.json,http://54.235.29.9/FacialAge/BNav_EC2/DepthDuration/v2_depth_duration_MTurk/v2_DepthDuration_HTML.html#41,41,1366,768,1366,768,8-20-2022,11-3-49,14,depth_duration_stimuli/001133_2014-06-17_14-49-16_260595134347_rgbf000100-resize_0/001133_2014-06-17_14-49-16_260595134347_rgbf000100-resize_0-target.png,250,4.2115,4.0,1916,243,feet,jsons/v1_VE250_randls_37_rotated.json,490058,1108099,49,Man
14,910402,DepthScenes,duration_manipulation_targetAtFixation,jsons/v1_VE250_randls_37_rotated.json,http://54.235.29.9/FacialAge/BNav_EC2/DepthDuration/v2_depth_duration_MTurk/v2_DepthDuration_HTML.html#41,41,1366,768,1366,768,8-20-2022,11-3-49,15,depth_duration_stimuli/000943_2014-06-09_19-31-07_260595134347_rgbf000128-resize_1/000943_2014-06-09_19-31-07_260595134347_rgbf000128-resize_1-target.png,250,1.9765,2.5,2931,250,feet,jsons/v1_VE250_randls_37_rotated.json,490058,1108099,49,Man
15,910402,DepthScenes,duration_manipulation_targetAtFixation,jsons/v1_VE250_randls_37_rotated.json,http://54.235.29.9/FacialAge/BNav_EC2/DepthDuration/v2_depth_duration_MTurk/v2_DepthDuration_HTML.html#41,41,1366,768,1366,768,8-20-2022,11-3-49,16,depth_duration_stimuli/003070_2014-06-15_14-58-27_094959634447_rgbf000150-resize_3/003070_2014-06-15_14-58-27_094959634447_rgbf000150-resize_3-target.png,250,2.9415,5.0,1761,251,feet,jsons/v1_VE250_randls_37_rotated.json,490058,1108099,49,Man
16,910402,DepthScenes,duration_manipulation_targetAtFixation,jsons/v1_VE250_randls_37_rotated.json,http://54.235.29.9/FacialAge/BNav_EC2/DepthDuration/v2_depth_duration_MTurk/v2_DepthDuration_HTML.html#41,41,1366,768,1366,768,8-20-2022,11-3-49,17,depth_duration_stimuli/003490_2014-05-21_15-50-11_094959634447_rgbf000101-resize_3/003490_2014-05-21_15-50-11_094959634447_rgbf000101-resize_3-target.png,250,3.6445,6.0,2110,250,feet,jsons/v1_VE250_randls_37_rotated.json,490058,1108099,49,Man
17,910402,DepthScenes,duration_manipulation_targetAtFixation,jsons/v1_VE250_randls_37_rotated.json,http://54.235.29.9/FacialAge/BNav_EC2/DepthDuration/v2_depth_duration_MTurk/v2_DepthDuration_HTML.html#41,41,1366,768,1366,768,8-20-2022,11-3-49,18,depth_duration_stimuli/001175_2014-06-17_15-45-55_260595134347_rgbf000129-resize_4/001175_2014-06-17_15-45-55_260595134347_rgbf000129-resize_4-target.png,250,4.255,7.0,2677,249,feet,jsons/v1_VE250_randls_37_rotated.json,490058,1108099,49,Man
18,910402,DepthScenes,duration_manipulation_targetAtFixation,jsons/v1_VE250_randls_37_rotated.json,http://54.235.29.9/FacialAge/BNav_EC2/DepthDuration/v2_depth_duration_MTurk/v2_DepthDuration_HTML.html#41,41,1366,768,1366,768,8-20-2022,11-3-49,19,depth_duration_stimuli/001498_2014-06-19_17-45-14_260595134347_rgbf000129-resize_4/001498_2014-06-19_17-45-14_260595134347_rgbf000129-resize-original.jpg,250,1.4075,0.0,2287,248,feet,jsons/v1_VE250_randls_37_rotated.json,490058,1108099,49,Man
19,910402,DepthScenes,duration_manipulation_targetAtFixation,jsons/v1_VE250_randls_37_rotated.json,http://54.235.29.9/FacialAge/BNav_EC2/DepthDuration/v2_depth_duration_MTurk/v2_DepthDuration_HTML.html#41,41,1366,768,1366,768,8-20-2022,11-3-49,20,depth_duration_stimuli/000780_2014-06-08_22-28-29_260595134347_rgbf000126-resize_1/000780_2014-06-08_22-28-29_260595134347_rgbf000126-resize_1-target.png,250,3.3825,4.5,2320,250,feet,jsons/v1_VE250_randls_37_rotated.json,490058,1108099,49,Man
20,910402,DepthScenes,duration_manipulation_targetAtFixation,jsons/v1_VE250_randls_37_rotated.json,http://54.235.29.9/FacialAge/BNav_EC2/DepthDuration/v2_depth_duration_MTurk/v2_DepthDuration_HTML.html#41,41,1366,768,1366,768,8-20-2022,11-3-49,21,depth_duration_stimuli/002445_2014-06-28_20-32-16_260595134347_rgbf000029-resize_4/002445_2014-06-28_20-32-16_260595134347_rgbf000029-resize_4-target.png,250,2.5315,1.0,2039,250,feet,jsons/v1_VE250_randls_37_rotated.json,490058,1108099,49,Man
21,910402,DepthScenes,duration_manipulation_targetAtFixation,jsons/v1_VE250_randls_37_rotated.json,http://54.235.29.9/FacialAge/BNav_EC2/DepthDuration/v2_depth_duration_MTurk/v2_DepthDuration_HTML.html#41,41,1366,768,1366,768,8-20-2022,11-3-49,22,depth_duration_stimuli/000457_2014-06-08_16-52-43_260595134347_rgbf000199-resize_1/000457_2014-06-08_16-52-43_260595134347_rgbf000199-resize_1-target.png,250,3.6489999999999996,3.0,2017,251,feet,jsons/v1_VE250_randls_37_rotated.json,490058,1108099,49,Man
22,910402,DepthScenes,duration_manipulation_targetAtFixation,jsons/v1_VE250_randls_37_rotated.json,http://54.235.29.9/FacialAge/BNav_EC2/DepthDuration/v2_depth_duration_MTurk/v2_DepthDuration_HTML.html#41,41,1366,768,1366,768,8-20-2022,11-3-49,23,depth_duration_stimuli/000929_2014-06-09_16-33-19_260595134347_rgbf000139-resize_0/000929_2014-06-09_16-33-19_260595134347_rgbf000139-resize_0-target.png,250,2.8680000000000003,2.0,1820,236,feet,jsons/v1_VE250_randls_37_rotated.json,490058,1108099,49,Man
23,910402,DepthScenes,duration_manipulation_targetAtFixation,jsons/v1_VE250_randls_37_rotated.json,http://54.235.29.9/FacialAge/BNav_EC2/DepthDuration/v2_depth_duration_MTurk/v2_DepthDuration_HTML.html#41,41,1366,768,1366,768,8-20-2022,11-3-49,24,depth_duration_stimuli/002344_2014-06-28_20-06-29_260595134347_rgbf000030-resize_1/002344_2014-06-28_20-06-29_260595134347_rgbf000030-resize_1-target.png,250,1.5795,0.5,2047,236,feet,jsons/v1_VE250_randls_37_rotated.json,490058,1108099,49,Man
24,910402,DepthScenes,duration_manipulation_targetAtFixation,jsons/v1_VE250_randls_37_rotated.json,http://54.235.29.9/FacialAge/BNav_EC2/DepthDuration/v2_depth_duration_MTurk/v2_DepthDuration_HTML.html#41,41,1366,768,1366,768,8-20-2022,11-3-49,25,depth_duration_stimuli/002725_2014-06-22_11-47-51_094959634447_rgbf000070-resize_1/002725_2014-06-22_11-47-51_094959634447_rgbf000070-resize_1-target.png,250,2.195,4.5,3191,251,feet,jsons/v1_VE250_randls_37_rotated.json,490058,1108099,49,Man
25,910402,DepthScenes,duration_manipulation_targetAtFixation,jsons/v1_VE250_randls_37_rotated.json,http://54.235.29.9/FacialAge/BNav_EC2/DepthDuration/v2_depth_duration_MTurk/v2_DepthDuration_HTML.html#41,41,1366,768,1366,768,8-20-2022,11-3-49,26,depth_duration_stimuli/001136_2014-06-17_15-19-41_260595134347_rgbf000076-resize_3/001136_2014-06-17_15-19-41_260595134347_rgbf000076-resize_3-target.png,250,1.8655,5.0,1804,252,feet,jsons/v1_VE250_randls_37_rotated.json,490058,1108099,49,Man
26,910402,DepthScenes,duration_manipulation_targetAtFixation,jsons/v1_VE250_randls_37_rotated.json,http://54.235.29.9/FacialAge/BNav_EC2/DepthDuration/v2_depth_duration_MTurk/v2_DepthDuration_HTML.html#41,41,1366,768,1366,768,8-20-2022,11-3-49,27,depth_duration_stimuli/001164_2014-06-17_15-35-46_260595134347_rgbf000085-resize_3/001164_2014-06-17_15-35-46_260595134347_rgbf000085-resize_3-target.png,250,2.354,4.0,1704,251,feet,jsons/v1_VE250_randls_37_rotated.json,490058,1108099,49,Man
27,910402,DepthScenes,duration_manipulation_targetAtFixation,jsons/v1_VE250_randls_37_rotated.json,http://54.235.29.9/FacialAge/BNav_EC2/DepthDuration/v2_depth_duration_MTurk/v2_DepthDuration_HTML.html#41,41,1366,768,1366,768,8-20-2022,11-3-49,28,depth_duration_stimuli/001094_2014-06-15_17-36-00_260595134347_rgbf000205-resize_0/001094_2014-06-15_17-36-00_260595134347_rgbf000205-resize_0-target.png,250,4.2175,5.0,1744,250,feet,jsons/v1_VE250_randls_37_rotated.json,490058,1108099,49,Man
28,910402,DepthScenes,duration_manipulation_targetAtFixation,jsons/v1_VE250_randls_37_rotated.json,http://54.235.29.9/FacialAge/BNav_EC2/DepthDuration/v2_depth_duration_MTurk/v2_DepthDuration_HTML.html#41,41,1366,768,1366,768,8-20-2022,11-3-49,29,depth_duration_stimuli/000692_2014-06-08_13-09-42_260595134347_rgbf000199-resize_2/000692_2014-06-08_13-09-42_260595134347_rgbf000199-resize_2-target.png,250,3.661,6.0,1894,260,feet,jsons/v1_VE250_randls_37_rotated.json,490058,1108099,49,Man
29,910402,DepthScenes,duration_manipulation_targetAtFixation,jsons/v1_VE250_randls_37_rotated.json,http://54.235.29.9/FacialAge/BNav_EC2/DepthDuration/v2_depth_duration_MTurk/v2_DepthDuration_HTML.html#41,41,1366,768,1366,768,8-20-2022,11-3-49,30,depth_duration_stimuli/002072_2014-06-24_21-48-06_260595134347_rgbf000115-resize_0/002072_2014-06-24_21-48-06_260595134347_rgbf000115-resize-original.jpg,250,4.702,0.0,2435,248,feet,jsons/v1_VE250_randls_37_rotated.json,490058,1108099,49,Man
30,910402,DepthScenes,duration_manipulation_targetAtFixation,jsons/v1_VE250_randls_37_rotated.json,http://54.235.29.9/FacialAge/BNav_EC2/DepthDuration/v2_depth_duration_MTurk/v2_DepthDuration_HTML.html#41,41,1366,768,1366,768,8-20-2022,11-3-49,31,depth_duration_stimuli/002568_2014-06-24_13-59-21_094959634447_rgbf000062-resize_4/002568_2014-06-24_13-59-21_094959634447_rgbf000062-resize_4-target.png,250,3.015,4.0,1712,251,feet,jsons/v1_VE250_randls_37_rotated.json,490058,1108099,49,Man
31,910402,DepthScenes,duration_manipulation_targetAtFixation,jsons/v1_VE250_randls_37_rotated.json,http://54.235.29.9/FacialAge/BNav_EC2/DepthDuration/v2_depth_duration_MTurk/v2_DepthDuration_HTML.html#41,41,1366,768,1366,768,8-20-2022,11-3-49,32,depth_duration_stimuli/003492_2014-05-21_15-50-55_094959634447_rgbf000828-resize_1/003492_2014-05-21_15-50-55_094959634447_rgbf000828-resize_1-target.png,250,4.06875,0.0,5925,249,feet,jsons/v1_VE250_randls_37_rotated.json,490058,1108099,49,Man
32,910402,DepthScenes,duration_manipulation_targetAtFixation,jsons/v1_VE250_randls_37_rotated.json,http://54.235.29.9/FacialAge/BNav_EC2/DepthDuration/v2_depth_duration_MTurk/v2_DepthDuration_HTML.html#41,41,1366,768,1366,768,8-20-2022,11-3-49,33,depth_duration_stimuli/000109_2014-05-14_23-41-52_260595134347_rgbf000035-resize_9/000109_2014-05-14_23-41-52_260595134347_rgbf000035-resize_9-target.png,250,1.3545,0.5,3117,257,feet,jsons/v1_VE250_randls_37_rotated.json,490058,1108099,49,Man
33,910402,DepthScenes,duration_manipulation_targetAtFixation,jsons/v1_VE250_randls_37_rotated.json,http://54.235.29.9/FacialAge/BNav_EC2/DepthDuration/v2_depth_duration_MTurk/v2_DepthDuration_HTML.html#41,41,1366,768,1366,768,8-20-2022,11-3-49,34,depth_duration_stimuli/000470_2014-06-09_19-42-40_260595134347_rgbf000094-resize_1/000470_2014-06-09_19-42-40_260595134347_rgbf000094-resize_1-target.png,250,1.831,1.5,2389,236,feet,jsons/v1_VE250_randls_37_rotated.json,490058,1108099,49,Man
34,910402,DepthScenes,duration_manipulation_targetAtFixation,jsons/v1_VE250_randls_37_rotated.json,http://54.235.29.9/FacialAge/BNav_EC2/DepthDuration/v2_depth_duration_MTurk/v2_DepthDuration_HTML.html#41,41,1366,768,1366,768,8-20-2022,11-3-49,35,depth_duration_stimuli/000927_2014-06-09_16-32-30_260595134347_rgbf000123-resize_3/000927_2014-06-09_16-32-30_260595134347_rgbf000123-resize_3-target.png,250,2.6785,3.5,2657,251,feet,jsons/v1_VE250_randls_37_rotated.json,490058,1108099,49,Man
35,910402,DepthScenes,duration_manipulation_targetAtFixation,jsons/v1_VE250_randls_37_rotated.json,http://54.235.29.9/FacialAge/BNav_EC2/DepthDuration/v2_depth_duration_MTurk/v2_DepthDuration_HTML.html#41,41,1366,768,1366,768,8-20-2022,11-3-49,36,depth_duration_stimuli/001110_2014-06-15_17-25-28_260595134347_rgbf000150-resize_1/001110_2014-06-15_17-25-28_260595134347_rgbf000150-resize_1-target.png,250,1.7115,2.0,1764,251,feet,jsons/v1_VE250_randls_37_rotated.json,490058,1108099,49,Man
36,910402,DepthScenes,duration_manipulation_targetAtFixation,jsons/v1_VE250_randls_37_rotated.json,http://54.235.29.9/FacialAge/BNav_EC2/DepthDuration/v2_depth_duration_MTurk/v2_DepthDuration_HTML.html#41,41,1366,768,1366,768,8-20-2022,11-3-49,37,depth_duration_stimuli/002758_2014-06-22_19-11-20_094959634447_rgbf000128-resize_1/002758_2014-06-22_19-11-20_094959634447_rgbf000128-resize_1-target.png,250,2.555,3.5,2236,256,feet,jsons/v1_VE250_randls_37_rotated.json,490058,1108099,49,Man
37,910402,DepthScenes,duration_manipulation_targetAtFixation,jsons/v1_VE250_randls_37_rotated.json,http://54.235.29.9/FacialAge/BNav_EC2/DepthDuration/v2_depth_duration_MTurk/v2_DepthDuration_HTML.html#41,41,1366,768,1366,768,8-20-2022,11-3-49,38,depth_duration_stimuli/002630_2014-06-24_14-47-50_094959634447_rgbf000055-resize_1/002630_2014-06-24_14-47-50_094959634447_rgbf000055-resize_1-target.png,250,3.0095,5.0,2020,251,feet,jsons/v1_VE250_randls_37_rotated.json,490058,1108099,49,Man
38,910402,DepthScenes,duration_manipulation_targetAtFixation,jsons/v1_VE250_randls_37_rotated.json,http://54.235.29.9/FacialAge/BNav_EC2/DepthDuration/v2_depth_duration_MTurk/v2_DepthDuration_HTML.html#41,41,1366,768,1366,768,8-20-2022,11-3-49,39,depth_duration_stimuli/000103_2014-05-14_22-01-17_260595134347_rgbf000152-resize_5/000103_2014-05-14_22-01-17_260595134347_rgbf000152-resize_5-target.png,250,1.993,4.5,2205,253,feet,jsons/v1_VE250_randls_37_rotated.json,490058,1108099,49,Man
39,910402,DepthScenes,duration_manipulation_targetAtFixation,jsons/v1_VE250_randls_37_rotated.json,http://54.235.29.9/FacialAge/BNav_EC2/DepthDuration/v2_depth_duration_MTurk/v2_DepthDuration_HTML.html#41,41,1366,768,1366,768,8-20-2022,11-3-49,40,depth_duration_stimuli/001555_2014-06-20_17-12-10_260595134347_rgbf000065-resize_4/001555_2014-06-20_17-12-10_260595134347_rgbf000065-resize_4-target.png,250,1.633,2.0,1969,252,feet,jsons/v1_VE250_randls_37_rotated.json,490058,1108099,49,Man
40,910402,DepthScenes,duration_manipulation_targetAtFixation,jsons/v1_VE250_randls_37_rotated.json,http://54.235.29.9/FacialAge/BNav_EC2/DepthDuration/v2_depth_duration_MTurk/v2_DepthDuration_HTML.html#41,41,1366,768,1366,768,8-20-2022,11-3-49,41,depth_duration_stimuli/001584_2014-06-20_11-07-43_260595134347_rgbf000002-resize_1/001584_2014-06-20_11-07-43_260595134347_rgbf000002-resize_1-target.png,250,3.53,3.0,1637,238,feet,jsons/v1_VE250_randls_37_rotated.json,490058,1108099,49,Man
41,910402,DepthScenes,duration_manipulation_targetAtFixation,jsons/v1_VE250_randls_37_rotated.json,http://54.235.29.9/FacialAge/BNav_EC2/DepthDuration/v2_depth_duration_MTurk/v2_DepthDuration_HTML.html#41,41,1366,768,1366,768,8-20-2022,11-3-49,42,depth_duration_stimuli/003621_2014-05-23_18-06-08_094959634447_rgbf000101-resize_1/003621_2014-05-23_18-06-08_094959634447_rgbf000101-resize_1-target.png,250,3.9835,5.0,2021,249,feet,jsons/v1_VE250_randls_37_rotated.json,490058,1108099,49,Man
42,910402,DepthScenes,duration_manipulation_targetAtFixation,jsons/v1_VE250_randls_37_rotated.json,http://54.235.29.9/FacialAge/BNav_EC2/DepthDuration/v2_depth_duration_MTurk/v2_DepthDuration_HTML.html#41,41,1366,768,1366,768,8-20-2022,11-3-49,43,depth_duration_stimuli/002467_2014-06-28_20-38-07_260595134347_rgbf000026-resize_2/002467_2014-06-28_20-38-07_260595134347_rgbf000026-resize_2-target.png,250,4.742,7.0,1690,283,feet,jsons/v1_VE250_randls_37_rotated.json,490058,1108099,49,Man
43,910402,DepthScenes,duration_manipulation_targetAtFixation,jsons/v1_VE250_randls_37_rotated.json,http://54.235.29.9/FacialAge/BNav_EC2/DepthDuration/v2_depth_duration_MTurk/v2_DepthDuration_HTML.html#41,41,1366,768,1366,768,8-20-2022,11-3-49,44,depth_duration_stimuli/002570_2014-06-24_13-59-54_094959634447_rgbf000059-resize_0/002570_2014-06-24_13-59-54_094959634447_rgbf000059-resize_0-target.png,250,4.037,3.5,3052,252,feet,jsons/v1_VE250_randls_37_rotated.json,490058,1108099,49,Man
44,910402,DepthScenes,duration_manipulation_targetAtFixation,jsons/v1_VE250_randls_37_rotated.json,http://54.235.29.9/FacialAge/BNav_EC2/DepthDuration/v2_depth_duration_MTurk/v2_DepthDuration_HTML.html#41,41,1366,768,1366,768,8-20-2022,11-3-49,45,depth_duration_stimuli/002444_2014-06-28_20-32-08_260595134347_rgbf000027-resize_0/002444_2014-06-28_20-32-08_260595134347_rgbf000027-resize_0-target.png,250,4.388999999999999,5.0,2068,251,feet,jsons/v1_VE250_randls_37_rotated.json,490058,1108099,49,Man
45,910402,DepthScenes,duration_manipulation_targetAtFixation,jsons/v1_VE250_randls_37_rotated.json,http://54.235.29.9/FacialAge/BNav_EC2/DepthDuration/v2_depth_duration_MTurk/v2_DepthDuration_HTML.html#41,41,1366,768,1366,768,8-20-2022,11-3-49,46,depth_duration_stimuli/000436_2014-06-09_22-25-11_260595134347_rgbf000137-resize_1/000436_2014-06-09_22-25-11_260595134347_rgbf000137-resize_1-target.png,250,4.0705,7.0,2325,236,feet,jsons/v1_VE250_randls_37_rotated.json,490058,1108099,49,Man
46,910402,DepthScenes,duration_manipulation_targetAtFixation,jsons/v1_VE250_randls_37_rotated.json,http://54.235.29.9/FacialAge/BNav_EC2/DepthDuration/v2_depth_duration_MTurk/v2_DepthDuration_HTML.html#41,41,1366,768,1366,768,8-20-2022,11-3-49,47,depth_duration_stimuli/002209_2014-06-28_18-36-10_260595134347_rgbf000051-resize_1/002209_2014-06-28_18-36-10_260595134347_rgbf000051-resize_1-target.png,250,2.057,2.0,1916,253,feet,jsons/v1_VE250_randls_37_rotated.json,490058,1108099,49,Man
47,910402,DepthScenes,duration_manipulation_targetAtFixation,jsons/v1_VE250_randls_37_rotated.json,http://54.235.29.9/FacialAge/BNav_EC2/DepthDuration/v2_depth_duration_MTurk/v2_DepthDuration_HTML.html#41,41,1366,768,1366,768,8-20-2022,11-3-49,48,depth_duration_stimuli/002763_2014-06-22_19-13-10_094959634447_rgbf000075-resize_4/002763_2014-06-22_19-13-10_094959634447_rgbf000075-resize_4-target.png,250,1.68375,2.5,3027,250,feet,jsons/v1_VE250_randls_37_rotated.json,490058,1108099,49,Man
48,910402,DepthScenes,duration_manipulation_targetAtFixation,jsons/v1_VE250_randls_37_rotated.json,http://54.235.29.9/FacialAge/BNav_EC2/DepthDuration/v2_depth_duration_MTurk/v2_DepthDuration_HTML.html#41,41,1366,768,1366,768,8-20-2022,11-3-49,49,depth_duration_stimuli/001170_2014-06-17_15-43-44_260595134347_rgbf000096-resize_6/001170_2014-06-17_15-43-44_260595134347_rgbf000096-resize-original.jpg,250,1.1909999999999998,0.0,3412,249,feet,jsons/v1_VE250_randls_37_rotated.json,490058,1108099,49,Man
49,910402,DepthScenes,duration_manipulation_targetAtFixation,jsons/v1_VE250_randls_37_rotated.json,http://54.235.29.9/FacialAge/BNav_EC2/DepthDuration/v2_depth_duration_MTurk/v2_DepthDuration_HTML.html#41,41,1366,768,1366,768,8-20-2022,11-3-49,50,depth_duration_stimuli/003129_2014-05-12_10-48-10_094959634447_rgbf000100-resize_0/003129_2014-05-12_10-48-10_094959634447_rgbf000100-resize_0-target.png,250,4.9305,5.0,3137,252,feet,jsons/v1_VE250_randls_37_rotated.json,490058,1108099,49,Man
50,910402,DepthScenes,duration_manipulation_targetAtFixation,jsons/v1_VE250_randls_37_rotated.json,http://54.235.29.9/FacialAge/BNav_EC2/DepthDuration/v2_depth_duration_MTurk/v2_DepthDuration_HTML.html#41,41,1366,768,1366,768,8-20-2022,11-3-49,51,depth_duration_stimuli/000414_2014-06-04_19-49-13_260595134347_rgbf000044-resize_0/000414_2014-06-04_19-49-13_260595134347_rgbf000044-resize_0-target.png,250,4.329,6.0,1929,251,feet,jsons/v1_VE250_randls_37_rotated.json,490058,1108099,49,Man
51,910402,DepthScenes,duration_manipulation_targetAtFixation,jsons/v1_VE250_randls_37_rotated.json,http://54.235.29.9/FacialAge/BNav_EC2/DepthDuration/v2_depth_duration_MTurk/v2_DepthDuration_HTML.html#41,41,1366,768,1366,768,8-20-2022,11-3-49,52,depth_duration_stimuli/000749_2014-06-08_21-55-06_260595134347_rgbf000070-resize_2/000749_2014-06-08_21-55-06_260595134347_rgbf000070-resize_2-target.png,250,2.331,3.0,1988,249,feet,jsons/v1_VE250_randls_37_rotated.json,490058,1108099,49,Man
52,910402,DepthScenes,duration_manipulation_targetAtFixation,jsons/v1_VE250_randls_37_rotated.json,http://54.235.29.9/FacialAge/BNav_EC2/DepthDuration/v2_depth_duration_MTurk/v2_DepthDuration_HTML.html#41,41,1366,768,1366,768,8-20-2022,11-3-49,53,depth_duration_stimuli/002788_2014-06-22_19-36-03_094959634447_rgbf000088-resize_2/002788_2014-06-22_19-36-03_094959634447_rgbf000088-resize_2-target.png,250,1.6465,4.0,1594,251,feet,jsons/v1_VE250_randls_37_rotated.json,490058,1108099,49,Man
53,910402,DepthScenes,duration_manipulation_targetAtFixation,jsons/v1_VE250_randls_37_rotated.json,http://54.235.29.9/FacialAge/BNav_EC2/DepthDuration/v2_depth_duration_MTurk/v2_DepthDuration_HTML.html#41,41,1366,768,1366,768,8-20-2022,11-3-49,54,depth_duration_stimuli/003083_2014-06-15_15-21-03_094959634447_rgbf000063-resize_1/003083_2014-06-15_15-21-03_094959634447_rgbf000063-resize_1-target.png,250,4.1405,8.0,2446,251,feet,jsons/v1_VE250_randls_37_rotated.json,490058,1108099,49,Man
54,910402,DepthScenes,duration_manipulation_targetAtFixation,jsons/v1_VE250_randls_37_rotated.json,http://54.235.29.9/FacialAge/BNav_EC2/DepthDuration/v2_depth_duration_MTurk/v2_DepthDuration_HTML.html#41,41,1366,768,1366,768,8-20-2022,11-3-49,55,depth_duration_stimuli/000486_2014-06-09_20-47-20_260595134347_rgbf000143-resize_2/000486_2014-06-09_20-47-20_260595134347_rgbf000143-resize_2-target.png,250,4.8325,5.0,1665,250,feet,jsons/v1_VE250_randls_37_rotated.json,490058,1108099,49,Man
55,910402,DepthScenes,duration_manipulation_targetAtFixation,jsons/v1_VE250_randls_37_rotated.json,http://54.235.29.9/FacialAge/BNav_EC2/DepthDuration/v2_depth_duration_MTurk/v2_DepthDuration_HTML.html#41,41,1366,768,1366,768,8-20-2022,11-3-49,56,depth_duration_stimuli/000549_2014-06-08_22-10-24_260595134347_rgbf000247-resize_3/000549_2014-06-08_22-10-24_260595134347_rgbf000247-resize_3-target.png,250,1.841,1.5,2306,259,feet,jsons/v1_VE250_randls_37_rotated.json,490058,1108099,49,Man
56,910402,DepthScenes,duration_manipulation_targetAtFixation,jsons/v1_VE250_randls_37_rotated.json,http://54.235.29.9/FacialAge/BNav_EC2/DepthDuration/v2_depth_duration_MTurk/v2_DepthDuration_HTML.html#41,41,1366,768,1366,768,8-20-2022,11-3-49,57,depth_duration_stimuli/001055_2014-06-08_18-45-35_260595134347_rgbf000111-resize_4/001055_2014-06-08_18-45-35_260595134347_rgbf000111-resize_4-target.png,250,2.4290000000000003,5.0,1786,251,feet,jsons/v1_VE250_randls_37_rotated.json,490058,1108099,49,Man
57,910402,DepthScenes,duration_manipulation_targetAtFixation,jsons/v1_VE250_randls_37_rotated.json,http://54.235.29.9/FacialAge/BNav_EC2/DepthDuration/v2_depth_duration_MTurk/v2_DepthDuration_HTML.html#41,41,1366,768,1366,768,8-20-2022,11-3-49,58,depth_duration_stimuli/000137_2014-05-20_17-04-49_260595134347_rgbf000120-resize_1/000137_2014-05-20_17-04-49_260595134347_rgbf000120-resize_1-target.png,250,3.786,4.5,2261,237,feet,jsons/v1_VE250_randls_37_rotated.json,490058,1108099,49,Man
58,910402,DepthScenes,duration_manipulation_targetAtFixation,jsons/v1_VE250_randls_37_rotated.json,http://54.235.29.9/FacialAge/BNav_EC2/DepthDuration/v2_depth_duration_MTurk/v2_DepthDuration_HTML.html#41,41,1366,768,1366,768,8-20-2022,11-3-49,59,depth_duration_stimuli/000736_2014-06-08_18-24-15_260595134347_rgbf000206-resize_3/000736_2014-06-08_18-24-15_260595134347_rgbf000206-resize_3-target.png,250,3.515,2.5,2492,247,feet,jsons/v1_VE250_randls_37_rotated.json,490058,1108099,49,Man
59,910402,DepthScenes,duration_manipulation_targetAtFixation,jsons/v1_VE250_randls_37_rotated.json,http://54.235.29.9/FacialAge/BNav_EC2/DepthDuration/v2_depth_duration_MTurk/v2_DepthDuration_HTML.html#41,41,1366,768,1366,768,8-20-2022,11-3-49,60,depth_duration_stimuli/002953_2014-06-08_17-32-18_094959634447_rgbf000059-resize_5/002953_2014-06-08_17-32-18_094959634447_rgbf000059-resize_5-target.png,250,1.551,1.5,1935,248,feet,jsons/v1_VE250_randls_37_rotated.json,490058,1108099,49,Man
60,910402,DepthScenes,duration_manipulation_targetAtFixation,jsons/v1_VE250_randls_37_rotated.json,http://54.235.29.9/FacialAge/BNav_EC2/DepthDuration/v2_depth_duration_MTurk/v2_DepthDuration_HTML.html#41,41,1366,768,1366,768,8-20-2022,11-3-49,61,depth_duration_stimuli/000878_2014-06-08_22-52-45_260595134347_rgbf000045-resize_2/000878_2014-06-08_22-52-45_260595134347_rgbf000045-resize_2-target.png,250,2.092,4.0,1870,237,feet,jsons/v1_VE250_randls_37_rotated.json,490058,1108099,49,Man
61,910402,DepthScenes,duration_manipulation_targetAtFixation,jsons/v1_VE250_randls_37_rotated.json,http://54.235.29.9/FacialAge/BNav_EC2/DepthDuration/v2_depth_duration_MTurk/v2_DepthDuration_HTML.html#41,41,1366,768,1366,768,8-20-2022,11-3-49,62,depth_duration_stimuli/003081_2014-06-15_15-19-16_094959634447_rgbf000150-resize_1/003081_2014-06-15_15-19-16_094959634447_rgbf000150-resize_1-target.png,250,3.9125,1.5,2984,251,feet,jsons/v1_VE250_randls_37_rotated.json,490058,1108099,49,Man
62,910402,DepthScenes,duration_manipulation_targetAtFixation,jsons/v1_VE250_randls_37_rotated.json,http://54.235.29.9/FacialAge/BNav_EC2/DepthDuration/v2_depth_duration_MTurk/v2_DepthDuration_HTML.html#41,41,1366,768,1366,768,8-20-2022,11-3-49,63,depth_duration_stimuli/001417_2014-06-19_16-25-36_260595134347_rgbf000115-resize_5/001417_2014-06-19_16-25-36_260595134347_rgbf000115-resize_5-target.png,250,4.6255,5.0,1937,232,feet,jsons/v1_VE250_randls_37_rotated.json,490058,1108099,49,Man
63,910402,DepthScenes,duration_manipulation_targetAtFixation,jsons/v1_VE250_randls_37_rotated.json,http://54.235.29.9/FacialAge/BNav_EC2/DepthDuration/v2_depth_duration_MTurk/v2_DepthDuration_HTML.html#41,41,1366,768,1366,768,8-20-2022,11-3-49,64,depth_duration_stimuli/001235_2014-06-17_16-37-36_260595134347_rgbf000084-resize_4/001235_2014-06-17_16-37-36_260595134347_rgbf000084-resize_4-target.png,250,3.6605,5.0,2305,251,feet,jsons/v1_VE250_randls_37_rotated.json,490058,1108099,49,Man
64,910402,DepthScenes,duration_manipulation_targetAtFixation,jsons/v1_VE250_randls_37_rotated.json,http://54.235.29.9/FacialAge/BNav_EC2/DepthDuration/v2_depth_duration_MTurk/v2_DepthDuration_HTML.html#41,41,1366,768,1366,768,8-20-2022,11-3-49,65,depth_duration_stimuli/000788_2014-06-08_22-34-36_260595134347_rgbf000131-resize_1/000788_2014-06-08_22-34-36_260595134347_rgbf000131-resize_1-target.png,250,3.359,4.0,1914,260,feet,jsons/v1_VE250_randls_37_rotated.json,490058,1108099,49,Man
65,910402,DepthScenes,duration_manipulation_targetAtFixation,jsons/v1_VE250_randls_37_rotated.json,http://54.235.29.9/FacialAge/BNav_EC2/DepthDuration/v2_depth_duration_MTurk/v2_DepthDuration_HTML.html#41,41,1366,768,1366,768,8-20-2022,11-3-49,66,depth_duration_stimuli/001540_2014-06-20_17-01-05_260595134347_rgbf000086-resize_2/001540_2014-06-20_17-01-05_260595134347_rgbf000086-resize-original.jpg,250,1.459,0.0,1632,250,feet,jsons/v1_VE250_randls_37_rotated.json,490058,1108099,49,Man
66,910402,DepthScenes,duration_manipulation_targetAtFixation,jsons/v1_VE250_randls_37_rotated.json,http://54.235.29.9/FacialAge/BNav_EC2/DepthDuration/v2_depth_duration_MTurk/v2_DepthDuration_HTML.html#41,41,1366,768,1366,768,8-20-2022,11-3-49,67,depth_duration_stimuli/001450_2014-06-19_17-02-03_260595134347_rgbf000203-resize_4/001450_2014-06-19_17-02-03_260595134347_rgbf000203-resize_4-target.png,250,4.0106666666667,5.0,2473,250,feet,jsons/v1_VE250_randls_37_rotated.json,490058,1108099,49,Man
67,910402,DepthScenes,duration_manipulation_targetAtFixation,jsons/v1_VE250_randls_37_rotated.json,http://54.235.29.9/FacialAge/BNav_EC2/DepthDuration/v2_depth_duration_MTurk/v2_DepthDuration_HTML.html#41,41,1366,768,1366,768,8-20-2022,11-3-49,68,depth_duration_stimuli/001449_2014-06-19_17-01-27_260595134347_rgbf000116-resize_2/001449_2014-06-19_17-01-27_260595134347_rgbf000116-resize_2-target.png,250,3.452,5.0,1630,237,feet,jsons/v1_VE250_randls_37_rotated.json,490058,1108099,49,Man
68,910402,DepthScenes,duration_manipulation_targetAtFixation,jsons/v1_VE250_randls_37_rotated.json,http://54.235.29.9/FacialAge/BNav_EC2/DepthDuration/v2_depth_duration_MTurk/v2_DepthDuration_HTML.html#41,41,1366,768,1366,768,8-20-2022,11-3-49,69,depth_duration_stimuli/002637_2014-06-24_14-51-13_094959634447_rgbf000066-resize_4/002637_2014-06-24_14-51-13_094959634447_rgbf000066-resize_4-target.png,250,1.9955,3.0,1469,236,feet,jsons/v1_VE250_randls_37_rotated.json,490058,1108099,49,Man
69,910402,DepthScenes,duration_manipulation_targetAtFixation,jsons/v1_VE250_randls_37_rotated.json,http://54.235.29.9/FacialAge/BNav_EC2/DepthDuration/v2_depth_duration_MTurk/v2_DepthDuration_HTML.html#41,41,1366,768,1366,768,8-20-2022,11-3-49,70,depth_duration_stimuli/003534_2014-05-22_15-06-10_094959634447_rgbf000102-resize_4/003534_2014-05-22_15-06-10_094959634447_rgbf000102-resize_4-target.png,250,1.426,0.5,2007,250,feet,jsons/v1_VE250_randls_37_rotated.json,490058,1108099,49,Man
70,910402,DepthScenes,duration_manipulation_targetAtFixation,jsons/v1_VE250_randls_37_rotated.json,http://54.235.29.9/FacialAge/BNav_EC2/DepthDuration/v2_depth_duration_MTurk/v2_DepthDuration_HTML.html#41,41,1366,768,1366,768,8-20-2022,11-3-49,71,depth_duration_stimuli/002657_2014-06-13_15-29-54_094959634447_rgbf000150-resize_1/002657_2014-06-13_15-29-54_094959634447_rgbf000150-resize_1-target.png,250,4.919,5.0,1538,250,feet,jsons/v1_VE250_randls_37_rotated.json,490058,1108099,49,Man
71,910402,DepthScenes,duration_manipulation_targetAtFixation,jsons/v1_VE250_randls_37_rotated.json,http://54.235.29.9/FacialAge/BNav_EC2/DepthDuration/v2_depth_duration_MTurk/v2_DepthDuration_HTML.html#41,41,1366,768,1366,768,8-20-2022,11-3-49,72,depth_duration_stimuli/002375_2014-06-28_20-13-44_260595134347_rgbf000032-resize_1/002375_2014-06-28_20-13-44_260595134347_rgbf000032-resize_1-target.png,250,4.0175,6.0,1473,251,feet,jsons/v1_VE250_randls_37_rotated.json,490058,1108099,49,Man
72,910402,DepthScenes,duration_manipulation_targetAtFixation,jsons/v1_VE250_randls_37_rotated.json,http://54.235.29.9/FacialAge/BNav_EC2/DepthDuration/v2_depth_duration_MTurk/v2_DepthDuration_HTML.html#41,41,1366,768,1366,768,8-20-2022,11-3-49,73,depth_duration_stimuli/003495_2014-05-21_16-01-51_094959634447_rgbf000100-resize_3/003495_2014-05-21_16-01-51_094959634447_rgbf000100-resize_3-target.png,250,1.6255,2.0,1737,247,feet,jsons/v1_VE250_randls_37_rotated.json,490058,1108099,49,Man
73,910402,DepthScenes,duration_manipulation_targetAtFixation,jsons/v1_VE250_randls_37_rotated.json,http://54.235.29.9/FacialAge/BNav_EC2/DepthDuration/v2_depth_duration_MTurk/v2_DepthDuration_HTML.html#41,41,1366,768,1366,768,8-20-2022,11-3-49,74,depth_duration_stimuli/001244_2014-06-17_16-47-45_260595134347_rgbf000030-resize_4/001244_2014-06-17_16-47-45_260595134347_rgbf000030-resize_4-target.png,250,2.0425,4.0,2160,251,feet,jsons/v1_VE250_randls_37_rotated.json,490058,1108099,49,Man
74,910402,DepthScenes,duration_manipulation_targetAtFixation,jsons/v1_VE250_randls_37_rotated.json,http://54.235.29.9/FacialAge/BNav_EC2/DepthDuration/v2_depth_duration_MTurk/v2_DepthDuration_HTML.html#41,41,1366,768,1366,768,8-20-2022,11-3-49,75,depth_duration_stimuli/002136_2014-06-25_21-18-03_260595134347_rgbf000109-resize_3/002136_2014-06-25_21-18-03_260595134347_rgbf000109-resize_3-target.png,250,1.9569999999999999,2.0,2250,247,feet,jsons/v1_VE250_randls_37_rotated.json,490058,1108099,49,Man
75,910402,DepthScenes,duration_manipulation_targetAtFixation,jsons/v1_VE250_randls_37_rotated.json,http://54.235.29.9/FacialAge/BNav_EC2/DepthDuration/v2_depth_duration_MTurk/v2_DepthDuration_HTML.html#41,41,1366,768,1366,768,8-20-2022,11-3-49,76,depth_duration_stimuli/002964_2014-06-08_17-46-11_094959634447_rgbf000091-resize_4/002964_2014-06-08_17-46-11_094959634447_rgbf000091-resize_4-target.png,250,1.6909999999999998,1.5,4527,250,feet,jsons/v1_VE250_randls_37_rotated.json,490058,1108099,49,Man
76,910402,DepthScenes,duration_manipulation_targetAtFixation,jsons/v1_VE250_randls_37_rotated.json,http://54.235.29.9/FacialAge/BNav_EC2/DepthDuration/v2_depth_duration_MTurk/v2_DepthDuration_HTML.html#41,41,1366,768,1366,768,8-20-2022,11-3-49,77,depth_duration_stimuli/002678_2014-06-13_16-15-32_094959634447_rgbf000151-resize_6/002678_2014-06-13_16-15-32_094959634447_rgbf000151-resize_6-target.png,250,2.1830000000000003,4.0,3197,250,feet,jsons/v1_VE250_randls_37_rotated.json,490058,1108099,49,Man
77,910402,DepthScenes,duration_manipulation_targetAtFixation,jsons/v1_VE250_randls_37_rotated.json,http://54.235.29.9/FacialAge/BNav_EC2/DepthDuration/v2_depth_duration_MTurk/v2_DepthDuration_HTML.html#41,41,1366,768,1366,768,8-20-2022,11-3-49,78,depth_duration_stimuli/000368_2014-06-09_15-53-01_260595134347_rgbf000155-resize_2/000368_2014-06-09_15-53-01_260595134347_rgbf000155-resize_2-target.png,250,2.4859999999999998,3.0,3016,249,feet,jsons/v1_VE250_randls_37_rotated.json,490058,1108099,49,Man
78,910402,DepthScenes,duration_manipulation_targetAtFixation,jsons/v1_VE250_randls_37_rotated.json,http://54.235.29.9/FacialAge/BNav_EC2/DepthDuration/v2_depth_duration_MTurk/v2_DepthDuration_HTML.html#41,41,1366,768,1366,768,8-20-2022,11-3-49,79,depth_duration_stimuli/000556_2014-06-09_22-42-56_260595134347_rgbf000214-resize_1/000556_2014-06-09_22-42-56_260595134347_rgbf000214-resize_1-target.png,250,4.8415,5.0,2514,250,feet,jsons/v1_VE250_randls_37_rotated.json,490058,1108099,49,Man
79,910402,DepthScenes,duration_manipulation_targetAtFixation,jsons/v1_VE250_randls_37_rotated.json,http://54.235.29.9/FacialAge/BNav_EC2/DepthDuration/v2_depth_duration_MTurk/v2_DepthDuration_HTML.html#41,41,1366,768,1366,768,8-20-2022,11-3-49,80,depth_duration_stimuli/001158_2014-06-17_15-32-16_260595134347_rgbf000138-resize_2/001158_2014-06-17_15-32-16_260595134347_rgbf000138-resize_2-target.png,250,4.5315,6.0,2875,236,feet,jsons/v1_VE250_randls_37_rotated.json,490058,1108099,49,Man
80,910402,DepthScenes,duration_manipulation_targetAtFixation,jsons/v1_VE250_randls_37_rotated.json,http://54.235.29.9/FacialAge/BNav_EC2/DepthDuration/v2_depth_duration_MTurk/v2_DepthDuration_HTML.html#41,41,1366,768,1366,768,8-20-2022,11-3-49,81,depth_duration_stimuli/000665_2014-06-09_20-42-35_260595134347_rgbf000110-resize_1/000665_2014-06-09_20-42-35_260595134347_rgbf000110-resize_1-target.png,250,3.057,4.8,5549,237,feet,jsons/v1_VE250_randls_37_rotated.json,490058,1108099,49,Man
81,910402,DepthScenes,duration_manipulation_targetAtFixation,jsons/v1_VE250_randls_37_rotated.json,http://54.235.29.9/FacialAge/BNav_EC2/DepthDuration/v2_depth_duration_MTurk/v2_DepthDuration_HTML.html#41,41,1366,768,1366,768,8-20-2022,11-3-49,82,depth_duration_stimuli/001150_2014-06-17_15-27-34_260595134347_rgbf000108-resize_2/001150_2014-06-17_15-27-34_260595134347_rgbf000108-resize_2-target.png,250,4.0325,7.0,5115,250,feet,jsons/v1_VE250_randls_37_rotated.json,490058,1108099,49,Man
82,910402,DepthScenes,duration_manipulation_targetAtFixation,jsons/v1_VE250_randls_37_rotated.json,http://54.235.29.9/FacialAge/BNav_EC2/DepthDuration/v2_depth_duration_MTurk/v2_DepthDuration_HTML.html#41,41,1366,768,1366,768,8-20-2022,11-3-49,83,depth_duration_stimuli/001617_2014-06-20_11-35-32_260595134347_rgbf000066-resize_1/001617_2014-06-20_11-35-32_260595134347_rgbf000066-resize_1-target.png,250,3.7910000000000004,4.0,1945,250,feet,jsons/v1_VE250_randls_37_rotated.json,490058,1108099,49,Man
83,910402,DepthScenes,duration_manipulation_targetAtFixation,jsons/v1_VE250_randls_37_rotated.json,http://54.235.29.9/FacialAge/BNav_EC2/DepthDuration/v2_depth_duration_MTurk/v2_DepthDuration_HTML.html#41,41,1366,768,1366,768,8-20-2022,11-3-49,84,depth_duration_stimuli/001806_2014-06-26_20-50-20_260595134347_rgbf000091-resize_1/001806_2014-06-26_20-50-20_260595134347_rgbf000091-resize_1-target.png,250,2.7305,3.0,1714,244,feet,jsons/v1_VE250_randls_37_rotated.json,490058,1108099,49,Man
84,910402,DepthScenes,duration_manipulation_targetAtFixation,jsons/v1_VE250_randls_37_rotated.json,http://54.235.29.9/FacialAge/BNav_EC2/DepthDuration/v2_depth_duration_MTurk/v2_DepthDuration_HTML.html#41,41,1366,768,1366,768,8-20-2022,11-3-49,85,depth_duration_stimuli/001100_2014-06-15_17-46-26_260595134347_rgbf000225-resize_2/001100_2014-06-15_17-46-26_260595134347_rgbf000225-resize_2-target.png,250,2.24,1.0,2126,239,feet,jsons/v1_VE250_randls_37_rotated.json,490058,1108099,49,Man
85,910402,DepthScenes,duration_manipulation_targetAtFixation,jsons/v1_VE250_randls_37_rotated.json,http://54.235.29.9/FacialAge/BNav_EC2/DepthDuration/v2_depth_duration_MTurk/v2_DepthDuration_HTML.html#41,41,1366,768,1366,768,8-20-2022,11-3-49,86,depth_duration_stimuli/002784_2014-06-22_19-26-30_094959634447_rgbf000083-resize_3/002784_2014-06-22_19-26-30_094959634447_rgbf000083-resize_3-target.png,250,1.8046666666667,3.0,1997,257,feet,jsons/v1_VE250_randls_37_rotated.json,490058,1108099,49,Man
86,910402,DepthScenes,duration_manipulation_targetAtFixation,jsons/v1_VE250_randls_37_rotated.json,http://54.235.29.9/FacialAge/BNav_EC2/DepthDuration/v2_depth_duration_MTurk/v2_DepthDuration_HTML.html#41,41,1366,768,1366,768,8-20-2022,11-3-49,87,depth_duration_stimuli/003587_2014-05-23_16-48-02_094959634447_rgbf002384-resize_2/003587_2014-05-23_16-48-02_094959634447_rgbf002384-resize_2-target.png,250,1.357,1.5,3754,249,feet,jsons/v1_VE250_randls_37_rotated.json,490058,1108099,49,Man
87,910402,DepthScenes,duration_manipulation_targetAtFixation,jsons/v1_VE250_randls_37_rotated.json,http://54.235.29.9/FacialAge/BNav_EC2/DepthDuration/v2_depth_duration_MTurk/v2_DepthDuration_HTML.html#41,41,1366,768,1366,768,8-20-2022,11-3-49,88,depth_duration_stimuli/001167_2014-06-17_15-38-07_260595134347_rgbf000108-resize_0/001167_2014-06-17_15-38-07_260595134347_rgbf000108-resize_0-target.png,250,1.8505,5.0,2895,251,feet,jsons/v1_VE250_randls_37_rotated.json,490058,1108099,49,Man
88,910402,DepthScenes,duration_manipulation_targetAtFixation,jsons/v1_VE250_randls_37_rotated.json,http://54.235.29.9/FacialAge/BNav_EC2/DepthDuration/v2_depth_duration_MTurk/v2_DepthDuration_HTML.html#41,41,1366,768,1366,768,8-20-2022,11-3-49,89,depth_duration_stimuli/000502_2014-06-08_23-02-32_260595134347_rgbf000063-resize_4/000502_2014-06-08_23-02-32_260595134347_rgbf000063-resize_4-target.png,250,2.431,2.0,2246,249,feet,jsons/v1_VE250_randls_37_rotated.json,490058,1108099,49,Man
89,910402,DepthScenes,duration_manipulation_targetAtFixation,jsons/v1_VE250_randls_37_rotated.json,http://54.235.29.9/FacialAge/BNav_EC2/DepthDuration/v2_depth_duration_MTurk/v2_DepthDuration_HTML.html#41,41,1366,768,1366,768,8-20-2022,11-3-49,90,depth_duration_stimuli/001199_2014-06-17_16-03-48_260595134347_rgbf000077-resize_0/001199_2014-06-17_16-03-48_260595134347_rgbf000077-resize_0-target.png,250,3.4375,4.5,3504,250,feet,jsons/v1_VE250_randls_37_rotated.json,490058,1108099,49,Man
90,910402,DepthScenes,duration_manipulation_targetAtFixation,jsons/v1_VE250_randls_37_rotated.json,http://54.235.29.9/FacialAge/BNav_EC2/DepthDuration/v2_depth_duration_MTurk/v2_DepthDuration_HTML.html#41,41,1366,768,1366,768,8-20-2022,11-3-49,91,depth_duration_stimuli/001815_2014-06-26_20-52-55_260595134347_rgbf000020-resize_0/001815_2014-06-26_20-52-55_260595134347_rgbf000020-resize_0-target.png,250,3.3865,6.0,2827,251,feet,jsons/v1_VE250_randls_37_rotated.json,490058,1108099,49,Man
91,910402,DepthScenes,duration_manipulation_targetAtFixation,jsons/v1_VE250_randls_37_rotated.json,http://54.235.29.9/FacialAge/BNav_EC2/DepthDuration/v2_depth_duration_MTurk/v2_DepthDuration_HTML.html#41,41,1366,768,1366,768,8-20-2022,11-3-49,92,depth_duration_stimuli/001808_2014-06-26_20-50-58_260595134347_rgbf000029-resize_1/001808_2014-06-26_20-50-58_260595134347_rgbf000029-resize_1-target.png,250,4.249,5.0,2110,247,feet,jsons/v1_VE250_randls_37_rotated.json,490058,1108099,49,Man
92,910402,DepthScenes,duration_manipulation_targetAtFixation,jsons/v1_VE250_randls_37_rotated.json,http://54.235.29.9/FacialAge/BNav_EC2/DepthDuration/v2_depth_duration_MTurk/v2_DepthDuration_HTML.html#41,41,1366,768,1366,768,8-20-2022,11-3-49,93,depth_duration_stimuli/000734_2014-06-08_17-39-11_260595134347_rgbf000128-resize_2/000734_2014-06-08_17-39-11_260595134347_rgbf000128-resize_2-target.png,250,4.098,6.0,1859,249,feet,jsons/v1_VE250_randls_37_rotated.json,490058,1108099,49,Man
93,910402,DepthScenes,duration_manipulation_targetAtFixation,jsons/v1_VE250_randls_37_rotated.json,http://54.235.29.9/FacialAge/BNav_EC2/DepthDuration/v2_depth_duration_MTurk/v2_DepthDuration_HTML.html#41,41,1366,768,1366,768,8-20-2022,11-3-49,94,depth_duration_stimuli/000739_2014-06-08_18-45-58_260595134347_rgbf000068-resize_1/000739_2014-06-08_18-45-58_260595134347_rgbf000068-resize_1-target.png,250,3.534,6.0,1923,248,feet,jsons/v1_VE250_randls_37_rotated.json,490058,1108099,49,Man
94,910402,DepthScenes,duration_manipulation_targetAtFixation,jsons/v1_VE250_randls_37_rotated.json,http://54.235.29.9/FacialAge/BNav_EC2/DepthDuration/v2_depth_duration_MTurk/v2_DepthDuration_HTML.html#41,41,1366,768,1366,768,8-20-2022,11-3-49,95,depth_duration_stimuli/000677_2014-06-08_23-10-32_260595134347_rgbf000158-resize_6/000677_2014-06-08_23-10-32_260595134347_rgbf000158-resize_6-target.png,250,3.556,5.5,3164,251,feet,jsons/v1_VE250_randls_37_rotated.json,490058,1108099,49,Man
95,910402,DepthScenes,duration_manipulation_targetAtFixation,jsons/v1_VE250_randls_37_rotated.json,http://54.235.29.9/FacialAge/BNav_EC2/DepthDuration/v2_depth_duration_MTurk/v2_DepthDuration_HTML.html#41,41,1366,768,1366,768,8-20-2022,11-3-49,96,depth_duration_stimuli/001029_2014-06-08_13-17-57_260595134347_rgbf000065-resize_1/001029_2014-06-08_13-17-57_260595134347_rgbf000065-resize_1-target.png,250,3.0835,4.5,2216,249,feet,jsons/v1_VE250_randls_37_rotated.json,490058,1108099,49,Man
96,910402,DepthScenes,duration_manipulation_targetAtFixation,jsons/v1_VE250_randls_37_rotated.json,http://54.235.29.9/FacialAge/BNav_EC2/DepthDuration/v2_depth_duration_MTurk/v2_DepthDuration_HTML.html#41,41,1366,768,1366,768,8-20-2022,11-3-49,97,depth_duration_stimuli/002323_2014-06-28_20-01-54_260595134347_rgbf000051-resize_4/002323_2014-06-28_20-01-54_260595134347_rgbf000051-resize_4-target.png,250,3.7310000000000003,7.0,1572,237,feet,jsons/v1_VE250_randls_37_rotated.json,490058,1108099,49,Man
97,910402,DepthScenes,duration_manipulation_targetAtFixation,jsons/v1_VE250_randls_37_rotated.json,http://54.235.29.9/FacialAge/BNav_EC2/DepthDuration/v2_depth_duration_MTurk/v2_DepthDuration_HTML.html#41,41,1366,768,1366,768,8-20-2022,11-3-49,98,depth_duration_stimuli/000917_2014-06-09_22-45-29_260595134347_rgbf000149-resize_3/000917_2014-06-09_22-45-29_260595134347_rgbf000149-resize_3-target.png,250,4.1865,5.0,1626,252,feet,jsons/v1_VE250_randls_37_rotated.json,490058,1108099,49,Man
98,910402,DepthScenes,duration_manipulation_targetAtFixation,jsons/v1_VE250_randls_37_rotated.json,http://54.235.29.9/FacialAge/BNav_EC2/DepthDuration/v2_depth_duration_MTurk/v2_DepthDuration_HTML.html#41,41,1366,768,1366,768,8-20-2022,11-3-49,99,depth_duration_stimuli/001222_2014-06-17_16-24-06_260595134347_rgbf000073-resize_0/001222_2014-06-17_16-24-06_260595134347_rgbf000073-resize-original.jpg,250,1.4385,0.0,1619,249,feet,jsons/v1_VE250_randls_37_rotated.json,490058,1108099,49,Man
99,910402,DepthScenes,duration_manipulation_targetAtFixation,jsons/v1_VE250_randls_37_rotated.json,http://54.235.29.9/FacialAge/BNav_EC2/DepthDuration/v2_depth_duration_MTurk/v2_DepthDuration_HTML.html#41,41,1366,768,1366,768,8-20-2022,11-3-49,100,depth_duration_stimuli/001650_2014-06-20_12-09-00_260595134347_rgbf000087-resize_3/001650_2014-06-20_12-09-00_260595134347_rgbf000087-resize_3-target.png,250,1.9505,0.5,2576,227,feet,jsons/v1_VE250_randls_37_rotated.json,490058,1108099,49,Man
100,910402,DepthScenes,duration_manipulation_targetAtFixation,jsons/v1_VE250_randls_37_rotated.json,http://54.235.29.9/FacialAge/BNav_EC2/DepthDuration/v2_depth_duration_MTurk/v2_DepthDuration_HTML.html#41,41,1366,768,1366,768,8-20-2022,11-3-49,101,depth_duration_stimuli/000682_2014-06-08_23-14-58_260595134347_rgbf000041-resize_5/000682_2014-06-08_23-14-58_260595134347_rgbf000041-resize_5-target.png,250,2.7239999999999998,3.0,1634,250,feet,jsons/v1_VE250_randls_37_rotated.json,490058,1108099,49,Man
101,910402,DepthScenes,duration_manipulation_targetAtFixation,jsons/v1_VE250_randls_37_rotated.json,http://54.235.29.9/FacialAge/BNav_EC2/DepthDuration/v2_depth_duration_MTurk/v2_DepthDuration_HTML.html#41,41,1366,768,1366,768,8-20-2022,11-3-49,102,depth_duration_stimuli/001392_2014-06-19_16-07-59_260595134347_rgbf000046-resize_1/001392_2014-06-19_16-07-59_260595134347_rgbf000046-resize_1-target.png,250,4.135,4.0,1646,235,feet,jsons/v1_VE250_randls_37_rotated.json,490058,1108099,49,Man
102,910402,DepthScenes,duration_manipulation_targetAtFixation,jsons/v1_VE250_randls_37_rotated.json,http://54.235.29.9/FacialAge/BNav_EC2/DepthDuration/v2_depth_duration_MTurk/v2_DepthDuration_HTML.html#41,41,1366,768,1366,768,8-20-2022,11-3-49,103,depth_duration_stimuli/001570_2014-06-20_17-21-09_260595134347_rgbf000135-resize_4/001570_2014-06-20_17-21-09_260595134347_rgbf000135-resize_4-target.png,250,4.467,5.0,1567,250,feet,jsons/v1_VE250_randls_37_rotated.json,490058,1108099,49,Man
103,910402,DepthScenes,duration_manipulation_targetAtFixation,jsons/v1_VE250_randls_37_rotated.json,http://54.235.29.9/FacialAge/BNav_EC2/DepthDuration/v2_depth_duration_MTurk/v2_DepthDuration_HTML.html#41,41,1366,768,1366,768,8-20-2022,11-3-49,104,depth_duration_stimuli/003338_2014-05-20_11-01-23_094959634447_rgbf000051-resize_6/003338_2014-05-20_11-01-23_094959634447_rgbf000051-resize_6-target.png,250,1.693,1.5,2709,237,feet,jsons/v1_VE250_randls_37_rotated.json,490058,1108099,49,Man
104,910402,DepthScenes,duration_manipulation_targetAtFixation,jsons/v1_VE250_randls_37_rotated.json,http://54.235.29.9/FacialAge/BNav_EC2/DepthDuration/v2_depth_duration_MTurk/v2_DepthDuration_HTML.html#41,41,1366,768,1366,768,8-20-2022,11-3-49,105,depth_duration_stimuli/002509_2014-06-24_13-19-22_094959634447_rgbf000077-resize_0/002509_2014-06-24_13-19-22_094959634447_rgbf000077-resize_0-target.png,250,1.3065,0.5,3444,251,feet,jsons/v1_VE250_randls_37_rotated.json,490058,1108099,49,Man
105,910402,DepthScenes,duration_manipulation_targetAtFixation,jsons/v1_VE250_randls_37_rotated.json,http://54.235.29.9/FacialAge/BNav_EC2/DepthDuration/v2_depth_duration_MTurk/v2_DepthDuration_HTML.html#41,41,1366,768,1366,768,8-20-2022,11-3-49,106,depth_duration_stimuli/000409_2014-06-04_19-23-33_260595134347_rgbf000067-resize_0/000409_2014-06-04_19-23-33_260595134347_rgbf000067-resize_0-target.png,250,3.7335,3.0,2736,252,feet,jsons/v1_VE250_randls_37_rotated.json,490058,1108099,49,Man
106,910402,DepthScenes,duration_manipulation_targetAtFixation,jsons/v1_VE250_randls_37_rotated.json,http://54.235.29.9/FacialAge/BNav_EC2/DepthDuration/v2_depth_duration_MTurk/v2_DepthDuration_HTML.html#41,41,1366,768,1366,768,8-20-2022,11-3-49,107,depth_duration_stimuli/002663_2014-06-13_15-50-26_094959634447_rgbf000075-resize_1/002663_2014-06-13_15-50-26_094959634447_rgbf000075-resize_1-target.png,250,4.7495,4.0,3436,250,feet,jsons/v1_VE250_randls_37_rotated.json,490058,1108099,49,Man
107,910402,DepthScenes,duration_manipulation_targetAtFixation,jsons/v1_VE250_randls_37_rotated.json,http://54.235.29.9/FacialAge/BNav_EC2/DepthDuration/v2_depth_duration_MTurk/v2_DepthDuration_HTML.html#41,41,1366,768,1366,768,8-20-2022,11-3-49,108,depth_duration_stimuli/001516_2014-06-20_16-25-09_260595134347_rgbf000076-resize_2/001516_2014-06-20_16-25-09_260595134347_rgbf000076-resize_2-target.png,250,1.7445,4.0,2650,262,feet,jsons/v1_VE250_randls_37_rotated.json,490058,1108099,49,Man
108,910402,DepthScenes,duration_manipulation_targetAtFixation,jsons/v1_VE250_randls_37_rotated.json,http://54.235.29.9/FacialAge/BNav_EC2/DepthDuration/v2_depth_duration_MTurk/v2_DepthDuration_HTML.html#41,41,1366,768,1366,768,8-20-2022,11-3-49,109,depth_duration_stimuli/002118_2014-06-25_20-32-08_260595134347_rgbf000078-resize_1/002118_2014-06-25_20-32-08_260595134347_rgbf000078-resize_1-target.png,250,2.6460000000000004,3.5,3578,252,feet,jsons/v1_VE250_randls_37_rotated.json,490058,1108099,49,Man
109,910402,DepthScenes,duration_manipulation_targetAtFixation,jsons/v1_VE250_randls_37_rotated.json,http://54.235.29.9/FacialAge/BNav_EC2/DepthDuration/v2_depth_duration_MTurk/v2_DepthDuration_HTML.html#41,41,1366,768,1366,768,8-20-2022,11-3-49,110,depth_duration_stimuli/000483_2014-06-09_20-41-45_260595134347_rgbf000116-resize_4/000483_2014-06-09_20-41-45_260595134347_rgbf000116-resize_4-target.png,250,1.337,1.0,4666,247,feet,jsons/v1_VE250_randls_37_rotated.json,490058,1108099,49,Man
110,910402,DepthScenes,duration_manipulation_targetAtFixation,jsons/v1_VE250_randls_37_rotated.json,http://54.235.29.9/FacialAge/BNav_EC2/DepthDuration/v2_depth_duration_MTurk/v2_DepthDuration_HTML.html#41,41,1366,768,1366,768,8-20-2022,11-3-49,111,depth_duration_stimuli/000469_2014-06-09_19-42-10_260595134347_rgbf000081-resize_1/000469_2014-06-09_19-42-10_260595134347_rgbf000081-resize_1-target.png,250,1.652,1.5,4270,252,feet,jsons/v1_VE250_randls_37_rotated.json,490058,1108099,49,Man
111,910402,DepthScenes,duration_manipulation_targetAtFixation,jsons/v1_VE250_randls_37_rotated.json,http://54.235.29.9/FacialAge/BNav_EC2/DepthDuration/v2_depth_duration_MTurk/v2_DepthDuration_HTML.html#41,41,1366,768,1366,768,8-20-2022,11-3-49,112,depth_duration_stimuli/002340_2014-06-28_20-05-46_260595134347_rgbf000113-resize_0/002340_2014-06-28_20-05-46_260595134347_rgbf000113-resize_0-target.png,250,2.4735,5.0,3541,238,feet,jsons/v1_VE250_randls_37_rotated.json,490058,1108099,49,Man
112,910402,DepthScenes,duration_manipulation_targetAtFixation,jsons/v1_VE250_randls_37_rotated.json,http://54.235.29.9/FacialAge/BNav_EC2/DepthDuration/v2_depth_duration_MTurk/v2_DepthDuration_HTML.html#41,41,1366,768,1366,768,8-20-2022,11-3-49,113,depth_duration_stimuli/001016_2014-06-09_16-16-10_260595134347_rgbf000112-resize_5/001016_2014-06-09_16-16-10_260595134347_rgbf000112-resize_5-target.png,250,1.6565,4.0,3628,249,feet,jsons/v1_VE250_randls_37_rotated.json,490058,1108099,49,Man
113,910402,DepthScenes,duration_manipulation_targetAtFixation,jsons/v1_VE250_randls_37_rotated.json,http://54.235.29.9/FacialAge/BNav_EC2/DepthDuration/v2_depth_duration_MTurk/v2_DepthDuration_HTML.html#41,41,1366,768,1366,768,8-20-2022,11-3-49,114,depth_duration_stimuli/002750_2014-06-22_19-08-03_094959634447_rgbf000094-resize_4/002750_2014-06-22_19-08-03_094959634447_rgbf000094-resize_4-target.png,250,2.354,4.0,2285,247,feet,jsons/v1_VE250_randls_37_rotated.json,490058,1108099,49,Man
114,910402,DepthScenes,duration_manipulation_targetAtFixation,jsons/v1_VE250_randls_37_rotated.json,http://54.235.29.9/FacialAge/BNav_EC2/DepthDuration/v2_depth_duration_MTurk/v2_DepthDuration_HTML.html#41,41,1366,768,1366,768,8-20-2022,11-3-49,115,depth_duration_stimuli/002549_2014-06-24_13-41-39_094959634447_rgbf000022-resize_3/002549_2014-06-24_13-41-39_094959634447_rgbf000022-resize_3-target.png,250,1.476,2.0,2123,240,feet,jsons/v1_VE250_randls_37_rotated.json,490058,1108099,49,Man
115,910402,DepthScenes,duration_manipulation_targetAtFixation,jsons/v1_VE250_randls_37_rotated.json,http://54.235.29.9/FacialAge/BNav_EC2/DepthDuration/v2_depth_duration_MTurk/v2_DepthDuration_HTML.html#41,41,1366,768,1366,768,8-20-2022,11-3-49,116,depth_duration_stimuli/000866_2014-06-09_20-45-42_260595134347_rgbf000139-resize_1/000866_2014-06-09_20-45-42_260595134347_rgbf000139-resize_1-target.png,250,3.2155,5.0,2095,252,feet,jsons/v1_VE250_randls_37_rotated.json,490058,1108099,49,Man
116,910402,DepthScenes,duration_manipulation_targetAtFixation,jsons/v1_VE250_randls_37_rotated.json,http://54.235.29.9/FacialAge/BNav_EC2/DepthDuration/v2_depth_duration_MTurk/v2_DepthDuration_HTML.html#41,41,1366,768,1366,768,8-20-2022,11-3-49,117,depth_duration_stimuli/002989_2014-06-15_12-25-03_094959634447_rgbf000150-resize_3/002989_2014-06-15_12-25-03_094959634447_rgbf000150-resize_3-target.png,250,4.1975,8.0,2081,250,feet,jsons/v1_VE250_randls_37_rotated.json,490058,1108099,49,Man
117,910402,DepthScenes,duration_manipulation_targetAtFixation,jsons/v1_VE250_randls_37_rotated.json,http://54.235.29.9/FacialAge/BNav_EC2/DepthDuration/v2_depth_duration_MTurk/v2_DepthDuration_HTML.html#41,41,1366,768,1366,768,8-20-2022,11-3-49,118,depth_duration_stimuli/001571_2014-06-20_17-21-32_260595134347_rgbf000089-resize_1/001571_2014-06-20_17-21-32_260595134347_rgbf000089-resize_1-target.png,250,1.86,4.0,2328,250,feet,jsons/v1_VE250_randls_37_rotated.json,490058,1108099,49,Man
118,910402,DepthScenes,duration_manipulation_targetAtFixation,jsons/v1_VE250_randls_37_rotated.json,http://54.235.29.9/FacialAge/BNav_EC2/DepthDuration/v2_depth_duration_MTurk/v2_DepthDuration_HTML.html#41,41,1366,768,1366,768,8-20-2022,11-3-49,119,depth_duration_stimuli/002272_2014-06-28_18-53-56_260595134347_rgbf000067-resize_2/002272_2014-06-28_18-53-56_260595134347_rgbf000067-resize_2-target.png,250,1.138,3.0,2340,248,feet,jsons/v1_VE250_randls_37_rotated.json,490058,1108099,49,Man
119,910402,DepthScenes,duration_manipulation_targetAtFixation,jsons/v1_VE250_randls_37_rotated.json,http://54.235.29.9/FacialAge/BNav_EC2/DepthDuration/v2_depth_duration_MTurk/v2_DepthDuration_HTML.html#41,41,1366,768,1366,768,8-20-2022,11-3-49,120,depth_duration_stimuli/000787_2014-06-08_22-33-53_260595134347_rgbf000175-resize_1/000787_2014-06-08_22-33-53_260595134347_rgbf000175-resize-original.jpg,250,4.784,0.0,2268,247,feet,jsons/v1_VE250_randls_37_rotated.json,490058,1108099,49,Man
120,910402,DepthScenes,duration_manipulation_targetAtFixation,jsons/v1_VE250_randls_37_rotated.json,http://54.235.29.9/FacialAge/BNav_EC2/DepthDuration/v2_depth_duration_MTurk/v2_DepthDuration_HTML.html#41,41,1366,768,1366,768,8-20-2022,11-3-49,121,depth_duration_stimuli/002875_2014-06-01_15-19-00_094959634447_rgbf000151-resize_1/002875_2014-06-01_15-19-00_094959634447_rgbf000151-resize_1-target.png,250,1.9675,3.0,2839,251,feet,jsons/v1_VE250_randls_37_rotated.json,490058,1108099,49,Man
121,910402,DepthScenes,duration_manipulation_targetAtFixation,jsons/v1_VE250_randls_37_rotated.json,http://54.235.29.9/FacialAge/BNav_EC2/DepthDuration/v2_depth_duration_MTurk/v2_DepthDuration_HTML.html#41,41,1366,768,1366,768,8-20-2022,11-3-49,122,depth_duration_stimuli/001011_2014-06-08_23-18-54_260595134347_rgbf000044-resize_4/001011_2014-06-08_23-18-54_260595134347_rgbf000044-resize_4-target.png,250,2.4730000000000003,5.0,2096,251,feet,jsons/v1_VE250_randls_37_rotated.json,490058,1108099,49,Man
122,910402,DepthScenes,duration_manipulation_targetAtFixation,jsons/v1_VE250_randls_37_rotated.json,http://54.235.29.9/FacialAge/BNav_EC2/DepthDuration/v2_depth_duration_MTurk/v2_DepthDuration_HTML.html#41,41,1366,768,1366,768,8-20-2022,11-3-49,123,depth_duration_stimuli/002103_2014-06-25_20-00-40_260595134347_rgbf000049-resize_0/002103_2014-06-25_20-00-40_260595134347_rgbf000049-resize_0-target.png,250,4.105,5.0,2152,253,feet,jsons/v1_VE250_randls_37_rotated.json,490058,1108099,49,Man
123,910402,DepthScenes,duration_manipulation_targetAtFixation,jsons/v1_VE250_randls_37_rotated.json,http://54.235.29.9/FacialAge/BNav_EC2/DepthDuration/v2_depth_duration_MTurk/v2_DepthDuration_HTML.html#41,41,1366,768,1366,768,8-20-2022,11-3-49,124,depth_duration_stimuli/002039_2014-06-24_20-22-38_260595134347_rgbf000084-resize_1/002039_2014-06-24_20-22-38_260595134347_rgbf000084-resize_1-target.png,250,4.408,7.0,2302,238,feet,jsons/v1_VE250_randls_37_rotated.json,490058,1108099,49,Man
124,910402,DepthScenes,duration_manipulation_targetAtFixation,jsons/v1_VE250_randls_37_rotated.json,http://54.235.29.9/FacialAge/BNav_EC2/DepthDuration/v2_depth_duration_MTurk/v2_DepthDuration_HTML.html#41,41,1366,768,1366,768,8-20-2022,11-3-49,125,depth_duration_stimuli/001214_2014-06-17_16-13-55_260595134347_rgbf000111-resize_0/001214_2014-06-17_16-13-55_260595134347_rgbf000111-resize_0-target.png,250,2.6505,2.5,2454,251,feet,jsons/v1_VE250_randls_37_rotated.json,490058,1108099,49,Man
125,910402,DepthScenes,duration_manipulation_targetAtFixation,jsons/v1_VE250_randls_37_rotated.json,http://54.235.29.9/FacialAge/BNav_EC2/DepthDuration/v2_depth_duration_MTurk/v2_DepthDuration_HTML.html#41,41,1366,768,1366,768,8-20-2022,11-3-49,126,depth_duration_stimuli/000810_2014-06-08_17-20-01_260595134347_rgbf000105-resize_0/000810_2014-06-08_17-20-01_260595134347_rgbf000105-resize_0-target.png,250,1.4865,3.0,2262,247,feet,jsons/v1_VE250_randls_37_rotated.json,490058,1108099,49,Man
126,910402,DepthScenes,duration_manipulation_targetAtFixation,jsons/v1_VE250_randls_37_rotated.json,http://54.235.29.9/FacialAge/BNav_EC2/DepthDuration/v2_depth_duration_MTurk/v2_DepthDuration_HTML.html#41,41,1366,768,1366,768,8-20-2022,11-3-49,127,depth_duration_stimuli/002995_2014-06-15_12-31-26_094959634447_rgbf000150-resize_1/002995_2014-06-15_12-31-26_094959634447_rgbf000150-resize_1-target.png,250,3.8360000000000003,6.0,2272,256,feet,jsons/v1_VE250_randls_37_rotated.json,490058,1108099,49,Man
127,910402,DepthScenes,duration_manipulation_targetAtFixation,jsons/v1_VE250_randls_37_rotated.json,http://54.235.29.9/FacialAge/BNav_EC2/DepthDuration/v2_depth_duration_MTurk/v2_DepthDuration_HTML.html#41,41,1366,768,1366,768,8-20-2022,11-3-49,128,depth_duration_stimuli/002748_2014-06-22_19-07-22_094959634447_rgbf000078-resize_1/002748_2014-06-22_19-07-22_094959634447_rgbf000078-resize_1-target.png,250,4.6705,8.0,2464,238,feet,jsons/v1_VE250_randls_37_rotated.json,490058,1108099,49,Man
128,910402,DepthScenes,duration_manipulation_targetAtFixation,jsons/v1_VE250_randls_37_rotated.json,http://54.235.29.9/FacialAge/BNav_EC2/DepthDuration/v2_depth_duration_MTurk/v2_DepthDuration_HTML.html#41,41,1366,768,1366,768,8-20-2022,11-3-49,129,depth_duration_stimuli/000691_2014-06-08_13-08-50_260595134347_rgbf000132-resize_3/000691_2014-06-08_13-08-50_260595134347_rgbf000132-resize_3-target.png,250,4.1530000000000005,6.0,2539,252,feet,jsons/v1_VE250_randls_37_rotated.json,490058,1108099,49,Man
129,910402,DepthScenes,duration_manipulation_targetAtFixation,jsons/v1_VE250_randls_37_rotated.json,http://54.235.29.9/FacialAge/BNav_EC2/DepthDuration/v2_depth_duration_MTurk/v2_DepthDuration_HTML.html#41,41,1366,768,1366,768,8-20-2022,11-3-49,130,depth_duration_stimuli/002213_2014-06-28_18-37-58_260595134347_rgbf000055-resize_1/002213_2014-06-28_18-37-58_260595134347_rgbf000055-resize_1-target.png,250,3.62,6.0,2378,251,feet,jsons/v1_VE250_randls_37_rotated.json,490058,1108099,49,Man
130,910402,DepthScenes,duration_manipulation_targetAtFixation,jsons/v1_VE250_randls_37_rotated.json,http://54.235.29.9/FacialAge/BNav_EC2/DepthDuration/v2_depth_duration_MTurk/v2_DepthDuration_HTML.html#41,41,1366,768,1366,768,8-20-2022,11-3-49,131,depth_duration_stimuli/002639_2014-06-24_14-51-37_094959634447_rgbf000074-resize_4/002639_2014-06-24_14-51-37_094959634447_rgbf000074-resize_4-target.png,250,4.0375,0.0,3565,248,feet,jsons/v1_VE250_randls_37_rotated.json,490058,1108099,49,Man
131,910402,DepthScenes,duration_manipulation_targetAtFixation,jsons/v1_VE250_randls_37_rotated.json,http://54.235.29.9/FacialAge/BNav_EC2/DepthDuration/v2_depth_duration_MTurk/v2_DepthDuration_HTML.html#41,41,1366,768,1366,768,8-20-2022,11-3-49,132,depth_duration_stimuli/003292_2014-05-14_21-53-49_094959634447_rgbf000100-resize_2/003292_2014-05-14_21-53-49_094959634447_rgbf000100-resize_2-target.png,250,3.4815,5.0,2137,252,feet,jsons/v1_VE250_randls_37_rotated.json,490058,1108099,49,Man
132,910402,DepthScenes,duration_manipulation_targetAtFixation,jsons/v1_VE250_randls_37_rotated.json,http://54.235.29.9/FacialAge/BNav_EC2/DepthDuration/v2_depth_duration_MTurk/v2_DepthDuration_HTML.html#41,41,1366,768,1366,768,8-20-2022,11-3-49,133,depth_duration_stimuli/003079_2014-06-15_15-18-20_094959634447_rgbf000152-resize_8/003079_2014-06-15_15-18-20_094959634447_rgbf000152-resize_8-target.png,250,2.8775,6.0,2985,251,feet,jsons/v1_VE250_randls_37_rotated.json,490058,1108099,49,Man
133,910402,DepthScenes,duration_manipulation_targetAtFixation,jsons/v1_VE250_randls_37_rotated.json,http://54.235.29.9/FacialAge/BNav_EC2/DepthDuration/v2_depth_duration_MTurk/v2_DepthDuration_HTML.html#41,41,1366,768,1366,768,8-20-2022,11-3-49,134,depth_duration_stimuli/000506_2014-06-08_23-21-00_260595134347_rgbf000070-resize_7/000506_2014-06-08_23-21-00_260595134347_rgbf000070-resize_7-target.png,250,4.0585,5.0,2269,251,feet,jsons/v1_VE250_randls_37_rotated.json,490058,1108099,49,Man
134,910402,DepthScenes,duration_manipulation_targetAtFixation,jsons/v1_VE250_randls_37_rotated.json,http://54.235.29.9/FacialAge/BNav_EC2/DepthDuration/v2_depth_duration_MTurk/v2_DepthDuration_HTML.html#41,41,1366,768,1366,768,8-20-2022,11-3-49,135,depth_duration_stimuli/000375_2014-06-08_11-17-29_260595134347_rgbf000133-resize_2/000375_2014-06-08_11-17-29_260595134347_rgbf000133-resize-original.jpg,250,4.718,0.0,1823,253,feet,jsons/v1_VE250_randls_37_rotated.json,490058,1108099,49,Man
135,910402,DepthScenes,duration_manipulation_targetAtFixation,jsons/v1_VE250_randls_37_rotated.json,http://54.235.29.9/FacialAge/BNav_EC2/DepthDuration/v2_depth_duration_MTurk/v2_DepthDuration_HTML.html#41,41,1366,768,1366,768,8-20-2022,11-3-49,136,depth_duration_stimuli/000854_2014-06-09_19-43-13_260595134347_rgbf000066-resize_0/000854_2014-06-09_19-43-13_260595134347_rgbf000066-resize_0-target.png,250,3.068,3.0,2352,251,feet,jsons/v1_VE250_randls_37_rotated.json,490058,1108099,49,Man
136,910402,DepthScenes,duration_manipulation_targetAtFixation,jsons/v1_VE250_randls_37_rotated.json,http://54.235.29.9/FacialAge/BNav_EC2/DepthDuration/v2_depth_duration_MTurk/v2_DepthDuration_HTML.html#41,41,1366,768,1366,768,8-20-2022,11-3-49,137,depth_duration_stimuli/000758_2014-06-08_22-05-08_260595134347_rgbf000085-resize_0/000758_2014-06-08_22-05-08_260595134347_rgbf000085-resize_0-target.png,250,3.3810000000000002,6.0,2108,233,feet,jsons/v1_VE250_randls_37_rotated.json,490058,1108099,49,Man
137,910402,DepthScenes,duration_manipulation_targetAtFixation,jsons/v1_VE250_randls_37_rotated.json,http://54.235.29.9/FacialAge/BNav_EC2/DepthDuration/v2_depth_duration_MTurk/v2_DepthDuration_HTML.html#41,41,1366,768,1366,768,8-20-2022,11-3-49,138,depth_duration_stimuli/001447_2014-06-19_17-00-32_260595134347_rgbf000082-resize_5/001447_2014-06-19_17-00-32_260595134347_rgbf000082-resize_5-target.png,250,4.13775,5.0,2374,251,feet,jsons/v1_VE250_randls_37_rotated.json,490058,1108099,49,Man
138,910402,DepthScenes,duration_manipulation_targetAtFixation,jsons/v1_VE250_randls_37_rotated.json,http://54.235.29.9/FacialAge/BNav_EC2/DepthDuration/v2_depth_duration_MTurk/v2_DepthDuration_HTML.html#41,41,1366,768,1366,768,8-20-2022,11-3-49,139,depth_duration_stimuli/000447_2014-06-08_16-15-46_260595134347_rgbf000130-resize_1/000447_2014-06-08_16-15-46_260595134347_rgbf000130-resize_1-target.png,250,4.479,7.0,2594,250,feet,jsons/v1_VE250_randls_37_rotated.json,490058,1108099,49,Man
139,910402,DepthScenes,duration_manipulation_targetAtFixation,jsons/v1_VE250_randls_37_rotated.json,http://54.235.29.9/FacialAge/BNav_EC2/DepthDuration/v2_depth_duration_MTurk/v2_DepthDuration_HTML.html#41,41,1366,768,1366,768,8-20-2022,11-3-49,140,depth_duration_stimuli/002414_2014-06-28_20-24-58_260595134347_rgbf000067-resize_4/002414_2014-06-28_20-24-58_260595134347_rgbf000067-resize_4-target.png,250,4.363,7.0,2462,249,feet,jsons/v1_VE250_randls_37_rotated.json,490058,1108099,49,Man
140,910402,DepthScenes,duration_manipulation_targetAtFixation,jsons/v1_VE250_randls_37_rotated.json,http://54.235.29.9/FacialAge/BNav_EC2/DepthDuration/v2_depth_duration_MTurk/v2_DepthDuration_HTML.html#41,41,1366,768,1366,768,8-20-2022,11-3-49,141,depth_duration_stimuli/000773_2014-06-08_22-24-54_260595134347_rgbf000093-resize_1/000773_2014-06-08_22-24-54_260595134347_rgbf000093-resize_1-target.png,250,4.973,7.0,2612,250,feet,jsons/v1_VE250_randls_37_rotated.json,490058,1108099,49,Man
141,910402,DepthScenes,duration_manipulation_targetAtFixation,jsons/v1_VE250_randls_37_rotated.json,http://54.235.29.9/FacialAge/BNav_EC2/DepthDuration/v2_depth_duration_MTurk/v2_DepthDuration_HTML.html#41,41,1366,768,1366,768,8-20-2022,11-3-49,142,depth_duration_stimuli/002660_2014-06-13_15-44-18_094959634447_rgbf001878-resize_2/002660_2014-06-13_15-44-18_094959634447_rgbf001878-resize_2-target.png,250,3.576,5.0,2046,253,feet,jsons/v1_VE250_randls_37_rotated.json,490058,1108099,49,Man
142,910402,DepthScenes,duration_manipulation_targetAtFixation,jsons/v1_VE250_randls_37_rotated.json,http://54.235.29.9/FacialAge/BNav_EC2/DepthDuration/v2_depth_duration_MTurk/v2_DepthDuration_HTML.html#41,41,1366,768,1366,768,8-20-2022,11-3-49,143,depth_duration_stimuli/002153_2014-06-25_21-27-18_260595134347_rgbf000038-resize_5/002153_2014-06-25_21-27-18_260595134347_rgbf000038-resize_5-target.png,250,2.505,3.0,2124,233,feet,jsons/v1_VE250_randls_37_rotated.json,490058,1108099,49,Man
143,910402,DepthScenes,duration_manipulation_targetAtFixation,jsons/v1_VE250_randls_37_rotated.json,http://54.235.29.9/FacialAge/BNav_EC2/DepthDuration/v2_depth_duration_MTurk/v2_DepthDuration_HTML.html#41,41,1366,768,1366,768,8-20-2022,11-3-49,144,depth_duration_stimuli/002949_2014-06-26_15-57-42_094959634447_rgbf000079-resize_1/002949_2014-06-26_15-57-42_094959634447_rgbf000079-resize_1-target.png,250,1.8915,2.5,3103,247,feet,jsons/v1_VE250_randls_37_rotated.json,490058,1108099,49,Man
144,910402,DepthScenes,duration_manipulation_targetAtFixation,jsons/v1_VE250_randls_37_rotated.json,http://54.235.29.9/FacialAge/BNav_EC2/DepthDuration/v2_depth_duration_MTurk/v2_DepthDuration_HTML.html#41,41,1366,768,1366,768,8-20-2022,11-3-49,145,depth_duration_stimuli/000522_2014-06-08_13-35-06_260595134347_rgbf000244-resize_1/000522_2014-06-08_13-35-06_260595134347_rgbf000244-resize_1-target.png,250,2.3715,0.5,3226,250,feet,jsons/v1_VE250_randls_37_rotated.json,490058,1108099,49,Man
145,910402,DepthScenes,duration_manipulation_targetAtFixation,jsons/v1_VE250_randls_37_rotated.json,http://54.235.29.9/FacialAge/BNav_EC2/DepthDuration/v2_depth_duration_MTurk/v2_DepthDuration_HTML.html#41,41,1366,768,1366,768,8-20-2022,11-3-49,146,depth_duration_stimuli/001828_2014-06-26_21-40-03_260595134347_rgbf000024-resize_0/001828_2014-06-26_21-40-03_260595134347_rgbf000024-resize_0-target.png,250,4.8260000000000005,5.0,2678,249,feet,jsons/v1_VE250_randls_37_rotated.json,490058,1108099,49,Man
146,910402,DepthScenes,duration_manipulation_targetAtFixation,jsons/v1_VE250_randls_37_rotated.json,http://54.235.29.9/FacialAge/BNav_EC2/DepthDuration/v2_depth_duration_MTurk/v2_DepthDuration_HTML.html#41,41,1366,768,1366,768,8-20-2022,11-3-49,147,depth_duration_stimuli/000009_2014-05-26_14-32-05_260595134347_rgbf000034-resize_3/000009_2014-05-26_14-32-05_260595134347_rgbf000034-resize_3-target.png,250,3.8715,0.0,2309,250,feet,jsons/v1_VE250_randls_37_rotated.json,490058,1108099,49,Man
147,910402,DepthScenes,duration_manipulation_targetAtFixation,jsons/v1_VE250_randls_37_rotated.json,http://54.235.29.9/FacialAge/BNav_EC2/DepthDuration/v2_depth_duration_MTurk/v2_DepthDuration_HTML.html#41,41,1366,768,1366,768,8-20-2022,11-3-49,148,depth_duration_stimuli/001032_2014-06-08_13-23-17_260595134347_rgbf000021-resize_3/001032_2014-06-08_13-23-17_260595134347_rgbf000021-resize_3-target.png,250,3.2725,2.5,2604,252,feet,jsons/v1_VE250_randls_37_rotated.json,490058,1108099,49,Man
148,910402,DepthScenes,duration_manipulation_targetAtFixation,jsons/v1_VE250_randls_37_rotated.json,http://54.235.29.9/FacialAge/BNav_EC2/DepthDuration/v2_depth_duration_MTurk/v2_DepthDuration_HTML.html#41,41,1366,768,1366,768,8-20-2022,11-3-49,149,depth_duration_stimuli/001059_2014-06-08_21-53-27_260595134347_rgbf000061-resize_4/001059_2014-06-08_21-53-27_260595134347_rgbf000061-resize_4-target.png,250,2.4185,2.5,3425,252,feet,jsons/v1_VE250_randls_37_rotated.json,490058,1108099,49,Man
149,910402,DepthScenes,duration_manipulation_targetAtFixation,jsons/v1_VE250_randls_37_rotated.json,http://54.235.29.9/FacialAge/BNav_EC2/DepthDuration/v2_depth_duration_MTurk/v2_DepthDuration_HTML.html#41,41,1366,768,1366,768,8-20-2022,11-3-49,150,depth_duration_stimuli/000742_2014-06-08_18-48-09_260595134347_rgbf000164-resize_4/000742_2014-06-08_18-48-09_260595134347_rgbf000164-resize_4-target.png,250,4.632,5.0,2438,255,feet,jsons/v1_VE250_randls_37_rotated.json,490058,1108099,49,Man
150,910402,DepthScenes,duration_manipulation_targetAtFixation,jsons/v1_VE250_randls_37_rotated.json,http://54.235.29.9/FacialAge/BNav_EC2/DepthDuration/v2_depth_duration_MTurk/v2_DepthDuration_HTML.html#41,41,1366,768,1366,768,8-20-2022,11-3-49,151,depth_duration_stimuli/001066_2014-06-08_22-03-20_260595134347_rgbf000066-resize_4/001066_2014-06-08_22-03-20_260595134347_rgbf000066-resize_4-target.png,250,4.2330000000000005,6.0,3622,239,feet,jsons/v1_VE250_randls_37_rotated.json,490058,1108099,49,Man
151,910402,DepthScenes,duration_manipulation_targetAtFixation,jsons/v1_VE250_randls_37_rotated.json,http://54.235.29.9/FacialAge/BNav_EC2/DepthDuration/v2_depth_duration_MTurk/v2_DepthDuration_HTML.html#41,41,1366,768,1366,768,8-20-2022,11-3-49,152,depth_duration_stimuli/000569_2014-06-09_22-51-47_260595134347_rgbf000141-resize_3/000569_2014-06-09_22-51-47_260595134347_rgbf000141-resize-original.jpg,250,4.512,0.0,2922,250,feet,jsons/v1_VE250_randls_37_rotated.json,490058,1108099,49,Man
152,910402,DepthScenes,duration_manipulation_targetAtFixation,jsons/v1_VE250_randls_37_rotated.json,http://54.235.29.9/FacialAge/BNav_EC2/DepthDuration/v2_depth_duration_MTurk/v2_DepthDuration_HTML.html#41,41,1366,768,1366,768,8-20-2022,11-3-49,153,depth_duration_stimuli/000709_2014-06-08_13-51-55_260595134347_rgbf000068-resize_3/000709_2014-06-08_13-51-55_260595134347_rgbf000068-resize_3-target.png,250,1.8030000000000002,3.0,2976,247,feet,jsons/v1_VE250_randls_37_rotated.json,490058,1108099,49,Man
153,910402,DepthScenes,duration_manipulation_targetAtFixation,jsons/v1_VE250_randls_37_rotated.json,http://54.235.29.9/FacialAge/BNav_EC2/DepthDuration/v2_depth_duration_MTurk/v2_DepthDuration_HTML.html#41,41,1366,768,1366,768,8-20-2022,11-3-49,154,depth_duration_stimuli/002057_2014-06-24_21-00-13_260595134347_rgbf000120-resize_1/002057_2014-06-24_21-00-13_260595134347_rgbf000120-resize_1-target.png,250,2.967,6.0,2918,252,feet,jsons/v1_VE250_randls_37_rotated.json,490058,1108099,49,Man
154,910402,DepthScenes,duration_manipulation_targetAtFixation,jsons/v1_VE250_randls_37_rotated.json,http://54.235.29.9/FacialAge/BNav_EC2/DepthDuration/v2_depth_duration_MTurk/v2_DepthDuration_HTML.html#41,41,1366,768,1366,768,8-20-2022,11-3-49,155,depth_duration_stimuli/003228_2014-05-14_13-42-35_094959634447_rgbf000101-resize_1/003228_2014-05-14_13-42-35_094959634447_rgbf000101-resize_1-target.png,250,1.9680000000000002,2.5,3356,250,feet,jsons/v1_VE250_randls_37_rotated.json,490058,1108099,49,Man
155,910402,DepthScenes,duration_manipulation_targetAtFixation,jsons/v1_VE250_randls_37_rotated.json,http://54.235.29.9/FacialAge/BNav_EC2/DepthDuration/v2_depth_duration_MTurk/v2_DepthDuration_HTML.html#41,41,1366,768,1366,768,8-20-2022,11-3-49,156,depth_duration_stimuli/002600_2014-06-24_14-27-04_094959634447_rgbf000074-resize_2/002600_2014-06-24_14-27-04_094959634447_rgbf000074-resize_2-target.png,250,2.7575,3.5,2729,251,feet,jsons/v1_VE250_randls_37_rotated.json,490058,1108099,49,Man
156,910402,DepthScenes,duration_manipulation_targetAtFixation,jsons/v1_VE250_randls_37_rotated.json,http://54.235.29.9/FacialAge/BNav_EC2/DepthDuration/v2_depth_duration_MTurk/v2_DepthDuration_HTML.html#41,41,1366,768,1366,768,8-20-2022,11-3-49,157,depth_duration_stimuli/002805_2014-06-22_19-54-03_094959634447_rgbf000079-resize_1/002805_2014-06-22_19-54-03_094959634447_rgbf000079-resize_1-target.png,250,3.1439999999999997,5.0,3071,252,feet,jsons/v1_VE250_randls_37_rotated.json,490058,1108099,49,Man
157,910402,DepthScenes,duration_manipulation_targetAtFixation,jsons/v1_VE250_randls_37_rotated.json,http://54.235.29.9/FacialAge/BNav_EC2/DepthDuration/v2_depth_duration_MTurk/v2_DepthDuration_HTML.html#41,41,1366,768,1366,768,8-20-2022,11-3-49,158,depth_duration_stimuli/000906_2014-06-08_13-35-43_260595134347_rgbf000155-resize_1/000906_2014-06-08_13-35-43_260595134347_rgbf000155-resize_1-target.png,250,2.8489999999999998,6.0,5081,250,feet,jsons/v1_VE250_randls_37_rotated.json,490058,1108099,49,Man
158,910402,DepthScenes,duration_manipulation_targetAtFixation,jsons/v1_VE250_randls_37_rotated.json,http://54.235.29.9/FacialAge/BNav_EC2/DepthDuration/v2_depth_duration_MTurk/v2_DepthDuration_HTML.html#41,41,1366,768,1366,768,8-20-2022,11-3-49,159,depth_duration_stimuli/002545_2014-06-24_13-38-53_094959634447_rgbf000080-resize_4/002545_2014-06-24_13-38-53_094959634447_rgbf000080-resize_4-target.png,250,1.9205,4.0,2186,250,feet,jsons/v1_VE250_randls_37_rotated.json,490058,1108099,49,Man
159,910402,DepthScenes,duration_manipulation_targetAtFixation,jsons/v1_VE250_randls_37_rotated.json,http://54.235.29.9/FacialAge/BNav_EC2/DepthDuration/v2_depth_duration_MTurk/v2_DepthDuration_HTML.html#41,41,1366,768,1366,768,8-20-2022,11-3-49,160,depth_duration_stimuli/001092_2014-06-15_17-34-58_260595134347_rgbf000171-resize_3/001092_2014-06-15_17-34-58_260595134347_rgbf000171-resize_3-target.png,250,2.6935,3.0,2091,258,feet,jsons/v1_VE250_randls_37_rotated.json,490058,1108099,49,Man
160,910402,DepthScenes,duration_manipulation_targetAtFixation,jsons/v1_VE250_randls_37_rotated.json,http://54.235.29.9/FacialAge/BNav_EC2/DepthDuration/v2_depth_duration_MTurk/v2_DepthDuration_HTML.html#41,41,1366,768,1366,768,8-20-2022,11-3-49,161,depth_duration_stimuli/001052_2014-06-08_18-24-54_260595134347_rgbf000130-resize_1/001052_2014-06-08_18-24-54_260595134347_rgbf000130-resize_1-target.png,250,4.1045,5.0,2361,251,feet,jsons/v1_VE250_randls_37_rotated.json,490058,1108099,49,Man
161,910402,DepthScenes,duration_manipulation_targetAtFixation,jsons/v1_VE250_randls_37_rotated.json,http://54.235.29.9/FacialAge/BNav_EC2/DepthDuration/v2_depth_duration_MTurk/v2_DepthDuration_HTML.html#41,41,1366,768,1366,768,8-20-2022,11-3-49,162,depth_duration_stimuli/002988_2014-06-15_12-24-20_094959634447_rgbf000150-resize_1/002988_2014-06-15_12-24-20_094959634447_rgbf000150-resize_1-target.png,250,4.7669999999999995,7.0,2509,258,feet,jsons/v1_VE250_randls_37_rotated.json,490058,1108099,49,Man
162,910402,DepthScenes,duration_manipulation_targetAtFixation,jsons/v1_VE250_randls_37_rotated.json,http://54.235.29.9/FacialAge/BNav_EC2/DepthDuration/v2_depth_duration_MTurk/v2_DepthDuration_HTML.html#41,41,1366,768,1366,768,8-20-2022,11-3-49,163,depth_duration_stimuli/000635_2014-06-08_16-38-42_260595134347_rgbf000106-resize_1/000635_2014-06-08_16-38-42_260595134347_rgbf000106-resize_1-target.png,250,2.074,6.0,2229,249,feet,jsons/v1_VE250_randls_37_rotated.json,490058,1108099,49,Man
163,910402,DepthScenes,duration_manipulation_targetAtFixation,jsons/v1_VE250_randls_37_rotated.json,http://54.235.29.9/FacialAge/BNav_EC2/DepthDuration/v2_depth_duration_MTurk/v2_DepthDuration_HTML.html#41,41,1366,768,1366,768,8-20-2022,11-3-49,164,depth_duration_stimuli/002279_2014-06-28_18-55-32_260595134347_rgbf000040-resize_5/002279_2014-06-28_18-55-32_260595134347_rgbf000040-resize_5-target.png,250,1.5043333333333,2.5,2838,250,feet,jsons/v1_VE250_randls_37_rotated.json,490058,1108099,49,Man
