,subjID,experimentName,versionName,sequenceName,url,selected_row,windowWidth,windowHeight,screenWidth,screenHeight,startDate,startTime,trial,stimulus,duration,actual_depth,depth_estimate,trial_RT,log_sceneDuration,unitSelection,seq_filepath,experimentTime,totalTime,age,gender
0,911881,DepthScenes,duration_manipulation_targetAtFixation,jsons/v1_VE250_randls_75_rotated.json,http://54.235.29.9/FacialAge/BNav_EC2/DepthDuration/v2_depth_duration_MTurk/v2_DepthDuration_HTML.html#113,113,1366,625,1366,768,8-20-2022,13-24-46,1,depth_duration_stimuli/001516_2014-06-20_16-25-09_260595134347_rgbf000076-resize_2/001516_2014-06-20_16-25-09_260595134347_rgbf000076-resize_2-target.png,250,1.7445,2,6404,257,meters,jsons/v1_VE250_randls_75_rotated.json,887337,1131078,61,Woman
1,911881,DepthScenes,duration_manipulation_targetAtFixation,jsons/v1_VE250_randls_75_rotated.json,http://54.235.29.9/FacialAge/BNav_EC2/DepthDuration/v2_depth_duration_MTurk/v2_DepthDuration_HTML.html#113,113,1366,625,1366,768,8-20-2022,13-24-46,2,depth_duration_stimuli/002118_2014-06-25_20-32-08_260595134347_rgbf000078-resize_1/002118_2014-06-25_20-32-08_260595134347_rgbf000078-resize_1-target.png,250,2.6460000000000004,0,4287,199,meters,jsons/v1_VE250_randls_75_rotated.json,887337,1131078,61,Woman
2,911881,DepthScenes,duration_manipulation_targetAtFixation,jsons/v1_VE250_randls_75_rotated.json,http://54.235.29.9/FacialAge/BNav_EC2/DepthDuration/v2_depth_duration_MTurk/v2_DepthDuration_HTML.html#113,113,1366,625,1366,768,8-20-2022,13-24-46,3,depth_duration_stimuli/002414_2014-06-28_20-24-58_260595134347_rgbf000067-resize_4/002414_2014-06-28_20-24-58_260595134347_rgbf000067-resize_4-target.png,250,4.363,5,4795,257,meters,jsons/v1_VE250_randls_75_rotated.json,887337,1131078,61,Woman
3,911881,DepthScenes,duration_manipulation_targetAtFixation,jsons/v1_VE250_randls_75_rotated.json,http://54.235.29.9/FacialAge/BNav_EC2/DepthDuration/v2_depth_duration_MTurk/v2_DepthDuration_HTML.html#113,113,1366,625,1366,768,8-20-2022,13-24-46,4,depth_duration_stimuli/000773_2014-06-08_22-24-54_260595134347_rgbf000093-resize_1/000773_2014-06-08_22-24-54_260595134347_rgbf000093-resize_1-target.png,250,4.973,4,4408,227,meters,jsons/v1_VE250_randls_75_rotated.json,887337,1131078,61,Woman
4,911881,DepthScenes,duration_manipulation_targetAtFixation,jsons/v1_VE250_randls_75_rotated.json,http://54.235.29.9/FacialAge/BNav_EC2/DepthDuration/v2_depth_duration_MTurk/v2_DepthDuration_HTML.html#113,113,1366,625,1366,768,8-20-2022,13-24-46,5,depth_duration_stimuli/001617_2014-06-20_11-35-32_260595134347_rgbf000066-resize_1/001617_2014-06-20_11-35-32_260595134347_rgbf000066-resize_1-target.png,250,3.7910000000000004,0,3607,243,meters,jsons/v1_VE250_randls_75_rotated.json,887337,1131078,61,Woman
5,911881,DepthScenes,duration_manipulation_targetAtFixation,jsons/v1_VE250_randls_75_rotated.json,http://54.235.29.9/FacialAge/BNav_EC2/DepthDuration/v2_depth_duration_MTurk/v2_DepthDuration_HTML.html#113,113,1366,625,1366,768,8-20-2022,13-24-46,6,depth_duration_stimuli/001806_2014-06-26_20-50-20_260595134347_rgbf000091-resize_1/001806_2014-06-26_20-50-20_260595134347_rgbf000091-resize_1-target.png,250,2.7305,8,4647,240,meters,jsons/v1_VE250_randls_75_rotated.json,887337,1131078,61,Woman
6,911881,DepthScenes,duration_manipulation_targetAtFixation,jsons/v1_VE250_randls_75_rotated.json,http://54.235.29.9/FacialAge/BNav_EC2/DepthDuration/v2_depth_duration_MTurk/v2_DepthDuration_HTML.html#113,113,1366,625,1366,768,8-20-2022,13-24-46,7,depth_duration_stimuli/000854_2014-06-09_19-43-13_260595134347_rgbf000066-resize_0/000854_2014-06-09_19-43-13_260595134347_rgbf000066-resize_0-target.png,250,3.068,4,76665,348,meters,jsons/v1_VE250_randls_75_rotated.json,887337,1131078,61,Woman
7,911881,DepthScenes,duration_manipulation_targetAtFixation,jsons/v1_VE250_randls_75_rotated.json,http://54.235.29.9/FacialAge/BNav_EC2/DepthDuration/v2_depth_duration_MTurk/v2_DepthDuration_HTML.html#113,113,1366,625,1366,768,8-20-2022,13-24-46,8,depth_duration_stimuli/000758_2014-06-08_22-05-08_260595134347_rgbf000085-resize_0/000758_2014-06-08_22-05-08_260595134347_rgbf000085-resize_0-target.png,250,3.3810000000000002,6,5521,247,meters,jsons/v1_VE250_randls_75_rotated.json,887337,1131078,61,Woman
8,911881,DepthScenes,duration_manipulation_targetAtFixation,jsons/v1_VE250_randls_75_rotated.json,http://54.235.29.9/FacialAge/BNav_EC2/DepthDuration/v2_depth_duration_MTurk/v2_DepthDuration_HTML.html#113,113,1366,625,1366,768,8-20-2022,13-24-46,9,depth_duration_stimuli/002953_2014-06-08_17-32-18_094959634447_rgbf000059-resize_5/002953_2014-06-08_17-32-18_094959634447_rgbf000059-resize_5-target.png,250,1.551,8,4026,246,meters,jsons/v1_VE250_randls_75_rotated.json,887337,1131078,61,Woman
9,911881,DepthScenes,duration_manipulation_targetAtFixation,jsons/v1_VE250_randls_75_rotated.json,http://54.235.29.9/FacialAge/BNav_EC2/DepthDuration/v2_depth_duration_MTurk/v2_DepthDuration_HTML.html#113,113,1366,625,1366,768,8-20-2022,13-24-46,10,depth_duration_stimuli/000878_2014-06-08_22-52-45_260595134347_rgbf000045-resize_2/000878_2014-06-08_22-52-45_260595134347_rgbf000045-resize_2-target.png,250,2.092,0,3777,238,meters,jsons/v1_VE250_randls_75_rotated.json,887337,1131078,61,Woman
10,911881,DepthScenes,duration_manipulation_targetAtFixation,jsons/v1_VE250_randls_75_rotated.json,http://54.235.29.9/FacialAge/BNav_EC2/DepthDuration/v2_depth_duration_MTurk/v2_DepthDuration_HTML.html#113,113,1366,625,1366,768,8-20-2022,13-24-46,11,depth_duration_stimuli/000749_2014-06-08_21-55-06_260595134347_rgbf000070-resize_2/000749_2014-06-08_21-55-06_260595134347_rgbf000070-resize_2-target.png,250,2.331,2,4075,244,meters,jsons/v1_VE250_randls_75_rotated.json,887337,1131078,61,Woman
11,911881,DepthScenes,duration_manipulation_targetAtFixation,jsons/v1_VE250_randls_75_rotated.json,http://54.235.29.9/FacialAge/BNav_EC2/DepthDuration/v2_depth_duration_MTurk/v2_DepthDuration_HTML.html#113,113,1366,625,1366,768,8-20-2022,13-24-46,12,depth_duration_stimuli/002788_2014-06-22_19-36-03_094959634447_rgbf000088-resize_2/002788_2014-06-22_19-36-03_094959634447_rgbf000088-resize_2-target.png,250,1.6465,0,3951,249,meters,jsons/v1_VE250_randls_75_rotated.json,887337,1131078,61,Woman
12,911881,DepthScenes,duration_manipulation_targetAtFixation,jsons/v1_VE250_randls_75_rotated.json,http://54.235.29.9/FacialAge/BNav_EC2/DepthDuration/v2_depth_duration_MTurk/v2_DepthDuration_HTML.html#113,113,1366,625,1366,768,8-20-2022,13-24-46,13,depth_duration_stimuli/003129_2014-05-12_10-48-10_094959634447_rgbf000100-resize_0/003129_2014-05-12_10-48-10_094959634447_rgbf000100-resize_0-target.png,250,4.9305,0,3858,249,meters,jsons/v1_VE250_randls_75_rotated.json,887337,1131078,61,Woman
13,911881,DepthScenes,duration_manipulation_targetAtFixation,jsons/v1_VE250_randls_75_rotated.json,http://54.235.29.9/FacialAge/BNav_EC2/DepthDuration/v2_depth_duration_MTurk/v2_DepthDuration_HTML.html#113,113,1366,625,1366,768,8-20-2022,13-24-46,14,depth_duration_stimuli/000414_2014-06-04_19-49-13_260595134347_rgbf000044-resize_0/000414_2014-06-04_19-49-13_260595134347_rgbf000044-resize_0-target.png,250,4.329,0,3933,242,meters,jsons/v1_VE250_randls_75_rotated.json,887337,1131078,61,Woman
14,911881,DepthScenes,duration_manipulation_targetAtFixation,jsons/v1_VE250_randls_75_rotated.json,http://54.235.29.9/FacialAge/BNav_EC2/DepthDuration/v2_depth_duration_MTurk/v2_DepthDuration_HTML.html#113,113,1366,625,1366,768,8-20-2022,13-24-46,15,depth_duration_stimuli/000502_2014-06-08_23-02-32_260595134347_rgbf000063-resize_4/000502_2014-06-08_23-02-32_260595134347_rgbf000063-resize_4-target.png,250,2.431,2,4286,253,meters,jsons/v1_VE250_randls_75_rotated.json,887337,1131078,61,Woman
15,911881,DepthScenes,duration_manipulation_targetAtFixation,jsons/v1_VE250_randls_75_rotated.json,http://54.235.29.9/FacialAge/BNav_EC2/DepthDuration/v2_depth_duration_MTurk/v2_DepthDuration_HTML.html#113,113,1366,625,1366,768,8-20-2022,13-24-46,16,depth_duration_stimuli/001199_2014-06-17_16-03-48_260595134347_rgbf000077-resize_0/001199_2014-06-17_16-03-48_260595134347_rgbf000077-resize_0-target.png,250,3.4375,5,4140,252,meters,jsons/v1_VE250_randls_75_rotated.json,887337,1131078,61,Woman
16,911881,DepthScenes,duration_manipulation_targetAtFixation,jsons/v1_VE250_randls_75_rotated.json,http://54.235.29.9/FacialAge/BNav_EC2/DepthDuration/v2_depth_duration_MTurk/v2_DepthDuration_HTML.html#113,113,1366,625,1366,768,8-20-2022,13-24-46,17,depth_duration_stimuli/002545_2014-06-24_13-38-53_094959634447_rgbf000080-resize_4/002545_2014-06-24_13-38-53_094959634447_rgbf000080-resize_4-target.png,250,1.9205,3,3743,249,meters,jsons/v1_VE250_randls_75_rotated.json,887337,1131078,61,Woman
17,911881,DepthScenes,duration_manipulation_targetAtFixation,jsons/v1_VE250_randls_75_rotated.json,http://54.235.29.9/FacialAge/BNav_EC2/DepthDuration/v2_depth_duration_MTurk/v2_DepthDuration_HTML.html#113,113,1366,625,1366,768,8-20-2022,13-24-46,18,depth_duration_stimuli/001092_2014-06-15_17-34-58_260595134347_rgbf000171-resize_3/001092_2014-06-15_17-34-58_260595134347_rgbf000171-resize_3-target.png,250,2.6935,1,4938,242,meters,jsons/v1_VE250_randls_75_rotated.json,887337,1131078,61,Woman
18,911881,DepthScenes,duration_manipulation_targetAtFixation,jsons/v1_VE250_randls_75_rotated.json,http://54.235.29.9/FacialAge/BNav_EC2/DepthDuration/v2_depth_duration_MTurk/v2_DepthDuration_HTML.html#113,113,1366,625,1366,768,8-20-2022,13-24-46,19,depth_duration_stimuli/001498_2014-06-19_17-45-14_260595134347_rgbf000129-resize_4/001498_2014-06-19_17-45-14_260595134347_rgbf000129-resize-original.jpg,250,1.4075,1,4099,255,meters,jsons/v1_VE250_randls_75_rotated.json,887337,1131078,61,Woman
19,911881,DepthScenes,duration_manipulation_targetAtFixation,jsons/v1_VE250_randls_75_rotated.json,http://54.235.29.9/FacialAge/BNav_EC2/DepthDuration/v2_depth_duration_MTurk/v2_DepthDuration_HTML.html#113,113,1366,625,1366,768,8-20-2022,13-24-46,20,depth_duration_stimuli/003490_2014-05-21_15-50-11_094959634447_rgbf000101-resize_3/003490_2014-05-21_15-50-11_094959634447_rgbf000101-resize_3-target.png,250,3.6445,4,3701,258,meters,jsons/v1_VE250_randls_75_rotated.json,887337,1131078,61,Woman
20,911881,DepthScenes,duration_manipulation_targetAtFixation,jsons/v1_VE250_randls_75_rotated.json,http://54.235.29.9/FacialAge/BNav_EC2/DepthDuration/v2_depth_duration_MTurk/v2_DepthDuration_HTML.html#113,113,1366,625,1366,768,8-20-2022,13-24-46,21,depth_duration_stimuli/001175_2014-06-17_15-45-55_260595134347_rgbf000129-resize_4/001175_2014-06-17_15-45-55_260595134347_rgbf000129-resize_4-target.png,250,4.255,5,3312,248,meters,jsons/v1_VE250_randls_75_rotated.json,887337,1131078,61,Woman
21,911881,DepthScenes,duration_manipulation_targetAtFixation,jsons/v1_VE250_randls_75_rotated.json,http://54.235.29.9/FacialAge/BNav_EC2/DepthDuration/v2_depth_duration_MTurk/v2_DepthDuration_HTML.html#113,113,1366,625,1366,768,8-20-2022,13-24-46,22,depth_duration_stimuli/002805_2014-06-22_19-54-03_094959634447_rgbf000079-resize_1/002805_2014-06-22_19-54-03_094959634447_rgbf000079-resize_1-target.png,250,3.1439999999999997,3,3354,250,meters,jsons/v1_VE250_randls_75_rotated.json,887337,1131078,61,Woman
22,911881,DepthScenes,duration_manipulation_targetAtFixation,jsons/v1_VE250_randls_75_rotated.json,http://54.235.29.9/FacialAge/BNav_EC2/DepthDuration/v2_depth_duration_MTurk/v2_DepthDuration_HTML.html#113,113,1366,625,1366,768,8-20-2022,13-24-46,23,depth_duration_stimuli/000906_2014-06-08_13-35-43_260595134347_rgbf000155-resize_1/000906_2014-06-08_13-35-43_260595134347_rgbf000155-resize_1-target.png,250,2.8489999999999998,5,3608,251,meters,jsons/v1_VE250_randls_75_rotated.json,887337,1131078,61,Woman
23,911881,DepthScenes,duration_manipulation_targetAtFixation,jsons/v1_VE250_randls_75_rotated.json,http://54.235.29.9/FacialAge/BNav_EC2/DepthDuration/v2_depth_duration_MTurk/v2_DepthDuration_HTML.html#113,113,1366,625,1366,768,8-20-2022,13-24-46,24,depth_duration_stimuli/002340_2014-06-28_20-05-46_260595134347_rgbf000113-resize_0/002340_2014-06-28_20-05-46_260595134347_rgbf000113-resize_0-target.png,250,2.4735,8,4296,263,meters,jsons/v1_VE250_randls_75_rotated.json,887337,1131078,61,Woman
24,911881,DepthScenes,duration_manipulation_targetAtFixation,jsons/v1_VE250_randls_75_rotated.json,http://54.235.29.9/FacialAge/BNav_EC2/DepthDuration/v2_depth_duration_MTurk/v2_DepthDuration_HTML.html#113,113,1366,625,1366,768,8-20-2022,13-24-46,25,depth_duration_stimuli/001016_2014-06-09_16-16-10_260595134347_rgbf000112-resize_5/001016_2014-06-09_16-16-10_260595134347_rgbf000112-resize_5-target.png,250,1.6565,6,4170,249,meters,jsons/v1_VE250_randls_75_rotated.json,887337,1131078,61,Woman
25,911881,DepthScenes,duration_manipulation_targetAtFixation,jsons/v1_VE250_randls_75_rotated.json,http://54.235.29.9/FacialAge/BNav_EC2/DepthDuration/v2_depth_duration_MTurk/v2_DepthDuration_HTML.html#113,113,1366,625,1366,768,8-20-2022,13-24-46,26,depth_duration_stimuli/002323_2014-06-28_20-01-54_260595134347_rgbf000051-resize_4/002323_2014-06-28_20-01-54_260595134347_rgbf000051-resize_4-target.png,250,3.7310000000000003,8,3912,248,meters,jsons/v1_VE250_randls_75_rotated.json,887337,1131078,61,Woman
26,911881,DepthScenes,duration_manipulation_targetAtFixation,jsons/v1_VE250_randls_75_rotated.json,http://54.235.29.9/FacialAge/BNav_EC2/DepthDuration/v2_depth_duration_MTurk/v2_DepthDuration_HTML.html#113,113,1366,625,1366,768,8-20-2022,13-24-46,27,depth_duration_stimuli/000917_2014-06-09_22-45-29_260595134347_rgbf000149-resize_3/000917_2014-06-09_22-45-29_260595134347_rgbf000149-resize_3-target.png,250,4.1865,0,3976,239,meters,jsons/v1_VE250_randls_75_rotated.json,887337,1131078,61,Woman
27,911881,DepthScenes,duration_manipulation_targetAtFixation,jsons/v1_VE250_randls_75_rotated.json,http://54.235.29.9/FacialAge/BNav_EC2/DepthDuration/v2_depth_duration_MTurk/v2_DepthDuration_HTML.html#113,113,1366,625,1366,768,8-20-2022,13-24-46,28,depth_duration_stimuli/002425_2014-06-28_20-27-29_260595134347_rgbf000031-resize_8/002425_2014-06-28_20-27-29_260595134347_rgbf000031-resize_8-target.png,250,3.8960000000000004,8,4375,239,meters,jsons/v1_VE250_randls_75_rotated.json,887337,1131078,61,Woman
28,911881,DepthScenes,duration_manipulation_targetAtFixation,jsons/v1_VE250_randls_75_rotated.json,http://54.235.29.9/FacialAge/BNav_EC2/DepthDuration/v2_depth_duration_MTurk/v2_DepthDuration_HTML.html#113,113,1366,625,1366,768,8-20-2022,13-24-46,29,depth_duration_stimuli/000642_2014-06-08_16-59-25_260595134347_rgbf000098-resize_2/000642_2014-06-08_16-59-25_260595134347_rgbf000098-resize_2-target.png,250,2.8815,6,3582,260,meters,jsons/v1_VE250_randls_75_rotated.json,887337,1131078,61,Woman
29,911881,DepthScenes,duration_manipulation_targetAtFixation,jsons/v1_VE250_randls_75_rotated.json,http://54.235.29.9/FacialAge/BNav_EC2/DepthDuration/v2_depth_duration_MTurk/v2_DepthDuration_HTML.html#113,113,1366,625,1366,768,8-20-2022,13-24-46,30,depth_duration_stimuli/002072_2014-06-24_21-48-06_260595134347_rgbf000115-resize_0/002072_2014-06-24_21-48-06_260595134347_rgbf000115-resize-original.jpg,250,4.702,8,4028,246,meters,jsons/v1_VE250_randls_75_rotated.json,887337,1131078,61,Woman
30,911881,DepthScenes,duration_manipulation_targetAtFixation,jsons/v1_VE250_randls_75_rotated.json,http://54.235.29.9/FacialAge/BNav_EC2/DepthDuration/v2_depth_duration_MTurk/v2_DepthDuration_HTML.html#113,113,1366,625,1366,768,8-20-2022,13-24-46,31,depth_duration_stimuli/001447_2014-06-19_17-00-32_260595134347_rgbf000082-resize_5/001447_2014-06-19_17-00-32_260595134347_rgbf000082-resize_5-target.png,250,4.13775,6,3905,251,meters,jsons/v1_VE250_randls_75_rotated.json,887337,1131078,61,Woman
31,911881,DepthScenes,duration_manipulation_targetAtFixation,jsons/v1_VE250_randls_75_rotated.json,http://54.235.29.9/FacialAge/BNav_EC2/DepthDuration/v2_depth_duration_MTurk/v2_DepthDuration_HTML.html#113,113,1366,625,1366,768,8-20-2022,13-24-46,32,depth_duration_stimuli/000447_2014-06-08_16-15-46_260595134347_rgbf000130-resize_1/000447_2014-06-08_16-15-46_260595134347_rgbf000130-resize_1-target.png,250,4.479,8,3923,245,meters,jsons/v1_VE250_randls_75_rotated.json,887337,1131078,61,Woman
32,911881,DepthScenes,duration_manipulation_targetAtFixation,jsons/v1_VE250_randls_75_rotated.json,http://54.235.29.9/FacialAge/BNav_EC2/DepthDuration/v2_depth_duration_MTurk/v2_DepthDuration_HTML.html#113,113,1366,625,1366,768,8-20-2022,13-24-46,33,depth_duration_stimuli/002949_2014-06-26_15-57-42_094959634447_rgbf000079-resize_1/002949_2014-06-26_15-57-42_094959634447_rgbf000079-resize_1-target.png,250,1.8915,6,4608,280,meters,jsons/v1_VE250_randls_75_rotated.json,887337,1131078,61,Woman
33,911881,DepthScenes,duration_manipulation_targetAtFixation,jsons/v1_VE250_randls_75_rotated.json,http://54.235.29.9/FacialAge/BNav_EC2/DepthDuration/v2_depth_duration_MTurk/v2_DepthDuration_HTML.html#113,113,1366,625,1366,768,8-20-2022,13-24-46,34,depth_duration_stimuli/000522_2014-06-08_13-35-06_260595134347_rgbf000244-resize_1/000522_2014-06-08_13-35-06_260595134347_rgbf000244-resize_1-target.png,250,2.3715,5,3884,242,meters,jsons/v1_VE250_randls_75_rotated.json,887337,1131078,61,Woman
34,911881,DepthScenes,duration_manipulation_targetAtFixation,jsons/v1_VE250_randls_75_rotated.json,http://54.235.29.9/FacialAge/BNav_EC2/DepthDuration/v2_depth_duration_MTurk/v2_DepthDuration_HTML.html#113,113,1366,625,1366,768,8-20-2022,13-24-46,35,depth_duration_stimuli/001828_2014-06-26_21-40-03_260595134347_rgbf000024-resize_0/001828_2014-06-26_21-40-03_260595134347_rgbf000024-resize_0-target.png,250,4.8260000000000005,5,3841,238,meters,jsons/v1_VE250_randls_75_rotated.json,887337,1131078,61,Woman
35,911881,DepthScenes,duration_manipulation_targetAtFixation,jsons/v1_VE250_randls_75_rotated.json,http://54.235.29.9/FacialAge/BNav_EC2/DepthDuration/v2_depth_duration_MTurk/v2_DepthDuration_HTML.html#113,113,1366,625,1366,768,8-20-2022,13-24-46,36,depth_duration_stimuli/000009_2014-05-26_14-32-05_260595134347_rgbf000034-resize_3/000009_2014-05-26_14-32-05_260595134347_rgbf000034-resize_3-target.png,250,3.8715,1,4754,307,meters,jsons/v1_VE250_randls_75_rotated.json,887337,1131078,61,Woman
36,911881,DepthScenes,duration_manipulation_targetAtFixation,jsons/v1_VE250_randls_75_rotated.json,http://54.235.29.9/FacialAge/BNav_EC2/DepthDuration/v2_depth_duration_MTurk/v2_DepthDuration_HTML.html#113,113,1366,625,1366,768,8-20-2022,13-24-46,37,depth_duration_stimuli/003338_2014-05-20_11-01-23_094959634447_rgbf000051-resize_6/003338_2014-05-20_11-01-23_094959634447_rgbf000051-resize_6-target.png,250,1.693,8,4854,253,meters,jsons/v1_VE250_randls_75_rotated.json,887337,1131078,61,Woman
37,911881,DepthScenes,duration_manipulation_targetAtFixation,jsons/v1_VE250_randls_75_rotated.json,http://54.235.29.9/FacialAge/BNav_EC2/DepthDuration/v2_depth_duration_MTurk/v2_DepthDuration_HTML.html#113,113,1366,625,1366,768,8-20-2022,13-24-46,38,depth_duration_stimuli/002509_2014-06-24_13-19-22_094959634447_rgbf000077-resize_0/002509_2014-06-24_13-19-22_094959634447_rgbf000077-resize_0-target.png,250,1.3065,3,4561,247,meters,jsons/v1_VE250_randls_75_rotated.json,887337,1131078,61,Woman
38,911881,DepthScenes,duration_manipulation_targetAtFixation,jsons/v1_VE250_randls_75_rotated.json,http://54.235.29.9/FacialAge/BNav_EC2/DepthDuration/v2_depth_duration_MTurk/v2_DepthDuration_HTML.html#113,113,1366,625,1366,768,8-20-2022,13-24-46,39,depth_duration_stimuli/001450_2014-06-19_17-02-03_260595134347_rgbf000203-resize_4/001450_2014-06-19_17-02-03_260595134347_rgbf000203-resize_4-target.png,250,4.0106666666667,5,3733,247,meters,jsons/v1_VE250_randls_75_rotated.json,887337,1131078,61,Woman
39,911881,DepthScenes,duration_manipulation_targetAtFixation,jsons/v1_VE250_randls_75_rotated.json,http://54.235.29.9/FacialAge/BNav_EC2/DepthDuration/v2_depth_duration_MTurk/v2_DepthDuration_HTML.html#113,113,1366,625,1366,768,8-20-2022,13-24-46,40,depth_duration_stimuli/001449_2014-06-19_17-01-27_260595134347_rgbf000116-resize_2/001449_2014-06-19_17-01-27_260595134347_rgbf000116-resize_2-target.png,250,3.452,8,3791,244,meters,jsons/v1_VE250_randls_75_rotated.json,887337,1131078,61,Woman
40,911881,DepthScenes,duration_manipulation_targetAtFixation,jsons/v1_VE250_randls_75_rotated.json,http://54.235.29.9/FacialAge/BNav_EC2/DepthDuration/v2_depth_duration_MTurk/v2_DepthDuration_HTML.html#113,113,1366,625,1366,768,8-20-2022,13-24-46,41,depth_duration_stimuli/000549_2014-06-08_22-10-24_260595134347_rgbf000247-resize_3/000549_2014-06-08_22-10-24_260595134347_rgbf000247-resize_3-target.png,250,1.841,3,3797,180,meters,jsons/v1_VE250_randls_75_rotated.json,887337,1131078,61,Woman
41,911881,DepthScenes,duration_manipulation_targetAtFixation,jsons/v1_VE250_randls_75_rotated.json,http://54.235.29.9/FacialAge/BNav_EC2/DepthDuration/v2_depth_duration_MTurk/v2_DepthDuration_HTML.html#113,113,1366,625,1366,768,8-20-2022,13-24-46,42,depth_duration_stimuli/001055_2014-06-08_18-45-35_260595134347_rgbf000111-resize_4/001055_2014-06-08_18-45-35_260595134347_rgbf000111-resize_4-target.png,250,2.4290000000000003,6,3783,248,meters,jsons/v1_VE250_randls_75_rotated.json,887337,1131078,61,Woman
42,911881,DepthScenes,duration_manipulation_targetAtFixation,jsons/v1_VE250_randls_75_rotated.json,http://54.235.29.9/FacialAge/BNav_EC2/DepthDuration/v2_depth_duration_MTurk/v2_DepthDuration_HTML.html#113,113,1366,625,1366,768,8-20-2022,13-24-46,43,depth_duration_stimuli/000780_2014-06-08_22-28-29_260595134347_rgbf000126-resize_1/000780_2014-06-08_22-28-29_260595134347_rgbf000126-resize_1-target.png,250,3.3825,8,3815,249,meters,jsons/v1_VE250_randls_75_rotated.json,887337,1131078,61,Woman
43,911881,DepthScenes,duration_manipulation_targetAtFixation,jsons/v1_VE250_randls_75_rotated.json,http://54.235.29.9/FacialAge/BNav_EC2/DepthDuration/v2_depth_duration_MTurk/v2_DepthDuration_HTML.html#113,113,1366,625,1366,768,8-20-2022,13-24-46,44,depth_duration_stimuli/002445_2014-06-28_20-32-16_260595134347_rgbf000029-resize_4/002445_2014-06-28_20-32-16_260595134347_rgbf000029-resize_4-target.png,250,2.5315,2,4255,248,meters,jsons/v1_VE250_randls_75_rotated.json,887337,1131078,61,Woman
44,911881,DepthScenes,duration_manipulation_targetAtFixation,jsons/v1_VE250_randls_75_rotated.json,http://54.235.29.9/FacialAge/BNav_EC2/DepthDuration/v2_depth_duration_MTurk/v2_DepthDuration_HTML.html#113,113,1366,625,1366,768,8-20-2022,13-24-46,45,depth_duration_stimuli/003048_2014-06-15_13-49-43_094959634447_rgbf000150-resize_1/003048_2014-06-15_13-49-43_094959634447_rgbf000150-resize_1-target.png,250,4.0035,5,4212,247,meters,jsons/v1_VE250_randls_75_rotated.json,887337,1131078,61,Woman
45,911881,DepthScenes,duration_manipulation_targetAtFixation,jsons/v1_VE250_randls_75_rotated.json,http://54.235.29.9/FacialAge/BNav_EC2/DepthDuration/v2_depth_duration_MTurk/v2_DepthDuration_HTML.html#113,113,1366,625,1366,768,8-20-2022,13-24-46,46,depth_duration_stimuli/002043_2014-06-24_20-29-38_260595134347_rgbf000039-resize_4/002043_2014-06-24_20-29-38_260595134347_rgbf000039-resize_4-target.png,250,2.8435,0,13468,52,meters,jsons/v1_VE250_randls_75_rotated.json,887337,1131078,61,Woman
46,911881,DepthScenes,duration_manipulation_targetAtFixation,jsons/v1_VE250_randls_75_rotated.json,http://54.235.29.9/FacialAge/BNav_EC2/DepthDuration/v2_depth_duration_MTurk/v2_DepthDuration_HTML.html#113,113,1366,625,1366,768,8-20-2022,13-24-46,47,depth_duration_stimuli/001235_2014-06-17_16-37-36_260595134347_rgbf000084-resize_4/001235_2014-06-17_16-37-36_260595134347_rgbf000084-resize_4-target.png,250,3.6605,6,5258,242,meters,jsons/v1_VE250_randls_75_rotated.json,887337,1131078,61,Woman
47,911881,DepthScenes,duration_manipulation_targetAtFixation,jsons/v1_VE250_randls_75_rotated.json,http://54.235.29.9/FacialAge/BNav_EC2/DepthDuration/v2_depth_duration_MTurk/v2_DepthDuration_HTML.html#113,113,1366,625,1366,768,8-20-2022,13-24-46,48,depth_duration_stimuli/000788_2014-06-08_22-34-36_260595134347_rgbf000131-resize_1/000788_2014-06-08_22-34-36_260595134347_rgbf000131-resize_1-target.png,250,3.359,7,6357,237,meters,jsons/v1_VE250_randls_75_rotated.json,887337,1131078,61,Woman
48,911881,DepthScenes,duration_manipulation_targetAtFixation,jsons/v1_VE250_randls_75_rotated.json,http://54.235.29.9/FacialAge/BNav_EC2/DepthDuration/v2_depth_duration_MTurk/v2_DepthDuration_HTML.html#113,113,1366,625,1366,768,8-20-2022,13-24-46,49,depth_duration_stimuli/001170_2014-06-17_15-43-44_260595134347_rgbf000096-resize_6/001170_2014-06-17_15-43-44_260595134347_rgbf000096-resize-original.jpg,250,1.1909999999999998,6,3755,235,meters,jsons/v1_VE250_randls_75_rotated.json,887337,1131078,61,Woman
49,911881,DepthScenes,duration_manipulation_targetAtFixation,jsons/v1_VE250_randls_75_rotated.json,http://54.235.29.9/FacialAge/BNav_EC2/DepthDuration/v2_depth_duration_MTurk/v2_DepthDuration_HTML.html#113,113,1366,625,1366,768,8-20-2022,13-24-46,50,depth_duration_stimuli/000943_2014-06-09_19-31-07_260595134347_rgbf000128-resize_1/000943_2014-06-09_19-31-07_260595134347_rgbf000128-resize_1-target.png,250,1.9765,3,4251,243,meters,jsons/v1_VE250_randls_75_rotated.json,887337,1131078,61,Woman
50,911881,DepthScenes,duration_manipulation_targetAtFixation,jsons/v1_VE250_randls_75_rotated.json,http://54.235.29.9/FacialAge/BNav_EC2/DepthDuration/v2_depth_duration_MTurk/v2_DepthDuration_HTML.html#113,113,1366,625,1366,768,8-20-2022,13-24-46,51,depth_duration_stimuli/003070_2014-06-15_14-58-27_094959634447_rgbf000150-resize_3/003070_2014-06-15_14-58-27_094959634447_rgbf000150-resize_3-target.png,250,2.9415,0,3982,248,meters,jsons/v1_VE250_randls_75_rotated.json,887337,1131078,61,Woman
51,911881,DepthScenes,duration_manipulation_targetAtFixation,jsons/v1_VE250_randls_75_rotated.json,http://54.235.29.9/FacialAge/BNav_EC2/DepthDuration/v2_depth_duration_MTurk/v2_DepthDuration_HTML.html#113,113,1366,625,1366,768,8-20-2022,13-24-46,52,depth_duration_stimuli/001094_2014-06-15_17-36-00_260595134347_rgbf000205-resize_0/001094_2014-06-15_17-36-00_260595134347_rgbf000205-resize_0-target.png,250,4.2175,5,3830,236,meters,jsons/v1_VE250_randls_75_rotated.json,887337,1131078,61,Woman
52,911881,DepthScenes,duration_manipulation_targetAtFixation,jsons/v1_VE250_randls_75_rotated.json,http://54.235.29.9/FacialAge/BNav_EC2/DepthDuration/v2_depth_duration_MTurk/v2_DepthDuration_HTML.html#113,113,1366,625,1366,768,8-20-2022,13-24-46,53,depth_duration_stimuli/000692_2014-06-08_13-09-42_260595134347_rgbf000199-resize_2/000692_2014-06-08_13-09-42_260595134347_rgbf000199-resize_2-target.png,250,3.661,0,3931,245,meters,jsons/v1_VE250_randls_75_rotated.json,887337,1131078,61,Woman
53,911881,DepthScenes,duration_manipulation_targetAtFixation,jsons/v1_VE250_randls_75_rotated.json,http://54.235.29.9/FacialAge/BNav_EC2/DepthDuration/v2_depth_duration_MTurk/v2_DepthDuration_HTML.html#113,113,1366,625,1366,768,8-20-2022,13-24-46,54,depth_duration_stimuli/001815_2014-06-26_20-52-55_260595134347_rgbf000020-resize_0/001815_2014-06-26_20-52-55_260595134347_rgbf000020-resize_0-target.png,250,3.3865,5,3989,259,meters,jsons/v1_VE250_randls_75_rotated.json,887337,1131078,61,Woman
54,911881,DepthScenes,duration_manipulation_targetAtFixation,jsons/v1_VE250_randls_75_rotated.json,http://54.235.29.9/FacialAge/BNav_EC2/DepthDuration/v2_depth_duration_MTurk/v2_DepthDuration_HTML.html#113,113,1366,625,1366,768,8-20-2022,13-24-46,55,depth_duration_stimuli/001808_2014-06-26_20-50-58_260595134347_rgbf000029-resize_1/001808_2014-06-26_20-50-58_260595134347_rgbf000029-resize_1-target.png,250,4.249,7,3503,253,meters,jsons/v1_VE250_randls_75_rotated.json,887337,1131078,61,Woman
55,911881,DepthScenes,duration_manipulation_targetAtFixation,jsons/v1_VE250_randls_75_rotated.json,http://54.235.29.9/FacialAge/BNav_EC2/DepthDuration/v2_depth_duration_MTurk/v2_DepthDuration_HTML.html#113,113,1366,625,1366,768,8-20-2022,13-24-46,56,depth_duration_stimuli/000191_2014-05-12_17-07-38_260595134347_rgbf000199-resize_0/000191_2014-05-12_17-07-38_260595134347_rgbf000199-resize_0-target.png,250,3.7995,3,5232,231,meters,jsons/v1_VE250_randls_75_rotated.json,887337,1131078,61,Woman
56,911881,DepthScenes,duration_manipulation_targetAtFixation,jsons/v1_VE250_randls_75_rotated.json,http://54.235.29.9/FacialAge/BNav_EC2/DepthDuration/v2_depth_duration_MTurk/v2_DepthDuration_HTML.html#113,113,1366,625,1366,768,8-20-2022,13-24-46,57,depth_duration_stimuli/000493_2014-06-09_21-01-18_260595134347_rgbf000196-resize_3/000493_2014-06-09_21-01-18_260595134347_rgbf000196-resize_3-target.png,250,3.44,5,3360,251,meters,jsons/v1_VE250_randls_75_rotated.json,887337,1131078,61,Woman
57,911881,DepthScenes,duration_manipulation_targetAtFixation,jsons/v1_VE250_randls_75_rotated.json,http://54.235.29.9/FacialAge/BNav_EC2/DepthDuration/v2_depth_duration_MTurk/v2_DepthDuration_HTML.html#113,113,1366,625,1366,768,8-20-2022,13-24-46,58,depth_duration_stimuli/000742_2014-06-08_18-48-09_260595134347_rgbf000164-resize_4/000742_2014-06-08_18-48-09_260595134347_rgbf000164-resize_4-target.png,250,4.632,3,3755,230,meters,jsons/v1_VE250_randls_75_rotated.json,887337,1131078,61,Woman
58,911881,DepthScenes,duration_manipulation_targetAtFixation,jsons/v1_VE250_randls_75_rotated.json,http://54.235.29.9/FacialAge/BNav_EC2/DepthDuration/v2_depth_duration_MTurk/v2_DepthDuration_HTML.html#113,113,1366,625,1366,768,8-20-2022,13-24-46,59,depth_duration_stimuli/001066_2014-06-08_22-03-20_260595134347_rgbf000066-resize_4/001066_2014-06-08_22-03-20_260595134347_rgbf000066-resize_4-target.png,250,4.2330000000000005,8,4117,250,meters,jsons/v1_VE250_randls_75_rotated.json,887337,1131078,61,Woman
59,911881,DepthScenes,duration_manipulation_targetAtFixation,jsons/v1_VE250_randls_75_rotated.json,http://54.235.29.9/FacialAge/BNav_EC2/DepthDuration/v2_depth_duration_MTurk/v2_DepthDuration_HTML.html#113,113,1366,625,1366,768,8-20-2022,13-24-46,60,depth_duration_stimuli/002209_2014-06-28_18-36-10_260595134347_rgbf000051-resize_1/002209_2014-06-28_18-36-10_260595134347_rgbf000051-resize_1-target.png,250,2.057,0,3950,237,meters,jsons/v1_VE250_randls_75_rotated.json,887337,1131078,61,Woman
60,911881,DepthScenes,duration_manipulation_targetAtFixation,jsons/v1_VE250_randls_75_rotated.json,http://54.235.29.9/FacialAge/BNav_EC2/DepthDuration/v2_depth_duration_MTurk/v2_DepthDuration_HTML.html#113,113,1366,625,1366,768,8-20-2022,13-24-46,61,depth_duration_stimuli/002763_2014-06-22_19-13-10_094959634447_rgbf000075-resize_4/002763_2014-06-22_19-13-10_094959634447_rgbf000075-resize_4-target.png,250,1.68375,0,5157,239,meters,jsons/v1_VE250_randls_75_rotated.json,887337,1131078,61,Woman
61,911881,DepthScenes,duration_manipulation_targetAtFixation,jsons/v1_VE250_randls_75_rotated.json,http://54.235.29.9/FacialAge/BNav_EC2/DepthDuration/v2_depth_duration_MTurk/v2_DepthDuration_HTML.html#113,113,1366,625,1366,768,8-20-2022,13-24-46,62,depth_duration_stimuli/000709_2014-06-08_13-51-55_260595134347_rgbf000068-resize_3/000709_2014-06-08_13-51-55_260595134347_rgbf000068-resize_3-target.png,250,1.8030000000000002,5,4250,235,meters,jsons/v1_VE250_randls_75_rotated.json,887337,1131078,61,Woman
62,911881,DepthScenes,duration_manipulation_targetAtFixation,jsons/v1_VE250_randls_75_rotated.json,http://54.235.29.9/FacialAge/BNav_EC2/DepthDuration/v2_depth_duration_MTurk/v2_DepthDuration_HTML.html#113,113,1366,625,1366,768,8-20-2022,13-24-46,63,depth_duration_stimuli/002057_2014-06-24_21-00-13_260595134347_rgbf000120-resize_1/002057_2014-06-24_21-00-13_260595134347_rgbf000120-resize_1-target.png,250,2.967,9,4219,317,meters,jsons/v1_VE250_randls_75_rotated.json,887337,1131078,61,Woman
63,911881,DepthScenes,duration_manipulation_targetAtFixation,jsons/v1_VE250_randls_75_rotated.json,http://54.235.29.9/FacialAge/BNav_EC2/DepthDuration/v2_depth_duration_MTurk/v2_DepthDuration_HTML.html#113,113,1366,625,1366,768,8-20-2022,13-24-46,64,depth_duration_stimuli/001650_2014-06-20_12-09-00_260595134347_rgbf000087-resize_3/001650_2014-06-20_12-09-00_260595134347_rgbf000087-resize_3-target.png,250,1.9505,2,4028,246,meters,jsons/v1_VE250_randls_75_rotated.json,887337,1131078,61,Woman
64,911881,DepthScenes,duration_manipulation_targetAtFixation,jsons/v1_VE250_randls_75_rotated.json,http://54.235.29.9/FacialAge/BNav_EC2/DepthDuration/v2_depth_duration_MTurk/v2_DepthDuration_HTML.html#113,113,1366,625,1366,768,8-20-2022,13-24-46,65,depth_duration_stimuli/000682_2014-06-08_23-14-58_260595134347_rgbf000041-resize_5/000682_2014-06-08_23-14-58_260595134347_rgbf000041-resize_5-target.png,250,2.7239999999999998,6,4684,242,meters,jsons/v1_VE250_randls_75_rotated.json,887337,1131078,61,Woman
65,911881,DepthScenes,duration_manipulation_targetAtFixation,jsons/v1_VE250_randls_75_rotated.json,http://54.235.29.9/FacialAge/BNav_EC2/DepthDuration/v2_depth_duration_MTurk/v2_DepthDuration_HTML.html#113,113,1366,625,1366,768,8-20-2022,13-24-46,66,depth_duration_stimuli/001540_2014-06-20_17-01-05_260595134347_rgbf000086-resize_2/001540_2014-06-20_17-01-05_260595134347_rgbf000086-resize-original.jpg,250,1.459,5,5044,249,meters,jsons/v1_VE250_randls_75_rotated.json,887337,1131078,61,Woman
66,911881,DepthScenes,duration_manipulation_targetAtFixation,jsons/v1_VE250_randls_75_rotated.json,http://54.235.29.9/FacialAge/BNav_EC2/DepthDuration/v2_depth_duration_MTurk/v2_DepthDuration_HTML.html#113,113,1366,625,1366,768,8-20-2022,13-24-46,67,depth_duration_stimuli/000103_2014-05-14_22-01-17_260595134347_rgbf000152-resize_5/000103_2014-05-14_22-01-17_260595134347_rgbf000152-resize_5-target.png,250,1.993,0,3817,243,meters,jsons/v1_VE250_randls_75_rotated.json,887337,1131078,61,Woman
67,911881,DepthScenes,duration_manipulation_targetAtFixation,jsons/v1_VE250_randls_75_rotated.json,http://54.235.29.9/FacialAge/BNav_EC2/DepthDuration/v2_depth_duration_MTurk/v2_DepthDuration_HTML.html#113,113,1366,625,1366,768,8-20-2022,13-24-46,68,depth_duration_stimuli/001555_2014-06-20_17-12-10_260595134347_rgbf000065-resize_4/001555_2014-06-20_17-12-10_260595134347_rgbf000065-resize_4-target.png,250,1.633,5,3914,248,meters,jsons/v1_VE250_randls_75_rotated.json,887337,1131078,61,Woman
68,911881,DepthScenes,duration_manipulation_targetAtFixation,jsons/v1_VE250_randls_75_rotated.json,http://54.235.29.9/FacialAge/BNav_EC2/DepthDuration/v2_depth_duration_MTurk/v2_DepthDuration_HTML.html#113,113,1366,625,1366,768,8-20-2022,13-24-46,69,depth_duration_stimuli/003587_2014-05-23_16-48-02_094959634447_rgbf002384-resize_2/003587_2014-05-23_16-48-02_094959634447_rgbf002384-resize_2-target.png,250,1.357,4,4529,280,meters,jsons/v1_VE250_randls_75_rotated.json,887337,1131078,61,Woman
69,911881,DepthScenes,duration_manipulation_targetAtFixation,jsons/v1_VE250_randls_75_rotated.json,http://54.235.29.9/FacialAge/BNav_EC2/DepthDuration/v2_depth_duration_MTurk/v2_DepthDuration_HTML.html#113,113,1366,625,1366,768,8-20-2022,13-24-46,70,depth_duration_stimuli/001167_2014-06-17_15-38-07_260595134347_rgbf000108-resize_0/001167_2014-06-17_15-38-07_260595134347_rgbf000108-resize_0-target.png,250,1.8505,8,3846,229,meters,jsons/v1_VE250_randls_75_rotated.json,887337,1131078,61,Woman
70,911881,DepthScenes,duration_manipulation_targetAtFixation,jsons/v1_VE250_randls_75_rotated.json,http://54.235.29.9/FacialAge/BNav_EC2/DepthDuration/v2_depth_duration_MTurk/v2_DepthDuration_HTML.html#113,113,1366,625,1366,768,8-20-2022,13-24-46,71,depth_duration_stimuli/000457_2014-06-08_16-52-43_260595134347_rgbf000199-resize_1/000457_2014-06-08_16-52-43_260595134347_rgbf000199-resize_1-target.png,250,3.6489999999999996,7,4493,238,meters,jsons/v1_VE250_randls_75_rotated.json,887337,1131078,61,Woman
71,911881,DepthScenes,duration_manipulation_targetAtFixation,jsons/v1_VE250_randls_75_rotated.json,http://54.235.29.9/FacialAge/BNav_EC2/DepthDuration/v2_depth_duration_MTurk/v2_DepthDuration_HTML.html#113,113,1366,625,1366,768,8-20-2022,13-24-46,72,depth_duration_stimuli/000929_2014-06-09_16-33-19_260595134347_rgbf000139-resize_0/000929_2014-06-09_16-33-19_260595134347_rgbf000139-resize_0-target.png,250,2.8680000000000003,5,4191,242,meters,jsons/v1_VE250_randls_75_rotated.json,887337,1131078,61,Woman
72,911881,DepthScenes,duration_manipulation_targetAtFixation,jsons/v1_VE250_randls_75_rotated.json,http://54.235.29.9/FacialAge/BNav_EC2/DepthDuration/v2_depth_duration_MTurk/v2_DepthDuration_HTML.html#113,113,1366,625,1366,768,8-20-2022,13-24-46,73,depth_duration_stimuli/002444_2014-06-28_20-32-08_260595134347_rgbf000027-resize_0/002444_2014-06-28_20-32-08_260595134347_rgbf000027-resize_0-target.png,250,4.388999999999999,7,5932,250,meters,jsons/v1_VE250_randls_75_rotated.json,887337,1131078,61,Woman
73,911881,DepthScenes,duration_manipulation_targetAtFixation,jsons/v1_VE250_randls_75_rotated.json,http://54.235.29.9/FacialAge/BNav_EC2/DepthDuration/v2_depth_duration_MTurk/v2_DepthDuration_HTML.html#113,113,1366,625,1366,768,8-20-2022,13-24-46,74,depth_duration_stimuli/000436_2014-06-09_22-25-11_260595134347_rgbf000137-resize_1/000436_2014-06-09_22-25-11_260595134347_rgbf000137-resize_1-target.png,250,4.0705,5,12635,249,meters,jsons/v1_VE250_randls_75_rotated.json,887337,1131078,61,Woman
74,911881,DepthScenes,duration_manipulation_targetAtFixation,jsons/v1_VE250_randls_75_rotated.json,http://54.235.29.9/FacialAge/BNav_EC2/DepthDuration/v2_depth_duration_MTurk/v2_DepthDuration_HTML.html#113,113,1366,625,1366,768,8-20-2022,13-24-46,75,depth_duration_stimuli/002639_2014-06-24_14-51-37_094959634447_rgbf000074-resize_4/002639_2014-06-24_14-51-37_094959634447_rgbf000074-resize_4-target.png,250,4.0375,6,3765,237,meters,jsons/v1_VE250_randls_75_rotated.json,887337,1131078,61,Woman
75,911881,DepthScenes,duration_manipulation_targetAtFixation,jsons/v1_VE250_randls_75_rotated.json,http://54.235.29.9/FacialAge/BNav_EC2/DepthDuration/v2_depth_duration_MTurk/v2_DepthDuration_HTML.html#113,113,1366,625,1366,768,8-20-2022,13-24-46,76,depth_duration_stimuli/003292_2014-05-14_21-53-49_094959634447_rgbf000100-resize_2/003292_2014-05-14_21-53-49_094959634447_rgbf000100-resize_2-target.png,250,3.4815,5,4340,252,meters,jsons/v1_VE250_randls_75_rotated.json,887337,1131078,61,Woman
76,911881,DepthScenes,duration_manipulation_targetAtFixation,jsons/v1_VE250_randls_75_rotated.json,http://54.235.29.9/FacialAge/BNav_EC2/DepthDuration/v2_depth_duration_MTurk/v2_DepthDuration_HTML.html#113,113,1366,625,1366,768,8-20-2022,13-24-46,77,depth_duration_stimuli/002103_2014-06-25_20-00-40_260595134347_rgbf000049-resize_0/002103_2014-06-25_20-00-40_260595134347_rgbf000049-resize_0-target.png,250,4.105,7,4765,252,meters,jsons/v1_VE250_randls_75_rotated.json,887337,1131078,61,Woman
77,911881,DepthScenes,duration_manipulation_targetAtFixation,jsons/v1_VE250_randls_75_rotated.json,http://54.235.29.9/FacialAge/BNav_EC2/DepthDuration/v2_depth_duration_MTurk/v2_DepthDuration_HTML.html#113,113,1366,625,1366,768,8-20-2022,13-24-46,78,depth_duration_stimuli/002039_2014-06-24_20-22-38_260595134347_rgbf000084-resize_1/002039_2014-06-24_20-22-38_260595134347_rgbf000084-resize_1-target.png,250,4.408,9,3819,256,meters,jsons/v1_VE250_randls_75_rotated.json,887337,1131078,61,Woman
78,911881,DepthScenes,duration_manipulation_targetAtFixation,jsons/v1_VE250_randls_75_rotated.json,http://54.235.29.9/FacialAge/BNav_EC2/DepthDuration/v2_depth_duration_MTurk/v2_DepthDuration_HTML.html#113,113,1366,625,1366,768,8-20-2022,13-24-46,79,depth_duration_stimuli/002660_2014-06-13_15-44-18_094959634447_rgbf001878-resize_2/002660_2014-06-13_15-44-18_094959634447_rgbf001878-resize_2-target.png,250,3.576,0,3762,249,meters,jsons/v1_VE250_randls_75_rotated.json,887337,1131078,61,Woman
79,911881,DepthScenes,duration_manipulation_targetAtFixation,jsons/v1_VE250_randls_75_rotated.json,http://54.235.29.9/FacialAge/BNav_EC2/DepthDuration/v2_depth_duration_MTurk/v2_DepthDuration_HTML.html#113,113,1366,625,1366,768,8-20-2022,13-24-46,80,depth_duration_stimuli/002153_2014-06-25_21-27-18_260595134347_rgbf000038-resize_5/002153_2014-06-25_21-27-18_260595134347_rgbf000038-resize_5-target.png,250,2.505,5,4430,251,meters,jsons/v1_VE250_randls_75_rotated.json,887337,1131078,61,Woman
80,911881,DepthScenes,duration_manipulation_targetAtFixation,jsons/v1_VE250_randls_75_rotated.json,http://54.235.29.9/FacialAge/BNav_EC2/DepthDuration/v2_depth_duration_MTurk/v2_DepthDuration_HTML.html#113,113,1366,625,1366,768,8-20-2022,13-24-46,81,depth_duration_stimuli/000691_2014-06-08_13-08-50_260595134347_rgbf000132-resize_3/000691_2014-06-08_13-08-50_260595134347_rgbf000132-resize_3-target.png,250,4.1530000000000005,4,7899,245,meters,jsons/v1_VE250_randls_75_rotated.json,887337,1131078,61,Woman
81,911881,DepthScenes,duration_manipulation_targetAtFixation,jsons/v1_VE250_randls_75_rotated.json,http://54.235.29.9/FacialAge/BNav_EC2/DepthDuration/v2_depth_duration_MTurk/v2_DepthDuration_HTML.html#113,113,1366,625,1366,768,8-20-2022,13-24-46,82,depth_duration_stimuli/002213_2014-06-28_18-37-58_260595134347_rgbf000055-resize_1/002213_2014-06-28_18-37-58_260595134347_rgbf000055-resize_1-target.png,250,3.62,5,5219,241,meters,jsons/v1_VE250_randls_75_rotated.json,887337,1131078,61,Woman
82,911881,DepthScenes,duration_manipulation_targetAtFixation,jsons/v1_VE250_randls_75_rotated.json,http://54.235.29.9/FacialAge/BNav_EC2/DepthDuration/v2_depth_duration_MTurk/v2_DepthDuration_HTML.html#113,113,1366,625,1366,768,8-20-2022,13-24-46,83,depth_duration_stimuli/002467_2014-06-28_20-38-07_260595134347_rgbf000026-resize_2/002467_2014-06-28_20-38-07_260595134347_rgbf000026-resize_2-target.png,250,4.742,8,4103,301,meters,jsons/v1_VE250_randls_75_rotated.json,887337,1131078,61,Woman
83,911881,DepthScenes,duration_manipulation_targetAtFixation,jsons/v1_VE250_randls_75_rotated.json,http://54.235.29.9/FacialAge/BNav_EC2/DepthDuration/v2_depth_duration_MTurk/v2_DepthDuration_HTML.html#113,113,1366,625,1366,768,8-20-2022,13-24-46,84,depth_duration_stimuli/002570_2014-06-24_13-59-54_094959634447_rgbf000059-resize_0/002570_2014-06-24_13-59-54_094959634447_rgbf000059-resize_0-target.png,250,4.037,6,6559,248,meters,jsons/v1_VE250_randls_75_rotated.json,887337,1131078,61,Woman
84,911881,DepthScenes,duration_manipulation_targetAtFixation,jsons/v1_VE250_randls_75_rotated.json,http://54.235.29.9/FacialAge/BNav_EC2/DepthDuration/v2_depth_duration_MTurk/v2_DepthDuration_HTML.html#113,113,1366,625,1366,768,8-20-2022,13-24-46,85,depth_duration_stimuli/000734_2014-06-08_17-39-11_260595134347_rgbf000128-resize_2/000734_2014-06-08_17-39-11_260595134347_rgbf000128-resize_2-target.png,250,4.098,6,4364,252,meters,jsons/v1_VE250_randls_75_rotated.json,887337,1131078,61,Woman
85,911881,DepthScenes,duration_manipulation_targetAtFixation,jsons/v1_VE250_randls_75_rotated.json,http://54.235.29.9/FacialAge/BNav_EC2/DepthDuration/v2_depth_duration_MTurk/v2_DepthDuration_HTML.html#113,113,1366,625,1366,768,8-20-2022,13-24-46,86,depth_duration_stimuli/000739_2014-06-08_18-45-58_260595134347_rgbf000068-resize_1/000739_2014-06-08_18-45-58_260595134347_rgbf000068-resize_1-target.png,250,3.534,5,4177,249,meters,jsons/v1_VE250_randls_75_rotated.json,887337,1131078,61,Woman
86,911881,DepthScenes,duration_manipulation_targetAtFixation,jsons/v1_VE250_randls_75_rotated.json,http://54.235.29.9/FacialAge/BNav_EC2/DepthDuration/v2_depth_duration_MTurk/v2_DepthDuration_HTML.html#113,113,1366,625,1366,768,8-20-2022,13-24-46,87,depth_duration_stimuli/001032_2014-06-08_13-23-17_260595134347_rgbf000021-resize_3/001032_2014-06-08_13-23-17_260595134347_rgbf000021-resize_3-target.png,250,3.2725,6,4055,235,meters,jsons/v1_VE250_randls_75_rotated.json,887337,1131078,61,Woman
87,911881,DepthScenes,duration_manipulation_targetAtFixation,jsons/v1_VE250_randls_75_rotated.json,http://54.235.29.9/FacialAge/BNav_EC2/DepthDuration/v2_depth_duration_MTurk/v2_DepthDuration_HTML.html#113,113,1366,625,1366,768,8-20-2022,13-24-46,88,depth_duration_stimuli/001059_2014-06-08_21-53-27_260595134347_rgbf000061-resize_4/001059_2014-06-08_21-53-27_260595134347_rgbf000061-resize_4-target.png,250,2.4185,5,4298,249,meters,jsons/v1_VE250_randls_75_rotated.json,887337,1131078,61,Woman
88,911881,DepthScenes,duration_manipulation_targetAtFixation,jsons/v1_VE250_randls_75_rotated.json,http://54.235.29.9/FacialAge/BNav_EC2/DepthDuration/v2_depth_duration_MTurk/v2_DepthDuration_HTML.html#113,113,1366,625,1366,768,8-20-2022,13-24-46,89,depth_duration_stimuli/003495_2014-05-21_16-01-51_094959634447_rgbf000100-resize_3/003495_2014-05-21_16-01-51_094959634447_rgbf000100-resize_3-target.png,250,1.6255,2,3666,251,meters,jsons/v1_VE250_randls_75_rotated.json,887337,1131078,61,Woman
89,911881,DepthScenes,duration_manipulation_targetAtFixation,jsons/v1_VE250_randls_75_rotated.json,http://54.235.29.9/FacialAge/BNav_EC2/DepthDuration/v2_depth_duration_MTurk/v2_DepthDuration_HTML.html#113,113,1366,625,1366,768,8-20-2022,13-24-46,90,depth_duration_stimuli/001244_2014-06-17_16-47-45_260595134347_rgbf000030-resize_4/001244_2014-06-17_16-47-45_260595134347_rgbf000030-resize_4-target.png,250,2.0425,4,4473,256,meters,jsons/v1_VE250_randls_75_rotated.json,887337,1131078,61,Woman
90,911881,DepthScenes,duration_manipulation_targetAtFixation,jsons/v1_VE250_randls_75_rotated.json,http://54.235.29.9/FacialAge/BNav_EC2/DepthDuration/v2_depth_duration_MTurk/v2_DepthDuration_HTML.html#113,113,1366,625,1366,768,8-20-2022,13-24-46,91,depth_duration_stimuli/003010_2014-06-15_12-54-35_094959634447_rgbf000112-resize_0/003010_2014-06-15_12-54-35_094959634447_rgbf000112-resize_0-target.png,250,3.1185,2,3466,230,meters,jsons/v1_VE250_randls_75_rotated.json,887337,1131078,61,Woman
91,911881,DepthScenes,duration_manipulation_targetAtFixation,jsons/v1_VE250_randls_75_rotated.json,http://54.235.29.9/FacialAge/BNav_EC2/DepthDuration/v2_depth_duration_MTurk/v2_DepthDuration_HTML.html#113,113,1366,625,1366,768,8-20-2022,13-24-46,92,depth_duration_stimuli/001810_2014-06-26_20-51-35_260595134347_rgbf000040-resize_3/001810_2014-06-26_20-51-35_260595134347_rgbf000040-resize_3-target.png,250,2.2525,2,4857,239,meters,jsons/v1_VE250_randls_75_rotated.json,887337,1131078,61,Woman
92,911881,DepthScenes,duration_manipulation_targetAtFixation,jsons/v1_VE250_randls_75_rotated.json,http://54.235.29.9/FacialAge/BNav_EC2/DepthDuration/v2_depth_duration_MTurk/v2_DepthDuration_HTML.html#113,113,1366,625,1366,768,8-20-2022,13-24-46,93,depth_duration_stimuli/001584_2014-06-20_11-07-43_260595134347_rgbf000002-resize_1/001584_2014-06-20_11-07-43_260595134347_rgbf000002-resize_1-target.png,250,3.53,5,4410,257,meters,jsons/v1_VE250_randls_75_rotated.json,887337,1131078,61,Woman
93,911881,DepthScenes,duration_manipulation_targetAtFixation,jsons/v1_VE250_randls_75_rotated.json,http://54.235.29.9/FacialAge/BNav_EC2/DepthDuration/v2_depth_duration_MTurk/v2_DepthDuration_HTML.html#113,113,1366,625,1366,768,8-20-2022,13-24-46,94,depth_duration_stimuli/003621_2014-05-23_18-06-08_094959634447_rgbf000101-resize_1/003621_2014-05-23_18-06-08_094959634447_rgbf000101-resize_1-target.png,250,3.9835,4,4234,236,meters,jsons/v1_VE250_randls_75_rotated.json,887337,1131078,61,Woman
94,911881,DepthScenes,duration_manipulation_targetAtFixation,jsons/v1_VE250_randls_75_rotated.json,http://54.235.29.9/FacialAge/BNav_EC2/DepthDuration/v2_depth_duration_MTurk/v2_DepthDuration_HTML.html#113,113,1366,625,1366,768,8-20-2022,13-24-46,95,depth_duration_stimuli/002637_2014-06-24_14-51-13_094959634447_rgbf000066-resize_4/002637_2014-06-24_14-51-13_094959634447_rgbf000066-resize_4-target.png,250,1.9955,8,3910,244,meters,jsons/v1_VE250_randls_75_rotated.json,887337,1131078,61,Woman
95,911881,DepthScenes,duration_manipulation_targetAtFixation,jsons/v1_VE250_randls_75_rotated.json,http://54.235.29.9/FacialAge/BNav_EC2/DepthDuration/v2_depth_duration_MTurk/v2_DepthDuration_HTML.html#113,113,1366,625,1366,768,8-20-2022,13-24-46,96,depth_duration_stimuli/003534_2014-05-22_15-06-10_094959634447_rgbf000102-resize_4/003534_2014-05-22_15-06-10_094959634447_rgbf000102-resize_4-target.png,250,1.426,6,3784,240,meters,jsons/v1_VE250_randls_75_rotated.json,887337,1131078,61,Woman
96,911881,DepthScenes,duration_manipulation_targetAtFixation,jsons/v1_VE250_randls_75_rotated.json,http://54.235.29.9/FacialAge/BNav_EC2/DepthDuration/v2_depth_duration_MTurk/v2_DepthDuration_HTML.html#113,113,1366,625,1366,768,8-20-2022,13-24-46,97,depth_duration_stimuli/002199_2014-06-28_18-33-56_260595134347_rgbf000074-resize_0/002199_2014-06-28_18-33-56_260595134347_rgbf000074-resize_0-target.png,250,1.996,4,4302,239,meters,jsons/v1_VE250_randls_75_rotated.json,887337,1131078,61,Woman
97,911881,DepthScenes,duration_manipulation_targetAtFixation,jsons/v1_VE250_randls_75_rotated.json,http://54.235.29.9/FacialAge/BNav_EC2/DepthDuration/v2_depth_duration_MTurk/v2_DepthDuration_HTML.html#113,113,1366,625,1366,768,8-20-2022,13-24-46,98,depth_duration_stimuli/001056_2014-06-08_18-46-44_260595134347_rgbf000068-resize_0/001056_2014-06-08_18-46-44_260595134347_rgbf000068-resize_0-target.png,250,2.6625,6,4059,244,meters,jsons/v1_VE250_randls_75_rotated.json,887337,1131078,61,Woman
98,911881,DepthScenes,duration_manipulation_targetAtFixation,jsons/v1_VE250_randls_75_rotated.json,http://54.235.29.9/FacialAge/BNav_EC2/DepthDuration/v2_depth_duration_MTurk/v2_DepthDuration_HTML.html#113,113,1366,625,1366,768,8-20-2022,13-24-46,99,depth_duration_stimuli/001222_2014-06-17_16-24-06_260595134347_rgbf000073-resize_0/001222_2014-06-17_16-24-06_260595134347_rgbf000073-resize-original.jpg,250,1.4385,5,6125,243,meters,jsons/v1_VE250_randls_75_rotated.json,887337,1131078,61,Woman
99,911881,DepthScenes,duration_manipulation_targetAtFixation,jsons/v1_VE250_randls_75_rotated.json,http://54.235.29.9/FacialAge/BNav_EC2/DepthDuration/v2_depth_duration_MTurk/v2_DepthDuration_HTML.html#113,113,1366,625,1366,768,8-20-2022,13-24-46,100,depth_duration_stimuli/000665_2014-06-09_20-42-35_260595134347_rgbf000110-resize_1/000665_2014-06-09_20-42-35_260595134347_rgbf000110-resize_1-target.png,250,3.057,4,5530,247,meters,jsons/v1_VE250_randls_75_rotated.json,887337,1131078,61,Woman
100,911881,DepthScenes,duration_manipulation_targetAtFixation,jsons/v1_VE250_randls_75_rotated.json,http://54.235.29.9/FacialAge/BNav_EC2/DepthDuration/v2_depth_duration_MTurk/v2_DepthDuration_HTML.html#113,113,1366,625,1366,768,8-20-2022,13-24-46,101,depth_duration_stimuli/001150_2014-06-17_15-27-34_260595134347_rgbf000108-resize_2/001150_2014-06-17_15-27-34_260595134347_rgbf000108-resize_2-target.png,250,4.0325,4,5023,256,meters,jsons/v1_VE250_randls_75_rotated.json,887337,1131078,61,Woman
101,911881,DepthScenes,duration_manipulation_targetAtFixation,jsons/v1_VE250_randls_75_rotated.json,http://54.235.29.9/FacialAge/BNav_EC2/DepthDuration/v2_depth_duration_MTurk/v2_DepthDuration_HTML.html#113,113,1366,625,1366,768,8-20-2022,13-24-46,102,depth_duration_stimuli/003228_2014-05-14_13-42-35_094959634447_rgbf000101-resize_1/003228_2014-05-14_13-42-35_094959634447_rgbf000101-resize_1-target.png,250,1.9680000000000002,2,6266,253,meters,jsons/v1_VE250_randls_75_rotated.json,887337,1131078,61,Woman
102,911881,DepthScenes,duration_manipulation_targetAtFixation,jsons/v1_VE250_randls_75_rotated.json,http://54.235.29.9/FacialAge/BNav_EC2/DepthDuration/v2_depth_duration_MTurk/v2_DepthDuration_HTML.html#113,113,1366,625,1366,768,8-20-2022,13-24-46,103,depth_duration_stimuli/002600_2014-06-24_14-27-04_094959634447_rgbf000074-resize_2/002600_2014-06-24_14-27-04_094959634447_rgbf000074-resize_2-target.png,250,2.7575,0,6911,320,meters,jsons/v1_VE250_randls_75_rotated.json,887337,1131078,61,Woman
103,911881,DepthScenes,duration_manipulation_targetAtFixation,jsons/v1_VE250_randls_75_rotated.json,http://54.235.29.9/FacialAge/BNav_EC2/DepthDuration/v2_depth_duration_MTurk/v2_DepthDuration_HTML.html#113,113,1366,625,1366,768,8-20-2022,13-24-46,104,depth_duration_stimuli/001132_2014-06-17_14-48-54_260595134347_rgbf000100-resize_2/001132_2014-06-17_14-48-54_260595134347_rgbf000100-resize_2-target.png,250,3.753,4,7344,247,meters,jsons/v1_VE250_randls_75_rotated.json,887337,1131078,61,Woman
104,911881,DepthScenes,duration_manipulation_targetAtFixation,jsons/v1_VE250_randls_75_rotated.json,http://54.235.29.9/FacialAge/BNav_EC2/DepthDuration/v2_depth_duration_MTurk/v2_DepthDuration_HTML.html#113,113,1366,625,1366,768,8-20-2022,13-24-46,105,depth_duration_stimuli/001133_2014-06-17_14-49-16_260595134347_rgbf000100-resize_0/001133_2014-06-17_14-49-16_260595134347_rgbf000100-resize_0-target.png,250,4.2115,0,4237,249,meters,jsons/v1_VE250_randls_75_rotated.json,887337,1131078,61,Woman
105,911881,DepthScenes,duration_manipulation_targetAtFixation,jsons/v1_VE250_randls_75_rotated.json,http://54.235.29.9/FacialAge/BNav_EC2/DepthDuration/v2_depth_duration_MTurk/v2_DepthDuration_HTML.html#113,113,1366,625,1366,768,8-20-2022,13-24-46,106,depth_duration_stimuli/002344_2014-06-28_20-06-29_260595134347_rgbf000030-resize_1/002344_2014-06-28_20-06-29_260595134347_rgbf000030-resize_1-target.png,250,1.5795,0,4053,281,meters,jsons/v1_VE250_randls_75_rotated.json,887337,1131078,61,Woman
106,911881,DepthScenes,duration_manipulation_targetAtFixation,jsons/v1_VE250_randls_75_rotated.json,http://54.235.29.9/FacialAge/BNav_EC2/DepthDuration/v2_depth_duration_MTurk/v2_DepthDuration_HTML.html#113,113,1366,625,1366,768,8-20-2022,13-24-46,107,depth_duration_stimuli/002725_2014-06-22_11-47-51_094959634447_rgbf000070-resize_1/002725_2014-06-22_11-47-51_094959634447_rgbf000070-resize_1-target.png,250,2.195,5,5489,249,meters,jsons/v1_VE250_randls_75_rotated.json,887337,1131078,61,Woman
107,911881,DepthScenes,duration_manipulation_targetAtFixation,jsons/v1_VE250_randls_75_rotated.json,http://54.235.29.9/FacialAge/BNav_EC2/DepthDuration/v2_depth_duration_MTurk/v2_DepthDuration_HTML.html#113,113,1366,625,1366,768,8-20-2022,13-24-46,108,depth_duration_stimuli/002750_2014-06-22_19-08-03_094959634447_rgbf000094-resize_4/002750_2014-06-22_19-08-03_094959634447_rgbf000094-resize_4-target.png,250,2.354,5,3713,240,meters,jsons/v1_VE250_randls_75_rotated.json,887337,1131078,61,Woman
108,911881,DepthScenes,duration_manipulation_targetAtFixation,jsons/v1_VE250_randls_75_rotated.json,http://54.235.29.9/FacialAge/BNav_EC2/DepthDuration/v2_depth_duration_MTurk/v2_DepthDuration_HTML.html#113,113,1366,625,1366,768,8-20-2022,13-24-46,109,depth_duration_stimuli/002549_2014-06-24_13-41-39_094959634447_rgbf000022-resize_3/002549_2014-06-24_13-41-39_094959634447_rgbf000022-resize_3-target.png,250,1.476,4,4317,264,meters,jsons/v1_VE250_randls_75_rotated.json,887337,1131078,61,Woman
109,911881,DepthScenes,duration_manipulation_targetAtFixation,jsons/v1_VE250_randls_75_rotated.json,http://54.235.29.9/FacialAge/BNav_EC2/DepthDuration/v2_depth_duration_MTurk/v2_DepthDuration_HTML.html#113,113,1366,625,1366,768,8-20-2022,13-24-46,110,depth_duration_stimuli/002875_2014-06-01_15-19-00_094959634447_rgbf000151-resize_1/002875_2014-06-01_15-19-00_094959634447_rgbf000151-resize_1-target.png,250,1.9675,6,4022,274,meters,jsons/v1_VE250_randls_75_rotated.json,887337,1131078,61,Woman
110,911881,DepthScenes,duration_manipulation_targetAtFixation,jsons/v1_VE250_randls_75_rotated.json,http://54.235.29.9/FacialAge/BNav_EC2/DepthDuration/v2_depth_duration_MTurk/v2_DepthDuration_HTML.html#113,113,1366,625,1366,768,8-20-2022,13-24-46,111,depth_duration_stimuli/001011_2014-06-08_23-18-54_260595134347_rgbf000044-resize_4/001011_2014-06-08_23-18-54_260595134347_rgbf000044-resize_4-target.png,250,2.4730000000000003,5,4509,251,meters,jsons/v1_VE250_randls_75_rotated.json,887337,1131078,61,Woman
111,911881,DepthScenes,duration_manipulation_targetAtFixation,jsons/v1_VE250_randls_75_rotated.json,http://54.235.29.9/FacialAge/BNav_EC2/DepthDuration/v2_depth_duration_MTurk/v2_DepthDuration_HTML.html#113,113,1366,625,1366,768,8-20-2022,13-24-46,112,depth_duration_stimuli/002657_2014-06-13_15-29-54_094959634447_rgbf000150-resize_1/002657_2014-06-13_15-29-54_094959634447_rgbf000150-resize_1-target.png,250,4.919,6,4159,243,meters,jsons/v1_VE250_randls_75_rotated.json,887337,1131078,61,Woman
112,911881,DepthScenes,duration_manipulation_targetAtFixation,jsons/v1_VE250_randls_75_rotated.json,http://54.235.29.9/FacialAge/BNav_EC2/DepthDuration/v2_depth_duration_MTurk/v2_DepthDuration_HTML.html#113,113,1366,625,1366,768,8-20-2022,13-24-46,113,depth_duration_stimuli/002375_2014-06-28_20-13-44_260595134347_rgbf000032-resize_1/002375_2014-06-28_20-13-44_260595134347_rgbf000032-resize_1-target.png,250,4.0175,4,4108,244,meters,jsons/v1_VE250_randls_75_rotated.json,887337,1131078,61,Woman
113,911881,DepthScenes,duration_manipulation_targetAtFixation,jsons/v1_VE250_randls_75_rotated.json,http://54.235.29.9/FacialAge/BNav_EC2/DepthDuration/v2_depth_duration_MTurk/v2_DepthDuration_HTML.html#113,113,1366,625,1366,768,8-20-2022,13-24-46,114,depth_duration_stimuli/002995_2014-06-15_12-31-26_094959634447_rgbf000150-resize_1/002995_2014-06-15_12-31-26_094959634447_rgbf000150-resize_1-target.png,250,3.8360000000000003,0,3639,253,meters,jsons/v1_VE250_randls_75_rotated.json,887337,1131078,61,Woman
114,911881,DepthScenes,duration_manipulation_targetAtFixation,jsons/v1_VE250_randls_75_rotated.json,http://54.235.29.9/FacialAge/BNav_EC2/DepthDuration/v2_depth_duration_MTurk/v2_DepthDuration_HTML.html#113,113,1366,625,1366,768,8-20-2022,13-24-46,115,depth_duration_stimuli/002748_2014-06-22_19-07-22_094959634447_rgbf000078-resize_1/002748_2014-06-22_19-07-22_094959634447_rgbf000078-resize_1-target.png,250,4.6705,0,3809,245,meters,jsons/v1_VE250_randls_75_rotated.json,887337,1131078,61,Woman
115,911881,DepthScenes,duration_manipulation_targetAtFixation,jsons/v1_VE250_randls_75_rotated.json,http://54.235.29.9/FacialAge/BNav_EC2/DepthDuration/v2_depth_duration_MTurk/v2_DepthDuration_HTML.html#113,113,1366,625,1366,768,8-20-2022,13-24-46,116,depth_duration_stimuli/003081_2014-06-15_15-19-16_094959634447_rgbf000150-resize_1/003081_2014-06-15_15-19-16_094959634447_rgbf000150-resize_1-target.png,250,3.9125,2,4475,281,meters,jsons/v1_VE250_randls_75_rotated.json,887337,1131078,61,Woman
116,911881,DepthScenes,duration_manipulation_targetAtFixation,jsons/v1_VE250_randls_75_rotated.json,http://54.235.29.9/FacialAge/BNav_EC2/DepthDuration/v2_depth_duration_MTurk/v2_DepthDuration_HTML.html#113,113,1366,625,1366,768,8-20-2022,13-24-46,117,depth_duration_stimuli/001417_2014-06-19_16-25-36_260595134347_rgbf000115-resize_5/001417_2014-06-19_16-25-36_260595134347_rgbf000115-resize_5-target.png,250,4.6255,0,3872,243,meters,jsons/v1_VE250_randls_75_rotated.json,887337,1131078,61,Woman
117,911881,DepthScenes,duration_manipulation_targetAtFixation,jsons/v1_VE250_randls_75_rotated.json,http://54.235.29.9/FacialAge/BNav_EC2/DepthDuration/v2_depth_duration_MTurk/v2_DepthDuration_HTML.html#113,113,1366,625,1366,768,8-20-2022,13-24-46,118,depth_duration_stimuli/000556_2014-06-09_22-42-56_260595134347_rgbf000214-resize_1/000556_2014-06-09_22-42-56_260595134347_rgbf000214-resize_1-target.png,250,4.8415,3,3943,251,meters,jsons/v1_VE250_randls_75_rotated.json,887337,1131078,61,Woman
118,911881,DepthScenes,duration_manipulation_targetAtFixation,jsons/v1_VE250_randls_75_rotated.json,http://54.235.29.9/FacialAge/BNav_EC2/DepthDuration/v2_depth_duration_MTurk/v2_DepthDuration_HTML.html#113,113,1366,625,1366,768,8-20-2022,13-24-46,119,depth_duration_stimuli/001158_2014-06-17_15-32-16_260595134347_rgbf000138-resize_2/001158_2014-06-17_15-32-16_260595134347_rgbf000138-resize_2-target.png,250,4.5315,5,4656,251,meters,jsons/v1_VE250_randls_75_rotated.json,887337,1131078,61,Woman
119,911881,DepthScenes,duration_manipulation_targetAtFixation,jsons/v1_VE250_randls_75_rotated.json,http://54.235.29.9/FacialAge/BNav_EC2/DepthDuration/v2_depth_duration_MTurk/v2_DepthDuration_HTML.html#113,113,1366,625,1366,768,8-20-2022,13-24-46,120,depth_duration_stimuli/000787_2014-06-08_22-33-53_260595134347_rgbf000175-resize_1/000787_2014-06-08_22-33-53_260595134347_rgbf000175-resize-original.jpg,250,4.784,2,4330,251,meters,jsons/v1_VE250_randls_75_rotated.json,887337,1131078,61,Woman
120,911881,DepthScenes,duration_manipulation_targetAtFixation,jsons/v1_VE250_randls_75_rotated.json,http://54.235.29.9/FacialAge/BNav_EC2/DepthDuration/v2_depth_duration_MTurk/v2_DepthDuration_HTML.html#113,113,1366,625,1366,768,8-20-2022,13-24-46,121,depth_duration_stimuli/001214_2014-06-17_16-13-55_260595134347_rgbf000111-resize_0/001214_2014-06-17_16-13-55_260595134347_rgbf000111-resize_0-target.png,250,2.6505,5,4170,231,meters,jsons/v1_VE250_randls_75_rotated.json,887337,1131078,61,Woman
121,911881,DepthScenes,duration_manipulation_targetAtFixation,jsons/v1_VE250_randls_75_rotated.json,http://54.235.29.9/FacialAge/BNav_EC2/DepthDuration/v2_depth_duration_MTurk/v2_DepthDuration_HTML.html#113,113,1366,625,1366,768,8-20-2022,13-24-46,122,depth_duration_stimuli/000810_2014-06-08_17-20-01_260595134347_rgbf000105-resize_0/000810_2014-06-08_17-20-01_260595134347_rgbf000105-resize_0-target.png,250,1.4865,4,5857,246,meters,jsons/v1_VE250_randls_75_rotated.json,887337,1131078,61,Woman
122,911881,DepthScenes,duration_manipulation_targetAtFixation,jsons/v1_VE250_randls_75_rotated.json,http://54.235.29.9/FacialAge/BNav_EC2/DepthDuration/v2_depth_duration_MTurk/v2_DepthDuration_HTML.html#113,113,1366,625,1366,768,8-20-2022,13-24-46,123,depth_duration_stimuli/000635_2014-06-08_16-38-42_260595134347_rgbf000106-resize_1/000635_2014-06-08_16-38-42_260595134347_rgbf000106-resize_1-target.png,250,2.074,2,3403,245,meters,jsons/v1_VE250_randls_75_rotated.json,887337,1131078,61,Woman
123,911881,DepthScenes,duration_manipulation_targetAtFixation,jsons/v1_VE250_randls_75_rotated.json,http://54.235.29.9/FacialAge/BNav_EC2/DepthDuration/v2_depth_duration_MTurk/v2_DepthDuration_HTML.html#113,113,1366,625,1366,768,8-20-2022,13-24-46,124,depth_duration_stimuli/002279_2014-06-28_18-55-32_260595134347_rgbf000040-resize_5/002279_2014-06-28_18-55-32_260595134347_rgbf000040-resize_5-target.png,250,1.5043333333333,3,3167,236,meters,jsons/v1_VE250_randls_75_rotated.json,887337,1131078,61,Woman
124,911881,DepthScenes,duration_manipulation_targetAtFixation,jsons/v1_VE250_randls_75_rotated.json,http://54.235.29.9/FacialAge/BNav_EC2/DepthDuration/v2_depth_duration_MTurk/v2_DepthDuration_HTML.html#113,113,1366,625,1366,768,8-20-2022,13-24-46,125,depth_duration_stimuli/000109_2014-05-14_23-41-52_260595134347_rgbf000035-resize_9/000109_2014-05-14_23-41-52_260595134347_rgbf000035-resize_9-target.png,250,1.3545,4,4233,247,meters,jsons/v1_VE250_randls_75_rotated.json,887337,1131078,61,Woman
125,911881,DepthScenes,duration_manipulation_targetAtFixation,jsons/v1_VE250_randls_75_rotated.json,http://54.235.29.9/FacialAge/BNav_EC2/DepthDuration/v2_depth_duration_MTurk/v2_DepthDuration_HTML.html#113,113,1366,625,1366,768,8-20-2022,13-24-46,126,depth_duration_stimuli/000470_2014-06-09_19-42-40_260595134347_rgbf000094-resize_1/000470_2014-06-09_19-42-40_260595134347_rgbf000094-resize_1-target.png,250,1.831,0,3709,250,meters,jsons/v1_VE250_randls_75_rotated.json,887337,1131078,61,Woman
126,911881,DepthScenes,duration_manipulation_targetAtFixation,jsons/v1_VE250_randls_75_rotated.json,http://54.235.29.9/FacialAge/BNav_EC2/DepthDuration/v2_depth_duration_MTurk/v2_DepthDuration_HTML.html#113,113,1366,625,1366,768,8-20-2022,13-24-46,127,depth_duration_stimuli/001136_2014-06-17_15-19-41_260595134347_rgbf000076-resize_3/001136_2014-06-17_15-19-41_260595134347_rgbf000076-resize_3-target.png,250,1.8655,0,2984,251,meters,jsons/v1_VE250_randls_75_rotated.json,887337,1131078,61,Woman
127,911881,DepthScenes,duration_manipulation_targetAtFixation,jsons/v1_VE250_randls_75_rotated.json,http://54.235.29.9/FacialAge/BNav_EC2/DepthDuration/v2_depth_duration_MTurk/v2_DepthDuration_HTML.html#113,113,1366,625,1366,768,8-20-2022,13-24-46,128,depth_duration_stimuli/001164_2014-06-17_15-35-46_260595134347_rgbf000085-resize_3/001164_2014-06-17_15-35-46_260595134347_rgbf000085-resize_3-target.png,250,2.354,2,3753,252,meters,jsons/v1_VE250_randls_75_rotated.json,887337,1131078,61,Woman
128,911881,DepthScenes,duration_manipulation_targetAtFixation,jsons/v1_VE250_randls_75_rotated.json,http://54.235.29.9/FacialAge/BNav_EC2/DepthDuration/v2_depth_duration_MTurk/v2_DepthDuration_HTML.html#113,113,1366,625,1366,768,8-20-2022,13-24-46,129,depth_duration_stimuli/003423_2014-05-21_10-23-26_094959634447_rgbf002665-resize_2/003423_2014-05-21_10-23-26_094959634447_rgbf002665-resize_2-target.png,250,3.2575,3,3251,249,meters,jsons/v1_VE250_randls_75_rotated.json,887337,1131078,61,Woman
129,911881,DepthScenes,duration_manipulation_targetAtFixation,jsons/v1_VE250_randls_75_rotated.json,http://54.235.29.9/FacialAge/BNav_EC2/DepthDuration/v2_depth_duration_MTurk/v2_DepthDuration_HTML.html#113,113,1366,625,1366,768,8-20-2022,13-24-46,130,depth_duration_stimuli/002905_2014-06-03_18-04-43_094959634447_rgbf000151-resize_2/002905_2014-06-03_18-04-43_094959634447_rgbf000151-resize_2-target.png,250,2.0295,5,3701,234,meters,jsons/v1_VE250_randls_75_rotated.json,887337,1131078,61,Woman
130,911881,DepthScenes,duration_manipulation_targetAtFixation,jsons/v1_VE250_randls_75_rotated.json,http://54.235.29.9/FacialAge/BNav_EC2/DepthDuration/v2_depth_duration_MTurk/v2_DepthDuration_HTML.html#113,113,1366,625,1366,768,8-20-2022,13-24-46,131,depth_duration_stimuli/000137_2014-05-20_17-04-49_260595134347_rgbf000120-resize_1/000137_2014-05-20_17-04-49_260595134347_rgbf000120-resize_1-target.png,250,3.786,6,4951,254,meters,jsons/v1_VE250_randls_75_rotated.json,887337,1131078,61,Woman
131,911881,DepthScenes,duration_manipulation_targetAtFixation,jsons/v1_VE250_randls_75_rotated.json,http://54.235.29.9/FacialAge/BNav_EC2/DepthDuration/v2_depth_duration_MTurk/v2_DepthDuration_HTML.html#113,113,1366,625,1366,768,8-20-2022,13-24-46,132,depth_duration_stimuli/000736_2014-06-08_18-24-15_260595134347_rgbf000206-resize_3/000736_2014-06-08_18-24-15_260595134347_rgbf000206-resize_3-target.png,250,3.515,5,3635,250,meters,jsons/v1_VE250_randls_75_rotated.json,887337,1131078,61,Woman
132,911881,DepthScenes,duration_manipulation_targetAtFixation,jsons/v1_VE250_randls_75_rotated.json,http://54.235.29.9/FacialAge/BNav_EC2/DepthDuration/v2_depth_duration_MTurk/v2_DepthDuration_HTML.html#113,113,1366,625,1366,768,8-20-2022,13-24-46,133,depth_duration_stimuli/000866_2014-06-09_20-45-42_260595134347_rgbf000139-resize_1/000866_2014-06-09_20-45-42_260595134347_rgbf000139-resize_1-target.png,250,3.2155,4,8965,250,meters,jsons/v1_VE250_randls_75_rotated.json,887337,1131078,61,Woman
133,911881,DepthScenes,duration_manipulation_targetAtFixation,jsons/v1_VE250_randls_75_rotated.json,http://54.235.29.9/FacialAge/BNav_EC2/DepthDuration/v2_depth_duration_MTurk/v2_DepthDuration_HTML.html#113,113,1366,625,1366,768,8-20-2022,13-24-46,134,depth_duration_stimuli/002989_2014-06-15_12-25-03_094959634447_rgbf000150-resize_3/002989_2014-06-15_12-25-03_094959634447_rgbf000150-resize_3-target.png,250,4.1975,5,5999,242,meters,jsons/v1_VE250_randls_75_rotated.json,887337,1131078,61,Woman
134,911881,DepthScenes,duration_manipulation_targetAtFixation,jsons/v1_VE250_randls_75_rotated.json,http://54.235.29.9/FacialAge/BNav_EC2/DepthDuration/v2_depth_duration_MTurk/v2_DepthDuration_HTML.html#113,113,1366,625,1366,768,8-20-2022,13-24-46,135,depth_duration_stimuli/000375_2014-06-08_11-17-29_260595134347_rgbf000133-resize_2/000375_2014-06-08_11-17-29_260595134347_rgbf000133-resize-original.jpg,250,4.718,2,4039,241,meters,jsons/v1_VE250_randls_75_rotated.json,887337,1131078,61,Woman
135,911881,DepthScenes,duration_manipulation_targetAtFixation,jsons/v1_VE250_randls_75_rotated.json,http://54.235.29.9/FacialAge/BNav_EC2/DepthDuration/v2_depth_duration_MTurk/v2_DepthDuration_HTML.html#113,113,1366,625,1366,768,8-20-2022,13-24-46,136,depth_duration_stimuli/000483_2014-06-09_20-41-45_260595134347_rgbf000116-resize_4/000483_2014-06-09_20-41-45_260595134347_rgbf000116-resize_4-target.png,250,1.337,6,4017,282,meters,jsons/v1_VE250_randls_75_rotated.json,887337,1131078,61,Woman
136,911881,DepthScenes,duration_manipulation_targetAtFixation,jsons/v1_VE250_randls_75_rotated.json,http://54.235.29.9/FacialAge/BNav_EC2/DepthDuration/v2_depth_duration_MTurk/v2_DepthDuration_HTML.html#113,113,1366,625,1366,768,8-20-2022,13-24-46,137,depth_duration_stimuli/000469_2014-06-09_19-42-10_260595134347_rgbf000081-resize_1/000469_2014-06-09_19-42-10_260595134347_rgbf000081-resize_1-target.png,250,1.652,5,5393,235,meters,jsons/v1_VE250_randls_75_rotated.json,887337,1131078,61,Woman
137,911881,DepthScenes,duration_manipulation_targetAtFixation,jsons/v1_VE250_randls_75_rotated.json,http://54.235.29.9/FacialAge/BNav_EC2/DepthDuration/v2_depth_duration_MTurk/v2_DepthDuration_HTML.html#113,113,1366,625,1366,768,8-20-2022,13-24-46,138,depth_duration_stimuli/002758_2014-06-22_19-11-20_094959634447_rgbf000128-resize_1/002758_2014-06-22_19-11-20_094959634447_rgbf000128-resize_1-target.png,250,2.555,4,3944,251,meters,jsons/v1_VE250_randls_75_rotated.json,887337,1131078,61,Woman
138,911881,DepthScenes,duration_manipulation_targetAtFixation,jsons/v1_VE250_randls_75_rotated.json,http://54.235.29.9/FacialAge/BNav_EC2/DepthDuration/v2_depth_duration_MTurk/v2_DepthDuration_HTML.html#113,113,1366,625,1366,768,8-20-2022,13-24-46,139,depth_duration_stimuli/002630_2014-06-24_14-47-50_094959634447_rgbf000055-resize_1/002630_2014-06-24_14-47-50_094959634447_rgbf000055-resize_1-target.png,250,3.0095,5,4074,241,meters,jsons/v1_VE250_randls_75_rotated.json,887337,1131078,61,Woman
139,911881,DepthScenes,duration_manipulation_targetAtFixation,jsons/v1_VE250_randls_75_rotated.json,http://54.235.29.9/FacialAge/BNav_EC2/DepthDuration/v2_depth_duration_MTurk/v2_DepthDuration_HTML.html#113,113,1366,625,1366,768,8-20-2022,13-24-46,140,depth_duration_stimuli/001571_2014-06-20_17-21-32_260595134347_rgbf000089-resize_1/001571_2014-06-20_17-21-32_260595134347_rgbf000089-resize_1-target.png,250,1.86,8,5726,247,meters,jsons/v1_VE250_randls_75_rotated.json,887337,1131078,61,Woman
140,911881,DepthScenes,duration_manipulation_targetAtFixation,jsons/v1_VE250_randls_75_rotated.json,http://54.235.29.9/FacialAge/BNav_EC2/DepthDuration/v2_depth_duration_MTurk/v2_DepthDuration_HTML.html#113,113,1366,625,1366,768,8-20-2022,13-24-46,141,depth_duration_stimuli/002272_2014-06-28_18-53-56_260595134347_rgbf000067-resize_2/002272_2014-06-28_18-53-56_260595134347_rgbf000067-resize_2-target.png,250,1.138,5,4148,235,meters,jsons/v1_VE250_randls_75_rotated.json,887337,1131078,61,Woman
141,911881,DepthScenes,duration_manipulation_targetAtFixation,jsons/v1_VE250_randls_75_rotated.json,http://54.235.29.9/FacialAge/BNav_EC2/DepthDuration/v2_depth_duration_MTurk/v2_DepthDuration_HTML.html#113,113,1366,625,1366,768,8-20-2022,13-24-46,142,depth_duration_stimuli/000927_2014-06-09_16-32-30_260595134347_rgbf000123-resize_3/000927_2014-06-09_16-32-30_260595134347_rgbf000123-resize_3-target.png,250,2.6785,0,4993,249,meters,jsons/v1_VE250_randls_75_rotated.json,887337,1131078,61,Woman
142,911881,DepthScenes,duration_manipulation_targetAtFixation,jsons/v1_VE250_randls_75_rotated.json,http://54.235.29.9/FacialAge/BNav_EC2/DepthDuration/v2_depth_duration_MTurk/v2_DepthDuration_HTML.html#113,113,1366,625,1366,768,8-20-2022,13-24-46,143,depth_duration_stimuli/001110_2014-06-15_17-25-28_260595134347_rgbf000150-resize_1/001110_2014-06-15_17-25-28_260595134347_rgbf000150-resize_1-target.png,250,1.7115,2,4866,249,meters,jsons/v1_VE250_randls_75_rotated.json,887337,1131078,61,Woman
143,911881,DepthScenes,duration_manipulation_targetAtFixation,jsons/v1_VE250_randls_75_rotated.json,http://54.235.29.9/FacialAge/BNav_EC2/DepthDuration/v2_depth_duration_MTurk/v2_DepthDuration_HTML.html#113,113,1366,625,1366,768,8-20-2022,13-24-46,144,depth_duration_stimuli/001052_2014-06-08_18-24-54_260595134347_rgbf000130-resize_1/001052_2014-06-08_18-24-54_260595134347_rgbf000130-resize_1-target.png,250,4.1045,5,4359,254,meters,jsons/v1_VE250_randls_75_rotated.json,887337,1131078,61,Woman
144,911881,DepthScenes,duration_manipulation_targetAtFixation,jsons/v1_VE250_randls_75_rotated.json,http://54.235.29.9/FacialAge/BNav_EC2/DepthDuration/v2_depth_duration_MTurk/v2_DepthDuration_HTML.html#113,113,1366,625,1366,768,8-20-2022,13-24-46,145,depth_duration_stimuli/002988_2014-06-15_12-24-20_094959634447_rgbf000150-resize_1/002988_2014-06-15_12-24-20_094959634447_rgbf000150-resize_1-target.png,250,4.7669999999999995,4,4707,247,meters,jsons/v1_VE250_randls_75_rotated.json,887337,1131078,61,Woman
145,911881,DepthScenes,duration_manipulation_targetAtFixation,jsons/v1_VE250_randls_75_rotated.json,http://54.235.29.9/FacialAge/BNav_EC2/DepthDuration/v2_depth_duration_MTurk/v2_DepthDuration_HTML.html#113,113,1366,625,1366,768,8-20-2022,13-24-46,146,depth_duration_stimuli/000677_2014-06-08_23-10-32_260595134347_rgbf000158-resize_6/000677_2014-06-08_23-10-32_260595134347_rgbf000158-resize_6-target.png,250,3.556,2,4252,264,meters,jsons/v1_VE250_randls_75_rotated.json,887337,1131078,61,Woman
146,911881,DepthScenes,duration_manipulation_targetAtFixation,jsons/v1_VE250_randls_75_rotated.json,http://54.235.29.9/FacialAge/BNav_EC2/DepthDuration/v2_depth_duration_MTurk/v2_DepthDuration_HTML.html#113,113,1366,625,1366,768,8-20-2022,13-24-46,147,depth_duration_stimuli/001029_2014-06-08_13-17-57_260595134347_rgbf000065-resize_1/001029_2014-06-08_13-17-57_260595134347_rgbf000065-resize_1-target.png,250,3.0835,3,3318,239,meters,jsons/v1_VE250_randls_75_rotated.json,887337,1131078,61,Woman
147,911881,DepthScenes,duration_manipulation_targetAtFixation,jsons/v1_VE250_randls_75_rotated.json,http://54.235.29.9/FacialAge/BNav_EC2/DepthDuration/v2_depth_duration_MTurk/v2_DepthDuration_HTML.html#113,113,1366,625,1366,768,8-20-2022,13-24-46,148,depth_duration_stimuli/002568_2014-06-24_13-59-21_094959634447_rgbf000062-resize_4/002568_2014-06-24_13-59-21_094959634447_rgbf000062-resize_4-target.png,250,3.015,4,3011,236,meters,jsons/v1_VE250_randls_75_rotated.json,887337,1131078,61,Woman
148,911881,DepthScenes,duration_manipulation_targetAtFixation,jsons/v1_VE250_randls_75_rotated.json,http://54.235.29.9/FacialAge/BNav_EC2/DepthDuration/v2_depth_duration_MTurk/v2_DepthDuration_HTML.html#113,113,1366,625,1366,768,8-20-2022,13-24-46,149,depth_duration_stimuli/003492_2014-05-21_15-50-55_094959634447_rgbf000828-resize_1/003492_2014-05-21_15-50-55_094959634447_rgbf000828-resize_1-target.png,250,4.06875,5,2847,239,meters,jsons/v1_VE250_randls_75_rotated.json,887337,1131078,61,Woman
149,911881,DepthScenes,duration_manipulation_targetAtFixation,jsons/v1_VE250_randls_75_rotated.json,http://54.235.29.9/FacialAge/BNav_EC2/DepthDuration/v2_depth_duration_MTurk/v2_DepthDuration_HTML.html#113,113,1366,625,1366,768,8-20-2022,13-24-46,150,depth_duration_stimuli/002136_2014-06-25_21-18-03_260595134347_rgbf000109-resize_3/002136_2014-06-25_21-18-03_260595134347_rgbf000109-resize_3-target.png,250,1.9569999999999999,5,3811,244,meters,jsons/v1_VE250_randls_75_rotated.json,887337,1131078,61,Woman
150,911881,DepthScenes,duration_manipulation_targetAtFixation,jsons/v1_VE250_randls_75_rotated.json,http://54.235.29.9/FacialAge/BNav_EC2/DepthDuration/v2_depth_duration_MTurk/v2_DepthDuration_HTML.html#113,113,1366,625,1366,768,8-20-2022,13-24-46,151,depth_duration_stimuli/002964_2014-06-08_17-46-11_094959634447_rgbf000091-resize_4/002964_2014-06-08_17-46-11_094959634447_rgbf000091-resize_4-target.png,250,1.6909999999999998,8,3877,254,meters,jsons/v1_VE250_randls_75_rotated.json,887337,1131078,61,Woman
151,911881,DepthScenes,duration_manipulation_targetAtFixation,jsons/v1_VE250_randls_75_rotated.json,http://54.235.29.9/FacialAge/BNav_EC2/DepthDuration/v2_depth_duration_MTurk/v2_DepthDuration_HTML.html#113,113,1366,625,1366,768,8-20-2022,13-24-46,152,depth_duration_stimuli/000569_2014-06-09_22-51-47_260595134347_rgbf000141-resize_3/000569_2014-06-09_22-51-47_260595134347_rgbf000141-resize-original.jpg,250,4.512,0,4109,240,meters,jsons/v1_VE250_randls_75_rotated.json,887337,1131078,61,Woman
152,911881,DepthScenes,duration_manipulation_targetAtFixation,jsons/v1_VE250_randls_75_rotated.json,http://54.235.29.9/FacialAge/BNav_EC2/DepthDuration/v2_depth_duration_MTurk/v2_DepthDuration_HTML.html#113,113,1366,625,1366,768,8-20-2022,13-24-46,153,depth_duration_stimuli/000409_2014-06-04_19-23-33_260595134347_rgbf000067-resize_0/000409_2014-06-04_19-23-33_260595134347_rgbf000067-resize_0-target.png,250,3.7335,5,3359,237,meters,jsons/v1_VE250_randls_75_rotated.json,887337,1131078,61,Woman
153,911881,DepthScenes,duration_manipulation_targetAtFixation,jsons/v1_VE250_randls_75_rotated.json,http://54.235.29.9/FacialAge/BNav_EC2/DepthDuration/v2_depth_duration_MTurk/v2_DepthDuration_HTML.html#113,113,1366,625,1366,768,8-20-2022,13-24-46,154,depth_duration_stimuli/002663_2014-06-13_15-50-26_094959634447_rgbf000075-resize_1/002663_2014-06-13_15-50-26_094959634447_rgbf000075-resize_1-target.png,250,4.7495,0,7914,247,meters,jsons/v1_VE250_randls_75_rotated.json,887337,1131078,61,Woman
154,911881,DepthScenes,duration_manipulation_targetAtFixation,jsons/v1_VE250_randls_75_rotated.json,http://54.235.29.9/FacialAge/BNav_EC2/DepthDuration/v2_depth_duration_MTurk/v2_DepthDuration_HTML.html#113,113,1366,625,1366,768,8-20-2022,13-24-46,155,depth_duration_stimuli/003083_2014-06-15_15-21-03_094959634447_rgbf000063-resize_1/003083_2014-06-15_15-21-03_094959634447_rgbf000063-resize_1-target.png,250,4.1405,5,3345,245,meters,jsons/v1_VE250_randls_75_rotated.json,887337,1131078,61,Woman
155,911881,DepthScenes,duration_manipulation_targetAtFixation,jsons/v1_VE250_randls_75_rotated.json,http://54.235.29.9/FacialAge/BNav_EC2/DepthDuration/v2_depth_duration_MTurk/v2_DepthDuration_HTML.html#113,113,1366,625,1366,768,8-20-2022,13-24-46,156,depth_duration_stimuli/000486_2014-06-09_20-47-20_260595134347_rgbf000143-resize_2/000486_2014-06-09_20-47-20_260595134347_rgbf000143-resize_2-target.png,250,4.8325,5,3298,246,meters,jsons/v1_VE250_randls_75_rotated.json,887337,1131078,61,Woman
156,911881,DepthScenes,duration_manipulation_targetAtFixation,jsons/v1_VE250_randls_75_rotated.json,http://54.235.29.9/FacialAge/BNav_EC2/DepthDuration/v2_depth_duration_MTurk/v2_DepthDuration_HTML.html#113,113,1366,625,1366,768,8-20-2022,13-24-46,157,depth_duration_stimuli/002678_2014-06-13_16-15-32_094959634447_rgbf000151-resize_6/002678_2014-06-13_16-15-32_094959634447_rgbf000151-resize_6-target.png,250,2.1830000000000003,4,3433,262,meters,jsons/v1_VE250_randls_75_rotated.json,887337,1131078,61,Woman
157,911881,DepthScenes,duration_manipulation_targetAtFixation,jsons/v1_VE250_randls_75_rotated.json,http://54.235.29.9/FacialAge/BNav_EC2/DepthDuration/v2_depth_duration_MTurk/v2_DepthDuration_HTML.html#113,113,1366,625,1366,768,8-20-2022,13-24-46,158,depth_duration_stimuli/000368_2014-06-09_15-53-01_260595134347_rgbf000155-resize_2/000368_2014-06-09_15-53-01_260595134347_rgbf000155-resize_2-target.png,250,2.4859999999999998,7,4441,253,meters,jsons/v1_VE250_randls_75_rotated.json,887337,1131078,61,Woman
158,911881,DepthScenes,duration_manipulation_targetAtFixation,jsons/v1_VE250_randls_75_rotated.json,http://54.235.29.9/FacialAge/BNav_EC2/DepthDuration/v2_depth_duration_MTurk/v2_DepthDuration_HTML.html#113,113,1366,625,1366,768,8-20-2022,13-24-46,159,depth_duration_stimuli/001100_2014-06-15_17-46-26_260595134347_rgbf000225-resize_2/001100_2014-06-15_17-46-26_260595134347_rgbf000225-resize_2-target.png,250,2.24,4,5283,282,meters,jsons/v1_VE250_randls_75_rotated.json,887337,1131078,61,Woman
159,911881,DepthScenes,duration_manipulation_targetAtFixation,jsons/v1_VE250_randls_75_rotated.json,http://54.235.29.9/FacialAge/BNav_EC2/DepthDuration/v2_depth_duration_MTurk/v2_DepthDuration_HTML.html#113,113,1366,625,1366,768,8-20-2022,13-24-46,160,depth_duration_stimuli/002784_2014-06-22_19-26-30_094959634447_rgbf000083-resize_3/002784_2014-06-22_19-26-30_094959634447_rgbf000083-resize_3-target.png,250,1.8046666666667,5,5393,235,meters,jsons/v1_VE250_randls_75_rotated.json,887337,1131078,61,Woman
160,911881,DepthScenes,duration_manipulation_targetAtFixation,jsons/v1_VE250_randls_75_rotated.json,http://54.235.29.9/FacialAge/BNav_EC2/DepthDuration/v2_depth_duration_MTurk/v2_DepthDuration_HTML.html#113,113,1366,625,1366,768,8-20-2022,13-24-46,161,depth_duration_stimuli/001392_2014-06-19_16-07-59_260595134347_rgbf000046-resize_1/001392_2014-06-19_16-07-59_260595134347_rgbf000046-resize_1-target.png,250,4.135,0,3749,252,meters,jsons/v1_VE250_randls_75_rotated.json,887337,1131078,61,Woman
161,911881,DepthScenes,duration_manipulation_targetAtFixation,jsons/v1_VE250_randls_75_rotated.json,http://54.235.29.9/FacialAge/BNav_EC2/DepthDuration/v2_depth_duration_MTurk/v2_DepthDuration_HTML.html#113,113,1366,625,1366,768,8-20-2022,13-24-46,162,depth_duration_stimuli/001570_2014-06-20_17-21-09_260595134347_rgbf000135-resize_4/001570_2014-06-20_17-21-09_260595134347_rgbf000135-resize_4-target.png,250,4.467,4,3359,265,meters,jsons/v1_VE250_randls_75_rotated.json,887337,1131078,61,Woman
162,911881,DepthScenes,duration_manipulation_targetAtFixation,jsons/v1_VE250_randls_75_rotated.json,http://54.235.29.9/FacialAge/BNav_EC2/DepthDuration/v2_depth_duration_MTurk/v2_DepthDuration_HTML.html#113,113,1366,625,1366,768,8-20-2022,13-24-46,163,depth_duration_stimuli/003079_2014-06-15_15-18-20_094959634447_rgbf000152-resize_8/003079_2014-06-15_15-18-20_094959634447_rgbf000152-resize_8-target.png,250,2.8775,6,5503,252,meters,jsons/v1_VE250_randls_75_rotated.json,887337,1131078,61,Woman
163,911881,DepthScenes,duration_manipulation_targetAtFixation,jsons/v1_VE250_randls_75_rotated.json,http://54.235.29.9/FacialAge/BNav_EC2/DepthDuration/v2_depth_duration_MTurk/v2_DepthDuration_HTML.html#113,113,1366,625,1366,768,8-20-2022,13-24-46,164,depth_duration_stimuli/000506_2014-06-08_23-21-00_260595134347_rgbf000070-resize_7/000506_2014-06-08_23-21-00_260595134347_rgbf000070-resize_7-target.png,250,4.0585,5,3226,235,meters,jsons/v1_VE250_randls_75_rotated.json,887337,1131078,61,Woman
