,subjID,experimentName,versionName,sequenceName,url,selected_row,windowWidth,windowHeight,screenWidth,screenHeight,startDate,startTime,trial,stimulus,duration,actual_depth,depth_estimate,trial_RT,log_sceneDuration,unitSelection,seq_filepath,experimentTime,totalTime,age,gender
0,912472,DepthScenes,duration_manipulation_targetAtFixation,jsons/VE125_randls_59.json,http://54.235.29.9/FacialAge/BNav_EC2/DepthDuration/v2_depth_duration_MTurk/v2_DepthDuration_HTML.html#68,68,779,357,1364,768,9-21-2022,11-53-32,1,depth_duration_stimuli/000736_2014-06-08_18-24-15_260595134347_rgbf000206-resize_3/000736_2014-06-08_18-24-15_260595134347_rgbf000206-resize_3-target.png,125,3.515,4,3371,124,feet,jsons/VE125_randls_59.json,510829,644776,29,Woman
1,912472,DepthScenes,duration_manipulation_targetAtFixation,jsons/VE125_randls_59.json,http://54.235.29.9/FacialAge/BNav_EC2/DepthDuration/v2_depth_duration_MTurk/v2_DepthDuration_HTML.html#68,68,779,357,1364,768,9-21-2022,11-53-32,2,depth_duration_stimuli/000137_2014-05-20_17-04-49_260595134347_rgbf000120-resize_1/000137_2014-05-20_17-04-49_260595134347_rgbf000120-resize_1-target.png,125,3.786,0,3444,126,feet,jsons/VE125_randls_59.json,510829,644776,29,Woman
2,912472,DepthScenes,duration_manipulation_targetAtFixation,jsons/VE125_randls_59.json,http://54.235.29.9/FacialAge/BNav_EC2/DepthDuration/v2_depth_duration_MTurk/v2_DepthDuration_HTML.html#68,68,779,357,1364,768,9-21-2022,11-53-32,3,depth_duration_stimuli/003534_2014-05-22_15-06-10_094959634447_rgbf000102-resize_4/003534_2014-05-22_15-06-10_094959634447_rgbf000102-resize_4-target.png,125,1.426,3,4009,112,feet,jsons/VE125_randls_59.json,510829,644776,29,Woman
3,912472,DepthScenes,duration_manipulation_targetAtFixation,jsons/VE125_randls_59.json,http://54.235.29.9/FacialAge/BNav_EC2/DepthDuration/v2_depth_duration_MTurk/v2_DepthDuration_HTML.html#68,68,779,357,1364,768,9-21-2022,11-53-32,4,depth_duration_stimuli/002637_2014-06-24_14-51-13_094959634447_rgbf000066-resize_4/002637_2014-06-24_14-51-13_094959634447_rgbf000066-resize_4-target.png,125,1.9955,5,3364,140,feet,jsons/VE125_randls_59.json,510829,644776,29,Woman
4,912472,DepthScenes,duration_manipulation_targetAtFixation,jsons/VE125_randls_59.json,http://54.235.29.9/FacialAge/BNav_EC2/DepthDuration/v2_depth_duration_MTurk/v2_DepthDuration_HTML.html#68,68,779,357,1364,768,9-21-2022,11-53-32,5,depth_duration_stimuli/000878_2014-06-08_22-52-45_260595134347_rgbf000045-resize_2/000878_2014-06-08_22-52-45_260595134347_rgbf000045-resize_2-target.png,125,2.092,3,2679,163,feet,jsons/VE125_randls_59.json,510829,644776,29,Woman
5,912472,DepthScenes,duration_manipulation_targetAtFixation,jsons/VE125_randls_59.json,http://54.235.29.9/FacialAge/BNav_EC2/DepthDuration/v2_depth_duration_MTurk/v2_DepthDuration_HTML.html#68,68,779,357,1364,768,9-21-2022,11-53-32,6,depth_duration_stimuli/002953_2014-06-08_17-32-18_094959634447_rgbf000059-resize_5/002953_2014-06-08_17-32-18_094959634447_rgbf000059-resize_5-target.png,125,1.551,0,3232,121,feet,jsons/VE125_randls_59.json,510829,644776,29,Woman
6,912472,DepthScenes,duration_manipulation_targetAtFixation,jsons/VE125_randls_59.json,http://54.235.29.9/FacialAge/BNav_EC2/DepthDuration/v2_depth_duration_MTurk/v2_DepthDuration_HTML.html#68,68,779,357,1364,768,9-21-2022,11-53-32,7,depth_duration_stimuli/000436_2014-06-09_22-25-11_260595134347_rgbf000137-resize_1/000436_2014-06-09_22-25-11_260595134347_rgbf000137-resize_1-target.png,125,4.0705,3,4109,120,feet,jsons/VE125_randls_59.json,510829,644776,29,Woman
7,912472,DepthScenes,duration_manipulation_targetAtFixation,jsons/VE125_randls_59.json,http://54.235.29.9/FacialAge/BNav_EC2/DepthDuration/v2_depth_duration_MTurk/v2_DepthDuration_HTML.html#68,68,779,357,1364,768,9-21-2022,11-53-32,8,depth_duration_stimuli/002444_2014-06-28_20-32-08_260595134347_rgbf000027-resize_0/002444_2014-06-28_20-32-08_260595134347_rgbf000027-resize_0-target.png,125,4.388999999999999,3,3077,127,feet,jsons/VE125_randls_59.json,510829,644776,29,Woman
8,912472,DepthScenes,duration_manipulation_targetAtFixation,jsons/VE125_randls_59.json,http://54.235.29.9/FacialAge/BNav_EC2/DepthDuration/v2_depth_duration_MTurk/v2_DepthDuration_HTML.html#68,68,779,357,1364,768,9-21-2022,11-53-32,9,depth_duration_stimuli/001066_2014-06-08_22-03-20_260595134347_rgbf000066-resize_4/001066_2014-06-08_22-03-20_260595134347_rgbf000066-resize_4-target.png,125,4.2330000000000005,4,2631,125,feet,jsons/VE125_randls_59.json,510829,644776,29,Woman
9,912472,DepthScenes,duration_manipulation_targetAtFixation,jsons/VE125_randls_59.json,http://54.235.29.9/FacialAge/BNav_EC2/DepthDuration/v2_depth_duration_MTurk/v2_DepthDuration_HTML.html#68,68,779,357,1364,768,9-21-2022,11-53-32,10,depth_duration_stimuli/000742_2014-06-08_18-48-09_260595134347_rgbf000164-resize_4/000742_2014-06-08_18-48-09_260595134347_rgbf000164-resize_4-target.png,125,4.632,5,2343,124,feet,jsons/VE125_randls_59.json,510829,644776,29,Woman
10,912472,DepthScenes,duration_manipulation_targetAtFixation,jsons/VE125_randls_59.json,http://54.235.29.9/FacialAge/BNav_EC2/DepthDuration/v2_depth_duration_MTurk/v2_DepthDuration_HTML.html#68,68,779,357,1364,768,9-21-2022,11-53-32,11,depth_duration_stimuli/001808_2014-06-26_20-50-58_260595134347_rgbf000029-resize_1/001808_2014-06-26_20-50-58_260595134347_rgbf000029-resize_1-target.png,125,4.249,5,3335,135,feet,jsons/VE125_randls_59.json,510829,644776,29,Woman
11,912472,DepthScenes,duration_manipulation_targetAtFixation,jsons/VE125_randls_59.json,http://54.235.29.9/FacialAge/BNav_EC2/DepthDuration/v2_depth_duration_MTurk/v2_DepthDuration_HTML.html#68,68,779,357,1364,768,9-21-2022,11-53-32,12,depth_duration_stimuli/001815_2014-06-26_20-52-55_260595134347_rgbf000020-resize_0/001815_2014-06-26_20-52-55_260595134347_rgbf000020-resize_0-target.png,125,3.3865,6,5178,124,feet,jsons/VE125_randls_59.json,510829,644776,29,Woman
12,912472,DepthScenes,duration_manipulation_targetAtFixation,jsons/VE125_randls_59.json,http://54.235.29.9/FacialAge/BNav_EC2/DepthDuration/v2_depth_duration_MTurk/v2_DepthDuration_HTML.html#68,68,779,357,1364,768,9-21-2022,11-53-32,13,depth_duration_stimuli/000569_2014-06-09_22-51-47_260595134347_rgbf000141-resize_3/000569_2014-06-09_22-51-47_260595134347_rgbf000141-resize-original.jpg,125,4.512,4,3343,138,feet,jsons/VE125_randls_59.json,510829,644776,29,Woman
13,912472,DepthScenes,duration_manipulation_targetAtFixation,jsons/VE125_randls_59.json,http://54.235.29.9/FacialAge/BNav_EC2/DepthDuration/v2_depth_duration_MTurk/v2_DepthDuration_HTML.html#68,68,779,357,1364,768,9-21-2022,11-53-32,14,depth_duration_stimuli/001016_2014-06-09_16-16-10_260595134347_rgbf000112-resize_5/001016_2014-06-09_16-16-10_260595134347_rgbf000112-resize_5-target.png,125,1.6565,3,4467,131,feet,jsons/VE125_randls_59.json,510829,644776,29,Woman
14,912472,DepthScenes,duration_manipulation_targetAtFixation,jsons/VE125_randls_59.json,http://54.235.29.9/FacialAge/BNav_EC2/DepthDuration/v2_depth_duration_MTurk/v2_DepthDuration_HTML.html#68,68,779,357,1364,768,9-21-2022,11-53-32,15,depth_duration_stimuli/002340_2014-06-28_20-05-46_260595134347_rgbf000113-resize_0/002340_2014-06-28_20-05-46_260595134347_rgbf000113-resize_0-target.png,125,2.4735,0,3456,124,feet,jsons/VE125_randls_59.json,510829,644776,29,Woman
15,912472,DepthScenes,duration_manipulation_targetAtFixation,jsons/VE125_randls_59.json,http://54.235.29.9/FacialAge/BNav_EC2/DepthDuration/v2_depth_duration_MTurk/v2_DepthDuration_HTML.html#68,68,779,357,1364,768,9-21-2022,11-53-32,16,depth_duration_stimuli/002748_2014-06-22_19-07-22_094959634447_rgbf000078-resize_1/002748_2014-06-22_19-07-22_094959634447_rgbf000078-resize_1-target.png,125,4.6705,3,2685,127,feet,jsons/VE125_randls_59.json,510829,644776,29,Woman
16,912472,DepthScenes,duration_manipulation_targetAtFixation,jsons/VE125_randls_59.json,http://54.235.29.9/FacialAge/BNav_EC2/DepthDuration/v2_depth_duration_MTurk/v2_DepthDuration_HTML.html#68,68,779,357,1364,768,9-21-2022,11-53-32,17,depth_duration_stimuli/002995_2014-06-15_12-31-26_094959634447_rgbf000150-resize_1/002995_2014-06-15_12-31-26_094959634447_rgbf000150-resize_1-target.png,125,3.8360000000000003,0,2521,125,feet,jsons/VE125_randls_59.json,510829,644776,29,Woman
17,912472,DepthScenes,duration_manipulation_targetAtFixation,jsons/VE125_randls_59.json,http://54.235.29.9/FacialAge/BNav_EC2/DepthDuration/v2_depth_duration_MTurk/v2_DepthDuration_HTML.html#68,68,779,357,1364,768,9-21-2022,11-53-32,18,depth_duration_stimuli/000682_2014-06-08_23-14-58_260595134347_rgbf000041-resize_5/000682_2014-06-08_23-14-58_260595134347_rgbf000041-resize_5-target.png,125,2.7239999999999998,5,2955,125,feet,jsons/VE125_randls_59.json,510829,644776,29,Woman
18,912472,DepthScenes,duration_manipulation_targetAtFixation,jsons/VE125_randls_59.json,http://54.235.29.9/FacialAge/BNav_EC2/DepthDuration/v2_depth_duration_MTurk/v2_DepthDuration_HTML.html#68,68,779,357,1364,768,9-21-2022,11-53-32,19,depth_duration_stimuli/001650_2014-06-20_12-09-00_260595134347_rgbf000087-resize_3/001650_2014-06-20_12-09-00_260595134347_rgbf000087-resize_3-target.png,125,1.9505,0,2512,135,feet,jsons/VE125_randls_59.json,510829,644776,29,Woman
19,912472,DepthScenes,duration_manipulation_targetAtFixation,jsons/VE125_randls_59.json,http://54.235.29.9/FacialAge/BNav_EC2/DepthDuration/v2_depth_duration_MTurk/v2_DepthDuration_HTML.html#68,68,779,357,1364,768,9-21-2022,11-53-32,20,depth_duration_stimuli/001167_2014-06-17_15-38-07_260595134347_rgbf000108-resize_0/001167_2014-06-17_15-38-07_260595134347_rgbf000108-resize_0-target.png,125,1.8505,5,2875,124,feet,jsons/VE125_randls_59.json,510829,644776,29,Woman
20,912472,DepthScenes,duration_manipulation_targetAtFixation,jsons/VE125_randls_59.json,http://54.235.29.9/FacialAge/BNav_EC2/DepthDuration/v2_depth_duration_MTurk/v2_DepthDuration_HTML.html#68,68,779,357,1364,768,9-21-2022,11-53-32,21,depth_duration_stimuli/003587_2014-05-23_16-48-02_094959634447_rgbf002384-resize_2/003587_2014-05-23_16-48-02_094959634447_rgbf002384-resize_2-target.png,125,1.357,3,2355,125,feet,jsons/VE125_randls_59.json,510829,644776,29,Woman
21,912472,DepthScenes,duration_manipulation_targetAtFixation,jsons/VE125_randls_59.json,http://54.235.29.9/FacialAge/BNav_EC2/DepthDuration/v2_depth_duration_MTurk/v2_DepthDuration_HTML.html#68,68,779,357,1364,768,9-21-2022,11-53-32,22,depth_duration_stimuli/002375_2014-06-28_20-13-44_260595134347_rgbf000032-resize_1/002375_2014-06-28_20-13-44_260595134347_rgbf000032-resize_1-target.png,125,4.0175,6,3652,125,feet,jsons/VE125_randls_59.json,510829,644776,29,Woman
22,912472,DepthScenes,duration_manipulation_targetAtFixation,jsons/VE125_randls_59.json,http://54.235.29.9/FacialAge/BNav_EC2/DepthDuration/v2_depth_duration_MTurk/v2_DepthDuration_HTML.html#68,68,779,357,1364,768,9-21-2022,11-53-32,23,depth_duration_stimuli/002657_2014-06-13_15-29-54_094959634447_rgbf000150-resize_1/002657_2014-06-13_15-29-54_094959634447_rgbf000150-resize_1-target.png,125,4.919,3,2997,125,feet,jsons/VE125_randls_59.json,510829,644776,29,Woman
23,912472,DepthScenes,duration_manipulation_targetAtFixation,jsons/VE125_randls_59.json,http://54.235.29.9/FacialAge/BNav_EC2/DepthDuration/v2_depth_duration_MTurk/v2_DepthDuration_HTML.html#68,68,779,357,1364,768,9-21-2022,11-53-32,24,depth_duration_stimuli/001199_2014-06-17_16-03-48_260595134347_rgbf000077-resize_0/001199_2014-06-17_16-03-48_260595134347_rgbf000077-resize_0-target.png,125,3.4375,5,3026,120,feet,jsons/VE125_randls_59.json,510829,644776,29,Woman
24,912472,DepthScenes,duration_manipulation_targetAtFixation,jsons/VE125_randls_59.json,http://54.235.29.9/FacialAge/BNav_EC2/DepthDuration/v2_depth_duration_MTurk/v2_DepthDuration_HTML.html#68,68,779,357,1364,768,9-21-2022,11-53-32,25,depth_duration_stimuli/000502_2014-06-08_23-02-32_260595134347_rgbf000063-resize_4/000502_2014-06-08_23-02-32_260595134347_rgbf000063-resize_4-target.png,125,2.431,0,2495,125,feet,jsons/VE125_randls_59.json,510829,644776,29,Woman
25,912472,DepthScenes,duration_manipulation_targetAtFixation,jsons/VE125_randls_59.json,http://54.235.29.9/FacialAge/BNav_EC2/DepthDuration/v2_depth_duration_MTurk/v2_DepthDuration_HTML.html#68,68,779,357,1364,768,9-21-2022,11-53-32,26,depth_duration_stimuli/001164_2014-06-17_15-35-46_260595134347_rgbf000085-resize_3/001164_2014-06-17_15-35-46_260595134347_rgbf000085-resize_3-target.png,125,2.354,5,2783,132,feet,jsons/VE125_randls_59.json,510829,644776,29,Woman
26,912472,DepthScenes,duration_manipulation_targetAtFixation,jsons/VE125_randls_59.json,http://54.235.29.9/FacialAge/BNav_EC2/DepthDuration/v2_depth_duration_MTurk/v2_DepthDuration_HTML.html#68,68,779,357,1364,768,9-21-2022,11-53-32,27,depth_duration_stimuli/001136_2014-06-17_15-19-41_260595134347_rgbf000076-resize_3/001136_2014-06-17_15-19-41_260595134347_rgbf000076-resize_3-target.png,125,1.8655,5,2674,124,feet,jsons/VE125_randls_59.json,510829,644776,29,Woman
27,912472,DepthScenes,duration_manipulation_targetAtFixation,jsons/VE125_randls_59.json,http://54.235.29.9/FacialAge/BNav_EC2/DepthDuration/v2_depth_duration_MTurk/v2_DepthDuration_HTML.html#68,68,779,357,1364,768,9-21-2022,11-53-32,28,depth_duration_stimuli/002213_2014-06-28_18-37-58_260595134347_rgbf000055-resize_1/002213_2014-06-28_18-37-58_260595134347_rgbf000055-resize_1-target.png,125,3.62,5,2938,126,feet,jsons/VE125_randls_59.json,510829,644776,29,Woman
28,912472,DepthScenes,duration_manipulation_targetAtFixation,jsons/VE125_randls_59.json,http://54.235.29.9/FacialAge/BNav_EC2/DepthDuration/v2_depth_duration_MTurk/v2_DepthDuration_HTML.html#68,68,779,357,1364,768,9-21-2022,11-53-32,29,depth_duration_stimuli/000691_2014-06-08_13-08-50_260595134347_rgbf000132-resize_3/000691_2014-06-08_13-08-50_260595134347_rgbf000132-resize_3-target.png,125,4.1530000000000005,0,2927,122,feet,jsons/VE125_randls_59.json,510829,644776,29,Woman
29,912472,DepthScenes,duration_manipulation_targetAtFixation,jsons/VE125_randls_59.json,http://54.235.29.9/FacialAge/BNav_EC2/DepthDuration/v2_depth_duration_MTurk/v2_DepthDuration_HTML.html#68,68,779,357,1364,768,9-21-2022,11-53-32,30,depth_duration_stimuli/000375_2014-06-08_11-17-29_260595134347_rgbf000133-resize_2/000375_2014-06-08_11-17-29_260595134347_rgbf000133-resize-original.jpg,125,4.718,5,2732,124,feet,jsons/VE125_randls_59.json,510829,644776,29,Woman
30,912472,DepthScenes,duration_manipulation_targetAtFixation,jsons/VE125_randls_59.json,http://54.235.29.9/FacialAge/BNav_EC2/DepthDuration/v2_depth_duration_MTurk/v2_DepthDuration_HTML.html#68,68,779,357,1364,768,9-21-2022,11-53-32,31,depth_duration_stimuli/001110_2014-06-15_17-25-28_260595134347_rgbf000150-resize_1/001110_2014-06-15_17-25-28_260595134347_rgbf000150-resize_1-target.png,125,1.7115,0,2366,125,feet,jsons/VE125_randls_59.json,510829,644776,29,Woman
31,912472,DepthScenes,duration_manipulation_targetAtFixation,jsons/VE125_randls_59.json,http://54.235.29.9/FacialAge/BNav_EC2/DepthDuration/v2_depth_duration_MTurk/v2_DepthDuration_HTML.html#68,68,779,357,1364,768,9-21-2022,11-53-32,32,depth_duration_stimuli/000927_2014-06-09_16-32-30_260595134347_rgbf000123-resize_3/000927_2014-06-09_16-32-30_260595134347_rgbf000123-resize_3-target.png,125,2.6785,0,2267,124,feet,jsons/VE125_randls_59.json,510829,644776,29,Woman
32,912472,DepthScenes,duration_manipulation_targetAtFixation,jsons/VE125_randls_59.json,http://54.235.29.9/FacialAge/BNav_EC2/DepthDuration/v2_depth_duration_MTurk/v2_DepthDuration_HTML.html#68,68,779,357,1364,768,9-21-2022,11-53-32,33,depth_duration_stimuli/003070_2014-06-15_14-58-27_094959634447_rgbf000150-resize_3/003070_2014-06-15_14-58-27_094959634447_rgbf000150-resize_3-target.png,125,2.9415,6,2804,129,feet,jsons/VE125_randls_59.json,510829,644776,29,Woman
33,912472,DepthScenes,duration_manipulation_targetAtFixation,jsons/VE125_randls_59.json,http://54.235.29.9/FacialAge/BNav_EC2/DepthDuration/v2_depth_duration_MTurk/v2_DepthDuration_HTML.html#68,68,779,357,1364,768,9-21-2022,11-53-32,34,depth_duration_stimuli/000943_2014-06-09_19-31-07_260595134347_rgbf000128-resize_1/000943_2014-06-09_19-31-07_260595134347_rgbf000128-resize_1-target.png,125,1.9765,6,2959,128,feet,jsons/VE125_randls_59.json,510829,644776,29,Woman
34,912472,DepthScenes,duration_manipulation_targetAtFixation,jsons/VE125_randls_59.json,http://54.235.29.9/FacialAge/BNav_EC2/DepthDuration/v2_depth_duration_MTurk/v2_DepthDuration_HTML.html#68,68,779,357,1364,768,9-21-2022,11-53-32,35,depth_duration_stimuli/001449_2014-06-19_17-01-27_260595134347_rgbf000116-resize_2/001449_2014-06-19_17-01-27_260595134347_rgbf000116-resize_2-target.png,125,3.452,6,2372,127,feet,jsons/VE125_randls_59.json,510829,644776,29,Woman
35,912472,DepthScenes,duration_manipulation_targetAtFixation,jsons/VE125_randls_59.json,http://54.235.29.9/FacialAge/BNav_EC2/DepthDuration/v2_depth_duration_MTurk/v2_DepthDuration_HTML.html#68,68,779,357,1364,768,9-21-2022,11-53-32,36,depth_duration_stimuli/001450_2014-06-19_17-02-03_260595134347_rgbf000203-resize_4/001450_2014-06-19_17-02-03_260595134347_rgbf000203-resize_4-target.png,125,4.0106666666667,0,2277,128,feet,jsons/VE125_randls_59.json,510829,644776,29,Woman
36,912472,DepthScenes,duration_manipulation_targetAtFixation,jsons/VE125_randls_59.json,http://54.235.29.9/FacialAge/BNav_EC2/DepthDuration/v2_depth_duration_MTurk/v2_DepthDuration_HTML.html#68,68,779,357,1364,768,9-21-2022,11-53-32,37,depth_duration_stimuli/001150_2014-06-17_15-27-34_260595134347_rgbf000108-resize_2/001150_2014-06-17_15-27-34_260595134347_rgbf000108-resize_2-target.png,125,4.0325,5,2484,126,feet,jsons/VE125_randls_59.json,510829,644776,29,Woman
37,912472,DepthScenes,duration_manipulation_targetAtFixation,jsons/VE125_randls_59.json,http://54.235.29.9/FacialAge/BNav_EC2/DepthDuration/v2_depth_duration_MTurk/v2_DepthDuration_HTML.html#68,68,779,357,1364,768,9-21-2022,11-53-32,38,depth_duration_stimuli/000665_2014-06-09_20-42-35_260595134347_rgbf000110-resize_1/000665_2014-06-09_20-42-35_260595134347_rgbf000110-resize_1-target.png,125,3.057,0,2255,129,feet,jsons/VE125_randls_59.json,510829,644776,29,Woman
38,912472,DepthScenes,duration_manipulation_targetAtFixation,jsons/VE125_randls_59.json,http://54.235.29.9/FacialAge/BNav_EC2/DepthDuration/v2_depth_duration_MTurk/v2_DepthDuration_HTML.html#68,68,779,357,1364,768,9-21-2022,11-53-32,39,depth_duration_stimuli/002905_2014-06-03_18-04-43_094959634447_rgbf000151-resize_2/002905_2014-06-03_18-04-43_094959634447_rgbf000151-resize_2-target.png,125,2.0295,6,2507,124,feet,jsons/VE125_randls_59.json,510829,644776,29,Woman
39,912472,DepthScenes,duration_manipulation_targetAtFixation,jsons/VE125_randls_59.json,http://54.235.29.9/FacialAge/BNav_EC2/DepthDuration/v2_depth_duration_MTurk/v2_DepthDuration_HTML.html#68,68,779,357,1364,768,9-21-2022,11-53-32,40,depth_duration_stimuli/003423_2014-05-21_10-23-26_094959634447_rgbf002665-resize_2/003423_2014-05-21_10-23-26_094959634447_rgbf002665-resize_2-target.png,125,3.2575,0,2012,122,feet,jsons/VE125_randls_59.json,510829,644776,29,Woman
40,912472,DepthScenes,duration_manipulation_targetAtFixation,jsons/VE125_randls_59.json,http://54.235.29.9/FacialAge/BNav_EC2/DepthDuration/v2_depth_duration_MTurk/v2_DepthDuration_HTML.html#68,68,779,357,1364,768,9-21-2022,11-53-32,41,depth_duration_stimuli/002057_2014-06-24_21-00-13_260595134347_rgbf000120-resize_1/002057_2014-06-24_21-00-13_260595134347_rgbf000120-resize_1-target.png,125,2.967,5,2276,127,feet,jsons/VE125_randls_59.json,510829,644776,29,Woman
41,912472,DepthScenes,duration_manipulation_targetAtFixation,jsons/VE125_randls_59.json,http://54.235.29.9/FacialAge/BNav_EC2/DepthDuration/v2_depth_duration_MTurk/v2_DepthDuration_HTML.html#68,68,779,357,1364,768,9-21-2022,11-53-32,42,depth_duration_stimuli/000709_2014-06-08_13-51-55_260595134347_rgbf000068-resize_3/000709_2014-06-08_13-51-55_260595134347_rgbf000068-resize_3-target.png,125,1.8030000000000002,0,1989,119,feet,jsons/VE125_randls_59.json,510829,644776,29,Woman
42,912472,DepthScenes,duration_manipulation_targetAtFixation,jsons/VE125_randls_59.json,http://54.235.29.9/FacialAge/BNav_EC2/DepthDuration/v2_depth_duration_MTurk/v2_DepthDuration_HTML.html#68,68,779,357,1364,768,9-21-2022,11-53-32,43,depth_duration_stimuli/000469_2014-06-09_19-42-10_260595134347_rgbf000081-resize_1/000469_2014-06-09_19-42-10_260595134347_rgbf000081-resize_1-target.png,125,1.652,3,3157,129,feet,jsons/VE125_randls_59.json,510829,644776,29,Woman
43,912472,DepthScenes,duration_manipulation_targetAtFixation,jsons/VE125_randls_59.json,http://54.235.29.9/FacialAge/BNav_EC2/DepthDuration/v2_depth_duration_MTurk/v2_DepthDuration_HTML.html#68,68,779,357,1364,768,9-21-2022,11-53-32,44,depth_duration_stimuli/000483_2014-06-09_20-41-45_260595134347_rgbf000116-resize_4/000483_2014-06-09_20-41-45_260595134347_rgbf000116-resize_4-target.png,125,1.337,0,2494,127,feet,jsons/VE125_randls_59.json,510829,644776,29,Woman
44,912472,DepthScenes,duration_manipulation_targetAtFixation,jsons/VE125_randls_59.json,http://54.235.29.9/FacialAge/BNav_EC2/DepthDuration/v2_depth_duration_MTurk/v2_DepthDuration_HTML.html#68,68,779,357,1364,768,9-21-2022,11-53-32,45,depth_duration_stimuli/000787_2014-06-08_22-33-53_260595134347_rgbf000175-resize_1/000787_2014-06-08_22-33-53_260595134347_rgbf000175-resize-original.jpg,125,4.784,6,2582,124,feet,jsons/VE125_randls_59.json,510829,644776,29,Woman
45,912472,DepthScenes,duration_manipulation_targetAtFixation,jsons/VE125_randls_59.json,http://54.235.29.9/FacialAge/BNav_EC2/DepthDuration/v2_depth_duration_MTurk/v2_DepthDuration_HTML.html#68,68,779,357,1364,768,9-21-2022,11-53-32,46,depth_duration_stimuli/002989_2014-06-15_12-25-03_094959634447_rgbf000150-resize_3/002989_2014-06-15_12-25-03_094959634447_rgbf000150-resize_3-target.png,125,4.1975,4,2745,124,feet,jsons/VE125_randls_59.json,510829,644776,29,Woman
46,912472,DepthScenes,duration_manipulation_targetAtFixation,jsons/VE125_randls_59.json,http://54.235.29.9/FacialAge/BNav_EC2/DepthDuration/v2_depth_duration_MTurk/v2_DepthDuration_HTML.html#68,68,779,357,1364,768,9-21-2022,11-53-32,47,depth_duration_stimuli/000866_2014-06-09_20-45-42_260595134347_rgbf000139-resize_1/000866_2014-06-09_20-45-42_260595134347_rgbf000139-resize_1-target.png,125,3.2155,5,1943,124,feet,jsons/VE125_randls_59.json,510829,644776,29,Woman
47,912472,DepthScenes,duration_manipulation_targetAtFixation,jsons/VE125_randls_59.json,http://54.235.29.9/FacialAge/BNav_EC2/DepthDuration/v2_depth_duration_MTurk/v2_DepthDuration_HTML.html#68,68,779,357,1364,768,9-21-2022,11-53-32,48,depth_duration_stimuli/000906_2014-06-08_13-35-43_260595134347_rgbf000155-resize_1/000906_2014-06-08_13-35-43_260595134347_rgbf000155-resize_1-target.png,125,2.8489999999999998,6,2629,126,feet,jsons/VE125_randls_59.json,510829,644776,29,Woman
48,912472,DepthScenes,duration_manipulation_targetAtFixation,jsons/VE125_randls_59.json,http://54.235.29.9/FacialAge/BNav_EC2/DepthDuration/v2_depth_duration_MTurk/v2_DepthDuration_HTML.html#68,68,779,357,1364,768,9-21-2022,11-53-32,49,depth_duration_stimuli/002805_2014-06-22_19-54-03_094959634447_rgbf000079-resize_1/002805_2014-06-22_19-54-03_094959634447_rgbf000079-resize_1-target.png,125,3.1439999999999997,0,2040,125,feet,jsons/VE125_randls_59.json,510829,644776,29,Woman
49,912472,DepthScenes,duration_manipulation_targetAtFixation,jsons/VE125_randls_59.json,http://54.235.29.9/FacialAge/BNav_EC2/DepthDuration/v2_depth_duration_MTurk/v2_DepthDuration_HTML.html#68,68,779,357,1364,768,9-21-2022,11-53-32,50,depth_duration_stimuli/000506_2014-06-08_23-21-00_260595134347_rgbf000070-resize_7/000506_2014-06-08_23-21-00_260595134347_rgbf000070-resize_7-target.png,125,4.0585,6,2274,126,feet,jsons/VE125_randls_59.json,510829,644776,29,Woman
50,912472,DepthScenes,duration_manipulation_targetAtFixation,jsons/VE125_randls_59.json,http://54.235.29.9/FacialAge/BNav_EC2/DepthDuration/v2_depth_duration_MTurk/v2_DepthDuration_HTML.html#68,68,779,357,1364,768,9-21-2022,11-53-32,51,depth_duration_stimuli/003079_2014-06-15_15-18-20_094959634447_rgbf000152-resize_8/003079_2014-06-15_15-18-20_094959634447_rgbf000152-resize_8-target.png,125,2.8775,0,2120,125,feet,jsons/VE125_randls_59.json,510829,644776,29,Woman
51,912472,DepthScenes,duration_manipulation_targetAtFixation,jsons/VE125_randls_59.json,http://54.235.29.9/FacialAge/BNav_EC2/DepthDuration/v2_depth_duration_MTurk/v2_DepthDuration_HTML.html#68,68,779,357,1364,768,9-21-2022,11-53-32,52,depth_duration_stimuli/002509_2014-06-24_13-19-22_094959634447_rgbf000077-resize_0/002509_2014-06-24_13-19-22_094959634447_rgbf000077-resize_0-target.png,125,1.3065,6,3709,124,feet,jsons/VE125_randls_59.json,510829,644776,29,Woman
52,912472,DepthScenes,duration_manipulation_targetAtFixation,jsons/VE125_randls_59.json,http://54.235.29.9/FacialAge/BNav_EC2/DepthDuration/v2_depth_duration_MTurk/v2_DepthDuration_HTML.html#68,68,779,357,1364,768,9-21-2022,11-53-32,53,depth_duration_stimuli/003338_2014-05-20_11-01-23_094959634447_rgbf000051-resize_6/003338_2014-05-20_11-01-23_094959634447_rgbf000051-resize_6-target.png,125,1.693,3,3074,126,feet,jsons/VE125_randls_59.json,510829,644776,29,Woman
53,912472,DepthScenes,duration_manipulation_targetAtFixation,jsons/VE125_randls_59.json,http://54.235.29.9/FacialAge/BNav_EC2/DepthDuration/v2_depth_duration_MTurk/v2_DepthDuration_HTML.html#68,68,779,357,1364,768,9-21-2022,11-53-32,54,depth_duration_stimuli/001158_2014-06-17_15-32-16_260595134347_rgbf000138-resize_2/001158_2014-06-17_15-32-16_260595134347_rgbf000138-resize_2-target.png,125,4.5315,5,2866,124,feet,jsons/VE125_randls_59.json,510829,644776,29,Woman
54,912472,DepthScenes,duration_manipulation_targetAtFixation,jsons/VE125_randls_59.json,http://54.235.29.9/FacialAge/BNav_EC2/DepthDuration/v2_depth_duration_MTurk/v2_DepthDuration_HTML.html#68,68,779,357,1364,768,9-21-2022,11-53-32,55,depth_duration_stimuli/000556_2014-06-09_22-42-56_260595134347_rgbf000214-resize_1/000556_2014-06-09_22-42-56_260595134347_rgbf000214-resize_1-target.png,125,4.8415,3,2358,124,feet,jsons/VE125_randls_59.json,510829,644776,29,Woman
55,912472,DepthScenes,duration_manipulation_targetAtFixation,jsons/VE125_randls_59.json,http://54.235.29.9/FacialAge/BNav_EC2/DepthDuration/v2_depth_duration_MTurk/v2_DepthDuration_HTML.html#68,68,779,357,1364,768,9-21-2022,11-53-32,56,depth_duration_stimuli/000788_2014-06-08_22-34-36_260595134347_rgbf000131-resize_1/000788_2014-06-08_22-34-36_260595134347_rgbf000131-resize_1-target.png,125,3.359,4,3228,131,feet,jsons/VE125_randls_59.json,510829,644776,29,Woman
56,912472,DepthScenes,duration_manipulation_targetAtFixation,jsons/VE125_randls_59.json,http://54.235.29.9/FacialAge/BNav_EC2/DepthDuration/v2_depth_duration_MTurk/v2_DepthDuration_HTML.html#68,68,779,357,1364,768,9-21-2022,11-53-32,57,depth_duration_stimuli/001235_2014-06-17_16-37-36_260595134347_rgbf000084-resize_4/001235_2014-06-17_16-37-36_260595134347_rgbf000084-resize_4-target.png,125,3.6605,0,2081,125,feet,jsons/VE125_randls_59.json,510829,644776,29,Woman
57,912472,DepthScenes,duration_manipulation_targetAtFixation,jsons/VE125_randls_59.json,http://54.235.29.9/FacialAge/BNav_EC2/DepthDuration/v2_depth_duration_MTurk/v2_DepthDuration_HTML.html#68,68,779,357,1364,768,9-21-2022,11-53-32,58,depth_duration_stimuli/002153_2014-06-25_21-27-18_260595134347_rgbf000038-resize_5/002153_2014-06-25_21-27-18_260595134347_rgbf000038-resize_5-target.png,125,2.505,3,2491,121,feet,jsons/VE125_randls_59.json,510829,644776,29,Woman
58,912472,DepthScenes,duration_manipulation_targetAtFixation,jsons/VE125_randls_59.json,http://54.235.29.9/FacialAge/BNav_EC2/DepthDuration/v2_depth_duration_MTurk/v2_DepthDuration_HTML.html#68,68,779,357,1364,768,9-21-2022,11-53-32,59,depth_duration_stimuli/002660_2014-06-13_15-44-18_094959634447_rgbf001878-resize_2/002660_2014-06-13_15-44-18_094959634447_rgbf001878-resize_2-target.png,125,3.576,0,1999,125,feet,jsons/VE125_randls_59.json,510829,644776,29,Woman
59,912472,DepthScenes,duration_manipulation_targetAtFixation,jsons/VE125_randls_59.json,http://54.235.29.9/FacialAge/BNav_EC2/DepthDuration/v2_depth_duration_MTurk/v2_DepthDuration_HTML.html#68,68,779,357,1364,768,9-21-2022,11-53-32,60,depth_duration_stimuli/000810_2014-06-08_17-20-01_260595134347_rgbf000105-resize_0/000810_2014-06-08_17-20-01_260595134347_rgbf000105-resize_0-target.png,125,1.4865,5,3423,130,feet,jsons/VE125_randls_59.json,510829,644776,29,Woman
60,912472,DepthScenes,duration_manipulation_targetAtFixation,jsons/VE125_randls_59.json,http://54.235.29.9/FacialAge/BNav_EC2/DepthDuration/v2_depth_duration_MTurk/v2_DepthDuration_HTML.html#68,68,779,357,1364,768,9-21-2022,11-53-32,61,depth_duration_stimuli/001214_2014-06-17_16-13-55_260595134347_rgbf000111-resize_0/001214_2014-06-17_16-13-55_260595134347_rgbf000111-resize_0-target.png,125,2.6505,0,2132,124,feet,jsons/VE125_randls_59.json,510829,644776,29,Woman
61,912472,DepthScenes,duration_manipulation_targetAtFixation,jsons/VE125_randls_59.json,http://54.235.29.9/FacialAge/BNav_EC2/DepthDuration/v2_depth_duration_MTurk/v2_DepthDuration_HTML.html#68,68,779,357,1364,768,9-21-2022,11-53-32,62,depth_duration_stimuli/002039_2014-06-24_20-22-38_260595134347_rgbf000084-resize_1/002039_2014-06-24_20-22-38_260595134347_rgbf000084-resize_1-target.png,125,4.408,3,2240,114,feet,jsons/VE125_randls_59.json,510829,644776,29,Woman
62,912472,DepthScenes,duration_manipulation_targetAtFixation,jsons/VE125_randls_59.json,http://54.235.29.9/FacialAge/BNav_EC2/DepthDuration/v2_depth_duration_MTurk/v2_DepthDuration_HTML.html#68,68,779,357,1364,768,9-21-2022,11-53-32,63,depth_duration_stimuli/002103_2014-06-25_20-00-40_260595134347_rgbf000049-resize_0/002103_2014-06-25_20-00-40_260595134347_rgbf000049-resize_0-target.png,125,4.105,0,2556,124,feet,jsons/VE125_randls_59.json,510829,644776,29,Woman
63,912472,DepthScenes,duration_manipulation_targetAtFixation,jsons/VE125_randls_59.json,http://54.235.29.9/FacialAge/BNav_EC2/DepthDuration/v2_depth_duration_MTurk/v2_DepthDuration_HTML.html#68,68,779,357,1364,768,9-21-2022,11-53-32,64,depth_duration_stimuli/003292_2014-05-14_21-53-49_094959634447_rgbf000100-resize_2/003292_2014-05-14_21-53-49_094959634447_rgbf000100-resize_2-target.png,125,3.4815,6,2994,123,feet,jsons/VE125_randls_59.json,510829,644776,29,Woman
64,912472,DepthScenes,duration_manipulation_targetAtFixation,jsons/VE125_randls_59.json,http://54.235.29.9/FacialAge/BNav_EC2/DepthDuration/v2_depth_duration_MTurk/v2_DepthDuration_HTML.html#68,68,779,357,1364,768,9-21-2022,11-53-32,65,depth_duration_stimuli/002639_2014-06-24_14-51-37_094959634447_rgbf000074-resize_4/002639_2014-06-24_14-51-37_094959634447_rgbf000074-resize_4-target.png,125,4.0375,0,2067,127,feet,jsons/VE125_randls_59.json,510829,644776,29,Woman
65,912472,DepthScenes,duration_manipulation_targetAtFixation,jsons/VE125_randls_59.json,http://54.235.29.9/FacialAge/BNav_EC2/DepthDuration/v2_depth_duration_MTurk/v2_DepthDuration_HTML.html#68,68,779,357,1364,768,9-21-2022,11-53-32,66,depth_duration_stimuli/001222_2014-06-17_16-24-06_260595134347_rgbf000073-resize_0/001222_2014-06-17_16-24-06_260595134347_rgbf000073-resize-original.jpg,125,1.4385,6,3034,130,feet,jsons/VE125_randls_59.json,510829,644776,29,Woman
66,912472,DepthScenes,duration_manipulation_targetAtFixation,jsons/VE125_randls_59.json,http://54.235.29.9/FacialAge/BNav_EC2/DepthDuration/v2_depth_duration_MTurk/v2_DepthDuration_HTML.html#68,68,779,357,1364,768,9-21-2022,11-53-32,67,depth_duration_stimuli/003621_2014-05-23_18-06-08_094959634447_rgbf000101-resize_1/003621_2014-05-23_18-06-08_094959634447_rgbf000101-resize_1-target.png,125,3.9835,8,3273,125,feet,jsons/VE125_randls_59.json,510829,644776,29,Woman
67,912472,DepthScenes,duration_manipulation_targetAtFixation,jsons/VE125_randls_59.json,http://54.235.29.9/FacialAge/BNav_EC2/DepthDuration/v2_depth_duration_MTurk/v2_DepthDuration_HTML.html#68,68,779,357,1364,768,9-21-2022,11-53-32,68,depth_duration_stimuli/001584_2014-06-20_11-07-43_260595134347_rgbf000002-resize_1/001584_2014-06-20_11-07-43_260595134347_rgbf000002-resize_1-target.png,125,3.53,0,2588,130,feet,jsons/VE125_randls_59.json,510829,644776,29,Woman
68,912472,DepthScenes,duration_manipulation_targetAtFixation,jsons/VE125_randls_59.json,http://54.235.29.9/FacialAge/BNav_EC2/DepthDuration/v2_depth_duration_MTurk/v2_DepthDuration_HTML.html#68,68,779,357,1364,768,9-21-2022,11-53-32,69,depth_duration_stimuli/000773_2014-06-08_22-24-54_260595134347_rgbf000093-resize_1/000773_2014-06-08_22-24-54_260595134347_rgbf000093-resize_1-target.png,125,4.973,3,2627,124,feet,jsons/VE125_randls_59.json,510829,644776,29,Woman
69,912472,DepthScenes,duration_manipulation_targetAtFixation,jsons/VE125_randls_59.json,http://54.235.29.9/FacialAge/BNav_EC2/DepthDuration/v2_depth_duration_MTurk/v2_DepthDuration_HTML.html#68,68,779,357,1364,768,9-21-2022,11-53-32,70,depth_duration_stimuli/002414_2014-06-28_20-24-58_260595134347_rgbf000067-resize_4/002414_2014-06-28_20-24-58_260595134347_rgbf000067-resize_4-target.png,125,4.363,0,2186,126,feet,jsons/VE125_randls_59.json,510829,644776,29,Woman
70,912472,DepthScenes,duration_manipulation_targetAtFixation,jsons/VE125_randls_59.json,http://54.235.29.9/FacialAge/BNav_EC2/DepthDuration/v2_depth_duration_MTurk/v2_DepthDuration_HTML.html#68,68,779,357,1364,768,9-21-2022,11-53-32,71,depth_duration_stimuli/001806_2014-06-26_20-50-20_260595134347_rgbf000091-resize_1/001806_2014-06-26_20-50-20_260595134347_rgbf000091-resize_1-target.png,125,2.7305,5,2760,124,feet,jsons/VE125_randls_59.json,510829,644776,29,Woman
71,912472,DepthScenes,duration_manipulation_targetAtFixation,jsons/VE125_randls_59.json,http://54.235.29.9/FacialAge/BNav_EC2/DepthDuration/v2_depth_duration_MTurk/v2_DepthDuration_HTML.html#68,68,779,357,1364,768,9-21-2022,11-53-32,72,depth_duration_stimuli/001617_2014-06-20_11-35-32_260595134347_rgbf000066-resize_1/001617_2014-06-20_11-35-32_260595134347_rgbf000066-resize_1-target.png,125,3.7910000000000004,0,2168,126,feet,jsons/VE125_randls_59.json,510829,644776,29,Woman
72,912472,DepthScenes,duration_manipulation_targetAtFixation,jsons/VE125_randls_59.json,http://54.235.29.9/FacialAge/BNav_EC2/DepthDuration/v2_depth_duration_MTurk/v2_DepthDuration_HTML.html#68,68,779,357,1364,768,9-21-2022,11-53-32,73,depth_duration_stimuli/001056_2014-06-08_18-46-44_260595134347_rgbf000068-resize_0/001056_2014-06-08_18-46-44_260595134347_rgbf000068-resize_0-target.png,125,2.6625,3,2307,117,feet,jsons/VE125_randls_59.json,510829,644776,29,Woman
73,912472,DepthScenes,duration_manipulation_targetAtFixation,jsons/VE125_randls_59.json,http://54.235.29.9/FacialAge/BNav_EC2/DepthDuration/v2_depth_duration_MTurk/v2_DepthDuration_HTML.html#68,68,779,357,1364,768,9-21-2022,11-53-32,74,depth_duration_stimuli/002199_2014-06-28_18-33-56_260595134347_rgbf000074-resize_0/002199_2014-06-28_18-33-56_260595134347_rgbf000074-resize_0-target.png,125,1.996,0,2081,124,feet,jsons/VE125_randls_59.json,510829,644776,29,Woman
74,912472,DepthScenes,duration_manipulation_targetAtFixation,jsons/VE125_randls_59.json,http://54.235.29.9/FacialAge/BNav_EC2/DepthDuration/v2_depth_duration_MTurk/v2_DepthDuration_HTML.html#68,68,779,357,1364,768,9-21-2022,11-53-32,75,depth_duration_stimuli/001555_2014-06-20_17-12-10_260595134347_rgbf000065-resize_4/001555_2014-06-20_17-12-10_260595134347_rgbf000065-resize_4-target.png,125,1.633,3,2196,130,feet,jsons/VE125_randls_59.json,510829,644776,29,Woman
75,912472,DepthScenes,duration_manipulation_targetAtFixation,jsons/VE125_randls_59.json,http://54.235.29.9/FacialAge/BNav_EC2/DepthDuration/v2_depth_duration_MTurk/v2_DepthDuration_HTML.html#68,68,779,357,1364,768,9-21-2022,11-53-32,76,depth_duration_stimuli/000103_2014-05-14_22-01-17_260595134347_rgbf000152-resize_5/000103_2014-05-14_22-01-17_260595134347_rgbf000152-resize_5-target.png,125,1.993,0,2105,124,feet,jsons/VE125_randls_59.json,510829,644776,29,Woman
76,912472,DepthScenes,duration_manipulation_targetAtFixation,jsons/VE125_randls_59.json,http://54.235.29.9/FacialAge/BNav_EC2/DepthDuration/v2_depth_duration_MTurk/v2_DepthDuration_HTML.html#68,68,779,357,1364,768,9-21-2022,11-53-32,77,depth_duration_stimuli/000758_2014-06-08_22-05-08_260595134347_rgbf000085-resize_0/000758_2014-06-08_22-05-08_260595134347_rgbf000085-resize_0-target.png,125,3.3810000000000002,5,2845,125,feet,jsons/VE125_randls_59.json,510829,644776,29,Woman
77,912472,DepthScenes,duration_manipulation_targetAtFixation,jsons/VE125_randls_59.json,http://54.235.29.9/FacialAge/BNav_EC2/DepthDuration/v2_depth_duration_MTurk/v2_DepthDuration_HTML.html#68,68,779,357,1364,768,9-21-2022,11-53-32,78,depth_duration_stimuli/000854_2014-06-09_19-43-13_260595134347_rgbf000066-resize_0/000854_2014-06-09_19-43-13_260595134347_rgbf000066-resize_0-target.png,125,3.068,0,2287,109,feet,jsons/VE125_randls_59.json,510829,644776,29,Woman
78,912472,DepthScenes,duration_manipulation_targetAtFixation,jsons/VE125_randls_59.json,http://54.235.29.9/FacialAge/BNav_EC2/DepthDuration/v2_depth_duration_MTurk/v2_DepthDuration_HTML.html#68,68,779,357,1364,768,9-21-2022,11-53-32,79,depth_duration_stimuli/000692_2014-06-08_13-09-42_260595134347_rgbf000199-resize_2/000692_2014-06-08_13-09-42_260595134347_rgbf000199-resize_2-target.png,125,3.661,5,2802,124,feet,jsons/VE125_randls_59.json,510829,644776,29,Woman
79,912472,DepthScenes,duration_manipulation_targetAtFixation,jsons/VE125_randls_59.json,http://54.235.29.9/FacialAge/BNav_EC2/DepthDuration/v2_depth_duration_MTurk/v2_DepthDuration_HTML.html#68,68,779,357,1364,768,9-21-2022,11-53-32,80,depth_duration_stimuli/001094_2014-06-15_17-36-00_260595134347_rgbf000205-resize_0/001094_2014-06-15_17-36-00_260595134347_rgbf000205-resize_0-target.png,125,4.2175,0,2117,121,feet,jsons/VE125_randls_59.json,510829,644776,29,Woman
80,912472,DepthScenes,duration_manipulation_targetAtFixation,jsons/VE125_randls_59.json,http://54.235.29.9/FacialAge/BNav_EC2/DepthDuration/v2_depth_duration_MTurk/v2_DepthDuration_HTML.html#68,68,779,357,1364,768,9-21-2022,11-53-32,81,depth_duration_stimuli/002043_2014-06-24_20-29-38_260595134347_rgbf000039-resize_4/002043_2014-06-24_20-29-38_260595134347_rgbf000039-resize_4-target.png,125,2.8435,5,2856,152,feet,jsons/VE125_randls_59.json,510829,644776,29,Woman
81,912472,DepthScenes,duration_manipulation_targetAtFixation,jsons/VE125_randls_59.json,http://54.235.29.9/FacialAge/BNav_EC2/DepthDuration/v2_depth_duration_MTurk/v2_DepthDuration_HTML.html#68,68,779,357,1364,768,9-21-2022,11-53-32,82,depth_duration_stimuli/003048_2014-06-15_13-49-43_094959634447_rgbf000150-resize_1/003048_2014-06-15_13-49-43_094959634447_rgbf000150-resize_1-target.png,125,4.0035,3,3917,117,feet,jsons/VE125_randls_59.json,510829,644776,29,Woman
82,912472,DepthScenes,duration_manipulation_targetAtFixation,jsons/VE125_randls_59.json,http://54.235.29.9/FacialAge/BNav_EC2/DepthDuration/v2_depth_duration_MTurk/v2_DepthDuration_HTML.html#68,68,779,357,1364,768,9-21-2022,11-53-32,83,depth_duration_stimuli/002964_2014-06-08_17-46-11_094959634447_rgbf000091-resize_4/002964_2014-06-08_17-46-11_094959634447_rgbf000091-resize_4-target.png,125,1.6909999999999998,5,3060,126,feet,jsons/VE125_randls_59.json,510829,644776,29,Woman
83,912472,DepthScenes,duration_manipulation_targetAtFixation,jsons/VE125_randls_59.json,http://54.235.29.9/FacialAge/BNav_EC2/DepthDuration/v2_depth_duration_MTurk/v2_DepthDuration_HTML.html#68,68,779,357,1364,768,9-21-2022,11-53-32,84,depth_duration_stimuli/002136_2014-06-25_21-18-03_260595134347_rgbf000109-resize_3/002136_2014-06-25_21-18-03_260595134347_rgbf000109-resize_3-target.png,125,1.9569999999999999,6,3400,126,feet,jsons/VE125_randls_59.json,510829,644776,29,Woman
84,912472,DepthScenes,duration_manipulation_targetAtFixation,jsons/VE125_randls_59.json,http://54.235.29.9/FacialAge/BNav_EC2/DepthDuration/v2_depth_duration_MTurk/v2_DepthDuration_HTML.html#68,68,779,357,1364,768,9-21-2022,11-53-32,85,depth_duration_stimuli/000447_2014-06-08_16-15-46_260595134347_rgbf000130-resize_1/000447_2014-06-08_16-15-46_260595134347_rgbf000130-resize_1-target.png,125,4.479,5,3845,126,feet,jsons/VE125_randls_59.json,510829,644776,29,Woman
85,912472,DepthScenes,duration_manipulation_targetAtFixation,jsons/VE125_randls_59.json,http://54.235.29.9/FacialAge/BNav_EC2/DepthDuration/v2_depth_duration_MTurk/v2_DepthDuration_HTML.html#68,68,779,357,1364,768,9-21-2022,11-53-32,86,depth_duration_stimuli/001447_2014-06-19_17-00-32_260595134347_rgbf000082-resize_5/001447_2014-06-19_17-00-32_260595134347_rgbf000082-resize_5-target.png,125,4.13775,5,3407,124,feet,jsons/VE125_randls_59.json,510829,644776,29,Woman
86,912472,DepthScenes,duration_manipulation_targetAtFixation,jsons/VE125_randls_59.json,http://54.235.29.9/FacialAge/BNav_EC2/DepthDuration/v2_depth_duration_MTurk/v2_DepthDuration_HTML.html#68,68,779,357,1364,768,9-21-2022,11-53-32,87,depth_duration_stimuli/001059_2014-06-08_21-53-27_260595134347_rgbf000061-resize_4/001059_2014-06-08_21-53-27_260595134347_rgbf000061-resize_4-target.png,125,2.4185,5,2484,124,feet,jsons/VE125_randls_59.json,510829,644776,29,Woman
87,912472,DepthScenes,duration_manipulation_targetAtFixation,jsons/VE125_randls_59.json,http://54.235.29.9/FacialAge/BNav_EC2/DepthDuration/v2_depth_duration_MTurk/v2_DepthDuration_HTML.html#68,68,779,357,1364,768,9-21-2022,11-53-32,88,depth_duration_stimuli/001032_2014-06-08_13-23-17_260595134347_rgbf000021-resize_3/001032_2014-06-08_13-23-17_260595134347_rgbf000021-resize_3-target.png,125,3.2725,0,2588,126,feet,jsons/VE125_randls_59.json,510829,644776,29,Woman
88,912472,DepthScenes,duration_manipulation_targetAtFixation,jsons/VE125_randls_59.json,http://54.235.29.9/FacialAge/BNav_EC2/DepthDuration/v2_depth_duration_MTurk/v2_DepthDuration_HTML.html#68,68,779,357,1364,768,9-21-2022,11-53-32,89,depth_duration_stimuli/001092_2014-06-15_17-34-58_260595134347_rgbf000171-resize_3/001092_2014-06-15_17-34-58_260595134347_rgbf000171-resize_3-target.png,125,2.6935,4,2709,126,feet,jsons/VE125_randls_59.json,510829,644776,29,Woman
89,912472,DepthScenes,duration_manipulation_targetAtFixation,jsons/VE125_randls_59.json,http://54.235.29.9/FacialAge/BNav_EC2/DepthDuration/v2_depth_duration_MTurk/v2_DepthDuration_HTML.html#68,68,779,357,1364,768,9-21-2022,11-53-32,90,depth_duration_stimuli/002545_2014-06-24_13-38-53_094959634447_rgbf000080-resize_4/002545_2014-06-24_13-38-53_094959634447_rgbf000080-resize_4-target.png,125,1.9205,5,2421,124,feet,jsons/VE125_randls_59.json,510829,644776,29,Woman
90,912472,DepthScenes,duration_manipulation_targetAtFixation,jsons/VE125_randls_59.json,http://54.235.29.9/FacialAge/BNav_EC2/DepthDuration/v2_depth_duration_MTurk/v2_DepthDuration_HTML.html#68,68,779,357,1364,768,9-21-2022,11-53-32,91,depth_duration_stimuli/002763_2014-06-22_19-13-10_094959634447_rgbf000075-resize_4/002763_2014-06-22_19-13-10_094959634447_rgbf000075-resize_4-target.png,125,1.68375,5,2625,126,feet,jsons/VE125_randls_59.json,510829,644776,29,Woman
91,912472,DepthScenes,duration_manipulation_targetAtFixation,jsons/VE125_randls_59.json,http://54.235.29.9/FacialAge/BNav_EC2/DepthDuration/v2_depth_duration_MTurk/v2_DepthDuration_HTML.html#68,68,779,357,1364,768,9-21-2022,11-53-32,92,depth_duration_stimuli/002209_2014-06-28_18-36-10_260595134347_rgbf000051-resize_1/002209_2014-06-28_18-36-10_260595134347_rgbf000051-resize_1-target.png,125,2.057,0,2197,126,feet,jsons/VE125_randls_59.json,510829,644776,29,Woman
92,912472,DepthScenes,duration_manipulation_targetAtFixation,jsons/VE125_randls_59.json,http://54.235.29.9/FacialAge/BNav_EC2/DepthDuration/v2_depth_duration_MTurk/v2_DepthDuration_HTML.html#68,68,779,357,1364,768,9-21-2022,11-53-32,93,depth_duration_stimuli/000414_2014-06-04_19-49-13_260595134347_rgbf000044-resize_0/000414_2014-06-04_19-49-13_260595134347_rgbf000044-resize_0-target.png,125,4.329,5,2864,125,feet,jsons/VE125_randls_59.json,510829,644776,29,Woman
93,912472,DepthScenes,duration_manipulation_targetAtFixation,jsons/VE125_randls_59.json,http://54.235.29.9/FacialAge/BNav_EC2/DepthDuration/v2_depth_duration_MTurk/v2_DepthDuration_HTML.html#68,68,779,357,1364,768,9-21-2022,11-53-32,94,depth_duration_stimuli/003129_2014-05-12_10-48-10_094959634447_rgbf000100-resize_0/003129_2014-05-12_10-48-10_094959634447_rgbf000100-resize_0-target.png,125,4.9305,0,2177,125,feet,jsons/VE125_randls_59.json,510829,644776,29,Woman
94,912472,DepthScenes,duration_manipulation_targetAtFixation,jsons/VE125_randls_59.json,http://54.235.29.9/FacialAge/BNav_EC2/DepthDuration/v2_depth_duration_MTurk/v2_DepthDuration_HTML.html#68,68,779,357,1364,768,9-21-2022,11-53-32,95,depth_duration_stimuli/000929_2014-06-09_16-33-19_260595134347_rgbf000139-resize_0/000929_2014-06-09_16-33-19_260595134347_rgbf000139-resize_0-target.png,125,2.8680000000000003,3,2475,124,feet,jsons/VE125_randls_59.json,510829,644776,29,Woman
95,912472,DepthScenes,duration_manipulation_targetAtFixation,jsons/VE125_randls_59.json,http://54.235.29.9/FacialAge/BNav_EC2/DepthDuration/v2_depth_duration_MTurk/v2_DepthDuration_HTML.html#68,68,779,357,1364,768,9-21-2022,11-53-32,96,depth_duration_stimuli/000457_2014-06-08_16-52-43_260595134347_rgbf000199-resize_1/000457_2014-06-08_16-52-43_260595134347_rgbf000199-resize_1-target.png,125,3.6489999999999996,0,2261,124,feet,jsons/VE125_randls_59.json,510829,644776,29,Woman
96,912472,DepthScenes,duration_manipulation_targetAtFixation,jsons/VE125_randls_59.json,http://54.235.29.9/FacialAge/BNav_EC2/DepthDuration/v2_depth_duration_MTurk/v2_DepthDuration_HTML.html#68,68,779,357,1364,768,9-21-2022,11-53-32,97,depth_duration_stimuli/001133_2014-06-17_14-49-16_260595134347_rgbf000100-resize_0/001133_2014-06-17_14-49-16_260595134347_rgbf000100-resize_0-target.png,125,4.2115,5,3493,133,feet,jsons/VE125_randls_59.json,510829,644776,29,Woman
97,912472,DepthScenes,duration_manipulation_targetAtFixation,jsons/VE125_randls_59.json,http://54.235.29.9/FacialAge/BNav_EC2/DepthDuration/v2_depth_duration_MTurk/v2_DepthDuration_HTML.html#68,68,779,357,1364,768,9-21-2022,11-53-32,98,depth_duration_stimuli/001132_2014-06-17_14-48-54_260595134347_rgbf000100-resize_2/001132_2014-06-17_14-48-54_260595134347_rgbf000100-resize_2-target.png,125,3.753,5,3229,147,feet,jsons/VE125_randls_59.json,510829,644776,29,Woman
98,912472,DepthScenes,duration_manipulation_targetAtFixation,jsons/VE125_randls_59.json,http://54.235.29.9/FacialAge/BNav_EC2/DepthDuration/v2_depth_duration_MTurk/v2_DepthDuration_HTML.html#68,68,779,357,1364,768,9-21-2022,11-53-32,99,depth_duration_stimuli/001540_2014-06-20_17-01-05_260595134347_rgbf000086-resize_2/001540_2014-06-20_17-01-05_260595134347_rgbf000086-resize-original.jpg,125,1.459,6,3020,124,feet,jsons/VE125_randls_59.json,510829,644776,29,Woman
99,912472,DepthScenes,duration_manipulation_targetAtFixation,jsons/VE125_randls_59.json,http://54.235.29.9/FacialAge/BNav_EC2/DepthDuration/v2_depth_duration_MTurk/v2_DepthDuration_HTML.html#68,68,779,357,1364,768,9-21-2022,11-53-32,100,depth_duration_stimuli/002570_2014-06-24_13-59-54_094959634447_rgbf000059-resize_0/002570_2014-06-24_13-59-54_094959634447_rgbf000059-resize_0-target.png,125,4.037,8,4209,133,feet,jsons/VE125_randls_59.json,510829,644776,29,Woman
100,912472,DepthScenes,duration_manipulation_targetAtFixation,jsons/VE125_randls_59.json,http://54.235.29.9/FacialAge/BNav_EC2/DepthDuration/v2_depth_duration_MTurk/v2_DepthDuration_HTML.html#68,68,779,357,1364,768,9-21-2022,11-53-32,101,depth_duration_stimuli/002467_2014-06-28_20-38-07_260595134347_rgbf000026-resize_2/002467_2014-06-28_20-38-07_260595134347_rgbf000026-resize_2-target.png,125,4.742,5,2810,123,feet,jsons/VE125_randls_59.json,510829,644776,29,Woman
101,912472,DepthScenes,duration_manipulation_targetAtFixation,jsons/VE125_randls_59.json,http://54.235.29.9/FacialAge/BNav_EC2/DepthDuration/v2_depth_duration_MTurk/v2_DepthDuration_HTML.html#68,68,779,357,1364,768,9-21-2022,11-53-32,102,depth_duration_stimuli/001011_2014-06-08_23-18-54_260595134347_rgbf000044-resize_4/001011_2014-06-08_23-18-54_260595134347_rgbf000044-resize_4-target.png,125,2.4730000000000003,3,2587,124,feet,jsons/VE125_randls_59.json,510829,644776,29,Woman
102,912472,DepthScenes,duration_manipulation_targetAtFixation,jsons/VE125_randls_59.json,http://54.235.29.9/FacialAge/BNav_EC2/DepthDuration/v2_depth_duration_MTurk/v2_DepthDuration_HTML.html#68,68,779,357,1364,768,9-21-2022,11-53-32,103,depth_duration_stimuli/002875_2014-06-01_15-19-00_094959634447_rgbf000151-resize_1/002875_2014-06-01_15-19-00_094959634447_rgbf000151-resize_1-target.png,125,1.9675,0,2147,125,feet,jsons/VE125_randls_59.json,510829,644776,29,Woman
103,912472,DepthScenes,duration_manipulation_targetAtFixation,jsons/VE125_randls_59.json,http://54.235.29.9/FacialAge/BNav_EC2/DepthDuration/v2_depth_duration_MTurk/v2_DepthDuration_HTML.html#68,68,779,357,1364,768,9-21-2022,11-53-32,104,depth_duration_stimuli/002279_2014-06-28_18-55-32_260595134347_rgbf000040-resize_5/002279_2014-06-28_18-55-32_260595134347_rgbf000040-resize_5-target.png,125,1.5043333333333,3,2508,123,feet,jsons/VE125_randls_59.json,510829,644776,29,Woman
104,912472,DepthScenes,duration_manipulation_targetAtFixation,jsons/VE125_randls_59.json,http://54.235.29.9/FacialAge/BNav_EC2/DepthDuration/v2_depth_duration_MTurk/v2_DepthDuration_HTML.html#68,68,779,357,1364,768,9-21-2022,11-53-32,105,depth_duration_stimuli/000635_2014-06-08_16-38-42_260595134347_rgbf000106-resize_1/000635_2014-06-08_16-38-42_260595134347_rgbf000106-resize_1-target.png,125,2.074,0,2029,119,feet,jsons/VE125_randls_59.json,510829,644776,29,Woman
105,912472,DepthScenes,duration_manipulation_targetAtFixation,jsons/VE125_randls_59.json,http://54.235.29.9/FacialAge/BNav_EC2/DepthDuration/v2_depth_duration_MTurk/v2_DepthDuration_HTML.html#68,68,779,357,1364,768,9-21-2022,11-53-32,106,depth_duration_stimuli/002630_2014-06-24_14-47-50_094959634447_rgbf000055-resize_1/002630_2014-06-24_14-47-50_094959634447_rgbf000055-resize_1-target.png,125,3.0095,5,3263,124,feet,jsons/VE125_randls_59.json,510829,644776,29,Woman
106,912472,DepthScenes,duration_manipulation_targetAtFixation,jsons/VE125_randls_59.json,http://54.235.29.9/FacialAge/BNav_EC2/DepthDuration/v2_depth_duration_MTurk/v2_DepthDuration_HTML.html#68,68,779,357,1364,768,9-21-2022,11-53-32,107,depth_duration_stimuli/002758_2014-06-22_19-11-20_094959634447_rgbf000128-resize_1/002758_2014-06-22_19-11-20_094959634447_rgbf000128-resize_1-target.png,125,2.555,3,2540,129,feet,jsons/VE125_randls_59.json,510829,644776,29,Woman
107,912472,DepthScenes,duration_manipulation_targetAtFixation,jsons/VE125_randls_59.json,http://54.235.29.9/FacialAge/BNav_EC2/DepthDuration/v2_depth_duration_MTurk/v2_DepthDuration_HTML.html#68,68,779,357,1364,768,9-21-2022,11-53-32,108,depth_duration_stimuli/000642_2014-06-08_16-59-25_260595134347_rgbf000098-resize_2/000642_2014-06-08_16-59-25_260595134347_rgbf000098-resize_2-target.png,125,2.8815,5,2374,127,feet,jsons/VE125_randls_59.json,510829,644776,29,Woman
108,912472,DepthScenes,duration_manipulation_targetAtFixation,jsons/VE125_randls_59.json,http://54.235.29.9/FacialAge/BNav_EC2/DepthDuration/v2_depth_duration_MTurk/v2_DepthDuration_HTML.html#68,68,779,357,1364,768,9-21-2022,11-53-32,109,depth_duration_stimuli/002425_2014-06-28_20-27-29_260595134347_rgbf000031-resize_8/002425_2014-06-28_20-27-29_260595134347_rgbf000031-resize_8-target.png,125,3.8960000000000004,0,1973,125,feet,jsons/VE125_randls_59.json,510829,644776,29,Woman
109,912472,DepthScenes,duration_manipulation_targetAtFixation,jsons/VE125_randls_59.json,http://54.235.29.9/FacialAge/BNav_EC2/DepthDuration/v2_depth_duration_MTurk/v2_DepthDuration_HTML.html#68,68,779,357,1364,768,9-21-2022,11-53-32,110,depth_duration_stimuli/002118_2014-06-25_20-32-08_260595134347_rgbf000078-resize_1/002118_2014-06-25_20-32-08_260595134347_rgbf000078-resize_1-target.png,125,2.6460000000000004,3,2802,131,feet,jsons/VE125_randls_59.json,510829,644776,29,Woman
110,912472,DepthScenes,duration_manipulation_targetAtFixation,jsons/VE125_randls_59.json,http://54.235.29.9/FacialAge/BNav_EC2/DepthDuration/v2_depth_duration_MTurk/v2_DepthDuration_HTML.html#68,68,779,357,1364,768,9-21-2022,11-53-32,111,depth_duration_stimuli/001516_2014-06-20_16-25-09_260595134347_rgbf000076-resize_2/001516_2014-06-20_16-25-09_260595134347_rgbf000076-resize_2-target.png,125,1.7445,0,2054,125,feet,jsons/VE125_randls_59.json,510829,644776,29,Woman
111,912472,DepthScenes,duration_manipulation_targetAtFixation,jsons/VE125_randls_59.json,http://54.235.29.9/FacialAge/BNav_EC2/DepthDuration/v2_depth_duration_MTurk/v2_DepthDuration_HTML.html#68,68,779,357,1364,768,9-21-2022,11-53-32,112,depth_duration_stimuli/003492_2014-05-21_15-50-55_094959634447_rgbf000828-resize_1/003492_2014-05-21_15-50-55_094959634447_rgbf000828-resize_1-target.png,125,4.06875,5,2273,126,feet,jsons/VE125_randls_59.json,510829,644776,29,Woman
112,912472,DepthScenes,duration_manipulation_targetAtFixation,jsons/VE125_randls_59.json,http://54.235.29.9/FacialAge/BNav_EC2/DepthDuration/v2_depth_duration_MTurk/v2_DepthDuration_HTML.html#68,68,779,357,1364,768,9-21-2022,11-53-32,113,depth_duration_stimuli/002568_2014-06-24_13-59-21_094959634447_rgbf000062-resize_4/002568_2014-06-24_13-59-21_094959634447_rgbf000062-resize_4-target.png,125,3.015,0,1969,124,feet,jsons/VE125_randls_59.json,510829,644776,29,Woman
113,912472,DepthScenes,duration_manipulation_targetAtFixation,jsons/VE125_randls_59.json,http://54.235.29.9/FacialAge/BNav_EC2/DepthDuration/v2_depth_duration_MTurk/v2_DepthDuration_HTML.html#68,68,779,357,1364,768,9-21-2022,11-53-32,114,depth_duration_stimuli/001175_2014-06-17_15-45-55_260595134347_rgbf000129-resize_4/001175_2014-06-17_15-45-55_260595134347_rgbf000129-resize_4-target.png,125,4.255,5,2397,127,feet,jsons/VE125_randls_59.json,510829,644776,29,Woman
114,912472,DepthScenes,duration_manipulation_targetAtFixation,jsons/VE125_randls_59.json,http://54.235.29.9/FacialAge/BNav_EC2/DepthDuration/v2_depth_duration_MTurk/v2_DepthDuration_HTML.html#68,68,779,357,1364,768,9-21-2022,11-53-32,115,depth_duration_stimuli/003490_2014-05-21_15-50-11_094959634447_rgbf000101-resize_3/003490_2014-05-21_15-50-11_094959634447_rgbf000101-resize_3-target.png,125,3.6445,0,2026,130,feet,jsons/VE125_randls_59.json,510829,644776,29,Woman
115,912472,DepthScenes,duration_manipulation_targetAtFixation,jsons/VE125_randls_59.json,http://54.235.29.9/FacialAge/BNav_EC2/DepthDuration/v2_depth_duration_MTurk/v2_DepthDuration_HTML.html#68,68,779,357,1364,768,9-21-2022,11-53-32,116,depth_duration_stimuli/001170_2014-06-17_15-43-44_260595134347_rgbf000096-resize_6/001170_2014-06-17_15-43-44_260595134347_rgbf000096-resize-original.jpg,125,1.1909999999999998,0,2795,124,feet,jsons/VE125_randls_59.json,510829,644776,29,Woman
116,912472,DepthScenes,duration_manipulation_targetAtFixation,jsons/VE125_randls_59.json,http://54.235.29.9/FacialAge/BNav_EC2/DepthDuration/v2_depth_duration_MTurk/v2_DepthDuration_HTML.html#68,68,779,357,1364,768,9-21-2022,11-53-32,117,depth_duration_stimuli/000470_2014-06-09_19-42-40_260595134347_rgbf000094-resize_1/000470_2014-06-09_19-42-40_260595134347_rgbf000094-resize_1-target.png,125,1.831,3,2146,140,feet,jsons/VE125_randls_59.json,510829,644776,29,Woman
117,912472,DepthScenes,duration_manipulation_targetAtFixation,jsons/VE125_randls_59.json,http://54.235.29.9/FacialAge/BNav_EC2/DepthDuration/v2_depth_duration_MTurk/v2_DepthDuration_HTML.html#68,68,779,357,1364,768,9-21-2022,11-53-32,118,depth_duration_stimuli/000109_2014-05-14_23-41-52_260595134347_rgbf000035-resize_9/000109_2014-05-14_23-41-52_260595134347_rgbf000035-resize_9-target.png,125,1.3545,0,1955,123,feet,jsons/VE125_randls_59.json,510829,644776,29,Woman
118,912472,DepthScenes,duration_manipulation_targetAtFixation,jsons/VE125_randls_59.json,http://54.235.29.9/FacialAge/BNav_EC2/DepthDuration/v2_depth_duration_MTurk/v2_DepthDuration_HTML.html#68,68,779,357,1364,768,9-21-2022,11-53-32,119,depth_duration_stimuli/001029_2014-06-08_13-17-57_260595134347_rgbf000065-resize_1/001029_2014-06-08_13-17-57_260595134347_rgbf000065-resize_1-target.png,125,3.0835,5,2626,125,feet,jsons/VE125_randls_59.json,510829,644776,29,Woman
119,912472,DepthScenes,duration_manipulation_targetAtFixation,jsons/VE125_randls_59.json,http://54.235.29.9/FacialAge/BNav_EC2/DepthDuration/v2_depth_duration_MTurk/v2_DepthDuration_HTML.html#68,68,779,357,1364,768,9-21-2022,11-53-32,120,depth_duration_stimuli/000677_2014-06-08_23-10-32_260595134347_rgbf000158-resize_6/000677_2014-06-08_23-10-32_260595134347_rgbf000158-resize_6-target.png,125,3.556,5,3685,126,feet,jsons/VE125_randls_59.json,510829,644776,29,Woman
120,912472,DepthScenes,duration_manipulation_targetAtFixation,jsons/VE125_randls_59.json,http://54.235.29.9/FacialAge/BNav_EC2/DepthDuration/v2_depth_duration_MTurk/v2_DepthDuration_HTML.html#68,68,779,357,1364,768,9-21-2022,11-53-32,121,depth_duration_stimuli/000522_2014-06-08_13-35-06_260595134347_rgbf000244-resize_1/000522_2014-06-08_13-35-06_260595134347_rgbf000244-resize_1-target.png,125,2.3715,3,2025,125,feet,jsons/VE125_randls_59.json,510829,644776,29,Woman
121,912472,DepthScenes,duration_manipulation_targetAtFixation,jsons/VE125_randls_59.json,http://54.235.29.9/FacialAge/BNav_EC2/DepthDuration/v2_depth_duration_MTurk/v2_DepthDuration_HTML.html#68,68,779,357,1364,768,9-21-2022,11-53-32,122,depth_duration_stimuli/002949_2014-06-26_15-57-42_094959634447_rgbf000079-resize_1/002949_2014-06-26_15-57-42_094959634447_rgbf000079-resize_1-target.png,125,1.8915,5,2186,127,feet,jsons/VE125_randls_59.json,510829,644776,29,Woman
122,912472,DepthScenes,duration_manipulation_targetAtFixation,jsons/VE125_randls_59.json,http://54.235.29.9/FacialAge/BNav_EC2/DepthDuration/v2_depth_duration_MTurk/v2_DepthDuration_HTML.html#68,68,779,357,1364,768,9-21-2022,11-53-32,123,depth_duration_stimuli/000917_2014-06-09_22-45-29_260595134347_rgbf000149-resize_3/000917_2014-06-09_22-45-29_260595134347_rgbf000149-resize_3-target.png,125,4.1865,5,2149,125,feet,jsons/VE125_randls_59.json,510829,644776,29,Woman
123,912472,DepthScenes,duration_manipulation_targetAtFixation,jsons/VE125_randls_59.json,http://54.235.29.9/FacialAge/BNav_EC2/DepthDuration/v2_depth_duration_MTurk/v2_DepthDuration_HTML.html#68,68,779,357,1364,768,9-21-2022,11-53-32,124,depth_duration_stimuli/002323_2014-06-28_20-01-54_260595134347_rgbf000051-resize_4/002323_2014-06-28_20-01-54_260595134347_rgbf000051-resize_4-target.png,125,3.7310000000000003,0,1996,127,feet,jsons/VE125_randls_59.json,510829,644776,29,Woman
124,912472,DepthScenes,duration_manipulation_targetAtFixation,jsons/VE125_randls_59.json,http://54.235.29.9/FacialAge/BNav_EC2/DepthDuration/v2_depth_duration_MTurk/v2_DepthDuration_HTML.html#68,68,779,357,1364,768,9-21-2022,11-53-32,125,depth_duration_stimuli/000486_2014-06-09_20-47-20_260595134347_rgbf000143-resize_2/000486_2014-06-09_20-47-20_260595134347_rgbf000143-resize_2-target.png,125,4.8325,4,2959,132,feet,jsons/VE125_randls_59.json,510829,644776,29,Woman
125,912472,DepthScenes,duration_manipulation_targetAtFixation,jsons/VE125_randls_59.json,http://54.235.29.9/FacialAge/BNav_EC2/DepthDuration/v2_depth_duration_MTurk/v2_DepthDuration_HTML.html#68,68,779,357,1364,768,9-21-2022,11-53-32,126,depth_duration_stimuli/003083_2014-06-15_15-21-03_094959634447_rgbf000063-resize_1/003083_2014-06-15_15-21-03_094959634447_rgbf000063-resize_1-target.png,125,4.1405,5,2168,126,feet,jsons/VE125_randls_59.json,510829,644776,29,Woman
126,912472,DepthScenes,duration_manipulation_targetAtFixation,jsons/VE125_randls_59.json,http://54.235.29.9/FacialAge/BNav_EC2/DepthDuration/v2_depth_duration_MTurk/v2_DepthDuration_HTML.html#68,68,779,357,1364,768,9-21-2022,11-53-32,127,depth_duration_stimuli/001810_2014-06-26_20-51-35_260595134347_rgbf000040-resize_3/001810_2014-06-26_20-51-35_260595134347_rgbf000040-resize_3-target.png,125,2.2525,5,3681,125,feet,jsons/VE125_randls_59.json,510829,644776,29,Woman
127,912472,DepthScenes,duration_manipulation_targetAtFixation,jsons/VE125_randls_59.json,http://54.235.29.9/FacialAge/BNav_EC2/DepthDuration/v2_depth_duration_MTurk/v2_DepthDuration_HTML.html#68,68,779,357,1364,768,9-21-2022,11-53-32,128,depth_duration_stimuli/003010_2014-06-15_12-54-35_094959634447_rgbf000112-resize_0/003010_2014-06-15_12-54-35_094959634447_rgbf000112-resize_0-target.png,125,3.1185,5,2431,154,feet,jsons/VE125_randls_59.json,510829,644776,29,Woman
128,912472,DepthScenes,duration_manipulation_targetAtFixation,jsons/VE125_randls_59.json,http://54.235.29.9/FacialAge/BNav_EC2/DepthDuration/v2_depth_duration_MTurk/v2_DepthDuration_HTML.html#68,68,779,357,1364,768,9-21-2022,11-53-32,129,depth_duration_stimuli/002549_2014-06-24_13-41-39_094959634447_rgbf000022-resize_3/002549_2014-06-24_13-41-39_094959634447_rgbf000022-resize_3-target.png,125,1.476,5,2211,127,feet,jsons/VE125_randls_59.json,510829,644776,29,Woman
129,912472,DepthScenes,duration_manipulation_targetAtFixation,jsons/VE125_randls_59.json,http://54.235.29.9/FacialAge/BNav_EC2/DepthDuration/v2_depth_duration_MTurk/v2_DepthDuration_HTML.html#68,68,779,357,1364,768,9-21-2022,11-53-32,130,depth_duration_stimuli/002750_2014-06-22_19-08-03_094959634447_rgbf000094-resize_4/002750_2014-06-22_19-08-03_094959634447_rgbf000094-resize_4-target.png,125,2.354,0,1950,126,feet,jsons/VE125_randls_59.json,510829,644776,29,Woman
130,912472,DepthScenes,duration_manipulation_targetAtFixation,jsons/VE125_randls_59.json,http://54.235.29.9/FacialAge/BNav_EC2/DepthDuration/v2_depth_duration_MTurk/v2_DepthDuration_HTML.html#68,68,779,357,1364,768,9-21-2022,11-53-32,131,depth_duration_stimuli/002784_2014-06-22_19-26-30_094959634447_rgbf000083-resize_3/002784_2014-06-22_19-26-30_094959634447_rgbf000083-resize_3-target.png,125,1.8046666666667,4,2327,127,feet,jsons/VE125_randls_59.json,510829,644776,29,Woman
131,912472,DepthScenes,duration_manipulation_targetAtFixation,jsons/VE125_randls_59.json,http://54.235.29.9/FacialAge/BNav_EC2/DepthDuration/v2_depth_duration_MTurk/v2_DepthDuration_HTML.html#68,68,779,357,1364,768,9-21-2022,11-53-32,132,depth_duration_stimuli/001100_2014-06-15_17-46-26_260595134347_rgbf000225-resize_2/001100_2014-06-15_17-46-26_260595134347_rgbf000225-resize_2-target.png,125,2.24,0,2124,125,feet,jsons/VE125_randls_59.json,510829,644776,29,Woman
132,912472,DepthScenes,duration_manipulation_targetAtFixation,jsons/VE125_randls_59.json,http://54.235.29.9/FacialAge/BNav_EC2/DepthDuration/v2_depth_duration_MTurk/v2_DepthDuration_HTML.html#68,68,779,357,1364,768,9-21-2022,11-53-32,133,depth_duration_stimuli/002725_2014-06-22_11-47-51_094959634447_rgbf000070-resize_1/002725_2014-06-22_11-47-51_094959634447_rgbf000070-resize_1-target.png,125,2.195,5,2251,131,feet,jsons/VE125_randls_59.json,510829,644776,29,Woman
133,912472,DepthScenes,duration_manipulation_targetAtFixation,jsons/VE125_randls_59.json,http://54.235.29.9/FacialAge/BNav_EC2/DepthDuration/v2_depth_duration_MTurk/v2_DepthDuration_HTML.html#68,68,779,357,1364,768,9-21-2022,11-53-32,134,depth_duration_stimuli/002344_2014-06-28_20-06-29_260595134347_rgbf000030-resize_1/002344_2014-06-28_20-06-29_260595134347_rgbf000030-resize_1-target.png,125,1.5795,0,1971,119,feet,jsons/VE125_randls_59.json,510829,644776,29,Woman
134,912472,DepthScenes,duration_manipulation_targetAtFixation,jsons/VE125_randls_59.json,http://54.235.29.9/FacialAge/BNav_EC2/DepthDuration/v2_depth_duration_MTurk/v2_DepthDuration_HTML.html#68,68,779,357,1364,768,9-21-2022,11-53-32,135,depth_duration_stimuli/002072_2014-06-24_21-48-06_260595134347_rgbf000115-resize_0/002072_2014-06-24_21-48-06_260595134347_rgbf000115-resize-original.jpg,125,4.702,4,2331,123,feet,jsons/VE125_randls_59.json,510829,644776,29,Woman
135,912472,DepthScenes,duration_manipulation_targetAtFixation,jsons/VE125_randls_59.json,http://54.235.29.9/FacialAge/BNav_EC2/DepthDuration/v2_depth_duration_MTurk/v2_DepthDuration_HTML.html#68,68,779,357,1364,768,9-21-2022,11-53-32,136,depth_duration_stimuli/001570_2014-06-20_17-21-09_260595134347_rgbf000135-resize_4/001570_2014-06-20_17-21-09_260595134347_rgbf000135-resize_4-target.png,125,4.467,5,2332,122,feet,jsons/VE125_randls_59.json,510829,644776,29,Woman
136,912472,DepthScenes,duration_manipulation_targetAtFixation,jsons/VE125_randls_59.json,http://54.235.29.9/FacialAge/BNav_EC2/DepthDuration/v2_depth_duration_MTurk/v2_DepthDuration_HTML.html#68,68,779,357,1364,768,9-21-2022,11-53-32,137,depth_duration_stimuli/001392_2014-06-19_16-07-59_260595134347_rgbf000046-resize_1/001392_2014-06-19_16-07-59_260595134347_rgbf000046-resize_1-target.png,125,4.135,0,2015,125,feet,jsons/VE125_randls_59.json,510829,644776,29,Woman
137,912472,DepthScenes,duration_manipulation_targetAtFixation,jsons/VE125_randls_59.json,http://54.235.29.9/FacialAge/BNav_EC2/DepthDuration/v2_depth_duration_MTurk/v2_DepthDuration_HTML.html#68,68,779,357,1364,768,9-21-2022,11-53-32,138,depth_duration_stimuli/002663_2014-06-13_15-50-26_094959634447_rgbf000075-resize_1/002663_2014-06-13_15-50-26_094959634447_rgbf000075-resize_1-target.png,125,4.7495,5,2113,128,feet,jsons/VE125_randls_59.json,510829,644776,29,Woman
138,912472,DepthScenes,duration_manipulation_targetAtFixation,jsons/VE125_randls_59.json,http://54.235.29.9/FacialAge/BNav_EC2/DepthDuration/v2_depth_duration_MTurk/v2_DepthDuration_HTML.html#68,68,779,357,1364,768,9-21-2022,11-53-32,139,depth_duration_stimuli/000409_2014-06-04_19-23-33_260595134347_rgbf000067-resize_0/000409_2014-06-04_19-23-33_260595134347_rgbf000067-resize_0-target.png,125,3.7335,0,2051,125,feet,jsons/VE125_randls_59.json,510829,644776,29,Woman
139,912472,DepthScenes,duration_manipulation_targetAtFixation,jsons/VE125_randls_59.json,http://54.235.29.9/FacialAge/BNav_EC2/DepthDuration/v2_depth_duration_MTurk/v2_DepthDuration_HTML.html#68,68,779,357,1364,768,9-21-2022,11-53-32,140,depth_duration_stimuli/000009_2014-05-26_14-32-05_260595134347_rgbf000034-resize_3/000009_2014-05-26_14-32-05_260595134347_rgbf000034-resize_3-target.png,125,3.8715,5,2017,124,feet,jsons/VE125_randls_59.json,510829,644776,29,Woman
140,912472,DepthScenes,duration_manipulation_targetAtFixation,jsons/VE125_randls_59.json,http://54.235.29.9/FacialAge/BNav_EC2/DepthDuration/v2_depth_duration_MTurk/v2_DepthDuration_HTML.html#68,68,779,357,1364,768,9-21-2022,11-53-32,141,depth_duration_stimuli/001828_2014-06-26_21-40-03_260595134347_rgbf000024-resize_0/001828_2014-06-26_21-40-03_260595134347_rgbf000024-resize_0-target.png,125,4.8260000000000005,0,1815,120,feet,jsons/VE125_randls_59.json,510829,644776,29,Woman
141,912472,DepthScenes,duration_manipulation_targetAtFixation,jsons/VE125_randls_59.json,http://54.235.29.9/FacialAge/BNav_EC2/DepthDuration/v2_depth_duration_MTurk/v2_DepthDuration_HTML.html#68,68,779,357,1364,768,9-21-2022,11-53-32,142,depth_duration_stimuli/002272_2014-06-28_18-53-56_260595134347_rgbf000067-resize_2/002272_2014-06-28_18-53-56_260595134347_rgbf000067-resize_2-target.png,125,1.138,4,3078,125,feet,jsons/VE125_randls_59.json,510829,644776,29,Woman
142,912472,DepthScenes,duration_manipulation_targetAtFixation,jsons/VE125_randls_59.json,http://54.235.29.9/FacialAge/BNav_EC2/DepthDuration/v2_depth_duration_MTurk/v2_DepthDuration_HTML.html#68,68,779,357,1364,768,9-21-2022,11-53-32,143,depth_duration_stimuli/001571_2014-06-20_17-21-32_260595134347_rgbf000089-resize_1/001571_2014-06-20_17-21-32_260595134347_rgbf000089-resize_1-target.png,125,1.86,0,1969,125,feet,jsons/VE125_randls_59.json,510829,644776,29,Woman
143,912472,DepthScenes,duration_manipulation_targetAtFixation,jsons/VE125_randls_59.json,http://54.235.29.9/FacialAge/BNav_EC2/DepthDuration/v2_depth_duration_MTurk/v2_DepthDuration_HTML.html#68,68,779,357,1364,768,9-21-2022,11-53-32,144,depth_duration_stimuli/002600_2014-06-24_14-27-04_094959634447_rgbf000074-resize_2/002600_2014-06-24_14-27-04_094959634447_rgbf000074-resize_2-target.png,125,2.7575,5,2372,162,feet,jsons/VE125_randls_59.json,510829,644776,29,Woman
144,912472,DepthScenes,duration_manipulation_targetAtFixation,jsons/VE125_randls_59.json,http://54.235.29.9/FacialAge/BNav_EC2/DepthDuration/v2_depth_duration_MTurk/v2_DepthDuration_HTML.html#68,68,779,357,1364,768,9-21-2022,11-53-32,145,depth_duration_stimuli/003228_2014-05-14_13-42-35_094959634447_rgbf000101-resize_1/003228_2014-05-14_13-42-35_094959634447_rgbf000101-resize_1-target.png,125,1.9680000000000002,0,2284,124,feet,jsons/VE125_randls_59.json,510829,644776,29,Woman
145,912472,DepthScenes,duration_manipulation_targetAtFixation,jsons/VE125_randls_59.json,http://54.235.29.9/FacialAge/BNav_EC2/DepthDuration/v2_depth_duration_MTurk/v2_DepthDuration_HTML.html#68,68,779,357,1364,768,9-21-2022,11-53-32,146,depth_duration_stimuli/001498_2014-06-19_17-45-14_260595134347_rgbf000129-resize_4/001498_2014-06-19_17-45-14_260595134347_rgbf000129-resize-original.jpg,125,1.4075,5,2513,125,feet,jsons/VE125_randls_59.json,510829,644776,29,Woman
146,912472,DepthScenes,duration_manipulation_targetAtFixation,jsons/VE125_randls_59.json,http://54.235.29.9/FacialAge/BNav_EC2/DepthDuration/v2_depth_duration_MTurk/v2_DepthDuration_HTML.html#68,68,779,357,1364,768,9-21-2022,11-53-32,147,depth_duration_stimuli/002445_2014-06-28_20-32-16_260595134347_rgbf000029-resize_4/002445_2014-06-28_20-32-16_260595134347_rgbf000029-resize_4-target.png,125,2.5315,4,2515,128,feet,jsons/VE125_randls_59.json,510829,644776,29,Woman
147,912472,DepthScenes,duration_manipulation_targetAtFixation,jsons/VE125_randls_59.json,http://54.235.29.9/FacialAge/BNav_EC2/DepthDuration/v2_depth_duration_MTurk/v2_DepthDuration_HTML.html#68,68,779,357,1364,768,9-21-2022,11-53-32,148,depth_duration_stimuli/000780_2014-06-08_22-28-29_260595134347_rgbf000126-resize_1/000780_2014-06-08_22-28-29_260595134347_rgbf000126-resize_1-target.png,125,3.3825,0,1809,124,feet,jsons/VE125_randls_59.json,510829,644776,29,Woman
148,912472,DepthScenes,duration_manipulation_targetAtFixation,jsons/VE125_randls_59.json,http://54.235.29.9/FacialAge/BNav_EC2/DepthDuration/v2_depth_duration_MTurk/v2_DepthDuration_HTML.html#68,68,779,357,1364,768,9-21-2022,11-53-32,149,depth_duration_stimuli/001417_2014-06-19_16-25-36_260595134347_rgbf000115-resize_5/001417_2014-06-19_16-25-36_260595134347_rgbf000115-resize_5-target.png,125,4.6255,5,3112,125,feet,jsons/VE125_randls_59.json,510829,644776,29,Woman
149,912472,DepthScenes,duration_manipulation_targetAtFixation,jsons/VE125_randls_59.json,http://54.235.29.9/FacialAge/BNav_EC2/DepthDuration/v2_depth_duration_MTurk/v2_DepthDuration_HTML.html#68,68,779,357,1364,768,9-21-2022,11-53-32,150,depth_duration_stimuli/003081_2014-06-15_15-19-16_094959634447_rgbf000150-resize_1/003081_2014-06-15_15-19-16_094959634447_rgbf000150-resize_1-target.png,125,3.9125,4,2454,124,feet,jsons/VE125_randls_59.json,510829,644776,29,Woman
150,912472,DepthScenes,duration_manipulation_targetAtFixation,jsons/VE125_randls_59.json,http://54.235.29.9/FacialAge/BNav_EC2/DepthDuration/v2_depth_duration_MTurk/v2_DepthDuration_HTML.html#68,68,779,357,1364,768,9-21-2022,11-53-32,151,depth_duration_stimuli/001244_2014-06-17_16-47-45_260595134347_rgbf000030-resize_4/001244_2014-06-17_16-47-45_260595134347_rgbf000030-resize_4-target.png,125,2.0425,3,2705,124,feet,jsons/VE125_randls_59.json,510829,644776,29,Woman
151,912472,DepthScenes,duration_manipulation_targetAtFixation,jsons/VE125_randls_59.json,http://54.235.29.9/FacialAge/BNav_EC2/DepthDuration/v2_depth_duration_MTurk/v2_DepthDuration_HTML.html#68,68,779,357,1364,768,9-21-2022,11-53-32,152,depth_duration_stimuli/003495_2014-05-21_16-01-51_094959634447_rgbf000100-resize_3/003495_2014-05-21_16-01-51_094959634447_rgbf000100-resize_3-target.png,125,1.6255,0,2952,123,feet,jsons/VE125_randls_59.json,510829,644776,29,Woman
152,912472,DepthScenes,duration_manipulation_targetAtFixation,jsons/VE125_randls_59.json,http://54.235.29.9/FacialAge/BNav_EC2/DepthDuration/v2_depth_duration_MTurk/v2_DepthDuration_HTML.html#68,68,779,357,1364,768,9-21-2022,11-53-32,153,depth_duration_stimuli/000368_2014-06-09_15-53-01_260595134347_rgbf000155-resize_2/000368_2014-06-09_15-53-01_260595134347_rgbf000155-resize_2-target.png,125,2.4859999999999998,3,2408,127,feet,jsons/VE125_randls_59.json,510829,644776,29,Woman
153,912472,DepthScenes,duration_manipulation_targetAtFixation,jsons/VE125_randls_59.json,http://54.235.29.9/FacialAge/BNav_EC2/DepthDuration/v2_depth_duration_MTurk/v2_DepthDuration_HTML.html#68,68,779,357,1364,768,9-21-2022,11-53-32,154,depth_duration_stimuli/002678_2014-06-13_16-15-32_094959634447_rgbf000151-resize_6/002678_2014-06-13_16-15-32_094959634447_rgbf000151-resize_6-target.png,125,2.1830000000000003,0,2098,124,feet,jsons/VE125_randls_59.json,510829,644776,29,Woman
154,912472,DepthScenes,duration_manipulation_targetAtFixation,jsons/VE125_randls_59.json,http://54.235.29.9/FacialAge/BNav_EC2/DepthDuration/v2_depth_duration_MTurk/v2_DepthDuration_HTML.html#68,68,779,357,1364,768,9-21-2022,11-53-32,155,depth_duration_stimuli/000493_2014-06-09_21-01-18_260595134347_rgbf000196-resize_3/000493_2014-06-09_21-01-18_260595134347_rgbf000196-resize_3-target.png,125,3.44,5,2235,125,feet,jsons/VE125_randls_59.json,510829,644776,29,Woman
155,912472,DepthScenes,duration_manipulation_targetAtFixation,jsons/VE125_randls_59.json,http://54.235.29.9/FacialAge/BNav_EC2/DepthDuration/v2_depth_duration_MTurk/v2_DepthDuration_HTML.html#68,68,779,357,1364,768,9-21-2022,11-53-32,156,depth_duration_stimuli/000191_2014-05-12_17-07-38_260595134347_rgbf000199-resize_0/000191_2014-05-12_17-07-38_260595134347_rgbf000199-resize_0-target.png,125,3.7995,0,1976,124,feet,jsons/VE125_randls_59.json,510829,644776,29,Woman
156,912472,DepthScenes,duration_manipulation_targetAtFixation,jsons/VE125_randls_59.json,http://54.235.29.9/FacialAge/BNav_EC2/DepthDuration/v2_depth_duration_MTurk/v2_DepthDuration_HTML.html#68,68,779,357,1364,768,9-21-2022,11-53-32,157,depth_duration_stimuli/002988_2014-06-15_12-24-20_094959634447_rgbf000150-resize_1/002988_2014-06-15_12-24-20_094959634447_rgbf000150-resize_1-target.png,125,4.7669999999999995,5,2228,127,feet,jsons/VE125_randls_59.json,510829,644776,29,Woman
157,912472,DepthScenes,duration_manipulation_targetAtFixation,jsons/VE125_randls_59.json,http://54.235.29.9/FacialAge/BNav_EC2/DepthDuration/v2_depth_duration_MTurk/v2_DepthDuration_HTML.html#68,68,779,357,1364,768,9-21-2022,11-53-32,158,depth_duration_stimuli/001052_2014-06-08_18-24-54_260595134347_rgbf000130-resize_1/001052_2014-06-08_18-24-54_260595134347_rgbf000130-resize_1-target.png,125,4.1045,0,2015,121,feet,jsons/VE125_randls_59.json,510829,644776,29,Woman
158,912472,DepthScenes,duration_manipulation_targetAtFixation,jsons/VE125_randls_59.json,http://54.235.29.9/FacialAge/BNav_EC2/DepthDuration/v2_depth_duration_MTurk/v2_DepthDuration_HTML.html#68,68,779,357,1364,768,9-21-2022,11-53-32,159,depth_duration_stimuli/002788_2014-06-22_19-36-03_094959634447_rgbf000088-resize_2/002788_2014-06-22_19-36-03_094959634447_rgbf000088-resize_2-target.png,125,1.6465,5,2473,124,feet,jsons/VE125_randls_59.json,510829,644776,29,Woman
159,912472,DepthScenes,duration_manipulation_targetAtFixation,jsons/VE125_randls_59.json,http://54.235.29.9/FacialAge/BNav_EC2/DepthDuration/v2_depth_duration_MTurk/v2_DepthDuration_HTML.html#68,68,779,357,1364,768,9-21-2022,11-53-32,160,depth_duration_stimuli/000749_2014-06-08_21-55-06_260595134347_rgbf000070-resize_2/000749_2014-06-08_21-55-06_260595134347_rgbf000070-resize_2-target.png,125,2.331,5,2175,126,feet,jsons/VE125_randls_59.json,510829,644776,29,Woman
160,912472,DepthScenes,duration_manipulation_targetAtFixation,jsons/VE125_randls_59.json,http://54.235.29.9/FacialAge/BNav_EC2/DepthDuration/v2_depth_duration_MTurk/v2_DepthDuration_HTML.html#68,68,779,357,1364,768,9-21-2022,11-53-32,161,depth_duration_stimuli/000739_2014-06-08_18-45-58_260595134347_rgbf000068-resize_1/000739_2014-06-08_18-45-58_260595134347_rgbf000068-resize_1-target.png,125,3.534,5,2513,125,feet,jsons/VE125_randls_59.json,510829,644776,29,Woman
161,912472,DepthScenes,duration_manipulation_targetAtFixation,jsons/VE125_randls_59.json,http://54.235.29.9/FacialAge/BNav_EC2/DepthDuration/v2_depth_duration_MTurk/v2_DepthDuration_HTML.html#68,68,779,357,1364,768,9-21-2022,11-53-32,162,depth_duration_stimuli/000734_2014-06-08_17-39-11_260595134347_rgbf000128-resize_2/000734_2014-06-08_17-39-11_260595134347_rgbf000128-resize_2-target.png,125,4.098,0,1865,124,feet,jsons/VE125_randls_59.json,510829,644776,29,Woman
162,912472,DepthScenes,duration_manipulation_targetAtFixation,jsons/VE125_randls_59.json,http://54.235.29.9/FacialAge/BNav_EC2/DepthDuration/v2_depth_duration_MTurk/v2_DepthDuration_HTML.html#68,68,779,357,1364,768,9-21-2022,11-53-32,163,depth_duration_stimuli/001055_2014-06-08_18-45-35_260595134347_rgbf000111-resize_4/001055_2014-06-08_18-45-35_260595134347_rgbf000111-resize_4-target.png,125,2.4290000000000003,5,2077,131,feet,jsons/VE125_randls_59.json,510829,644776,29,Woman
163,912472,DepthScenes,duration_manipulation_targetAtFixation,jsons/VE125_randls_59.json,http://54.235.29.9/FacialAge/BNav_EC2/DepthDuration/v2_depth_duration_MTurk/v2_DepthDuration_HTML.html#68,68,779,357,1364,768,9-21-2022,11-53-32,164,depth_duration_stimuli/000549_2014-06-08_22-10-24_260595134347_rgbf000247-resize_3/000549_2014-06-08_22-10-24_260595134347_rgbf000247-resize_3-target.png,125,1.841,0,1975,123,feet,jsons/VE125_randls_59.json,510829,644776,29,Woman
