,subjID,experimentName,versionName,sequenceName,url,selected_row,windowWidth,windowHeight,screenWidth,screenHeight,startDate,startTime,trial,stimulus,duration,actual_depth,depth_estimate,trial_RT,log_sceneDuration,unitSelection,seq_filepath,experimentTime,totalTime,age,gender
0,912877,DepthScenes,duration_manipulation_targetAtFixation,jsons/VE125_randls_71.json,http://54.235.29.9/FacialAge/BNav_EC2/DepthDuration/v2_depth_duration_MTurk/v2_DepthDuration_HTML.html#352,352,1242,698,1366,768,8-29-2022,9-39-31,1,depth_duration_stimuli/002549_2014-06-24_13-41-39_094959634447_rgbf000022-resize_3/002549_2014-06-24_13-41-39_094959634447_rgbf000022-resize_3-target.png,125,1.476,6.0,3451,124,feet,jsons/VE125_randls_71.json,589598,688037,42,Woman
1,912877,DepthScenes,duration_manipulation_targetAtFixation,jsons/VE125_randls_71.json,http://54.235.29.9/FacialAge/BNav_EC2/DepthDuration/v2_depth_duration_MTurk/v2_DepthDuration_HTML.html#352,352,1242,698,1366,768,8-29-2022,9-39-31,2,depth_duration_stimuli/002750_2014-06-22_19-08-03_094959634447_rgbf000094-resize_4/002750_2014-06-22_19-08-03_094959634447_rgbf000094-resize_4-target.png,125,2.354,9.0,2994,124,feet,jsons/VE125_randls_71.json,589598,688037,42,Woman
2,912877,DepthScenes,duration_manipulation_targetAtFixation,jsons/VE125_randls_71.json,http://54.235.29.9/FacialAge/BNav_EC2/DepthDuration/v2_depth_duration_MTurk/v2_DepthDuration_HTML.html#352,352,1242,698,1366,768,8-29-2022,9-39-31,3,depth_duration_stimuli/000917_2014-06-09_22-45-29_260595134347_rgbf000149-resize_3/000917_2014-06-09_22-45-29_260595134347_rgbf000149-resize_3-target.png,125,4.1865,12.0,21187,125,feet,jsons/VE125_randls_71.json,589598,688037,42,Woman
3,912877,DepthScenes,duration_manipulation_targetAtFixation,jsons/VE125_randls_71.json,http://54.235.29.9/FacialAge/BNav_EC2/DepthDuration/v2_depth_duration_MTurk/v2_DepthDuration_HTML.html#352,352,1242,698,1366,768,8-29-2022,9-39-31,4,depth_duration_stimuli/002323_2014-06-28_20-01-54_260595134347_rgbf000051-resize_4/002323_2014-06-28_20-01-54_260595134347_rgbf000051-resize_4-target.png,125,3.7310000000000003,15.0,5067,124,feet,jsons/VE125_randls_71.json,589598,688037,42,Woman
4,912877,DepthScenes,duration_manipulation_targetAtFixation,jsons/VE125_randls_71.json,http://54.235.29.9/FacialAge/BNav_EC2/DepthDuration/v2_depth_duration_MTurk/v2_DepthDuration_HTML.html#352,352,1242,698,1366,768,8-29-2022,9-39-31,5,depth_duration_stimuli/001150_2014-06-17_15-27-34_260595134347_rgbf000108-resize_2/001150_2014-06-17_15-27-34_260595134347_rgbf000108-resize_2-target.png,125,4.0325,24.0,3162,123,feet,jsons/VE125_randls_71.json,589598,688037,42,Woman
5,912877,DepthScenes,duration_manipulation_targetAtFixation,jsons/VE125_randls_71.json,http://54.235.29.9/FacialAge/BNav_EC2/DepthDuration/v2_depth_duration_MTurk/v2_DepthDuration_HTML.html#352,352,1242,698,1366,768,8-29-2022,9-39-31,6,depth_duration_stimuli/000665_2014-06-09_20-42-35_260595134347_rgbf000110-resize_1/000665_2014-06-09_20-42-35_260595134347_rgbf000110-resize_1-target.png,125,3.057,7.0,2643,126,feet,jsons/VE125_randls_71.json,589598,688037,42,Woman
6,912877,DepthScenes,duration_manipulation_targetAtFixation,jsons/VE125_randls_71.json,http://54.235.29.9/FacialAge/BNav_EC2/DepthDuration/v2_depth_duration_MTurk/v2_DepthDuration_HTML.html#352,352,1242,698,1366,768,8-29-2022,9-39-31,7,depth_duration_stimuli/003621_2014-05-23_18-06-08_094959634447_rgbf000101-resize_1/003621_2014-05-23_18-06-08_094959634447_rgbf000101-resize_1-target.png,125,3.9835,11.0,3250,126,feet,jsons/VE125_randls_71.json,589598,688037,42,Woman
7,912877,DepthScenes,duration_manipulation_targetAtFixation,jsons/VE125_randls_71.json,http://54.235.29.9/FacialAge/BNav_EC2/DepthDuration/v2_depth_duration_MTurk/v2_DepthDuration_HTML.html#352,352,1242,698,1366,768,8-29-2022,9-39-31,8,depth_duration_stimuli/001584_2014-06-20_11-07-43_260595134347_rgbf000002-resize_1/001584_2014-06-20_11-07-43_260595134347_rgbf000002-resize_1-target.png,125,3.53,7.0,9786,125,feet,jsons/VE125_randls_71.json,589598,688037,42,Woman
8,912877,DepthScenes,duration_manipulation_targetAtFixation,jsons/VE125_randls_71.json,http://54.235.29.9/FacialAge/BNav_EC2/DepthDuration/v2_depth_duration_MTurk/v2_DepthDuration_HTML.html#352,352,1242,698,1366,768,8-29-2022,9-39-31,9,depth_duration_stimuli/001092_2014-06-15_17-34-58_260595134347_rgbf000171-resize_3/001092_2014-06-15_17-34-58_260595134347_rgbf000171-resize_3-target.png,125,2.6935,12.0,3089,124,feet,jsons/VE125_randls_71.json,589598,688037,42,Woman
9,912877,DepthScenes,duration_manipulation_targetAtFixation,jsons/VE125_randls_71.json,http://54.235.29.9/FacialAge/BNav_EC2/DepthDuration/v2_depth_duration_MTurk/v2_DepthDuration_HTML.html#352,352,1242,698,1366,768,8-29-2022,9-39-31,10,depth_duration_stimuli/002545_2014-06-24_13-38-53_094959634447_rgbf000080-resize_4/002545_2014-06-24_13-38-53_094959634447_rgbf000080-resize_4-target.png,125,1.9205,14.0,3643,125,feet,jsons/VE125_randls_71.json,589598,688037,42,Woman
10,912877,DepthScenes,duration_manipulation_targetAtFixation,jsons/VE125_randls_71.json,http://54.235.29.9/FacialAge/BNav_EC2/DepthDuration/v2_depth_duration_MTurk/v2_DepthDuration_HTML.html#352,352,1242,698,1366,768,8-29-2022,9-39-31,11,depth_duration_stimuli/002039_2014-06-24_20-22-38_260595134347_rgbf000084-resize_1/002039_2014-06-24_20-22-38_260595134347_rgbf000084-resize_1-target.png,125,4.408,20.0,3138,125,feet,jsons/VE125_randls_71.json,589598,688037,42,Woman
11,912877,DepthScenes,duration_manipulation_targetAtFixation,jsons/VE125_randls_71.json,http://54.235.29.9/FacialAge/BNav_EC2/DepthDuration/v2_depth_duration_MTurk/v2_DepthDuration_HTML.html#352,352,1242,698,1366,768,8-29-2022,9-39-31,12,depth_duration_stimuli/002103_2014-06-25_20-00-40_260595134347_rgbf000049-resize_0/002103_2014-06-25_20-00-40_260595134347_rgbf000049-resize_0-target.png,125,4.105,45.0,3378,126,feet,jsons/VE125_randls_71.json,589598,688037,42,Woman
12,912877,DepthScenes,duration_manipulation_targetAtFixation,jsons/VE125_randls_71.json,http://54.235.29.9/FacialAge/BNav_EC2/DepthDuration/v2_depth_duration_MTurk/v2_DepthDuration_HTML.html#352,352,1242,698,1366,768,8-29-2022,9-39-31,13,depth_duration_stimuli/000569_2014-06-09_22-51-47_260595134347_rgbf000141-resize_3/000569_2014-06-09_22-51-47_260595134347_rgbf000141-resize-original.jpg,125,4.512,0.0,4299,125,feet,jsons/VE125_randls_71.json,589598,688037,42,Woman
13,912877,DepthScenes,duration_manipulation_targetAtFixation,jsons/VE125_randls_71.json,http://54.235.29.9/FacialAge/BNav_EC2/DepthDuration/v2_depth_duration_MTurk/v2_DepthDuration_HTML.html#352,352,1242,698,1366,768,8-29-2022,9-39-31,14,depth_duration_stimuli/000739_2014-06-08_18-45-58_260595134347_rgbf000068-resize_1/000739_2014-06-08_18-45-58_260595134347_rgbf000068-resize_1-target.png,125,3.534,5.0,3171,126,feet,jsons/VE125_randls_71.json,589598,688037,42,Woman
14,912877,DepthScenes,duration_manipulation_targetAtFixation,jsons/VE125_randls_71.json,http://54.235.29.9/FacialAge/BNav_EC2/DepthDuration/v2_depth_duration_MTurk/v2_DepthDuration_HTML.html#352,352,1242,698,1366,768,8-29-2022,9-39-31,15,depth_duration_stimuli/000734_2014-06-08_17-39-11_260595134347_rgbf000128-resize_2/000734_2014-06-08_17-39-11_260595134347_rgbf000128-resize_2-target.png,125,4.098,12.0,6051,125,feet,jsons/VE125_randls_71.json,589598,688037,42,Woman
15,912877,DepthScenes,duration_manipulation_targetAtFixation,jsons/VE125_randls_71.json,http://54.235.29.9/FacialAge/BNav_EC2/DepthDuration/v2_depth_duration_MTurk/v2_DepthDuration_HTML.html#352,352,1242,698,1366,768,8-29-2022,9-39-31,16,depth_duration_stimuli/000758_2014-06-08_22-05-08_260595134347_rgbf000085-resize_0/000758_2014-06-08_22-05-08_260595134347_rgbf000085-resize_0-target.png,125,3.3810000000000002,15.0,2380,125,feet,jsons/VE125_randls_71.json,589598,688037,42,Woman
16,912877,DepthScenes,duration_manipulation_targetAtFixation,jsons/VE125_randls_71.json,http://54.235.29.9/FacialAge/BNav_EC2/DepthDuration/v2_depth_duration_MTurk/v2_DepthDuration_HTML.html#352,352,1242,698,1366,768,8-29-2022,9-39-31,17,depth_duration_stimuli/000854_2014-06-09_19-43-13_260595134347_rgbf000066-resize_0/000854_2014-06-09_19-43-13_260595134347_rgbf000066-resize_0-target.png,125,3.068,5.0,2683,125,feet,jsons/VE125_randls_71.json,589598,688037,42,Woman
17,912877,DepthScenes,duration_manipulation_targetAtFixation,jsons/VE125_randls_71.json,http://54.235.29.9/FacialAge/BNav_EC2/DepthDuration/v2_depth_duration_MTurk/v2_DepthDuration_HTML.html#352,352,1242,698,1366,768,8-29-2022,9-39-31,18,depth_duration_stimuli/001555_2014-06-20_17-12-10_260595134347_rgbf000065-resize_4/001555_2014-06-20_17-12-10_260595134347_rgbf000065-resize_4-target.png,125,1.633,4.0,2305,124,feet,jsons/VE125_randls_71.json,589598,688037,42,Woman
18,912877,DepthScenes,duration_manipulation_targetAtFixation,jsons/VE125_randls_71.json,http://54.235.29.9/FacialAge/BNav_EC2/DepthDuration/v2_depth_duration_MTurk/v2_DepthDuration_HTML.html#352,352,1242,698,1366,768,8-29-2022,9-39-31,19,depth_duration_stimuli/000103_2014-05-14_22-01-17_260595134347_rgbf000152-resize_5/000103_2014-05-14_22-01-17_260595134347_rgbf000152-resize_5-target.png,125,1.993,6.0,5346,126,feet,jsons/VE125_randls_71.json,589598,688037,42,Woman
19,912877,DepthScenes,duration_manipulation_targetAtFixation,jsons/VE125_randls_71.json,http://54.235.29.9/FacialAge/BNav_EC2/DepthDuration/v2_depth_duration_MTurk/v2_DepthDuration_HTML.html#352,352,1242,698,1366,768,8-29-2022,9-39-31,20,depth_duration_stimuli/002763_2014-06-22_19-13-10_094959634447_rgbf000075-resize_4/002763_2014-06-22_19-13-10_094959634447_rgbf000075-resize_4-target.png,125,1.68375,8.0,2563,126,feet,jsons/VE125_randls_71.json,589598,688037,42,Woman
20,912877,DepthScenes,duration_manipulation_targetAtFixation,jsons/VE125_randls_71.json,http://54.235.29.9/FacialAge/BNav_EC2/DepthDuration/v2_depth_duration_MTurk/v2_DepthDuration_HTML.html#352,352,1242,698,1366,768,8-29-2022,9-39-31,21,depth_duration_stimuli/002209_2014-06-28_18-36-10_260595134347_rgbf000051-resize_1/002209_2014-06-28_18-36-10_260595134347_rgbf000051-resize_1-target.png,125,2.057,6.0,2721,124,feet,jsons/VE125_randls_71.json,589598,688037,42,Woman
21,912877,DepthScenes,duration_manipulation_targetAtFixation,jsons/VE125_randls_71.json,http://54.235.29.9/FacialAge/BNav_EC2/DepthDuration/v2_depth_duration_MTurk/v2_DepthDuration_HTML.html#352,352,1242,698,1366,768,8-29-2022,9-39-31,22,depth_duration_stimuli/000469_2014-06-09_19-42-10_260595134347_rgbf000081-resize_1/000469_2014-06-09_19-42-10_260595134347_rgbf000081-resize_1-target.png,125,1.652,8.0,2499,125,feet,jsons/VE125_randls_71.json,589598,688037,42,Woman
22,912877,DepthScenes,duration_manipulation_targetAtFixation,jsons/VE125_randls_71.json,http://54.235.29.9/FacialAge/BNav_EC2/DepthDuration/v2_depth_duration_MTurk/v2_DepthDuration_HTML.html#352,352,1242,698,1366,768,8-29-2022,9-39-31,23,depth_duration_stimuli/000483_2014-06-09_20-41-45_260595134347_rgbf000116-resize_4/000483_2014-06-09_20-41-45_260595134347_rgbf000116-resize_4-target.png,125,1.337,5.0,2571,124,feet,jsons/VE125_randls_71.json,589598,688037,42,Woman
23,912877,DepthScenes,duration_manipulation_targetAtFixation,jsons/VE125_randls_71.json,http://54.235.29.9/FacialAge/BNav_EC2/DepthDuration/v2_depth_duration_MTurk/v2_DepthDuration_HTML.html#352,352,1242,698,1366,768,8-29-2022,9-39-31,24,depth_duration_stimuli/003534_2014-05-22_15-06-10_094959634447_rgbf000102-resize_4/003534_2014-05-22_15-06-10_094959634447_rgbf000102-resize_4-target.png,125,1.426,6.0,2402,126,feet,jsons/VE125_randls_71.json,589598,688037,42,Woman
24,912877,DepthScenes,duration_manipulation_targetAtFixation,jsons/VE125_randls_71.json,http://54.235.29.9/FacialAge/BNav_EC2/DepthDuration/v2_depth_duration_MTurk/v2_DepthDuration_HTML.html#352,352,1242,698,1366,768,8-29-2022,9-39-31,25,depth_duration_stimuli/002637_2014-06-24_14-51-13_094959634447_rgbf000066-resize_4/002637_2014-06-24_14-51-13_094959634447_rgbf000066-resize_4-target.png,125,1.9955,6.0,2972,125,feet,jsons/VE125_randls_71.json,589598,688037,42,Woman
25,912877,DepthScenes,duration_manipulation_targetAtFixation,jsons/VE125_randls_71.json,http://54.235.29.9/FacialAge/BNav_EC2/DepthDuration/v2_depth_duration_MTurk/v2_DepthDuration_HTML.html#352,352,1242,698,1366,768,8-29-2022,9-39-31,26,depth_duration_stimuli/001056_2014-06-08_18-46-44_260595134347_rgbf000068-resize_0/001056_2014-06-08_18-46-44_260595134347_rgbf000068-resize_0-target.png,125,2.6625,7.0,2513,124,feet,jsons/VE125_randls_71.json,589598,688037,42,Woman
26,912877,DepthScenes,duration_manipulation_targetAtFixation,jsons/VE125_randls_71.json,http://54.235.29.9/FacialAge/BNav_EC2/DepthDuration/v2_depth_duration_MTurk/v2_DepthDuration_HTML.html#352,352,1242,698,1366,768,8-29-2022,9-39-31,27,depth_duration_stimuli/002199_2014-06-28_18-33-56_260595134347_rgbf000074-resize_0/002199_2014-06-28_18-33-56_260595134347_rgbf000074-resize_0-target.png,125,1.996,6.0,2563,126,feet,jsons/VE125_randls_71.json,589598,688037,42,Woman
27,912877,DepthScenes,duration_manipulation_targetAtFixation,jsons/VE125_randls_71.json,http://54.235.29.9/FacialAge/BNav_EC2/DepthDuration/v2_depth_duration_MTurk/v2_DepthDuration_HTML.html#352,352,1242,698,1366,768,8-29-2022,9-39-31,28,depth_duration_stimuli/002989_2014-06-15_12-25-03_094959634447_rgbf000150-resize_3/002989_2014-06-15_12-25-03_094959634447_rgbf000150-resize_3-target.png,125,4.1975,10.0,3827,126,feet,jsons/VE125_randls_71.json,589598,688037,42,Woman
28,912877,DepthScenes,duration_manipulation_targetAtFixation,jsons/VE125_randls_71.json,http://54.235.29.9/FacialAge/BNav_EC2/DepthDuration/v2_depth_duration_MTurk/v2_DepthDuration_HTML.html#352,352,1242,698,1366,768,8-29-2022,9-39-31,29,depth_duration_stimuli/000866_2014-06-09_20-45-42_260595134347_rgbf000139-resize_1/000866_2014-06-09_20-45-42_260595134347_rgbf000139-resize_1-target.png,125,3.2155,11.0,3402,126,feet,jsons/VE125_randls_71.json,589598,688037,42,Woman
29,912877,DepthScenes,duration_manipulation_targetAtFixation,jsons/VE125_randls_71.json,http://54.235.29.9/FacialAge/BNav_EC2/DepthDuration/v2_depth_duration_MTurk/v2_DepthDuration_HTML.html#352,352,1242,698,1366,768,8-29-2022,9-39-31,30,depth_duration_stimuli/000375_2014-06-08_11-17-29_260595134347_rgbf000133-resize_2/000375_2014-06-08_11-17-29_260595134347_rgbf000133-resize-original.jpg,125,4.718,0.0,2442,125,feet,jsons/VE125_randls_71.json,589598,688037,42,Woman
30,912877,DepthScenes,duration_manipulation_targetAtFixation,jsons/VE125_randls_71.json,http://54.235.29.9/FacialAge/BNav_EC2/DepthDuration/v2_depth_duration_MTurk/v2_DepthDuration_HTML.html#352,352,1242,698,1366,768,8-29-2022,9-39-31,31,depth_duration_stimuli/002272_2014-06-28_18-53-56_260595134347_rgbf000067-resize_2/002272_2014-06-28_18-53-56_260595134347_rgbf000067-resize_2-target.png,125,1.138,5.0,2787,125,feet,jsons/VE125_randls_71.json,589598,688037,42,Woman
31,912877,DepthScenes,duration_manipulation_targetAtFixation,jsons/VE125_randls_71.json,http://54.235.29.9/FacialAge/BNav_EC2/DepthDuration/v2_depth_duration_MTurk/v2_DepthDuration_HTML.html#352,352,1242,698,1366,768,8-29-2022,9-39-31,32,depth_duration_stimuli/001571_2014-06-20_17-21-32_260595134347_rgbf000089-resize_1/001571_2014-06-20_17-21-32_260595134347_rgbf000089-resize_1-target.png,125,1.86,6.0,2630,120,feet,jsons/VE125_randls_71.json,589598,688037,42,Woman
32,912877,DepthScenes,duration_manipulation_targetAtFixation,jsons/VE125_randls_71.json,http://54.235.29.9/FacialAge/BNav_EC2/DepthDuration/v2_depth_duration_MTurk/v2_DepthDuration_HTML.html#352,352,1242,698,1366,768,8-29-2022,9-39-31,33,depth_duration_stimuli/002748_2014-06-22_19-07-22_094959634447_rgbf000078-resize_1/002748_2014-06-22_19-07-22_094959634447_rgbf000078-resize_1-target.png,125,4.6705,11.0,2842,126,feet,jsons/VE125_randls_71.json,589598,688037,42,Woman
33,912877,DepthScenes,duration_manipulation_targetAtFixation,jsons/VE125_randls_71.json,http://54.235.29.9/FacialAge/BNav_EC2/DepthDuration/v2_depth_duration_MTurk/v2_DepthDuration_HTML.html#352,352,1242,698,1366,768,8-29-2022,9-39-31,34,depth_duration_stimuli/002995_2014-06-15_12-31-26_094959634447_rgbf000150-resize_1/002995_2014-06-15_12-31-26_094959634447_rgbf000150-resize_1-target.png,125,3.8360000000000003,4.0,3434,126,feet,jsons/VE125_randls_71.json,589598,688037,42,Woman
34,912877,DepthScenes,duration_manipulation_targetAtFixation,jsons/VE125_randls_71.json,http://54.235.29.9/FacialAge/BNav_EC2/DepthDuration/v2_depth_duration_MTurk/v2_DepthDuration_HTML.html#352,352,1242,698,1366,768,8-29-2022,9-39-31,35,depth_duration_stimuli/000436_2014-06-09_22-25-11_260595134347_rgbf000137-resize_1/000436_2014-06-09_22-25-11_260595134347_rgbf000137-resize_1-target.png,125,4.0705,7.0,4259,130,feet,jsons/VE125_randls_71.json,589598,688037,42,Woman
35,912877,DepthScenes,duration_manipulation_targetAtFixation,jsons/VE125_randls_71.json,http://54.235.29.9/FacialAge/BNav_EC2/DepthDuration/v2_depth_duration_MTurk/v2_DepthDuration_HTML.html#352,352,1242,698,1366,768,8-29-2022,9-39-31,36,depth_duration_stimuli/002444_2014-06-28_20-32-08_260595134347_rgbf000027-resize_0/002444_2014-06-28_20-32-08_260595134347_rgbf000027-resize_0-target.png,125,4.388999999999999,6.0,3189,125,feet,jsons/VE125_randls_71.json,589598,688037,42,Woman
36,912877,DepthScenes,duration_manipulation_targetAtFixation,jsons/VE125_randls_71.json,http://54.235.29.9/FacialAge/BNav_EC2/DepthDuration/v2_depth_duration_MTurk/v2_DepthDuration_HTML.html#352,352,1242,698,1366,768,8-29-2022,9-39-31,37,depth_duration_stimuli/001133_2014-06-17_14-49-16_260595134347_rgbf000100-resize_0/001133_2014-06-17_14-49-16_260595134347_rgbf000100-resize_0-target.png,125,4.2115,6.0,2306,124,feet,jsons/VE125_randls_71.json,589598,688037,42,Woman
37,912877,DepthScenes,duration_manipulation_targetAtFixation,jsons/VE125_randls_71.json,http://54.235.29.9/FacialAge/BNav_EC2/DepthDuration/v2_depth_duration_MTurk/v2_DepthDuration_HTML.html#352,352,1242,698,1366,768,8-29-2022,9-39-31,38,depth_duration_stimuli/001132_2014-06-17_14-48-54_260595134347_rgbf000100-resize_2/001132_2014-06-17_14-48-54_260595134347_rgbf000100-resize_2-target.png,125,3.753,11.0,2875,124,feet,jsons/VE125_randls_71.json,589598,688037,42,Woman
38,912877,DepthScenes,duration_manipulation_targetAtFixation,jsons/VE125_randls_71.json,http://54.235.29.9/FacialAge/BNav_EC2/DepthDuration/v2_depth_duration_MTurk/v2_DepthDuration_HTML.html#352,352,1242,698,1366,768,8-29-2022,9-39-31,39,depth_duration_stimuli/000929_2014-06-09_16-33-19_260595134347_rgbf000139-resize_0/000929_2014-06-09_16-33-19_260595134347_rgbf000139-resize_0-target.png,125,2.8680000000000003,5.0,2491,124,feet,jsons/VE125_randls_71.json,589598,688037,42,Woman
39,912877,DepthScenes,duration_manipulation_targetAtFixation,jsons/VE125_randls_71.json,http://54.235.29.9/FacialAge/BNav_EC2/DepthDuration/v2_depth_duration_MTurk/v2_DepthDuration_HTML.html#352,352,1242,698,1366,768,8-29-2022,9-39-31,40,depth_duration_stimuli/000457_2014-06-08_16-52-43_260595134347_rgbf000199-resize_1/000457_2014-06-08_16-52-43_260595134347_rgbf000199-resize_1-target.png,125,3.6489999999999996,14.0,4650,124,feet,jsons/VE125_randls_71.json,589598,688037,42,Woman
40,912877,DepthScenes,duration_manipulation_targetAtFixation,jsons/VE125_randls_71.json,http://54.235.29.9/FacialAge/BNav_EC2/DepthDuration/v2_depth_duration_MTurk/v2_DepthDuration_HTML.html#352,352,1242,698,1366,768,8-29-2022,9-39-31,41,depth_duration_stimuli/002118_2014-06-25_20-32-08_260595134347_rgbf000078-resize_1/002118_2014-06-25_20-32-08_260595134347_rgbf000078-resize_1-target.png,125,2.6460000000000004,2.0,2362,123,feet,jsons/VE125_randls_71.json,589598,688037,42,Woman
41,912877,DepthScenes,duration_manipulation_targetAtFixation,jsons/VE125_randls_71.json,http://54.235.29.9/FacialAge/BNav_EC2/DepthDuration/v2_depth_duration_MTurk/v2_DepthDuration_HTML.html#352,352,1242,698,1366,768,8-29-2022,9-39-31,42,depth_duration_stimuli/001516_2014-06-20_16-25-09_260595134347_rgbf000076-resize_2/001516_2014-06-20_16-25-09_260595134347_rgbf000076-resize_2-target.png,125,1.7445,11.0,2788,124,feet,jsons/VE125_randls_71.json,589598,688037,42,Woman
42,912877,DepthScenes,duration_manipulation_targetAtFixation,jsons/VE125_randls_71.json,http://54.235.29.9/FacialAge/BNav_EC2/DepthDuration/v2_depth_duration_MTurk/v2_DepthDuration_HTML.html#352,352,1242,698,1366,768,8-29-2022,9-39-31,43,depth_duration_stimuli/003492_2014-05-21_15-50-55_094959634447_rgbf000828-resize_1/003492_2014-05-21_15-50-55_094959634447_rgbf000828-resize_1-target.png,125,4.06875,14.0,2522,124,feet,jsons/VE125_randls_71.json,589598,688037,42,Woman
43,912877,DepthScenes,duration_manipulation_targetAtFixation,jsons/VE125_randls_71.json,http://54.235.29.9/FacialAge/BNav_EC2/DepthDuration/v2_depth_duration_MTurk/v2_DepthDuration_HTML.html#352,352,1242,698,1366,768,8-29-2022,9-39-31,44,depth_duration_stimuli/002568_2014-06-24_13-59-21_094959634447_rgbf000062-resize_4/002568_2014-06-24_13-59-21_094959634447_rgbf000062-resize_4-target.png,125,3.015,13.0,3435,124,feet,jsons/VE125_randls_71.json,589598,688037,42,Woman
44,912877,DepthScenes,duration_manipulation_targetAtFixation,jsons/VE125_randls_71.json,http://54.235.29.9/FacialAge/BNav_EC2/DepthDuration/v2_depth_duration_MTurk/v2_DepthDuration_HTML.html#352,352,1242,698,1366,768,8-29-2022,9-39-31,45,depth_duration_stimuli/000787_2014-06-08_22-33-53_260595134347_rgbf000175-resize_1/000787_2014-06-08_22-33-53_260595134347_rgbf000175-resize-original.jpg,125,4.784,0.0,2683,125,feet,jsons/VE125_randls_71.json,589598,688037,42,Woman
45,912877,DepthScenes,duration_manipulation_targetAtFixation,jsons/VE125_randls_71.json,http://54.235.29.9/FacialAge/BNav_EC2/DepthDuration/v2_depth_duration_MTurk/v2_DepthDuration_HTML.html#352,352,1242,698,1366,768,8-29-2022,9-39-31,46,depth_duration_stimuli/001011_2014-06-08_23-18-54_260595134347_rgbf000044-resize_4/001011_2014-06-08_23-18-54_260595134347_rgbf000044-resize_4-target.png,125,2.4730000000000003,11.0,3922,124,feet,jsons/VE125_randls_71.json,589598,688037,42,Woman
46,912877,DepthScenes,duration_manipulation_targetAtFixation,jsons/VE125_randls_71.json,http://54.235.29.9/FacialAge/BNav_EC2/DepthDuration/v2_depth_duration_MTurk/v2_DepthDuration_HTML.html#352,352,1242,698,1366,768,8-29-2022,9-39-31,47,depth_duration_stimuli/002875_2014-06-01_15-19-00_094959634447_rgbf000151-resize_1/002875_2014-06-01_15-19-00_094959634447_rgbf000151-resize_1-target.png,125,1.9675,5.0,3082,124,feet,jsons/VE125_randls_71.json,589598,688037,42,Woman
47,912877,DepthScenes,duration_manipulation_targetAtFixation,jsons/VE125_randls_71.json,http://54.235.29.9/FacialAge/BNav_EC2/DepthDuration/v2_depth_duration_MTurk/v2_DepthDuration_HTML.html#352,352,1242,698,1366,768,8-29-2022,9-39-31,48,depth_duration_stimuli/003070_2014-06-15_14-58-27_094959634447_rgbf000150-resize_3/003070_2014-06-15_14-58-27_094959634447_rgbf000150-resize_3-target.png,125,2.9415,6.0,2890,123,feet,jsons/VE125_randls_71.json,589598,688037,42,Woman
48,912877,DepthScenes,duration_manipulation_targetAtFixation,jsons/VE125_randls_71.json,http://54.235.29.9/FacialAge/BNav_EC2/DepthDuration/v2_depth_duration_MTurk/v2_DepthDuration_HTML.html#352,352,1242,698,1366,768,8-29-2022,9-39-31,49,depth_duration_stimuli/000943_2014-06-09_19-31-07_260595134347_rgbf000128-resize_1/000943_2014-06-09_19-31-07_260595134347_rgbf000128-resize_1-target.png,125,1.9765,7.0,2852,124,feet,jsons/VE125_randls_71.json,589598,688037,42,Woman
49,912877,DepthScenes,duration_manipulation_targetAtFixation,jsons/VE125_randls_71.json,http://54.235.29.9/FacialAge/BNav_EC2/DepthDuration/v2_depth_duration_MTurk/v2_DepthDuration_HTML.html#352,352,1242,698,1366,768,8-29-2022,9-39-31,50,depth_duration_stimuli/000009_2014-05-26_14-32-05_260595134347_rgbf000034-resize_3/000009_2014-05-26_14-32-05_260595134347_rgbf000034-resize_3-target.png,125,3.8715,11.0,2547,125,feet,jsons/VE125_randls_71.json,589598,688037,42,Woman
50,912877,DepthScenes,duration_manipulation_targetAtFixation,jsons/VE125_randls_71.json,http://54.235.29.9/FacialAge/BNav_EC2/DepthDuration/v2_depth_duration_MTurk/v2_DepthDuration_HTML.html#352,352,1242,698,1366,768,8-29-2022,9-39-31,51,depth_duration_stimuli/001828_2014-06-26_21-40-03_260595134347_rgbf000024-resize_0/001828_2014-06-26_21-40-03_260595134347_rgbf000024-resize_0-target.png,125,4.8260000000000005,4.0,3531,124,feet,jsons/VE125_randls_71.json,589598,688037,42,Woman
51,912877,DepthScenes,duration_manipulation_targetAtFixation,jsons/VE125_randls_71.json,http://54.235.29.9/FacialAge/BNav_EC2/DepthDuration/v2_depth_duration_MTurk/v2_DepthDuration_HTML.html#352,352,1242,698,1366,768,8-29-2022,9-39-31,52,depth_duration_stimuli/001158_2014-06-17_15-32-16_260595134347_rgbf000138-resize_2/001158_2014-06-17_15-32-16_260595134347_rgbf000138-resize_2-target.png,125,4.5315,11.0,2651,125,feet,jsons/VE125_randls_71.json,589598,688037,42,Woman
52,912877,DepthScenes,duration_manipulation_targetAtFixation,jsons/VE125_randls_71.json,http://54.235.29.9/FacialAge/BNav_EC2/DepthDuration/v2_depth_duration_MTurk/v2_DepthDuration_HTML.html#352,352,1242,698,1366,768,8-29-2022,9-39-31,53,depth_duration_stimuli/000556_2014-06-09_22-42-56_260595134347_rgbf000214-resize_1/000556_2014-06-09_22-42-56_260595134347_rgbf000214-resize_1-target.png,125,4.8415,12.0,2722,123,feet,jsons/VE125_randls_71.json,589598,688037,42,Woman
53,912877,DepthScenes,duration_manipulation_targetAtFixation,jsons/VE125_randls_71.json,http://54.235.29.9/FacialAge/BNav_EC2/DepthDuration/v2_depth_duration_MTurk/v2_DepthDuration_HTML.html#352,352,1242,698,1366,768,8-29-2022,9-39-31,54,depth_duration_stimuli/002153_2014-06-25_21-27-18_260595134347_rgbf000038-resize_5/002153_2014-06-25_21-27-18_260595134347_rgbf000038-resize_5-target.png,125,2.505,14.0,3924,125,feet,jsons/VE125_randls_71.json,589598,688037,42,Woman
54,912877,DepthScenes,duration_manipulation_targetAtFixation,jsons/VE125_randls_71.json,http://54.235.29.9/FacialAge/BNav_EC2/DepthDuration/v2_depth_duration_MTurk/v2_DepthDuration_HTML.html#352,352,1242,698,1366,768,8-29-2022,9-39-31,55,depth_duration_stimuli/002660_2014-06-13_15-44-18_094959634447_rgbf001878-resize_2/002660_2014-06-13_15-44-18_094959634447_rgbf001878-resize_2-target.png,125,3.576,15.0,4371,124,feet,jsons/VE125_randls_71.json,589598,688037,42,Woman
55,912877,DepthScenes,duration_manipulation_targetAtFixation,jsons/VE125_randls_71.json,http://54.235.29.9/FacialAge/BNav_EC2/DepthDuration/v2_depth_duration_MTurk/v2_DepthDuration_HTML.html#352,352,1242,698,1366,768,8-29-2022,9-39-31,56,depth_duration_stimuli/002375_2014-06-28_20-13-44_260595134347_rgbf000032-resize_1/002375_2014-06-28_20-13-44_260595134347_rgbf000032-resize_1-target.png,125,4.0175,5.0,2443,124,feet,jsons/VE125_randls_71.json,589598,688037,42,Woman
56,912877,DepthScenes,duration_manipulation_targetAtFixation,jsons/VE125_randls_71.json,http://54.235.29.9/FacialAge/BNav_EC2/DepthDuration/v2_depth_duration_MTurk/v2_DepthDuration_HTML.html#352,352,1242,698,1366,768,8-29-2022,9-39-31,57,depth_duration_stimuli/002657_2014-06-13_15-29-54_094959634447_rgbf000150-resize_1/002657_2014-06-13_15-29-54_094959634447_rgbf000150-resize_1-target.png,125,4.919,6.0,2635,125,feet,jsons/VE125_randls_71.json,589598,688037,42,Woman
57,912877,DepthScenes,duration_manipulation_targetAtFixation,jsons/VE125_randls_71.json,http://54.235.29.9/FacialAge/BNav_EC2/DepthDuration/v2_depth_duration_MTurk/v2_DepthDuration_HTML.html#352,352,1242,698,1366,768,8-29-2022,9-39-31,58,depth_duration_stimuli/001810_2014-06-26_20-51-35_260595134347_rgbf000040-resize_3/001810_2014-06-26_20-51-35_260595134347_rgbf000040-resize_3-target.png,125,2.2525,3.0,2507,124,feet,jsons/VE125_randls_71.json,589598,688037,42,Woman
58,912877,DepthScenes,duration_manipulation_targetAtFixation,jsons/VE125_randls_71.json,http://54.235.29.9/FacialAge/BNav_EC2/DepthDuration/v2_depth_duration_MTurk/v2_DepthDuration_HTML.html#352,352,1242,698,1366,768,8-29-2022,9-39-31,59,depth_duration_stimuli/003010_2014-06-15_12-54-35_094959634447_rgbf000112-resize_0/003010_2014-06-15_12-54-35_094959634447_rgbf000112-resize_0-target.png,125,3.1185,11.0,2826,125,feet,jsons/VE125_randls_71.json,589598,688037,42,Woman
59,912877,DepthScenes,duration_manipulation_targetAtFixation,jsons/VE125_randls_71.json,http://54.235.29.9/FacialAge/BNav_EC2/DepthDuration/v2_depth_duration_MTurk/v2_DepthDuration_HTML.html#352,352,1242,698,1366,768,8-29-2022,9-39-31,60,depth_duration_stimuli/000788_2014-06-08_22-34-36_260595134347_rgbf000131-resize_1/000788_2014-06-08_22-34-36_260595134347_rgbf000131-resize_1-target.png,125,3.359,7.0,3026,123,feet,jsons/VE125_randls_71.json,589598,688037,42,Woman
60,912877,DepthScenes,duration_manipulation_targetAtFixation,jsons/VE125_randls_71.json,http://54.235.29.9/FacialAge/BNav_EC2/DepthDuration/v2_depth_duration_MTurk/v2_DepthDuration_HTML.html#352,352,1242,698,1366,768,8-29-2022,9-39-31,61,depth_duration_stimuli/001235_2014-06-17_16-37-36_260595134347_rgbf000084-resize_4/001235_2014-06-17_16-37-36_260595134347_rgbf000084-resize_4-target.png,125,3.6605,8.0,2515,124,feet,jsons/VE125_randls_71.json,589598,688037,42,Woman
61,912877,DepthScenes,duration_manipulation_targetAtFixation,jsons/VE125_randls_71.json,http://54.235.29.9/FacialAge/BNav_EC2/DepthDuration/v2_depth_duration_MTurk/v2_DepthDuration_HTML.html#352,352,1242,698,1366,768,8-29-2022,9-39-31,62,depth_duration_stimuli/003292_2014-05-14_21-53-49_094959634447_rgbf000100-resize_2/003292_2014-05-14_21-53-49_094959634447_rgbf000100-resize_2-target.png,125,3.4815,7.0,2418,124,feet,jsons/VE125_randls_71.json,589598,688037,42,Woman
62,912877,DepthScenes,duration_manipulation_targetAtFixation,jsons/VE125_randls_71.json,http://54.235.29.9/FacialAge/BNav_EC2/DepthDuration/v2_depth_duration_MTurk/v2_DepthDuration_HTML.html#352,352,1242,698,1366,768,8-29-2022,9-39-31,63,depth_duration_stimuli/002639_2014-06-24_14-51-37_094959634447_rgbf000074-resize_4/002639_2014-06-24_14-51-37_094959634447_rgbf000074-resize_4-target.png,125,4.0375,11.0,4556,125,feet,jsons/VE125_randls_71.json,589598,688037,42,Woman
63,912877,DepthScenes,duration_manipulation_targetAtFixation,jsons/VE125_randls_71.json,http://54.235.29.9/FacialAge/BNav_EC2/DepthDuration/v2_depth_duration_MTurk/v2_DepthDuration_HTML.html#352,352,1242,698,1366,768,8-29-2022,9-39-31,64,depth_duration_stimuli/002630_2014-06-24_14-47-50_094959634447_rgbf000055-resize_1/002630_2014-06-24_14-47-50_094959634447_rgbf000055-resize_1-target.png,125,3.0095,12.0,2930,123,feet,jsons/VE125_randls_71.json,589598,688037,42,Woman
64,912877,DepthScenes,duration_manipulation_targetAtFixation,jsons/VE125_randls_71.json,http://54.235.29.9/FacialAge/BNav_EC2/DepthDuration/v2_depth_duration_MTurk/v2_DepthDuration_HTML.html#352,352,1242,698,1366,768,8-29-2022,9-39-31,65,depth_duration_stimuli/002758_2014-06-22_19-11-20_094959634447_rgbf000128-resize_1/002758_2014-06-22_19-11-20_094959634447_rgbf000128-resize_1-target.png,125,2.555,5.0,2459,125,feet,jsons/VE125_randls_71.json,589598,688037,42,Woman
65,912877,DepthScenes,duration_manipulation_targetAtFixation,jsons/VE125_randls_71.json,http://54.235.29.9/FacialAge/BNav_EC2/DepthDuration/v2_depth_duration_MTurk/v2_DepthDuration_HTML.html#352,352,1242,698,1366,768,8-29-2022,9-39-31,66,depth_duration_stimuli/001222_2014-06-17_16-24-06_260595134347_rgbf000073-resize_0/001222_2014-06-17_16-24-06_260595134347_rgbf000073-resize-original.jpg,125,1.4385,0.0,2714,124,feet,jsons/VE125_randls_71.json,589598,688037,42,Woman
66,912877,DepthScenes,duration_manipulation_targetAtFixation,jsons/VE125_randls_71.json,http://54.235.29.9/FacialAge/BNav_EC2/DepthDuration/v2_depth_duration_MTurk/v2_DepthDuration_HTML.html#352,352,1242,698,1366,768,8-29-2022,9-39-31,67,depth_duration_stimuli/000486_2014-06-09_20-47-20_260595134347_rgbf000143-resize_2/000486_2014-06-09_20-47-20_260595134347_rgbf000143-resize_2-target.png,125,4.8325,11.0,2893,125,feet,jsons/VE125_randls_71.json,589598,688037,42,Woman
67,912877,DepthScenes,duration_manipulation_targetAtFixation,jsons/VE125_randls_71.json,http://54.235.29.9/FacialAge/BNav_EC2/DepthDuration/v2_depth_duration_MTurk/v2_DepthDuration_HTML.html#352,352,1242,698,1366,768,8-29-2022,9-39-31,68,depth_duration_stimuli/003083_2014-06-15_15-21-03_094959634447_rgbf000063-resize_1/003083_2014-06-15_15-21-03_094959634447_rgbf000063-resize_1-target.png,125,4.1405,4.0,3899,124,feet,jsons/VE125_randls_71.json,589598,688037,42,Woman
68,912877,DepthScenes,duration_manipulation_targetAtFixation,jsons/VE125_randls_71.json,http://54.235.29.9/FacialAge/BNav_EC2/DepthDuration/v2_depth_duration_MTurk/v2_DepthDuration_HTML.html#352,352,1242,698,1366,768,8-29-2022,9-39-31,69,depth_duration_stimuli/001164_2014-06-17_15-35-46_260595134347_rgbf000085-resize_3/001164_2014-06-17_15-35-46_260595134347_rgbf000085-resize_3-target.png,125,2.354,6.0,2913,123,feet,jsons/VE125_randls_71.json,589598,688037,42,Woman
69,912877,DepthScenes,duration_manipulation_targetAtFixation,jsons/VE125_randls_71.json,http://54.235.29.9/FacialAge/BNav_EC2/DepthDuration/v2_depth_duration_MTurk/v2_DepthDuration_HTML.html#352,352,1242,698,1366,768,8-29-2022,9-39-31,70,depth_duration_stimuli/001136_2014-06-17_15-19-41_260595134347_rgbf000076-resize_3/001136_2014-06-17_15-19-41_260595134347_rgbf000076-resize_3-target.png,125,1.8655,11.0,3474,124,feet,jsons/VE125_randls_71.json,589598,688037,42,Woman
70,912877,DepthScenes,duration_manipulation_targetAtFixation,jsons/VE125_randls_71.json,http://54.235.29.9/FacialAge/BNav_EC2/DepthDuration/v2_depth_duration_MTurk/v2_DepthDuration_HTML.html#352,352,1242,698,1366,768,8-29-2022,9-39-31,71,depth_duration_stimuli/001016_2014-06-09_16-16-10_260595134347_rgbf000112-resize_5/001016_2014-06-09_16-16-10_260595134347_rgbf000112-resize_5-target.png,125,1.6565,12.0,4939,125,feet,jsons/VE125_randls_71.json,589598,688037,42,Woman
71,912877,DepthScenes,duration_manipulation_targetAtFixation,jsons/VE125_randls_71.json,http://54.235.29.9/FacialAge/BNav_EC2/DepthDuration/v2_depth_duration_MTurk/v2_DepthDuration_HTML.html#352,352,1242,698,1366,768,8-29-2022,9-39-31,72,depth_duration_stimuli/002340_2014-06-28_20-05-46_260595134347_rgbf000113-resize_0/002340_2014-06-28_20-05-46_260595134347_rgbf000113-resize_0-target.png,125,2.4735,15.0,2827,125,feet,jsons/VE125_randls_71.json,589598,688037,42,Woman
72,912877,DepthScenes,duration_manipulation_targetAtFixation,jsons/VE125_randls_71.json,http://54.235.29.9/FacialAge/BNav_EC2/DepthDuration/v2_depth_duration_MTurk/v2_DepthDuration_HTML.html#352,352,1242,698,1366,768,8-29-2022,9-39-31,73,depth_duration_stimuli/001244_2014-06-17_16-47-45_260595134347_rgbf000030-resize_4/001244_2014-06-17_16-47-45_260595134347_rgbf000030-resize_4-target.png,125,2.0425,11.0,2787,125,feet,jsons/VE125_randls_71.json,589598,688037,42,Woman
73,912877,DepthScenes,duration_manipulation_targetAtFixation,jsons/VE125_randls_71.json,http://54.235.29.9/FacialAge/BNav_EC2/DepthDuration/v2_depth_duration_MTurk/v2_DepthDuration_HTML.html#352,352,1242,698,1366,768,8-29-2022,9-39-31,74,depth_duration_stimuli/003495_2014-05-21_16-01-51_094959634447_rgbf000100-resize_3/003495_2014-05-21_16-01-51_094959634447_rgbf000100-resize_3-target.png,125,1.6255,6.0,2226,124,feet,jsons/VE125_randls_71.json,589598,688037,42,Woman
74,912877,DepthScenes,duration_manipulation_targetAtFixation,jsons/VE125_randls_71.json,http://54.235.29.9/FacialAge/BNav_EC2/DepthDuration/v2_depth_duration_MTurk/v2_DepthDuration_HTML.html#352,352,1242,698,1366,768,8-29-2022,9-39-31,75,depth_duration_stimuli/000470_2014-06-09_19-42-40_260595134347_rgbf000094-resize_1/000470_2014-06-09_19-42-40_260595134347_rgbf000094-resize_1-target.png,125,1.831,8.0,2195,124,feet,jsons/VE125_randls_71.json,589598,688037,42,Woman
75,912877,DepthScenes,duration_manipulation_targetAtFixation,jsons/VE125_randls_71.json,http://54.235.29.9/FacialAge/BNav_EC2/DepthDuration/v2_depth_duration_MTurk/v2_DepthDuration_HTML.html#352,352,1242,698,1366,768,8-29-2022,9-39-31,76,depth_duration_stimuli/000109_2014-05-14_23-41-52_260595134347_rgbf000035-resize_9/000109_2014-05-14_23-41-52_260595134347_rgbf000035-resize_9-target.png,125,1.3545,5.0,2083,126,feet,jsons/VE125_randls_71.json,589598,688037,42,Woman
76,912877,DepthScenes,duration_manipulation_targetAtFixation,jsons/VE125_randls_71.json,http://54.235.29.9/FacialAge/BNav_EC2/DepthDuration/v2_depth_duration_MTurk/v2_DepthDuration_HTML.html#352,352,1242,698,1366,768,8-29-2022,9-39-31,77,depth_duration_stimuli/001110_2014-06-15_17-25-28_260595134347_rgbf000150-resize_1/001110_2014-06-15_17-25-28_260595134347_rgbf000150-resize_1-target.png,125,1.7115,9.0,2202,124,feet,jsons/VE125_randls_71.json,589598,688037,42,Woman
77,912877,DepthScenes,duration_manipulation_targetAtFixation,jsons/VE125_randls_71.json,http://54.235.29.9/FacialAge/BNav_EC2/DepthDuration/v2_depth_duration_MTurk/v2_DepthDuration_HTML.html#352,352,1242,698,1366,768,8-29-2022,9-39-31,78,depth_duration_stimuli/000927_2014-06-09_16-32-30_260595134347_rgbf000123-resize_3/000927_2014-06-09_16-32-30_260595134347_rgbf000123-resize_3-target.png,125,2.6785,2.0,2043,124,feet,jsons/VE125_randls_71.json,589598,688037,42,Woman
78,912877,DepthScenes,duration_manipulation_targetAtFixation,jsons/VE125_randls_71.json,http://54.235.29.9/FacialAge/BNav_EC2/DepthDuration/v2_depth_duration_MTurk/v2_DepthDuration_HTML.html#352,352,1242,698,1366,768,8-29-2022,9-39-31,79,depth_duration_stimuli/001175_2014-06-17_15-45-55_260595134347_rgbf000129-resize_4/001175_2014-06-17_15-45-55_260595134347_rgbf000129-resize_4-target.png,125,4.255,6.0,1930,125,feet,jsons/VE125_randls_71.json,589598,688037,42,Woman
79,912877,DepthScenes,duration_manipulation_targetAtFixation,jsons/VE125_randls_71.json,http://54.235.29.9/FacialAge/BNav_EC2/DepthDuration/v2_depth_duration_MTurk/v2_DepthDuration_HTML.html#352,352,1242,698,1366,768,8-29-2022,9-39-31,80,depth_duration_stimuli/003490_2014-05-21_15-50-11_094959634447_rgbf000101-resize_3/003490_2014-05-21_15-50-11_094959634447_rgbf000101-resize_3-target.png,125,3.6445,5.0,3219,125,feet,jsons/VE125_randls_71.json,589598,688037,42,Woman
80,912877,DepthScenes,duration_manipulation_targetAtFixation,jsons/VE125_randls_71.json,http://54.235.29.9/FacialAge/BNav_EC2/DepthDuration/v2_depth_duration_MTurk/v2_DepthDuration_HTML.html#352,352,1242,698,1366,768,8-29-2022,9-39-31,81,depth_duration_stimuli/000522_2014-06-08_13-35-06_260595134347_rgbf000244-resize_1/000522_2014-06-08_13-35-06_260595134347_rgbf000244-resize_1-target.png,125,2.3715,7.0,2186,123,feet,jsons/VE125_randls_71.json,589598,688037,42,Woman
81,912877,DepthScenes,duration_manipulation_targetAtFixation,jsons/VE125_randls_71.json,http://54.235.29.9/FacialAge/BNav_EC2/DepthDuration/v2_depth_duration_MTurk/v2_DepthDuration_HTML.html#352,352,1242,698,1366,768,8-29-2022,9-39-31,82,depth_duration_stimuli/002949_2014-06-26_15-57-42_094959634447_rgbf000079-resize_1/002949_2014-06-26_15-57-42_094959634447_rgbf000079-resize_1-target.png,125,1.8915,6.0,2275,125,feet,jsons/VE125_randls_71.json,589598,688037,42,Woman
82,912877,DepthScenes,duration_manipulation_targetAtFixation,jsons/VE125_randls_71.json,http://54.235.29.9/FacialAge/BNav_EC2/DepthDuration/v2_depth_duration_MTurk/v2_DepthDuration_HTML.html#352,352,1242,698,1366,768,8-29-2022,9-39-31,83,depth_duration_stimuli/001449_2014-06-19_17-01-27_260595134347_rgbf000116-resize_2/001449_2014-06-19_17-01-27_260595134347_rgbf000116-resize_2-target.png,125,3.452,9.0,2098,124,feet,jsons/VE125_randls_71.json,589598,688037,42,Woman
83,912877,DepthScenes,duration_manipulation_targetAtFixation,jsons/VE125_randls_71.json,http://54.235.29.9/FacialAge/BNav_EC2/DepthDuration/v2_depth_duration_MTurk/v2_DepthDuration_HTML.html#352,352,1242,698,1366,768,8-29-2022,9-39-31,84,depth_duration_stimuli/001450_2014-06-19_17-02-03_260595134347_rgbf000203-resize_4/001450_2014-06-19_17-02-03_260595134347_rgbf000203-resize_4-target.png,125,4.0106666666667,9.0,1995,125,feet,jsons/VE125_randls_71.json,589598,688037,42,Woman
84,912877,DepthScenes,duration_manipulation_targetAtFixation,jsons/VE125_randls_71.json,http://54.235.29.9/FacialAge/BNav_EC2/DepthDuration/v2_depth_duration_MTurk/v2_DepthDuration_HTML.html#352,352,1242,698,1366,768,8-29-2022,9-39-31,85,depth_duration_stimuli/000414_2014-06-04_19-49-13_260595134347_rgbf000044-resize_0/000414_2014-06-04_19-49-13_260595134347_rgbf000044-resize_0-target.png,125,4.329,13.0,2427,127,feet,jsons/VE125_randls_71.json,589598,688037,42,Woman
85,912877,DepthScenes,duration_manipulation_targetAtFixation,jsons/VE125_randls_71.json,http://54.235.29.9/FacialAge/BNav_EC2/DepthDuration/v2_depth_duration_MTurk/v2_DepthDuration_HTML.html#352,352,1242,698,1366,768,8-29-2022,9-39-31,86,depth_duration_stimuli/003129_2014-05-12_10-48-10_094959634447_rgbf000100-resize_0/003129_2014-05-12_10-48-10_094959634447_rgbf000100-resize_0-target.png,125,4.9305,15.0,2122,123,feet,jsons/VE125_randls_71.json,589598,688037,42,Woman
86,912877,DepthScenes,duration_manipulation_targetAtFixation,jsons/VE125_randls_71.json,http://54.235.29.9/FacialAge/BNav_EC2/DepthDuration/v2_depth_duration_MTurk/v2_DepthDuration_HTML.html#352,352,1242,698,1366,768,8-29-2022,9-39-31,87,depth_duration_stimuli/001199_2014-06-17_16-03-48_260595134347_rgbf000077-resize_0/001199_2014-06-17_16-03-48_260595134347_rgbf000077-resize_0-target.png,125,3.4375,15.0,2275,125,feet,jsons/VE125_randls_71.json,589598,688037,42,Woman
87,912877,DepthScenes,duration_manipulation_targetAtFixation,jsons/VE125_randls_71.json,http://54.235.29.9/FacialAge/BNav_EC2/DepthDuration/v2_depth_duration_MTurk/v2_DepthDuration_HTML.html#352,352,1242,698,1366,768,8-29-2022,9-39-31,88,depth_duration_stimuli/000502_2014-06-08_23-02-32_260595134347_rgbf000063-resize_4/000502_2014-06-08_23-02-32_260595134347_rgbf000063-resize_4-target.png,125,2.431,8.0,2986,123,feet,jsons/VE125_randls_71.json,589598,688037,42,Woman
88,912877,DepthScenes,duration_manipulation_targetAtFixation,jsons/VE125_randls_71.json,http://54.235.29.9/FacialAge/BNav_EC2/DepthDuration/v2_depth_duration_MTurk/v2_DepthDuration_HTML.html#352,352,1242,698,1366,768,8-29-2022,9-39-31,89,depth_duration_stimuli/001417_2014-06-19_16-25-36_260595134347_rgbf000115-resize_5/001417_2014-06-19_16-25-36_260595134347_rgbf000115-resize_5-target.png,125,4.6255,7.0,2259,124,feet,jsons/VE125_randls_71.json,589598,688037,42,Woman
89,912877,DepthScenes,duration_manipulation_targetAtFixation,jsons/VE125_randls_71.json,http://54.235.29.9/FacialAge/BNav_EC2/DepthDuration/v2_depth_duration_MTurk/v2_DepthDuration_HTML.html#352,352,1242,698,1366,768,8-29-2022,9-39-31,90,depth_duration_stimuli/003081_2014-06-15_15-19-16_094959634447_rgbf000150-resize_1/003081_2014-06-15_15-19-16_094959634447_rgbf000150-resize_1-target.png,125,3.9125,6.0,1914,124,feet,jsons/VE125_randls_71.json,589598,688037,42,Woman
90,912877,DepthScenes,duration_manipulation_targetAtFixation,jsons/VE125_randls_71.json,http://54.235.29.9/FacialAge/BNav_EC2/DepthDuration/v2_depth_duration_MTurk/v2_DepthDuration_HTML.html#352,352,1242,698,1366,768,8-29-2022,9-39-31,91,depth_duration_stimuli/000773_2014-06-08_22-24-54_260595134347_rgbf000093-resize_1/000773_2014-06-08_22-24-54_260595134347_rgbf000093-resize_1-target.png,125,4.973,9.0,2356,125,feet,jsons/VE125_randls_71.json,589598,688037,42,Woman
91,912877,DepthScenes,duration_manipulation_targetAtFixation,jsons/VE125_randls_71.json,http://54.235.29.9/FacialAge/BNav_EC2/DepthDuration/v2_depth_duration_MTurk/v2_DepthDuration_HTML.html#352,352,1242,698,1366,768,8-29-2022,9-39-31,92,depth_duration_stimuli/002414_2014-06-28_20-24-58_260595134347_rgbf000067-resize_4/002414_2014-06-28_20-24-58_260595134347_rgbf000067-resize_4-target.png,125,4.363,11.0,2667,125,feet,jsons/VE125_randls_71.json,589598,688037,42,Woman
92,912877,DepthScenes,duration_manipulation_targetAtFixation,jsons/VE125_randls_71.json,http://54.235.29.9/FacialAge/BNav_EC2/DepthDuration/v2_depth_duration_MTurk/v2_DepthDuration_HTML.html#352,352,1242,698,1366,768,8-29-2022,9-39-31,93,depth_duration_stimuli/001059_2014-06-08_21-53-27_260595134347_rgbf000061-resize_4/001059_2014-06-08_21-53-27_260595134347_rgbf000061-resize_4-target.png,125,2.4185,12.0,3331,125,feet,jsons/VE125_randls_71.json,589598,688037,42,Woman
93,912877,DepthScenes,duration_manipulation_targetAtFixation,jsons/VE125_randls_71.json,http://54.235.29.9/FacialAge/BNav_EC2/DepthDuration/v2_depth_duration_MTurk/v2_DepthDuration_HTML.html#352,352,1242,698,1366,768,8-29-2022,9-39-31,94,depth_duration_stimuli/001032_2014-06-08_13-23-17_260595134347_rgbf000021-resize_3/001032_2014-06-08_13-23-17_260595134347_rgbf000021-resize_3-target.png,125,3.2725,15.0,2275,124,feet,jsons/VE125_randls_71.json,589598,688037,42,Woman
94,912877,DepthScenes,duration_manipulation_targetAtFixation,jsons/VE125_randls_71.json,http://54.235.29.9/FacialAge/BNav_EC2/DepthDuration/v2_depth_duration_MTurk/v2_DepthDuration_HTML.html#352,352,1242,698,1366,768,8-29-2022,9-39-31,95,depth_duration_stimuli/002784_2014-06-22_19-26-30_094959634447_rgbf000083-resize_3/002784_2014-06-22_19-26-30_094959634447_rgbf000083-resize_3-target.png,125,1.8046666666667,3.0,3979,124,feet,jsons/VE125_randls_71.json,589598,688037,42,Woman
95,912877,DepthScenes,duration_manipulation_targetAtFixation,jsons/VE125_randls_71.json,http://54.235.29.9/FacialAge/BNav_EC2/DepthDuration/v2_depth_duration_MTurk/v2_DepthDuration_HTML.html#352,352,1242,698,1366,768,8-29-2022,9-39-31,96,depth_duration_stimuli/001100_2014-06-15_17-46-26_260595134347_rgbf000225-resize_2/001100_2014-06-15_17-46-26_260595134347_rgbf000225-resize_2-target.png,125,2.24,6.0,2595,124,feet,jsons/VE125_randls_71.json,589598,688037,42,Woman
96,912877,DepthScenes,duration_manipulation_targetAtFixation,jsons/VE125_randls_71.json,http://54.235.29.9/FacialAge/BNav_EC2/DepthDuration/v2_depth_duration_MTurk/v2_DepthDuration_HTML.html#352,352,1242,698,1366,768,8-29-2022,9-39-31,97,depth_duration_stimuli/000736_2014-06-08_18-24-15_260595134347_rgbf000206-resize_3/000736_2014-06-08_18-24-15_260595134347_rgbf000206-resize_3-target.png,125,3.515,5.0,2778,123,feet,jsons/VE125_randls_71.json,589598,688037,42,Woman
97,912877,DepthScenes,duration_manipulation_targetAtFixation,jsons/VE125_randls_71.json,http://54.235.29.9/FacialAge/BNav_EC2/DepthDuration/v2_depth_duration_MTurk/v2_DepthDuration_HTML.html#352,352,1242,698,1366,768,8-29-2022,9-39-31,98,depth_duration_stimuli/000137_2014-05-20_17-04-49_260595134347_rgbf000120-resize_1/000137_2014-05-20_17-04-49_260595134347_rgbf000120-resize_1-target.png,125,3.786,7.0,18634,124,feet,jsons/VE125_randls_71.json,589598,688037,42,Woman
98,912877,DepthScenes,duration_manipulation_targetAtFixation,jsons/VE125_randls_71.json,http://54.235.29.9/FacialAge/BNav_EC2/DepthDuration/v2_depth_duration_MTurk/v2_DepthDuration_HTML.html#352,352,1242,698,1366,768,8-29-2022,9-39-31,99,depth_duration_stimuli/001540_2014-06-20_17-01-05_260595134347_rgbf000086-resize_2/001540_2014-06-20_17-01-05_260595134347_rgbf000086-resize-original.jpg,125,1.459,0.0,3730,125,feet,jsons/VE125_randls_71.json,589598,688037,42,Woman
99,912877,DepthScenes,duration_manipulation_targetAtFixation,jsons/VE125_randls_71.json,http://54.235.29.9/FacialAge/BNav_EC2/DepthDuration/v2_depth_duration_MTurk/v2_DepthDuration_HTML.html#352,352,1242,698,1366,768,8-29-2022,9-39-31,100,depth_duration_stimuli/002213_2014-06-28_18-37-58_260595134347_rgbf000055-resize_1/002213_2014-06-28_18-37-58_260595134347_rgbf000055-resize_1-target.png,125,3.62,12.0,2603,123,feet,jsons/VE125_randls_71.json,589598,688037,42,Woman
100,912877,DepthScenes,duration_manipulation_targetAtFixation,jsons/VE125_randls_71.json,http://54.235.29.9/FacialAge/BNav_EC2/DepthDuration/v2_depth_duration_MTurk/v2_DepthDuration_HTML.html#352,352,1242,698,1366,768,8-29-2022,9-39-31,101,depth_duration_stimuli/000691_2014-06-08_13-08-50_260595134347_rgbf000132-resize_3/000691_2014-06-08_13-08-50_260595134347_rgbf000132-resize_3-target.png,125,4.1530000000000005,7.0,2331,124,feet,jsons/VE125_randls_71.json,589598,688037,42,Woman
101,912877,DepthScenes,duration_manipulation_targetAtFixation,jsons/VE125_randls_71.json,http://54.235.29.9/FacialAge/BNav_EC2/DepthDuration/v2_depth_duration_MTurk/v2_DepthDuration_HTML.html#352,352,1242,698,1366,768,8-29-2022,9-39-31,102,depth_duration_stimuli/000493_2014-06-09_21-01-18_260595134347_rgbf000196-resize_3/000493_2014-06-09_21-01-18_260595134347_rgbf000196-resize_3-target.png,125,3.44,8.0,4337,124,feet,jsons/VE125_randls_71.json,589598,688037,42,Woman
102,912877,DepthScenes,duration_manipulation_targetAtFixation,jsons/VE125_randls_71.json,http://54.235.29.9/FacialAge/BNav_EC2/DepthDuration/v2_depth_duration_MTurk/v2_DepthDuration_HTML.html#352,352,1242,698,1366,768,8-29-2022,9-39-31,103,depth_duration_stimuli/000191_2014-05-12_17-07-38_260595134347_rgbf000199-resize_0/000191_2014-05-12_17-07-38_260595134347_rgbf000199-resize_0-target.png,125,3.7995,12.0,2179,125,feet,jsons/VE125_randls_71.json,589598,688037,42,Woman
103,912877,DepthScenes,duration_manipulation_targetAtFixation,jsons/VE125_randls_71.json,http://54.235.29.9/FacialAge/BNav_EC2/DepthDuration/v2_depth_duration_MTurk/v2_DepthDuration_HTML.html#352,352,1242,698,1366,768,8-29-2022,9-39-31,104,depth_duration_stimuli/002509_2014-06-24_13-19-22_094959634447_rgbf000077-resize_0/002509_2014-06-24_13-19-22_094959634447_rgbf000077-resize_0-target.png,125,1.3065,5.0,2170,123,feet,jsons/VE125_randls_71.json,589598,688037,42,Woman
104,912877,DepthScenes,duration_manipulation_targetAtFixation,jsons/VE125_randls_71.json,http://54.235.29.9/FacialAge/BNav_EC2/DepthDuration/v2_depth_duration_MTurk/v2_DepthDuration_HTML.html#352,352,1242,698,1366,768,8-29-2022,9-39-31,105,depth_duration_stimuli/003338_2014-05-20_11-01-23_094959634447_rgbf000051-resize_6/003338_2014-05-20_11-01-23_094959634447_rgbf000051-resize_6-target.png,125,1.693,7.0,2282,125,feet,jsons/VE125_randls_71.json,589598,688037,42,Woman
105,912877,DepthScenes,duration_manipulation_targetAtFixation,jsons/VE125_randls_71.json,http://54.235.29.9/FacialAge/BNav_EC2/DepthDuration/v2_depth_duration_MTurk/v2_DepthDuration_HTML.html#352,352,1242,698,1366,768,8-29-2022,9-39-31,106,depth_duration_stimuli/002279_2014-06-28_18-55-32_260595134347_rgbf000040-resize_5/002279_2014-06-28_18-55-32_260595134347_rgbf000040-resize_5-target.png,125,1.5043333333333,6.0,3091,127,feet,jsons/VE125_randls_71.json,589598,688037,42,Woman
106,912877,DepthScenes,duration_manipulation_targetAtFixation,jsons/VE125_randls_71.json,http://54.235.29.9/FacialAge/BNav_EC2/DepthDuration/v2_depth_duration_MTurk/v2_DepthDuration_HTML.html#352,352,1242,698,1366,768,8-29-2022,9-39-31,107,depth_duration_stimuli/000635_2014-06-08_16-38-42_260595134347_rgbf000106-resize_1/000635_2014-06-08_16-38-42_260595134347_rgbf000106-resize_1-target.png,125,2.074,7.0,2764,124,feet,jsons/VE125_randls_71.json,589598,688037,42,Woman
107,912877,DepthScenes,duration_manipulation_targetAtFixation,jsons/VE125_randls_71.json,http://54.235.29.9/FacialAge/BNav_EC2/DepthDuration/v2_depth_duration_MTurk/v2_DepthDuration_HTML.html#352,352,1242,698,1366,768,8-29-2022,9-39-31,108,depth_duration_stimuli/002570_2014-06-24_13-59-54_094959634447_rgbf000059-resize_0/002570_2014-06-24_13-59-54_094959634447_rgbf000059-resize_0-target.png,125,4.037,6.0,2618,124,feet,jsons/VE125_randls_71.json,589598,688037,42,Woman
108,912877,DepthScenes,duration_manipulation_targetAtFixation,jsons/VE125_randls_71.json,http://54.235.29.9/FacialAge/BNav_EC2/DepthDuration/v2_depth_duration_MTurk/v2_DepthDuration_HTML.html#352,352,1242,698,1366,768,8-29-2022,9-39-31,109,depth_duration_stimuli/002467_2014-06-28_20-38-07_260595134347_rgbf000026-resize_2/002467_2014-06-28_20-38-07_260595134347_rgbf000026-resize_2-target.png,125,4.742,5.0,2563,124,feet,jsons/VE125_randls_71.json,589598,688037,42,Woman
109,912877,DepthScenes,duration_manipulation_targetAtFixation,jsons/VE125_randls_71.json,http://54.235.29.9/FacialAge/BNav_EC2/DepthDuration/v2_depth_duration_MTurk/v2_DepthDuration_HTML.html#352,352,1242,698,1366,768,8-29-2022,9-39-31,110,depth_duration_stimuli/002964_2014-06-08_17-46-11_094959634447_rgbf000091-resize_4/002964_2014-06-08_17-46-11_094959634447_rgbf000091-resize_4-target.png,125,1.6909999999999998,5.0,2179,124,feet,jsons/VE125_randls_71.json,589598,688037,42,Woman
110,912877,DepthScenes,duration_manipulation_targetAtFixation,jsons/VE125_randls_71.json,http://54.235.29.9/FacialAge/BNav_EC2/DepthDuration/v2_depth_duration_MTurk/v2_DepthDuration_HTML.html#352,352,1242,698,1366,768,8-29-2022,9-39-31,111,depth_duration_stimuli/002136_2014-06-25_21-18-03_260595134347_rgbf000109-resize_3/002136_2014-06-25_21-18-03_260595134347_rgbf000109-resize_3-target.png,125,1.9569999999999999,9.0,2346,124,feet,jsons/VE125_randls_71.json,589598,688037,42,Woman
111,912877,DepthScenes,duration_manipulation_targetAtFixation,jsons/VE125_randls_71.json,http://54.235.29.9/FacialAge/BNav_EC2/DepthDuration/v2_depth_duration_MTurk/v2_DepthDuration_HTML.html#352,352,1242,698,1366,768,8-29-2022,9-39-31,112,depth_duration_stimuli/000506_2014-06-08_23-21-00_260595134347_rgbf000070-resize_7/000506_2014-06-08_23-21-00_260595134347_rgbf000070-resize_7-target.png,125,4.0585,10.0,2546,123,feet,jsons/VE125_randls_71.json,589598,688037,42,Woman
112,912877,DepthScenes,duration_manipulation_targetAtFixation,jsons/VE125_randls_71.json,http://54.235.29.9/FacialAge/BNav_EC2/DepthDuration/v2_depth_duration_MTurk/v2_DepthDuration_HTML.html#352,352,1242,698,1366,768,8-29-2022,9-39-31,113,depth_duration_stimuli/003079_2014-06-15_15-18-20_094959634447_rgbf000152-resize_8/003079_2014-06-15_15-18-20_094959634447_rgbf000152-resize_8-target.png,125,2.8775,12.0,2291,125,feet,jsons/VE125_randls_71.json,589598,688037,42,Woman
113,912877,DepthScenes,duration_manipulation_targetAtFixation,jsons/VE125_randls_71.json,http://54.235.29.9/FacialAge/BNav_EC2/DepthDuration/v2_depth_duration_MTurk/v2_DepthDuration_HTML.html#352,352,1242,698,1366,768,8-29-2022,9-39-31,114,depth_duration_stimuli/000642_2014-06-08_16-59-25_260595134347_rgbf000098-resize_2/000642_2014-06-08_16-59-25_260595134347_rgbf000098-resize_2-target.png,125,2.8815,5.0,2115,124,feet,jsons/VE125_randls_71.json,589598,688037,42,Woman
114,912877,DepthScenes,duration_manipulation_targetAtFixation,jsons/VE125_randls_71.json,http://54.235.29.9/FacialAge/BNav_EC2/DepthDuration/v2_depth_duration_MTurk/v2_DepthDuration_HTML.html#352,352,1242,698,1366,768,8-29-2022,9-39-31,115,depth_duration_stimuli/002425_2014-06-28_20-27-29_260595134347_rgbf000031-resize_8/002425_2014-06-28_20-27-29_260595134347_rgbf000031-resize_8-target.png,125,3.8960000000000004,11.0,2250,124,feet,jsons/VE125_randls_71.json,589598,688037,42,Woman
115,912877,DepthScenes,duration_manipulation_targetAtFixation,jsons/VE125_randls_71.json,http://54.235.29.9/FacialAge/BNav_EC2/DepthDuration/v2_depth_duration_MTurk/v2_DepthDuration_HTML.html#352,352,1242,698,1366,768,8-29-2022,9-39-31,116,depth_duration_stimuli/001170_2014-06-17_15-43-44_260595134347_rgbf000096-resize_6/001170_2014-06-17_15-43-44_260595134347_rgbf000096-resize-original.jpg,125,1.1909999999999998,0.0,2370,124,feet,jsons/VE125_randls_71.json,589598,688037,42,Woman
116,912877,DepthScenes,duration_manipulation_targetAtFixation,jsons/VE125_randls_71.json,http://54.235.29.9/FacialAge/BNav_EC2/DepthDuration/v2_depth_duration_MTurk/v2_DepthDuration_HTML.html#352,352,1242,698,1366,768,8-29-2022,9-39-31,117,depth_duration_stimuli/000447_2014-06-08_16-15-46_260595134347_rgbf000130-resize_1/000447_2014-06-08_16-15-46_260595134347_rgbf000130-resize_1-target.png,125,4.479,3.0,2363,125,feet,jsons/VE125_randls_71.json,589598,688037,42,Woman
117,912877,DepthScenes,duration_manipulation_targetAtFixation,jsons/VE125_randls_71.json,http://54.235.29.9/FacialAge/BNav_EC2/DepthDuration/v2_depth_duration_MTurk/v2_DepthDuration_HTML.html#352,352,1242,698,1366,768,8-29-2022,9-39-31,118,depth_duration_stimuli/001447_2014-06-19_17-00-32_260595134347_rgbf000082-resize_5/001447_2014-06-19_17-00-32_260595134347_rgbf000082-resize_5-target.png,125,4.13775,5.0,2283,125,feet,jsons/VE125_randls_71.json,589598,688037,42,Woman
118,912877,DepthScenes,duration_manipulation_targetAtFixation,jsons/VE125_randls_71.json,http://54.235.29.9/FacialAge/BNav_EC2/DepthDuration/v2_depth_duration_MTurk/v2_DepthDuration_HTML.html#352,352,1242,698,1366,768,8-29-2022,9-39-31,119,depth_duration_stimuli/001055_2014-06-08_18-45-35_260595134347_rgbf000111-resize_4/001055_2014-06-08_18-45-35_260595134347_rgbf000111-resize_4-target.png,125,2.4290000000000003,7.0,2306,123,feet,jsons/VE125_randls_71.json,589598,688037,42,Woman
119,912877,DepthScenes,duration_manipulation_targetAtFixation,jsons/VE125_randls_71.json,http://54.235.29.9/FacialAge/BNav_EC2/DepthDuration/v2_depth_duration_MTurk/v2_DepthDuration_HTML.html#352,352,1242,698,1366,768,8-29-2022,9-39-31,120,depth_duration_stimuli/000549_2014-06-08_22-10-24_260595134347_rgbf000247-resize_3/000549_2014-06-08_22-10-24_260595134347_rgbf000247-resize_3-target.png,125,1.841,5.0,2155,126,feet,jsons/VE125_randls_71.json,589598,688037,42,Woman
120,912877,DepthScenes,duration_manipulation_targetAtFixation,jsons/VE125_randls_71.json,http://54.235.29.9/FacialAge/BNav_EC2/DepthDuration/v2_depth_duration_MTurk/v2_DepthDuration_HTML.html#352,352,1242,698,1366,768,8-29-2022,9-39-31,121,depth_duration_stimuli/000878_2014-06-08_22-52-45_260595134347_rgbf000045-resize_2/000878_2014-06-08_22-52-45_260595134347_rgbf000045-resize_2-target.png,125,2.092,11.0,2315,125,feet,jsons/VE125_randls_71.json,589598,688037,42,Woman
121,912877,DepthScenes,duration_manipulation_targetAtFixation,jsons/VE125_randls_71.json,http://54.235.29.9/FacialAge/BNav_EC2/DepthDuration/v2_depth_duration_MTurk/v2_DepthDuration_HTML.html#352,352,1242,698,1366,768,8-29-2022,9-39-31,122,depth_duration_stimuli/002953_2014-06-08_17-32-18_094959634447_rgbf000059-resize_5/002953_2014-06-08_17-32-18_094959634447_rgbf000059-resize_5-target.png,125,1.551,5.0,3707,124,feet,jsons/VE125_randls_71.json,589598,688037,42,Woman
122,912877,DepthScenes,duration_manipulation_targetAtFixation,jsons/VE125_randls_71.json,http://54.235.29.9/FacialAge/BNav_EC2/DepthDuration/v2_depth_duration_MTurk/v2_DepthDuration_HTML.html#352,352,1242,698,1366,768,8-29-2022,9-39-31,123,depth_duration_stimuli/000368_2014-06-09_15-53-01_260595134347_rgbf000155-resize_2/000368_2014-06-09_15-53-01_260595134347_rgbf000155-resize_2-target.png,125,2.4859999999999998,7.0,2885,125,feet,jsons/VE125_randls_71.json,589598,688037,42,Woman
123,912877,DepthScenes,duration_manipulation_targetAtFixation,jsons/VE125_randls_71.json,http://54.235.29.9/FacialAge/BNav_EC2/DepthDuration/v2_depth_duration_MTurk/v2_DepthDuration_HTML.html#352,352,1242,698,1366,768,8-29-2022,9-39-31,124,depth_duration_stimuli/002678_2014-06-13_16-15-32_094959634447_rgbf000151-resize_6/002678_2014-06-13_16-15-32_094959634447_rgbf000151-resize_6-target.png,125,2.1830000000000003,12.0,2394,124,feet,jsons/VE125_randls_71.json,589598,688037,42,Woman
124,912877,DepthScenes,duration_manipulation_targetAtFixation,jsons/VE125_randls_71.json,http://54.235.29.9/FacialAge/BNav_EC2/DepthDuration/v2_depth_duration_MTurk/v2_DepthDuration_HTML.html#352,352,1242,698,1366,768,8-29-2022,9-39-31,125,depth_duration_stimuli/001570_2014-06-20_17-21-09_260595134347_rgbf000135-resize_4/001570_2014-06-20_17-21-09_260595134347_rgbf000135-resize_4-target.png,125,4.467,13.0,2883,124,feet,jsons/VE125_randls_71.json,589598,688037,42,Woman
125,912877,DepthScenes,duration_manipulation_targetAtFixation,jsons/VE125_randls_71.json,http://54.235.29.9/FacialAge/BNav_EC2/DepthDuration/v2_depth_duration_MTurk/v2_DepthDuration_HTML.html#352,352,1242,698,1366,768,8-29-2022,9-39-31,126,depth_duration_stimuli/001392_2014-06-19_16-07-59_260595134347_rgbf000046-resize_1/001392_2014-06-19_16-07-59_260595134347_rgbf000046-resize_1-target.png,125,4.135,15.0,2147,125,feet,jsons/VE125_randls_71.json,589598,688037,42,Woman
126,912877,DepthScenes,duration_manipulation_targetAtFixation,jsons/VE125_randls_71.json,http://54.235.29.9/FacialAge/BNav_EC2/DepthDuration/v2_depth_duration_MTurk/v2_DepthDuration_HTML.html#352,352,1242,698,1366,768,8-29-2022,9-39-31,127,depth_duration_stimuli/001066_2014-06-08_22-03-20_260595134347_rgbf000066-resize_4/001066_2014-06-08_22-03-20_260595134347_rgbf000066-resize_4-target.png,125,4.2330000000000005,18.0,2971,125,feet,jsons/VE125_randls_71.json,589598,688037,42,Woman
127,912877,DepthScenes,duration_manipulation_targetAtFixation,jsons/VE125_randls_71.json,http://54.235.29.9/FacialAge/BNav_EC2/DepthDuration/v2_depth_duration_MTurk/v2_DepthDuration_HTML.html#352,352,1242,698,1366,768,8-29-2022,9-39-31,128,depth_duration_stimuli/000742_2014-06-08_18-48-09_260595134347_rgbf000164-resize_4/000742_2014-06-08_18-48-09_260595134347_rgbf000164-resize_4-target.png,125,4.632,15.0,3194,125,feet,jsons/VE125_randls_71.json,589598,688037,42,Woman
128,912877,DepthScenes,duration_manipulation_targetAtFixation,jsons/VE125_randls_71.json,http://54.235.29.9/FacialAge/BNav_EC2/DepthDuration/v2_depth_duration_MTurk/v2_DepthDuration_HTML.html#352,352,1242,698,1366,768,8-29-2022,9-39-31,129,depth_duration_stimuli/000682_2014-06-08_23-14-58_260595134347_rgbf000041-resize_5/000682_2014-06-08_23-14-58_260595134347_rgbf000041-resize_5-target.png,125,2.7239999999999998,6.0,4884,124,feet,jsons/VE125_randls_71.json,589598,688037,42,Woman
129,912877,DepthScenes,duration_manipulation_targetAtFixation,jsons/VE125_randls_71.json,http://54.235.29.9/FacialAge/BNav_EC2/DepthDuration/v2_depth_duration_MTurk/v2_DepthDuration_HTML.html#352,352,1242,698,1366,768,8-29-2022,9-39-31,130,depth_duration_stimuli/001650_2014-06-20_12-09-00_260595134347_rgbf000087-resize_3/001650_2014-06-20_12-09-00_260595134347_rgbf000087-resize_3-target.png,125,1.9505,2.0,5026,123,feet,jsons/VE125_randls_71.json,589598,688037,42,Woman
130,912877,DepthScenes,duration_manipulation_targetAtFixation,jsons/VE125_randls_71.json,http://54.235.29.9/FacialAge/BNav_EC2/DepthDuration/v2_depth_duration_MTurk/v2_DepthDuration_HTML.html#352,352,1242,698,1366,768,8-29-2022,9-39-31,131,depth_duration_stimuli/001167_2014-06-17_15-38-07_260595134347_rgbf000108-resize_0/001167_2014-06-17_15-38-07_260595134347_rgbf000108-resize_0-target.png,125,1.8505,6.0,2273,124,feet,jsons/VE125_randls_71.json,589598,688037,42,Woman
131,912877,DepthScenes,duration_manipulation_targetAtFixation,jsons/VE125_randls_71.json,http://54.235.29.9/FacialAge/BNav_EC2/DepthDuration/v2_depth_duration_MTurk/v2_DepthDuration_HTML.html#352,352,1242,698,1366,768,8-29-2022,9-39-31,132,depth_duration_stimuli/003587_2014-05-23_16-48-02_094959634447_rgbf002384-resize_2/003587_2014-05-23_16-48-02_094959634447_rgbf002384-resize_2-target.png,125,1.357,2.0,2203,124,feet,jsons/VE125_randls_71.json,589598,688037,42,Woman
132,912877,DepthScenes,duration_manipulation_targetAtFixation,jsons/VE125_randls_71.json,http://54.235.29.9/FacialAge/BNav_EC2/DepthDuration/v2_depth_duration_MTurk/v2_DepthDuration_HTML.html#352,352,1242,698,1366,768,8-29-2022,9-39-31,133,depth_duration_stimuli/000810_2014-06-08_17-20-01_260595134347_rgbf000105-resize_0/000810_2014-06-08_17-20-01_260595134347_rgbf000105-resize_0-target.png,125,1.4865,4.0,2963,125,feet,jsons/VE125_randls_71.json,589598,688037,42,Woman
133,912877,DepthScenes,duration_manipulation_targetAtFixation,jsons/VE125_randls_71.json,http://54.235.29.9/FacialAge/BNav_EC2/DepthDuration/v2_depth_duration_MTurk/v2_DepthDuration_HTML.html#352,352,1242,698,1366,768,8-29-2022,9-39-31,134,depth_duration_stimuli/001214_2014-06-17_16-13-55_260595134347_rgbf000111-resize_0/001214_2014-06-17_16-13-55_260595134347_rgbf000111-resize_0-target.png,125,2.6505,3.0,2155,124,feet,jsons/VE125_randls_71.json,589598,688037,42,Woman
134,912877,DepthScenes,duration_manipulation_targetAtFixation,jsons/VE125_randls_71.json,http://54.235.29.9/FacialAge/BNav_EC2/DepthDuration/v2_depth_duration_MTurk/v2_DepthDuration_HTML.html#352,352,1242,698,1366,768,8-29-2022,9-39-31,135,depth_duration_stimuli/002072_2014-06-24_21-48-06_260595134347_rgbf000115-resize_0/002072_2014-06-24_21-48-06_260595134347_rgbf000115-resize-original.jpg,125,4.702,0.0,2291,124,feet,jsons/VE125_randls_71.json,589598,688037,42,Woman
135,912877,DepthScenes,duration_manipulation_targetAtFixation,jsons/VE125_randls_71.json,http://54.235.29.9/FacialAge/BNav_EC2/DepthDuration/v2_depth_duration_MTurk/v2_DepthDuration_HTML.html#352,352,1242,698,1366,768,8-29-2022,9-39-31,136,depth_duration_stimuli/001806_2014-06-26_20-50-20_260595134347_rgbf000091-resize_1/001806_2014-06-26_20-50-20_260595134347_rgbf000091-resize_1-target.png,125,2.7305,5.0,3067,126,feet,jsons/VE125_randls_71.json,589598,688037,42,Woman
136,912877,DepthScenes,duration_manipulation_targetAtFixation,jsons/VE125_randls_71.json,http://54.235.29.9/FacialAge/BNav_EC2/DepthDuration/v2_depth_duration_MTurk/v2_DepthDuration_HTML.html#352,352,1242,698,1366,768,8-29-2022,9-39-31,137,depth_duration_stimuli/001617_2014-06-20_11-35-32_260595134347_rgbf000066-resize_1/001617_2014-06-20_11-35-32_260595134347_rgbf000066-resize_1-target.png,125,3.7910000000000004,11.0,2194,123,feet,jsons/VE125_randls_71.json,589598,688037,42,Woman
137,912877,DepthScenes,duration_manipulation_targetAtFixation,jsons/VE125_randls_71.json,http://54.235.29.9/FacialAge/BNav_EC2/DepthDuration/v2_depth_duration_MTurk/v2_DepthDuration_HTML.html#352,352,1242,698,1366,768,8-29-2022,9-39-31,138,depth_duration_stimuli/002788_2014-06-22_19-36-03_094959634447_rgbf000088-resize_2/002788_2014-06-22_19-36-03_094959634447_rgbf000088-resize_2-target.png,125,1.6465,2.0,2323,124,feet,jsons/VE125_randls_71.json,589598,688037,42,Woman
138,912877,DepthScenes,duration_manipulation_targetAtFixation,jsons/VE125_randls_71.json,http://54.235.29.9/FacialAge/BNav_EC2/DepthDuration/v2_depth_duration_MTurk/v2_DepthDuration_HTML.html#352,352,1242,698,1366,768,8-29-2022,9-39-31,139,depth_duration_stimuli/000749_2014-06-08_21-55-06_260595134347_rgbf000070-resize_2/000749_2014-06-08_21-55-06_260595134347_rgbf000070-resize_2-target.png,125,2.331,6.0,2074,123,feet,jsons/VE125_randls_71.json,589598,688037,42,Woman
139,912877,DepthScenes,duration_manipulation_targetAtFixation,jsons/VE125_randls_71.json,http://54.235.29.9/FacialAge/BNav_EC2/DepthDuration/v2_depth_duration_MTurk/v2_DepthDuration_HTML.html#352,352,1242,698,1366,768,8-29-2022,9-39-31,140,depth_duration_stimuli/002663_2014-06-13_15-50-26_094959634447_rgbf000075-resize_1/002663_2014-06-13_15-50-26_094959634447_rgbf000075-resize_1-target.png,125,4.7495,6.0,3315,126,feet,jsons/VE125_randls_71.json,589598,688037,42,Woman
140,912877,DepthScenes,duration_manipulation_targetAtFixation,jsons/VE125_randls_71.json,http://54.235.29.9/FacialAge/BNav_EC2/DepthDuration/v2_depth_duration_MTurk/v2_DepthDuration_HTML.html#352,352,1242,698,1366,768,8-29-2022,9-39-31,141,depth_duration_stimuli/000409_2014-06-04_19-23-33_260595134347_rgbf000067-resize_0/000409_2014-06-04_19-23-33_260595134347_rgbf000067-resize_0-target.png,125,3.7335,5.0,2650,124,feet,jsons/VE125_randls_71.json,589598,688037,42,Woman
141,912877,DepthScenes,duration_manipulation_targetAtFixation,jsons/VE125_randls_71.json,http://54.235.29.9/FacialAge/BNav_EC2/DepthDuration/v2_depth_duration_MTurk/v2_DepthDuration_HTML.html#352,352,1242,698,1366,768,8-29-2022,9-39-31,142,depth_duration_stimuli/000692_2014-06-08_13-09-42_260595134347_rgbf000199-resize_2/000692_2014-06-08_13-09-42_260595134347_rgbf000199-resize_2-target.png,125,3.661,5.0,2498,124,feet,jsons/VE125_randls_71.json,589598,688037,42,Woman
142,912877,DepthScenes,duration_manipulation_targetAtFixation,jsons/VE125_randls_71.json,http://54.235.29.9/FacialAge/BNav_EC2/DepthDuration/v2_depth_duration_MTurk/v2_DepthDuration_HTML.html#352,352,1242,698,1366,768,8-29-2022,9-39-31,143,depth_duration_stimuli/001094_2014-06-15_17-36-00_260595134347_rgbf000205-resize_0/001094_2014-06-15_17-36-00_260595134347_rgbf000205-resize_0-target.png,125,4.2175,7.0,2379,124,feet,jsons/VE125_randls_71.json,589598,688037,42,Woman
143,912877,DepthScenes,duration_manipulation_targetAtFixation,jsons/VE125_randls_71.json,http://54.235.29.9/FacialAge/BNav_EC2/DepthDuration/v2_depth_duration_MTurk/v2_DepthDuration_HTML.html#352,352,1242,698,1366,768,8-29-2022,9-39-31,144,depth_duration_stimuli/002905_2014-06-03_18-04-43_094959634447_rgbf000151-resize_2/002905_2014-06-03_18-04-43_094959634447_rgbf000151-resize_2-target.png,125,2.0295,6.0,2601,122,feet,jsons/VE125_randls_71.json,589598,688037,42,Woman
144,912877,DepthScenes,duration_manipulation_targetAtFixation,jsons/VE125_randls_71.json,http://54.235.29.9/FacialAge/BNav_EC2/DepthDuration/v2_depth_duration_MTurk/v2_DepthDuration_HTML.html#352,352,1242,698,1366,768,8-29-2022,9-39-31,145,depth_duration_stimuli/003423_2014-05-21_10-23-26_094959634447_rgbf002665-resize_2/003423_2014-05-21_10-23-26_094959634447_rgbf002665-resize_2-target.png,125,3.2575,5.0,2794,124,feet,jsons/VE125_randls_71.json,589598,688037,42,Woman
145,912877,DepthScenes,duration_manipulation_targetAtFixation,jsons/VE125_randls_71.json,http://54.235.29.9/FacialAge/BNav_EC2/DepthDuration/v2_depth_duration_MTurk/v2_DepthDuration_HTML.html#352,352,1242,698,1366,768,8-29-2022,9-39-31,146,depth_duration_stimuli/001498_2014-06-19_17-45-14_260595134347_rgbf000129-resize_4/001498_2014-06-19_17-45-14_260595134347_rgbf000129-resize-original.jpg,125,1.4075,0.0,3075,124,feet,jsons/VE125_randls_71.json,589598,688037,42,Woman
146,912877,DepthScenes,duration_manipulation_targetAtFixation,jsons/VE125_randls_71.json,http://54.235.29.9/FacialAge/BNav_EC2/DepthDuration/v2_depth_duration_MTurk/v2_DepthDuration_HTML.html#352,352,1242,698,1366,768,8-29-2022,9-39-31,147,depth_duration_stimuli/001808_2014-06-26_20-50-58_260595134347_rgbf000029-resize_1/001808_2014-06-26_20-50-58_260595134347_rgbf000029-resize_1-target.png,125,4.249,13.0,5369,124,feet,jsons/VE125_randls_71.json,589598,688037,42,Woman
147,912877,DepthScenes,duration_manipulation_targetAtFixation,jsons/VE125_randls_71.json,http://54.235.29.9/FacialAge/BNav_EC2/DepthDuration/v2_depth_duration_MTurk/v2_DepthDuration_HTML.html#352,352,1242,698,1366,768,8-29-2022,9-39-31,148,depth_duration_stimuli/001815_2014-06-26_20-52-55_260595134347_rgbf000020-resize_0/001815_2014-06-26_20-52-55_260595134347_rgbf000020-resize_0-target.png,125,3.3865,9.0,2347,124,feet,jsons/VE125_randls_71.json,589598,688037,42,Woman
148,912877,DepthScenes,duration_manipulation_targetAtFixation,jsons/VE125_randls_71.json,http://54.235.29.9/FacialAge/BNav_EC2/DepthDuration/v2_depth_duration_MTurk/v2_DepthDuration_HTML.html#352,352,1242,698,1366,768,8-29-2022,9-39-31,149,depth_duration_stimuli/002057_2014-06-24_21-00-13_260595134347_rgbf000120-resize_1/002057_2014-06-24_21-00-13_260595134347_rgbf000120-resize_1-target.png,125,2.967,8.0,1977,123,feet,jsons/VE125_randls_71.json,589598,688037,42,Woman
149,912877,DepthScenes,duration_manipulation_targetAtFixation,jsons/VE125_randls_71.json,http://54.235.29.9/FacialAge/BNav_EC2/DepthDuration/v2_depth_duration_MTurk/v2_DepthDuration_HTML.html#352,352,1242,698,1366,768,8-29-2022,9-39-31,150,depth_duration_stimuli/000709_2014-06-08_13-51-55_260595134347_rgbf000068-resize_3/000709_2014-06-08_13-51-55_260595134347_rgbf000068-resize_3-target.png,125,1.8030000000000002,7.0,2610,123,feet,jsons/VE125_randls_71.json,589598,688037,42,Woman
150,912877,DepthScenes,duration_manipulation_targetAtFixation,jsons/VE125_randls_71.json,http://54.235.29.9/FacialAge/BNav_EC2/DepthDuration/v2_depth_duration_MTurk/v2_DepthDuration_HTML.html#352,352,1242,698,1366,768,8-29-2022,9-39-31,151,depth_duration_stimuli/002725_2014-06-22_11-47-51_094959634447_rgbf000070-resize_1/002725_2014-06-22_11-47-51_094959634447_rgbf000070-resize_1-target.png,125,2.195,9.0,2275,125,feet,jsons/VE125_randls_71.json,589598,688037,42,Woman
151,912877,DepthScenes,duration_manipulation_targetAtFixation,jsons/VE125_randls_71.json,http://54.235.29.9/FacialAge/BNav_EC2/DepthDuration/v2_depth_duration_MTurk/v2_DepthDuration_HTML.html#352,352,1242,698,1366,768,8-29-2022,9-39-31,152,depth_duration_stimuli/002344_2014-06-28_20-06-29_260595134347_rgbf000030-resize_1/002344_2014-06-28_20-06-29_260595134347_rgbf000030-resize_1-target.png,125,1.5795,5.0,2058,124,feet,jsons/VE125_randls_71.json,589598,688037,42,Woman
152,912877,DepthScenes,duration_manipulation_targetAtFixation,jsons/VE125_randls_71.json,http://54.235.29.9/FacialAge/BNav_EC2/DepthDuration/v2_depth_duration_MTurk/v2_DepthDuration_HTML.html#352,352,1242,698,1366,768,8-29-2022,9-39-31,153,depth_duration_stimuli/002043_2014-06-24_20-29-38_260595134347_rgbf000039-resize_4/002043_2014-06-24_20-29-38_260595134347_rgbf000039-resize_4-target.png,125,2.8435,11.0,2235,125,feet,jsons/VE125_randls_71.json,589598,688037,42,Woman
153,912877,DepthScenes,duration_manipulation_targetAtFixation,jsons/VE125_randls_71.json,http://54.235.29.9/FacialAge/BNav_EC2/DepthDuration/v2_depth_duration_MTurk/v2_DepthDuration_HTML.html#352,352,1242,698,1366,768,8-29-2022,9-39-31,154,depth_duration_stimuli/003048_2014-06-15_13-49-43_094959634447_rgbf000150-resize_1/003048_2014-06-15_13-49-43_094959634447_rgbf000150-resize_1-target.png,125,4.0035,12.0,3514,126,feet,jsons/VE125_randls_71.json,589598,688037,42,Woman
154,912877,DepthScenes,duration_manipulation_targetAtFixation,jsons/VE125_randls_71.json,http://54.235.29.9/FacialAge/BNav_EC2/DepthDuration/v2_depth_duration_MTurk/v2_DepthDuration_HTML.html#352,352,1242,698,1366,768,8-29-2022,9-39-31,155,depth_duration_stimuli/002445_2014-06-28_20-32-16_260595134347_rgbf000029-resize_4/002445_2014-06-28_20-32-16_260595134347_rgbf000029-resize_4-target.png,125,2.5315,5.0,2051,125,feet,jsons/VE125_randls_71.json,589598,688037,42,Woman
155,912877,DepthScenes,duration_manipulation_targetAtFixation,jsons/VE125_randls_71.json,http://54.235.29.9/FacialAge/BNav_EC2/DepthDuration/v2_depth_duration_MTurk/v2_DepthDuration_HTML.html#352,352,1242,698,1366,768,8-29-2022,9-39-31,156,depth_duration_stimuli/000780_2014-06-08_22-28-29_260595134347_rgbf000126-resize_1/000780_2014-06-08_22-28-29_260595134347_rgbf000126-resize_1-target.png,125,3.3825,9.0,2362,125,feet,jsons/VE125_randls_71.json,589598,688037,42,Woman
156,912877,DepthScenes,duration_manipulation_targetAtFixation,jsons/VE125_randls_71.json,http://54.235.29.9/FacialAge/BNav_EC2/DepthDuration/v2_depth_duration_MTurk/v2_DepthDuration_HTML.html#352,352,1242,698,1366,768,8-29-2022,9-39-31,157,depth_duration_stimuli/001029_2014-06-08_13-17-57_260595134347_rgbf000065-resize_1/001029_2014-06-08_13-17-57_260595134347_rgbf000065-resize_1-target.png,125,3.0835,14.0,5210,124,feet,jsons/VE125_randls_71.json,589598,688037,42,Woman
157,912877,DepthScenes,duration_manipulation_targetAtFixation,jsons/VE125_randls_71.json,http://54.235.29.9/FacialAge/BNav_EC2/DepthDuration/v2_depth_duration_MTurk/v2_DepthDuration_HTML.html#352,352,1242,698,1366,768,8-29-2022,9-39-31,158,depth_duration_stimuli/000677_2014-06-08_23-10-32_260595134347_rgbf000158-resize_6/000677_2014-06-08_23-10-32_260595134347_rgbf000158-resize_6-target.png,125,3.556,9.0,2451,124,feet,jsons/VE125_randls_71.json,589598,688037,42,Woman
158,912877,DepthScenes,duration_manipulation_targetAtFixation,jsons/VE125_randls_71.json,http://54.235.29.9/FacialAge/BNav_EC2/DepthDuration/v2_depth_duration_MTurk/v2_DepthDuration_HTML.html#352,352,1242,698,1366,768,8-29-2022,9-39-31,159,depth_duration_stimuli/002988_2014-06-15_12-24-20_094959634447_rgbf000150-resize_1/002988_2014-06-15_12-24-20_094959634447_rgbf000150-resize_1-target.png,125,4.7669999999999995,9.0,2243,125,feet,jsons/VE125_randls_71.json,589598,688037,42,Woman
159,912877,DepthScenes,duration_manipulation_targetAtFixation,jsons/VE125_randls_71.json,http://54.235.29.9/FacialAge/BNav_EC2/DepthDuration/v2_depth_duration_MTurk/v2_DepthDuration_HTML.html#352,352,1242,698,1366,768,8-29-2022,9-39-31,160,depth_duration_stimuli/001052_2014-06-08_18-24-54_260595134347_rgbf000130-resize_1/001052_2014-06-08_18-24-54_260595134347_rgbf000130-resize_1-target.png,125,4.1045,6.0,2073,124,feet,jsons/VE125_randls_71.json,589598,688037,42,Woman
160,912877,DepthScenes,duration_manipulation_targetAtFixation,jsons/VE125_randls_71.json,http://54.235.29.9/FacialAge/BNav_EC2/DepthDuration/v2_depth_duration_MTurk/v2_DepthDuration_HTML.html#352,352,1242,698,1366,768,8-29-2022,9-39-31,161,depth_duration_stimuli/000906_2014-06-08_13-35-43_260595134347_rgbf000155-resize_1/000906_2014-06-08_13-35-43_260595134347_rgbf000155-resize_1-target.png,125,2.8489999999999998,5.0,2098,126,feet,jsons/VE125_randls_71.json,589598,688037,42,Woman
161,912877,DepthScenes,duration_manipulation_targetAtFixation,jsons/VE125_randls_71.json,http://54.235.29.9/FacialAge/BNav_EC2/DepthDuration/v2_depth_duration_MTurk/v2_DepthDuration_HTML.html#352,352,1242,698,1366,768,8-29-2022,9-39-31,162,depth_duration_stimuli/002805_2014-06-22_19-54-03_094959634447_rgbf000079-resize_1/002805_2014-06-22_19-54-03_094959634447_rgbf000079-resize_1-target.png,125,3.1439999999999997,3.0,2107,126,feet,jsons/VE125_randls_71.json,589598,688037,42,Woman
162,912877,DepthScenes,duration_manipulation_targetAtFixation,jsons/VE125_randls_71.json,http://54.235.29.9/FacialAge/BNav_EC2/DepthDuration/v2_depth_duration_MTurk/v2_DepthDuration_HTML.html#352,352,1242,698,1366,768,8-29-2022,9-39-31,163,depth_duration_stimuli/002600_2014-06-24_14-27-04_094959634447_rgbf000074-resize_2/002600_2014-06-24_14-27-04_094959634447_rgbf000074-resize_2-target.png,125,2.7575,5.0,2098,125,feet,jsons/VE125_randls_71.json,589598,688037,42,Woman
163,912877,DepthScenes,duration_manipulation_targetAtFixation,jsons/VE125_randls_71.json,http://54.235.29.9/FacialAge/BNav_EC2/DepthDuration/v2_depth_duration_MTurk/v2_DepthDuration_HTML.html#352,352,1242,698,1366,768,8-29-2022,9-39-31,164,depth_duration_stimuli/003228_2014-05-14_13-42-35_094959634447_rgbf000101-resize_1/003228_2014-05-14_13-42-35_094959634447_rgbf000101-resize_1-target.png,125,1.9680000000000002,6.0,2091,125,feet,jsons/VE125_randls_71.json,589598,688037,42,Woman
