,subjID,experimentName,versionName,sequenceName,url,selected_row,windowWidth,windowHeight,screenWidth,screenHeight,startDate,startTime,trial,stimulus,duration,actual_depth,depth_estimate,trial_RT,log_sceneDuration,unitSelection,seq_filepath,experimentTime,totalTime,age,gender
0,915937,DepthScenes,duration_manipulation_targetAtFixation,jsons/v1_VE1000_randls_20.json,http://54.235.29.9/FacialAge/BNav_EC2/DepthDuration/v2_depth_duration_MTurk/v2_DepthDuration_HTML.html#85,85,1881,888,1920,1080,9-18-2022,13-37-46,1,depth_duration_stimuli/001164_2014-06-17_15-35-46_260595134347_rgbf000085-resize_3/001164_2014-06-17_15-35-46_260595134347_rgbf000085-resize_3-target.png,1000,2.354,3,4123,1003,feet,jsons/v1_VE1000_randls_20.json,606250,719204,35,Woman
1,915937,DepthScenes,duration_manipulation_targetAtFixation,jsons/v1_VE1000_randls_20.json,http://54.235.29.9/FacialAge/BNav_EC2/DepthDuration/v2_depth_duration_MTurk/v2_DepthDuration_HTML.html#85,85,1881,888,1920,1080,9-18-2022,13-37-46,2,depth_duration_stimuli/001136_2014-06-17_15-19-41_260595134347_rgbf000076-resize_3/001136_2014-06-17_15-19-41_260595134347_rgbf000076-resize_3-target.png,1000,1.8655,2,3385,997,feet,jsons/v1_VE1000_randls_20.json,606250,719204,35,Woman
2,915937,DepthScenes,duration_manipulation_targetAtFixation,jsons/v1_VE1000_randls_20.json,http://54.235.29.9/FacialAge/BNav_EC2/DepthDuration/v2_depth_duration_MTurk/v2_DepthDuration_HTML.html#85,85,1881,888,1920,1080,9-18-2022,13-37-46,3,depth_duration_stimuli/002043_2014-06-24_20-29-38_260595134347_rgbf000039-resize_4/002043_2014-06-24_20-29-38_260595134347_rgbf000039-resize_4-target.png,1000,2.8435,6,3836,1004,feet,jsons/v1_VE1000_randls_20.json,606250,719204,35,Woman
3,915937,DepthScenes,duration_manipulation_targetAtFixation,jsons/v1_VE1000_randls_20.json,http://54.235.29.9/FacialAge/BNav_EC2/DepthDuration/v2_depth_duration_MTurk/v2_DepthDuration_HTML.html#85,85,1881,888,1920,1080,9-18-2022,13-37-46,4,depth_duration_stimuli/003048_2014-06-15_13-49-43_094959634447_rgbf000150-resize_1/003048_2014-06-15_13-49-43_094959634447_rgbf000150-resize_1-target.png,1000,4.0035,8,3616,993,feet,jsons/v1_VE1000_randls_20.json,606250,719204,35,Woman
4,915937,DepthScenes,duration_manipulation_targetAtFixation,jsons/v1_VE1000_randls_20.json,http://54.235.29.9/FacialAge/BNav_EC2/DepthDuration/v2_depth_duration_MTurk/v2_DepthDuration_HTML.html#85,85,1881,888,1920,1080,9-18-2022,13-37-46,5,depth_duration_stimuli/002630_2014-06-24_14-47-50_094959634447_rgbf000055-resize_1/002630_2014-06-24_14-47-50_094959634447_rgbf000055-resize_1-target.png,1000,3.0095,10,4706,1013,feet,jsons/v1_VE1000_randls_20.json,606250,719204,35,Woman
5,915937,DepthScenes,duration_manipulation_targetAtFixation,jsons/v1_VE1000_randls_20.json,http://54.235.29.9/FacialAge/BNav_EC2/DepthDuration/v2_depth_duration_MTurk/v2_DepthDuration_HTML.html#85,85,1881,888,1920,1080,9-18-2022,13-37-46,6,depth_duration_stimuli/002758_2014-06-22_19-11-20_094959634447_rgbf000128-resize_1/002758_2014-06-22_19-11-20_094959634447_rgbf000128-resize_1-target.png,1000,2.555,4,2981,1000,feet,jsons/v1_VE1000_randls_20.json,606250,719204,35,Woman
6,915937,DepthScenes,duration_manipulation_targetAtFixation,jsons/v1_VE1000_randls_20.json,http://54.235.29.9/FacialAge/BNav_EC2/DepthDuration/v2_depth_duration_MTurk/v2_DepthDuration_HTML.html#85,85,1881,888,1920,1080,9-18-2022,13-37-46,7,depth_duration_stimuli/000522_2014-06-08_13-35-06_260595134347_rgbf000244-resize_1/000522_2014-06-08_13-35-06_260595134347_rgbf000244-resize_1-target.png,1000,2.3715,2,2901,998,feet,jsons/v1_VE1000_randls_20.json,606250,719204,35,Woman
7,915937,DepthScenes,duration_manipulation_targetAtFixation,jsons/v1_VE1000_randls_20.json,http://54.235.29.9/FacialAge/BNav_EC2/DepthDuration/v2_depth_duration_MTurk/v2_DepthDuration_HTML.html#85,85,1881,888,1920,1080,9-18-2022,13-37-46,8,depth_duration_stimuli/002949_2014-06-26_15-57-42_094959634447_rgbf000079-resize_1/002949_2014-06-26_15-57-42_094959634447_rgbf000079-resize_1-target.png,1000,1.8915,3,3584,989,feet,jsons/v1_VE1000_randls_20.json,606250,719204,35,Woman
8,915937,DepthScenes,duration_manipulation_targetAtFixation,jsons/v1_VE1000_randls_20.json,http://54.235.29.9/FacialAge/BNav_EC2/DepthDuration/v2_depth_duration_MTurk/v2_DepthDuration_HTML.html#85,85,1881,888,1920,1080,9-18-2022,13-37-46,9,depth_duration_stimuli/001167_2014-06-17_15-38-07_260595134347_rgbf000108-resize_0/001167_2014-06-17_15-38-07_260595134347_rgbf000108-resize_0-target.png,1000,1.8505,2,2761,1009,feet,jsons/v1_VE1000_randls_20.json,606250,719204,35,Woman
9,915937,DepthScenes,duration_manipulation_targetAtFixation,jsons/v1_VE1000_randls_20.json,http://54.235.29.9/FacialAge/BNav_EC2/DepthDuration/v2_depth_duration_MTurk/v2_DepthDuration_HTML.html#85,85,1881,888,1920,1080,9-18-2022,13-37-46,10,depth_duration_stimuli/003587_2014-05-23_16-48-02_094959634447_rgbf002384-resize_2/003587_2014-05-23_16-48-02_094959634447_rgbf002384-resize_2-target.png,1000,1.357,1,2688,1009,feet,jsons/v1_VE1000_randls_20.json,606250,719204,35,Woman
10,915937,DepthScenes,duration_manipulation_targetAtFixation,jsons/v1_VE1000_randls_20.json,http://54.235.29.9/FacialAge/BNav_EC2/DepthDuration/v2_depth_duration_MTurk/v2_DepthDuration_HTML.html#85,85,1881,888,1920,1080,9-18-2022,13-37-46,11,depth_duration_stimuli/002784_2014-06-22_19-26-30_094959634447_rgbf000083-resize_3/002784_2014-06-22_19-26-30_094959634447_rgbf000083-resize_3-target.png,1000,1.8046666666667,2,2736,996,feet,jsons/v1_VE1000_randls_20.json,606250,719204,35,Woman
11,915937,DepthScenes,duration_manipulation_targetAtFixation,jsons/v1_VE1000_randls_20.json,http://54.235.29.9/FacialAge/BNav_EC2/DepthDuration/v2_depth_duration_MTurk/v2_DepthDuration_HTML.html#85,85,1881,888,1920,1080,9-18-2022,13-37-46,12,depth_duration_stimuli/001100_2014-06-15_17-46-26_260595134347_rgbf000225-resize_2/001100_2014-06-15_17-46-26_260595134347_rgbf000225-resize_2-target.png,1000,2.24,2,2602,1004,feet,jsons/v1_VE1000_randls_20.json,606250,719204,35,Woman
12,915937,DepthScenes,duration_manipulation_targetAtFixation,jsons/v1_VE1000_randls_20.json,http://54.235.29.9/FacialAge/BNav_EC2/DepthDuration/v2_depth_duration_MTurk/v2_DepthDuration_HTML.html#85,85,1881,888,1920,1080,9-18-2022,13-37-46,13,depth_duration_stimuli/000569_2014-06-09_22-51-47_260595134347_rgbf000141-resize_3/000569_2014-06-09_22-51-47_260595134347_rgbf000141-resize-original.jpg,1000,4.512,0,3538,998,feet,jsons/v1_VE1000_randls_20.json,606250,719204,35,Woman
13,915937,DepthScenes,duration_manipulation_targetAtFixation,jsons/v1_VE1000_randls_20.json,http://54.235.29.9/FacialAge/BNav_EC2/DepthDuration/v2_depth_duration_MTurk/v2_DepthDuration_HTML.html#85,85,1881,888,1920,1080,9-18-2022,13-37-46,14,depth_duration_stimuli/002118_2014-06-25_20-32-08_260595134347_rgbf000078-resize_1/002118_2014-06-25_20-32-08_260595134347_rgbf000078-resize_1-target.png,1000,2.6460000000000004,4,3340,1002,feet,jsons/v1_VE1000_randls_20.json,606250,719204,35,Woman
14,915937,DepthScenes,duration_manipulation_targetAtFixation,jsons/v1_VE1000_randls_20.json,http://54.235.29.9/FacialAge/BNav_EC2/DepthDuration/v2_depth_duration_MTurk/v2_DepthDuration_HTML.html#85,85,1881,888,1920,1080,9-18-2022,13-37-46,15,depth_duration_stimuli/001516_2014-06-20_16-25-09_260595134347_rgbf000076-resize_2/001516_2014-06-20_16-25-09_260595134347_rgbf000076-resize_2-target.png,1000,1.7445,3,2679,1006,feet,jsons/v1_VE1000_randls_20.json,606250,719204,35,Woman
15,915937,DepthScenes,duration_manipulation_targetAtFixation,jsons/v1_VE1000_randls_20.json,http://54.235.29.9/FacialAge/BNav_EC2/DepthDuration/v2_depth_duration_MTurk/v2_DepthDuration_HTML.html#85,85,1881,888,1920,1080,9-18-2022,13-37-46,16,depth_duration_stimuli/001199_2014-06-17_16-03-48_260595134347_rgbf000077-resize_0/001199_2014-06-17_16-03-48_260595134347_rgbf000077-resize_0-target.png,1000,3.4375,10,4034,1003,feet,jsons/v1_VE1000_randls_20.json,606250,719204,35,Woman
16,915937,DepthScenes,duration_manipulation_targetAtFixation,jsons/v1_VE1000_randls_20.json,http://54.235.29.9/FacialAge/BNav_EC2/DepthDuration/v2_depth_duration_MTurk/v2_DepthDuration_HTML.html#85,85,1881,888,1920,1080,9-18-2022,13-37-46,17,depth_duration_stimuli/000502_2014-06-08_23-02-32_260595134347_rgbf000063-resize_4/000502_2014-06-08_23-02-32_260595134347_rgbf000063-resize_4-target.png,1000,2.431,5,3507,1009,feet,jsons/v1_VE1000_randls_20.json,606250,719204,35,Woman
17,915937,DepthScenes,duration_manipulation_targetAtFixation,jsons/v1_VE1000_randls_20.json,http://54.235.29.9/FacialAge/BNav_EC2/DepthDuration/v2_depth_duration_MTurk/v2_DepthDuration_HTML.html#85,85,1881,888,1920,1080,9-18-2022,13-37-46,18,depth_duration_stimuli/001059_2014-06-08_21-53-27_260595134347_rgbf000061-resize_4/001059_2014-06-08_21-53-27_260595134347_rgbf000061-resize_4-target.png,1000,2.4185,5,3499,1005,feet,jsons/v1_VE1000_randls_20.json,606250,719204,35,Woman
18,915937,DepthScenes,duration_manipulation_targetAtFixation,jsons/v1_VE1000_randls_20.json,http://54.235.29.9/FacialAge/BNav_EC2/DepthDuration/v2_depth_duration_MTurk/v2_DepthDuration_HTML.html#85,85,1881,888,1920,1080,9-18-2022,13-37-46,19,depth_duration_stimuli/001032_2014-06-08_13-23-17_260595134347_rgbf000021-resize_3/001032_2014-06-08_13-23-17_260595134347_rgbf000021-resize_3-target.png,1000,3.2725,5,3341,994,feet,jsons/v1_VE1000_randls_20.json,606250,719204,35,Woman
19,915937,DepthScenes,duration_manipulation_targetAtFixation,jsons/v1_VE1000_randls_20.json,http://54.235.29.9/FacialAge/BNav_EC2/DepthDuration/v2_depth_duration_MTurk/v2_DepthDuration_HTML.html#85,85,1881,888,1920,1080,9-18-2022,13-37-46,20,depth_duration_stimuli/001056_2014-06-08_18-46-44_260595134347_rgbf000068-resize_0/001056_2014-06-08_18-46-44_260595134347_rgbf000068-resize_0-target.png,1000,2.6625,7,3245,995,feet,jsons/v1_VE1000_randls_20.json,606250,719204,35,Woman
20,915937,DepthScenes,duration_manipulation_targetAtFixation,jsons/v1_VE1000_randls_20.json,http://54.235.29.9/FacialAge/BNav_EC2/DepthDuration/v2_depth_duration_MTurk/v2_DepthDuration_HTML.html#85,85,1881,888,1920,1080,9-18-2022,13-37-46,21,depth_duration_stimuli/002199_2014-06-28_18-33-56_260595134347_rgbf000074-resize_0/002199_2014-06-28_18-33-56_260595134347_rgbf000074-resize_0-target.png,1000,1.996,1,3059,1010,feet,jsons/v1_VE1000_randls_20.json,606250,719204,35,Woman
21,915937,DepthScenes,duration_manipulation_targetAtFixation,jsons/v1_VE1000_randls_20.json,http://54.235.29.9/FacialAge/BNav_EC2/DepthDuration/v2_depth_duration_MTurk/v2_DepthDuration_HTML.html#85,85,1881,888,1920,1080,9-18-2022,13-37-46,22,depth_duration_stimuli/001092_2014-06-15_17-34-58_260595134347_rgbf000171-resize_3/001092_2014-06-15_17-34-58_260595134347_rgbf000171-resize_3-target.png,1000,2.6935,3,3216,993,feet,jsons/v1_VE1000_randls_20.json,606250,719204,35,Woman
22,915937,DepthScenes,duration_manipulation_targetAtFixation,jsons/v1_VE1000_randls_20.json,http://54.235.29.9/FacialAge/BNav_EC2/DepthDuration/v2_depth_duration_MTurk/v2_DepthDuration_HTML.html#85,85,1881,888,1920,1080,9-18-2022,13-37-46,23,depth_duration_stimuli/002545_2014-06-24_13-38-53_094959634447_rgbf000080-resize_4/002545_2014-06-24_13-38-53_094959634447_rgbf000080-resize_4-target.png,1000,1.9205,5,2997,997,feet,jsons/v1_VE1000_randls_20.json,606250,719204,35,Woman
23,915937,DepthScenes,duration_manipulation_targetAtFixation,jsons/v1_VE1000_randls_20.json,http://54.235.29.9/FacialAge/BNav_EC2/DepthDuration/v2_depth_duration_MTurk/v2_DepthDuration_HTML.html#85,85,1881,888,1920,1080,9-18-2022,13-37-46,24,depth_duration_stimuli/001055_2014-06-08_18-45-35_260595134347_rgbf000111-resize_4/001055_2014-06-08_18-45-35_260595134347_rgbf000111-resize_4-target.png,1000,2.4290000000000003,3,3564,1008,feet,jsons/v1_VE1000_randls_20.json,606250,719204,35,Woman
24,915937,DepthScenes,duration_manipulation_targetAtFixation,jsons/v1_VE1000_randls_20.json,http://54.235.29.9/FacialAge/BNav_EC2/DepthDuration/v2_depth_duration_MTurk/v2_DepthDuration_HTML.html#85,85,1881,888,1920,1080,9-18-2022,13-37-46,25,depth_duration_stimuli/000549_2014-06-08_22-10-24_260595134347_rgbf000247-resize_3/000549_2014-06-08_22-10-24_260595134347_rgbf000247-resize_3-target.png,1000,1.841,2,2601,994,feet,jsons/v1_VE1000_randls_20.json,606250,719204,35,Woman
25,915937,DepthScenes,duration_manipulation_targetAtFixation,jsons/v1_VE1000_randls_20.json,http://54.235.29.9/FacialAge/BNav_EC2/DepthDuration/v2_depth_duration_MTurk/v2_DepthDuration_HTML.html#85,85,1881,888,1920,1080,9-18-2022,13-37-46,26,depth_duration_stimuli/000692_2014-06-08_13-09-42_260595134347_rgbf000199-resize_2/000692_2014-06-08_13-09-42_260595134347_rgbf000199-resize_2-target.png,1000,3.661,7,3684,1001,feet,jsons/v1_VE1000_randls_20.json,606250,719204,35,Woman
26,915937,DepthScenes,duration_manipulation_targetAtFixation,jsons/v1_VE1000_randls_20.json,http://54.235.29.9/FacialAge/BNav_EC2/DepthDuration/v2_depth_duration_MTurk/v2_DepthDuration_HTML.html#85,85,1881,888,1920,1080,9-18-2022,13-37-46,27,depth_duration_stimuli/001094_2014-06-15_17-36-00_260595134347_rgbf000205-resize_0/001094_2014-06-15_17-36-00_260595134347_rgbf000205-resize_0-target.png,1000,4.2175,8,3596,1007,feet,jsons/v1_VE1000_randls_20.json,606250,719204,35,Woman
27,915937,DepthScenes,duration_manipulation_targetAtFixation,jsons/v1_VE1000_randls_20.json,http://54.235.29.9/FacialAge/BNav_EC2/DepthDuration/v2_depth_duration_MTurk/v2_DepthDuration_HTML.html#85,85,1881,888,1920,1080,9-18-2022,13-37-46,28,depth_duration_stimuli/000506_2014-06-08_23-21-00_260595134347_rgbf000070-resize_7/000506_2014-06-08_23-21-00_260595134347_rgbf000070-resize_7-target.png,1000,4.0585,6,3799,1004,feet,jsons/v1_VE1000_randls_20.json,606250,719204,35,Woman
28,915937,DepthScenes,duration_manipulation_targetAtFixation,jsons/v1_VE1000_randls_20.json,http://54.235.29.9/FacialAge/BNav_EC2/DepthDuration/v2_depth_duration_MTurk/v2_DepthDuration_HTML.html#85,85,1881,888,1920,1080,9-18-2022,13-37-46,29,depth_duration_stimuli/003079_2014-06-15_15-18-20_094959634447_rgbf000152-resize_8/003079_2014-06-15_15-18-20_094959634447_rgbf000152-resize_8-target.png,1000,2.8775,5,4135,995,feet,jsons/v1_VE1000_randls_20.json,606250,719204,35,Woman
29,915937,DepthScenes,duration_manipulation_targetAtFixation,jsons/v1_VE1000_randls_20.json,http://54.235.29.9/FacialAge/BNav_EC2/DepthDuration/v2_depth_duration_MTurk/v2_DepthDuration_HTML.html#85,85,1881,888,1920,1080,9-18-2022,13-37-46,30,depth_duration_stimuli/000375_2014-06-08_11-17-29_260595134347_rgbf000133-resize_2/000375_2014-06-08_11-17-29_260595134347_rgbf000133-resize-original.jpg,1000,4.718,0,3361,999,feet,jsons/v1_VE1000_randls_20.json,606250,719204,35,Woman
30,915937,DepthScenes,duration_manipulation_targetAtFixation,jsons/v1_VE1000_randls_20.json,http://54.235.29.9/FacialAge/BNav_EC2/DepthDuration/v2_depth_duration_MTurk/v2_DepthDuration_HTML.html#85,85,1881,888,1920,1080,9-18-2022,13-37-46,31,depth_duration_stimuli/000469_2014-06-09_19-42-10_260595134347_rgbf000081-resize_1/000469_2014-06-09_19-42-10_260595134347_rgbf000081-resize_1-target.png,1000,1.652,3,3899,995,feet,jsons/v1_VE1000_randls_20.json,606250,719204,35,Woman
31,915937,DepthScenes,duration_manipulation_targetAtFixation,jsons/v1_VE1000_randls_20.json,http://54.235.29.9/FacialAge/BNav_EC2/DepthDuration/v2_depth_duration_MTurk/v2_DepthDuration_HTML.html#85,85,1881,888,1920,1080,9-18-2022,13-37-46,32,depth_duration_stimuli/000483_2014-06-09_20-41-45_260595134347_rgbf000116-resize_4/000483_2014-06-09_20-41-45_260595134347_rgbf000116-resize_4-target.png,1000,1.337,2,2788,996,feet,jsons/v1_VE1000_randls_20.json,606250,719204,35,Woman
32,915937,DepthScenes,duration_manipulation_targetAtFixation,jsons/v1_VE1000_randls_20.json,http://54.235.29.9/FacialAge/BNav_EC2/DepthDuration/v2_depth_duration_MTurk/v2_DepthDuration_HTML.html#85,85,1881,888,1920,1080,9-18-2022,13-37-46,33,depth_duration_stimuli/001810_2014-06-26_20-51-35_260595134347_rgbf000040-resize_3/001810_2014-06-26_20-51-35_260595134347_rgbf000040-resize_3-target.png,1000,2.2525,4,3238,1010,feet,jsons/v1_VE1000_randls_20.json,606250,719204,35,Woman
33,915937,DepthScenes,duration_manipulation_targetAtFixation,jsons/v1_VE1000_randls_20.json,http://54.235.29.9/FacialAge/BNav_EC2/DepthDuration/v2_depth_duration_MTurk/v2_DepthDuration_HTML.html#85,85,1881,888,1920,1080,9-18-2022,13-37-46,34,depth_duration_stimuli/003010_2014-06-15_12-54-35_094959634447_rgbf000112-resize_0/003010_2014-06-15_12-54-35_094959634447_rgbf000112-resize_0-target.png,1000,3.1185,8,3533,990,feet,jsons/v1_VE1000_randls_20.json,606250,719204,35,Woman
34,915937,DepthScenes,duration_manipulation_targetAtFixation,jsons/v1_VE1000_randls_20.json,http://54.235.29.9/FacialAge/BNav_EC2/DepthDuration/v2_depth_duration_MTurk/v2_DepthDuration_HTML.html#85,85,1881,888,1920,1080,9-18-2022,13-37-46,35,depth_duration_stimuli/000739_2014-06-08_18-45-58_260595134347_rgbf000068-resize_1/000739_2014-06-08_18-45-58_260595134347_rgbf000068-resize_1-target.png,1000,3.534,5,3072,998,feet,jsons/v1_VE1000_randls_20.json,606250,719204,35,Woman
35,915937,DepthScenes,duration_manipulation_targetAtFixation,jsons/v1_VE1000_randls_20.json,http://54.235.29.9/FacialAge/BNav_EC2/DepthDuration/v2_depth_duration_MTurk/v2_DepthDuration_HTML.html#85,85,1881,888,1920,1080,9-18-2022,13-37-46,36,depth_duration_stimuli/000734_2014-06-08_17-39-11_260595134347_rgbf000128-resize_2/000734_2014-06-08_17-39-11_260595134347_rgbf000128-resize_2-target.png,1000,4.098,4,2517,1007,feet,jsons/v1_VE1000_randls_20.json,606250,719204,35,Woman
36,915937,DepthScenes,duration_manipulation_targetAtFixation,jsons/v1_VE1000_randls_20.json,http://54.235.29.9/FacialAge/BNav_EC2/DepthDuration/v2_depth_duration_MTurk/v2_DepthDuration_HTML.html#85,85,1881,888,1920,1080,9-18-2022,13-37-46,37,depth_duration_stimuli/000736_2014-06-08_18-24-15_260595134347_rgbf000206-resize_3/000736_2014-06-08_18-24-15_260595134347_rgbf000206-resize_3-target.png,1000,3.515,7,3003,1006,feet,jsons/v1_VE1000_randls_20.json,606250,719204,35,Woman
37,915937,DepthScenes,duration_manipulation_targetAtFixation,jsons/v1_VE1000_randls_20.json,http://54.235.29.9/FacialAge/BNav_EC2/DepthDuration/v2_depth_duration_MTurk/v2_DepthDuration_HTML.html#85,85,1881,888,1920,1080,9-18-2022,13-37-46,38,depth_duration_stimuli/000137_2014-05-20_17-04-49_260595134347_rgbf000120-resize_1/000137_2014-05-20_17-04-49_260595134347_rgbf000120-resize_1-target.png,1000,3.786,6,2659,1000,feet,jsons/v1_VE1000_randls_20.json,606250,719204,35,Woman
38,915937,DepthScenes,duration_manipulation_targetAtFixation,jsons/v1_VE1000_randls_20.json,http://54.235.29.9/FacialAge/BNav_EC2/DepthDuration/v2_depth_duration_MTurk/v2_DepthDuration_HTML.html#85,85,1881,888,1920,1080,9-18-2022,13-37-46,39,depth_duration_stimuli/003534_2014-05-22_15-06-10_094959634447_rgbf000102-resize_4/003534_2014-05-22_15-06-10_094959634447_rgbf000102-resize_4-target.png,1000,1.426,2,2619,996,feet,jsons/v1_VE1000_randls_20.json,606250,719204,35,Woman
39,915937,DepthScenes,duration_manipulation_targetAtFixation,jsons/v1_VE1000_randls_20.json,http://54.235.29.9/FacialAge/BNav_EC2/DepthDuration/v2_depth_duration_MTurk/v2_DepthDuration_HTML.html#85,85,1881,888,1920,1080,9-18-2022,13-37-46,40,depth_duration_stimuli/002637_2014-06-24_14-51-13_094959634447_rgbf000066-resize_4/002637_2014-06-24_14-51-13_094959634447_rgbf000066-resize_4-target.png,1000,1.9955,4,2802,1006,feet,jsons/v1_VE1000_randls_20.json,606250,719204,35,Woman
40,915937,DepthScenes,duration_manipulation_targetAtFixation,jsons/v1_VE1000_randls_20.json,http://54.235.29.9/FacialAge/BNav_EC2/DepthDuration/v2_depth_duration_MTurk/v2_DepthDuration_HTML.html#85,85,1881,888,1920,1080,9-18-2022,13-37-46,41,depth_duration_stimuli/002375_2014-06-28_20-13-44_260595134347_rgbf000032-resize_1/002375_2014-06-28_20-13-44_260595134347_rgbf000032-resize_1-target.png,1000,4.0175,5,2505,990,feet,jsons/v1_VE1000_randls_20.json,606250,719204,35,Woman
41,915937,DepthScenes,duration_manipulation_targetAtFixation,jsons/v1_VE1000_randls_20.json,http://54.235.29.9/FacialAge/BNav_EC2/DepthDuration/v2_depth_duration_MTurk/v2_DepthDuration_HTML.html#85,85,1881,888,1920,1080,9-18-2022,13-37-46,42,depth_duration_stimuli/002657_2014-06-13_15-29-54_094959634447_rgbf000150-resize_1/002657_2014-06-13_15-29-54_094959634447_rgbf000150-resize_1-target.png,1000,4.919,8,2876,986,feet,jsons/v1_VE1000_randls_20.json,606250,719204,35,Woman
42,915937,DepthScenes,duration_manipulation_targetAtFixation,jsons/v1_VE1000_randls_20.json,http://54.235.29.9/FacialAge/BNav_EC2/DepthDuration/v2_depth_duration_MTurk/v2_DepthDuration_HTML.html#85,85,1881,888,1920,1080,9-18-2022,13-37-46,43,depth_duration_stimuli/001555_2014-06-20_17-12-10_260595134347_rgbf000065-resize_4/001555_2014-06-20_17-12-10_260595134347_rgbf000065-resize_4-target.png,1000,1.633,2,2573,997,feet,jsons/v1_VE1000_randls_20.json,606250,719204,35,Woman
43,915937,DepthScenes,duration_manipulation_targetAtFixation,jsons/v1_VE1000_randls_20.json,http://54.235.29.9/FacialAge/BNav_EC2/DepthDuration/v2_depth_duration_MTurk/v2_DepthDuration_HTML.html#85,85,1881,888,1920,1080,9-18-2022,13-37-46,44,depth_duration_stimuli/000103_2014-05-14_22-01-17_260595134347_rgbf000152-resize_5/000103_2014-05-14_22-01-17_260595134347_rgbf000152-resize_5-target.png,1000,1.993,4,3216,988,feet,jsons/v1_VE1000_randls_20.json,606250,719204,35,Woman
44,915937,DepthScenes,duration_manipulation_targetAtFixation,jsons/v1_VE1000_randls_20.json,http://54.235.29.9/FacialAge/BNav_EC2/DepthDuration/v2_depth_duration_MTurk/v2_DepthDuration_HTML.html#85,85,1881,888,1920,1080,9-18-2022,13-37-46,45,depth_duration_stimuli/000787_2014-06-08_22-33-53_260595134347_rgbf000175-resize_1/000787_2014-06-08_22-33-53_260595134347_rgbf000175-resize-original.jpg,1000,4.784,0,3449,1010,feet,jsons/v1_VE1000_randls_20.json,606250,719204,35,Woman
45,915937,DepthScenes,duration_manipulation_targetAtFixation,jsons/v1_VE1000_randls_20.json,http://54.235.29.9/FacialAge/BNav_EC2/DepthDuration/v2_depth_duration_MTurk/v2_DepthDuration_HTML.html#85,85,1881,888,1920,1080,9-18-2022,13-37-46,46,depth_duration_stimuli/002213_2014-06-28_18-37-58_260595134347_rgbf000055-resize_1/002213_2014-06-28_18-37-58_260595134347_rgbf000055-resize_1-target.png,1000,3.62,6,4056,990,feet,jsons/v1_VE1000_randls_20.json,606250,719204,35,Woman
46,915937,DepthScenes,duration_manipulation_targetAtFixation,jsons/v1_VE1000_randls_20.json,http://54.235.29.9/FacialAge/BNav_EC2/DepthDuration/v2_depth_duration_MTurk/v2_DepthDuration_HTML.html#85,85,1881,888,1920,1080,9-18-2022,13-37-46,47,depth_duration_stimuli/000691_2014-06-08_13-08-50_260595134347_rgbf000132-resize_3/000691_2014-06-08_13-08-50_260595134347_rgbf000132-resize_3-target.png,1000,4.1530000000000005,6,4046,995,feet,jsons/v1_VE1000_randls_20.json,606250,719204,35,Woman
47,915937,DepthScenes,duration_manipulation_targetAtFixation,jsons/v1_VE1000_randls_20.json,http://54.235.29.9/FacialAge/BNav_EC2/DepthDuration/v2_depth_duration_MTurk/v2_DepthDuration_HTML.html#85,85,1881,888,1920,1080,9-18-2022,13-37-46,48,depth_duration_stimuli/001449_2014-06-19_17-01-27_260595134347_rgbf000116-resize_2/001449_2014-06-19_17-01-27_260595134347_rgbf000116-resize_2-target.png,1000,3.452,5,2728,997,feet,jsons/v1_VE1000_randls_20.json,606250,719204,35,Woman
48,915937,DepthScenes,duration_manipulation_targetAtFixation,jsons/v1_VE1000_randls_20.json,http://54.235.29.9/FacialAge/BNav_EC2/DepthDuration/v2_depth_duration_MTurk/v2_DepthDuration_HTML.html#85,85,1881,888,1920,1080,9-18-2022,13-37-46,49,depth_duration_stimuli/001450_2014-06-19_17-02-03_260595134347_rgbf000203-resize_4/001450_2014-06-19_17-02-03_260595134347_rgbf000203-resize_4-target.png,1000,4.0106666666667,7,2911,989,feet,jsons/v1_VE1000_randls_20.json,606250,719204,35,Woman
49,915937,DepthScenes,duration_manipulation_targetAtFixation,jsons/v1_VE1000_randls_20.json,http://54.235.29.9/FacialAge/BNav_EC2/DepthDuration/v2_depth_duration_MTurk/v2_DepthDuration_HTML.html#85,85,1881,888,1920,1080,9-18-2022,13-37-46,50,depth_duration_stimuli/001011_2014-06-08_23-18-54_260595134347_rgbf000044-resize_4/001011_2014-06-08_23-18-54_260595134347_rgbf000044-resize_4-target.png,1000,2.4730000000000003,5,2819,1009,feet,jsons/v1_VE1000_randls_20.json,606250,719204,35,Woman
50,915937,DepthScenes,duration_manipulation_targetAtFixation,jsons/v1_VE1000_randls_20.json,http://54.235.29.9/FacialAge/BNav_EC2/DepthDuration/v2_depth_duration_MTurk/v2_DepthDuration_HTML.html#85,85,1881,888,1920,1080,9-18-2022,13-37-46,51,depth_duration_stimuli/002875_2014-06-01_15-19-00_094959634447_rgbf000151-resize_1/002875_2014-06-01_15-19-00_094959634447_rgbf000151-resize_1-target.png,1000,1.9675,4,2693,997,feet,jsons/v1_VE1000_randls_20.json,606250,719204,35,Woman
51,915937,DepthScenes,duration_manipulation_targetAtFixation,jsons/v1_VE1000_randls_20.json,http://54.235.29.9/FacialAge/BNav_EC2/DepthDuration/v2_depth_duration_MTurk/v2_DepthDuration_HTML.html#85,85,1881,888,1920,1080,9-18-2022,13-37-46,52,depth_duration_stimuli/002039_2014-06-24_20-22-38_260595134347_rgbf000084-resize_1/002039_2014-06-24_20-22-38_260595134347_rgbf000084-resize_1-target.png,1000,4.408,7,2824,994,feet,jsons/v1_VE1000_randls_20.json,606250,719204,35,Woman
52,915937,DepthScenes,duration_manipulation_targetAtFixation,jsons/v1_VE1000_randls_20.json,http://54.235.29.9/FacialAge/BNav_EC2/DepthDuration/v2_depth_duration_MTurk/v2_DepthDuration_HTML.html#85,85,1881,888,1920,1080,9-18-2022,13-37-46,53,depth_duration_stimuli/002103_2014-06-25_20-00-40_260595134347_rgbf000049-resize_0/002103_2014-06-25_20-00-40_260595134347_rgbf000049-resize_0-target.png,1000,4.105,6,3478,996,feet,jsons/v1_VE1000_randls_20.json,606250,719204,35,Woman
53,915937,DepthScenes,duration_manipulation_targetAtFixation,jsons/v1_VE1000_randls_20.json,http://54.235.29.9/FacialAge/BNav_EC2/DepthDuration/v2_depth_duration_MTurk/v2_DepthDuration_HTML.html#85,85,1881,888,1920,1080,9-18-2022,13-37-46,54,depth_duration_stimuli/002989_2014-06-15_12-25-03_094959634447_rgbf000150-resize_3/002989_2014-06-15_12-25-03_094959634447_rgbf000150-resize_3-target.png,1000,4.1975,9,2997,986,feet,jsons/v1_VE1000_randls_20.json,606250,719204,35,Woman
54,915937,DepthScenes,duration_manipulation_targetAtFixation,jsons/v1_VE1000_randls_20.json,http://54.235.29.9/FacialAge/BNav_EC2/DepthDuration/v2_depth_duration_MTurk/v2_DepthDuration_HTML.html#85,85,1881,888,1920,1080,9-18-2022,13-37-46,55,depth_duration_stimuli/000866_2014-06-09_20-45-42_260595134347_rgbf000139-resize_1/000866_2014-06-09_20-45-42_260595134347_rgbf000139-resize_1-target.png,1000,3.2155,5,3727,997,feet,jsons/v1_VE1000_randls_20.json,606250,719204,35,Woman
55,915937,DepthScenes,duration_manipulation_targetAtFixation,jsons/v1_VE1000_randls_20.json,http://54.235.29.9/FacialAge/BNav_EC2/DepthDuration/v2_depth_duration_MTurk/v2_DepthDuration_HTML.html#85,85,1881,888,1920,1080,9-18-2022,13-37-46,56,depth_duration_stimuli/002279_2014-06-28_18-55-32_260595134347_rgbf000040-resize_5/002279_2014-06-28_18-55-32_260595134347_rgbf000040-resize_5-target.png,1000,1.5043333333333,2,2892,993,feet,jsons/v1_VE1000_randls_20.json,606250,719204,35,Woman
56,915937,DepthScenes,duration_manipulation_targetAtFixation,jsons/v1_VE1000_randls_20.json,http://54.235.29.9/FacialAge/BNav_EC2/DepthDuration/v2_depth_duration_MTurk/v2_DepthDuration_HTML.html#85,85,1881,888,1920,1080,9-18-2022,13-37-46,57,depth_duration_stimuli/000635_2014-06-08_16-38-42_260595134347_rgbf000106-resize_1/000635_2014-06-08_16-38-42_260595134347_rgbf000106-resize_1-target.png,1000,2.074,4,2713,998,feet,jsons/v1_VE1000_randls_20.json,606250,719204,35,Woman
57,915937,DepthScenes,duration_manipulation_targetAtFixation,jsons/v1_VE1000_randls_20.json,http://54.235.29.9/FacialAge/BNav_EC2/DepthDuration/v2_depth_duration_MTurk/v2_DepthDuration_HTML.html#85,85,1881,888,1920,1080,9-18-2022,13-37-46,58,depth_duration_stimuli/002549_2014-06-24_13-41-39_094959634447_rgbf000022-resize_3/002549_2014-06-24_13-41-39_094959634447_rgbf000022-resize_3-target.png,1000,1.476,2,2772,993,feet,jsons/v1_VE1000_randls_20.json,606250,719204,35,Woman
58,915937,DepthScenes,duration_manipulation_targetAtFixation,jsons/v1_VE1000_randls_20.json,http://54.235.29.9/FacialAge/BNav_EC2/DepthDuration/v2_depth_duration_MTurk/v2_DepthDuration_HTML.html#85,85,1881,888,1920,1080,9-18-2022,13-37-46,59,depth_duration_stimuli/002750_2014-06-22_19-08-03_094959634447_rgbf000094-resize_4/002750_2014-06-22_19-08-03_094959634447_rgbf000094-resize_4-target.png,1000,2.354,4,2419,993,feet,jsons/v1_VE1000_randls_20.json,606250,719204,35,Woman
59,915937,DepthScenes,duration_manipulation_targetAtFixation,jsons/v1_VE1000_randls_20.json,http://54.235.29.9/FacialAge/BNav_EC2/DepthDuration/v2_depth_duration_MTurk/v2_DepthDuration_HTML.html#85,85,1881,888,1920,1080,9-18-2022,13-37-46,60,depth_duration_stimuli/002600_2014-06-24_14-27-04_094959634447_rgbf000074-resize_2/002600_2014-06-24_14-27-04_094959634447_rgbf000074-resize_2-target.png,1000,2.7575,5,2835,1001,feet,jsons/v1_VE1000_randls_20.json,606250,719204,35,Woman
60,915937,DepthScenes,duration_manipulation_targetAtFixation,jsons/v1_VE1000_randls_20.json,http://54.235.29.9/FacialAge/BNav_EC2/DepthDuration/v2_depth_duration_MTurk/v2_DepthDuration_HTML.html#85,85,1881,888,1920,1080,9-18-2022,13-37-46,61,depth_duration_stimuli/003228_2014-05-14_13-42-35_094959634447_rgbf000101-resize_1/003228_2014-05-14_13-42-35_094959634447_rgbf000101-resize_1-target.png,1000,1.9680000000000002,3,2882,994,feet,jsons/v1_VE1000_randls_20.json,606250,719204,35,Woman
61,915937,DepthScenes,duration_manipulation_targetAtFixation,jsons/v1_VE1000_randls_20.json,http://54.235.29.9/FacialAge/BNav_EC2/DepthDuration/v2_depth_duration_MTurk/v2_DepthDuration_HTML.html#85,85,1881,888,1920,1080,9-18-2022,13-37-46,62,depth_duration_stimuli/002153_2014-06-25_21-27-18_260595134347_rgbf000038-resize_5/002153_2014-06-25_21-27-18_260595134347_rgbf000038-resize_5-target.png,1000,2.505,5,3527,996,feet,jsons/v1_VE1000_randls_20.json,606250,719204,35,Woman
62,915937,DepthScenes,duration_manipulation_targetAtFixation,jsons/v1_VE1000_randls_20.json,http://54.235.29.9/FacialAge/BNav_EC2/DepthDuration/v2_depth_duration_MTurk/v2_DepthDuration_HTML.html#85,85,1881,888,1920,1080,9-18-2022,13-37-46,63,depth_duration_stimuli/002660_2014-06-13_15-44-18_094959634447_rgbf001878-resize_2/002660_2014-06-13_15-44-18_094959634447_rgbf001878-resize_2-target.png,1000,3.576,6,3071,998,feet,jsons/v1_VE1000_randls_20.json,606250,719204,35,Woman
63,915937,DepthScenes,duration_manipulation_targetAtFixation,jsons/v1_VE1000_randls_20.json,http://54.235.29.9/FacialAge/BNav_EC2/DepthDuration/v2_depth_duration_MTurk/v2_DepthDuration_HTML.html#85,85,1881,888,1920,1080,9-18-2022,13-37-46,64,depth_duration_stimuli/002057_2014-06-24_21-00-13_260595134347_rgbf000120-resize_1/002057_2014-06-24_21-00-13_260595134347_rgbf000120-resize_1-target.png,1000,2.967,7,3949,996,feet,jsons/v1_VE1000_randls_20.json,606250,719204,35,Woman
64,915937,DepthScenes,duration_manipulation_targetAtFixation,jsons/v1_VE1000_randls_20.json,http://54.235.29.9/FacialAge/BNav_EC2/DepthDuration/v2_depth_duration_MTurk/v2_DepthDuration_HTML.html#85,85,1881,888,1920,1080,9-18-2022,13-37-46,65,depth_duration_stimuli/000709_2014-06-08_13-51-55_260595134347_rgbf000068-resize_3/000709_2014-06-08_13-51-55_260595134347_rgbf000068-resize_3-target.png,1000,1.8030000000000002,4,2547,1011,feet,jsons/v1_VE1000_randls_20.json,606250,719204,35,Woman
65,915937,DepthScenes,duration_manipulation_targetAtFixation,jsons/v1_VE1000_randls_20.json,http://54.235.29.9/FacialAge/BNav_EC2/DepthDuration/v2_depth_duration_MTurk/v2_DepthDuration_HTML.html#85,85,1881,888,1920,1080,9-18-2022,13-37-46,66,depth_duration_stimuli/001222_2014-06-17_16-24-06_260595134347_rgbf000073-resize_0/001222_2014-06-17_16-24-06_260595134347_rgbf000073-resize-original.jpg,1000,1.4385,0,3679,1005,feet,jsons/v1_VE1000_randls_20.json,606250,719204,35,Woman
66,915937,DepthScenes,duration_manipulation_targetAtFixation,jsons/v1_VE1000_randls_20.json,http://54.235.29.9/FacialAge/BNav_EC2/DepthDuration/v2_depth_duration_MTurk/v2_DepthDuration_HTML.html#85,85,1881,888,1920,1080,9-18-2022,13-37-46,67,depth_duration_stimuli/000682_2014-06-08_23-14-58_260595134347_rgbf000041-resize_5/000682_2014-06-08_23-14-58_260595134347_rgbf000041-resize_5-target.png,1000,2.7239999999999998,4,2702,1008,feet,jsons/v1_VE1000_randls_20.json,606250,719204,35,Woman
67,915937,DepthScenes,duration_manipulation_targetAtFixation,jsons/v1_VE1000_randls_20.json,http://54.235.29.9/FacialAge/BNav_EC2/DepthDuration/v2_depth_duration_MTurk/v2_DepthDuration_HTML.html#85,85,1881,888,1920,1080,9-18-2022,13-37-46,68,depth_duration_stimuli/001650_2014-06-20_12-09-00_260595134347_rgbf000087-resize_3/001650_2014-06-20_12-09-00_260595134347_rgbf000087-resize_3-target.png,1000,1.9505,2,2912,987,feet,jsons/v1_VE1000_randls_20.json,606250,719204,35,Woman
68,915937,DepthScenes,duration_manipulation_targetAtFixation,jsons/v1_VE1000_randls_20.json,http://54.235.29.9/FacialAge/BNav_EC2/DepthDuration/v2_depth_duration_MTurk/v2_DepthDuration_HTML.html#85,85,1881,888,1920,1080,9-18-2022,13-37-46,69,depth_duration_stimuli/000493_2014-06-09_21-01-18_260595134347_rgbf000196-resize_3/000493_2014-06-09_21-01-18_260595134347_rgbf000196-resize_3-target.png,1000,3.44,4,2706,997,feet,jsons/v1_VE1000_randls_20.json,606250,719204,35,Woman
69,915937,DepthScenes,duration_manipulation_targetAtFixation,jsons/v1_VE1000_randls_20.json,http://54.235.29.9/FacialAge/BNav_EC2/DepthDuration/v2_depth_duration_MTurk/v2_DepthDuration_HTML.html#85,85,1881,888,1920,1080,9-18-2022,13-37-46,70,depth_duration_stimuli/000191_2014-05-12_17-07-38_260595134347_rgbf000199-resize_0/000191_2014-05-12_17-07-38_260595134347_rgbf000199-resize_0-target.png,1000,3.7995,8,4034,1011,feet,jsons/v1_VE1000_randls_20.json,606250,719204,35,Woman
70,915937,DepthScenes,duration_manipulation_targetAtFixation,jsons/v1_VE1000_randls_20.json,http://54.235.29.9/FacialAge/BNav_EC2/DepthDuration/v2_depth_duration_MTurk/v2_DepthDuration_HTML.html#85,85,1881,888,1920,1080,9-18-2022,13-37-46,71,depth_duration_stimuli/002748_2014-06-22_19-07-22_094959634447_rgbf000078-resize_1/002748_2014-06-22_19-07-22_094959634447_rgbf000078-resize_1-target.png,1000,4.6705,9,2844,999,feet,jsons/v1_VE1000_randls_20.json,606250,719204,35,Woman
71,915937,DepthScenes,duration_manipulation_targetAtFixation,jsons/v1_VE1000_randls_20.json,http://54.235.29.9/FacialAge/BNav_EC2/DepthDuration/v2_depth_duration_MTurk/v2_DepthDuration_HTML.html#85,85,1881,888,1920,1080,9-18-2022,13-37-46,72,depth_duration_stimuli/002995_2014-06-15_12-31-26_094959634447_rgbf000150-resize_1/002995_2014-06-15_12-31-26_094959634447_rgbf000150-resize_1-target.png,1000,3.8360000000000003,7,3254,994,feet,jsons/v1_VE1000_randls_20.json,606250,719204,35,Woman
72,915937,DepthScenes,duration_manipulation_targetAtFixation,jsons/v1_VE1000_randls_20.json,http://54.235.29.9/FacialAge/BNav_EC2/DepthDuration/v2_depth_duration_MTurk/v2_DepthDuration_HTML.html#85,85,1881,888,1920,1080,9-18-2022,13-37-46,73,depth_duration_stimuli/001806_2014-06-26_20-50-20_260595134347_rgbf000091-resize_1/001806_2014-06-26_20-50-20_260595134347_rgbf000091-resize_1-target.png,1000,2.7305,4,3997,990,feet,jsons/v1_VE1000_randls_20.json,606250,719204,35,Woman
73,915937,DepthScenes,duration_manipulation_targetAtFixation,jsons/v1_VE1000_randls_20.json,http://54.235.29.9/FacialAge/BNav_EC2/DepthDuration/v2_depth_duration_MTurk/v2_DepthDuration_HTML.html#85,85,1881,888,1920,1080,9-18-2022,13-37-46,74,depth_duration_stimuli/001617_2014-06-20_11-35-32_260595134347_rgbf000066-resize_1/001617_2014-06-20_11-35-32_260595134347_rgbf000066-resize_1-target.png,1000,3.7910000000000004,6,2690,994,feet,jsons/v1_VE1000_randls_20.json,606250,719204,35,Woman
74,915937,DepthScenes,duration_manipulation_targetAtFixation,jsons/v1_VE1000_randls_20.json,http://54.235.29.9/FacialAge/BNav_EC2/DepthDuration/v2_depth_duration_MTurk/v2_DepthDuration_HTML.html#85,85,1881,888,1920,1080,9-18-2022,13-37-46,75,depth_duration_stimuli/003070_2014-06-15_14-58-27_094959634447_rgbf000150-resize_3/003070_2014-06-15_14-58-27_094959634447_rgbf000150-resize_3-target.png,1000,2.9415,5,2612,1013,feet,jsons/v1_VE1000_randls_20.json,606250,719204,35,Woman
75,915937,DepthScenes,duration_manipulation_targetAtFixation,jsons/v1_VE1000_randls_20.json,http://54.235.29.9/FacialAge/BNav_EC2/DepthDuration/v2_depth_duration_MTurk/v2_DepthDuration_HTML.html#85,85,1881,888,1920,1080,9-18-2022,13-37-46,76,depth_duration_stimuli/000943_2014-06-09_19-31-07_260595134347_rgbf000128-resize_1/000943_2014-06-09_19-31-07_260595134347_rgbf000128-resize_1-target.png,1000,1.9765,3,2631,988,feet,jsons/v1_VE1000_randls_20.json,606250,719204,35,Woman
76,915937,DepthScenes,duration_manipulation_targetAtFixation,jsons/v1_VE1000_randls_20.json,http://54.235.29.9/FacialAge/BNav_EC2/DepthDuration/v2_depth_duration_MTurk/v2_DepthDuration_HTML.html#85,85,1881,888,1920,1080,9-18-2022,13-37-46,77,depth_duration_stimuli/000810_2014-06-08_17-20-01_260595134347_rgbf000105-resize_0/000810_2014-06-08_17-20-01_260595134347_rgbf000105-resize_0-target.png,1000,1.4865,3,2841,997,feet,jsons/v1_VE1000_randls_20.json,606250,719204,35,Woman
77,915937,DepthScenes,duration_manipulation_targetAtFixation,jsons/v1_VE1000_randls_20.json,http://54.235.29.9/FacialAge/BNav_EC2/DepthDuration/v2_depth_duration_MTurk/v2_DepthDuration_HTML.html#85,85,1881,888,1920,1080,9-18-2022,13-37-46,78,depth_duration_stimuli/001214_2014-06-17_16-13-55_260595134347_rgbf000111-resize_0/001214_2014-06-17_16-13-55_260595134347_rgbf000111-resize_0-target.png,1000,2.6505,4,2751,996,feet,jsons/v1_VE1000_randls_20.json,606250,719204,35,Woman
78,915937,DepthScenes,duration_manipulation_targetAtFixation,jsons/v1_VE1000_randls_20.json,http://54.235.29.9/FacialAge/BNav_EC2/DepthDuration/v2_depth_duration_MTurk/v2_DepthDuration_HTML.html#85,85,1881,888,1920,1080,9-18-2022,13-37-46,79,depth_duration_stimuli/001808_2014-06-26_20-50-58_260595134347_rgbf000029-resize_1/001808_2014-06-26_20-50-58_260595134347_rgbf000029-resize_1-target.png,1000,4.249,7,4191,1007,feet,jsons/v1_VE1000_randls_20.json,606250,719204,35,Woman
79,915937,DepthScenes,duration_manipulation_targetAtFixation,jsons/v1_VE1000_randls_20.json,http://54.235.29.9/FacialAge/BNav_EC2/DepthDuration/v2_depth_duration_MTurk/v2_DepthDuration_HTML.html#85,85,1881,888,1920,1080,9-18-2022,13-37-46,80,depth_duration_stimuli/001815_2014-06-26_20-52-55_260595134347_rgbf000020-resize_0/001815_2014-06-26_20-52-55_260595134347_rgbf000020-resize_0-target.png,1000,3.3865,9,4736,988,feet,jsons/v1_VE1000_randls_20.json,606250,719204,35,Woman
80,915937,DepthScenes,duration_manipulation_targetAtFixation,jsons/v1_VE1000_randls_20.json,http://54.235.29.9/FacialAge/BNav_EC2/DepthDuration/v2_depth_duration_MTurk/v2_DepthDuration_HTML.html#85,85,1881,888,1920,1080,9-18-2022,13-37-46,81,depth_duration_stimuli/001029_2014-06-08_13-17-57_260595134347_rgbf000065-resize_1/001029_2014-06-08_13-17-57_260595134347_rgbf000065-resize_1-target.png,1000,3.0835,5,3124,999,feet,jsons/v1_VE1000_randls_20.json,606250,719204,35,Woman
81,915937,DepthScenes,duration_manipulation_targetAtFixation,jsons/v1_VE1000_randls_20.json,http://54.235.29.9/FacialAge/BNav_EC2/DepthDuration/v2_depth_duration_MTurk/v2_DepthDuration_HTML.html#85,85,1881,888,1920,1080,9-18-2022,13-37-46,82,depth_duration_stimuli/000677_2014-06-08_23-10-32_260595134347_rgbf000158-resize_6/000677_2014-06-08_23-10-32_260595134347_rgbf000158-resize_6-target.png,1000,3.556,4,3716,999,feet,jsons/v1_VE1000_randls_20.json,606250,719204,35,Woman
82,915937,DepthScenes,duration_manipulation_targetAtFixation,jsons/v1_VE1000_randls_20.json,http://54.235.29.9/FacialAge/BNav_EC2/DepthDuration/v2_depth_duration_MTurk/v2_DepthDuration_HTML.html#85,85,1881,888,1920,1080,9-18-2022,13-37-46,83,depth_duration_stimuli/002788_2014-06-22_19-36-03_094959634447_rgbf000088-resize_2/002788_2014-06-22_19-36-03_094959634447_rgbf000088-resize_2-target.png,1000,1.6465,5,2796,999,feet,jsons/v1_VE1000_randls_20.json,606250,719204,35,Woman
83,915937,DepthScenes,duration_manipulation_targetAtFixation,jsons/v1_VE1000_randls_20.json,http://54.235.29.9/FacialAge/BNav_EC2/DepthDuration/v2_depth_duration_MTurk/v2_DepthDuration_HTML.html#85,85,1881,888,1920,1080,9-18-2022,13-37-46,84,depth_duration_stimuli/000749_2014-06-08_21-55-06_260595134347_rgbf000070-resize_2/000749_2014-06-08_21-55-06_260595134347_rgbf000070-resize_2-target.png,1000,2.331,4,3083,993,feet,jsons/v1_VE1000_randls_20.json,606250,719204,35,Woman
84,915937,DepthScenes,duration_manipulation_targetAtFixation,jsons/v1_VE1000_randls_20.json,http://54.235.29.9/FacialAge/BNav_EC2/DepthDuration/v2_depth_duration_MTurk/v2_DepthDuration_HTML.html#85,85,1881,888,1920,1080,9-18-2022,13-37-46,85,depth_duration_stimuli/001066_2014-06-08_22-03-20_260595134347_rgbf000066-resize_4/001066_2014-06-08_22-03-20_260595134347_rgbf000066-resize_4-target.png,1000,4.2330000000000005,8,3990,986,feet,jsons/v1_VE1000_randls_20.json,606250,719204,35,Woman
85,915937,DepthScenes,duration_manipulation_targetAtFixation,jsons/v1_VE1000_randls_20.json,http://54.235.29.9/FacialAge/BNav_EC2/DepthDuration/v2_depth_duration_MTurk/v2_DepthDuration_HTML.html#85,85,1881,888,1920,1080,9-18-2022,13-37-46,86,depth_duration_stimuli/000742_2014-06-08_18-48-09_260595134347_rgbf000164-resize_4/000742_2014-06-08_18-48-09_260595134347_rgbf000164-resize_4-target.png,1000,4.632,12,4420,993,feet,jsons/v1_VE1000_randls_20.json,606250,719204,35,Woman
86,915937,DepthScenes,duration_manipulation_targetAtFixation,jsons/v1_VE1000_randls_20.json,http://54.235.29.9/FacialAge/BNav_EC2/DepthDuration/v2_depth_duration_MTurk/v2_DepthDuration_HTML.html#85,85,1881,888,1920,1080,9-18-2022,13-37-46,87,depth_duration_stimuli/002964_2014-06-08_17-46-11_094959634447_rgbf000091-resize_4/002964_2014-06-08_17-46-11_094959634447_rgbf000091-resize_4-target.png,1000,1.6909999999999998,2,2620,993,feet,jsons/v1_VE1000_randls_20.json,606250,719204,35,Woman
87,915937,DepthScenes,duration_manipulation_targetAtFixation,jsons/v1_VE1000_randls_20.json,http://54.235.29.9/FacialAge/BNav_EC2/DepthDuration/v2_depth_duration_MTurk/v2_DepthDuration_HTML.html#85,85,1881,888,1920,1080,9-18-2022,13-37-46,88,depth_duration_stimuli/002136_2014-06-25_21-18-03_260595134347_rgbf000109-resize_3/002136_2014-06-25_21-18-03_260595134347_rgbf000109-resize_3-target.png,1000,1.9569999999999999,3,2630,994,feet,jsons/v1_VE1000_randls_20.json,606250,719204,35,Woman
88,915937,DepthScenes,duration_manipulation_targetAtFixation,jsons/v1_VE1000_randls_20.json,http://54.235.29.9/FacialAge/BNav_EC2/DepthDuration/v2_depth_duration_MTurk/v2_DepthDuration_HTML.html#85,85,1881,888,1920,1080,9-18-2022,13-37-46,89,depth_duration_stimuli/000414_2014-06-04_19-49-13_260595134347_rgbf000044-resize_0/000414_2014-06-04_19-49-13_260595134347_rgbf000044-resize_0-target.png,1000,4.329,7,3722,991,feet,jsons/v1_VE1000_randls_20.json,606250,719204,35,Woman
89,915937,DepthScenes,duration_manipulation_targetAtFixation,jsons/v1_VE1000_randls_20.json,http://54.235.29.9/FacialAge/BNav_EC2/DepthDuration/v2_depth_duration_MTurk/v2_DepthDuration_HTML.html#85,85,1881,888,1920,1080,9-18-2022,13-37-46,90,depth_duration_stimuli/003129_2014-05-12_10-48-10_094959634447_rgbf000100-resize_0/003129_2014-05-12_10-48-10_094959634447_rgbf000100-resize_0-target.png,1000,4.9305,6,2895,995,feet,jsons/v1_VE1000_randls_20.json,606250,719204,35,Woman
90,915937,DepthScenes,duration_manipulation_targetAtFixation,jsons/v1_VE1000_randls_20.json,http://54.235.29.9/FacialAge/BNav_EC2/DepthDuration/v2_depth_duration_MTurk/v2_DepthDuration_HTML.html#85,85,1881,888,1920,1080,9-18-2022,13-37-46,91,depth_duration_stimuli/000486_2014-06-09_20-47-20_260595134347_rgbf000143-resize_2/000486_2014-06-09_20-47-20_260595134347_rgbf000143-resize_2-target.png,1000,4.8325,9,2770,996,feet,jsons/v1_VE1000_randls_20.json,606250,719204,35,Woman
91,915937,DepthScenes,duration_manipulation_targetAtFixation,jsons/v1_VE1000_randls_20.json,http://54.235.29.9/FacialAge/BNav_EC2/DepthDuration/v2_depth_duration_MTurk/v2_DepthDuration_HTML.html#85,85,1881,888,1920,1080,9-18-2022,13-37-46,92,depth_duration_stimuli/003083_2014-06-15_15-21-03_094959634447_rgbf000063-resize_1/003083_2014-06-15_15-21-03_094959634447_rgbf000063-resize_1-target.png,1000,4.1405,12,3321,1008,feet,jsons/v1_VE1000_randls_20.json,606250,719204,35,Woman
92,915937,DepthScenes,duration_manipulation_targetAtFixation,jsons/v1_VE1000_randls_20.json,http://54.235.29.9/FacialAge/BNav_EC2/DepthDuration/v2_depth_duration_MTurk/v2_DepthDuration_HTML.html#85,85,1881,888,1920,1080,9-18-2022,13-37-46,93,depth_duration_stimuli/000773_2014-06-08_22-24-54_260595134347_rgbf000093-resize_1/000773_2014-06-08_22-24-54_260595134347_rgbf000093-resize_1-target.png,1000,4.973,9,3187,998,feet,jsons/v1_VE1000_randls_20.json,606250,719204,35,Woman
93,915937,DepthScenes,duration_manipulation_targetAtFixation,jsons/v1_VE1000_randls_20.json,http://54.235.29.9/FacialAge/BNav_EC2/DepthDuration/v2_depth_duration_MTurk/v2_DepthDuration_HTML.html#85,85,1881,888,1920,1080,9-18-2022,13-37-46,94,depth_duration_stimuli/002414_2014-06-28_20-24-58_260595134347_rgbf000067-resize_4/002414_2014-06-28_20-24-58_260595134347_rgbf000067-resize_4-target.png,1000,4.363,8,3187,1000,feet,jsons/v1_VE1000_randls_20.json,606250,719204,35,Woman
94,915937,DepthScenes,duration_manipulation_targetAtFixation,jsons/v1_VE1000_randls_20.json,http://54.235.29.9/FacialAge/BNav_EC2/DepthDuration/v2_depth_duration_MTurk/v2_DepthDuration_HTML.html#85,85,1881,888,1920,1080,9-18-2022,13-37-46,95,depth_duration_stimuli/000906_2014-06-08_13-35-43_260595134347_rgbf000155-resize_1/000906_2014-06-08_13-35-43_260595134347_rgbf000155-resize_1-target.png,1000,2.8489999999999998,7,3388,992,feet,jsons/v1_VE1000_randls_20.json,606250,719204,35,Woman
95,915937,DepthScenes,duration_manipulation_targetAtFixation,jsons/v1_VE1000_randls_20.json,http://54.235.29.9/FacialAge/BNav_EC2/DepthDuration/v2_depth_duration_MTurk/v2_DepthDuration_HTML.html#85,85,1881,888,1920,1080,9-18-2022,13-37-46,96,depth_duration_stimuli/002805_2014-06-22_19-54-03_094959634447_rgbf000079-resize_1/002805_2014-06-22_19-54-03_094959634447_rgbf000079-resize_1-target.png,1000,3.1439999999999997,9,2573,998,feet,jsons/v1_VE1000_randls_20.json,606250,719204,35,Woman
96,915937,DepthScenes,duration_manipulation_targetAtFixation,jsons/v1_VE1000_randls_20.json,http://54.235.29.9/FacialAge/BNav_EC2/DepthDuration/v2_depth_duration_MTurk/v2_DepthDuration_HTML.html#85,85,1881,888,1920,1080,9-18-2022,13-37-46,97,depth_duration_stimuli/000470_2014-06-09_19-42-40_260595134347_rgbf000094-resize_1/000470_2014-06-09_19-42-40_260595134347_rgbf000094-resize_1-target.png,1000,1.831,3,3254,995,feet,jsons/v1_VE1000_randls_20.json,606250,719204,35,Woman
97,915937,DepthScenes,duration_manipulation_targetAtFixation,jsons/v1_VE1000_randls_20.json,http://54.235.29.9/FacialAge/BNav_EC2/DepthDuration/v2_depth_duration_MTurk/v2_DepthDuration_HTML.html#85,85,1881,888,1920,1080,9-18-2022,13-37-46,98,depth_duration_stimuli/000109_2014-05-14_23-41-52_260595134347_rgbf000035-resize_9/000109_2014-05-14_23-41-52_260595134347_rgbf000035-resize_9-target.png,1000,1.3545,2,3291,993,feet,jsons/v1_VE1000_randls_20.json,606250,719204,35,Woman
98,915937,DepthScenes,duration_manipulation_targetAtFixation,jsons/v1_VE1000_randls_20.json,http://54.235.29.9/FacialAge/BNav_EC2/DepthDuration/v2_depth_duration_MTurk/v2_DepthDuration_HTML.html#85,85,1881,888,1920,1080,9-18-2022,13-37-46,99,depth_duration_stimuli/001540_2014-06-20_17-01-05_260595134347_rgbf000086-resize_2/001540_2014-06-20_17-01-05_260595134347_rgbf000086-resize-original.jpg,1000,1.459,0,3365,994,feet,jsons/v1_VE1000_randls_20.json,606250,719204,35,Woman
99,915937,DepthScenes,duration_manipulation_targetAtFixation,jsons/v1_VE1000_randls_20.json,http://54.235.29.9/FacialAge/BNav_EC2/DepthDuration/v2_depth_duration_MTurk/v2_DepthDuration_HTML.html#85,85,1881,888,1920,1080,9-18-2022,13-37-46,100,depth_duration_stimuli/001110_2014-06-15_17-25-28_260595134347_rgbf000150-resize_1/001110_2014-06-15_17-25-28_260595134347_rgbf000150-resize_1-target.png,1000,1.7115,4,3395,1000,feet,jsons/v1_VE1000_randls_20.json,606250,719204,35,Woman
100,915937,DepthScenes,duration_manipulation_targetAtFixation,jsons/v1_VE1000_randls_20.json,http://54.235.29.9/FacialAge/BNav_EC2/DepthDuration/v2_depth_duration_MTurk/v2_DepthDuration_HTML.html#85,85,1881,888,1920,1080,9-18-2022,13-37-46,101,depth_duration_stimuli/000927_2014-06-09_16-32-30_260595134347_rgbf000123-resize_3/000927_2014-06-09_16-32-30_260595134347_rgbf000123-resize_3-target.png,1000,2.6785,6,2777,998,feet,jsons/v1_VE1000_randls_20.json,606250,719204,35,Woman
101,915937,DepthScenes,duration_manipulation_targetAtFixation,jsons/v1_VE1000_randls_20.json,http://54.235.29.9/FacialAge/BNav_EC2/DepthDuration/v2_depth_duration_MTurk/v2_DepthDuration_HTML.html#85,85,1881,888,1920,1080,9-18-2022,13-37-46,102,depth_duration_stimuli/000878_2014-06-08_22-52-45_260595134347_rgbf000045-resize_2/000878_2014-06-08_22-52-45_260595134347_rgbf000045-resize_2-target.png,1000,2.092,4,2773,987,feet,jsons/v1_VE1000_randls_20.json,606250,719204,35,Woman
102,915937,DepthScenes,duration_manipulation_targetAtFixation,jsons/v1_VE1000_randls_20.json,http://54.235.29.9/FacialAge/BNav_EC2/DepthDuration/v2_depth_duration_MTurk/v2_DepthDuration_HTML.html#85,85,1881,888,1920,1080,9-18-2022,13-37-46,103,depth_duration_stimuli/002953_2014-06-08_17-32-18_094959634447_rgbf000059-resize_5/002953_2014-06-08_17-32-18_094959634447_rgbf000059-resize_5-target.png,1000,1.551,2,2823,997,feet,jsons/v1_VE1000_randls_20.json,606250,719204,35,Woman
103,915937,DepthScenes,duration_manipulation_targetAtFixation,jsons/v1_VE1000_randls_20.json,http://54.235.29.9/FacialAge/BNav_EC2/DepthDuration/v2_depth_duration_MTurk/v2_DepthDuration_HTML.html#85,85,1881,888,1920,1080,9-18-2022,13-37-46,104,depth_duration_stimuli/001150_2014-06-17_15-27-34_260595134347_rgbf000108-resize_2/001150_2014-06-17_15-27-34_260595134347_rgbf000108-resize_2-target.png,1000,4.0325,5,2687,995,feet,jsons/v1_VE1000_randls_20.json,606250,719204,35,Woman
104,915937,DepthScenes,duration_manipulation_targetAtFixation,jsons/v1_VE1000_randls_20.json,http://54.235.29.9/FacialAge/BNav_EC2/DepthDuration/v2_depth_duration_MTurk/v2_DepthDuration_HTML.html#85,85,1881,888,1920,1080,9-18-2022,13-37-46,105,depth_duration_stimuli/000665_2014-06-09_20-42-35_260595134347_rgbf000110-resize_1/000665_2014-06-09_20-42-35_260595134347_rgbf000110-resize_1-target.png,1000,3.057,7,2710,1006,feet,jsons/v1_VE1000_randls_20.json,606250,719204,35,Woman
105,915937,DepthScenes,duration_manipulation_targetAtFixation,jsons/v1_VE1000_randls_20.json,http://54.235.29.9/FacialAge/BNav_EC2/DepthDuration/v2_depth_duration_MTurk/v2_DepthDuration_HTML.html#85,85,1881,888,1920,1080,9-18-2022,13-37-46,106,depth_duration_stimuli/002763_2014-06-22_19-13-10_094959634447_rgbf000075-resize_4/002763_2014-06-22_19-13-10_094959634447_rgbf000075-resize_4-target.png,1000,1.68375,4,3363,1001,feet,jsons/v1_VE1000_randls_20.json,606250,719204,35,Woman
106,915937,DepthScenes,duration_manipulation_targetAtFixation,jsons/v1_VE1000_randls_20.json,http://54.235.29.9/FacialAge/BNav_EC2/DepthDuration/v2_depth_duration_MTurk/v2_DepthDuration_HTML.html#85,85,1881,888,1920,1080,9-18-2022,13-37-46,107,depth_duration_stimuli/002209_2014-06-28_18-36-10_260595134347_rgbf000051-resize_1/002209_2014-06-28_18-36-10_260595134347_rgbf000051-resize_1-target.png,1000,2.057,4,3293,994,feet,jsons/v1_VE1000_randls_20.json,606250,719204,35,Woman
107,915937,DepthScenes,duration_manipulation_targetAtFixation,jsons/v1_VE1000_randls_20.json,http://54.235.29.9/FacialAge/BNav_EC2/DepthDuration/v2_depth_duration_MTurk/v2_DepthDuration_HTML.html#85,85,1881,888,1920,1080,9-18-2022,13-37-46,108,depth_duration_stimuli/003492_2014-05-21_15-50-55_094959634447_rgbf000828-resize_1/003492_2014-05-21_15-50-55_094959634447_rgbf000828-resize_1-target.png,1000,4.06875,8,3337,989,feet,jsons/v1_VE1000_randls_20.json,606250,719204,35,Woman
108,915937,DepthScenes,duration_manipulation_targetAtFixation,jsons/v1_VE1000_randls_20.json,http://54.235.29.9/FacialAge/BNav_EC2/DepthDuration/v2_depth_duration_MTurk/v2_DepthDuration_HTML.html#85,85,1881,888,1920,1080,9-18-2022,13-37-46,109,depth_duration_stimuli/002568_2014-06-24_13-59-21_094959634447_rgbf000062-resize_4/002568_2014-06-24_13-59-21_094959634447_rgbf000062-resize_4-target.png,1000,3.015,6,4232,997,feet,jsons/v1_VE1000_randls_20.json,606250,719204,35,Woman
109,915937,DepthScenes,duration_manipulation_targetAtFixation,jsons/v1_VE1000_randls_20.json,http://54.235.29.9/FacialAge/BNav_EC2/DepthDuration/v2_depth_duration_MTurk/v2_DepthDuration_HTML.html#85,85,1881,888,1920,1080,9-18-2022,13-37-46,110,depth_duration_stimuli/002663_2014-06-13_15-50-26_094959634447_rgbf000075-resize_1/002663_2014-06-13_15-50-26_094959634447_rgbf000075-resize_1-target.png,1000,4.7495,9,2857,995,feet,jsons/v1_VE1000_randls_20.json,606250,719204,35,Woman
110,915937,DepthScenes,duration_manipulation_targetAtFixation,jsons/v1_VE1000_randls_20.json,http://54.235.29.9/FacialAge/BNav_EC2/DepthDuration/v2_depth_duration_MTurk/v2_DepthDuration_HTML.html#85,85,1881,888,1920,1080,9-18-2022,13-37-46,111,depth_duration_stimuli/000409_2014-06-04_19-23-33_260595134347_rgbf000067-resize_0/000409_2014-06-04_19-23-33_260595134347_rgbf000067-resize_0-target.png,1000,3.7335,8,2786,1002,feet,jsons/v1_VE1000_randls_20.json,606250,719204,35,Woman
111,915937,DepthScenes,duration_manipulation_targetAtFixation,jsons/v1_VE1000_randls_20.json,http://54.235.29.9/FacialAge/BNav_EC2/DepthDuration/v2_depth_duration_MTurk/v2_DepthDuration_HTML.html#85,85,1881,888,1920,1080,9-18-2022,13-37-46,112,depth_duration_stimuli/003292_2014-05-14_21-53-49_094959634447_rgbf000100-resize_2/003292_2014-05-14_21-53-49_094959634447_rgbf000100-resize_2-target.png,1000,3.4815,5,3121,1008,feet,jsons/v1_VE1000_randls_20.json,606250,719204,35,Woman
112,915937,DepthScenes,duration_manipulation_targetAtFixation,jsons/v1_VE1000_randls_20.json,http://54.235.29.9/FacialAge/BNav_EC2/DepthDuration/v2_depth_duration_MTurk/v2_DepthDuration_HTML.html#85,85,1881,888,1920,1080,9-18-2022,13-37-46,113,depth_duration_stimuli/002639_2014-06-24_14-51-37_094959634447_rgbf000074-resize_4/002639_2014-06-24_14-51-37_094959634447_rgbf000074-resize_4-target.png,1000,4.0375,8,2988,1010,feet,jsons/v1_VE1000_randls_20.json,606250,719204,35,Woman
113,915937,DepthScenes,duration_manipulation_targetAtFixation,jsons/v1_VE1000_randls_20.json,http://54.235.29.9/FacialAge/BNav_EC2/DepthDuration/v2_depth_duration_MTurk/v2_DepthDuration_HTML.html#85,85,1881,888,1920,1080,9-18-2022,13-37-46,114,depth_duration_stimuli/000929_2014-06-09_16-33-19_260595134347_rgbf000139-resize_0/000929_2014-06-09_16-33-19_260595134347_rgbf000139-resize_0-target.png,1000,2.8680000000000003,6,3241,999,feet,jsons/v1_VE1000_randls_20.json,606250,719204,35,Woman
114,915937,DepthScenes,duration_manipulation_targetAtFixation,jsons/v1_VE1000_randls_20.json,http://54.235.29.9/FacialAge/BNav_EC2/DepthDuration/v2_depth_duration_MTurk/v2_DepthDuration_HTML.html#85,85,1881,888,1920,1080,9-18-2022,13-37-46,115,depth_duration_stimuli/000457_2014-06-08_16-52-43_260595134347_rgbf000199-resize_1/000457_2014-06-08_16-52-43_260595134347_rgbf000199-resize_1-target.png,1000,3.6489999999999996,6,2653,997,feet,jsons/v1_VE1000_randls_20.json,606250,719204,35,Woman
115,915937,DepthScenes,duration_manipulation_targetAtFixation,jsons/v1_VE1000_randls_20.json,http://54.235.29.9/FacialAge/BNav_EC2/DepthDuration/v2_depth_duration_MTurk/v2_DepthDuration_HTML.html#85,85,1881,888,1920,1080,9-18-2022,13-37-46,116,depth_duration_stimuli/001170_2014-06-17_15-43-44_260595134347_rgbf000096-resize_6/001170_2014-06-17_15-43-44_260595134347_rgbf000096-resize-original.jpg,1000,1.1909999999999998,0,2844,995,feet,jsons/v1_VE1000_randls_20.json,606250,719204,35,Woman
116,915937,DepthScenes,duration_manipulation_targetAtFixation,jsons/v1_VE1000_randls_20.json,http://54.235.29.9/FacialAge/BNav_EC2/DepthDuration/v2_depth_duration_MTurk/v2_DepthDuration_HTML.html#85,85,1881,888,1920,1080,9-18-2022,13-37-46,117,depth_duration_stimuli/000436_2014-06-09_22-25-11_260595134347_rgbf000137-resize_1/000436_2014-06-09_22-25-11_260595134347_rgbf000137-resize_1-target.png,1000,4.0705,11,3457,994,feet,jsons/v1_VE1000_randls_20.json,606250,719204,35,Woman
117,915937,DepthScenes,duration_manipulation_targetAtFixation,jsons/v1_VE1000_randls_20.json,http://54.235.29.9/FacialAge/BNav_EC2/DepthDuration/v2_depth_duration_MTurk/v2_DepthDuration_HTML.html#85,85,1881,888,1920,1080,9-18-2022,13-37-46,118,depth_duration_stimuli/002444_2014-06-28_20-32-08_260595134347_rgbf000027-resize_0/002444_2014-06-28_20-32-08_260595134347_rgbf000027-resize_0-target.png,1000,4.388999999999999,9,3517,994,feet,jsons/v1_VE1000_randls_20.json,606250,719204,35,Woman
118,915937,DepthScenes,duration_manipulation_targetAtFixation,jsons/v1_VE1000_randls_20.json,http://54.235.29.9/FacialAge/BNav_EC2/DepthDuration/v2_depth_duration_MTurk/v2_DepthDuration_HTML.html#85,85,1881,888,1920,1080,9-18-2022,13-37-46,119,depth_duration_stimuli/001244_2014-06-17_16-47-45_260595134347_rgbf000030-resize_4/001244_2014-06-17_16-47-45_260595134347_rgbf000030-resize_4-target.png,1000,2.0425,4,2697,997,feet,jsons/v1_VE1000_randls_20.json,606250,719204,35,Woman
119,915937,DepthScenes,duration_manipulation_targetAtFixation,jsons/v1_VE1000_randls_20.json,http://54.235.29.9/FacialAge/BNav_EC2/DepthDuration/v2_depth_duration_MTurk/v2_DepthDuration_HTML.html#85,85,1881,888,1920,1080,9-18-2022,13-37-46,120,depth_duration_stimuli/003495_2014-05-21_16-01-51_094959634447_rgbf000100-resize_3/003495_2014-05-21_16-01-51_094959634447_rgbf000100-resize_3-target.png,1000,1.6255,3,2706,997,feet,jsons/v1_VE1000_randls_20.json,606250,719204,35,Woman
120,915937,DepthScenes,duration_manipulation_targetAtFixation,jsons/v1_VE1000_randls_20.json,http://54.235.29.9/FacialAge/BNav_EC2/DepthDuration/v2_depth_duration_MTurk/v2_DepthDuration_HTML.html#85,85,1881,888,1920,1080,9-18-2022,13-37-46,121,depth_duration_stimuli/002905_2014-06-03_18-04-43_094959634447_rgbf000151-resize_2/002905_2014-06-03_18-04-43_094959634447_rgbf000151-resize_2-target.png,1000,2.0295,4,2556,992,feet,jsons/v1_VE1000_randls_20.json,606250,719204,35,Woman
121,915937,DepthScenes,duration_manipulation_targetAtFixation,jsons/v1_VE1000_randls_20.json,http://54.235.29.9/FacialAge/BNav_EC2/DepthDuration/v2_depth_duration_MTurk/v2_DepthDuration_HTML.html#85,85,1881,888,1920,1080,9-18-2022,13-37-46,122,depth_duration_stimuli/003423_2014-05-21_10-23-26_094959634447_rgbf002665-resize_2/003423_2014-05-21_10-23-26_094959634447_rgbf002665-resize_2-target.png,1000,3.2575,8,2756,1002,feet,jsons/v1_VE1000_randls_20.json,606250,719204,35,Woman
122,915937,DepthScenes,duration_manipulation_targetAtFixation,jsons/v1_VE1000_randls_20.json,http://54.235.29.9/FacialAge/BNav_EC2/DepthDuration/v2_depth_duration_MTurk/v2_DepthDuration_HTML.html#85,85,1881,888,1920,1080,9-18-2022,13-37-46,123,depth_duration_stimuli/001133_2014-06-17_14-49-16_260595134347_rgbf000100-resize_0/001133_2014-06-17_14-49-16_260595134347_rgbf000100-resize_0-target.png,1000,4.2115,9,2780,984,feet,jsons/v1_VE1000_randls_20.json,606250,719204,35,Woman
123,915937,DepthScenes,duration_manipulation_targetAtFixation,jsons/v1_VE1000_randls_20.json,http://54.235.29.9/FacialAge/BNav_EC2/DepthDuration/v2_depth_duration_MTurk/v2_DepthDuration_HTML.html#85,85,1881,888,1920,1080,9-18-2022,13-37-46,124,depth_duration_stimuli/001132_2014-06-17_14-48-54_260595134347_rgbf000100-resize_2/001132_2014-06-17_14-48-54_260595134347_rgbf000100-resize_2-target.png,1000,3.753,7,2906,997,feet,jsons/v1_VE1000_randls_20.json,606250,719204,35,Woman
124,915937,DepthScenes,duration_manipulation_targetAtFixation,jsons/v1_VE1000_randls_20.json,http://54.235.29.9/FacialAge/BNav_EC2/DepthDuration/v2_depth_duration_MTurk/v2_DepthDuration_HTML.html#85,85,1881,888,1920,1080,9-18-2022,13-37-46,125,depth_duration_stimuli/000758_2014-06-08_22-05-08_260595134347_rgbf000085-resize_0/000758_2014-06-08_22-05-08_260595134347_rgbf000085-resize_0-target.png,1000,3.3810000000000002,9,3017,988,feet,jsons/v1_VE1000_randls_20.json,606250,719204,35,Woman
125,915937,DepthScenes,duration_manipulation_targetAtFixation,jsons/v1_VE1000_randls_20.json,http://54.235.29.9/FacialAge/BNav_EC2/DepthDuration/v2_depth_duration_MTurk/v2_DepthDuration_HTML.html#85,85,1881,888,1920,1080,9-18-2022,13-37-46,126,depth_duration_stimuli/000854_2014-06-09_19-43-13_260595134347_rgbf000066-resize_0/000854_2014-06-09_19-43-13_260595134347_rgbf000066-resize_0-target.png,1000,3.068,4,2947,999,feet,jsons/v1_VE1000_randls_20.json,606250,719204,35,Woman
126,915937,DepthScenes,duration_manipulation_targetAtFixation,jsons/v1_VE1000_randls_20.json,http://54.235.29.9/FacialAge/BNav_EC2/DepthDuration/v2_depth_duration_MTurk/v2_DepthDuration_HTML.html#85,85,1881,888,1920,1080,9-18-2022,13-37-46,127,depth_duration_stimuli/001016_2014-06-09_16-16-10_260595134347_rgbf000112-resize_5/001016_2014-06-09_16-16-10_260595134347_rgbf000112-resize_5-target.png,1000,1.6565,3,2666,999,feet,jsons/v1_VE1000_randls_20.json,606250,719204,35,Woman
127,915937,DepthScenes,duration_manipulation_targetAtFixation,jsons/v1_VE1000_randls_20.json,http://54.235.29.9/FacialAge/BNav_EC2/DepthDuration/v2_depth_duration_MTurk/v2_DepthDuration_HTML.html#85,85,1881,888,1920,1080,9-18-2022,13-37-46,128,depth_duration_stimuli/002340_2014-06-28_20-05-46_260595134347_rgbf000113-resize_0/002340_2014-06-28_20-05-46_260595134347_rgbf000113-resize_0-target.png,1000,2.4735,6,2436,1000,feet,jsons/v1_VE1000_randls_20.json,606250,719204,35,Woman
128,915937,DepthScenes,duration_manipulation_targetAtFixation,jsons/v1_VE1000_randls_20.json,http://54.235.29.9/FacialAge/BNav_EC2/DepthDuration/v2_depth_duration_MTurk/v2_DepthDuration_HTML.html#85,85,1881,888,1920,1080,9-18-2022,13-37-46,129,depth_duration_stimuli/002445_2014-06-28_20-32-16_260595134347_rgbf000029-resize_4/002445_2014-06-28_20-32-16_260595134347_rgbf000029-resize_4-target.png,1000,2.5315,5,6223,995,feet,jsons/v1_VE1000_randls_20.json,606250,719204,35,Woman
129,915937,DepthScenes,duration_manipulation_targetAtFixation,jsons/v1_VE1000_randls_20.json,http://54.235.29.9/FacialAge/BNav_EC2/DepthDuration/v2_depth_duration_MTurk/v2_DepthDuration_HTML.html#85,85,1881,888,1920,1080,9-18-2022,13-37-46,130,depth_duration_stimuli/000780_2014-06-08_22-28-29_260595134347_rgbf000126-resize_1/000780_2014-06-08_22-28-29_260595134347_rgbf000126-resize_1-target.png,1000,3.3825,7,2621,993,feet,jsons/v1_VE1000_randls_20.json,606250,719204,35,Woman
130,915937,DepthScenes,duration_manipulation_targetAtFixation,jsons/v1_VE1000_randls_20.json,http://54.235.29.9/FacialAge/BNav_EC2/DepthDuration/v2_depth_duration_MTurk/v2_DepthDuration_HTML.html#85,85,1881,888,1920,1080,9-18-2022,13-37-46,131,depth_duration_stimuli/002509_2014-06-24_13-19-22_094959634447_rgbf000077-resize_0/002509_2014-06-24_13-19-22_094959634447_rgbf000077-resize_0-target.png,1000,1.3065,3,3003,1013,feet,jsons/v1_VE1000_randls_20.json,606250,719204,35,Woman
131,915937,DepthScenes,duration_manipulation_targetAtFixation,jsons/v1_VE1000_randls_20.json,http://54.235.29.9/FacialAge/BNav_EC2/DepthDuration/v2_depth_duration_MTurk/v2_DepthDuration_HTML.html#85,85,1881,888,1920,1080,9-18-2022,13-37-46,132,depth_duration_stimuli/003338_2014-05-20_11-01-23_094959634447_rgbf000051-resize_6/003338_2014-05-20_11-01-23_094959634447_rgbf000051-resize_6-target.png,1000,1.693,3,3167,996,feet,jsons/v1_VE1000_randls_20.json,606250,719204,35,Woman
132,915937,DepthScenes,duration_manipulation_targetAtFixation,jsons/v1_VE1000_randls_20.json,http://54.235.29.9/FacialAge/BNav_EC2/DepthDuration/v2_depth_duration_MTurk/v2_DepthDuration_HTML.html#85,85,1881,888,1920,1080,9-18-2022,13-37-46,133,depth_duration_stimuli/002272_2014-06-28_18-53-56_260595134347_rgbf000067-resize_2/002272_2014-06-28_18-53-56_260595134347_rgbf000067-resize_2-target.png,1000,1.138,2,2589,985,feet,jsons/v1_VE1000_randls_20.json,606250,719204,35,Woman
133,915937,DepthScenes,duration_manipulation_targetAtFixation,jsons/v1_VE1000_randls_20.json,http://54.235.29.9/FacialAge/BNav_EC2/DepthDuration/v2_depth_duration_MTurk/v2_DepthDuration_HTML.html#85,85,1881,888,1920,1080,9-18-2022,13-37-46,134,depth_duration_stimuli/001571_2014-06-20_17-21-32_260595134347_rgbf000089-resize_1/001571_2014-06-20_17-21-32_260595134347_rgbf000089-resize_1-target.png,1000,1.86,4,2612,992,feet,jsons/v1_VE1000_randls_20.json,606250,719204,35,Woman
134,915937,DepthScenes,duration_manipulation_targetAtFixation,jsons/v1_VE1000_randls_20.json,http://54.235.29.9/FacialAge/BNav_EC2/DepthDuration/v2_depth_duration_MTurk/v2_DepthDuration_HTML.html#85,85,1881,888,1920,1080,9-18-2022,13-37-46,135,depth_duration_stimuli/002072_2014-06-24_21-48-06_260595134347_rgbf000115-resize_0/002072_2014-06-24_21-48-06_260595134347_rgbf000115-resize-original.jpg,1000,4.702,0,3398,986,feet,jsons/v1_VE1000_randls_20.json,606250,719204,35,Woman
135,915937,DepthScenes,duration_manipulation_targetAtFixation,jsons/v1_VE1000_randls_20.json,http://54.235.29.9/FacialAge/BNav_EC2/DepthDuration/v2_depth_duration_MTurk/v2_DepthDuration_HTML.html#85,85,1881,888,1920,1080,9-18-2022,13-37-46,136,depth_duration_stimuli/000447_2014-06-08_16-15-46_260595134347_rgbf000130-resize_1/000447_2014-06-08_16-15-46_260595134347_rgbf000130-resize_1-target.png,1000,4.479,8,3024,995,feet,jsons/v1_VE1000_randls_20.json,606250,719204,35,Woman
136,915937,DepthScenes,duration_manipulation_targetAtFixation,jsons/v1_VE1000_randls_20.json,http://54.235.29.9/FacialAge/BNav_EC2/DepthDuration/v2_depth_duration_MTurk/v2_DepthDuration_HTML.html#85,85,1881,888,1920,1080,9-18-2022,13-37-46,137,depth_duration_stimuli/001447_2014-06-19_17-00-32_260595134347_rgbf000082-resize_5/001447_2014-06-19_17-00-32_260595134347_rgbf000082-resize_5-target.png,1000,4.13775,6,3327,998,feet,jsons/v1_VE1000_randls_20.json,606250,719204,35,Woman
137,915937,DepthScenes,duration_manipulation_targetAtFixation,jsons/v1_VE1000_randls_20.json,http://54.235.29.9/FacialAge/BNav_EC2/DepthDuration/v2_depth_duration_MTurk/v2_DepthDuration_HTML.html#85,85,1881,888,1920,1080,9-18-2022,13-37-46,138,depth_duration_stimuli/000009_2014-05-26_14-32-05_260595134347_rgbf000034-resize_3/000009_2014-05-26_14-32-05_260595134347_rgbf000034-resize_3-target.png,1000,3.8715,9,2800,996,feet,jsons/v1_VE1000_randls_20.json,606250,719204,35,Woman
138,915937,DepthScenes,duration_manipulation_targetAtFixation,jsons/v1_VE1000_randls_20.json,http://54.235.29.9/FacialAge/BNav_EC2/DepthDuration/v2_depth_duration_MTurk/v2_DepthDuration_HTML.html#85,85,1881,888,1920,1080,9-18-2022,13-37-46,139,depth_duration_stimuli/001828_2014-06-26_21-40-03_260595134347_rgbf000024-resize_0/001828_2014-06-26_21-40-03_260595134347_rgbf000024-resize_0-target.png,1000,4.8260000000000005,8,2898,997,feet,jsons/v1_VE1000_randls_20.json,606250,719204,35,Woman
139,915937,DepthScenes,duration_manipulation_targetAtFixation,jsons/v1_VE1000_randls_20.json,http://54.235.29.9/FacialAge/BNav_EC2/DepthDuration/v2_depth_duration_MTurk/v2_DepthDuration_HTML.html#85,85,1881,888,1920,1080,9-18-2022,13-37-46,140,depth_duration_stimuli/000368_2014-06-09_15-53-01_260595134347_rgbf000155-resize_2/000368_2014-06-09_15-53-01_260595134347_rgbf000155-resize_2-target.png,1000,2.4859999999999998,6,2905,996,feet,jsons/v1_VE1000_randls_20.json,606250,719204,35,Woman
140,915937,DepthScenes,duration_manipulation_targetAtFixation,jsons/v1_VE1000_randls_20.json,http://54.235.29.9/FacialAge/BNav_EC2/DepthDuration/v2_depth_duration_MTurk/v2_DepthDuration_HTML.html#85,85,1881,888,1920,1080,9-18-2022,13-37-46,141,depth_duration_stimuli/002678_2014-06-13_16-15-32_094959634447_rgbf000151-resize_6/002678_2014-06-13_16-15-32_094959634447_rgbf000151-resize_6-target.png,1000,2.1830000000000003,4,3156,1000,feet,jsons/v1_VE1000_randls_20.json,606250,719204,35,Woman
141,915937,DepthScenes,duration_manipulation_targetAtFixation,jsons/v1_VE1000_randls_20.json,http://54.235.29.9/FacialAge/BNav_EC2/DepthDuration/v2_depth_duration_MTurk/v2_DepthDuration_HTML.html#85,85,1881,888,1920,1080,9-18-2022,13-37-46,142,depth_duration_stimuli/001175_2014-06-17_15-45-55_260595134347_rgbf000129-resize_4/001175_2014-06-17_15-45-55_260595134347_rgbf000129-resize_4-target.png,1000,4.255,9,3377,997,feet,jsons/v1_VE1000_randls_20.json,606250,719204,35,Woman
142,915937,DepthScenes,duration_manipulation_targetAtFixation,jsons/v1_VE1000_randls_20.json,http://54.235.29.9/FacialAge/BNav_EC2/DepthDuration/v2_depth_duration_MTurk/v2_DepthDuration_HTML.html#85,85,1881,888,1920,1080,9-18-2022,13-37-46,143,depth_duration_stimuli/003490_2014-05-21_15-50-11_094959634447_rgbf000101-resize_3/003490_2014-05-21_15-50-11_094959634447_rgbf000101-resize_3-target.png,1000,3.6445,7,3337,989,feet,jsons/v1_VE1000_randls_20.json,606250,719204,35,Woman
143,915937,DepthScenes,duration_manipulation_targetAtFixation,jsons/v1_VE1000_randls_20.json,http://54.235.29.9/FacialAge/BNav_EC2/DepthDuration/v2_depth_duration_MTurk/v2_DepthDuration_HTML.html#85,85,1881,888,1920,1080,9-18-2022,13-37-46,144,depth_duration_stimuli/001158_2014-06-17_15-32-16_260595134347_rgbf000138-resize_2/001158_2014-06-17_15-32-16_260595134347_rgbf000138-resize_2-target.png,1000,4.5315,12,4653,994,feet,jsons/v1_VE1000_randls_20.json,606250,719204,35,Woman
144,915937,DepthScenes,duration_manipulation_targetAtFixation,jsons/v1_VE1000_randls_20.json,http://54.235.29.9/FacialAge/BNav_EC2/DepthDuration/v2_depth_duration_MTurk/v2_DepthDuration_HTML.html#85,85,1881,888,1920,1080,9-18-2022,13-37-46,145,depth_duration_stimuli/000556_2014-06-09_22-42-56_260595134347_rgbf000214-resize_1/000556_2014-06-09_22-42-56_260595134347_rgbf000214-resize_1-target.png,1000,4.8415,8,3155,1000,feet,jsons/v1_VE1000_randls_20.json,606250,719204,35,Woman
145,915937,DepthScenes,duration_manipulation_targetAtFixation,jsons/v1_VE1000_randls_20.json,http://54.235.29.9/FacialAge/BNav_EC2/DepthDuration/v2_depth_duration_MTurk/v2_DepthDuration_HTML.html#85,85,1881,888,1920,1080,9-18-2022,13-37-46,146,depth_duration_stimuli/001498_2014-06-19_17-45-14_260595134347_rgbf000129-resize_4/001498_2014-06-19_17-45-14_260595134347_rgbf000129-resize-original.jpg,1000,1.4075,0,2949,997,feet,jsons/v1_VE1000_randls_20.json,606250,719204,35,Woman
146,915937,DepthScenes,duration_manipulation_targetAtFixation,jsons/v1_VE1000_randls_20.json,http://54.235.29.9/FacialAge/BNav_EC2/DepthDuration/v2_depth_duration_MTurk/v2_DepthDuration_HTML.html#85,85,1881,888,1920,1080,9-18-2022,13-37-46,147,depth_duration_stimuli/002725_2014-06-22_11-47-51_094959634447_rgbf000070-resize_1/002725_2014-06-22_11-47-51_094959634447_rgbf000070-resize_1-target.png,1000,2.195,5,2902,997,feet,jsons/v1_VE1000_randls_20.json,606250,719204,35,Woman
147,915937,DepthScenes,duration_manipulation_targetAtFixation,jsons/v1_VE1000_randls_20.json,http://54.235.29.9/FacialAge/BNav_EC2/DepthDuration/v2_depth_duration_MTurk/v2_DepthDuration_HTML.html#85,85,1881,888,1920,1080,9-18-2022,13-37-46,148,depth_duration_stimuli/002344_2014-06-28_20-06-29_260595134347_rgbf000030-resize_1/002344_2014-06-28_20-06-29_260595134347_rgbf000030-resize_1-target.png,1000,1.5795,3,2691,1002,feet,jsons/v1_VE1000_randls_20.json,606250,719204,35,Woman
148,915937,DepthScenes,duration_manipulation_targetAtFixation,jsons/v1_VE1000_randls_20.json,http://54.235.29.9/FacialAge/BNav_EC2/DepthDuration/v2_depth_duration_MTurk/v2_DepthDuration_HTML.html#85,85,1881,888,1920,1080,9-18-2022,13-37-46,149,depth_duration_stimuli/002570_2014-06-24_13-59-54_094959634447_rgbf000059-resize_0/002570_2014-06-24_13-59-54_094959634447_rgbf000059-resize_0-target.png,1000,4.037,6,2608,989,feet,jsons/v1_VE1000_randls_20.json,606250,719204,35,Woman
149,915937,DepthScenes,duration_manipulation_targetAtFixation,jsons/v1_VE1000_randls_20.json,http://54.235.29.9/FacialAge/BNav_EC2/DepthDuration/v2_depth_duration_MTurk/v2_DepthDuration_HTML.html#85,85,1881,888,1920,1080,9-18-2022,13-37-46,150,depth_duration_stimuli/002467_2014-06-28_20-38-07_260595134347_rgbf000026-resize_2/002467_2014-06-28_20-38-07_260595134347_rgbf000026-resize_2-target.png,1000,4.742,5,4600,1004,feet,jsons/v1_VE1000_randls_20.json,606250,719204,35,Woman
150,915937,DepthScenes,duration_manipulation_targetAtFixation,jsons/v1_VE1000_randls_20.json,http://54.235.29.9/FacialAge/BNav_EC2/DepthDuration/v2_depth_duration_MTurk/v2_DepthDuration_HTML.html#85,85,1881,888,1920,1080,9-18-2022,13-37-46,151,depth_duration_stimuli/001570_2014-06-20_17-21-09_260595134347_rgbf000135-resize_4/001570_2014-06-20_17-21-09_260595134347_rgbf000135-resize_4-target.png,1000,4.467,7,3515,1001,feet,jsons/v1_VE1000_randls_20.json,606250,719204,35,Woman
151,915937,DepthScenes,duration_manipulation_targetAtFixation,jsons/v1_VE1000_randls_20.json,http://54.235.29.9/FacialAge/BNav_EC2/DepthDuration/v2_depth_duration_MTurk/v2_DepthDuration_HTML.html#85,85,1881,888,1920,1080,9-18-2022,13-37-46,152,depth_duration_stimuli/001392_2014-06-19_16-07-59_260595134347_rgbf000046-resize_1/001392_2014-06-19_16-07-59_260595134347_rgbf000046-resize_1-target.png,1000,4.135,9,4080,999,feet,jsons/v1_VE1000_randls_20.json,606250,719204,35,Woman
152,915937,DepthScenes,duration_manipulation_targetAtFixation,jsons/v1_VE1000_randls_20.json,http://54.235.29.9/FacialAge/BNav_EC2/DepthDuration/v2_depth_duration_MTurk/v2_DepthDuration_HTML.html#85,85,1881,888,1920,1080,9-18-2022,13-37-46,153,depth_duration_stimuli/000788_2014-06-08_22-34-36_260595134347_rgbf000131-resize_1/000788_2014-06-08_22-34-36_260595134347_rgbf000131-resize_1-target.png,1000,3.359,5,3250,1004,feet,jsons/v1_VE1000_randls_20.json,606250,719204,35,Woman
153,915937,DepthScenes,duration_manipulation_targetAtFixation,jsons/v1_VE1000_randls_20.json,http://54.235.29.9/FacialAge/BNav_EC2/DepthDuration/v2_depth_duration_MTurk/v2_DepthDuration_HTML.html#85,85,1881,888,1920,1080,9-18-2022,13-37-46,154,depth_duration_stimuli/001235_2014-06-17_16-37-36_260595134347_rgbf000084-resize_4/001235_2014-06-17_16-37-36_260595134347_rgbf000084-resize_4-target.png,1000,3.6605,6,3443,1002,feet,jsons/v1_VE1000_randls_20.json,606250,719204,35,Woman
154,915937,DepthScenes,duration_manipulation_targetAtFixation,jsons/v1_VE1000_randls_20.json,http://54.235.29.9/FacialAge/BNav_EC2/DepthDuration/v2_depth_duration_MTurk/v2_DepthDuration_HTML.html#85,85,1881,888,1920,1080,9-18-2022,13-37-46,155,depth_duration_stimuli/001417_2014-06-19_16-25-36_260595134347_rgbf000115-resize_5/001417_2014-06-19_16-25-36_260595134347_rgbf000115-resize_5-target.png,1000,4.6255,7,2930,999,feet,jsons/v1_VE1000_randls_20.json,606250,719204,35,Woman
155,915937,DepthScenes,duration_manipulation_targetAtFixation,jsons/v1_VE1000_randls_20.json,http://54.235.29.9/FacialAge/BNav_EC2/DepthDuration/v2_depth_duration_MTurk/v2_DepthDuration_HTML.html#85,85,1881,888,1920,1080,9-18-2022,13-37-46,156,depth_duration_stimuli/003081_2014-06-15_15-19-16_094959634447_rgbf000150-resize_1/003081_2014-06-15_15-19-16_094959634447_rgbf000150-resize_1-target.png,1000,3.9125,8,3061,994,feet,jsons/v1_VE1000_randls_20.json,606250,719204,35,Woman
156,915937,DepthScenes,duration_manipulation_targetAtFixation,jsons/v1_VE1000_randls_20.json,http://54.235.29.9/FacialAge/BNav_EC2/DepthDuration/v2_depth_duration_MTurk/v2_DepthDuration_HTML.html#85,85,1881,888,1920,1080,9-18-2022,13-37-46,157,depth_duration_stimuli/000642_2014-06-08_16-59-25_260595134347_rgbf000098-resize_2/000642_2014-06-08_16-59-25_260595134347_rgbf000098-resize_2-target.png,1000,2.8815,5,2715,1000,feet,jsons/v1_VE1000_randls_20.json,606250,719204,35,Woman
157,915937,DepthScenes,duration_manipulation_targetAtFixation,jsons/v1_VE1000_randls_20.json,http://54.235.29.9/FacialAge/BNav_EC2/DepthDuration/v2_depth_duration_MTurk/v2_DepthDuration_HTML.html#85,85,1881,888,1920,1080,9-18-2022,13-37-46,158,depth_duration_stimuli/002425_2014-06-28_20-27-29_260595134347_rgbf000031-resize_8/002425_2014-06-28_20-27-29_260595134347_rgbf000031-resize_8-target.png,1000,3.8960000000000004,7,2878,986,feet,jsons/v1_VE1000_randls_20.json,606250,719204,35,Woman
158,915937,DepthScenes,duration_manipulation_targetAtFixation,jsons/v1_VE1000_randls_20.json,http://54.235.29.9/FacialAge/BNav_EC2/DepthDuration/v2_depth_duration_MTurk/v2_DepthDuration_HTML.html#85,85,1881,888,1920,1080,9-18-2022,13-37-46,159,depth_duration_stimuli/000917_2014-06-09_22-45-29_260595134347_rgbf000149-resize_3/000917_2014-06-09_22-45-29_260595134347_rgbf000149-resize_3-target.png,1000,4.1865,7,3249,997,feet,jsons/v1_VE1000_randls_20.json,606250,719204,35,Woman
159,915937,DepthScenes,duration_manipulation_targetAtFixation,jsons/v1_VE1000_randls_20.json,http://54.235.29.9/FacialAge/BNav_EC2/DepthDuration/v2_depth_duration_MTurk/v2_DepthDuration_HTML.html#85,85,1881,888,1920,1080,9-18-2022,13-37-46,160,depth_duration_stimuli/002323_2014-06-28_20-01-54_260595134347_rgbf000051-resize_4/002323_2014-06-28_20-01-54_260595134347_rgbf000051-resize_4-target.png,1000,3.7310000000000003,9,4915,992,feet,jsons/v1_VE1000_randls_20.json,606250,719204,35,Woman
160,915937,DepthScenes,duration_manipulation_targetAtFixation,jsons/v1_VE1000_randls_20.json,http://54.235.29.9/FacialAge/BNav_EC2/DepthDuration/v2_depth_duration_MTurk/v2_DepthDuration_HTML.html#85,85,1881,888,1920,1080,9-18-2022,13-37-46,161,depth_duration_stimuli/002988_2014-06-15_12-24-20_094959634447_rgbf000150-resize_1/002988_2014-06-15_12-24-20_094959634447_rgbf000150-resize_1-target.png,1000,4.7669999999999995,8,3286,998,feet,jsons/v1_VE1000_randls_20.json,606250,719204,35,Woman
161,915937,DepthScenes,duration_manipulation_targetAtFixation,jsons/v1_VE1000_randls_20.json,http://54.235.29.9/FacialAge/BNav_EC2/DepthDuration/v2_depth_duration_MTurk/v2_DepthDuration_HTML.html#85,85,1881,888,1920,1080,9-18-2022,13-37-46,162,depth_duration_stimuli/001052_2014-06-08_18-24-54_260595134347_rgbf000130-resize_1/001052_2014-06-08_18-24-54_260595134347_rgbf000130-resize_1-target.png,1000,4.1045,7,3679,1011,feet,jsons/v1_VE1000_randls_20.json,606250,719204,35,Woman
162,915937,DepthScenes,duration_manipulation_targetAtFixation,jsons/v1_VE1000_randls_20.json,http://54.235.29.9/FacialAge/BNav_EC2/DepthDuration/v2_depth_duration_MTurk/v2_DepthDuration_HTML.html#85,85,1881,888,1920,1080,9-18-2022,13-37-46,163,depth_duration_stimuli/003621_2014-05-23_18-06-08_094959634447_rgbf000101-resize_1/003621_2014-05-23_18-06-08_094959634447_rgbf000101-resize_1-target.png,1000,3.9835,9,2650,992,feet,jsons/v1_VE1000_randls_20.json,606250,719204,35,Woman
163,915937,DepthScenes,duration_manipulation_targetAtFixation,jsons/v1_VE1000_randls_20.json,http://54.235.29.9/FacialAge/BNav_EC2/DepthDuration/v2_depth_duration_MTurk/v2_DepthDuration_HTML.html#85,85,1881,888,1920,1080,9-18-2022,13-37-46,164,depth_duration_stimuli/001584_2014-06-20_11-07-43_260595134347_rgbf000002-resize_1/001584_2014-06-20_11-07-43_260595134347_rgbf000002-resize_1-target.png,1000,3.53,6,3418,999,feet,jsons/v1_VE1000_randls_20.json,606250,719204,35,Woman
