,subjID,experimentName,versionName,sequenceName,url,selected_row,windowWidth,windowHeight,screenWidth,screenHeight,startDate,startTime,trial,stimulus,duration,actual_depth,depth_estimate,trial_RT,log_sceneDuration,unitSelection,seq_filepath,experimentTime,totalTime,age,gender
0,916587,DepthScenes,duration_manipulation_targetAtFixation,jsons/v1_VE1000_randls_22_rotated.json,http://54.235.29.9/FacialAge/BNav_EC2/DepthDuration/v2_depth_duration_MTurk/v2_DepthDuration_HTML.html#33,33,1366,768,1366,768,8-22-2022,8-28-57,1,depth_duration_stimuli/002545_2014-06-24_13-38-53_094959634447_rgbf000080-resize_4/002545_2014-06-24_13-38-53_094959634447_rgbf000080-resize_4-target.png,1000,1.9205,2,4763,1000,meters,jsons/v1_VE1000_randls_22_rotated.json,984528,1147338,29,Man
1,916587,DepthScenes,duration_manipulation_targetAtFixation,jsons/v1_VE1000_randls_22_rotated.json,http://54.235.29.9/FacialAge/BNav_EC2/DepthDuration/v2_depth_duration_MTurk/v2_DepthDuration_HTML.html#33,33,1366,768,1366,768,8-22-2022,8-28-57,2,depth_duration_stimuli/001092_2014-06-15_17-34-58_260595134347_rgbf000171-resize_3/001092_2014-06-15_17-34-58_260595134347_rgbf000171-resize_3-target.png,1000,2.6935,3,3700,1000,meters,jsons/v1_VE1000_randls_22_rotated.json,984528,1147338,29,Man
2,916587,DepthScenes,duration_manipulation_targetAtFixation,jsons/v1_VE1000_randls_22_rotated.json,http://54.235.29.9/FacialAge/BNav_EC2/DepthDuration/v2_depth_duration_MTurk/v2_DepthDuration_HTML.html#33,33,1366,768,1366,768,8-22-2022,8-28-57,3,depth_duration_stimuli/002678_2014-06-13_16-15-32_094959634447_rgbf000151-resize_6/002678_2014-06-13_16-15-32_094959634447_rgbf000151-resize_6-target.png,1000,2.1830000000000003,3,6162,999,meters,jsons/v1_VE1000_randls_22_rotated.json,984528,1147338,29,Man
3,916587,DepthScenes,duration_manipulation_targetAtFixation,jsons/v1_VE1000_randls_22_rotated.json,http://54.235.29.9/FacialAge/BNav_EC2/DepthDuration/v2_depth_duration_MTurk/v2_DepthDuration_HTML.html#33,33,1366,768,1366,768,8-22-2022,8-28-57,4,depth_duration_stimuli/000368_2014-06-09_15-53-01_260595134347_rgbf000155-resize_2/000368_2014-06-09_15-53-01_260595134347_rgbf000155-resize_2-target.png,1000,2.4859999999999998,2,3912,1001,meters,jsons/v1_VE1000_randls_22_rotated.json,984528,1147338,29,Man
4,916587,DepthScenes,duration_manipulation_targetAtFixation,jsons/v1_VE1000_randls_22_rotated.json,http://54.235.29.9/FacialAge/BNav_EC2/DepthDuration/v2_depth_duration_MTurk/v2_DepthDuration_HTML.html#33,33,1366,768,1366,768,8-22-2022,8-28-57,5,depth_duration_stimuli/001571_2014-06-20_17-21-32_260595134347_rgbf000089-resize_1/001571_2014-06-20_17-21-32_260595134347_rgbf000089-resize_1-target.png,1000,1.86,4,6813,999,meters,jsons/v1_VE1000_randls_22_rotated.json,984528,1147338,29,Man
5,916587,DepthScenes,duration_manipulation_targetAtFixation,jsons/v1_VE1000_randls_22_rotated.json,http://54.235.29.9/FacialAge/BNav_EC2/DepthDuration/v2_depth_duration_MTurk/v2_DepthDuration_HTML.html#33,33,1366,768,1366,768,8-22-2022,8-28-57,6,depth_duration_stimuli/002272_2014-06-28_18-53-56_260595134347_rgbf000067-resize_2/002272_2014-06-28_18-53-56_260595134347_rgbf000067-resize_2-target.png,1000,1.138,3,4873,1000,meters,jsons/v1_VE1000_randls_22_rotated.json,984528,1147338,29,Man
6,916587,DepthScenes,duration_manipulation_targetAtFixation,jsons/v1_VE1000_randls_22_rotated.json,http://54.235.29.9/FacialAge/BNav_EC2/DepthDuration/v2_depth_duration_MTurk/v2_DepthDuration_HTML.html#33,33,1366,768,1366,768,8-22-2022,8-28-57,7,depth_duration_stimuli/002414_2014-06-28_20-24-58_260595134347_rgbf000067-resize_4/002414_2014-06-28_20-24-58_260595134347_rgbf000067-resize_4-target.png,1000,4.363,3,6785,1001,meters,jsons/v1_VE1000_randls_22_rotated.json,984528,1147338,29,Man
7,916587,DepthScenes,duration_manipulation_targetAtFixation,jsons/v1_VE1000_randls_22_rotated.json,http://54.235.29.9/FacialAge/BNav_EC2/DepthDuration/v2_depth_duration_MTurk/v2_DepthDuration_HTML.html#33,33,1366,768,1366,768,8-22-2022,8-28-57,8,depth_duration_stimuli/000773_2014-06-08_22-24-54_260595134347_rgbf000093-resize_1/000773_2014-06-08_22-24-54_260595134347_rgbf000093-resize_1-target.png,1000,4.973,2,4389,1000,meters,jsons/v1_VE1000_randls_22_rotated.json,984528,1147338,29,Man
8,916587,DepthScenes,duration_manipulation_targetAtFixation,jsons/v1_VE1000_randls_22_rotated.json,http://54.235.29.9/FacialAge/BNav_EC2/DepthDuration/v2_depth_duration_MTurk/v2_DepthDuration_HTML.html#33,33,1366,768,1366,768,8-22-2022,8-28-57,9,depth_duration_stimuli/000556_2014-06-09_22-42-56_260595134347_rgbf000214-resize_1/000556_2014-06-09_22-42-56_260595134347_rgbf000214-resize_1-target.png,1000,4.8415,1,7489,1001,meters,jsons/v1_VE1000_randls_22_rotated.json,984528,1147338,29,Man
9,916587,DepthScenes,duration_manipulation_targetAtFixation,jsons/v1_VE1000_randls_22_rotated.json,http://54.235.29.9/FacialAge/BNav_EC2/DepthDuration/v2_depth_duration_MTurk/v2_DepthDuration_HTML.html#33,33,1366,768,1366,768,8-22-2022,8-28-57,10,depth_duration_stimuli/001158_2014-06-17_15-32-16_260595134347_rgbf000138-resize_2/001158_2014-06-17_15-32-16_260595134347_rgbf000138-resize_2-target.png,1000,4.5315,3,4475,999,meters,jsons/v1_VE1000_randls_22_rotated.json,984528,1147338,29,Man
10,916587,DepthScenes,duration_manipulation_targetAtFixation,jsons/v1_VE1000_randls_22_rotated.json,http://54.235.29.9/FacialAge/BNav_EC2/DepthDuration/v2_depth_duration_MTurk/v2_DepthDuration_HTML.html#33,33,1366,768,1366,768,8-22-2022,8-28-57,11,depth_duration_stimuli/001132_2014-06-17_14-48-54_260595134347_rgbf000100-resize_2/001132_2014-06-17_14-48-54_260595134347_rgbf000100-resize_2-target.png,1000,3.753,2,6766,1001,meters,jsons/v1_VE1000_randls_22_rotated.json,984528,1147338,29,Man
11,916587,DepthScenes,duration_manipulation_targetAtFixation,jsons/v1_VE1000_randls_22_rotated.json,http://54.235.29.9/FacialAge/BNav_EC2/DepthDuration/v2_depth_duration_MTurk/v2_DepthDuration_HTML.html#33,33,1366,768,1366,768,8-22-2022,8-28-57,12,depth_duration_stimuli/001133_2014-06-17_14-49-16_260595134347_rgbf000100-resize_0/001133_2014-06-17_14-49-16_260595134347_rgbf000100-resize_0-target.png,1000,4.2115,2,3454,999,meters,jsons/v1_VE1000_randls_22_rotated.json,984528,1147338,29,Man
12,916587,DepthScenes,duration_manipulation_targetAtFixation,jsons/v1_VE1000_randls_22_rotated.json,http://54.235.29.9/FacialAge/BNav_EC2/DepthDuration/v2_depth_duration_MTurk/v2_DepthDuration_HTML.html#33,33,1366,768,1366,768,8-22-2022,8-28-57,13,depth_duration_stimuli/001100_2014-06-15_17-46-26_260595134347_rgbf000225-resize_2/001100_2014-06-15_17-46-26_260595134347_rgbf000225-resize_2-target.png,1000,2.24,3,8602,1000,meters,jsons/v1_VE1000_randls_22_rotated.json,984528,1147338,29,Man
13,916587,DepthScenes,duration_manipulation_targetAtFixation,jsons/v1_VE1000_randls_22_rotated.json,http://54.235.29.9/FacialAge/BNav_EC2/DepthDuration/v2_depth_duration_MTurk/v2_DepthDuration_HTML.html#33,33,1366,768,1366,768,8-22-2022,8-28-57,14,depth_duration_stimuli/002784_2014-06-22_19-26-30_094959634447_rgbf000083-resize_3/002784_2014-06-22_19-26-30_094959634447_rgbf000083-resize_3-target.png,1000,1.8046666666667,2,4215,1000,meters,jsons/v1_VE1000_randls_22_rotated.json,984528,1147338,29,Man
14,916587,DepthScenes,duration_manipulation_targetAtFixation,jsons/v1_VE1000_randls_22_rotated.json,http://54.235.29.9/FacialAge/BNav_EC2/DepthDuration/v2_depth_duration_MTurk/v2_DepthDuration_HTML.html#33,33,1366,768,1366,768,8-22-2022,8-28-57,15,depth_duration_stimuli/000927_2014-06-09_16-32-30_260595134347_rgbf000123-resize_3/000927_2014-06-09_16-32-30_260595134347_rgbf000123-resize_3-target.png,1000,2.6785,2,6725,1000,meters,jsons/v1_VE1000_randls_22_rotated.json,984528,1147338,29,Man
15,916587,DepthScenes,duration_manipulation_targetAtFixation,jsons/v1_VE1000_randls_22_rotated.json,http://54.235.29.9/FacialAge/BNav_EC2/DepthDuration/v2_depth_duration_MTurk/v2_DepthDuration_HTML.html#33,33,1366,768,1366,768,8-22-2022,8-28-57,16,depth_duration_stimuli/001110_2014-06-15_17-25-28_260595134347_rgbf000150-resize_1/001110_2014-06-15_17-25-28_260595134347_rgbf000150-resize_1-target.png,1000,1.7115,2,4561,1001,meters,jsons/v1_VE1000_randls_22_rotated.json,984528,1147338,29,Man
16,916587,DepthScenes,duration_manipulation_targetAtFixation,jsons/v1_VE1000_randls_22_rotated.json,http://54.235.29.9/FacialAge/BNav_EC2/DepthDuration/v2_depth_duration_MTurk/v2_DepthDuration_HTML.html#33,33,1366,768,1366,768,8-22-2022,8-28-57,17,depth_duration_stimuli/001052_2014-06-08_18-24-54_260595134347_rgbf000130-resize_1/001052_2014-06-08_18-24-54_260595134347_rgbf000130-resize_1-target.png,1000,4.1045,2,7592,1000,meters,jsons/v1_VE1000_randls_22_rotated.json,984528,1147338,29,Man
17,916587,DepthScenes,duration_manipulation_targetAtFixation,jsons/v1_VE1000_randls_22_rotated.json,http://54.235.29.9/FacialAge/BNav_EC2/DepthDuration/v2_depth_duration_MTurk/v2_DepthDuration_HTML.html#33,33,1366,768,1366,768,8-22-2022,8-28-57,18,depth_duration_stimuli/002988_2014-06-15_12-24-20_094959634447_rgbf000150-resize_1/002988_2014-06-15_12-24-20_094959634447_rgbf000150-resize_1-target.png,1000,4.7669999999999995,3,4137,999,meters,jsons/v1_VE1000_randls_22_rotated.json,984528,1147338,29,Man
18,916587,DepthScenes,duration_manipulation_targetAtFixation,jsons/v1_VE1000_randls_22_rotated.json,http://54.235.29.9/FacialAge/BNav_EC2/DepthDuration/v2_depth_duration_MTurk/v2_DepthDuration_HTML.html#33,33,1366,768,1366,768,8-22-2022,8-28-57,19,depth_duration_stimuli/001498_2014-06-19_17-45-14_260595134347_rgbf000129-resize_4/001498_2014-06-19_17-45-14_260595134347_rgbf000129-resize-original.jpg,1000,1.4075,0,7707,1000,meters,jsons/v1_VE1000_randls_22_rotated.json,984528,1147338,29,Man
19,916587,DepthScenes,duration_manipulation_targetAtFixation,jsons/v1_VE1000_randls_22_rotated.json,http://54.235.29.9/FacialAge/BNav_EC2/DepthDuration/v2_depth_duration_MTurk/v2_DepthDuration_HTML.html#33,33,1366,768,1366,768,8-22-2022,8-28-57,20,depth_duration_stimuli/001650_2014-06-20_12-09-00_260595134347_rgbf000087-resize_3/001650_2014-06-20_12-09-00_260595134347_rgbf000087-resize_3-target.png,1000,1.9505,4,8298,1000,meters,jsons/v1_VE1000_randls_22_rotated.json,984528,1147338,29,Man
20,916587,DepthScenes,duration_manipulation_targetAtFixation,jsons/v1_VE1000_randls_22_rotated.json,http://54.235.29.9/FacialAge/BNav_EC2/DepthDuration/v2_depth_duration_MTurk/v2_DepthDuration_HTML.html#33,33,1366,768,1366,768,8-22-2022,8-28-57,21,depth_duration_stimuli/000682_2014-06-08_23-14-58_260595134347_rgbf000041-resize_5/000682_2014-06-08_23-14-58_260595134347_rgbf000041-resize_5-target.png,1000,2.7239999999999998,3,4912,1000,meters,jsons/v1_VE1000_randls_22_rotated.json,984528,1147338,29,Man
21,916587,DepthScenes,duration_manipulation_targetAtFixation,jsons/v1_VE1000_randls_22_rotated.json,http://54.235.29.9/FacialAge/BNav_EC2/DepthDuration/v2_depth_duration_MTurk/v2_DepthDuration_HTML.html#33,33,1366,768,1366,768,8-22-2022,8-28-57,22,depth_duration_stimuli/000742_2014-06-08_18-48-09_260595134347_rgbf000164-resize_4/000742_2014-06-08_18-48-09_260595134347_rgbf000164-resize_4-target.png,1000,4.632,3,7084,1000,meters,jsons/v1_VE1000_randls_22_rotated.json,984528,1147338,29,Man
22,916587,DepthScenes,duration_manipulation_targetAtFixation,jsons/v1_VE1000_randls_22_rotated.json,http://54.235.29.9/FacialAge/BNav_EC2/DepthDuration/v2_depth_duration_MTurk/v2_DepthDuration_HTML.html#33,33,1366,768,1366,768,8-22-2022,8-28-57,23,depth_duration_stimuli/001066_2014-06-08_22-03-20_260595134347_rgbf000066-resize_4/001066_2014-06-08_22-03-20_260595134347_rgbf000066-resize_4-target.png,1000,4.2330000000000005,4,4089,1000,meters,jsons/v1_VE1000_randls_22_rotated.json,984528,1147338,29,Man
23,916587,DepthScenes,duration_manipulation_targetAtFixation,jsons/v1_VE1000_randls_22_rotated.json,http://54.235.29.9/FacialAge/BNav_EC2/DepthDuration/v2_depth_duration_MTurk/v2_DepthDuration_HTML.html#33,33,1366,768,1366,768,8-22-2022,8-28-57,24,depth_duration_stimuli/000549_2014-06-08_22-10-24_260595134347_rgbf000247-resize_3/000549_2014-06-08_22-10-24_260595134347_rgbf000247-resize_3-target.png,1000,1.841,2,8051,999,meters,jsons/v1_VE1000_randls_22_rotated.json,984528,1147338,29,Man
24,916587,DepthScenes,duration_manipulation_targetAtFixation,jsons/v1_VE1000_randls_22_rotated.json,http://54.235.29.9/FacialAge/BNav_EC2/DepthDuration/v2_depth_duration_MTurk/v2_DepthDuration_HTML.html#33,33,1366,768,1366,768,8-22-2022,8-28-57,25,depth_duration_stimuli/001055_2014-06-08_18-45-35_260595134347_rgbf000111-resize_4/001055_2014-06-08_18-45-35_260595134347_rgbf000111-resize_4-target.png,1000,2.4290000000000003,2,5299,1000,meters,jsons/v1_VE1000_randls_22_rotated.json,984528,1147338,29,Man
25,916587,DepthScenes,duration_manipulation_targetAtFixation,jsons/v1_VE1000_randls_22_rotated.json,http://54.235.29.9/FacialAge/BNav_EC2/DepthDuration/v2_depth_duration_MTurk/v2_DepthDuration_HTML.html#33,33,1366,768,1366,768,8-22-2022,8-28-57,26,depth_duration_stimuli/000734_2014-06-08_17-39-11_260595134347_rgbf000128-resize_2/000734_2014-06-08_17-39-11_260595134347_rgbf000128-resize_2-target.png,1000,4.098,4,7058,1000,meters,jsons/v1_VE1000_randls_22_rotated.json,984528,1147338,29,Man
26,916587,DepthScenes,duration_manipulation_targetAtFixation,jsons/v1_VE1000_randls_22_rotated.json,http://54.235.29.9/FacialAge/BNav_EC2/DepthDuration/v2_depth_duration_MTurk/v2_DepthDuration_HTML.html#33,33,1366,768,1366,768,8-22-2022,8-28-57,27,depth_duration_stimuli/000739_2014-06-08_18-45-58_260595134347_rgbf000068-resize_1/000739_2014-06-08_18-45-58_260595134347_rgbf000068-resize_1-target.png,1000,3.534,2,4237,1000,meters,jsons/v1_VE1000_randls_22_rotated.json,984528,1147338,29,Man
27,916587,DepthScenes,duration_manipulation_targetAtFixation,jsons/v1_VE1000_randls_22_rotated.json,http://54.235.29.9/FacialAge/BNav_EC2/DepthDuration/v2_depth_duration_MTurk/v2_DepthDuration_HTML.html#33,33,1366,768,1366,768,8-22-2022,8-28-57,28,depth_duration_stimuli/003010_2014-06-15_12-54-35_094959634447_rgbf000112-resize_0/003010_2014-06-15_12-54-35_094959634447_rgbf000112-resize_0-target.png,1000,3.1185,5,5793,1001,meters,jsons/v1_VE1000_randls_22_rotated.json,984528,1147338,29,Man
28,916587,DepthScenes,duration_manipulation_targetAtFixation,jsons/v1_VE1000_randls_22_rotated.json,http://54.235.29.9/FacialAge/BNav_EC2/DepthDuration/v2_depth_duration_MTurk/v2_DepthDuration_HTML.html#33,33,1366,768,1366,768,8-22-2022,8-28-57,29,depth_duration_stimuli/001810_2014-06-26_20-51-35_260595134347_rgbf000040-resize_3/001810_2014-06-26_20-51-35_260595134347_rgbf000040-resize_3-target.png,1000,2.2525,5,5981,1000,meters,jsons/v1_VE1000_randls_22_rotated.json,984528,1147338,29,Man
29,916587,DepthScenes,duration_manipulation_targetAtFixation,jsons/v1_VE1000_randls_22_rotated.json,http://54.235.29.9/FacialAge/BNav_EC2/DepthDuration/v2_depth_duration_MTurk/v2_DepthDuration_HTML.html#33,33,1366,768,1366,768,8-22-2022,8-28-57,30,depth_duration_stimuli/002072_2014-06-24_21-48-06_260595134347_rgbf000115-resize_0/002072_2014-06-24_21-48-06_260595134347_rgbf000115-resize-original.jpg,1000,4.702,0,6920,1001,meters,jsons/v1_VE1000_randls_22_rotated.json,984528,1147338,29,Man
30,916587,DepthScenes,duration_manipulation_targetAtFixation,jsons/v1_VE1000_randls_22_rotated.json,http://54.235.29.9/FacialAge/BNav_EC2/DepthDuration/v2_depth_duration_MTurk/v2_DepthDuration_HTML.html#33,33,1366,768,1366,768,8-22-2022,8-28-57,31,depth_duration_stimuli/002340_2014-06-28_20-05-46_260595134347_rgbf000113-resize_0/002340_2014-06-28_20-05-46_260595134347_rgbf000113-resize_0-target.png,1000,2.4735,5,7045,1001,meters,jsons/v1_VE1000_randls_22_rotated.json,984528,1147338,29,Man
31,916587,DepthScenes,duration_manipulation_targetAtFixation,jsons/v1_VE1000_randls_22_rotated.json,http://54.235.29.9/FacialAge/BNav_EC2/DepthDuration/v2_depth_duration_MTurk/v2_DepthDuration_HTML.html#33,33,1366,768,1366,768,8-22-2022,8-28-57,32,depth_duration_stimuli/001016_2014-06-09_16-16-10_260595134347_rgbf000112-resize_5/001016_2014-06-09_16-16-10_260595134347_rgbf000112-resize_5-target.png,1000,1.6565,4,4602,1001,meters,jsons/v1_VE1000_randls_22_rotated.json,984528,1147338,29,Man
32,916587,DepthScenes,duration_manipulation_targetAtFixation,jsons/v1_VE1000_randls_22_rotated.json,http://54.235.29.9/FacialAge/BNav_EC2/DepthDuration/v2_depth_duration_MTurk/v2_DepthDuration_HTML.html#33,33,1366,768,1366,768,8-22-2022,8-28-57,33,depth_duration_stimuli/002209_2014-06-28_18-36-10_260595134347_rgbf000051-resize_1/002209_2014-06-28_18-36-10_260595134347_rgbf000051-resize_1-target.png,1000,2.057,4,6593,1000,meters,jsons/v1_VE1000_randls_22_rotated.json,984528,1147338,29,Man
33,916587,DepthScenes,duration_manipulation_targetAtFixation,jsons/v1_VE1000_randls_22_rotated.json,http://54.235.29.9/FacialAge/BNav_EC2/DepthDuration/v2_depth_duration_MTurk/v2_DepthDuration_HTML.html#33,33,1366,768,1366,768,8-22-2022,8-28-57,34,depth_duration_stimuli/002763_2014-06-22_19-13-10_094959634447_rgbf000075-resize_4/002763_2014-06-22_19-13-10_094959634447_rgbf000075-resize_4-target.png,1000,1.68375,3,7524,1000,meters,jsons/v1_VE1000_randls_22_rotated.json,984528,1147338,29,Man
34,916587,DepthScenes,duration_manipulation_targetAtFixation,jsons/v1_VE1000_randls_22_rotated.json,http://54.235.29.9/FacialAge/BNav_EC2/DepthDuration/v2_depth_duration_MTurk/v2_DepthDuration_HTML.html#33,33,1366,768,1366,768,8-22-2022,8-28-57,35,depth_duration_stimuli/002199_2014-06-28_18-33-56_260595134347_rgbf000074-resize_0/002199_2014-06-28_18-33-56_260595134347_rgbf000074-resize_0-target.png,1000,1.996,4,6322,1000,meters,jsons/v1_VE1000_randls_22_rotated.json,984528,1147338,29,Man
35,916587,DepthScenes,duration_manipulation_targetAtFixation,jsons/v1_VE1000_randls_22_rotated.json,http://54.235.29.9/FacialAge/BNav_EC2/DepthDuration/v2_depth_duration_MTurk/v2_DepthDuration_HTML.html#33,33,1366,768,1366,768,8-22-2022,8-28-57,36,depth_duration_stimuli/001056_2014-06-08_18-46-44_260595134347_rgbf000068-resize_0/001056_2014-06-08_18-46-44_260595134347_rgbf000068-resize_0-target.png,1000,2.6625,3,4294,1000,meters,jsons/v1_VE1000_randls_22_rotated.json,984528,1147338,29,Man
36,916587,DepthScenes,duration_manipulation_targetAtFixation,jsons/v1_VE1000_randls_22_rotated.json,http://54.235.29.9/FacialAge/BNav_EC2/DepthDuration/v2_depth_duration_MTurk/v2_DepthDuration_HTML.html#33,33,1366,768,1366,768,8-22-2022,8-28-57,37,depth_duration_stimuli/003228_2014-05-14_13-42-35_094959634447_rgbf000101-resize_1/003228_2014-05-14_13-42-35_094959634447_rgbf000101-resize_1-target.png,1000,1.9680000000000002,3,7954,1000,meters,jsons/v1_VE1000_randls_22_rotated.json,984528,1147338,29,Man
37,916587,DepthScenes,duration_manipulation_targetAtFixation,jsons/v1_VE1000_randls_22_rotated.json,http://54.235.29.9/FacialAge/BNav_EC2/DepthDuration/v2_depth_duration_MTurk/v2_DepthDuration_HTML.html#33,33,1366,768,1366,768,8-22-2022,8-28-57,38,depth_duration_stimuli/002600_2014-06-24_14-27-04_094959634447_rgbf000074-resize_2/002600_2014-06-24_14-27-04_094959634447_rgbf000074-resize_2-target.png,1000,2.7575,5,8328,1000,meters,jsons/v1_VE1000_randls_22_rotated.json,984528,1147338,29,Man
38,916587,DepthScenes,duration_manipulation_targetAtFixation,jsons/v1_VE1000_randls_22_rotated.json,http://54.235.29.9/FacialAge/BNav_EC2/DepthDuration/v2_depth_duration_MTurk/v2_DepthDuration_HTML.html#33,33,1366,768,1366,768,8-22-2022,8-28-57,39,depth_duration_stimuli/000137_2014-05-20_17-04-49_260595134347_rgbf000120-resize_1/000137_2014-05-20_17-04-49_260595134347_rgbf000120-resize_1-target.png,1000,3.786,3,15838,1000,meters,jsons/v1_VE1000_randls_22_rotated.json,984528,1147338,29,Man
39,916587,DepthScenes,duration_manipulation_targetAtFixation,jsons/v1_VE1000_randls_22_rotated.json,http://54.235.29.9/FacialAge/BNav_EC2/DepthDuration/v2_depth_duration_MTurk/v2_DepthDuration_HTML.html#33,33,1366,768,1366,768,8-22-2022,8-28-57,40,depth_duration_stimuli/000736_2014-06-08_18-24-15_260595134347_rgbf000206-resize_3/000736_2014-06-08_18-24-15_260595134347_rgbf000206-resize_3-target.png,1000,3.515,4,3908,1000,meters,jsons/v1_VE1000_randls_22_rotated.json,984528,1147338,29,Man
40,916587,DepthScenes,duration_manipulation_targetAtFixation,jsons/v1_VE1000_randls_22_rotated.json,http://54.235.29.9/FacialAge/BNav_EC2/DepthDuration/v2_depth_duration_MTurk/v2_DepthDuration_HTML.html#33,33,1366,768,1366,768,8-22-2022,8-28-57,41,depth_duration_stimuli/000103_2014-05-14_22-01-17_260595134347_rgbf000152-resize_5/000103_2014-05-14_22-01-17_260595134347_rgbf000152-resize_5-target.png,1000,1.993,5,6599,1000,meters,jsons/v1_VE1000_randls_22_rotated.json,984528,1147338,29,Man
41,916587,DepthScenes,duration_manipulation_targetAtFixation,jsons/v1_VE1000_randls_22_rotated.json,http://54.235.29.9/FacialAge/BNav_EC2/DepthDuration/v2_depth_duration_MTurk/v2_DepthDuration_HTML.html#33,33,1366,768,1366,768,8-22-2022,8-28-57,42,depth_duration_stimuli/001555_2014-06-20_17-12-10_260595134347_rgbf000065-resize_4/001555_2014-06-20_17-12-10_260595134347_rgbf000065-resize_4-target.png,1000,1.633,3,4511,1000,meters,jsons/v1_VE1000_randls_22_rotated.json,984528,1147338,29,Man
42,916587,DepthScenes,duration_manipulation_targetAtFixation,jsons/v1_VE1000_randls_22_rotated.json,http://54.235.29.9/FacialAge/BNav_EC2/DepthDuration/v2_depth_duration_MTurk/v2_DepthDuration_HTML.html#33,33,1366,768,1366,768,8-22-2022,8-28-57,43,depth_duration_stimuli/003081_2014-06-15_15-19-16_094959634447_rgbf000150-resize_1/003081_2014-06-15_15-19-16_094959634447_rgbf000150-resize_1-target.png,1000,3.9125,5,8210,1000,meters,jsons/v1_VE1000_randls_22_rotated.json,984528,1147338,29,Man
43,916587,DepthScenes,duration_manipulation_targetAtFixation,jsons/v1_VE1000_randls_22_rotated.json,http://54.235.29.9/FacialAge/BNav_EC2/DepthDuration/v2_depth_duration_MTurk/v2_DepthDuration_HTML.html#33,33,1366,768,1366,768,8-22-2022,8-28-57,44,depth_duration_stimuli/001417_2014-06-19_16-25-36_260595134347_rgbf000115-resize_5/001417_2014-06-19_16-25-36_260595134347_rgbf000115-resize_5-target.png,1000,4.6255,5,8124,1000,meters,jsons/v1_VE1000_randls_22_rotated.json,984528,1147338,29,Man
44,916587,DepthScenes,duration_manipulation_targetAtFixation,jsons/v1_VE1000_randls_22_rotated.json,http://54.235.29.9/FacialAge/BNav_EC2/DepthDuration/v2_depth_duration_MTurk/v2_DepthDuration_HTML.html#33,33,1366,768,1366,768,8-22-2022,8-28-57,45,depth_duration_stimuli/000665_2014-06-09_20-42-35_260595134347_rgbf000110-resize_1/000665_2014-06-09_20-42-35_260595134347_rgbf000110-resize_1-target.png,1000,3.057,3,7678,1000,meters,jsons/v1_VE1000_randls_22_rotated.json,984528,1147338,29,Man
45,916587,DepthScenes,duration_manipulation_targetAtFixation,jsons/v1_VE1000_randls_22_rotated.json,http://54.235.29.9/FacialAge/BNav_EC2/DepthDuration/v2_depth_duration_MTurk/v2_DepthDuration_HTML.html#33,33,1366,768,1366,768,8-22-2022,8-28-57,46,depth_duration_stimuli/001150_2014-06-17_15-27-34_260595134347_rgbf000108-resize_2/001150_2014-06-17_15-27-34_260595134347_rgbf000108-resize_2-target.png,1000,4.0325,4,4512,1001,meters,jsons/v1_VE1000_randls_22_rotated.json,984528,1147338,29,Man
46,916587,DepthScenes,duration_manipulation_targetAtFixation,jsons/v1_VE1000_randls_22_rotated.json,http://54.235.29.9/FacialAge/BNav_EC2/DepthDuration/v2_depth_duration_MTurk/v2_DepthDuration_HTML.html#33,33,1366,768,1366,768,8-22-2022,8-28-57,47,depth_duration_stimuli/000854_2014-06-09_19-43-13_260595134347_rgbf000066-resize_0/000854_2014-06-09_19-43-13_260595134347_rgbf000066-resize_0-target.png,1000,3.068,4,7682,1000,meters,jsons/v1_VE1000_randls_22_rotated.json,984528,1147338,29,Man
47,916587,DepthScenes,duration_manipulation_targetAtFixation,jsons/v1_VE1000_randls_22_rotated.json,http://54.235.29.9/FacialAge/BNav_EC2/DepthDuration/v2_depth_duration_MTurk/v2_DepthDuration_HTML.html#33,33,1366,768,1366,768,8-22-2022,8-28-57,48,depth_duration_stimuli/000758_2014-06-08_22-05-08_260595134347_rgbf000085-resize_0/000758_2014-06-08_22-05-08_260595134347_rgbf000085-resize_0-target.png,1000,3.3810000000000002,3,4404,999,meters,jsons/v1_VE1000_randls_22_rotated.json,984528,1147338,29,Man
48,916587,DepthScenes,duration_manipulation_targetAtFixation,jsons/v1_VE1000_randls_22_rotated.json,http://54.235.29.9/FacialAge/BNav_EC2/DepthDuration/v2_depth_duration_MTurk/v2_DepthDuration_HTML.html#33,33,1366,768,1366,768,8-22-2022,8-28-57,49,depth_duration_stimuli/001170_2014-06-17_15-43-44_260595134347_rgbf000096-resize_6/001170_2014-06-17_15-43-44_260595134347_rgbf000096-resize-original.jpg,1000,1.1909999999999998,0,8046,1000,meters,jsons/v1_VE1000_randls_22_rotated.json,984528,1147338,29,Man
49,916587,DepthScenes,duration_manipulation_targetAtFixation,jsons/v1_VE1000_randls_22_rotated.json,http://54.235.29.9/FacialAge/BNav_EC2/DepthDuration/v2_depth_duration_MTurk/v2_DepthDuration_HTML.html#33,33,1366,768,1366,768,8-22-2022,8-28-57,50,depth_duration_stimuli/001516_2014-06-20_16-25-09_260595134347_rgbf000076-resize_2/001516_2014-06-20_16-25-09_260595134347_rgbf000076-resize_2-target.png,1000,1.7445,5,4367,1000,meters,jsons/v1_VE1000_randls_22_rotated.json,984528,1147338,29,Man
50,916587,DepthScenes,duration_manipulation_targetAtFixation,jsons/v1_VE1000_randls_22_rotated.json,http://54.235.29.9/FacialAge/BNav_EC2/DepthDuration/v2_depth_duration_MTurk/v2_DepthDuration_HTML.html#33,33,1366,768,1366,768,8-22-2022,8-28-57,51,depth_duration_stimuli/002118_2014-06-25_20-32-08_260595134347_rgbf000078-resize_1/002118_2014-06-25_20-32-08_260595134347_rgbf000078-resize_1-target.png,1000,2.6460000000000004,4,3899,1001,meters,jsons/v1_VE1000_randls_22_rotated.json,984528,1147338,29,Man
51,916587,DepthScenes,duration_manipulation_targetAtFixation,jsons/v1_VE1000_randls_22_rotated.json,http://54.235.29.9/FacialAge/BNav_EC2/DepthDuration/v2_depth_duration_MTurk/v2_DepthDuration_HTML.html#33,33,1366,768,1366,768,8-22-2022,8-28-57,52,depth_duration_stimuli/002995_2014-06-15_12-31-26_094959634447_rgbf000150-resize_1/002995_2014-06-15_12-31-26_094959634447_rgbf000150-resize_1-target.png,1000,3.8360000000000003,3,6382,996,meters,jsons/v1_VE1000_randls_22_rotated.json,984528,1147338,29,Man
52,916587,DepthScenes,duration_manipulation_targetAtFixation,jsons/v1_VE1000_randls_22_rotated.json,http://54.235.29.9/FacialAge/BNav_EC2/DepthDuration/v2_depth_duration_MTurk/v2_DepthDuration_HTML.html#33,33,1366,768,1366,768,8-22-2022,8-28-57,53,depth_duration_stimuli/002748_2014-06-22_19-07-22_094959634447_rgbf000078-resize_1/002748_2014-06-22_19-07-22_094959634447_rgbf000078-resize_1-target.png,1000,4.6705,2,4593,1000,meters,jsons/v1_VE1000_randls_22_rotated.json,984528,1147338,29,Man
53,916587,DepthScenes,duration_manipulation_targetAtFixation,jsons/v1_VE1000_randls_22_rotated.json,http://54.235.29.9/FacialAge/BNav_EC2/DepthDuration/v2_depth_duration_MTurk/v2_DepthDuration_HTML.html#33,33,1366,768,1366,768,8-22-2022,8-28-57,54,depth_duration_stimuli/003048_2014-06-15_13-49-43_094959634447_rgbf000150-resize_1/003048_2014-06-15_13-49-43_094959634447_rgbf000150-resize_1-target.png,1000,4.0035,4,6060,1000,meters,jsons/v1_VE1000_randls_22_rotated.json,984528,1147338,29,Man
54,916587,DepthScenes,duration_manipulation_targetAtFixation,jsons/v1_VE1000_randls_22_rotated.json,http://54.235.29.9/FacialAge/BNav_EC2/DepthDuration/v2_depth_duration_MTurk/v2_DepthDuration_HTML.html#33,33,1366,768,1366,768,8-22-2022,8-28-57,55,depth_duration_stimuli/002043_2014-06-24_20-29-38_260595134347_rgbf000039-resize_4/002043_2014-06-24_20-29-38_260595134347_rgbf000039-resize_4-target.png,1000,2.8435,4,5020,1001,meters,jsons/v1_VE1000_randls_22_rotated.json,984528,1147338,29,Man
55,916587,DepthScenes,duration_manipulation_targetAtFixation,jsons/v1_VE1000_randls_22_rotated.json,http://54.235.29.9/FacialAge/BNav_EC2/DepthDuration/v2_depth_duration_MTurk/v2_DepthDuration_HTML.html#33,33,1366,768,1366,768,8-22-2022,8-28-57,56,depth_duration_stimuli/000943_2014-06-09_19-31-07_260595134347_rgbf000128-resize_1/000943_2014-06-09_19-31-07_260595134347_rgbf000128-resize_1-target.png,1000,1.9765,4,6404,999,meters,jsons/v1_VE1000_randls_22_rotated.json,984528,1147338,29,Man
56,916587,DepthScenes,duration_manipulation_targetAtFixation,jsons/v1_VE1000_randls_22_rotated.json,http://54.235.29.9/FacialAge/BNav_EC2/DepthDuration/v2_depth_duration_MTurk/v2_DepthDuration_HTML.html#33,33,1366,768,1366,768,8-22-2022,8-28-57,57,depth_duration_stimuli/003070_2014-06-15_14-58-27_094959634447_rgbf000150-resize_3/003070_2014-06-15_14-58-27_094959634447_rgbf000150-resize_3-target.png,1000,2.9415,2,3856,1001,meters,jsons/v1_VE1000_randls_22_rotated.json,984528,1147338,29,Man
57,916587,DepthScenes,duration_manipulation_targetAtFixation,jsons/v1_VE1000_randls_22_rotated.json,http://54.235.29.9/FacialAge/BNav_EC2/DepthDuration/v2_depth_duration_MTurk/v2_DepthDuration_HTML.html#33,33,1366,768,1366,768,8-22-2022,8-28-57,58,depth_duration_stimuli/003490_2014-05-21_15-50-11_094959634447_rgbf000101-resize_3/003490_2014-05-21_15-50-11_094959634447_rgbf000101-resize_3-target.png,1000,3.6445,1,7103,1000,meters,jsons/v1_VE1000_randls_22_rotated.json,984528,1147338,29,Man
58,916587,DepthScenes,duration_manipulation_targetAtFixation,jsons/v1_VE1000_randls_22_rotated.json,http://54.235.29.9/FacialAge/BNav_EC2/DepthDuration/v2_depth_duration_MTurk/v2_DepthDuration_HTML.html#33,33,1366,768,1366,768,8-22-2022,8-28-57,59,depth_duration_stimuli/001175_2014-06-17_15-45-55_260595134347_rgbf000129-resize_4/001175_2014-06-17_15-45-55_260595134347_rgbf000129-resize_4-target.png,1000,4.255,2,3956,1000,meters,jsons/v1_VE1000_randls_22_rotated.json,984528,1147338,29,Man
59,916587,DepthScenes,duration_manipulation_targetAtFixation,jsons/v1_VE1000_randls_22_rotated.json,http://54.235.29.9/FacialAge/BNav_EC2/DepthDuration/v2_depth_duration_MTurk/v2_DepthDuration_HTML.html#33,33,1366,768,1366,768,8-22-2022,8-28-57,60,depth_duration_stimuli/000191_2014-05-12_17-07-38_260595134347_rgbf000199-resize_0/000191_2014-05-12_17-07-38_260595134347_rgbf000199-resize_0-target.png,1000,3.7995,3,6239,1001,meters,jsons/v1_VE1000_randls_22_rotated.json,984528,1147338,29,Man
60,916587,DepthScenes,duration_manipulation_targetAtFixation,jsons/v1_VE1000_randls_22_rotated.json,http://54.235.29.9/FacialAge/BNav_EC2/DepthDuration/v2_depth_duration_MTurk/v2_DepthDuration_HTML.html#33,33,1366,768,1366,768,8-22-2022,8-28-57,61,depth_duration_stimuli/000493_2014-06-09_21-01-18_260595134347_rgbf000196-resize_3/000493_2014-06-09_21-01-18_260595134347_rgbf000196-resize_3-target.png,1000,3.44,4,4361,999,meters,jsons/v1_VE1000_randls_22_rotated.json,984528,1147338,29,Man
61,916587,DepthScenes,duration_manipulation_targetAtFixation,jsons/v1_VE1000_randls_22_rotated.json,http://54.235.29.9/FacialAge/BNav_EC2/DepthDuration/v2_depth_duration_MTurk/v2_DepthDuration_HTML.html#33,33,1366,768,1366,768,8-22-2022,8-28-57,62,depth_duration_stimuli/001450_2014-06-19_17-02-03_260595134347_rgbf000203-resize_4/001450_2014-06-19_17-02-03_260595134347_rgbf000203-resize_4-target.png,1000,4.0106666666667,4,6265,1001,meters,jsons/v1_VE1000_randls_22_rotated.json,984528,1147338,29,Man
62,916587,DepthScenes,duration_manipulation_targetAtFixation,jsons/v1_VE1000_randls_22_rotated.json,http://54.235.29.9/FacialAge/BNav_EC2/DepthDuration/v2_depth_duration_MTurk/v2_DepthDuration_HTML.html#33,33,1366,768,1366,768,8-22-2022,8-28-57,63,depth_duration_stimuli/001449_2014-06-19_17-01-27_260595134347_rgbf000116-resize_2/001449_2014-06-19_17-01-27_260595134347_rgbf000116-resize_2-target.png,1000,3.452,3,3592,997,meters,jsons/v1_VE1000_randls_22_rotated.json,984528,1147338,29,Man
63,916587,DepthScenes,duration_manipulation_targetAtFixation,jsons/v1_VE1000_randls_22_rotated.json,http://54.235.29.9/FacialAge/BNav_EC2/DepthDuration/v2_depth_duration_MTurk/v2_DepthDuration_HTML.html#33,33,1366,768,1366,768,8-22-2022,8-28-57,64,depth_duration_stimuli/001032_2014-06-08_13-23-17_260595134347_rgbf000021-resize_3/001032_2014-06-08_13-23-17_260595134347_rgbf000021-resize_3-target.png,1000,3.2725,3,5955,1000,meters,jsons/v1_VE1000_randls_22_rotated.json,984528,1147338,29,Man
64,916587,DepthScenes,duration_manipulation_targetAtFixation,jsons/v1_VE1000_randls_22_rotated.json,http://54.235.29.9/FacialAge/BNav_EC2/DepthDuration/v2_depth_duration_MTurk/v2_DepthDuration_HTML.html#33,33,1366,768,1366,768,8-22-2022,8-28-57,65,depth_duration_stimuli/001059_2014-06-08_21-53-27_260595134347_rgbf000061-resize_4/001059_2014-06-08_21-53-27_260595134347_rgbf000061-resize_4-target.png,1000,2.4185,3,3918,999,meters,jsons/v1_VE1000_randls_22_rotated.json,984528,1147338,29,Man
65,916587,DepthScenes,duration_manipulation_targetAtFixation,jsons/v1_VE1000_randls_22_rotated.json,http://54.235.29.9/FacialAge/BNav_EC2/DepthDuration/v2_depth_duration_MTurk/v2_DepthDuration_HTML.html#33,33,1366,768,1366,768,8-22-2022,8-28-57,66,depth_duration_stimuli/001540_2014-06-20_17-01-05_260595134347_rgbf000086-resize_2/001540_2014-06-20_17-01-05_260595134347_rgbf000086-resize-original.jpg,1000,1.459,0,8040,995,meters,jsons/v1_VE1000_randls_22_rotated.json,984528,1147338,29,Man
66,916587,DepthScenes,duration_manipulation_targetAtFixation,jsons/v1_VE1000_randls_22_rotated.json,http://54.235.29.9/FacialAge/BNav_EC2/DepthDuration/v2_depth_duration_MTurk/v2_DepthDuration_HTML.html#33,33,1366,768,1366,768,8-22-2022,8-28-57,67,depth_duration_stimuli/002103_2014-06-25_20-00-40_260595134347_rgbf000049-resize_0/002103_2014-06-25_20-00-40_260595134347_rgbf000049-resize_0-target.png,1000,4.105,4,5704,1000,meters,jsons/v1_VE1000_randls_22_rotated.json,984528,1147338,29,Man
67,916587,DepthScenes,duration_manipulation_targetAtFixation,jsons/v1_VE1000_randls_22_rotated.json,http://54.235.29.9/FacialAge/BNav_EC2/DepthDuration/v2_depth_duration_MTurk/v2_DepthDuration_HTML.html#33,33,1366,768,1366,768,8-22-2022,8-28-57,68,depth_duration_stimuli/002039_2014-06-24_20-22-38_260595134347_rgbf000084-resize_1/002039_2014-06-24_20-22-38_260595134347_rgbf000084-resize_1-target.png,1000,4.408,5,3768,1000,meters,jsons/v1_VE1000_randls_22_rotated.json,984528,1147338,29,Man
68,916587,DepthScenes,duration_manipulation_targetAtFixation,jsons/v1_VE1000_randls_22_rotated.json,http://54.235.29.9/FacialAge/BNav_EC2/DepthDuration/v2_depth_duration_MTurk/v2_DepthDuration_HTML.html#33,33,1366,768,1366,768,8-22-2022,8-28-57,69,depth_duration_stimuli/001392_2014-06-19_16-07-59_260595134347_rgbf000046-resize_1/001392_2014-06-19_16-07-59_260595134347_rgbf000046-resize_1-target.png,1000,4.135,4,5719,1000,meters,jsons/v1_VE1000_randls_22_rotated.json,984528,1147338,29,Man
69,916587,DepthScenes,duration_manipulation_targetAtFixation,jsons/v1_VE1000_randls_22_rotated.json,http://54.235.29.9/FacialAge/BNav_EC2/DepthDuration/v2_depth_duration_MTurk/v2_DepthDuration_HTML.html#33,33,1366,768,1366,768,8-22-2022,8-28-57,70,depth_duration_stimuli/001570_2014-06-20_17-21-09_260595134347_rgbf000135-resize_4/001570_2014-06-20_17-21-09_260595134347_rgbf000135-resize_4-target.png,1000,4.467,3,3839,1000,meters,jsons/v1_VE1000_randls_22_rotated.json,984528,1147338,29,Man
70,916587,DepthScenes,duration_manipulation_targetAtFixation,jsons/v1_VE1000_randls_22_rotated.json,http://54.235.29.9/FacialAge/BNav_EC2/DepthDuration/v2_depth_duration_MTurk/v2_DepthDuration_HTML.html#33,33,1366,768,1366,768,8-22-2022,8-28-57,71,depth_duration_stimuli/002136_2014-06-25_21-18-03_260595134347_rgbf000109-resize_3/002136_2014-06-25_21-18-03_260595134347_rgbf000109-resize_3-target.png,1000,1.9569999999999999,2,5683,1000,meters,jsons/v1_VE1000_randls_22_rotated.json,984528,1147338,29,Man
71,916587,DepthScenes,duration_manipulation_targetAtFixation,jsons/v1_VE1000_randls_22_rotated.json,http://54.235.29.9/FacialAge/BNav_EC2/DepthDuration/v2_depth_duration_MTurk/v2_DepthDuration_HTML.html#33,33,1366,768,1366,768,8-22-2022,8-28-57,72,depth_duration_stimuli/002964_2014-06-08_17-46-11_094959634447_rgbf000091-resize_4/002964_2014-06-08_17-46-11_094959634447_rgbf000091-resize_4-target.png,1000,1.6909999999999998,3,3959,1001,meters,jsons/v1_VE1000_randls_22_rotated.json,984528,1147338,29,Man
72,916587,DepthScenes,duration_manipulation_targetAtFixation,jsons/v1_VE1000_randls_22_rotated.json,http://54.235.29.9/FacialAge/BNav_EC2/DepthDuration/v2_depth_duration_MTurk/v2_DepthDuration_HTML.html#33,33,1366,768,1366,768,8-22-2022,8-28-57,73,depth_duration_stimuli/000677_2014-06-08_23-10-32_260595134347_rgbf000158-resize_6/000677_2014-06-08_23-10-32_260595134347_rgbf000158-resize_6-target.png,1000,3.556,4,5892,1002,meters,jsons/v1_VE1000_randls_22_rotated.json,984528,1147338,29,Man
73,916587,DepthScenes,duration_manipulation_targetAtFixation,jsons/v1_VE1000_randls_22_rotated.json,http://54.235.29.9/FacialAge/BNav_EC2/DepthDuration/v2_depth_duration_MTurk/v2_DepthDuration_HTML.html#33,33,1366,768,1366,768,8-22-2022,8-28-57,74,depth_duration_stimuli/001029_2014-06-08_13-17-57_260595134347_rgbf000065-resize_1/001029_2014-06-08_13-17-57_260595134347_rgbf000065-resize_1-target.png,1000,3.0835,4,3728,1000,meters,jsons/v1_VE1000_randls_22_rotated.json,984528,1147338,29,Man
74,916587,DepthScenes,duration_manipulation_targetAtFixation,jsons/v1_VE1000_randls_22_rotated.json,http://54.235.29.9/FacialAge/BNav_EC2/DepthDuration/v2_depth_duration_MTurk/v2_DepthDuration_HTML.html#33,33,1366,768,1366,768,8-22-2022,8-28-57,75,depth_duration_stimuli/003587_2014-05-23_16-48-02_094959634447_rgbf002384-resize_2/003587_2014-05-23_16-48-02_094959634447_rgbf002384-resize_2-target.png,1000,1.357,1,6535,1000,meters,jsons/v1_VE1000_randls_22_rotated.json,984528,1147338,29,Man
75,916587,DepthScenes,duration_manipulation_targetAtFixation,jsons/v1_VE1000_randls_22_rotated.json,http://54.235.29.9/FacialAge/BNav_EC2/DepthDuration/v2_depth_duration_MTurk/v2_DepthDuration_HTML.html#33,33,1366,768,1366,768,8-22-2022,8-28-57,76,depth_duration_stimuli/001167_2014-06-17_15-38-07_260595134347_rgbf000108-resize_0/001167_2014-06-17_15-38-07_260595134347_rgbf000108-resize_0-target.png,1000,1.8505,2,4119,1000,meters,jsons/v1_VE1000_randls_22_rotated.json,984528,1147338,29,Man
76,916587,DepthScenes,duration_manipulation_targetAtFixation,jsons/v1_VE1000_randls_22_rotated.json,http://54.235.29.9/FacialAge/BNav_EC2/DepthDuration/v2_depth_duration_MTurk/v2_DepthDuration_HTML.html#33,33,1366,768,1366,768,8-22-2022,8-28-57,77,depth_duration_stimuli/000866_2014-06-09_20-45-42_260595134347_rgbf000139-resize_1/000866_2014-06-09_20-45-42_260595134347_rgbf000139-resize_1-target.png,1000,3.2155,3,6020,1010,meters,jsons/v1_VE1000_randls_22_rotated.json,984528,1147338,29,Man
77,916587,DepthScenes,duration_manipulation_targetAtFixation,jsons/v1_VE1000_randls_22_rotated.json,http://54.235.29.9/FacialAge/BNav_EC2/DepthDuration/v2_depth_duration_MTurk/v2_DepthDuration_HTML.html#33,33,1366,768,1366,768,8-22-2022,8-28-57,78,depth_duration_stimuli/002989_2014-06-15_12-25-03_094959634447_rgbf000150-resize_3/002989_2014-06-15_12-25-03_094959634447_rgbf000150-resize_3-target.png,1000,4.1975,5,3799,999,meters,jsons/v1_VE1000_randls_22_rotated.json,984528,1147338,29,Man
78,916587,DepthScenes,duration_manipulation_targetAtFixation,jsons/v1_VE1000_randls_22_rotated.json,http://54.235.29.9/FacialAge/BNav_EC2/DepthDuration/v2_depth_duration_MTurk/v2_DepthDuration_HTML.html#33,33,1366,768,1366,768,8-22-2022,8-28-57,79,depth_duration_stimuli/000409_2014-06-04_19-23-33_260595134347_rgbf000067-resize_0/000409_2014-06-04_19-23-33_260595134347_rgbf000067-resize_0-target.png,1000,3.7335,2,6784,1000,meters,jsons/v1_VE1000_randls_22_rotated.json,984528,1147338,29,Man
79,916587,DepthScenes,duration_manipulation_targetAtFixation,jsons/v1_VE1000_randls_22_rotated.json,http://54.235.29.9/FacialAge/BNav_EC2/DepthDuration/v2_depth_duration_MTurk/v2_DepthDuration_HTML.html#33,33,1366,768,1366,768,8-22-2022,8-28-57,80,depth_duration_stimuli/002663_2014-06-13_15-50-26_094959634447_rgbf000075-resize_1/002663_2014-06-13_15-50-26_094959634447_rgbf000075-resize_1-target.png,1000,4.7495,3,4674,1000,meters,jsons/v1_VE1000_randls_22_rotated.json,984528,1147338,29,Man
80,916587,DepthScenes,duration_manipulation_targetAtFixation,jsons/v1_VE1000_randls_22_rotated.json,http://54.235.29.9/FacialAge/BNav_EC2/DepthDuration/v2_depth_duration_MTurk/v2_DepthDuration_HTML.html#33,33,1366,768,1366,768,8-22-2022,8-28-57,81,depth_duration_stimuli/002953_2014-06-08_17-32-18_094959634447_rgbf000059-resize_5/002953_2014-06-08_17-32-18_094959634447_rgbf000059-resize_5-target.png,1000,1.551,3,7837,999,meters,jsons/v1_VE1000_randls_22_rotated.json,984528,1147338,29,Man
81,916587,DepthScenes,duration_manipulation_targetAtFixation,jsons/v1_VE1000_randls_22_rotated.json,http://54.235.29.9/FacialAge/BNav_EC2/DepthDuration/v2_depth_duration_MTurk/v2_DepthDuration_HTML.html#33,33,1366,768,1366,768,8-22-2022,8-28-57,82,depth_duration_stimuli/000878_2014-06-08_22-52-45_260595134347_rgbf000045-resize_2/000878_2014-06-08_22-52-45_260595134347_rgbf000045-resize_2-target.png,1000,2.092,3,3958,999,meters,jsons/v1_VE1000_randls_22_rotated.json,984528,1147338,29,Man
82,916587,DepthScenes,duration_manipulation_targetAtFixation,jsons/v1_VE1000_randls_22_rotated.json,http://54.235.29.9/FacialAge/BNav_EC2/DepthDuration/v2_depth_duration_MTurk/v2_DepthDuration_HTML.html#33,33,1366,768,1366,768,8-22-2022,8-28-57,83,depth_duration_stimuli/001094_2014-06-15_17-36-00_260595134347_rgbf000205-resize_0/001094_2014-06-15_17-36-00_260595134347_rgbf000205-resize_0-target.png,1000,4.2175,3,7903,1000,meters,jsons/v1_VE1000_randls_22_rotated.json,984528,1147338,29,Man
83,916587,DepthScenes,duration_manipulation_targetAtFixation,jsons/v1_VE1000_randls_22_rotated.json,http://54.235.29.9/FacialAge/BNav_EC2/DepthDuration/v2_depth_duration_MTurk/v2_DepthDuration_HTML.html#33,33,1366,768,1366,768,8-22-2022,8-28-57,84,depth_duration_stimuli/000692_2014-06-08_13-09-42_260595134347_rgbf000199-resize_2/000692_2014-06-08_13-09-42_260595134347_rgbf000199-resize_2-target.png,1000,3.661,2,3901,1000,meters,jsons/v1_VE1000_randls_22_rotated.json,984528,1147338,29,Man
84,916587,DepthScenes,duration_manipulation_targetAtFixation,jsons/v1_VE1000_randls_22_rotated.json,http://54.235.29.9/FacialAge/BNav_EC2/DepthDuration/v2_depth_duration_MTurk/v2_DepthDuration_HTML.html#33,33,1366,768,1366,768,8-22-2022,8-28-57,85,depth_duration_stimuli/001136_2014-06-17_15-19-41_260595134347_rgbf000076-resize_3/001136_2014-06-17_15-19-41_260595134347_rgbf000076-resize_3-target.png,1000,1.8655,2,7294,999,meters,jsons/v1_VE1000_randls_22_rotated.json,984528,1147338,29,Man
85,916587,DepthScenes,duration_manipulation_targetAtFixation,jsons/v1_VE1000_randls_22_rotated.json,http://54.235.29.9/FacialAge/BNav_EC2/DepthDuration/v2_depth_duration_MTurk/v2_DepthDuration_HTML.html#33,33,1366,768,1366,768,8-22-2022,8-28-57,86,depth_duration_stimuli/001164_2014-06-17_15-35-46_260595134347_rgbf000085-resize_3/001164_2014-06-17_15-35-46_260595134347_rgbf000085-resize_3-target.png,1000,2.354,3,4322,1000,meters,jsons/v1_VE1000_randls_22_rotated.json,984528,1147338,29,Man
86,916587,DepthScenes,duration_manipulation_targetAtFixation,jsons/v1_VE1000_randls_22_rotated.json,http://54.235.29.9/FacialAge/BNav_EC2/DepthDuration/v2_depth_duration_MTurk/v2_DepthDuration_HTML.html#33,33,1366,768,1366,768,8-22-2022,8-28-57,87,depth_duration_stimuli/002657_2014-06-13_15-29-54_094959634447_rgbf000150-resize_1/002657_2014-06-13_15-29-54_094959634447_rgbf000150-resize_1-target.png,1000,4.919,2,6284,1000,meters,jsons/v1_VE1000_randls_22_rotated.json,984528,1147338,29,Man
87,916587,DepthScenes,duration_manipulation_targetAtFixation,jsons/v1_VE1000_randls_22_rotated.json,http://54.235.29.9/FacialAge/BNav_EC2/DepthDuration/v2_depth_duration_MTurk/v2_DepthDuration_HTML.html#33,33,1366,768,1366,768,8-22-2022,8-28-57,88,depth_duration_stimuli/002375_2014-06-28_20-13-44_260595134347_rgbf000032-resize_1/002375_2014-06-28_20-13-44_260595134347_rgbf000032-resize_1-target.png,1000,4.0175,3,4301,999,meters,jsons/v1_VE1000_randls_22_rotated.json,984528,1147338,29,Man
88,916587,DepthScenes,duration_manipulation_targetAtFixation,jsons/v1_VE1000_randls_22_rotated.json,http://54.235.29.9/FacialAge/BNav_EC2/DepthDuration/v2_depth_duration_MTurk/v2_DepthDuration_HTML.html#33,33,1366,768,1366,768,8-22-2022,8-28-57,89,depth_duration_stimuli/002444_2014-06-28_20-32-08_260595134347_rgbf000027-resize_0/002444_2014-06-28_20-32-08_260595134347_rgbf000027-resize_0-target.png,1000,4.388999999999999,3,8956,1000,meters,jsons/v1_VE1000_randls_22_rotated.json,984528,1147338,29,Man
89,916587,DepthScenes,duration_manipulation_targetAtFixation,jsons/v1_VE1000_randls_22_rotated.json,http://54.235.29.9/FacialAge/BNav_EC2/DepthDuration/v2_depth_duration_MTurk/v2_DepthDuration_HTML.html#33,33,1366,768,1366,768,8-22-2022,8-28-57,90,depth_duration_stimuli/000436_2014-06-09_22-25-11_260595134347_rgbf000137-resize_1/000436_2014-06-09_22-25-11_260595134347_rgbf000137-resize_1-target.png,1000,4.0705,4,3784,1001,meters,jsons/v1_VE1000_randls_22_rotated.json,984528,1147338,29,Man
90,916587,DepthScenes,duration_manipulation_targetAtFixation,jsons/v1_VE1000_randls_22_rotated.json,http://54.235.29.9/FacialAge/BNav_EC2/DepthDuration/v2_depth_duration_MTurk/v2_DepthDuration_HTML.html#33,33,1366,768,1366,768,8-22-2022,8-28-57,91,depth_duration_stimuli/003079_2014-06-15_15-18-20_094959634447_rgbf000152-resize_8/003079_2014-06-15_15-18-20_094959634447_rgbf000152-resize_8-target.png,1000,2.8775,4,7072,1000,meters,jsons/v1_VE1000_randls_22_rotated.json,984528,1147338,29,Man
91,916587,DepthScenes,duration_manipulation_targetAtFixation,jsons/v1_VE1000_randls_22_rotated.json,http://54.235.29.9/FacialAge/BNav_EC2/DepthDuration/v2_depth_duration_MTurk/v2_DepthDuration_HTML.html#33,33,1366,768,1366,768,8-22-2022,8-28-57,92,depth_duration_stimuli/000506_2014-06-08_23-21-00_260595134347_rgbf000070-resize_7/000506_2014-06-08_23-21-00_260595134347_rgbf000070-resize_7-target.png,1000,4.0585,4,4002,1000,meters,jsons/v1_VE1000_randls_22_rotated.json,984528,1147338,29,Man
92,916587,DepthScenes,duration_manipulation_targetAtFixation,jsons/v1_VE1000_randls_22_rotated.json,http://54.235.29.9/FacialAge/BNav_EC2/DepthDuration/v2_depth_duration_MTurk/v2_DepthDuration_HTML.html#33,33,1366,768,1366,768,8-22-2022,8-28-57,93,depth_duration_stimuli/000502_2014-06-08_23-02-32_260595134347_rgbf000063-resize_4/000502_2014-06-08_23-02-32_260595134347_rgbf000063-resize_4-target.png,1000,2.431,2,6820,1000,meters,jsons/v1_VE1000_randls_22_rotated.json,984528,1147338,29,Man
93,916587,DepthScenes,duration_manipulation_targetAtFixation,jsons/v1_VE1000_randls_22_rotated.json,http://54.235.29.9/FacialAge/BNav_EC2/DepthDuration/v2_depth_duration_MTurk/v2_DepthDuration_HTML.html#33,33,1366,768,1366,768,8-22-2022,8-28-57,94,depth_duration_stimuli/001199_2014-06-17_16-03-48_260595134347_rgbf000077-resize_0/001199_2014-06-17_16-03-48_260595134347_rgbf000077-resize_0-target.png,1000,3.4375,3,4640,1000,meters,jsons/v1_VE1000_randls_22_rotated.json,984528,1147338,29,Man
94,916587,DepthScenes,duration_manipulation_targetAtFixation,jsons/v1_VE1000_randls_22_rotated.json,http://54.235.29.9/FacialAge/BNav_EC2/DepthDuration/v2_depth_duration_MTurk/v2_DepthDuration_HTML.html#33,33,1366,768,1366,768,8-22-2022,8-28-57,95,depth_duration_stimuli/000780_2014-06-08_22-28-29_260595134347_rgbf000126-resize_1/000780_2014-06-08_22-28-29_260595134347_rgbf000126-resize_1-target.png,1000,3.3825,3,5954,999,meters,jsons/v1_VE1000_randls_22_rotated.json,984528,1147338,29,Man
95,916587,DepthScenes,duration_manipulation_targetAtFixation,jsons/v1_VE1000_randls_22_rotated.json,http://54.235.29.9/FacialAge/BNav_EC2/DepthDuration/v2_depth_duration_MTurk/v2_DepthDuration_HTML.html#33,33,1366,768,1366,768,8-22-2022,8-28-57,96,depth_duration_stimuli/002445_2014-06-28_20-32-16_260595134347_rgbf000029-resize_4/002445_2014-06-28_20-32-16_260595134347_rgbf000029-resize_4-target.png,1000,2.5315,3,4003,1001,meters,jsons/v1_VE1000_randls_22_rotated.json,984528,1147338,29,Man
96,916587,DepthScenes,duration_manipulation_targetAtFixation,jsons/v1_VE1000_randls_22_rotated.json,http://54.235.29.9/FacialAge/BNav_EC2/DepthDuration/v2_depth_duration_MTurk/v2_DepthDuration_HTML.html#33,33,1366,768,1366,768,8-22-2022,8-28-57,97,depth_duration_stimuli/001815_2014-06-26_20-52-55_260595134347_rgbf000020-resize_0/001815_2014-06-26_20-52-55_260595134347_rgbf000020-resize_0-target.png,1000,3.3865,3,7183,1000,meters,jsons/v1_VE1000_randls_22_rotated.json,984528,1147338,29,Man
97,916587,DepthScenes,duration_manipulation_targetAtFixation,jsons/v1_VE1000_randls_22_rotated.json,http://54.235.29.9/FacialAge/BNav_EC2/DepthDuration/v2_depth_duration_MTurk/v2_DepthDuration_HTML.html#33,33,1366,768,1366,768,8-22-2022,8-28-57,98,depth_duration_stimuli/001808_2014-06-26_20-50-58_260595134347_rgbf000029-resize_1/001808_2014-06-26_20-50-58_260595134347_rgbf000029-resize_1-target.png,1000,4.249,4,3550,1000,meters,jsons/v1_VE1000_randls_22_rotated.json,984528,1147338,29,Man
98,916587,DepthScenes,duration_manipulation_targetAtFixation,jsons/v1_VE1000_randls_22_rotated.json,http://54.235.29.9/FacialAge/BNav_EC2/DepthDuration/v2_depth_duration_MTurk/v2_DepthDuration_HTML.html#33,33,1366,768,1366,768,8-22-2022,8-28-57,99,depth_duration_stimuli/001222_2014-06-17_16-24-06_260595134347_rgbf000073-resize_0/001222_2014-06-17_16-24-06_260595134347_rgbf000073-resize-original.jpg,1000,1.4385,0,6223,1000,meters,jsons/v1_VE1000_randls_22_rotated.json,984528,1147338,29,Man
99,916587,DepthScenes,duration_manipulation_targetAtFixation,jsons/v1_VE1000_randls_22_rotated.json,http://54.235.29.9/FacialAge/BNav_EC2/DepthDuration/v2_depth_duration_MTurk/v2_DepthDuration_HTML.html#33,33,1366,768,1366,768,8-22-2022,8-28-57,100,depth_duration_stimuli/002425_2014-06-28_20-27-29_260595134347_rgbf000031-resize_8/002425_2014-06-28_20-27-29_260595134347_rgbf000031-resize_8-target.png,1000,3.8960000000000004,3,6175,1000,meters,jsons/v1_VE1000_randls_22_rotated.json,984528,1147338,29,Man
100,916587,DepthScenes,duration_manipulation_targetAtFixation,jsons/v1_VE1000_randls_22_rotated.json,http://54.235.29.9/FacialAge/BNav_EC2/DepthDuration/v2_depth_duration_MTurk/v2_DepthDuration_HTML.html#33,33,1366,768,1366,768,8-22-2022,8-28-57,101,depth_duration_stimuli/000642_2014-06-08_16-59-25_260595134347_rgbf000098-resize_2/000642_2014-06-08_16-59-25_260595134347_rgbf000098-resize_2-target.png,1000,2.8815,3,4066,1001,meters,jsons/v1_VE1000_randls_22_rotated.json,984528,1147338,29,Man
101,916587,DepthScenes,duration_manipulation_targetAtFixation,jsons/v1_VE1000_randls_22_rotated.json,http://54.235.29.9/FacialAge/BNav_EC2/DepthDuration/v2_depth_duration_MTurk/v2_DepthDuration_HTML.html#33,33,1366,768,1366,768,8-22-2022,8-28-57,102,depth_duration_stimuli/002758_2014-06-22_19-11-20_094959634447_rgbf000128-resize_1/002758_2014-06-22_19-11-20_094959634447_rgbf000128-resize_1-target.png,1000,2.555,3,5594,999,meters,jsons/v1_VE1000_randls_22_rotated.json,984528,1147338,29,Man
102,916587,DepthScenes,duration_manipulation_targetAtFixation,jsons/v1_VE1000_randls_22_rotated.json,http://54.235.29.9/FacialAge/BNav_EC2/DepthDuration/v2_depth_duration_MTurk/v2_DepthDuration_HTML.html#33,33,1366,768,1366,768,8-22-2022,8-28-57,103,depth_duration_stimuli/002630_2014-06-24_14-47-50_094959634447_rgbf000055-resize_1/002630_2014-06-24_14-47-50_094959634447_rgbf000055-resize_1-target.png,1000,3.0095,2,6238,999,meters,jsons/v1_VE1000_randls_22_rotated.json,984528,1147338,29,Man
103,916587,DepthScenes,duration_manipulation_targetAtFixation,jsons/v1_VE1000_randls_22_rotated.json,http://54.235.29.9/FacialAge/BNav_EC2/DepthDuration/v2_depth_duration_MTurk/v2_DepthDuration_HTML.html#33,33,1366,768,1366,768,8-22-2022,8-28-57,104,depth_duration_stimuli/003423_2014-05-21_10-23-26_094959634447_rgbf002665-resize_2/003423_2014-05-21_10-23-26_094959634447_rgbf002665-resize_2-target.png,1000,3.2575,2,6405,1001,meters,jsons/v1_VE1000_randls_22_rotated.json,984528,1147338,29,Man
104,916587,DepthScenes,duration_manipulation_targetAtFixation,jsons/v1_VE1000_randls_22_rotated.json,http://54.235.29.9/FacialAge/BNav_EC2/DepthDuration/v2_depth_duration_MTurk/v2_DepthDuration_HTML.html#33,33,1366,768,1366,768,8-22-2022,8-28-57,105,depth_duration_stimuli/002905_2014-06-03_18-04-43_094959634447_rgbf000151-resize_2/002905_2014-06-03_18-04-43_094959634447_rgbf000151-resize_2-target.png,1000,2.0295,3,4738,1003,meters,jsons/v1_VE1000_randls_22_rotated.json,984528,1147338,29,Man
105,916587,DepthScenes,duration_manipulation_targetAtFixation,jsons/v1_VE1000_randls_22_rotated.json,http://54.235.29.9/FacialAge/BNav_EC2/DepthDuration/v2_depth_duration_MTurk/v2_DepthDuration_HTML.html#33,33,1366,768,1366,768,8-22-2022,8-28-57,106,depth_duration_stimuli/003495_2014-05-21_16-01-51_094959634447_rgbf000100-resize_3/003495_2014-05-21_16-01-51_094959634447_rgbf000100-resize_3-target.png,1000,1.6255,4,5623,1001,meters,jsons/v1_VE1000_randls_22_rotated.json,984528,1147338,29,Man
106,916587,DepthScenes,duration_manipulation_targetAtFixation,jsons/v1_VE1000_randls_22_rotated.json,http://54.235.29.9/FacialAge/BNav_EC2/DepthDuration/v2_depth_duration_MTurk/v2_DepthDuration_HTML.html#33,33,1366,768,1366,768,8-22-2022,8-28-57,107,depth_duration_stimuli/001244_2014-06-17_16-47-45_260595134347_rgbf000030-resize_4/001244_2014-06-17_16-47-45_260595134347_rgbf000030-resize_4-target.png,1000,2.0425,3,3899,1000,meters,jsons/v1_VE1000_randls_22_rotated.json,984528,1147338,29,Man
107,916587,DepthScenes,duration_manipulation_targetAtFixation,jsons/v1_VE1000_randls_22_rotated.json,http://54.235.29.9/FacialAge/BNav_EC2/DepthDuration/v2_depth_duration_MTurk/v2_DepthDuration_HTML.html#33,33,1366,768,1366,768,8-22-2022,8-28-57,108,depth_duration_stimuli/002660_2014-06-13_15-44-18_094959634447_rgbf001878-resize_2/002660_2014-06-13_15-44-18_094959634447_rgbf001878-resize_2-target.png,1000,3.576,3,6295,1000,meters,jsons/v1_VE1000_randls_22_rotated.json,984528,1147338,29,Man
108,916587,DepthScenes,duration_manipulation_targetAtFixation,jsons/v1_VE1000_randls_22_rotated.json,http://54.235.29.9/FacialAge/BNav_EC2/DepthDuration/v2_depth_duration_MTurk/v2_DepthDuration_HTML.html#33,33,1366,768,1366,768,8-22-2022,8-28-57,109,depth_duration_stimuli/002153_2014-06-25_21-27-18_260595134347_rgbf000038-resize_5/002153_2014-06-25_21-27-18_260595134347_rgbf000038-resize_5-target.png,1000,2.505,3,5598,1001,meters,jsons/v1_VE1000_randls_22_rotated.json,984528,1147338,29,Man
109,916587,DepthScenes,duration_manipulation_targetAtFixation,jsons/v1_VE1000_randls_22_rotated.json,http://54.235.29.9/FacialAge/BNav_EC2/DepthDuration/v2_depth_duration_MTurk/v2_DepthDuration_HTML.html#33,33,1366,768,1366,768,8-22-2022,8-28-57,110,depth_duration_stimuli/002323_2014-06-28_20-01-54_260595134347_rgbf000051-resize_4/002323_2014-06-28_20-01-54_260595134347_rgbf000051-resize_4-target.png,1000,3.7310000000000003,3,4415,999,meters,jsons/v1_VE1000_randls_22_rotated.json,984528,1147338,29,Man
110,916587,DepthScenes,duration_manipulation_targetAtFixation,jsons/v1_VE1000_randls_22_rotated.json,http://54.235.29.9/FacialAge/BNav_EC2/DepthDuration/v2_depth_duration_MTurk/v2_DepthDuration_HTML.html#33,33,1366,768,1366,768,8-22-2022,8-28-57,111,depth_duration_stimuli/000917_2014-06-09_22-45-29_260595134347_rgbf000149-resize_3/000917_2014-06-09_22-45-29_260595134347_rgbf000149-resize_3-target.png,1000,4.1865,4,3881,1000,meters,jsons/v1_VE1000_randls_22_rotated.json,984528,1147338,29,Man
111,916587,DepthScenes,duration_manipulation_targetAtFixation,jsons/v1_VE1000_randls_22_rotated.json,http://54.235.29.9/FacialAge/BNav_EC2/DepthDuration/v2_depth_duration_MTurk/v2_DepthDuration_HTML.html#33,33,1366,768,1366,768,8-22-2022,8-28-57,112,depth_duration_stimuli/001214_2014-06-17_16-13-55_260595134347_rgbf000111-resize_0/001214_2014-06-17_16-13-55_260595134347_rgbf000111-resize_0-target.png,1000,2.6505,2,6799,999,meters,jsons/v1_VE1000_randls_22_rotated.json,984528,1147338,29,Man
112,916587,DepthScenes,duration_manipulation_targetAtFixation,jsons/v1_VE1000_randls_22_rotated.json,http://54.235.29.9/FacialAge/BNav_EC2/DepthDuration/v2_depth_duration_MTurk/v2_DepthDuration_HTML.html#33,33,1366,768,1366,768,8-22-2022,8-28-57,113,depth_duration_stimuli/000810_2014-06-08_17-20-01_260595134347_rgbf000105-resize_0/000810_2014-06-08_17-20-01_260595134347_rgbf000105-resize_0-target.png,1000,1.4865,4,3795,1000,meters,jsons/v1_VE1000_randls_22_rotated.json,984528,1147338,29,Man
113,916587,DepthScenes,duration_manipulation_targetAtFixation,jsons/v1_VE1000_randls_22_rotated.json,http://54.235.29.9/FacialAge/BNav_EC2/DepthDuration/v2_depth_duration_MTurk/v2_DepthDuration_HTML.html#33,33,1366,768,1366,768,8-22-2022,8-28-57,114,depth_duration_stimuli/000749_2014-06-08_21-55-06_260595134347_rgbf000070-resize_2/000749_2014-06-08_21-55-06_260595134347_rgbf000070-resize_2-target.png,1000,2.331,1,6965,1000,meters,jsons/v1_VE1000_randls_22_rotated.json,984528,1147338,29,Man
114,916587,DepthScenes,duration_manipulation_targetAtFixation,jsons/v1_VE1000_randls_22_rotated.json,http://54.235.29.9/FacialAge/BNav_EC2/DepthDuration/v2_depth_duration_MTurk/v2_DepthDuration_HTML.html#33,33,1366,768,1366,768,8-22-2022,8-28-57,115,depth_duration_stimuli/002788_2014-06-22_19-36-03_094959634447_rgbf000088-resize_2/002788_2014-06-22_19-36-03_094959634447_rgbf000088-resize_2-target.png,1000,1.6465,2,3707,1001,meters,jsons/v1_VE1000_randls_22_rotated.json,984528,1147338,29,Man
115,916587,DepthScenes,duration_manipulation_targetAtFixation,jsons/v1_VE1000_randls_22_rotated.json,http://54.235.29.9/FacialAge/BNav_EC2/DepthDuration/v2_depth_duration_MTurk/v2_DepthDuration_HTML.html#33,33,1366,768,1366,768,8-22-2022,8-28-57,116,depth_duration_stimuli/001584_2014-06-20_11-07-43_260595134347_rgbf000002-resize_1/001584_2014-06-20_11-07-43_260595134347_rgbf000002-resize_1-target.png,1000,3.53,4,5470,1001,meters,jsons/v1_VE1000_randls_22_rotated.json,984528,1147338,29,Man
116,916587,DepthScenes,duration_manipulation_targetAtFixation,jsons/v1_VE1000_randls_22_rotated.json,http://54.235.29.9/FacialAge/BNav_EC2/DepthDuration/v2_depth_duration_MTurk/v2_DepthDuration_HTML.html#33,33,1366,768,1366,768,8-22-2022,8-28-57,117,depth_duration_stimuli/003621_2014-05-23_18-06-08_094959634447_rgbf000101-resize_1/003621_2014-05-23_18-06-08_094959634447_rgbf000101-resize_1-target.png,1000,3.9835,4,3518,999,meters,jsons/v1_VE1000_randls_22_rotated.json,984528,1147338,29,Man
117,916587,DepthScenes,duration_manipulation_targetAtFixation,jsons/v1_VE1000_randls_22_rotated.json,http://54.235.29.9/FacialAge/BNav_EC2/DepthDuration/v2_depth_duration_MTurk/v2_DepthDuration_HTML.html#33,33,1366,768,1366,768,8-22-2022,8-28-57,118,depth_duration_stimuli/000483_2014-06-09_20-41-45_260595134347_rgbf000116-resize_4/000483_2014-06-09_20-41-45_260595134347_rgbf000116-resize_4-target.png,1000,1.337,3,7520,1001,meters,jsons/v1_VE1000_randls_22_rotated.json,984528,1147338,29,Man
118,916587,DepthScenes,duration_manipulation_targetAtFixation,jsons/v1_VE1000_randls_22_rotated.json,http://54.235.29.9/FacialAge/BNav_EC2/DepthDuration/v2_depth_duration_MTurk/v2_DepthDuration_HTML.html#33,33,1366,768,1366,768,8-22-2022,8-28-57,119,depth_duration_stimuli/000469_2014-06-09_19-42-10_260595134347_rgbf000081-resize_1/000469_2014-06-09_19-42-10_260595134347_rgbf000081-resize_1-target.png,1000,1.652,2,3466,1000,meters,jsons/v1_VE1000_randls_22_rotated.json,984528,1147338,29,Man
119,916587,DepthScenes,duration_manipulation_targetAtFixation,jsons/v1_VE1000_randls_22_rotated.json,http://54.235.29.9/FacialAge/BNav_EC2/DepthDuration/v2_depth_duration_MTurk/v2_DepthDuration_HTML.html#33,33,1366,768,1366,768,8-22-2022,8-28-57,120,depth_duration_stimuli/000787_2014-06-08_22-33-53_260595134347_rgbf000175-resize_1/000787_2014-06-08_22-33-53_260595134347_rgbf000175-resize-original.jpg,1000,4.784,0,5902,1000,meters,jsons/v1_VE1000_randls_22_rotated.json,984528,1147338,29,Man
120,916587,DepthScenes,duration_manipulation_targetAtFixation,jsons/v1_VE1000_randls_22_rotated.json,http://54.235.29.9/FacialAge/BNav_EC2/DepthDuration/v2_depth_duration_MTurk/v2_DepthDuration_HTML.html#33,33,1366,768,1366,768,8-22-2022,8-28-57,121,depth_duration_stimuli/001235_2014-06-17_16-37-36_260595134347_rgbf000084-resize_4/001235_2014-06-17_16-37-36_260595134347_rgbf000084-resize_4-target.png,1000,3.6605,2,9278,1000,meters,jsons/v1_VE1000_randls_22_rotated.json,984528,1147338,29,Man
121,916587,DepthScenes,duration_manipulation_targetAtFixation,jsons/v1_VE1000_randls_22_rotated.json,http://54.235.29.9/FacialAge/BNav_EC2/DepthDuration/v2_depth_duration_MTurk/v2_DepthDuration_HTML.html#33,33,1366,768,1366,768,8-22-2022,8-28-57,122,depth_duration_stimuli/000788_2014-06-08_22-34-36_260595134347_rgbf000131-resize_1/000788_2014-06-08_22-34-36_260595134347_rgbf000131-resize_1-target.png,1000,3.359,4,3409,1001,meters,jsons/v1_VE1000_randls_22_rotated.json,984528,1147338,29,Man
122,916587,DepthScenes,duration_manipulation_targetAtFixation,jsons/v1_VE1000_randls_22_rotated.json,http://54.235.29.9/FacialAge/BNav_EC2/DepthDuration/v2_depth_duration_MTurk/v2_DepthDuration_HTML.html#33,33,1366,768,1366,768,8-22-2022,8-28-57,123,depth_duration_stimuli/000109_2014-05-14_23-41-52_260595134347_rgbf000035-resize_9/000109_2014-05-14_23-41-52_260595134347_rgbf000035-resize_9-target.png,1000,1.3545,4,5171,1000,meters,jsons/v1_VE1000_randls_22_rotated.json,984528,1147338,29,Man
123,916587,DepthScenes,duration_manipulation_targetAtFixation,jsons/v1_VE1000_randls_22_rotated.json,http://54.235.29.9/FacialAge/BNav_EC2/DepthDuration/v2_depth_duration_MTurk/v2_DepthDuration_HTML.html#33,33,1366,768,1366,768,8-22-2022,8-28-57,124,depth_duration_stimuli/000470_2014-06-09_19-42-40_260595134347_rgbf000094-resize_1/000470_2014-06-09_19-42-40_260595134347_rgbf000094-resize_1-target.png,1000,1.831,2,4099,1000,meters,jsons/v1_VE1000_randls_22_rotated.json,984528,1147338,29,Man
124,916587,DepthScenes,duration_manipulation_targetAtFixation,jsons/v1_VE1000_randls_22_rotated.json,http://54.235.29.9/FacialAge/BNav_EC2/DepthDuration/v2_depth_duration_MTurk/v2_DepthDuration_HTML.html#33,33,1366,768,1366,768,8-22-2022,8-28-57,125,depth_duration_stimuli/003338_2014-05-20_11-01-23_094959634447_rgbf000051-resize_6/003338_2014-05-20_11-01-23_094959634447_rgbf000051-resize_6-target.png,1000,1.693,5,6897,1000,meters,jsons/v1_VE1000_randls_22_rotated.json,984528,1147338,29,Man
125,916587,DepthScenes,duration_manipulation_targetAtFixation,jsons/v1_VE1000_randls_22_rotated.json,http://54.235.29.9/FacialAge/BNav_EC2/DepthDuration/v2_depth_duration_MTurk/v2_DepthDuration_HTML.html#33,33,1366,768,1366,768,8-22-2022,8-28-57,126,depth_duration_stimuli/002509_2014-06-24_13-19-22_094959634447_rgbf000077-resize_0/002509_2014-06-24_13-19-22_094959634447_rgbf000077-resize_0-target.png,1000,1.3065,1,4361,1000,meters,jsons/v1_VE1000_randls_22_rotated.json,984528,1147338,29,Man
126,916587,DepthScenes,duration_manipulation_targetAtFixation,jsons/v1_VE1000_randls_22_rotated.json,http://54.235.29.9/FacialAge/BNav_EC2/DepthDuration/v2_depth_duration_MTurk/v2_DepthDuration_HTML.html#33,33,1366,768,1366,768,8-22-2022,8-28-57,127,depth_duration_stimuli/000709_2014-06-08_13-51-55_260595134347_rgbf000068-resize_3/000709_2014-06-08_13-51-55_260595134347_rgbf000068-resize_3-target.png,1000,1.8030000000000002,4,6048,998,meters,jsons/v1_VE1000_randls_22_rotated.json,984528,1147338,29,Man
127,916587,DepthScenes,duration_manipulation_targetAtFixation,jsons/v1_VE1000_randls_22_rotated.json,http://54.235.29.9/FacialAge/BNav_EC2/DepthDuration/v2_depth_duration_MTurk/v2_DepthDuration_HTML.html#33,33,1366,768,1366,768,8-22-2022,8-28-57,128,depth_duration_stimuli/002057_2014-06-24_21-00-13_260595134347_rgbf000120-resize_1/002057_2014-06-24_21-00-13_260595134347_rgbf000120-resize_1-target.png,1000,2.967,1,3091,1000,meters,jsons/v1_VE1000_randls_22_rotated.json,984528,1147338,29,Man
128,916587,DepthScenes,duration_manipulation_targetAtFixation,jsons/v1_VE1000_randls_22_rotated.json,http://54.235.29.9/FacialAge/BNav_EC2/DepthDuration/v2_depth_duration_MTurk/v2_DepthDuration_HTML.html#33,33,1366,768,1366,768,8-22-2022,8-28-57,129,depth_duration_stimuli/002637_2014-06-24_14-51-13_094959634447_rgbf000066-resize_4/002637_2014-06-24_14-51-13_094959634447_rgbf000066-resize_4-target.png,1000,1.9955,2,7189,1000,meters,jsons/v1_VE1000_randls_22_rotated.json,984528,1147338,29,Man
129,916587,DepthScenes,duration_manipulation_targetAtFixation,jsons/v1_VE1000_randls_22_rotated.json,http://54.235.29.9/FacialAge/BNav_EC2/DepthDuration/v2_depth_duration_MTurk/v2_DepthDuration_HTML.html#33,33,1366,768,1366,768,8-22-2022,8-28-57,130,depth_duration_stimuli/003534_2014-05-22_15-06-10_094959634447_rgbf000102-resize_4/003534_2014-05-22_15-06-10_094959634447_rgbf000102-resize_4-target.png,1000,1.426,2,12417,1000,meters,jsons/v1_VE1000_randls_22_rotated.json,984528,1147338,29,Man
130,916587,DepthScenes,duration_manipulation_targetAtFixation,jsons/v1_VE1000_randls_22_rotated.json,http://54.235.29.9/FacialAge/BNav_EC2/DepthDuration/v2_depth_duration_MTurk/v2_DepthDuration_HTML.html#33,33,1366,768,1366,768,8-22-2022,8-28-57,131,depth_duration_stimuli/002344_2014-06-28_20-06-29_260595134347_rgbf000030-resize_1/002344_2014-06-28_20-06-29_260595134347_rgbf000030-resize_1-target.png,1000,1.5795,3,6445,1001,meters,jsons/v1_VE1000_randls_22_rotated.json,984528,1147338,29,Man
131,916587,DepthScenes,duration_manipulation_targetAtFixation,jsons/v1_VE1000_randls_22_rotated.json,http://54.235.29.9/FacialAge/BNav_EC2/DepthDuration/v2_depth_duration_MTurk/v2_DepthDuration_HTML.html#33,33,1366,768,1366,768,8-22-2022,8-28-57,132,depth_duration_stimuli/002725_2014-06-22_11-47-51_094959634447_rgbf000070-resize_1/002725_2014-06-22_11-47-51_094959634447_rgbf000070-resize_1-target.png,1000,2.195,5,3927,1000,meters,jsons/v1_VE1000_randls_22_rotated.json,984528,1147338,29,Man
132,916587,DepthScenes,duration_manipulation_targetAtFixation,jsons/v1_VE1000_randls_22_rotated.json,http://54.235.29.9/FacialAge/BNav_EC2/DepthDuration/v2_depth_duration_MTurk/v2_DepthDuration_HTML.html#33,33,1366,768,1366,768,8-22-2022,8-28-57,133,depth_duration_stimuli/002805_2014-06-22_19-54-03_094959634447_rgbf000079-resize_1/002805_2014-06-22_19-54-03_094959634447_rgbf000079-resize_1-target.png,1000,3.1439999999999997,4,6200,1000,meters,jsons/v1_VE1000_randls_22_rotated.json,984528,1147338,29,Man
133,916587,DepthScenes,duration_manipulation_targetAtFixation,jsons/v1_VE1000_randls_22_rotated.json,http://54.235.29.9/FacialAge/BNav_EC2/DepthDuration/v2_depth_duration_MTurk/v2_DepthDuration_HTML.html#33,33,1366,768,1366,768,8-22-2022,8-28-57,134,depth_duration_stimuli/000906_2014-06-08_13-35-43_260595134347_rgbf000155-resize_1/000906_2014-06-08_13-35-43_260595134347_rgbf000155-resize_1-target.png,1000,2.8489999999999998,4,3298,1000,meters,jsons/v1_VE1000_randls_22_rotated.json,984528,1147338,29,Man
134,916587,DepthScenes,duration_manipulation_targetAtFixation,jsons/v1_VE1000_randls_22_rotated.json,http://54.235.29.9/FacialAge/BNav_EC2/DepthDuration/v2_depth_duration_MTurk/v2_DepthDuration_HTML.html#33,33,1366,768,1366,768,8-22-2022,8-28-57,135,depth_duration_stimuli/000375_2014-06-08_11-17-29_260595134347_rgbf000133-resize_2/000375_2014-06-08_11-17-29_260595134347_rgbf000133-resize-original.jpg,1000,4.718,0,5518,1000,meters,jsons/v1_VE1000_randls_22_rotated.json,984528,1147338,29,Man
135,916587,DepthScenes,duration_manipulation_targetAtFixation,jsons/v1_VE1000_randls_22_rotated.json,http://54.235.29.9/FacialAge/BNav_EC2/DepthDuration/v2_depth_duration_MTurk/v2_DepthDuration_HTML.html#33,33,1366,768,1366,768,8-22-2022,8-28-57,136,depth_duration_stimuli/003083_2014-06-15_15-21-03_094959634447_rgbf000063-resize_1/003083_2014-06-15_15-21-03_094959634447_rgbf000063-resize_1-target.png,1000,4.1405,3,5493,999,meters,jsons/v1_VE1000_randls_22_rotated.json,984528,1147338,29,Man
136,916587,DepthScenes,duration_manipulation_targetAtFixation,jsons/v1_VE1000_randls_22_rotated.json,http://54.235.29.9/FacialAge/BNav_EC2/DepthDuration/v2_depth_duration_MTurk/v2_DepthDuration_HTML.html#33,33,1366,768,1366,768,8-22-2022,8-28-57,137,depth_duration_stimuli/000486_2014-06-09_20-47-20_260595134347_rgbf000143-resize_2/000486_2014-06-09_20-47-20_260595134347_rgbf000143-resize_2-target.png,1000,4.8325,4,3937,1000,meters,jsons/v1_VE1000_randls_22_rotated.json,984528,1147338,29,Man
137,916587,DepthScenes,duration_manipulation_targetAtFixation,jsons/v1_VE1000_randls_22_rotated.json,http://54.235.29.9/FacialAge/BNav_EC2/DepthDuration/v2_depth_duration_MTurk/v2_DepthDuration_HTML.html#33,33,1366,768,1366,768,8-22-2022,8-28-57,138,depth_duration_stimuli/002949_2014-06-26_15-57-42_094959634447_rgbf000079-resize_1/002949_2014-06-26_15-57-42_094959634447_rgbf000079-resize_1-target.png,1000,1.8915,3,5168,1000,meters,jsons/v1_VE1000_randls_22_rotated.json,984528,1147338,29,Man
138,916587,DepthScenes,duration_manipulation_targetAtFixation,jsons/v1_VE1000_randls_22_rotated.json,http://54.235.29.9/FacialAge/BNav_EC2/DepthDuration/v2_depth_duration_MTurk/v2_DepthDuration_HTML.html#33,33,1366,768,1366,768,8-22-2022,8-28-57,139,depth_duration_stimuli/000522_2014-06-08_13-35-06_260595134347_rgbf000244-resize_1/000522_2014-06-08_13-35-06_260595134347_rgbf000244-resize_1-target.png,1000,2.3715,2,4201,1000,meters,jsons/v1_VE1000_randls_22_rotated.json,984528,1147338,29,Man
139,916587,DepthScenes,duration_manipulation_targetAtFixation,jsons/v1_VE1000_randls_22_rotated.json,http://54.235.29.9/FacialAge/BNav_EC2/DepthDuration/v2_depth_duration_MTurk/v2_DepthDuration_HTML.html#33,33,1366,768,1366,768,8-22-2022,8-28-57,140,depth_duration_stimuli/001447_2014-06-19_17-00-32_260595134347_rgbf000082-resize_5/001447_2014-06-19_17-00-32_260595134347_rgbf000082-resize_5-target.png,1000,4.13775,4,5047,1002,meters,jsons/v1_VE1000_randls_22_rotated.json,984528,1147338,29,Man
140,916587,DepthScenes,duration_manipulation_targetAtFixation,jsons/v1_VE1000_randls_22_rotated.json,http://54.235.29.9/FacialAge/BNav_EC2/DepthDuration/v2_depth_duration_MTurk/v2_DepthDuration_HTML.html#33,33,1366,768,1366,768,8-22-2022,8-28-57,141,depth_duration_stimuli/000447_2014-06-08_16-15-46_260595134347_rgbf000130-resize_1/000447_2014-06-08_16-15-46_260595134347_rgbf000130-resize_1-target.png,1000,4.479,4,3510,1000,meters,jsons/v1_VE1000_randls_22_rotated.json,984528,1147338,29,Man
141,916587,DepthScenes,duration_manipulation_targetAtFixation,jsons/v1_VE1000_randls_22_rotated.json,http://54.235.29.9/FacialAge/BNav_EC2/DepthDuration/v2_depth_duration_MTurk/v2_DepthDuration_HTML.html#33,33,1366,768,1366,768,8-22-2022,8-28-57,142,depth_duration_stimuli/000457_2014-06-08_16-52-43_260595134347_rgbf000199-resize_1/000457_2014-06-08_16-52-43_260595134347_rgbf000199-resize_1-target.png,1000,3.6489999999999996,3,5758,999,meters,jsons/v1_VE1000_randls_22_rotated.json,984528,1147338,29,Man
142,916587,DepthScenes,duration_manipulation_targetAtFixation,jsons/v1_VE1000_randls_22_rotated.json,http://54.235.29.9/FacialAge/BNav_EC2/DepthDuration/v2_depth_duration_MTurk/v2_DepthDuration_HTML.html#33,33,1366,768,1366,768,8-22-2022,8-28-57,143,depth_duration_stimuli/000929_2014-06-09_16-33-19_260595134347_rgbf000139-resize_0/000929_2014-06-09_16-33-19_260595134347_rgbf000139-resize_0-target.png,1000,2.8680000000000003,4,4620,1000,meters,jsons/v1_VE1000_randls_22_rotated.json,984528,1147338,29,Man
143,916587,DepthScenes,duration_manipulation_targetAtFixation,jsons/v1_VE1000_randls_22_rotated.json,http://54.235.29.9/FacialAge/BNav_EC2/DepthDuration/v2_depth_duration_MTurk/v2_DepthDuration_HTML.html#33,33,1366,768,1366,768,8-22-2022,8-28-57,144,depth_duration_stimuli/001828_2014-06-26_21-40-03_260595134347_rgbf000024-resize_0/001828_2014-06-26_21-40-03_260595134347_rgbf000024-resize_0-target.png,1000,4.8260000000000005,3,5190,1000,meters,jsons/v1_VE1000_randls_22_rotated.json,984528,1147338,29,Man
144,916587,DepthScenes,duration_manipulation_targetAtFixation,jsons/v1_VE1000_randls_22_rotated.json,http://54.235.29.9/FacialAge/BNav_EC2/DepthDuration/v2_depth_duration_MTurk/v2_DepthDuration_HTML.html#33,33,1366,768,1366,768,8-22-2022,8-28-57,145,depth_duration_stimuli/000009_2014-05-26_14-32-05_260595134347_rgbf000034-resize_3/000009_2014-05-26_14-32-05_260595134347_rgbf000034-resize_3-target.png,1000,3.8715,5,3539,1000,meters,jsons/v1_VE1000_randls_22_rotated.json,984528,1147338,29,Man
145,916587,DepthScenes,duration_manipulation_targetAtFixation,jsons/v1_VE1000_randls_22_rotated.json,http://54.235.29.9/FacialAge/BNav_EC2/DepthDuration/v2_depth_duration_MTurk/v2_DepthDuration_HTML.html#33,33,1366,768,1366,768,8-22-2022,8-28-57,146,depth_duration_stimuli/002639_2014-06-24_14-51-37_094959634447_rgbf000074-resize_4/002639_2014-06-24_14-51-37_094959634447_rgbf000074-resize_4-target.png,1000,4.0375,4,4960,1000,meters,jsons/v1_VE1000_randls_22_rotated.json,984528,1147338,29,Man
146,916587,DepthScenes,duration_manipulation_targetAtFixation,jsons/v1_VE1000_randls_22_rotated.json,http://54.235.29.9/FacialAge/BNav_EC2/DepthDuration/v2_depth_duration_MTurk/v2_DepthDuration_HTML.html#33,33,1366,768,1366,768,8-22-2022,8-28-57,147,depth_duration_stimuli/003292_2014-05-14_21-53-49_094959634447_rgbf000100-resize_2/003292_2014-05-14_21-53-49_094959634447_rgbf000100-resize_2-target.png,1000,3.4815,7,4581,1000,meters,jsons/v1_VE1000_randls_22_rotated.json,984528,1147338,29,Man
147,916587,DepthScenes,duration_manipulation_targetAtFixation,jsons/v1_VE1000_randls_22_rotated.json,http://54.235.29.9/FacialAge/BNav_EC2/DepthDuration/v2_depth_duration_MTurk/v2_DepthDuration_HTML.html#33,33,1366,768,1366,768,8-22-2022,8-28-57,148,depth_duration_stimuli/000691_2014-06-08_13-08-50_260595134347_rgbf000132-resize_3/000691_2014-06-08_13-08-50_260595134347_rgbf000132-resize_3-target.png,1000,4.1530000000000005,4,4687,1000,meters,jsons/v1_VE1000_randls_22_rotated.json,984528,1147338,29,Man
148,916587,DepthScenes,duration_manipulation_targetAtFixation,jsons/v1_VE1000_randls_22_rotated.json,http://54.235.29.9/FacialAge/BNav_EC2/DepthDuration/v2_depth_duration_MTurk/v2_DepthDuration_HTML.html#33,33,1366,768,1366,768,8-22-2022,8-28-57,149,depth_duration_stimuli/002213_2014-06-28_18-37-58_260595134347_rgbf000055-resize_1/002213_2014-06-28_18-37-58_260595134347_rgbf000055-resize_1-target.png,1000,3.62,5,3550,1000,meters,jsons/v1_VE1000_randls_22_rotated.json,984528,1147338,29,Man
149,916587,DepthScenes,duration_manipulation_targetAtFixation,jsons/v1_VE1000_randls_22_rotated.json,http://54.235.29.9/FacialAge/BNav_EC2/DepthDuration/v2_depth_duration_MTurk/v2_DepthDuration_HTML.html#33,33,1366,768,1366,768,8-22-2022,8-28-57,150,depth_duration_stimuli/002467_2014-06-28_20-38-07_260595134347_rgbf000026-resize_2/002467_2014-06-28_20-38-07_260595134347_rgbf000026-resize_2-target.png,1000,4.742,2,4824,1000,meters,jsons/v1_VE1000_randls_22_rotated.json,984528,1147338,29,Man
150,916587,DepthScenes,duration_manipulation_targetAtFixation,jsons/v1_VE1000_randls_22_rotated.json,http://54.235.29.9/FacialAge/BNav_EC2/DepthDuration/v2_depth_duration_MTurk/v2_DepthDuration_HTML.html#33,33,1366,768,1366,768,8-22-2022,8-28-57,151,depth_duration_stimuli/002570_2014-06-24_13-59-54_094959634447_rgbf000059-resize_0/002570_2014-06-24_13-59-54_094959634447_rgbf000059-resize_0-target.png,1000,4.037,6,3695,999,meters,jsons/v1_VE1000_randls_22_rotated.json,984528,1147338,29,Man
151,916587,DepthScenes,duration_manipulation_targetAtFixation,jsons/v1_VE1000_randls_22_rotated.json,http://54.235.29.9/FacialAge/BNav_EC2/DepthDuration/v2_depth_duration_MTurk/v2_DepthDuration_HTML.html#33,33,1366,768,1366,768,8-22-2022,8-28-57,152,depth_duration_stimuli/000569_2014-06-09_22-51-47_260595134347_rgbf000141-resize_3/000569_2014-06-09_22-51-47_260595134347_rgbf000141-resize-original.jpg,1000,4.512,0,5277,999,meters,jsons/v1_VE1000_randls_22_rotated.json,984528,1147338,29,Man
152,916587,DepthScenes,duration_manipulation_targetAtFixation,jsons/v1_VE1000_randls_22_rotated.json,http://54.235.29.9/FacialAge/BNav_EC2/DepthDuration/v2_depth_duration_MTurk/v2_DepthDuration_HTML.html#33,33,1366,768,1366,768,8-22-2022,8-28-57,153,depth_duration_stimuli/003129_2014-05-12_10-48-10_094959634447_rgbf000100-resize_0/003129_2014-05-12_10-48-10_094959634447_rgbf000100-resize_0-target.png,1000,4.9305,2,4737,1000,meters,jsons/v1_VE1000_randls_22_rotated.json,984528,1147338,29,Man
153,916587,DepthScenes,duration_manipulation_targetAtFixation,jsons/v1_VE1000_randls_22_rotated.json,http://54.235.29.9/FacialAge/BNav_EC2/DepthDuration/v2_depth_duration_MTurk/v2_DepthDuration_HTML.html#33,33,1366,768,1366,768,8-22-2022,8-28-57,154,depth_duration_stimuli/000414_2014-06-04_19-49-13_260595134347_rgbf000044-resize_0/000414_2014-06-04_19-49-13_260595134347_rgbf000044-resize_0-target.png,1000,4.329,4,3401,1000,meters,jsons/v1_VE1000_randls_22_rotated.json,984528,1147338,29,Man
154,916587,DepthScenes,duration_manipulation_targetAtFixation,jsons/v1_VE1000_randls_22_rotated.json,http://54.235.29.9/FacialAge/BNav_EC2/DepthDuration/v2_depth_duration_MTurk/v2_DepthDuration_HTML.html#33,33,1366,768,1366,768,8-22-2022,8-28-57,155,depth_duration_stimuli/002875_2014-06-01_15-19-00_094959634447_rgbf000151-resize_1/002875_2014-06-01_15-19-00_094959634447_rgbf000151-resize_1-target.png,1000,1.9675,4,4886,1000,meters,jsons/v1_VE1000_randls_22_rotated.json,984528,1147338,29,Man
155,916587,DepthScenes,duration_manipulation_targetAtFixation,jsons/v1_VE1000_randls_22_rotated.json,http://54.235.29.9/FacialAge/BNav_EC2/DepthDuration/v2_depth_duration_MTurk/v2_DepthDuration_HTML.html#33,33,1366,768,1366,768,8-22-2022,8-28-57,156,depth_duration_stimuli/001011_2014-06-08_23-18-54_260595134347_rgbf000044-resize_4/001011_2014-06-08_23-18-54_260595134347_rgbf000044-resize_4-target.png,1000,2.4730000000000003,6,3349,999,meters,jsons/v1_VE1000_randls_22_rotated.json,984528,1147338,29,Man
156,916587,DepthScenes,duration_manipulation_targetAtFixation,jsons/v1_VE1000_randls_22_rotated.json,http://54.235.29.9/FacialAge/BNav_EC2/DepthDuration/v2_depth_duration_MTurk/v2_DepthDuration_HTML.html#33,33,1366,768,1366,768,8-22-2022,8-28-57,157,depth_duration_stimuli/002750_2014-06-22_19-08-03_094959634447_rgbf000094-resize_4/002750_2014-06-22_19-08-03_094959634447_rgbf000094-resize_4-target.png,1000,2.354,3,5457,999,meters,jsons/v1_VE1000_randls_22_rotated.json,984528,1147338,29,Man
157,916587,DepthScenes,duration_manipulation_targetAtFixation,jsons/v1_VE1000_randls_22_rotated.json,http://54.235.29.9/FacialAge/BNav_EC2/DepthDuration/v2_depth_duration_MTurk/v2_DepthDuration_HTML.html#33,33,1366,768,1366,768,8-22-2022,8-28-57,158,depth_duration_stimuli/002549_2014-06-24_13-41-39_094959634447_rgbf000022-resize_3/002549_2014-06-24_13-41-39_094959634447_rgbf000022-resize_3-target.png,1000,1.476,3,3261,999,meters,jsons/v1_VE1000_randls_22_rotated.json,984528,1147338,29,Man
158,916587,DepthScenes,duration_manipulation_targetAtFixation,jsons/v1_VE1000_randls_22_rotated.json,http://54.235.29.9/FacialAge/BNav_EC2/DepthDuration/v2_depth_duration_MTurk/v2_DepthDuration_HTML.html#33,33,1366,768,1366,768,8-22-2022,8-28-57,159,depth_duration_stimuli/000635_2014-06-08_16-38-42_260595134347_rgbf000106-resize_1/000635_2014-06-08_16-38-42_260595134347_rgbf000106-resize_1-target.png,1000,2.074,2,4948,999,meters,jsons/v1_VE1000_randls_22_rotated.json,984528,1147338,29,Man
159,916587,DepthScenes,duration_manipulation_targetAtFixation,jsons/v1_VE1000_randls_22_rotated.json,http://54.235.29.9/FacialAge/BNav_EC2/DepthDuration/v2_depth_duration_MTurk/v2_DepthDuration_HTML.html#33,33,1366,768,1366,768,8-22-2022,8-28-57,160,depth_duration_stimuli/002279_2014-06-28_18-55-32_260595134347_rgbf000040-resize_5/002279_2014-06-28_18-55-32_260595134347_rgbf000040-resize_5-target.png,1000,1.5043333333333,4,3870,1000,meters,jsons/v1_VE1000_randls_22_rotated.json,984528,1147338,29,Man
160,916587,DepthScenes,duration_manipulation_targetAtFixation,jsons/v1_VE1000_randls_22_rotated.json,http://54.235.29.9/FacialAge/BNav_EC2/DepthDuration/v2_depth_duration_MTurk/v2_DepthDuration_HTML.html#33,33,1366,768,1366,768,8-22-2022,8-28-57,161,depth_duration_stimuli/002568_2014-06-24_13-59-21_094959634447_rgbf000062-resize_4/002568_2014-06-24_13-59-21_094959634447_rgbf000062-resize_4-target.png,1000,3.015,2,4998,1000,meters,jsons/v1_VE1000_randls_22_rotated.json,984528,1147338,29,Man
161,916587,DepthScenes,duration_manipulation_targetAtFixation,jsons/v1_VE1000_randls_22_rotated.json,http://54.235.29.9/FacialAge/BNav_EC2/DepthDuration/v2_depth_duration_MTurk/v2_DepthDuration_HTML.html#33,33,1366,768,1366,768,8-22-2022,8-28-57,162,depth_duration_stimuli/003492_2014-05-21_15-50-55_094959634447_rgbf000828-resize_1/003492_2014-05-21_15-50-55_094959634447_rgbf000828-resize_1-target.png,1000,4.06875,3,4119,999,meters,jsons/v1_VE1000_randls_22_rotated.json,984528,1147338,29,Man
162,916587,DepthScenes,duration_manipulation_targetAtFixation,jsons/v1_VE1000_randls_22_rotated.json,http://54.235.29.9/FacialAge/BNav_EC2/DepthDuration/v2_depth_duration_MTurk/v2_DepthDuration_HTML.html#33,33,1366,768,1366,768,8-22-2022,8-28-57,163,depth_duration_stimuli/001617_2014-06-20_11-35-32_260595134347_rgbf000066-resize_1/001617_2014-06-20_11-35-32_260595134347_rgbf000066-resize_1-target.png,1000,3.7910000000000004,3,5102,1001,meters,jsons/v1_VE1000_randls_22_rotated.json,984528,1147338,29,Man
163,916587,DepthScenes,duration_manipulation_targetAtFixation,jsons/v1_VE1000_randls_22_rotated.json,http://54.235.29.9/FacialAge/BNav_EC2/DepthDuration/v2_depth_duration_MTurk/v2_DepthDuration_HTML.html#33,33,1366,768,1366,768,8-22-2022,8-28-57,164,depth_duration_stimuli/001806_2014-06-26_20-50-20_260595134347_rgbf000091-resize_1/001806_2014-06-26_20-50-20_260595134347_rgbf000091-resize_1-target.png,1000,2.7305,3,3558,1002,meters,jsons/v1_VE1000_randls_22_rotated.json,984528,1147338,29,Man
