,subjID,experimentName,versionName,sequenceName,url,selected_row,windowWidth,windowHeight,screenWidth,screenHeight,startDate,startTime,trial,stimulus,duration,actual_depth,depth_estimate,trial_RT,log_sceneDuration,unitSelection,seq_filepath,experimentTime,totalTime,age,gender
0,920142,DepthScenes,duration_manipulation_targetAtFixation,jsons/v1_VE1000_randls_2.json,http://54.235.29.9/FacialAge/BNav_EC2/DepthDuration/v2_depth_duration_MTurk/v2_DepthDuration_HTML.html#136,136,1280,1024,1280,1024,8-22-2022,4-59-45,1,depth_duration_stimuli/002375_2014-06-28_20-13-44_260595134347_rgbf000032-resize_1/002375_2014-06-28_20-13-44_260595134347_rgbf000032-resize_1-target.png,1000,4.0175,25,6858,1014,meters,jsons/v1_VE1000_randls_2.json,911175,2234512,31,Man
1,920142,DepthScenes,duration_manipulation_targetAtFixation,jsons/v1_VE1000_randls_2.json,http://54.235.29.9/FacialAge/BNav_EC2/DepthDuration/v2_depth_duration_MTurk/v2_DepthDuration_HTML.html#136,136,1280,1024,1280,1024,8-22-2022,4-59-45,2,depth_duration_stimuli/002657_2014-06-13_15-29-54_094959634447_rgbf000150-resize_1/002657_2014-06-13_15-29-54_094959634447_rgbf000150-resize_1-target.png,1000,4.919,28,11622,985,meters,jsons/v1_VE1000_randls_2.json,911175,2234512,31,Man
2,920142,DepthScenes,duration_manipulation_targetAtFixation,jsons/v1_VE1000_randls_2.json,http://54.235.29.9/FacialAge/BNav_EC2/DepthDuration/v2_depth_duration_MTurk/v2_DepthDuration_HTML.html#136,136,1280,1024,1280,1024,8-22-2022,4-59-45,3,depth_duration_stimuli/000470_2014-06-09_19-42-40_260595134347_rgbf000094-resize_1/000470_2014-06-09_19-42-40_260595134347_rgbf000094-resize_1-target.png,1000,1.831,27,4151,999,meters,jsons/v1_VE1000_randls_2.json,911175,2234512,31,Man
3,920142,DepthScenes,duration_manipulation_targetAtFixation,jsons/v1_VE1000_randls_2.json,http://54.235.29.9/FacialAge/BNav_EC2/DepthDuration/v2_depth_duration_MTurk/v2_DepthDuration_HTML.html#136,136,1280,1024,1280,1024,8-22-2022,4-59-45,4,depth_duration_stimuli/000109_2014-05-14_23-41-52_260595134347_rgbf000035-resize_9/000109_2014-05-14_23-41-52_260595134347_rgbf000035-resize_9-target.png,1000,1.3545,22,4048,1001,meters,jsons/v1_VE1000_randls_2.json,911175,2234512,31,Man
4,920142,DepthScenes,duration_manipulation_targetAtFixation,jsons/v1_VE1000_randls_2.json,http://54.235.29.9/FacialAge/BNav_EC2/DepthDuration/v2_depth_duration_MTurk/v2_DepthDuration_HTML.html#136,136,1280,1024,1280,1024,8-22-2022,4-59-45,5,depth_duration_stimuli/001016_2014-06-09_16-16-10_260595134347_rgbf000112-resize_5/001016_2014-06-09_16-16-10_260595134347_rgbf000112-resize_5-target.png,1000,1.6565,29,4512,1000,meters,jsons/v1_VE1000_randls_2.json,911175,2234512,31,Man
5,920142,DepthScenes,duration_manipulation_targetAtFixation,jsons/v1_VE1000_randls_2.json,http://54.235.29.9/FacialAge/BNav_EC2/DepthDuration/v2_depth_duration_MTurk/v2_DepthDuration_HTML.html#136,136,1280,1024,1280,1024,8-22-2022,4-59-45,6,depth_duration_stimuli/002340_2014-06-28_20-05-46_260595134347_rgbf000113-resize_0/002340_2014-06-28_20-05-46_260595134347_rgbf000113-resize_0-target.png,1000,2.4735,32,4192,1000,meters,jsons/v1_VE1000_randls_2.json,911175,2234512,31,Man
6,920142,DepthScenes,duration_manipulation_targetAtFixation,jsons/v1_VE1000_randls_2.json,http://54.235.29.9/FacialAge/BNav_EC2/DepthDuration/v2_depth_duration_MTurk/v2_DepthDuration_HTML.html#136,136,1280,1024,1280,1024,8-22-2022,4-59-45,7,depth_duration_stimuli/002153_2014-06-25_21-27-18_260595134347_rgbf000038-resize_5/002153_2014-06-25_21-27-18_260595134347_rgbf000038-resize_5-target.png,1000,2.505,35,5191,1000,meters,jsons/v1_VE1000_randls_2.json,911175,2234512,31,Man
7,920142,DepthScenes,duration_manipulation_targetAtFixation,jsons/v1_VE1000_randls_2.json,http://54.235.29.9/FacialAge/BNav_EC2/DepthDuration/v2_depth_duration_MTurk/v2_DepthDuration_HTML.html#136,136,1280,1024,1280,1024,8-22-2022,4-59-45,8,depth_duration_stimuli/002660_2014-06-13_15-44-18_094959634447_rgbf001878-resize_2/002660_2014-06-13_15-44-18_094959634447_rgbf001878-resize_2-target.png,1000,3.576,38,4248,998,meters,jsons/v1_VE1000_randls_2.json,911175,2234512,31,Man
8,920142,DepthScenes,duration_manipulation_targetAtFixation,jsons/v1_VE1000_randls_2.json,http://54.235.29.9/FacialAge/BNav_EC2/DepthDuration/v2_depth_duration_MTurk/v2_DepthDuration_HTML.html#136,136,1280,1024,1280,1024,8-22-2022,4-59-45,9,depth_duration_stimuli/003534_2014-05-22_15-06-10_094959634447_rgbf000102-resize_4/003534_2014-05-22_15-06-10_094959634447_rgbf000102-resize_4-target.png,1000,1.426,21,5452,1000,meters,jsons/v1_VE1000_randls_2.json,911175,2234512,31,Man
9,920142,DepthScenes,duration_manipulation_targetAtFixation,jsons/v1_VE1000_randls_2.json,http://54.235.29.9/FacialAge/BNav_EC2/DepthDuration/v2_depth_duration_MTurk/v2_DepthDuration_HTML.html#136,136,1280,1024,1280,1024,8-22-2022,4-59-45,10,depth_duration_stimuli/002637_2014-06-24_14-51-13_094959634447_rgbf000066-resize_4/002637_2014-06-24_14-51-13_094959634447_rgbf000066-resize_4-target.png,1000,1.9955,29,3865,999,meters,jsons/v1_VE1000_randls_2.json,911175,2234512,31,Man
10,920142,DepthScenes,duration_manipulation_targetAtFixation,jsons/v1_VE1000_randls_2.json,http://54.235.29.9/FacialAge/BNav_EC2/DepthDuration/v2_depth_duration_MTurk/v2_DepthDuration_HTML.html#136,136,1280,1024,1280,1024,8-22-2022,4-59-45,11,depth_duration_stimuli/000739_2014-06-08_18-45-58_260595134347_rgbf000068-resize_1/000739_2014-06-08_18-45-58_260595134347_rgbf000068-resize_1-target.png,1000,3.534,25,8808,1000,meters,jsons/v1_VE1000_randls_2.json,911175,2234512,31,Man
11,920142,DepthScenes,duration_manipulation_targetAtFixation,jsons/v1_VE1000_randls_2.json,http://54.235.29.9/FacialAge/BNav_EC2/DepthDuration/v2_depth_duration_MTurk/v2_DepthDuration_HTML.html#136,136,1280,1024,1280,1024,8-22-2022,4-59-45,12,depth_duration_stimuli/000734_2014-06-08_17-39-11_260595134347_rgbf000128-resize_2/000734_2014-06-08_17-39-11_260595134347_rgbf000128-resize_2-target.png,1000,4.098,29,3955,1000,meters,jsons/v1_VE1000_randls_2.json,911175,2234512,31,Man
12,920142,DepthScenes,duration_manipulation_targetAtFixation,jsons/v1_VE1000_randls_2.json,http://54.235.29.9/FacialAge/BNav_EC2/DepthDuration/v2_depth_duration_MTurk/v2_DepthDuration_HTML.html#136,136,1280,1024,1280,1024,8-22-2022,4-59-45,13,depth_duration_stimuli/000569_2014-06-09_22-51-47_260595134347_rgbf000141-resize_3/000569_2014-06-09_22-51-47_260595134347_rgbf000141-resize-original.jpg,1000,4.512,0,3542,1001,meters,jsons/v1_VE1000_randls_2.json,911175,2234512,31,Man
13,920142,DepthScenes,duration_manipulation_targetAtFixation,jsons/v1_VE1000_randls_2.json,http://54.235.29.9/FacialAge/BNav_EC2/DepthDuration/v2_depth_duration_MTurk/v2_DepthDuration_HTML.html#136,136,1280,1024,1280,1024,8-22-2022,4-59-45,14,depth_duration_stimuli/001055_2014-06-08_18-45-35_260595134347_rgbf000111-resize_4/001055_2014-06-08_18-45-35_260595134347_rgbf000111-resize_4-target.png,1000,2.4290000000000003,37,3633,1000,meters,jsons/v1_VE1000_randls_2.json,911175,2234512,31,Man
14,920142,DepthScenes,duration_manipulation_targetAtFixation,jsons/v1_VE1000_randls_2.json,http://54.235.29.9/FacialAge/BNav_EC2/DepthDuration/v2_depth_duration_MTurk/v2_DepthDuration_HTML.html#136,136,1280,1024,1280,1024,8-22-2022,4-59-45,15,depth_duration_stimuli/000549_2014-06-08_22-10-24_260595134347_rgbf000247-resize_3/000549_2014-06-08_22-10-24_260595134347_rgbf000247-resize_3-target.png,1000,1.841,25,3781,1000,meters,jsons/v1_VE1000_randls_2.json,911175,2234512,31,Man
15,920142,DepthScenes,duration_manipulation_targetAtFixation,jsons/v1_VE1000_randls_2.json,http://54.235.29.9/FacialAge/BNav_EC2/DepthDuration/v2_depth_duration_MTurk/v2_DepthDuration_HTML.html#136,136,1280,1024,1280,1024,8-22-2022,4-59-45,16,depth_duration_stimuli/001110_2014-06-15_17-25-28_260595134347_rgbf000150-resize_1/001110_2014-06-15_17-25-28_260595134347_rgbf000150-resize_1-target.png,1000,1.7115,28,3857,1001,meters,jsons/v1_VE1000_randls_2.json,911175,2234512,31,Man
16,920142,DepthScenes,duration_manipulation_targetAtFixation,jsons/v1_VE1000_randls_2.json,http://54.235.29.9/FacialAge/BNav_EC2/DepthDuration/v2_depth_duration_MTurk/v2_DepthDuration_HTML.html#136,136,1280,1024,1280,1024,8-22-2022,4-59-45,17,depth_duration_stimuli/000927_2014-06-09_16-32-30_260595134347_rgbf000123-resize_3/000927_2014-06-09_16-32-30_260595134347_rgbf000123-resize_3-target.png,1000,2.6785,30,3612,998,meters,jsons/v1_VE1000_randls_2.json,911175,2234512,31,Man
17,920142,DepthScenes,duration_manipulation_targetAtFixation,jsons/v1_VE1000_randls_2.json,http://54.235.29.9/FacialAge/BNav_EC2/DepthDuration/v2_depth_duration_MTurk/v2_DepthDuration_HTML.html#136,136,1280,1024,1280,1024,8-22-2022,4-59-45,18,depth_duration_stimuli/001011_2014-06-08_23-18-54_260595134347_rgbf000044-resize_4/001011_2014-06-08_23-18-54_260595134347_rgbf000044-resize_4-target.png,1000,2.4730000000000003,36,3847,999,meters,jsons/v1_VE1000_randls_2.json,911175,2234512,31,Man
18,920142,DepthScenes,duration_manipulation_targetAtFixation,jsons/v1_VE1000_randls_2.json,http://54.235.29.9/FacialAge/BNav_EC2/DepthDuration/v2_depth_duration_MTurk/v2_DepthDuration_HTML.html#136,136,1280,1024,1280,1024,8-22-2022,4-59-45,19,depth_duration_stimuli/002875_2014-06-01_15-19-00_094959634447_rgbf000151-resize_1/002875_2014-06-01_15-19-00_094959634447_rgbf000151-resize_1-target.png,1000,1.9675,37,5164,998,meters,jsons/v1_VE1000_randls_2.json,911175,2234512,31,Man
19,920142,DepthScenes,duration_manipulation_targetAtFixation,jsons/v1_VE1000_randls_2.json,http://54.235.29.9/FacialAge/BNav_EC2/DepthDuration/v2_depth_duration_MTurk/v2_DepthDuration_HTML.html#136,136,1280,1024,1280,1024,8-22-2022,4-59-45,20,depth_duration_stimuli/001449_2014-06-19_17-01-27_260595134347_rgbf000116-resize_2/001449_2014-06-19_17-01-27_260595134347_rgbf000116-resize_2-target.png,1000,3.452,36,8746,1001,meters,jsons/v1_VE1000_randls_2.json,911175,2234512,31,Man
20,920142,DepthScenes,duration_manipulation_targetAtFixation,jsons/v1_VE1000_randls_2.json,http://54.235.29.9/FacialAge/BNav_EC2/DepthDuration/v2_depth_duration_MTurk/v2_DepthDuration_HTML.html#136,136,1280,1024,1280,1024,8-22-2022,4-59-45,21,depth_duration_stimuli/001450_2014-06-19_17-02-03_260595134347_rgbf000203-resize_4/001450_2014-06-19_17-02-03_260595134347_rgbf000203-resize_4-target.png,1000,4.0106666666667,28,4829,1000,meters,jsons/v1_VE1000_randls_2.json,911175,2234512,31,Man
21,920142,DepthScenes,duration_manipulation_targetAtFixation,jsons/v1_VE1000_randls_2.json,http://54.235.29.9/FacialAge/BNav_EC2/DepthDuration/v2_depth_duration_MTurk/v2_DepthDuration_HTML.html#136,136,1280,1024,1280,1024,8-22-2022,4-59-45,22,depth_duration_stimuli/001029_2014-06-08_13-17-57_260595134347_rgbf000065-resize_1/001029_2014-06-08_13-17-57_260595134347_rgbf000065-resize_1-target.png,1000,3.0835,34,5528,1001,meters,jsons/v1_VE1000_randls_2.json,911175,2234512,31,Man
22,920142,DepthScenes,duration_manipulation_targetAtFixation,jsons/v1_VE1000_randls_2.json,http://54.235.29.9/FacialAge/BNav_EC2/DepthDuration/v2_depth_duration_MTurk/v2_DepthDuration_HTML.html#136,136,1280,1024,1280,1024,8-22-2022,4-59-45,23,depth_duration_stimuli/000677_2014-06-08_23-10-32_260595134347_rgbf000158-resize_6/000677_2014-06-08_23-10-32_260595134347_rgbf000158-resize_6-target.png,1000,3.556,35,3595,1000,meters,jsons/v1_VE1000_randls_2.json,911175,2234512,31,Man
23,920142,DepthScenes,duration_manipulation_targetAtFixation,jsons/v1_VE1000_randls_2.json,http://54.235.29.9/FacialAge/BNav_EC2/DepthDuration/v2_depth_duration_MTurk/v2_DepthDuration_HTML.html#136,136,1280,1024,1280,1024,8-22-2022,4-59-45,24,depth_duration_stimuli/002905_2014-06-03_18-04-43_094959634447_rgbf000151-resize_2/002905_2014-06-03_18-04-43_094959634447_rgbf000151-resize_2-target.png,1000,2.0295,28,6317,1000,meters,jsons/v1_VE1000_randls_2.json,911175,2234512,31,Man
24,920142,DepthScenes,duration_manipulation_targetAtFixation,jsons/v1_VE1000_randls_2.json,http://54.235.29.9/FacialAge/BNav_EC2/DepthDuration/v2_depth_duration_MTurk/v2_DepthDuration_HTML.html#136,136,1280,1024,1280,1024,8-22-2022,4-59-45,25,depth_duration_stimuli/003423_2014-05-21_10-23-26_094959634447_rgbf002665-resize_2/003423_2014-05-21_10-23-26_094959634447_rgbf002665-resize_2-target.png,1000,3.2575,38,3539,1000,meters,jsons/v1_VE1000_randls_2.json,911175,2234512,31,Man
25,920142,DepthScenes,duration_manipulation_targetAtFixation,jsons/v1_VE1000_randls_2.json,http://54.235.29.9/FacialAge/BNav_EC2/DepthDuration/v2_depth_duration_MTurk/v2_DepthDuration_HTML.html#136,136,1280,1024,1280,1024,8-22-2022,4-59-45,26,depth_duration_stimuli/001092_2014-06-15_17-34-58_260595134347_rgbf000171-resize_3/001092_2014-06-15_17-34-58_260595134347_rgbf000171-resize_3-target.png,1000,2.6935,27,7280,999,meters,jsons/v1_VE1000_randls_2.json,911175,2234512,31,Man
26,920142,DepthScenes,duration_manipulation_targetAtFixation,jsons/v1_VE1000_randls_2.json,http://54.235.29.9/FacialAge/BNav_EC2/DepthDuration/v2_depth_duration_MTurk/v2_DepthDuration_HTML.html#136,136,1280,1024,1280,1024,8-22-2022,4-59-45,27,depth_duration_stimuli/002545_2014-06-24_13-38-53_094959634447_rgbf000080-resize_4/002545_2014-06-24_13-38-53_094959634447_rgbf000080-resize_4-target.png,1000,1.9205,26,3956,1000,meters,jsons/v1_VE1000_randls_2.json,911175,2234512,31,Man
27,920142,DepthScenes,duration_manipulation_targetAtFixation,jsons/v1_VE1000_randls_2.json,http://54.235.29.9/FacialAge/BNav_EC2/DepthDuration/v2_depth_duration_MTurk/v2_DepthDuration_HTML.html#136,136,1280,1024,1280,1024,8-22-2022,4-59-45,28,depth_duration_stimuli/001808_2014-06-26_20-50-58_260595134347_rgbf000029-resize_1/001808_2014-06-26_20-50-58_260595134347_rgbf000029-resize_1-target.png,1000,4.249,33,5051,999,meters,jsons/v1_VE1000_randls_2.json,911175,2234512,31,Man
28,920142,DepthScenes,duration_manipulation_targetAtFixation,jsons/v1_VE1000_randls_2.json,http://54.235.29.9/FacialAge/BNav_EC2/DepthDuration/v2_depth_duration_MTurk/v2_DepthDuration_HTML.html#136,136,1280,1024,1280,1024,8-22-2022,4-59-45,29,depth_duration_stimuli/001815_2014-06-26_20-52-55_260595134347_rgbf000020-resize_0/001815_2014-06-26_20-52-55_260595134347_rgbf000020-resize_0-target.png,1000,3.3865,37,3665,1021,meters,jsons/v1_VE1000_randls_2.json,911175,2234512,31,Man
29,920142,DepthScenes,duration_manipulation_targetAtFixation,jsons/v1_VE1000_randls_2.json,http://54.235.29.9/FacialAge/BNav_EC2/DepthDuration/v2_depth_duration_MTurk/v2_DepthDuration_HTML.html#136,136,1280,1024,1280,1024,8-22-2022,4-59-45,30,depth_duration_stimuli/000375_2014-06-08_11-17-29_260595134347_rgbf000133-resize_2/000375_2014-06-08_11-17-29_260595134347_rgbf000133-resize-original.jpg,1000,4.718,0,4335,1000,meters,jsons/v1_VE1000_randls_2.json,911175,2234512,31,Man
30,920142,DepthScenes,duration_manipulation_targetAtFixation,jsons/v1_VE1000_randls_2.json,http://54.235.29.9/FacialAge/BNav_EC2/DepthDuration/v2_depth_duration_MTurk/v2_DepthDuration_HTML.html#136,136,1280,1024,1280,1024,8-22-2022,4-59-45,31,depth_duration_stimuli/000810_2014-06-08_17-20-01_260595134347_rgbf000105-resize_0/000810_2014-06-08_17-20-01_260595134347_rgbf000105-resize_0-target.png,1000,1.4865,27,4883,1000,meters,jsons/v1_VE1000_randls_2.json,911175,2234512,31,Man
31,920142,DepthScenes,duration_manipulation_targetAtFixation,jsons/v1_VE1000_randls_2.json,http://54.235.29.9/FacialAge/BNav_EC2/DepthDuration/v2_depth_duration_MTurk/v2_DepthDuration_HTML.html#136,136,1280,1024,1280,1024,8-22-2022,4-59-45,32,depth_duration_stimuli/001214_2014-06-17_16-13-55_260595134347_rgbf000111-resize_0/001214_2014-06-17_16-13-55_260595134347_rgbf000111-resize_0-target.png,1000,2.6505,26,3610,1000,meters,jsons/v1_VE1000_randls_2.json,911175,2234512,31,Man
32,920142,DepthScenes,duration_manipulation_targetAtFixation,jsons/v1_VE1000_randls_2.json,http://54.235.29.9/FacialAge/BNav_EC2/DepthDuration/v2_depth_duration_MTurk/v2_DepthDuration_HTML.html#136,136,1280,1024,1280,1024,8-22-2022,4-59-45,33,depth_duration_stimuli/000493_2014-06-09_21-01-18_260595134347_rgbf000196-resize_3/000493_2014-06-09_21-01-18_260595134347_rgbf000196-resize_3-target.png,1000,3.44,35,4922,1000,meters,jsons/v1_VE1000_randls_2.json,911175,2234512,31,Man
33,920142,DepthScenes,duration_manipulation_targetAtFixation,jsons/v1_VE1000_randls_2.json,http://54.235.29.9/FacialAge/BNav_EC2/DepthDuration/v2_depth_duration_MTurk/v2_DepthDuration_HTML.html#136,136,1280,1024,1280,1024,8-22-2022,4-59-45,34,depth_duration_stimuli/000191_2014-05-12_17-07-38_260595134347_rgbf000199-resize_0/000191_2014-05-12_17-07-38_260595134347_rgbf000199-resize_0-target.png,1000,3.7995,39,4392,999,meters,jsons/v1_VE1000_randls_2.json,911175,2234512,31,Man
34,920142,DepthScenes,duration_manipulation_targetAtFixation,jsons/v1_VE1000_randls_2.json,http://54.235.29.9/FacialAge/BNav_EC2/DepthDuration/v2_depth_duration_MTurk/v2_DepthDuration_HTML.html#136,136,1280,1024,1280,1024,8-22-2022,4-59-45,35,depth_duration_stimuli/003070_2014-06-15_14-58-27_094959634447_rgbf000150-resize_3/003070_2014-06-15_14-58-27_094959634447_rgbf000150-resize_3-target.png,1000,2.9415,32,4187,999,meters,jsons/v1_VE1000_randls_2.json,911175,2234512,31,Man
35,920142,DepthScenes,duration_manipulation_targetAtFixation,jsons/v1_VE1000_randls_2.json,http://54.235.29.9/FacialAge/BNav_EC2/DepthDuration/v2_depth_duration_MTurk/v2_DepthDuration_HTML.html#136,136,1280,1024,1280,1024,8-22-2022,4-59-45,36,depth_duration_stimuli/000943_2014-06-09_19-31-07_260595134347_rgbf000128-resize_1/000943_2014-06-09_19-31-07_260595134347_rgbf000128-resize_1-target.png,1000,1.9765,24,3866,999,meters,jsons/v1_VE1000_randls_2.json,911175,2234512,31,Man
36,920142,DepthScenes,duration_manipulation_targetAtFixation,jsons/v1_VE1000_randls_2.json,http://54.235.29.9/FacialAge/BNav_EC2/DepthDuration/v2_depth_duration_MTurk/v2_DepthDuration_HTML.html#136,136,1280,1024,1280,1024,8-22-2022,4-59-45,37,depth_duration_stimuli/001199_2014-06-17_16-03-48_260595134347_rgbf000077-resize_0/001199_2014-06-17_16-03-48_260595134347_rgbf000077-resize_0-target.png,1000,3.4375,36,4213,999,meters,jsons/v1_VE1000_randls_2.json,911175,2234512,31,Man
37,920142,DepthScenes,duration_manipulation_targetAtFixation,jsons/v1_VE1000_randls_2.json,http://54.235.29.9/FacialAge/BNav_EC2/DepthDuration/v2_depth_duration_MTurk/v2_DepthDuration_HTML.html#136,136,1280,1024,1280,1024,8-22-2022,4-59-45,38,depth_duration_stimuli/000502_2014-06-08_23-02-32_260595134347_rgbf000063-resize_4/000502_2014-06-08_23-02-32_260595134347_rgbf000063-resize_4-target.png,1000,2.431,25,3162,999,meters,jsons/v1_VE1000_randls_2.json,911175,2234512,31,Man
38,920142,DepthScenes,duration_manipulation_targetAtFixation,jsons/v1_VE1000_randls_2.json,http://54.235.29.9/FacialAge/BNav_EC2/DepthDuration/v2_depth_duration_MTurk/v2_DepthDuration_HTML.html#136,136,1280,1024,1280,1024,8-22-2022,4-59-45,39,depth_duration_stimuli/000368_2014-06-09_15-53-01_260595134347_rgbf000155-resize_2/000368_2014-06-09_15-53-01_260595134347_rgbf000155-resize_2-target.png,1000,2.4859999999999998,23,3593,999,meters,jsons/v1_VE1000_randls_2.json,911175,2234512,31,Man
39,920142,DepthScenes,duration_manipulation_targetAtFixation,jsons/v1_VE1000_randls_2.json,http://54.235.29.9/FacialAge/BNav_EC2/DepthDuration/v2_depth_duration_MTurk/v2_DepthDuration_HTML.html#136,136,1280,1024,1280,1024,8-22-2022,4-59-45,40,depth_duration_stimuli/002678_2014-06-13_16-15-32_094959634447_rgbf000151-resize_6/002678_2014-06-13_16-15-32_094959634447_rgbf000151-resize_6-target.png,1000,2.1830000000000003,32,3387,1001,meters,jsons/v1_VE1000_randls_2.json,911175,2234512,31,Man
40,920142,DepthScenes,duration_manipulation_targetAtFixation,jsons/v1_VE1000_randls_2.json,http://54.235.29.9/FacialAge/BNav_EC2/DepthDuration/v2_depth_duration_MTurk/v2_DepthDuration_HTML.html#136,136,1280,1024,1280,1024,8-22-2022,4-59-45,41,depth_duration_stimuli/002989_2014-06-15_12-25-03_094959634447_rgbf000150-resize_3/002989_2014-06-15_12-25-03_094959634447_rgbf000150-resize_3-target.png,1000,4.1975,37,4297,1000,meters,jsons/v1_VE1000_randls_2.json,911175,2234512,31,Man
41,920142,DepthScenes,duration_manipulation_targetAtFixation,jsons/v1_VE1000_randls_2.json,http://54.235.29.9/FacialAge/BNav_EC2/DepthDuration/v2_depth_duration_MTurk/v2_DepthDuration_HTML.html#136,136,1280,1024,1280,1024,8-22-2022,4-59-45,42,depth_duration_stimuli/000866_2014-06-09_20-45-42_260595134347_rgbf000139-resize_1/000866_2014-06-09_20-45-42_260595134347_rgbf000139-resize_1-target.png,1000,3.2155,35,5280,998,meters,jsons/v1_VE1000_randls_2.json,911175,2234512,31,Man
42,920142,DepthScenes,duration_manipulation_targetAtFixation,jsons/v1_VE1000_randls_2.json,http://54.235.29.9/FacialAge/BNav_EC2/DepthDuration/v2_depth_duration_MTurk/v2_DepthDuration_HTML.html#136,136,1280,1024,1280,1024,8-22-2022,4-59-45,43,depth_duration_stimuli/002570_2014-06-24_13-59-54_094959634447_rgbf000059-resize_0/002570_2014-06-24_13-59-54_094959634447_rgbf000059-resize_0-target.png,1000,4.037,30,3964,1000,meters,jsons/v1_VE1000_randls_2.json,911175,2234512,31,Man
43,920142,DepthScenes,duration_manipulation_targetAtFixation,jsons/v1_VE1000_randls_2.json,http://54.235.29.9/FacialAge/BNav_EC2/DepthDuration/v2_depth_duration_MTurk/v2_DepthDuration_HTML.html#136,136,1280,1024,1280,1024,8-22-2022,4-59-45,44,depth_duration_stimuli/002467_2014-06-28_20-38-07_260595134347_rgbf000026-resize_2/002467_2014-06-28_20-38-07_260595134347_rgbf000026-resize_2-target.png,1000,4.742,39,3996,1000,meters,jsons/v1_VE1000_randls_2.json,911175,2234512,31,Man
44,920142,DepthScenes,duration_manipulation_targetAtFixation,jsons/v1_VE1000_randls_2.json,http://54.235.29.9/FacialAge/BNav_EC2/DepthDuration/v2_depth_duration_MTurk/v2_DepthDuration_HTML.html#136,136,1280,1024,1280,1024,8-22-2022,4-59-45,45,depth_duration_stimuli/000787_2014-06-08_22-33-53_260595134347_rgbf000175-resize_1/000787_2014-06-08_22-33-53_260595134347_rgbf000175-resize-original.jpg,1000,4.784,0,4057,1000,meters,jsons/v1_VE1000_randls_2.json,911175,2234512,31,Man
45,920142,DepthScenes,duration_manipulation_targetAtFixation,jsons/v1_VE1000_randls_2.json,http://54.235.29.9/FacialAge/BNav_EC2/DepthDuration/v2_depth_duration_MTurk/v2_DepthDuration_HTML.html#136,136,1280,1024,1280,1024,8-22-2022,4-59-45,46,depth_duration_stimuli/003492_2014-05-21_15-50-55_094959634447_rgbf000828-resize_1/003492_2014-05-21_15-50-55_094959634447_rgbf000828-resize_1-target.png,1000,4.06875,38,3851,1000,meters,jsons/v1_VE1000_randls_2.json,911175,2234512,31,Man
46,920142,DepthScenes,duration_manipulation_targetAtFixation,jsons/v1_VE1000_randls_2.json,http://54.235.29.9/FacialAge/BNav_EC2/DepthDuration/v2_depth_duration_MTurk/v2_DepthDuration_HTML.html#136,136,1280,1024,1280,1024,8-22-2022,4-59-45,47,depth_duration_stimuli/002568_2014-06-24_13-59-21_094959634447_rgbf000062-resize_4/002568_2014-06-24_13-59-21_094959634447_rgbf000062-resize_4-target.png,1000,3.015,35,4541,1000,meters,jsons/v1_VE1000_randls_2.json,911175,2234512,31,Man
47,920142,DepthScenes,duration_manipulation_targetAtFixation,jsons/v1_VE1000_randls_2.json,http://54.235.29.9/FacialAge/BNav_EC2/DepthDuration/v2_depth_duration_MTurk/v2_DepthDuration_HTML.html#136,136,1280,1024,1280,1024,8-22-2022,4-59-45,48,depth_duration_stimuli/001164_2014-06-17_15-35-46_260595134347_rgbf000085-resize_3/001164_2014-06-17_15-35-46_260595134347_rgbf000085-resize_3-target.png,1000,2.354,28,4347,1000,meters,jsons/v1_VE1000_randls_2.json,911175,2234512,31,Man
48,920142,DepthScenes,duration_manipulation_targetAtFixation,jsons/v1_VE1000_randls_2.json,http://54.235.29.9/FacialAge/BNav_EC2/DepthDuration/v2_depth_duration_MTurk/v2_DepthDuration_HTML.html#136,136,1280,1024,1280,1024,8-22-2022,4-59-45,49,depth_duration_stimuli/001136_2014-06-17_15-19-41_260595134347_rgbf000076-resize_3/001136_2014-06-17_15-19-41_260595134347_rgbf000076-resize_3-target.png,1000,1.8655,27,3537,1000,meters,jsons/v1_VE1000_randls_2.json,911175,2234512,31,Man
49,920142,DepthScenes,duration_manipulation_targetAtFixation,jsons/v1_VE1000_randls_2.json,http://54.235.29.9/FacialAge/BNav_EC2/DepthDuration/v2_depth_duration_MTurk/v2_DepthDuration_HTML.html#136,136,1280,1024,1280,1024,8-22-2022,4-59-45,50,depth_duration_stimuli/002964_2014-06-08_17-46-11_094959634447_rgbf000091-resize_4/002964_2014-06-08_17-46-11_094959634447_rgbf000091-resize_4-target.png,1000,1.6909999999999998,22,3634,999,meters,jsons/v1_VE1000_randls_2.json,911175,2234512,31,Man
50,920142,DepthScenes,duration_manipulation_targetAtFixation,jsons/v1_VE1000_randls_2.json,http://54.235.29.9/FacialAge/BNav_EC2/DepthDuration/v2_depth_duration_MTurk/v2_DepthDuration_HTML.html#136,136,1280,1024,1280,1024,8-22-2022,4-59-45,51,depth_duration_stimuli/002136_2014-06-25_21-18-03_260595134347_rgbf000109-resize_3/002136_2014-06-25_21-18-03_260595134347_rgbf000109-resize_3-target.png,1000,1.9569999999999999,29,4115,1001,meters,jsons/v1_VE1000_randls_2.json,911175,2234512,31,Man
51,920142,DepthScenes,duration_manipulation_targetAtFixation,jsons/v1_VE1000_randls_2.json,http://54.235.29.9/FacialAge/BNav_EC2/DepthDuration/v2_depth_duration_MTurk/v2_DepthDuration_HTML.html#136,136,1280,1024,1280,1024,8-22-2022,4-59-45,52,depth_duration_stimuli/001066_2014-06-08_22-03-20_260595134347_rgbf000066-resize_4/001066_2014-06-08_22-03-20_260595134347_rgbf000066-resize_4-target.png,1000,4.2330000000000005,35,4180,1018,meters,jsons/v1_VE1000_randls_2.json,911175,2234512,31,Man
52,920142,DepthScenes,duration_manipulation_targetAtFixation,jsons/v1_VE1000_randls_2.json,http://54.235.29.9/FacialAge/BNav_EC2/DepthDuration/v2_depth_duration_MTurk/v2_DepthDuration_HTML.html#136,136,1280,1024,1280,1024,8-22-2022,4-59-45,53,depth_duration_stimuli/000742_2014-06-08_18-48-09_260595134347_rgbf000164-resize_4/000742_2014-06-08_18-48-09_260595134347_rgbf000164-resize_4-target.png,1000,4.632,38,3546,1000,meters,jsons/v1_VE1000_randls_2.json,911175,2234512,31,Man
53,920142,DepthScenes,duration_manipulation_targetAtFixation,jsons/v1_VE1000_randls_2.json,http://54.235.29.9/FacialAge/BNav_EC2/DepthDuration/v2_depth_duration_MTurk/v2_DepthDuration_HTML.html#136,136,1280,1024,1280,1024,8-22-2022,4-59-45,54,depth_duration_stimuli/001133_2014-06-17_14-49-16_260595134347_rgbf000100-resize_0/001133_2014-06-17_14-49-16_260595134347_rgbf000100-resize_0-target.png,1000,4.2115,37,3986,1001,meters,jsons/v1_VE1000_randls_2.json,911175,2234512,31,Man
54,920142,DepthScenes,duration_manipulation_targetAtFixation,jsons/v1_VE1000_randls_2.json,http://54.235.29.9/FacialAge/BNav_EC2/DepthDuration/v2_depth_duration_MTurk/v2_DepthDuration_HTML.html#136,136,1280,1024,1280,1024,8-22-2022,4-59-45,55,depth_duration_stimuli/001132_2014-06-17_14-48-54_260595134347_rgbf000100-resize_2/001132_2014-06-17_14-48-54_260595134347_rgbf000100-resize_2-target.png,1000,3.753,39,4988,1000,meters,jsons/v1_VE1000_randls_2.json,911175,2234512,31,Man
55,920142,DepthScenes,duration_manipulation_targetAtFixation,jsons/v1_VE1000_randls_2.json,http://54.235.29.9/FacialAge/BNav_EC2/DepthDuration/v2_depth_duration_MTurk/v2_DepthDuration_HTML.html#136,136,1280,1024,1280,1024,8-22-2022,4-59-45,56,depth_duration_stimuli/001417_2014-06-19_16-25-36_260595134347_rgbf000115-resize_5/001417_2014-06-19_16-25-36_260595134347_rgbf000115-resize_5-target.png,1000,4.6255,35,3833,1000,meters,jsons/v1_VE1000_randls_2.json,911175,2234512,31,Man
56,920142,DepthScenes,duration_manipulation_targetAtFixation,jsons/v1_VE1000_randls_2.json,http://54.235.29.9/FacialAge/BNav_EC2/DepthDuration/v2_depth_duration_MTurk/v2_DepthDuration_HTML.html#136,136,1280,1024,1280,1024,8-22-2022,4-59-45,57,depth_duration_stimuli/003081_2014-06-15_15-19-16_094959634447_rgbf000150-resize_1/003081_2014-06-15_15-19-16_094959634447_rgbf000150-resize_1-target.png,1000,3.9125,36,3248,1000,meters,jsons/v1_VE1000_randls_2.json,911175,2234512,31,Man
57,920142,DepthScenes,duration_manipulation_targetAtFixation,jsons/v1_VE1000_randls_2.json,http://54.235.29.9/FacialAge/BNav_EC2/DepthDuration/v2_depth_duration_MTurk/v2_DepthDuration_HTML.html#136,136,1280,1024,1280,1024,8-22-2022,4-59-45,58,depth_duration_stimuli/000522_2014-06-08_13-35-06_260595134347_rgbf000244-resize_1/000522_2014-06-08_13-35-06_260595134347_rgbf000244-resize_1-target.png,1000,2.3715,25,3876,1001,meters,jsons/v1_VE1000_randls_2.json,911175,2234512,31,Man
58,920142,DepthScenes,duration_manipulation_targetAtFixation,jsons/v1_VE1000_randls_2.json,http://54.235.29.9/FacialAge/BNav_EC2/DepthDuration/v2_depth_duration_MTurk/v2_DepthDuration_HTML.html#136,136,1280,1024,1280,1024,8-22-2022,4-59-45,59,depth_duration_stimuli/002949_2014-06-26_15-57-42_094959634447_rgbf000079-resize_1/002949_2014-06-26_15-57-42_094959634447_rgbf000079-resize_1-target.png,1000,1.8915,26,3314,1001,meters,jsons/v1_VE1000_randls_2.json,911175,2234512,31,Man
59,920142,DepthScenes,duration_manipulation_targetAtFixation,jsons/v1_VE1000_randls_2.json,http://54.235.29.9/FacialAge/BNav_EC2/DepthDuration/v2_depth_duration_MTurk/v2_DepthDuration_HTML.html#136,136,1280,1024,1280,1024,8-22-2022,4-59-45,60,depth_duration_stimuli/000469_2014-06-09_19-42-10_260595134347_rgbf000081-resize_1/000469_2014-06-09_19-42-10_260595134347_rgbf000081-resize_1-target.png,1000,1.652,24,4801,999,meters,jsons/v1_VE1000_randls_2.json,911175,2234512,31,Man
60,920142,DepthScenes,duration_manipulation_targetAtFixation,jsons/v1_VE1000_randls_2.json,http://54.235.29.9/FacialAge/BNav_EC2/DepthDuration/v2_depth_duration_MTurk/v2_DepthDuration_HTML.html#136,136,1280,1024,1280,1024,8-22-2022,4-59-45,61,depth_duration_stimuli/000483_2014-06-09_20-41-45_260595134347_rgbf000116-resize_4/000483_2014-06-09_20-41-45_260595134347_rgbf000116-resize_4-target.png,1000,1.337,20,3523,1000,meters,jsons/v1_VE1000_randls_2.json,911175,2234512,31,Man
61,920142,DepthScenes,duration_manipulation_targetAtFixation,jsons/v1_VE1000_randls_2.json,http://54.235.29.9/FacialAge/BNav_EC2/DepthDuration/v2_depth_duration_MTurk/v2_DepthDuration_HTML.html#136,136,1280,1024,1280,1024,8-22-2022,4-59-45,62,depth_duration_stimuli/002549_2014-06-24_13-41-39_094959634447_rgbf000022-resize_3/002549_2014-06-24_13-41-39_094959634447_rgbf000022-resize_3-target.png,1000,1.476,22,3546,999,meters,jsons/v1_VE1000_randls_2.json,911175,2234512,31,Man
62,920142,DepthScenes,duration_manipulation_targetAtFixation,jsons/v1_VE1000_randls_2.json,http://54.235.29.9/FacialAge/BNav_EC2/DepthDuration/v2_depth_duration_MTurk/v2_DepthDuration_HTML.html#136,136,1280,1024,1280,1024,8-22-2022,4-59-45,63,depth_duration_stimuli/002750_2014-06-22_19-08-03_094959634447_rgbf000094-resize_4/002750_2014-06-22_19-08-03_094959634447_rgbf000094-resize_4-target.png,1000,2.354,39,3756,1001,meters,jsons/v1_VE1000_randls_2.json,911175,2234512,31,Man
63,920142,DepthScenes,duration_manipulation_targetAtFixation,jsons/v1_VE1000_randls_2.json,http://54.235.29.9/FacialAge/BNav_EC2/DepthDuration/v2_depth_duration_MTurk/v2_DepthDuration_HTML.html#136,136,1280,1024,1280,1024,8-22-2022,4-59-45,64,depth_duration_stimuli/002509_2014-06-24_13-19-22_094959634447_rgbf000077-resize_0/002509_2014-06-24_13-19-22_094959634447_rgbf000077-resize_0-target.png,1000,1.3065,26,3972,999,meters,jsons/v1_VE1000_randls_2.json,911175,2234512,31,Man
64,920142,DepthScenes,duration_manipulation_targetAtFixation,jsons/v1_VE1000_randls_2.json,http://54.235.29.9/FacialAge/BNav_EC2/DepthDuration/v2_depth_duration_MTurk/v2_DepthDuration_HTML.html#136,136,1280,1024,1280,1024,8-22-2022,4-59-45,65,depth_duration_stimuli/003338_2014-05-20_11-01-23_094959634447_rgbf000051-resize_6/003338_2014-05-20_11-01-23_094959634447_rgbf000051-resize_6-target.png,1000,1.693,24,4538,999,meters,jsons/v1_VE1000_randls_2.json,911175,2234512,31,Man
65,920142,DepthScenes,duration_manipulation_targetAtFixation,jsons/v1_VE1000_randls_2.json,http://54.235.29.9/FacialAge/BNav_EC2/DepthDuration/v2_depth_duration_MTurk/v2_DepthDuration_HTML.html#136,136,1280,1024,1280,1024,8-22-2022,4-59-45,66,depth_duration_stimuli/001222_2014-06-17_16-24-06_260595134347_rgbf000073-resize_0/001222_2014-06-17_16-24-06_260595134347_rgbf000073-resize-original.jpg,1000,1.4385,0,3833,1000,meters,jsons/v1_VE1000_randls_2.json,911175,2234512,31,Man
66,920142,DepthScenes,duration_manipulation_targetAtFixation,jsons/v1_VE1000_randls_2.json,http://54.235.29.9/FacialAge/BNav_EC2/DepthDuration/v2_depth_duration_MTurk/v2_DepthDuration_HTML.html#136,136,1280,1024,1280,1024,8-22-2022,4-59-45,67,depth_duration_stimuli/000929_2014-06-09_16-33-19_260595134347_rgbf000139-resize_0/000929_2014-06-09_16-33-19_260595134347_rgbf000139-resize_0-target.png,1000,2.8680000000000003,28,3683,999,meters,jsons/v1_VE1000_randls_2.json,911175,2234512,31,Man
67,920142,DepthScenes,duration_manipulation_targetAtFixation,jsons/v1_VE1000_randls_2.json,http://54.235.29.9/FacialAge/BNav_EC2/DepthDuration/v2_depth_duration_MTurk/v2_DepthDuration_HTML.html#136,136,1280,1024,1280,1024,8-22-2022,4-59-45,68,depth_duration_stimuli/000457_2014-06-08_16-52-43_260595134347_rgbf000199-resize_1/000457_2014-06-08_16-52-43_260595134347_rgbf000199-resize_1-target.png,1000,3.6489999999999996,30,4893,1000,meters,jsons/v1_VE1000_randls_2.json,911175,2234512,31,Man
68,920142,DepthScenes,duration_manipulation_targetAtFixation,jsons/v1_VE1000_randls_2.json,http://54.235.29.9/FacialAge/BNav_EC2/DepthDuration/v2_depth_duration_MTurk/v2_DepthDuration_HTML.html#136,136,1280,1024,1280,1024,8-22-2022,4-59-45,69,depth_duration_stimuli/003292_2014-05-14_21-53-49_094959634447_rgbf000100-resize_2/003292_2014-05-14_21-53-49_094959634447_rgbf000100-resize_2-target.png,1000,3.4815,28,3863,999,meters,jsons/v1_VE1000_randls_2.json,911175,2234512,31,Man
69,920142,DepthScenes,duration_manipulation_targetAtFixation,jsons/v1_VE1000_randls_2.json,http://54.235.29.9/FacialAge/BNav_EC2/DepthDuration/v2_depth_duration_MTurk/v2_DepthDuration_HTML.html#136,136,1280,1024,1280,1024,8-22-2022,4-59-45,70,depth_duration_stimuli/002639_2014-06-24_14-51-37_094959634447_rgbf000074-resize_4/002639_2014-06-24_14-51-37_094959634447_rgbf000074-resize_4-target.png,1000,4.0375,30,3340,1001,meters,jsons/v1_VE1000_randls_2.json,911175,2234512,31,Man
70,920142,DepthScenes,duration_manipulation_targetAtFixation,jsons/v1_VE1000_randls_2.json,http://54.235.29.9/FacialAge/BNav_EC2/DepthDuration/v2_depth_duration_MTurk/v2_DepthDuration_HTML.html#136,136,1280,1024,1280,1024,8-22-2022,4-59-45,71,depth_duration_stimuli/001244_2014-06-17_16-47-45_260595134347_rgbf000030-resize_4/001244_2014-06-17_16-47-45_260595134347_rgbf000030-resize_4-target.png,1000,2.0425,33,3522,1000,meters,jsons/v1_VE1000_randls_2.json,911175,2234512,31,Man
71,920142,DepthScenes,duration_manipulation_targetAtFixation,jsons/v1_VE1000_randls_2.json,http://54.235.29.9/FacialAge/BNav_EC2/DepthDuration/v2_depth_duration_MTurk/v2_DepthDuration_HTML.html#136,136,1280,1024,1280,1024,8-22-2022,4-59-45,72,depth_duration_stimuli/003495_2014-05-21_16-01-51_094959634447_rgbf000100-resize_3/003495_2014-05-21_16-01-51_094959634447_rgbf000100-resize_3-target.png,1000,1.6255,26,3627,1000,meters,jsons/v1_VE1000_randls_2.json,911175,2234512,31,Man
72,920142,DepthScenes,duration_manipulation_targetAtFixation,jsons/v1_VE1000_randls_2.json,http://54.235.29.9/FacialAge/BNav_EC2/DepthDuration/v2_depth_duration_MTurk/v2_DepthDuration_HTML.html#136,136,1280,1024,1280,1024,8-22-2022,4-59-45,73,depth_duration_stimuli/002630_2014-06-24_14-47-50_094959634447_rgbf000055-resize_1/002630_2014-06-24_14-47-50_094959634447_rgbf000055-resize_1-target.png,1000,3.0095,37,3813,1000,meters,jsons/v1_VE1000_randls_2.json,911175,2234512,31,Man
73,920142,DepthScenes,duration_manipulation_targetAtFixation,jsons/v1_VE1000_randls_2.json,http://54.235.29.9/FacialAge/BNav_EC2/DepthDuration/v2_depth_duration_MTurk/v2_DepthDuration_HTML.html#136,136,1280,1024,1280,1024,8-22-2022,4-59-45,74,depth_duration_stimuli/002758_2014-06-22_19-11-20_094959634447_rgbf000128-resize_1/002758_2014-06-22_19-11-20_094959634447_rgbf000128-resize_1-target.png,1000,2.555,29,3705,999,meters,jsons/v1_VE1000_randls_2.json,911175,2234512,31,Man
74,920142,DepthScenes,duration_manipulation_targetAtFixation,jsons/v1_VE1000_randls_2.json,http://54.235.29.9/FacialAge/BNav_EC2/DepthDuration/v2_depth_duration_MTurk/v2_DepthDuration_HTML.html#136,136,1280,1024,1280,1024,8-22-2022,4-59-45,75,depth_duration_stimuli/002043_2014-06-24_20-29-38_260595134347_rgbf000039-resize_4/002043_2014-06-24_20-29-38_260595134347_rgbf000039-resize_4-target.png,1000,2.8435,34,6411,1001,meters,jsons/v1_VE1000_randls_2.json,911175,2234512,31,Man
75,920142,DepthScenes,duration_manipulation_targetAtFixation,jsons/v1_VE1000_randls_2.json,http://54.235.29.9/FacialAge/BNav_EC2/DepthDuration/v2_depth_duration_MTurk/v2_DepthDuration_HTML.html#136,136,1280,1024,1280,1024,8-22-2022,4-59-45,76,depth_duration_stimuli/003048_2014-06-15_13-49-43_094959634447_rgbf000150-resize_1/003048_2014-06-15_13-49-43_094959634447_rgbf000150-resize_1-target.png,1000,4.0035,38,3443,1000,meters,jsons/v1_VE1000_randls_2.json,911175,2234512,31,Man
76,920142,DepthScenes,duration_manipulation_targetAtFixation,jsons/v1_VE1000_randls_2.json,http://54.235.29.9/FacialAge/BNav_EC2/DepthDuration/v2_depth_duration_MTurk/v2_DepthDuration_HTML.html#136,136,1280,1024,1280,1024,8-22-2022,4-59-45,77,depth_duration_stimuli/001555_2014-06-20_17-12-10_260595134347_rgbf000065-resize_4/001555_2014-06-20_17-12-10_260595134347_rgbf000065-resize_4-target.png,1000,1.633,17,3905,999,meters,jsons/v1_VE1000_randls_2.json,911175,2234512,31,Man
77,920142,DepthScenes,duration_manipulation_targetAtFixation,jsons/v1_VE1000_randls_2.json,http://54.235.29.9/FacialAge/BNav_EC2/DepthDuration/v2_depth_duration_MTurk/v2_DepthDuration_HTML.html#136,136,1280,1024,1280,1024,8-22-2022,4-59-45,78,depth_duration_stimuli/000103_2014-05-14_22-01-17_260595134347_rgbf000152-resize_5/000103_2014-05-14_22-01-17_260595134347_rgbf000152-resize_5-target.png,1000,1.993,28,3516,999,meters,jsons/v1_VE1000_randls_2.json,911175,2234512,31,Man
78,920142,DepthScenes,duration_manipulation_targetAtFixation,jsons/v1_VE1000_randls_2.json,http://54.235.29.9/FacialAge/BNav_EC2/DepthDuration/v2_depth_duration_MTurk/v2_DepthDuration_HTML.html#136,136,1280,1024,1280,1024,8-22-2022,4-59-45,79,depth_duration_stimuli/000642_2014-06-08_16-59-25_260595134347_rgbf000098-resize_2/000642_2014-06-08_16-59-25_260595134347_rgbf000098-resize_2-target.png,1000,2.8815,25,3882,998,meters,jsons/v1_VE1000_randls_2.json,911175,2234512,31,Man
79,920142,DepthScenes,duration_manipulation_targetAtFixation,jsons/v1_VE1000_randls_2.json,http://54.235.29.9/FacialAge/BNav_EC2/DepthDuration/v2_depth_duration_MTurk/v2_DepthDuration_HTML.html#136,136,1280,1024,1280,1024,8-22-2022,4-59-45,80,depth_duration_stimuli/002425_2014-06-28_20-27-29_260595134347_rgbf000031-resize_8/002425_2014-06-28_20-27-29_260595134347_rgbf000031-resize_8-target.png,1000,3.8960000000000004,35,3498,1000,meters,jsons/v1_VE1000_randls_2.json,911175,2234512,31,Man
80,920142,DepthScenes,duration_manipulation_targetAtFixation,jsons/v1_VE1000_randls_2.json,http://54.235.29.9/FacialAge/BNav_EC2/DepthDuration/v2_depth_duration_MTurk/v2_DepthDuration_HTML.html#136,136,1280,1024,1280,1024,8-22-2022,4-59-45,81,depth_duration_stimuli/000447_2014-06-08_16-15-46_260595134347_rgbf000130-resize_1/000447_2014-06-08_16-15-46_260595134347_rgbf000130-resize_1-target.png,1000,4.479,37,4010,999,meters,jsons/v1_VE1000_randls_2.json,911175,2234512,31,Man
81,920142,DepthScenes,duration_manipulation_targetAtFixation,jsons/v1_VE1000_randls_2.json,http://54.235.29.9/FacialAge/BNav_EC2/DepthDuration/v2_depth_duration_MTurk/v2_DepthDuration_HTML.html#136,136,1280,1024,1280,1024,8-22-2022,4-59-45,82,depth_duration_stimuli/001447_2014-06-19_17-00-32_260595134347_rgbf000082-resize_5/001447_2014-06-19_17-00-32_260595134347_rgbf000082-resize_5-target.png,1000,4.13775,38,3683,1000,meters,jsons/v1_VE1000_randls_2.json,911175,2234512,31,Man
82,920142,DepthScenes,duration_manipulation_targetAtFixation,jsons/v1_VE1000_randls_2.json,http://54.235.29.9/FacialAge/BNav_EC2/DepthDuration/v2_depth_duration_MTurk/v2_DepthDuration_HTML.html#136,136,1280,1024,1280,1024,8-22-2022,4-59-45,83,depth_duration_stimuli/000917_2014-06-09_22-45-29_260595134347_rgbf000149-resize_3/000917_2014-06-09_22-45-29_260595134347_rgbf000149-resize_3-target.png,1000,4.1865,36,4181,1000,meters,jsons/v1_VE1000_randls_2.json,911175,2234512,31,Man
83,920142,DepthScenes,duration_manipulation_targetAtFixation,jsons/v1_VE1000_randls_2.json,http://54.235.29.9/FacialAge/BNav_EC2/DepthDuration/v2_depth_duration_MTurk/v2_DepthDuration_HTML.html#136,136,1280,1024,1280,1024,8-22-2022,4-59-45,84,depth_duration_stimuli/002323_2014-06-28_20-01-54_260595134347_rgbf000051-resize_4/002323_2014-06-28_20-01-54_260595134347_rgbf000051-resize_4-target.png,1000,3.7310000000000003,39,3232,1000,meters,jsons/v1_VE1000_randls_2.json,911175,2234512,31,Man
84,920142,DepthScenes,duration_manipulation_targetAtFixation,jsons/v1_VE1000_randls_2.json,http://54.235.29.9/FacialAge/BNav_EC2/DepthDuration/v2_depth_duration_MTurk/v2_DepthDuration_HTML.html#136,136,1280,1024,1280,1024,8-22-2022,4-59-45,85,depth_duration_stimuli/000682_2014-06-08_23-14-58_260595134347_rgbf000041-resize_5/000682_2014-06-08_23-14-58_260595134347_rgbf000041-resize_5-target.png,1000,2.7239999999999998,29,3843,1000,meters,jsons/v1_VE1000_randls_2.json,911175,2234512,31,Man
85,920142,DepthScenes,duration_manipulation_targetAtFixation,jsons/v1_VE1000_randls_2.json,http://54.235.29.9/FacialAge/BNav_EC2/DepthDuration/v2_depth_duration_MTurk/v2_DepthDuration_HTML.html#136,136,1280,1024,1280,1024,8-22-2022,4-59-45,86,depth_duration_stimuli/001650_2014-06-20_12-09-00_260595134347_rgbf000087-resize_3/001650_2014-06-20_12-09-00_260595134347_rgbf000087-resize_3-target.png,1000,1.9505,15,3498,1000,meters,jsons/v1_VE1000_randls_2.json,911175,2234512,31,Man
86,920142,DepthScenes,duration_manipulation_targetAtFixation,jsons/v1_VE1000_randls_2.json,http://54.235.29.9/FacialAge/BNav_EC2/DepthDuration/v2_depth_duration_MTurk/v2_DepthDuration_HTML.html#136,136,1280,1024,1280,1024,8-22-2022,4-59-45,87,depth_duration_stimuli/001167_2014-06-17_15-38-07_260595134347_rgbf000108-resize_0/001167_2014-06-17_15-38-07_260595134347_rgbf000108-resize_0-target.png,1000,1.8505,20,4818,1000,meters,jsons/v1_VE1000_randls_2.json,911175,2234512,31,Man
87,920142,DepthScenes,duration_manipulation_targetAtFixation,jsons/v1_VE1000_randls_2.json,http://54.235.29.9/FacialAge/BNav_EC2/DepthDuration/v2_depth_duration_MTurk/v2_DepthDuration_HTML.html#136,136,1280,1024,1280,1024,8-22-2022,4-59-45,88,depth_duration_stimuli/003587_2014-05-23_16-48-02_094959634447_rgbf002384-resize_2/003587_2014-05-23_16-48-02_094959634447_rgbf002384-resize_2-target.png,1000,1.357,14,3635,999,meters,jsons/v1_VE1000_randls_2.json,911175,2234512,31,Man
88,920142,DepthScenes,duration_manipulation_targetAtFixation,jsons/v1_VE1000_randls_2.json,http://54.235.29.9/FacialAge/BNav_EC2/DepthDuration/v2_depth_duration_MTurk/v2_DepthDuration_HTML.html#136,136,1280,1024,1280,1024,8-22-2022,4-59-45,89,depth_duration_stimuli/002272_2014-06-28_18-53-56_260595134347_rgbf000067-resize_2/002272_2014-06-28_18-53-56_260595134347_rgbf000067-resize_2-target.png,1000,1.138,20,4009,1000,meters,jsons/v1_VE1000_randls_2.json,911175,2234512,31,Man
89,920142,DepthScenes,duration_manipulation_targetAtFixation,jsons/v1_VE1000_randls_2.json,http://54.235.29.9/FacialAge/BNav_EC2/DepthDuration/v2_depth_duration_MTurk/v2_DepthDuration_HTML.html#136,136,1280,1024,1280,1024,8-22-2022,4-59-45,90,depth_duration_stimuli/001571_2014-06-20_17-21-32_260595134347_rgbf000089-resize_1/001571_2014-06-20_17-21-32_260595134347_rgbf000089-resize_1-target.png,1000,1.86,28,3428,999,meters,jsons/v1_VE1000_randls_2.json,911175,2234512,31,Man
90,920142,DepthScenes,duration_manipulation_targetAtFixation,jsons/v1_VE1000_randls_2.json,http://54.235.29.9/FacialAge/BNav_EC2/DepthDuration/v2_depth_duration_MTurk/v2_DepthDuration_HTML.html#136,136,1280,1024,1280,1024,8-22-2022,4-59-45,91,depth_duration_stimuli/001056_2014-06-08_18-46-44_260595134347_rgbf000068-resize_0/001056_2014-06-08_18-46-44_260595134347_rgbf000068-resize_0-target.png,1000,2.6625,30,3321,999,meters,jsons/v1_VE1000_randls_2.json,911175,2234512,31,Man
91,920142,DepthScenes,duration_manipulation_targetAtFixation,jsons/v1_VE1000_randls_2.json,http://54.235.29.9/FacialAge/BNav_EC2/DepthDuration/v2_depth_duration_MTurk/v2_DepthDuration_HTML.html#136,136,1280,1024,1280,1024,8-22-2022,4-59-45,92,depth_duration_stimuli/002199_2014-06-28_18-33-56_260595134347_rgbf000074-resize_0/002199_2014-06-28_18-33-56_260595134347_rgbf000074-resize_0-target.png,1000,1.996,22,3818,1000,meters,jsons/v1_VE1000_randls_2.json,911175,2234512,31,Man
92,920142,DepthScenes,duration_manipulation_targetAtFixation,jsons/v1_VE1000_randls_2.json,http://54.235.29.9/FacialAge/BNav_EC2/DepthDuration/v2_depth_duration_MTurk/v2_DepthDuration_HTML.html#136,136,1280,1024,1280,1024,8-22-2022,4-59-45,93,depth_duration_stimuli/002788_2014-06-22_19-36-03_094959634447_rgbf000088-resize_2/002788_2014-06-22_19-36-03_094959634447_rgbf000088-resize_2-target.png,1000,1.6465,35,3817,1000,meters,jsons/v1_VE1000_randls_2.json,911175,2234512,31,Man
93,920142,DepthScenes,duration_manipulation_targetAtFixation,jsons/v1_VE1000_randls_2.json,http://54.235.29.9/FacialAge/BNav_EC2/DepthDuration/v2_depth_duration_MTurk/v2_DepthDuration_HTML.html#136,136,1280,1024,1280,1024,8-22-2022,4-59-45,94,depth_duration_stimuli/000749_2014-06-08_21-55-06_260595134347_rgbf000070-resize_2/000749_2014-06-08_21-55-06_260595134347_rgbf000070-resize_2-target.png,1000,2.331,36,3362,1000,meters,jsons/v1_VE1000_randls_2.json,911175,2234512,31,Man
94,920142,DepthScenes,duration_manipulation_targetAtFixation,jsons/v1_VE1000_randls_2.json,http://54.235.29.9/FacialAge/BNav_EC2/DepthDuration/v2_depth_duration_MTurk/v2_DepthDuration_HTML.html#136,136,1280,1024,1280,1024,8-22-2022,4-59-45,95,depth_duration_stimuli/001175_2014-06-17_15-45-55_260595134347_rgbf000129-resize_4/001175_2014-06-17_15-45-55_260595134347_rgbf000129-resize_4-target.png,1000,4.255,38,5833,999,meters,jsons/v1_VE1000_randls_2.json,911175,2234512,31,Man
95,920142,DepthScenes,duration_manipulation_targetAtFixation,jsons/v1_VE1000_randls_2.json,http://54.235.29.9/FacialAge/BNav_EC2/DepthDuration/v2_depth_duration_MTurk/v2_DepthDuration_HTML.html#136,136,1280,1024,1280,1024,8-22-2022,4-59-45,96,depth_duration_stimuli/003490_2014-05-21_15-50-11_094959634447_rgbf000101-resize_3/003490_2014-05-21_15-50-11_094959634447_rgbf000101-resize_3-target.png,1000,3.6445,38,4273,998,meters,jsons/v1_VE1000_randls_2.json,911175,2234512,31,Man
96,920142,DepthScenes,duration_manipulation_targetAtFixation,jsons/v1_VE1000_randls_2.json,http://54.235.29.9/FacialAge/BNav_EC2/DepthDuration/v2_depth_duration_MTurk/v2_DepthDuration_HTML.html#136,136,1280,1024,1280,1024,8-22-2022,4-59-45,97,depth_duration_stimuli/002600_2014-06-24_14-27-04_094959634447_rgbf000074-resize_2/002600_2014-06-24_14-27-04_094959634447_rgbf000074-resize_2-target.png,1000,2.7575,37,4519,1000,meters,jsons/v1_VE1000_randls_2.json,911175,2234512,31,Man
97,920142,DepthScenes,duration_manipulation_targetAtFixation,jsons/v1_VE1000_randls_2.json,http://54.235.29.9/FacialAge/BNav_EC2/DepthDuration/v2_depth_duration_MTurk/v2_DepthDuration_HTML.html#136,136,1280,1024,1280,1024,8-22-2022,4-59-45,98,depth_duration_stimuli/003228_2014-05-14_13-42-35_094959634447_rgbf000101-resize_1/003228_2014-05-14_13-42-35_094959634447_rgbf000101-resize_1-target.png,1000,1.9680000000000002,36,3474,1000,meters,jsons/v1_VE1000_randls_2.json,911175,2234512,31,Man
98,920142,DepthScenes,duration_manipulation_targetAtFixation,jsons/v1_VE1000_randls_2.json,http://54.235.29.9/FacialAge/BNav_EC2/DepthDuration/v2_depth_duration_MTurk/v2_DepthDuration_HTML.html#136,136,1280,1024,1280,1024,8-22-2022,4-59-45,99,depth_duration_stimuli/001540_2014-06-20_17-01-05_260595134347_rgbf000086-resize_2/001540_2014-06-20_17-01-05_260595134347_rgbf000086-resize-original.jpg,1000,1.459,0,4357,999,meters,jsons/v1_VE1000_randls_2.json,911175,2234512,31,Man
99,920142,DepthScenes,duration_manipulation_targetAtFixation,jsons/v1_VE1000_randls_2.json,http://54.235.29.9/FacialAge/BNav_EC2/DepthDuration/v2_depth_duration_MTurk/v2_DepthDuration_HTML.html#136,136,1280,1024,1280,1024,8-22-2022,4-59-45,100,depth_duration_stimuli/000009_2014-05-26_14-32-05_260595134347_rgbf000034-resize_3/000009_2014-05-26_14-32-05_260595134347_rgbf000034-resize_3-target.png,1000,3.8715,39,4240,1001,meters,jsons/v1_VE1000_randls_2.json,911175,2234512,31,Man
100,920142,DepthScenes,duration_manipulation_targetAtFixation,jsons/v1_VE1000_randls_2.json,http://54.235.29.9/FacialAge/BNav_EC2/DepthDuration/v2_depth_duration_MTurk/v2_DepthDuration_HTML.html#136,136,1280,1024,1280,1024,8-22-2022,4-59-45,101,depth_duration_stimuli/001828_2014-06-26_21-40-03_260595134347_rgbf000024-resize_0/001828_2014-06-26_21-40-03_260595134347_rgbf000024-resize_0-target.png,1000,4.8260000000000005,35,3317,999,meters,jsons/v1_VE1000_randls_2.json,911175,2234512,31,Man
101,920142,DepthScenes,duration_manipulation_targetAtFixation,jsons/v1_VE1000_randls_2.json,http://54.235.29.9/FacialAge/BNav_EC2/DepthDuration/v2_depth_duration_MTurk/v2_DepthDuration_HTML.html#136,136,1280,1024,1280,1024,8-22-2022,4-59-45,102,depth_duration_stimuli/002279_2014-06-28_18-55-32_260595134347_rgbf000040-resize_5/002279_2014-06-28_18-55-32_260595134347_rgbf000040-resize_5-target.png,1000,1.5043333333333,25,4114,999,meters,jsons/v1_VE1000_randls_2.json,911175,2234512,31,Man
102,920142,DepthScenes,duration_manipulation_targetAtFixation,jsons/v1_VE1000_randls_2.json,http://54.235.29.9/FacialAge/BNav_EC2/DepthDuration/v2_depth_duration_MTurk/v2_DepthDuration_HTML.html#136,136,1280,1024,1280,1024,8-22-2022,4-59-45,103,depth_duration_stimuli/000635_2014-06-08_16-38-42_260595134347_rgbf000106-resize_1/000635_2014-06-08_16-38-42_260595134347_rgbf000106-resize_1-target.png,1000,2.074,36,4011,999,meters,jsons/v1_VE1000_randls_2.json,911175,2234512,31,Man
103,920142,DepthScenes,duration_manipulation_targetAtFixation,jsons/v1_VE1000_randls_2.json,http://54.235.29.9/FacialAge/BNav_EC2/DepthDuration/v2_depth_duration_MTurk/v2_DepthDuration_HTML.html#136,136,1280,1024,1280,1024,8-22-2022,4-59-45,104,depth_duration_stimuli/002725_2014-06-22_11-47-51_094959634447_rgbf000070-resize_1/002725_2014-06-22_11-47-51_094959634447_rgbf000070-resize_1-target.png,1000,2.195,37,4106,999,meters,jsons/v1_VE1000_randls_2.json,911175,2234512,31,Man
104,920142,DepthScenes,duration_manipulation_targetAtFixation,jsons/v1_VE1000_randls_2.json,http://54.235.29.9/FacialAge/BNav_EC2/DepthDuration/v2_depth_duration_MTurk/v2_DepthDuration_HTML.html#136,136,1280,1024,1280,1024,8-22-2022,4-59-45,105,depth_duration_stimuli/002344_2014-06-28_20-06-29_260595134347_rgbf000030-resize_1/002344_2014-06-28_20-06-29_260595134347_rgbf000030-resize_1-target.png,1000,1.5795,17,3418,1001,meters,jsons/v1_VE1000_randls_2.json,911175,2234512,31,Man
105,920142,DepthScenes,duration_manipulation_targetAtFixation,jsons/v1_VE1000_randls_2.json,http://54.235.29.9/FacialAge/BNav_EC2/DepthDuration/v2_depth_duration_MTurk/v2_DepthDuration_HTML.html#136,136,1280,1024,1280,1024,8-22-2022,4-59-45,106,depth_duration_stimuli/000692_2014-06-08_13-09-42_260595134347_rgbf000199-resize_2/000692_2014-06-08_13-09-42_260595134347_rgbf000199-resize_2-target.png,1000,3.661,33,3778,1000,meters,jsons/v1_VE1000_randls_2.json,911175,2234512,31,Man
106,920142,DepthScenes,duration_manipulation_targetAtFixation,jsons/v1_VE1000_randls_2.json,http://54.235.29.9/FacialAge/BNav_EC2/DepthDuration/v2_depth_duration_MTurk/v2_DepthDuration_HTML.html#136,136,1280,1024,1280,1024,8-22-2022,4-59-45,107,depth_duration_stimuli/001094_2014-06-15_17-36-00_260595134347_rgbf000205-resize_0/001094_2014-06-15_17-36-00_260595134347_rgbf000205-resize_0-target.png,1000,4.2175,35,3366,1001,meters,jsons/v1_VE1000_randls_2.json,911175,2234512,31,Man
107,920142,DepthScenes,duration_manipulation_targetAtFixation,jsons/v1_VE1000_randls_2.json,http://54.235.29.9/FacialAge/BNav_EC2/DepthDuration/v2_depth_duration_MTurk/v2_DepthDuration_HTML.html#136,136,1280,1024,1280,1024,8-22-2022,4-59-45,108,depth_duration_stimuli/001059_2014-06-08_21-53-27_260595134347_rgbf000061-resize_4/001059_2014-06-08_21-53-27_260595134347_rgbf000061-resize_4-target.png,1000,2.4185,36,5074,999,meters,jsons/v1_VE1000_randls_2.json,911175,2234512,31,Man
108,920142,DepthScenes,duration_manipulation_targetAtFixation,jsons/v1_VE1000_randls_2.json,http://54.235.29.9/FacialAge/BNav_EC2/DepthDuration/v2_depth_duration_MTurk/v2_DepthDuration_HTML.html#136,136,1280,1024,1280,1024,8-22-2022,4-59-45,109,depth_duration_stimuli/001032_2014-06-08_13-23-17_260595134347_rgbf000021-resize_3/001032_2014-06-08_13-23-17_260595134347_rgbf000021-resize_3-target.png,1000,3.2725,25,3488,1002,meters,jsons/v1_VE1000_randls_2.json,911175,2234512,31,Man
109,920142,DepthScenes,duration_manipulation_targetAtFixation,jsons/v1_VE1000_randls_2.json,http://54.235.29.9/FacialAge/BNav_EC2/DepthDuration/v2_depth_duration_MTurk/v2_DepthDuration_HTML.html#136,136,1280,1024,1280,1024,8-22-2022,4-59-45,110,depth_duration_stimuli/002057_2014-06-24_21-00-13_260595134347_rgbf000120-resize_1/002057_2014-06-24_21-00-13_260595134347_rgbf000120-resize_1-target.png,1000,2.967,33,3930,999,meters,jsons/v1_VE1000_randls_2.json,911175,2234512,31,Man
110,920142,DepthScenes,duration_manipulation_targetAtFixation,jsons/v1_VE1000_randls_2.json,http://54.235.29.9/FacialAge/BNav_EC2/DepthDuration/v2_depth_duration_MTurk/v2_DepthDuration_HTML.html#136,136,1280,1024,1280,1024,8-22-2022,4-59-45,111,depth_duration_stimuli/000709_2014-06-08_13-51-55_260595134347_rgbf000068-resize_3/000709_2014-06-08_13-51-55_260595134347_rgbf000068-resize_3-target.png,1000,1.8030000000000002,37,4178,1000,meters,jsons/v1_VE1000_randls_2.json,911175,2234512,31,Man
111,920142,DepthScenes,duration_manipulation_targetAtFixation,jsons/v1_VE1000_randls_2.json,http://54.235.29.9/FacialAge/BNav_EC2/DepthDuration/v2_depth_duration_MTurk/v2_DepthDuration_HTML.html#136,136,1280,1024,1280,1024,8-22-2022,4-59-45,112,depth_duration_stimuli/001806_2014-06-26_20-50-20_260595134347_rgbf000091-resize_1/001806_2014-06-26_20-50-20_260595134347_rgbf000091-resize_1-target.png,1000,2.7305,27,4955,1001,meters,jsons/v1_VE1000_randls_2.json,911175,2234512,31,Man
112,920142,DepthScenes,duration_manipulation_targetAtFixation,jsons/v1_VE1000_randls_2.json,http://54.235.29.9/FacialAge/BNav_EC2/DepthDuration/v2_depth_duration_MTurk/v2_DepthDuration_HTML.html#136,136,1280,1024,1280,1024,8-22-2022,4-59-45,113,depth_duration_stimuli/001617_2014-06-20_11-35-32_260595134347_rgbf000066-resize_1/001617_2014-06-20_11-35-32_260595134347_rgbf000066-resize_1-target.png,1000,3.7910000000000004,28,3618,1000,meters,jsons/v1_VE1000_randls_2.json,911175,2234512,31,Man
113,920142,DepthScenes,duration_manipulation_targetAtFixation,jsons/v1_VE1000_randls_2.json,http://54.235.29.9/FacialAge/BNav_EC2/DepthDuration/v2_depth_duration_MTurk/v2_DepthDuration_HTML.html#136,136,1280,1024,1280,1024,8-22-2022,4-59-45,114,depth_duration_stimuli/000506_2014-06-08_23-21-00_260595134347_rgbf000070-resize_7/000506_2014-06-08_23-21-00_260595134347_rgbf000070-resize_7-target.png,1000,4.0585,29,4070,1001,meters,jsons/v1_VE1000_randls_2.json,911175,2234512,31,Man
114,920142,DepthScenes,duration_manipulation_targetAtFixation,jsons/v1_VE1000_randls_2.json,http://54.235.29.9/FacialAge/BNav_EC2/DepthDuration/v2_depth_duration_MTurk/v2_DepthDuration_HTML.html#136,136,1280,1024,1280,1024,8-22-2022,4-59-45,115,depth_duration_stimuli/003079_2014-06-15_15-18-20_094959634447_rgbf000152-resize_8/003079_2014-06-15_15-18-20_094959634447_rgbf000152-resize_8-target.png,1000,2.8775,33,3810,1000,meters,jsons/v1_VE1000_randls_2.json,911175,2234512,31,Man
115,920142,DepthScenes,duration_manipulation_targetAtFixation,jsons/v1_VE1000_randls_2.json,http://54.235.29.9/FacialAge/BNav_EC2/DepthDuration/v2_depth_duration_MTurk/v2_DepthDuration_HTML.html#136,136,1280,1024,1280,1024,8-22-2022,4-59-45,116,depth_duration_stimuli/001170_2014-06-17_15-43-44_260595134347_rgbf000096-resize_6/001170_2014-06-17_15-43-44_260595134347_rgbf000096-resize-original.jpg,1000,1.1909999999999998,0,3537,1000,meters,jsons/v1_VE1000_randls_2.json,911175,2234512,31,Man
116,920142,DepthScenes,duration_manipulation_targetAtFixation,jsons/v1_VE1000_randls_2.json,http://54.235.29.9/FacialAge/BNav_EC2/DepthDuration/v2_depth_duration_MTurk/v2_DepthDuration_HTML.html#136,136,1280,1024,1280,1024,8-22-2022,4-59-45,117,depth_duration_stimuli/002663_2014-06-13_15-50-26_094959634447_rgbf000075-resize_1/002663_2014-06-13_15-50-26_094959634447_rgbf000075-resize_1-target.png,1000,4.7495,27,3803,1000,meters,jsons/v1_VE1000_randls_2.json,911175,2234512,31,Man
117,920142,DepthScenes,duration_manipulation_targetAtFixation,jsons/v1_VE1000_randls_2.json,http://54.235.29.9/FacialAge/BNav_EC2/DepthDuration/v2_depth_duration_MTurk/v2_DepthDuration_HTML.html#136,136,1280,1024,1280,1024,8-22-2022,4-59-45,118,depth_duration_stimuli/000409_2014-06-04_19-23-33_260595134347_rgbf000067-resize_0/000409_2014-06-04_19-23-33_260595134347_rgbf000067-resize_0-target.png,1000,3.7335,29,3433,1000,meters,jsons/v1_VE1000_randls_2.json,911175,2234512,31,Man
118,920142,DepthScenes,duration_manipulation_targetAtFixation,jsons/v1_VE1000_randls_2.json,http://54.235.29.9/FacialAge/BNav_EC2/DepthDuration/v2_depth_duration_MTurk/v2_DepthDuration_HTML.html#136,136,1280,1024,1280,1024,8-22-2022,4-59-45,119,depth_duration_stimuli/003621_2014-05-23_18-06-08_094959634447_rgbf000101-resize_1/003621_2014-05-23_18-06-08_094959634447_rgbf000101-resize_1-target.png,1000,3.9835,22,14816,1000,meters,jsons/v1_VE1000_randls_2.json,911175,2234512,31,Man
119,920142,DepthScenes,duration_manipulation_targetAtFixation,jsons/v1_VE1000_randls_2.json,http://54.235.29.9/FacialAge/BNav_EC2/DepthDuration/v2_depth_duration_MTurk/v2_DepthDuration_HTML.html#136,136,1280,1024,1280,1024,8-22-2022,4-59-45,120,depth_duration_stimuli/001584_2014-06-20_11-07-43_260595134347_rgbf000002-resize_1/001584_2014-06-20_11-07-43_260595134347_rgbf000002-resize_1-target.png,1000,3.53,30,46965,999,meters,jsons/v1_VE1000_randls_2.json,911175,2234512,31,Man
120,920142,DepthScenes,duration_manipulation_targetAtFixation,jsons/v1_VE1000_randls_2.json,http://54.235.29.9/FacialAge/BNav_EC2/DepthDuration/v2_depth_duration_MTurk/v2_DepthDuration_HTML.html#136,136,1280,1024,1280,1024,8-22-2022,4-59-45,121,depth_duration_stimuli/000758_2014-06-08_22-05-08_260595134347_rgbf000085-resize_0/000758_2014-06-08_22-05-08_260595134347_rgbf000085-resize_0-target.png,1000,3.3810000000000002,30,4634,999,meters,jsons/v1_VE1000_randls_2.json,911175,2234512,31,Man
121,920142,DepthScenes,duration_manipulation_targetAtFixation,jsons/v1_VE1000_randls_2.json,http://54.235.29.9/FacialAge/BNav_EC2/DepthDuration/v2_depth_duration_MTurk/v2_DepthDuration_HTML.html#136,136,1280,1024,1280,1024,8-22-2022,4-59-45,122,depth_duration_stimuli/000854_2014-06-09_19-43-13_260595134347_rgbf000066-resize_0/000854_2014-06-09_19-43-13_260595134347_rgbf000066-resize_0-target.png,1000,3.068,28,3341,1002,meters,jsons/v1_VE1000_randls_2.json,911175,2234512,31,Man
122,920142,DepthScenes,duration_manipulation_targetAtFixation,jsons/v1_VE1000_randls_2.json,http://54.235.29.9/FacialAge/BNav_EC2/DepthDuration/v2_depth_duration_MTurk/v2_DepthDuration_HTML.html#136,136,1280,1024,1280,1024,8-22-2022,4-59-45,123,depth_duration_stimuli/002748_2014-06-22_19-07-22_094959634447_rgbf000078-resize_1/002748_2014-06-22_19-07-22_094959634447_rgbf000078-resize_1-target.png,1000,4.6705,39,3795,1000,meters,jsons/v1_VE1000_randls_2.json,911175,2234512,31,Man
123,920142,DepthScenes,duration_manipulation_targetAtFixation,jsons/v1_VE1000_randls_2.json,http://54.235.29.9/FacialAge/BNav_EC2/DepthDuration/v2_depth_duration_MTurk/v2_DepthDuration_HTML.html#136,136,1280,1024,1280,1024,8-22-2022,4-59-45,124,depth_duration_stimuli/002995_2014-06-15_12-31-26_094959634447_rgbf000150-resize_1/002995_2014-06-15_12-31-26_094959634447_rgbf000150-resize_1-target.png,1000,3.8360000000000003,35,3216,1000,meters,jsons/v1_VE1000_randls_2.json,911175,2234512,31,Man
124,920142,DepthScenes,duration_manipulation_targetAtFixation,jsons/v1_VE1000_randls_2.json,http://54.235.29.9/FacialAge/BNav_EC2/DepthDuration/v2_depth_duration_MTurk/v2_DepthDuration_HTML.html#136,136,1280,1024,1280,1024,8-22-2022,4-59-45,125,depth_duration_stimuli/000788_2014-06-08_22-34-36_260595134347_rgbf000131-resize_1/000788_2014-06-08_22-34-36_260595134347_rgbf000131-resize_1-target.png,1000,3.359,34,3492,999,meters,jsons/v1_VE1000_randls_2.json,911175,2234512,31,Man
125,920142,DepthScenes,duration_manipulation_targetAtFixation,jsons/v1_VE1000_randls_2.json,http://54.235.29.9/FacialAge/BNav_EC2/DepthDuration/v2_depth_duration_MTurk/v2_DepthDuration_HTML.html#136,136,1280,1024,1280,1024,8-22-2022,4-59-45,126,depth_duration_stimuli/001235_2014-06-17_16-37-36_260595134347_rgbf000084-resize_4/001235_2014-06-17_16-37-36_260595134347_rgbf000084-resize_4-target.png,1000,3.6605,35,3163,1001,meters,jsons/v1_VE1000_randls_2.json,911175,2234512,31,Man
126,920142,DepthScenes,duration_manipulation_targetAtFixation,jsons/v1_VE1000_randls_2.json,http://54.235.29.9/FacialAge/BNav_EC2/DepthDuration/v2_depth_duration_MTurk/v2_DepthDuration_HTML.html#136,136,1280,1024,1280,1024,8-22-2022,4-59-45,127,depth_duration_stimuli/000736_2014-06-08_18-24-15_260595134347_rgbf000206-resize_3/000736_2014-06-08_18-24-15_260595134347_rgbf000206-resize_3-target.png,1000,3.515,37,4058,1000,meters,jsons/v1_VE1000_randls_2.json,911175,2234512,31,Man
127,920142,DepthScenes,duration_manipulation_targetAtFixation,jsons/v1_VE1000_randls_2.json,http://54.235.29.9/FacialAge/BNav_EC2/DepthDuration/v2_depth_duration_MTurk/v2_DepthDuration_HTML.html#136,136,1280,1024,1280,1024,8-22-2022,4-59-45,128,depth_duration_stimuli/000137_2014-05-20_17-04-49_260595134347_rgbf000120-resize_1/000137_2014-05-20_17-04-49_260595134347_rgbf000120-resize_1-target.png,1000,3.786,39,3340,999,meters,jsons/v1_VE1000_randls_2.json,911175,2234512,31,Man
128,920142,DepthScenes,duration_manipulation_targetAtFixation,jsons/v1_VE1000_randls_2.json,http://54.235.29.9/FacialAge/BNav_EC2/DepthDuration/v2_depth_duration_MTurk/v2_DepthDuration_HTML.html#136,136,1280,1024,1280,1024,8-22-2022,4-59-45,129,depth_duration_stimuli/001150_2014-06-17_15-27-34_260595134347_rgbf000108-resize_2/001150_2014-06-17_15-27-34_260595134347_rgbf000108-resize_2-target.png,1000,4.0325,28,4563,1001,meters,jsons/v1_VE1000_randls_2.json,911175,2234512,31,Man
129,920142,DepthScenes,duration_manipulation_targetAtFixation,jsons/v1_VE1000_randls_2.json,http://54.235.29.9/FacialAge/BNav_EC2/DepthDuration/v2_depth_duration_MTurk/v2_DepthDuration_HTML.html#136,136,1280,1024,1280,1024,8-22-2022,4-59-45,130,depth_duration_stimuli/000665_2014-06-09_20-42-35_260595134347_rgbf000110-resize_1/000665_2014-06-09_20-42-35_260595134347_rgbf000110-resize_1-target.png,1000,3.057,28,3996,1003,meters,jsons/v1_VE1000_randls_2.json,911175,2234512,31,Man
130,920142,DepthScenes,duration_manipulation_targetAtFixation,jsons/v1_VE1000_randls_2.json,http://54.235.29.9/FacialAge/BNav_EC2/DepthDuration/v2_depth_duration_MTurk/v2_DepthDuration_HTML.html#136,136,1280,1024,1280,1024,8-22-2022,4-59-45,131,depth_duration_stimuli/002988_2014-06-15_12-24-20_094959634447_rgbf000150-resize_1/002988_2014-06-15_12-24-20_094959634447_rgbf000150-resize_1-target.png,1000,4.7669999999999995,39,4573,999,meters,jsons/v1_VE1000_randls_2.json,911175,2234512,31,Man
131,920142,DepthScenes,duration_manipulation_targetAtFixation,jsons/v1_VE1000_randls_2.json,http://54.235.29.9/FacialAge/BNav_EC2/DepthDuration/v2_depth_duration_MTurk/v2_DepthDuration_HTML.html#136,136,1280,1024,1280,1024,8-22-2022,4-59-45,132,depth_duration_stimuli/001052_2014-06-08_18-24-54_260595134347_rgbf000130-resize_1/001052_2014-06-08_18-24-54_260595134347_rgbf000130-resize_1-target.png,1000,4.1045,35,3342,1000,meters,jsons/v1_VE1000_randls_2.json,911175,2234512,31,Man
132,920142,DepthScenes,duration_manipulation_targetAtFixation,jsons/v1_VE1000_randls_2.json,http://54.235.29.9/FacialAge/BNav_EC2/DepthDuration/v2_depth_duration_MTurk/v2_DepthDuration_HTML.html#136,136,1280,1024,1280,1024,8-22-2022,4-59-45,133,depth_duration_stimuli/001570_2014-06-20_17-21-09_260595134347_rgbf000135-resize_4/001570_2014-06-20_17-21-09_260595134347_rgbf000135-resize_4-target.png,1000,4.467,38,3653,1000,meters,jsons/v1_VE1000_randls_2.json,911175,2234512,31,Man
133,920142,DepthScenes,duration_manipulation_targetAtFixation,jsons/v1_VE1000_randls_2.json,http://54.235.29.9/FacialAge/BNav_EC2/DepthDuration/v2_depth_duration_MTurk/v2_DepthDuration_HTML.html#136,136,1280,1024,1280,1024,8-22-2022,4-59-45,134,depth_duration_stimuli/001392_2014-06-19_16-07-59_260595134347_rgbf000046-resize_1/001392_2014-06-19_16-07-59_260595134347_rgbf000046-resize_1-target.png,1000,4.135,37,3895,999,meters,jsons/v1_VE1000_randls_2.json,911175,2234512,31,Man
134,920142,DepthScenes,duration_manipulation_targetAtFixation,jsons/v1_VE1000_randls_2.json,http://54.235.29.9/FacialAge/BNav_EC2/DepthDuration/v2_depth_duration_MTurk/v2_DepthDuration_HTML.html#136,136,1280,1024,1280,1024,8-22-2022,4-59-45,135,depth_duration_stimuli/002072_2014-06-24_21-48-06_260595134347_rgbf000115-resize_0/002072_2014-06-24_21-48-06_260595134347_rgbf000115-resize-original.jpg,1000,4.702,0,3546,1000,meters,jsons/v1_VE1000_randls_2.json,911175,2234512,31,Man
135,920142,DepthScenes,duration_manipulation_targetAtFixation,jsons/v1_VE1000_randls_2.json,http://54.235.29.9/FacialAge/BNav_EC2/DepthDuration/v2_depth_duration_MTurk/v2_DepthDuration_HTML.html#136,136,1280,1024,1280,1024,8-22-2022,4-59-45,136,depth_duration_stimuli/002784_2014-06-22_19-26-30_094959634447_rgbf000083-resize_3/002784_2014-06-22_19-26-30_094959634447_rgbf000083-resize_3-target.png,1000,1.8046666666667,22,3527,1000,meters,jsons/v1_VE1000_randls_2.json,911175,2234512,31,Man
136,920142,DepthScenes,duration_manipulation_targetAtFixation,jsons/v1_VE1000_randls_2.json,http://54.235.29.9/FacialAge/BNav_EC2/DepthDuration/v2_depth_duration_MTurk/v2_DepthDuration_HTML.html#136,136,1280,1024,1280,1024,8-22-2022,4-59-45,137,depth_duration_stimuli/001100_2014-06-15_17-46-26_260595134347_rgbf000225-resize_2/001100_2014-06-15_17-46-26_260595134347_rgbf000225-resize_2-target.png,1000,2.24,20,2937,999,meters,jsons/v1_VE1000_randls_2.json,911175,2234512,31,Man
137,920142,DepthScenes,duration_manipulation_targetAtFixation,jsons/v1_VE1000_randls_2.json,http://54.235.29.9/FacialAge/BNav_EC2/DepthDuration/v2_depth_duration_MTurk/v2_DepthDuration_HTML.html#136,136,1280,1024,1280,1024,8-22-2022,4-59-45,138,depth_duration_stimuli/001810_2014-06-26_20-51-35_260595134347_rgbf000040-resize_3/001810_2014-06-26_20-51-35_260595134347_rgbf000040-resize_3-target.png,1000,2.2525,26,3856,1000,meters,jsons/v1_VE1000_randls_2.json,911175,2234512,31,Man
138,920142,DepthScenes,duration_manipulation_targetAtFixation,jsons/v1_VE1000_randls_2.json,http://54.235.29.9/FacialAge/BNav_EC2/DepthDuration/v2_depth_duration_MTurk/v2_DepthDuration_HTML.html#136,136,1280,1024,1280,1024,8-22-2022,4-59-45,139,depth_duration_stimuli/003010_2014-06-15_12-54-35_094959634447_rgbf000112-resize_0/003010_2014-06-15_12-54-35_094959634447_rgbf000112-resize_0-target.png,1000,3.1185,35,3938,999,meters,jsons/v1_VE1000_randls_2.json,911175,2234512,31,Man
139,920142,DepthScenes,duration_manipulation_targetAtFixation,jsons/v1_VE1000_randls_2.json,http://54.235.29.9/FacialAge/BNav_EC2/DepthDuration/v2_depth_duration_MTurk/v2_DepthDuration_HTML.html#136,136,1280,1024,1280,1024,8-22-2022,4-59-45,140,depth_duration_stimuli/000773_2014-06-08_22-24-54_260595134347_rgbf000093-resize_1/000773_2014-06-08_22-24-54_260595134347_rgbf000093-resize_1-target.png,1000,4.973,38,3788,1000,meters,jsons/v1_VE1000_randls_2.json,911175,2234512,31,Man
140,920142,DepthScenes,duration_manipulation_targetAtFixation,jsons/v1_VE1000_randls_2.json,http://54.235.29.9/FacialAge/BNav_EC2/DepthDuration/v2_depth_duration_MTurk/v2_DepthDuration_HTML.html#136,136,1280,1024,1280,1024,8-22-2022,4-59-45,141,depth_duration_stimuli/002414_2014-06-28_20-24-58_260595134347_rgbf000067-resize_4/002414_2014-06-28_20-24-58_260595134347_rgbf000067-resize_4-target.png,1000,4.363,36,3378,999,meters,jsons/v1_VE1000_randls_2.json,911175,2234512,31,Man
141,920142,DepthScenes,duration_manipulation_targetAtFixation,jsons/v1_VE1000_randls_2.json,http://54.235.29.9/FacialAge/BNav_EC2/DepthDuration/v2_depth_duration_MTurk/v2_DepthDuration_HTML.html#136,136,1280,1024,1280,1024,8-22-2022,4-59-45,142,depth_duration_stimuli/002039_2014-06-24_20-22-38_260595134347_rgbf000084-resize_1/002039_2014-06-24_20-22-38_260595134347_rgbf000084-resize_1-target.png,1000,4.408,38,3587,999,meters,jsons/v1_VE1000_randls_2.json,911175,2234512,31,Man
142,920142,DepthScenes,duration_manipulation_targetAtFixation,jsons/v1_VE1000_randls_2.json,http://54.235.29.9/FacialAge/BNav_EC2/DepthDuration/v2_depth_duration_MTurk/v2_DepthDuration_HTML.html#136,136,1280,1024,1280,1024,8-22-2022,4-59-45,143,depth_duration_stimuli/002103_2014-06-25_20-00-40_260595134347_rgbf000049-resize_0/002103_2014-06-25_20-00-40_260595134347_rgbf000049-resize_0-target.png,1000,4.105,30,3043,1000,meters,jsons/v1_VE1000_randls_2.json,911175,2234512,31,Man
143,920142,DepthScenes,duration_manipulation_targetAtFixation,jsons/v1_VE1000_randls_2.json,http://54.235.29.9/FacialAge/BNav_EC2/DepthDuration/v2_depth_duration_MTurk/v2_DepthDuration_HTML.html#136,136,1280,1024,1280,1024,8-22-2022,4-59-45,144,depth_duration_stimuli/000414_2014-06-04_19-49-13_260595134347_rgbf000044-resize_0/000414_2014-06-04_19-49-13_260595134347_rgbf000044-resize_0-target.png,1000,4.329,37,3474,999,meters,jsons/v1_VE1000_randls_2.json,911175,2234512,31,Man
144,920142,DepthScenes,duration_manipulation_targetAtFixation,jsons/v1_VE1000_randls_2.json,http://54.235.29.9/FacialAge/BNav_EC2/DepthDuration/v2_depth_duration_MTurk/v2_DepthDuration_HTML.html#136,136,1280,1024,1280,1024,8-22-2022,4-59-45,145,depth_duration_stimuli/003129_2014-05-12_10-48-10_094959634447_rgbf000100-resize_0/003129_2014-05-12_10-48-10_094959634447_rgbf000100-resize_0-target.png,1000,4.9305,35,3183,999,meters,jsons/v1_VE1000_randls_2.json,911175,2234512,31,Man
145,920142,DepthScenes,duration_manipulation_targetAtFixation,jsons/v1_VE1000_randls_2.json,http://54.235.29.9/FacialAge/BNav_EC2/DepthDuration/v2_depth_duration_MTurk/v2_DepthDuration_HTML.html#136,136,1280,1024,1280,1024,8-22-2022,4-59-45,146,depth_duration_stimuli/001498_2014-06-19_17-45-14_260595134347_rgbf000129-resize_4/001498_2014-06-19_17-45-14_260595134347_rgbf000129-resize-original.jpg,1000,1.4075,0,3883,1001,meters,jsons/v1_VE1000_randls_2.json,911175,2234512,31,Man
146,920142,DepthScenes,duration_manipulation_targetAtFixation,jsons/v1_VE1000_randls_2.json,http://54.235.29.9/FacialAge/BNav_EC2/DepthDuration/v2_depth_duration_MTurk/v2_DepthDuration_HTML.html#136,136,1280,1024,1280,1024,8-22-2022,4-59-45,147,depth_duration_stimuli/002213_2014-06-28_18-37-58_260595134347_rgbf000055-resize_1/002213_2014-06-28_18-37-58_260595134347_rgbf000055-resize_1-target.png,1000,3.62,35,3404,999,meters,jsons/v1_VE1000_randls_2.json,911175,2234512,31,Man
147,920142,DepthScenes,duration_manipulation_targetAtFixation,jsons/v1_VE1000_randls_2.json,http://54.235.29.9/FacialAge/BNav_EC2/DepthDuration/v2_depth_duration_MTurk/v2_DepthDuration_HTML.html#136,136,1280,1024,1280,1024,8-22-2022,4-59-45,148,depth_duration_stimuli/000691_2014-06-08_13-08-50_260595134347_rgbf000132-resize_3/000691_2014-06-08_13-08-50_260595134347_rgbf000132-resize_3-target.png,1000,4.1530000000000005,28,93132,1000,meters,jsons/v1_VE1000_randls_2.json,911175,2234512,31,Man
148,920142,DepthScenes,duration_manipulation_targetAtFixation,jsons/v1_VE1000_randls_2.json,http://54.235.29.9/FacialAge/BNav_EC2/DepthDuration/v2_depth_duration_MTurk/v2_DepthDuration_HTML.html#136,136,1280,1024,1280,1024,8-22-2022,4-59-45,149,depth_duration_stimuli/000486_2014-06-09_20-47-20_260595134347_rgbf000143-resize_2/000486_2014-06-09_20-47-20_260595134347_rgbf000143-resize_2-target.png,1000,4.8325,27,6098,1008,meters,jsons/v1_VE1000_randls_2.json,911175,2234512,31,Man
149,920142,DepthScenes,duration_manipulation_targetAtFixation,jsons/v1_VE1000_randls_2.json,http://54.235.29.9/FacialAge/BNav_EC2/DepthDuration/v2_depth_duration_MTurk/v2_DepthDuration_HTML.html#136,136,1280,1024,1280,1024,8-22-2022,4-59-45,150,depth_duration_stimuli/003083_2014-06-15_15-21-03_094959634447_rgbf000063-resize_1/003083_2014-06-15_15-21-03_094959634447_rgbf000063-resize_1-target.png,1000,4.1405,33,3606,995,meters,jsons/v1_VE1000_randls_2.json,911175,2234512,31,Man
150,920142,DepthScenes,duration_manipulation_targetAtFixation,jsons/v1_VE1000_randls_2.json,http://54.235.29.9/FacialAge/BNav_EC2/DepthDuration/v2_depth_duration_MTurk/v2_DepthDuration_HTML.html#136,136,1280,1024,1280,1024,8-22-2022,4-59-45,151,depth_duration_stimuli/002118_2014-06-25_20-32-08_260595134347_rgbf000078-resize_1/002118_2014-06-25_20-32-08_260595134347_rgbf000078-resize_1-target.png,1000,2.6460000000000004,28,5778,1003,meters,jsons/v1_VE1000_randls_2.json,911175,2234512,31,Man
151,920142,DepthScenes,duration_manipulation_targetAtFixation,jsons/v1_VE1000_randls_2.json,http://54.235.29.9/FacialAge/BNav_EC2/DepthDuration/v2_depth_duration_MTurk/v2_DepthDuration_HTML.html#136,136,1280,1024,1280,1024,8-22-2022,4-59-45,152,depth_duration_stimuli/001516_2014-06-20_16-25-09_260595134347_rgbf000076-resize_2/001516_2014-06-20_16-25-09_260595134347_rgbf000076-resize_2-target.png,1000,1.7445,30,3488,1000,meters,jsons/v1_VE1000_randls_2.json,911175,2234512,31,Man
152,920142,DepthScenes,duration_manipulation_targetAtFixation,jsons/v1_VE1000_randls_2.json,http://54.235.29.9/FacialAge/BNav_EC2/DepthDuration/v2_depth_duration_MTurk/v2_DepthDuration_HTML.html#136,136,1280,1024,1280,1024,8-22-2022,4-59-45,153,depth_duration_stimuli/000878_2014-06-08_22-52-45_260595134347_rgbf000045-resize_2/000878_2014-06-08_22-52-45_260595134347_rgbf000045-resize_2-target.png,1000,2.092,34,5776,1000,meters,jsons/v1_VE1000_randls_2.json,911175,2234512,31,Man
153,920142,DepthScenes,duration_manipulation_targetAtFixation,jsons/v1_VE1000_randls_2.json,http://54.235.29.9/FacialAge/BNav_EC2/DepthDuration/v2_depth_duration_MTurk/v2_DepthDuration_HTML.html#136,136,1280,1024,1280,1024,8-22-2022,4-59-45,154,depth_duration_stimuli/002953_2014-06-08_17-32-18_094959634447_rgbf000059-resize_5/002953_2014-06-08_17-32-18_094959634447_rgbf000059-resize_5-target.png,1000,1.551,20,3750,1000,meters,jsons/v1_VE1000_randls_2.json,911175,2234512,31,Man
154,920142,DepthScenes,duration_manipulation_targetAtFixation,jsons/v1_VE1000_randls_2.json,http://54.235.29.9/FacialAge/BNav_EC2/DepthDuration/v2_depth_duration_MTurk/v2_DepthDuration_HTML.html#136,136,1280,1024,1280,1024,8-22-2022,4-59-45,155,depth_duration_stimuli/000436_2014-06-09_22-25-11_260595134347_rgbf000137-resize_1/000436_2014-06-09_22-25-11_260595134347_rgbf000137-resize_1-target.png,1000,4.0705,38,5156,999,meters,jsons/v1_VE1000_randls_2.json,911175,2234512,31,Man
155,920142,DepthScenes,duration_manipulation_targetAtFixation,jsons/v1_VE1000_randls_2.json,http://54.235.29.9/FacialAge/BNav_EC2/DepthDuration/v2_depth_duration_MTurk/v2_DepthDuration_HTML.html#136,136,1280,1024,1280,1024,8-22-2022,4-59-45,156,depth_duration_stimuli/002444_2014-06-28_20-32-08_260595134347_rgbf000027-resize_0/002444_2014-06-28_20-32-08_260595134347_rgbf000027-resize_0-target.png,1000,4.388999999999999,35,3260,1014,meters,jsons/v1_VE1000_randls_2.json,911175,2234512,31,Man
156,920142,DepthScenes,duration_manipulation_targetAtFixation,jsons/v1_VE1000_randls_2.json,http://54.235.29.9/FacialAge/BNav_EC2/DepthDuration/v2_depth_duration_MTurk/v2_DepthDuration_HTML.html#136,136,1280,1024,1280,1024,8-22-2022,4-59-45,157,depth_duration_stimuli/001158_2014-06-17_15-32-16_260595134347_rgbf000138-resize_2/001158_2014-06-17_15-32-16_260595134347_rgbf000138-resize_2-target.png,1000,4.5315,37,8104,1000,meters,jsons/v1_VE1000_randls_2.json,911175,2234512,31,Man
157,920142,DepthScenes,duration_manipulation_targetAtFixation,jsons/v1_VE1000_randls_2.json,http://54.235.29.9/FacialAge/BNav_EC2/DepthDuration/v2_depth_duration_MTurk/v2_DepthDuration_HTML.html#136,136,1280,1024,1280,1024,8-22-2022,4-59-45,158,depth_duration_stimuli/000556_2014-06-09_22-42-56_260595134347_rgbf000214-resize_1/000556_2014-06-09_22-42-56_260595134347_rgbf000214-resize_1-target.png,1000,4.8415,38,3584,1000,meters,jsons/v1_VE1000_randls_2.json,911175,2234512,31,Man
158,920142,DepthScenes,duration_manipulation_targetAtFixation,jsons/v1_VE1000_randls_2.json,http://54.235.29.9/FacialAge/BNav_EC2/DepthDuration/v2_depth_duration_MTurk/v2_DepthDuration_HTML.html#136,136,1280,1024,1280,1024,8-22-2022,4-59-45,159,depth_duration_stimuli/000906_2014-06-08_13-35-43_260595134347_rgbf000155-resize_1/000906_2014-06-08_13-35-43_260595134347_rgbf000155-resize_1-target.png,1000,2.8489999999999998,39,5505,1000,meters,jsons/v1_VE1000_randls_2.json,911175,2234512,31,Man
159,920142,DepthScenes,duration_manipulation_targetAtFixation,jsons/v1_VE1000_randls_2.json,http://54.235.29.9/FacialAge/BNav_EC2/DepthDuration/v2_depth_duration_MTurk/v2_DepthDuration_HTML.html#136,136,1280,1024,1280,1024,8-22-2022,4-59-45,160,depth_duration_stimuli/002805_2014-06-22_19-54-03_094959634447_rgbf000079-resize_1/002805_2014-06-22_19-54-03_094959634447_rgbf000079-resize_1-target.png,1000,3.1439999999999997,39,3264,1001,meters,jsons/v1_VE1000_randls_2.json,911175,2234512,31,Man
160,920142,DepthScenes,duration_manipulation_targetAtFixation,jsons/v1_VE1000_randls_2.json,http://54.235.29.9/FacialAge/BNav_EC2/DepthDuration/v2_depth_duration_MTurk/v2_DepthDuration_HTML.html#136,136,1280,1024,1280,1024,8-22-2022,4-59-45,161,depth_duration_stimuli/002445_2014-06-28_20-32-16_260595134347_rgbf000029-resize_4/002445_2014-06-28_20-32-16_260595134347_rgbf000029-resize_4-target.png,1000,2.5315,26,5305,1000,meters,jsons/v1_VE1000_randls_2.json,911175,2234512,31,Man
161,920142,DepthScenes,duration_manipulation_targetAtFixation,jsons/v1_VE1000_randls_2.json,http://54.235.29.9/FacialAge/BNav_EC2/DepthDuration/v2_depth_duration_MTurk/v2_DepthDuration_HTML.html#136,136,1280,1024,1280,1024,8-22-2022,4-59-45,162,depth_duration_stimuli/000780_2014-06-08_22-28-29_260595134347_rgbf000126-resize_1/000780_2014-06-08_22-28-29_260595134347_rgbf000126-resize_1-target.png,1000,3.3825,33,3583,1000,meters,jsons/v1_VE1000_randls_2.json,911175,2234512,31,Man
162,920142,DepthScenes,duration_manipulation_targetAtFixation,jsons/v1_VE1000_randls_2.json,http://54.235.29.9/FacialAge/BNav_EC2/DepthDuration/v2_depth_duration_MTurk/v2_DepthDuration_HTML.html#136,136,1280,1024,1280,1024,8-22-2022,4-59-45,163,depth_duration_stimuli/002763_2014-06-22_19-13-10_094959634447_rgbf000075-resize_4/002763_2014-06-22_19-13-10_094959634447_rgbf000075-resize_4-target.png,1000,1.68375,35,5217,991,meters,jsons/v1_VE1000_randls_2.json,911175,2234512,31,Man
163,920142,DepthScenes,duration_manipulation_targetAtFixation,jsons/v1_VE1000_randls_2.json,http://54.235.29.9/FacialAge/BNav_EC2/DepthDuration/v2_depth_duration_MTurk/v2_DepthDuration_HTML.html#136,136,1280,1024,1280,1024,8-22-2022,4-59-45,164,depth_duration_stimuli/002209_2014-06-28_18-36-10_260595134347_rgbf000051-resize_1/002209_2014-06-28_18-36-10_260595134347_rgbf000051-resize_1-target.png,1000,2.057,28,3347,984,meters,jsons/v1_VE1000_randls_2.json,911175,2234512,31,Man
