,subjID,experimentName,versionName,sequenceName,url,selected_row,windowWidth,windowHeight,screenWidth,screenHeight,startDate,startTime,trial,stimulus,duration,actual_depth,depth_estimate,trial_RT,log_sceneDuration,unitSelection,seq_filepath,experimentTime,totalTime,age,gender
0,924077,DepthScenes,duration_manipulation_targetAtFixation,jsons/v1_VE250_randls_21.json,http://54.235.29.9/FacialAge/BNav_EC2/DepthDuration/v2_depth_duration_MTurk/v2_DepthDuration_HTML.html#465,465,1366,768,1366,768,8-29-2022,10-41-28,1,depth_duration_stimuli/000009_2014-05-26_14-32-05_260595134347_rgbf000034-resize_3/000009_2014-05-26_14-32-05_260595134347_rgbf000034-resize_3-target.png,250,3.8715,2,4467,259,meters,jsons/v1_VE250_randls_21.json,752344,955362,26,Man
1,924077,DepthScenes,duration_manipulation_targetAtFixation,jsons/v1_VE250_randls_21.json,http://54.235.29.9/FacialAge/BNav_EC2/DepthDuration/v2_depth_duration_MTurk/v2_DepthDuration_HTML.html#465,465,1366,768,1366,768,8-29-2022,10-41-28,2,depth_duration_stimuli/001828_2014-06-26_21-40-03_260595134347_rgbf000024-resize_0/001828_2014-06-26_21-40-03_260595134347_rgbf000024-resize_0-target.png,250,4.8260000000000005,2,3768,253,meters,jsons/v1_VE250_randls_21.json,752344,955362,26,Man
2,924077,DepthScenes,duration_manipulation_targetAtFixation,jsons/v1_VE250_randls_21.json,http://54.235.29.9/FacialAge/BNav_EC2/DepthDuration/v2_depth_duration_MTurk/v2_DepthDuration_HTML.html#465,465,1366,768,1366,768,8-29-2022,10-41-28,3,depth_duration_stimuli/001056_2014-06-08_18-46-44_260595134347_rgbf000068-resize_0/001056_2014-06-08_18-46-44_260595134347_rgbf000068-resize_0-target.png,250,2.6625,3,3450,262,meters,jsons/v1_VE250_randls_21.json,752344,955362,26,Man
3,924077,DepthScenes,duration_manipulation_targetAtFixation,jsons/v1_VE250_randls_21.json,http://54.235.29.9/FacialAge/BNav_EC2/DepthDuration/v2_depth_duration_MTurk/v2_DepthDuration_HTML.html#465,465,1366,768,1366,768,8-29-2022,10-41-28,4,depth_duration_stimuli/002199_2014-06-28_18-33-56_260595134347_rgbf000074-resize_0/002199_2014-06-28_18-33-56_260595134347_rgbf000074-resize_0-target.png,250,1.996,1,3785,248,meters,jsons/v1_VE250_randls_21.json,752344,955362,26,Man
4,924077,DepthScenes,duration_manipulation_targetAtFixation,jsons/v1_VE250_randls_21.json,http://54.235.29.9/FacialAge/BNav_EC2/DepthDuration/v2_depth_duration_MTurk/v2_DepthDuration_HTML.html#465,465,1366,768,1366,768,8-29-2022,10-41-28,5,depth_duration_stimuli/000469_2014-06-09_19-42-10_260595134347_rgbf000081-resize_1/000469_2014-06-09_19-42-10_260595134347_rgbf000081-resize_1-target.png,250,1.652,1,4508,224,meters,jsons/v1_VE250_randls_21.json,752344,955362,26,Man
5,924077,DepthScenes,duration_manipulation_targetAtFixation,jsons/v1_VE250_randls_21.json,http://54.235.29.9/FacialAge/BNav_EC2/DepthDuration/v2_depth_duration_MTurk/v2_DepthDuration_HTML.html#465,465,1366,768,1366,768,8-29-2022,10-41-28,6,depth_duration_stimuli/000483_2014-06-09_20-41-45_260595134347_rgbf000116-resize_4/000483_2014-06-09_20-41-45_260595134347_rgbf000116-resize_4-target.png,250,1.337,2,3729,250,meters,jsons/v1_VE250_randls_21.json,752344,955362,26,Man
6,924077,DepthScenes,duration_manipulation_targetAtFixation,jsons/v1_VE250_randls_21.json,http://54.235.29.9/FacialAge/BNav_EC2/DepthDuration/v2_depth_duration_MTurk/v2_DepthDuration_HTML.html#465,465,1366,768,1366,768,8-29-2022,10-41-28,7,depth_duration_stimuli/001175_2014-06-17_15-45-55_260595134347_rgbf000129-resize_4/001175_2014-06-17_15-45-55_260595134347_rgbf000129-resize_4-target.png,250,4.255,4,4344,250,meters,jsons/v1_VE250_randls_21.json,752344,955362,26,Man
7,924077,DepthScenes,duration_manipulation_targetAtFixation,jsons/v1_VE250_randls_21.json,http://54.235.29.9/FacialAge/BNav_EC2/DepthDuration/v2_depth_duration_MTurk/v2_DepthDuration_HTML.html#465,465,1366,768,1366,768,8-29-2022,10-41-28,8,depth_duration_stimuli/003490_2014-05-21_15-50-11_094959634447_rgbf000101-resize_3/003490_2014-05-21_15-50-11_094959634447_rgbf000101-resize_3-target.png,250,3.6445,2,3851,249,meters,jsons/v1_VE250_randls_21.json,752344,955362,26,Man
8,924077,DepthScenes,duration_manipulation_targetAtFixation,jsons/v1_VE250_randls_21.json,http://54.235.29.9/FacialAge/BNav_EC2/DepthDuration/v2_depth_duration_MTurk/v2_DepthDuration_HTML.html#465,465,1366,768,1366,768,8-29-2022,10-41-28,9,depth_duration_stimuli/002509_2014-06-24_13-19-22_094959634447_rgbf000077-resize_0/002509_2014-06-24_13-19-22_094959634447_rgbf000077-resize_0-target.png,250,1.3065,2,3529,250,meters,jsons/v1_VE250_randls_21.json,752344,955362,26,Man
9,924077,DepthScenes,duration_manipulation_targetAtFixation,jsons/v1_VE250_randls_21.json,http://54.235.29.9/FacialAge/BNav_EC2/DepthDuration/v2_depth_duration_MTurk/v2_DepthDuration_HTML.html#465,465,1366,768,1366,768,8-29-2022,10-41-28,10,depth_duration_stimuli/003338_2014-05-20_11-01-23_094959634447_rgbf000051-resize_6/003338_2014-05-20_11-01-23_094959634447_rgbf000051-resize_6-target.png,250,1.693,1,4626,248,meters,jsons/v1_VE250_randls_21.json,752344,955362,26,Man
10,924077,DepthScenes,duration_manipulation_targetAtFixation,jsons/v1_VE250_randls_21.json,http://54.235.29.9/FacialAge/BNav_EC2/DepthDuration/v2_depth_duration_MTurk/v2_DepthDuration_HTML.html#465,465,1366,768,1366,768,8-29-2022,10-41-28,11,depth_duration_stimuli/000493_2014-06-09_21-01-18_260595134347_rgbf000196-resize_3/000493_2014-06-09_21-01-18_260595134347_rgbf000196-resize_3-target.png,250,3.44,2,6073,250,meters,jsons/v1_VE250_randls_21.json,752344,955362,26,Man
11,924077,DepthScenes,duration_manipulation_targetAtFixation,jsons/v1_VE250_randls_21.json,http://54.235.29.9/FacialAge/BNav_EC2/DepthDuration/v2_depth_duration_MTurk/v2_DepthDuration_HTML.html#465,465,1366,768,1366,768,8-29-2022,10-41-28,12,depth_duration_stimuli/000191_2014-05-12_17-07-38_260595134347_rgbf000199-resize_0/000191_2014-05-12_17-07-38_260595134347_rgbf000199-resize_0-target.png,250,3.7995,2,4192,249,meters,jsons/v1_VE250_randls_21.json,752344,955362,26,Man
12,924077,DepthScenes,duration_manipulation_targetAtFixation,jsons/v1_VE250_randls_21.json,http://54.235.29.9/FacialAge/BNav_EC2/DepthDuration/v2_depth_duration_MTurk/v2_DepthDuration_HTML.html#465,465,1366,768,1366,768,8-29-2022,10-41-28,13,depth_duration_stimuli/000569_2014-06-09_22-51-47_260595134347_rgbf000141-resize_3/000569_2014-06-09_22-51-47_260595134347_rgbf000141-resize-original.jpg,250,4.512,0,4309,249,meters,jsons/v1_VE250_randls_21.json,752344,955362,26,Man
13,924077,DepthScenes,duration_manipulation_targetAtFixation,jsons/v1_VE250_randls_21.json,http://54.235.29.9/FacialAge/BNav_EC2/DepthDuration/v2_depth_duration_MTurk/v2_DepthDuration_HTML.html#465,465,1366,768,1366,768,8-29-2022,10-41-28,14,depth_duration_stimuli/001555_2014-06-20_17-12-10_260595134347_rgbf000065-resize_4/001555_2014-06-20_17-12-10_260595134347_rgbf000065-resize_4-target.png,250,1.633,1,5285,250,meters,jsons/v1_VE250_randls_21.json,752344,955362,26,Man
14,924077,DepthScenes,duration_manipulation_targetAtFixation,jsons/v1_VE250_randls_21.json,http://54.235.29.9/FacialAge/BNav_EC2/DepthDuration/v2_depth_duration_MTurk/v2_DepthDuration_HTML.html#465,465,1366,768,1366,768,8-29-2022,10-41-28,15,depth_duration_stimuli/000103_2014-05-14_22-01-17_260595134347_rgbf000152-resize_5/000103_2014-05-14_22-01-17_260595134347_rgbf000152-resize_5-target.png,250,1.993,2,3606,233,meters,jsons/v1_VE250_randls_21.json,752344,955362,26,Man
15,924077,DepthScenes,duration_manipulation_targetAtFixation,jsons/v1_VE250_randls_21.json,http://54.235.29.9/FacialAge/BNav_EC2/DepthDuration/v2_depth_duration_MTurk/v2_DepthDuration_HTML.html#465,465,1366,768,1366,768,8-29-2022,10-41-28,16,depth_duration_stimuli/000642_2014-06-08_16-59-25_260595134347_rgbf000098-resize_2/000642_2014-06-08_16-59-25_260595134347_rgbf000098-resize_2-target.png,250,2.8815,2,3739,249,meters,jsons/v1_VE250_randls_21.json,752344,955362,26,Man
16,924077,DepthScenes,duration_manipulation_targetAtFixation,jsons/v1_VE250_randls_21.json,http://54.235.29.9/FacialAge/BNav_EC2/DepthDuration/v2_depth_duration_MTurk/v2_DepthDuration_HTML.html#465,465,1366,768,1366,768,8-29-2022,10-41-28,17,depth_duration_stimuli/002425_2014-06-28_20-27-29_260595134347_rgbf000031-resize_8/002425_2014-06-28_20-27-29_260595134347_rgbf000031-resize_8-target.png,250,3.8960000000000004,3,3299,248,meters,jsons/v1_VE250_randls_21.json,752344,955362,26,Man
17,924077,DepthScenes,duration_manipulation_targetAtFixation,jsons/v1_VE250_randls_21.json,http://54.235.29.9/FacialAge/BNav_EC2/DepthDuration/v2_depth_duration_MTurk/v2_DepthDuration_HTML.html#465,465,1366,768,1366,768,8-29-2022,10-41-28,18,depth_duration_stimuli/001449_2014-06-19_17-01-27_260595134347_rgbf000116-resize_2/001449_2014-06-19_17-01-27_260595134347_rgbf000116-resize_2-target.png,250,3.452,2,4422,235,meters,jsons/v1_VE250_randls_21.json,752344,955362,26,Man
18,924077,DepthScenes,duration_manipulation_targetAtFixation,jsons/v1_VE250_randls_21.json,http://54.235.29.9/FacialAge/BNav_EC2/DepthDuration/v2_depth_duration_MTurk/v2_DepthDuration_HTML.html#465,465,1366,768,1366,768,8-29-2022,10-41-28,19,depth_duration_stimuli/001450_2014-06-19_17-02-03_260595134347_rgbf000203-resize_4/001450_2014-06-19_17-02-03_260595134347_rgbf000203-resize_4-target.png,250,4.0106666666667,2,4107,250,meters,jsons/v1_VE250_randls_21.json,752344,955362,26,Man
19,924077,DepthScenes,duration_manipulation_targetAtFixation,jsons/v1_VE250_randls_21.json,http://54.235.29.9/FacialAge/BNav_EC2/DepthDuration/v2_depth_duration_MTurk/v2_DepthDuration_HTML.html#465,465,1366,768,1366,768,8-29-2022,10-41-28,20,depth_duration_stimuli/001055_2014-06-08_18-45-35_260595134347_rgbf000111-resize_4/001055_2014-06-08_18-45-35_260595134347_rgbf000111-resize_4-target.png,250,2.4290000000000003,4,4718,266,meters,jsons/v1_VE250_randls_21.json,752344,955362,26,Man
20,924077,DepthScenes,duration_manipulation_targetAtFixation,jsons/v1_VE250_randls_21.json,http://54.235.29.9/FacialAge/BNav_EC2/DepthDuration/v2_depth_duration_MTurk/v2_DepthDuration_HTML.html#465,465,1366,768,1366,768,8-29-2022,10-41-28,21,depth_duration_stimuli/000549_2014-06-08_22-10-24_260595134347_rgbf000247-resize_3/000549_2014-06-08_22-10-24_260595134347_rgbf000247-resize_3-target.png,250,1.841,1,4107,253,meters,jsons/v1_VE250_randls_21.json,752344,955362,26,Man
21,924077,DepthScenes,duration_manipulation_targetAtFixation,jsons/v1_VE250_randls_21.json,http://54.235.29.9/FacialAge/BNav_EC2/DepthDuration/v2_depth_duration_MTurk/v2_DepthDuration_HTML.html#465,465,1366,768,1366,768,8-29-2022,10-41-28,22,depth_duration_stimuli/001011_2014-06-08_23-18-54_260595134347_rgbf000044-resize_4/001011_2014-06-08_23-18-54_260595134347_rgbf000044-resize_4-target.png,250,2.4730000000000003,3,3893,252,meters,jsons/v1_VE250_randls_21.json,752344,955362,26,Man
22,924077,DepthScenes,duration_manipulation_targetAtFixation,jsons/v1_VE250_randls_21.json,http://54.235.29.9/FacialAge/BNav_EC2/DepthDuration/v2_depth_duration_MTurk/v2_DepthDuration_HTML.html#465,465,1366,768,1366,768,8-29-2022,10-41-28,23,depth_duration_stimuli/002875_2014-06-01_15-19-00_094959634447_rgbf000151-resize_1/002875_2014-06-01_15-19-00_094959634447_rgbf000151-resize_1-target.png,250,1.9675,2,3882,249,meters,jsons/v1_VE250_randls_21.json,752344,955362,26,Man
23,924077,DepthScenes,duration_manipulation_targetAtFixation,jsons/v1_VE250_randls_21.json,http://54.235.29.9/FacialAge/BNav_EC2/DepthDuration/v2_depth_duration_MTurk/v2_DepthDuration_HTML.html#465,465,1366,768,1366,768,8-29-2022,10-41-28,24,depth_duration_stimuli/000758_2014-06-08_22-05-08_260595134347_rgbf000085-resize_0/000758_2014-06-08_22-05-08_260595134347_rgbf000085-resize_0-target.png,250,3.3810000000000002,2,4393,224,meters,jsons/v1_VE250_randls_21.json,752344,955362,26,Man
24,924077,DepthScenes,duration_manipulation_targetAtFixation,jsons/v1_VE250_randls_21.json,http://54.235.29.9/FacialAge/BNav_EC2/DepthDuration/v2_depth_duration_MTurk/v2_DepthDuration_HTML.html#465,465,1366,768,1366,768,8-29-2022,10-41-28,25,depth_duration_stimuli/000854_2014-06-09_19-43-13_260595134347_rgbf000066-resize_0/000854_2014-06-09_19-43-13_260595134347_rgbf000066-resize_0-target.png,250,3.068,2,7313,249,meters,jsons/v1_VE250_randls_21.json,752344,955362,26,Man
25,924077,DepthScenes,duration_manipulation_targetAtFixation,jsons/v1_VE250_randls_21.json,http://54.235.29.9/FacialAge/BNav_EC2/DepthDuration/v2_depth_duration_MTurk/v2_DepthDuration_HTML.html#465,465,1366,768,1366,768,8-29-2022,10-41-28,26,depth_duration_stimuli/000470_2014-06-09_19-42-40_260595134347_rgbf000094-resize_1/000470_2014-06-09_19-42-40_260595134347_rgbf000094-resize_1-target.png,250,1.831,1,4308,261,meters,jsons/v1_VE250_randls_21.json,752344,955362,26,Man
26,924077,DepthScenes,duration_manipulation_targetAtFixation,jsons/v1_VE250_randls_21.json,http://54.235.29.9/FacialAge/BNav_EC2/DepthDuration/v2_depth_duration_MTurk/v2_DepthDuration_HTML.html#465,465,1366,768,1366,768,8-29-2022,10-41-28,27,depth_duration_stimuli/000109_2014-05-14_23-41-52_260595134347_rgbf000035-resize_9/000109_2014-05-14_23-41-52_260595134347_rgbf000035-resize_9-target.png,250,1.3545,2,3630,250,meters,jsons/v1_VE250_randls_21.json,752344,955362,26,Man
27,924077,DepthScenes,duration_manipulation_targetAtFixation,jsons/v1_VE250_randls_21.json,http://54.235.29.9/FacialAge/BNav_EC2/DepthDuration/v2_depth_duration_MTurk/v2_DepthDuration_HTML.html#465,465,1366,768,1366,768,8-29-2022,10-41-28,28,depth_duration_stimuli/001244_2014-06-17_16-47-45_260595134347_rgbf000030-resize_4/001244_2014-06-17_16-47-45_260595134347_rgbf000030-resize_4-target.png,250,2.0425,2,3101,250,meters,jsons/v1_VE250_randls_21.json,752344,955362,26,Man
28,924077,DepthScenes,duration_manipulation_targetAtFixation,jsons/v1_VE250_randls_21.json,http://54.235.29.9/FacialAge/BNav_EC2/DepthDuration/v2_depth_duration_MTurk/v2_DepthDuration_HTML.html#465,465,1366,768,1366,768,8-29-2022,10-41-28,29,depth_duration_stimuli/003495_2014-05-21_16-01-51_094959634447_rgbf000100-resize_3/003495_2014-05-21_16-01-51_094959634447_rgbf000100-resize_3-target.png,250,1.6255,1,3710,248,meters,jsons/v1_VE250_randls_21.json,752344,955362,26,Man
29,924077,DepthScenes,duration_manipulation_targetAtFixation,jsons/v1_VE250_randls_21.json,http://54.235.29.9/FacialAge/BNav_EC2/DepthDuration/v2_depth_duration_MTurk/v2_DepthDuration_HTML.html#465,465,1366,768,1366,768,8-29-2022,10-41-28,30,depth_duration_stimuli/000375_2014-06-08_11-17-29_260595134347_rgbf000133-resize_2/000375_2014-06-08_11-17-29_260595134347_rgbf000133-resize-original.jpg,250,4.718,0,5061,250,meters,jsons/v1_VE250_randls_21.json,752344,955362,26,Man
30,924077,DepthScenes,duration_manipulation_targetAtFixation,jsons/v1_VE250_randls_21.json,http://54.235.29.9/FacialAge/BNav_EC2/DepthDuration/v2_depth_duration_MTurk/v2_DepthDuration_HTML.html#465,465,1366,768,1366,768,8-29-2022,10-41-28,31,depth_duration_stimuli/002905_2014-06-03_18-04-43_094959634447_rgbf000151-resize_2/002905_2014-06-03_18-04-43_094959634447_rgbf000151-resize_2-target.png,250,2.0295,1,3435,235,meters,jsons/v1_VE250_randls_21.json,752344,955362,26,Man
31,924077,DepthScenes,duration_manipulation_targetAtFixation,jsons/v1_VE250_randls_21.json,http://54.235.29.9/FacialAge/BNav_EC2/DepthDuration/v2_depth_duration_MTurk/v2_DepthDuration_HTML.html#465,465,1366,768,1366,768,8-29-2022,10-41-28,32,depth_duration_stimuli/003423_2014-05-21_10-23-26_094959634447_rgbf002665-resize_2/003423_2014-05-21_10-23-26_094959634447_rgbf002665-resize_2-target.png,250,3.2575,1,3743,234,meters,jsons/v1_VE250_randls_21.json,752344,955362,26,Man
32,924077,DepthScenes,duration_manipulation_targetAtFixation,jsons/v1_VE250_randls_21.json,http://54.235.29.9/FacialAge/BNav_EC2/DepthDuration/v2_depth_duration_MTurk/v2_DepthDuration_HTML.html#465,465,1366,768,1366,768,8-29-2022,10-41-28,33,depth_duration_stimuli/002118_2014-06-25_20-32-08_260595134347_rgbf000078-resize_1/002118_2014-06-25_20-32-08_260595134347_rgbf000078-resize_1-target.png,250,2.6460000000000004,1,3549,251,meters,jsons/v1_VE250_randls_21.json,752344,955362,26,Man
33,924077,DepthScenes,duration_manipulation_targetAtFixation,jsons/v1_VE250_randls_21.json,http://54.235.29.9/FacialAge/BNav_EC2/DepthDuration/v2_depth_duration_MTurk/v2_DepthDuration_HTML.html#465,465,1366,768,1366,768,8-29-2022,10-41-28,34,depth_duration_stimuli/001516_2014-06-20_16-25-09_260595134347_rgbf000076-resize_2/001516_2014-06-20_16-25-09_260595134347_rgbf000076-resize_2-target.png,250,1.7445,2,3181,250,meters,jsons/v1_VE250_randls_21.json,752344,955362,26,Man
34,924077,DepthScenes,duration_manipulation_targetAtFixation,jsons/v1_VE250_randls_21.json,http://54.235.29.9/FacialAge/BNav_EC2/DepthDuration/v2_depth_duration_MTurk/v2_DepthDuration_HTML.html#465,465,1366,768,1366,768,8-29-2022,10-41-28,35,depth_duration_stimuli/002153_2014-06-25_21-27-18_260595134347_rgbf000038-resize_5/002153_2014-06-25_21-27-18_260595134347_rgbf000038-resize_5-target.png,250,2.505,2,3566,252,meters,jsons/v1_VE250_randls_21.json,752344,955362,26,Man
35,924077,DepthScenes,duration_manipulation_targetAtFixation,jsons/v1_VE250_randls_21.json,http://54.235.29.9/FacialAge/BNav_EC2/DepthDuration/v2_depth_duration_MTurk/v2_DepthDuration_HTML.html#465,465,1366,768,1366,768,8-29-2022,10-41-28,36,depth_duration_stimuli/002660_2014-06-13_15-44-18_094959634447_rgbf001878-resize_2/002660_2014-06-13_15-44-18_094959634447_rgbf001878-resize_2-target.png,250,3.576,1,5167,235,meters,jsons/v1_VE250_randls_21.json,752344,955362,26,Man
36,924077,DepthScenes,duration_manipulation_targetAtFixation,jsons/v1_VE250_randls_21.json,http://54.235.29.9/FacialAge/BNav_EC2/DepthDuration/v2_depth_duration_MTurk/v2_DepthDuration_HTML.html#465,465,1366,768,1366,768,8-29-2022,10-41-28,37,depth_duration_stimuli/002600_2014-06-24_14-27-04_094959634447_rgbf000074-resize_2/002600_2014-06-24_14-27-04_094959634447_rgbf000074-resize_2-target.png,250,2.7575,1,14914,250,meters,jsons/v1_VE250_randls_21.json,752344,955362,26,Man
37,924077,DepthScenes,duration_manipulation_targetAtFixation,jsons/v1_VE250_randls_21.json,http://54.235.29.9/FacialAge/BNav_EC2/DepthDuration/v2_depth_duration_MTurk/v2_DepthDuration_HTML.html#465,465,1366,768,1366,768,8-29-2022,10-41-28,38,depth_duration_stimuli/003228_2014-05-14_13-42-35_094959634447_rgbf000101-resize_1/003228_2014-05-14_13-42-35_094959634447_rgbf000101-resize_1-target.png,250,1.9680000000000002,2,2919,263,meters,jsons/v1_VE250_randls_21.json,752344,955362,26,Man
38,924077,DepthScenes,duration_manipulation_targetAtFixation,jsons/v1_VE250_randls_21.json,http://54.235.29.9/FacialAge/BNav_EC2/DepthDuration/v2_depth_duration_MTurk/v2_DepthDuration_HTML.html#465,465,1366,768,1366,768,8-29-2022,10-41-28,39,depth_duration_stimuli/002964_2014-06-08_17-46-11_094959634447_rgbf000091-resize_4/002964_2014-06-08_17-46-11_094959634447_rgbf000091-resize_4-target.png,250,1.6909999999999998,2,3593,247,meters,jsons/v1_VE250_randls_21.json,752344,955362,26,Man
39,924077,DepthScenes,duration_manipulation_targetAtFixation,jsons/v1_VE250_randls_21.json,http://54.235.29.9/FacialAge/BNav_EC2/DepthDuration/v2_depth_duration_MTurk/v2_DepthDuration_HTML.html#465,465,1366,768,1366,768,8-29-2022,10-41-28,40,depth_duration_stimuli/002136_2014-06-25_21-18-03_260595134347_rgbf000109-resize_3/002136_2014-06-25_21-18-03_260595134347_rgbf000109-resize_3-target.png,250,1.9569999999999999,2,7948,249,meters,jsons/v1_VE250_randls_21.json,752344,955362,26,Man
40,924077,DepthScenes,duration_manipulation_targetAtFixation,jsons/v1_VE250_randls_21.json,http://54.235.29.9/FacialAge/BNav_EC2/DepthDuration/v2_depth_duration_MTurk/v2_DepthDuration_HTML.html#465,465,1366,768,1366,768,8-29-2022,10-41-28,41,depth_duration_stimuli/003070_2014-06-15_14-58-27_094959634447_rgbf000150-resize_3/003070_2014-06-15_14-58-27_094959634447_rgbf000150-resize_3-target.png,250,2.9415,2,2921,252,meters,jsons/v1_VE250_randls_21.json,752344,955362,26,Man
41,924077,DepthScenes,duration_manipulation_targetAtFixation,jsons/v1_VE250_randls_21.json,http://54.235.29.9/FacialAge/BNav_EC2/DepthDuration/v2_depth_duration_MTurk/v2_DepthDuration_HTML.html#465,465,1366,768,1366,768,8-29-2022,10-41-28,42,depth_duration_stimuli/000943_2014-06-09_19-31-07_260595134347_rgbf000128-resize_1/000943_2014-06-09_19-31-07_260595134347_rgbf000128-resize_1-target.png,250,1.9765,2,4913,251,meters,jsons/v1_VE250_randls_21.json,752344,955362,26,Man
42,924077,DepthScenes,duration_manipulation_targetAtFixation,jsons/v1_VE250_randls_21.json,http://54.235.29.9/FacialAge/BNav_EC2/DepthDuration/v2_depth_duration_MTurk/v2_DepthDuration_HTML.html#465,465,1366,768,1366,768,8-29-2022,10-41-28,43,depth_duration_stimuli/001150_2014-06-17_15-27-34_260595134347_rgbf000108-resize_2/001150_2014-06-17_15-27-34_260595134347_rgbf000108-resize_2-target.png,250,4.0325,3,4736,248,meters,jsons/v1_VE250_randls_21.json,752344,955362,26,Man
43,924077,DepthScenes,duration_manipulation_targetAtFixation,jsons/v1_VE250_randls_21.json,http://54.235.29.9/FacialAge/BNav_EC2/DepthDuration/v2_depth_duration_MTurk/v2_DepthDuration_HTML.html#465,465,1366,768,1366,768,8-29-2022,10-41-28,44,depth_duration_stimuli/000665_2014-06-09_20-42-35_260595134347_rgbf000110-resize_1/000665_2014-06-09_20-42-35_260595134347_rgbf000110-resize_1-target.png,250,3.057,2,3124,259,meters,jsons/v1_VE250_randls_21.json,752344,955362,26,Man
44,924077,DepthScenes,duration_manipulation_targetAtFixation,jsons/v1_VE250_randls_21.json,http://54.235.29.9/FacialAge/BNav_EC2/DepthDuration/v2_depth_duration_MTurk/v2_DepthDuration_HTML.html#465,465,1366,768,1366,768,8-29-2022,10-41-28,45,depth_duration_stimuli/000787_2014-06-08_22-33-53_260595134347_rgbf000175-resize_1/000787_2014-06-08_22-33-53_260595134347_rgbf000175-resize-original.jpg,250,4.784,2,6176,250,meters,jsons/v1_VE250_randls_21.json,752344,955362,26,Man
45,924077,DepthScenes,duration_manipulation_targetAtFixation,jsons/v1_VE250_randls_21.json,http://54.235.29.9/FacialAge/BNav_EC2/DepthDuration/v2_depth_duration_MTurk/v2_DepthDuration_HTML.html#465,465,1366,768,1366,768,8-29-2022,10-41-28,46,depth_duration_stimuli/001092_2014-06-15_17-34-58_260595134347_rgbf000171-resize_3/001092_2014-06-15_17-34-58_260595134347_rgbf000171-resize_3-target.png,250,2.6935,1,3564,250,meters,jsons/v1_VE250_randls_21.json,752344,955362,26,Man
46,924077,DepthScenes,duration_manipulation_targetAtFixation,jsons/v1_VE250_randls_21.json,http://54.235.29.9/FacialAge/BNav_EC2/DepthDuration/v2_depth_duration_MTurk/v2_DepthDuration_HTML.html#465,465,1366,768,1366,768,8-29-2022,10-41-28,47,depth_duration_stimuli/002545_2014-06-24_13-38-53_094959634447_rgbf000080-resize_4/002545_2014-06-24_13-38-53_094959634447_rgbf000080-resize_4-target.png,250,1.9205,3,4699,241,meters,jsons/v1_VE250_randls_21.json,752344,955362,26,Man
47,924077,DepthScenes,duration_manipulation_targetAtFixation,jsons/v1_VE250_randls_21.json,http://54.235.29.9/FacialAge/BNav_EC2/DepthDuration/v2_depth_duration_MTurk/v2_DepthDuration_HTML.html#465,465,1366,768,1366,768,8-29-2022,10-41-28,48,depth_duration_stimuli/002445_2014-06-28_20-32-16_260595134347_rgbf000029-resize_4/002445_2014-06-28_20-32-16_260595134347_rgbf000029-resize_4-target.png,250,2.5315,2,4118,248,meters,jsons/v1_VE250_randls_21.json,752344,955362,26,Man
48,924077,DepthScenes,duration_manipulation_targetAtFixation,jsons/v1_VE250_randls_21.json,http://54.235.29.9/FacialAge/BNav_EC2/DepthDuration/v2_depth_duration_MTurk/v2_DepthDuration_HTML.html#465,465,1366,768,1366,768,8-29-2022,10-41-28,49,depth_duration_stimuli/000780_2014-06-08_22-28-29_260595134347_rgbf000126-resize_1/000780_2014-06-08_22-28-29_260595134347_rgbf000126-resize_1-target.png,250,3.3825,3,3911,242,meters,jsons/v1_VE250_randls_21.json,752344,955362,26,Man
49,924077,DepthScenes,duration_manipulation_targetAtFixation,jsons/v1_VE250_randls_21.json,http://54.235.29.9/FacialAge/BNav_EC2/DepthDuration/v2_depth_duration_MTurk/v2_DepthDuration_HTML.html#465,465,1366,768,1366,768,8-29-2022,10-41-28,50,depth_duration_stimuli/001059_2014-06-08_21-53-27_260595134347_rgbf000061-resize_4/001059_2014-06-08_21-53-27_260595134347_rgbf000061-resize_4-target.png,250,2.4185,2,4807,248,meters,jsons/v1_VE250_randls_21.json,752344,955362,26,Man
50,924077,DepthScenes,duration_manipulation_targetAtFixation,jsons/v1_VE250_randls_21.json,http://54.235.29.9/FacialAge/BNav_EC2/DepthDuration/v2_depth_duration_MTurk/v2_DepthDuration_HTML.html#465,465,1366,768,1366,768,8-29-2022,10-41-28,51,depth_duration_stimuli/001032_2014-06-08_13-23-17_260595134347_rgbf000021-resize_3/001032_2014-06-08_13-23-17_260595134347_rgbf000021-resize_3-target.png,250,3.2725,1,4094,251,meters,jsons/v1_VE250_randls_21.json,752344,955362,26,Man
51,924077,DepthScenes,duration_manipulation_targetAtFixation,jsons/v1_VE250_randls_21.json,http://54.235.29.9/FacialAge/BNav_EC2/DepthDuration/v2_depth_duration_MTurk/v2_DepthDuration_HTML.html#465,465,1366,768,1366,768,8-29-2022,10-41-28,52,depth_duration_stimuli/003492_2014-05-21_15-50-55_094959634447_rgbf000828-resize_1/003492_2014-05-21_15-50-55_094959634447_rgbf000828-resize_1-target.png,250,4.06875,2,21388,249,meters,jsons/v1_VE250_randls_21.json,752344,955362,26,Man
52,924077,DepthScenes,duration_manipulation_targetAtFixation,jsons/v1_VE250_randls_21.json,http://54.235.29.9/FacialAge/BNav_EC2/DepthDuration/v2_depth_duration_MTurk/v2_DepthDuration_HTML.html#465,465,1366,768,1366,768,8-29-2022,10-41-28,53,depth_duration_stimuli/002568_2014-06-24_13-59-21_094959634447_rgbf000062-resize_4/002568_2014-06-24_13-59-21_094959634447_rgbf000062-resize_4-target.png,250,3.015,2,4315,266,meters,jsons/v1_VE250_randls_21.json,752344,955362,26,Man
53,924077,DepthScenes,duration_manipulation_targetAtFixation,jsons/v1_VE250_randls_21.json,http://54.235.29.9/FacialAge/BNav_EC2/DepthDuration/v2_depth_duration_MTurk/v2_DepthDuration_HTML.html#465,465,1366,768,1366,768,8-29-2022,10-41-28,54,depth_duration_stimuli/000447_2014-06-08_16-15-46_260595134347_rgbf000130-resize_1/000447_2014-06-08_16-15-46_260595134347_rgbf000130-resize_1-target.png,250,4.479,3,4362,250,meters,jsons/v1_VE250_randls_21.json,752344,955362,26,Man
54,924077,DepthScenes,duration_manipulation_targetAtFixation,jsons/v1_VE250_randls_21.json,http://54.235.29.9/FacialAge/BNav_EC2/DepthDuration/v2_depth_duration_MTurk/v2_DepthDuration_HTML.html#465,465,1366,768,1366,768,8-29-2022,10-41-28,55,depth_duration_stimuli/001447_2014-06-19_17-00-32_260595134347_rgbf000082-resize_5/001447_2014-06-19_17-00-32_260595134347_rgbf000082-resize_5-target.png,250,4.13775,2,3662,250,meters,jsons/v1_VE250_randls_21.json,752344,955362,26,Man
55,924077,DepthScenes,duration_manipulation_targetAtFixation,jsons/v1_VE250_randls_21.json,http://54.235.29.9/FacialAge/BNav_EC2/DepthDuration/v2_depth_duration_MTurk/v2_DepthDuration_HTML.html#465,465,1366,768,1366,768,8-29-2022,10-41-28,56,depth_duration_stimuli/003292_2014-05-14_21-53-49_094959634447_rgbf000100-resize_2/003292_2014-05-14_21-53-49_094959634447_rgbf000100-resize_2-target.png,250,3.4815,3,4481,258,meters,jsons/v1_VE250_randls_21.json,752344,955362,26,Man
56,924077,DepthScenes,duration_manipulation_targetAtFixation,jsons/v1_VE250_randls_21.json,http://54.235.29.9/FacialAge/BNav_EC2/DepthDuration/v2_depth_duration_MTurk/v2_DepthDuration_HTML.html#465,465,1366,768,1366,768,8-29-2022,10-41-28,57,depth_duration_stimuli/002639_2014-06-24_14-51-37_094959634447_rgbf000074-resize_4/002639_2014-06-24_14-51-37_094959634447_rgbf000074-resize_4-target.png,250,4.0375,3,6194,245,meters,jsons/v1_VE250_randls_21.json,752344,955362,26,Man
57,924077,DepthScenes,duration_manipulation_targetAtFixation,jsons/v1_VE250_randls_21.json,http://54.235.29.9/FacialAge/BNav_EC2/DepthDuration/v2_depth_duration_MTurk/v2_DepthDuration_HTML.html#465,465,1366,768,1366,768,8-29-2022,10-41-28,58,depth_duration_stimuli/002057_2014-06-24_21-00-13_260595134347_rgbf000120-resize_1/002057_2014-06-24_21-00-13_260595134347_rgbf000120-resize_1-target.png,250,2.967,3,3757,231,meters,jsons/v1_VE250_randls_21.json,752344,955362,26,Man
58,924077,DepthScenes,duration_manipulation_targetAtFixation,jsons/v1_VE250_randls_21.json,http://54.235.29.9/FacialAge/BNav_EC2/DepthDuration/v2_depth_duration_MTurk/v2_DepthDuration_HTML.html#465,465,1366,768,1366,768,8-29-2022,10-41-28,59,depth_duration_stimuli/000709_2014-06-08_13-51-55_260595134347_rgbf000068-resize_3/000709_2014-06-08_13-51-55_260595134347_rgbf000068-resize_3-target.png,250,1.8030000000000002,4,3190,249,meters,jsons/v1_VE250_randls_21.json,752344,955362,26,Man
59,924077,DepthScenes,duration_manipulation_targetAtFixation,jsons/v1_VE250_randls_21.json,http://54.235.29.9/FacialAge/BNav_EC2/DepthDuration/v2_depth_duration_MTurk/v2_DepthDuration_HTML.html#465,465,1366,768,1366,768,8-29-2022,10-41-28,60,depth_duration_stimuli/000736_2014-06-08_18-24-15_260595134347_rgbf000206-resize_3/000736_2014-06-08_18-24-15_260595134347_rgbf000206-resize_3-target.png,250,3.515,1,3138,247,meters,jsons/v1_VE250_randls_21.json,752344,955362,26,Man
60,924077,DepthScenes,duration_manipulation_targetAtFixation,jsons/v1_VE250_randls_21.json,http://54.235.29.9/FacialAge/BNav_EC2/DepthDuration/v2_depth_duration_MTurk/v2_DepthDuration_HTML.html#465,465,1366,768,1366,768,8-29-2022,10-41-28,61,depth_duration_stimuli/000137_2014-05-20_17-04-49_260595134347_rgbf000120-resize_1/000137_2014-05-20_17-04-49_260595134347_rgbf000120-resize_1-target.png,250,3.786,2,14681,248,meters,jsons/v1_VE250_randls_21.json,752344,955362,26,Man
61,924077,DepthScenes,duration_manipulation_targetAtFixation,jsons/v1_VE250_randls_21.json,http://54.235.29.9/FacialAge/BNav_EC2/DepthDuration/v2_depth_duration_MTurk/v2_DepthDuration_HTML.html#465,465,1366,768,1366,768,8-29-2022,10-41-28,62,depth_duration_stimuli/000788_2014-06-08_22-34-36_260595134347_rgbf000131-resize_1/000788_2014-06-08_22-34-36_260595134347_rgbf000131-resize_1-target.png,250,3.359,1,3382,249,meters,jsons/v1_VE250_randls_21.json,752344,955362,26,Man
62,924077,DepthScenes,duration_manipulation_targetAtFixation,jsons/v1_VE250_randls_21.json,http://54.235.29.9/FacialAge/BNav_EC2/DepthDuration/v2_depth_duration_MTurk/v2_DepthDuration_HTML.html#465,465,1366,768,1366,768,8-29-2022,10-41-28,63,depth_duration_stimuli/001235_2014-06-17_16-37-36_260595134347_rgbf000084-resize_4/001235_2014-06-17_16-37-36_260595134347_rgbf000084-resize_4-target.png,250,3.6605,1,4655,256,meters,jsons/v1_VE250_randls_21.json,752344,955362,26,Man
63,924077,DepthScenes,duration_manipulation_targetAtFixation,jsons/v1_VE250_randls_21.json,http://54.235.29.9/FacialAge/BNav_EC2/DepthDuration/v2_depth_duration_MTurk/v2_DepthDuration_HTML.html#465,465,1366,768,1366,768,8-29-2022,10-41-28,64,depth_duration_stimuli/002272_2014-06-28_18-53-56_260595134347_rgbf000067-resize_2/002272_2014-06-28_18-53-56_260595134347_rgbf000067-resize_2-target.png,250,1.138,1,4075,252,meters,jsons/v1_VE250_randls_21.json,752344,955362,26,Man
64,924077,DepthScenes,duration_manipulation_targetAtFixation,jsons/v1_VE250_randls_21.json,http://54.235.29.9/FacialAge/BNav_EC2/DepthDuration/v2_depth_duration_MTurk/v2_DepthDuration_HTML.html#465,465,1366,768,1366,768,8-29-2022,10-41-28,65,depth_duration_stimuli/001571_2014-06-20_17-21-32_260595134347_rgbf000089-resize_1/001571_2014-06-20_17-21-32_260595134347_rgbf000089-resize_1-target.png,250,1.86,2,5403,235,meters,jsons/v1_VE250_randls_21.json,752344,955362,26,Man
65,924077,DepthScenes,duration_manipulation_targetAtFixation,jsons/v1_VE250_randls_21.json,http://54.235.29.9/FacialAge/BNav_EC2/DepthDuration/v2_depth_duration_MTurk/v2_DepthDuration_HTML.html#465,465,1366,768,1366,768,8-29-2022,10-41-28,66,depth_duration_stimuli/001222_2014-06-17_16-24-06_260595134347_rgbf000073-resize_0/001222_2014-06-17_16-24-06_260595134347_rgbf000073-resize-original.jpg,250,1.4385,0,3466,243,meters,jsons/v1_VE250_randls_21.json,752344,955362,26,Man
66,924077,DepthScenes,duration_manipulation_targetAtFixation,jsons/v1_VE250_randls_21.json,http://54.235.29.9/FacialAge/BNav_EC2/DepthDuration/v2_depth_duration_MTurk/v2_DepthDuration_HTML.html#465,465,1366,768,1366,768,8-29-2022,10-41-28,67,depth_duration_stimuli/000739_2014-06-08_18-45-58_260595134347_rgbf000068-resize_1/000739_2014-06-08_18-45-58_260595134347_rgbf000068-resize_1-target.png,250,3.534,2,3607,253,meters,jsons/v1_VE250_randls_21.json,752344,955362,26,Man
67,924077,DepthScenes,duration_manipulation_targetAtFixation,jsons/v1_VE250_randls_21.json,http://54.235.29.9/FacialAge/BNav_EC2/DepthDuration/v2_depth_duration_MTurk/v2_DepthDuration_HTML.html#465,465,1366,768,1366,768,8-29-2022,10-41-28,68,depth_duration_stimuli/000734_2014-06-08_17-39-11_260595134347_rgbf000128-resize_2/000734_2014-06-08_17-39-11_260595134347_rgbf000128-resize_2-target.png,250,4.098,3,2953,253,meters,jsons/v1_VE250_randls_21.json,752344,955362,26,Man
68,924077,DepthScenes,duration_manipulation_targetAtFixation,jsons/v1_VE250_randls_21.json,http://54.235.29.9/FacialAge/BNav_EC2/DepthDuration/v2_depth_duration_MTurk/v2_DepthDuration_HTML.html#465,465,1366,768,1366,768,8-29-2022,10-41-28,69,depth_duration_stimuli/001016_2014-06-09_16-16-10_260595134347_rgbf000112-resize_5/001016_2014-06-09_16-16-10_260595134347_rgbf000112-resize_5-target.png,250,1.6565,2,3606,249,meters,jsons/v1_VE250_randls_21.json,752344,955362,26,Man
69,924077,DepthScenes,duration_manipulation_targetAtFixation,jsons/v1_VE250_randls_21.json,http://54.235.29.9/FacialAge/BNav_EC2/DepthDuration/v2_depth_duration_MTurk/v2_DepthDuration_HTML.html#465,465,1366,768,1366,768,8-29-2022,10-41-28,70,depth_duration_stimuli/002340_2014-06-28_20-05-46_260595134347_rgbf000113-resize_0/002340_2014-06-28_20-05-46_260595134347_rgbf000113-resize_0-target.png,250,2.4735,2,5076,251,meters,jsons/v1_VE250_randls_21.json,752344,955362,26,Man
70,924077,DepthScenes,duration_manipulation_targetAtFixation,jsons/v1_VE250_randls_21.json,http://54.235.29.9/FacialAge/BNav_EC2/DepthDuration/v2_depth_duration_MTurk/v2_DepthDuration_HTML.html#465,465,1366,768,1366,768,8-29-2022,10-41-28,71,depth_duration_stimuli/001110_2014-06-15_17-25-28_260595134347_rgbf000150-resize_1/001110_2014-06-15_17-25-28_260595134347_rgbf000150-resize_1-target.png,250,1.7115,2,5058,249,meters,jsons/v1_VE250_randls_21.json,752344,955362,26,Man
71,924077,DepthScenes,duration_manipulation_targetAtFixation,jsons/v1_VE250_randls_21.json,http://54.235.29.9/FacialAge/BNav_EC2/DepthDuration/v2_depth_duration_MTurk/v2_DepthDuration_HTML.html#465,465,1366,768,1366,768,8-29-2022,10-41-28,72,depth_duration_stimuli/000927_2014-06-09_16-32-30_260595134347_rgbf000123-resize_3/000927_2014-06-09_16-32-30_260595134347_rgbf000123-resize_3-target.png,250,2.6785,2,3405,230,meters,jsons/v1_VE250_randls_21.json,752344,955362,26,Man
72,924077,DepthScenes,duration_manipulation_targetAtFixation,jsons/v1_VE250_randls_21.json,http://54.235.29.9/FacialAge/BNav_EC2/DepthDuration/v2_depth_duration_MTurk/v2_DepthDuration_HTML.html#465,465,1366,768,1366,768,8-29-2022,10-41-28,73,depth_duration_stimuli/002375_2014-06-28_20-13-44_260595134347_rgbf000032-resize_1/002375_2014-06-28_20-13-44_260595134347_rgbf000032-resize_1-target.png,250,4.0175,1,3529,268,meters,jsons/v1_VE250_randls_21.json,752344,955362,26,Man
73,924077,DepthScenes,duration_manipulation_targetAtFixation,jsons/v1_VE250_randls_21.json,http://54.235.29.9/FacialAge/BNav_EC2/DepthDuration/v2_depth_duration_MTurk/v2_DepthDuration_HTML.html#465,465,1366,768,1366,768,8-29-2022,10-41-28,74,depth_duration_stimuli/002657_2014-06-13_15-29-54_094959634447_rgbf000150-resize_1/002657_2014-06-13_15-29-54_094959634447_rgbf000150-resize_1-target.png,250,4.919,1,2994,226,meters,jsons/v1_VE250_randls_21.json,752344,955362,26,Man
74,924077,DepthScenes,duration_manipulation_targetAtFixation,jsons/v1_VE250_randls_21.json,http://54.235.29.9/FacialAge/BNav_EC2/DepthDuration/v2_depth_duration_MTurk/v2_DepthDuration_HTML.html#465,465,1366,768,1366,768,8-29-2022,10-41-28,75,depth_duration_stimuli/000773_2014-06-08_22-24-54_260595134347_rgbf000093-resize_1/000773_2014-06-08_22-24-54_260595134347_rgbf000093-resize_1-target.png,250,4.973,2,4783,239,meters,jsons/v1_VE250_randls_21.json,752344,955362,26,Man
75,924077,DepthScenes,duration_manipulation_targetAtFixation,jsons/v1_VE250_randls_21.json,http://54.235.29.9/FacialAge/BNav_EC2/DepthDuration/v2_depth_duration_MTurk/v2_DepthDuration_HTML.html#465,465,1366,768,1366,768,8-29-2022,10-41-28,76,depth_duration_stimuli/002414_2014-06-28_20-24-58_260595134347_rgbf000067-resize_4/002414_2014-06-28_20-24-58_260595134347_rgbf000067-resize_4-target.png,250,4.363,2,3716,251,meters,jsons/v1_VE250_randls_21.json,752344,955362,26,Man
76,924077,DepthScenes,duration_manipulation_targetAtFixation,jsons/v1_VE250_randls_21.json,http://54.235.29.9/FacialAge/BNav_EC2/DepthDuration/v2_depth_duration_MTurk/v2_DepthDuration_HTML.html#465,465,1366,768,1366,768,8-29-2022,10-41-28,77,depth_duration_stimuli/000436_2014-06-09_22-25-11_260595134347_rgbf000137-resize_1/000436_2014-06-09_22-25-11_260595134347_rgbf000137-resize_1-target.png,250,4.0705,2,20715,252,meters,jsons/v1_VE250_randls_21.json,752344,955362,26,Man
77,924077,DepthScenes,duration_manipulation_targetAtFixation,jsons/v1_VE250_randls_21.json,http://54.235.29.9/FacialAge/BNav_EC2/DepthDuration/v2_depth_duration_MTurk/v2_DepthDuration_HTML.html#465,465,1366,768,1366,768,8-29-2022,10-41-28,78,depth_duration_stimuli/002444_2014-06-28_20-32-08_260595134347_rgbf000027-resize_0/002444_2014-06-28_20-32-08_260595134347_rgbf000027-resize_0-target.png,250,4.388999999999999,2,3534,250,meters,jsons/v1_VE250_randls_21.json,752344,955362,26,Man
78,924077,DepthScenes,duration_manipulation_targetAtFixation,jsons/v1_VE250_randls_21.json,http://54.235.29.9/FacialAge/BNav_EC2/DepthDuration/v2_depth_duration_MTurk/v2_DepthDuration_HTML.html#465,465,1366,768,1366,768,8-29-2022,10-41-28,79,depth_duration_stimuli/002570_2014-06-24_13-59-54_094959634447_rgbf000059-resize_0/002570_2014-06-24_13-59-54_094959634447_rgbf000059-resize_0-target.png,250,4.037,1,3512,249,meters,jsons/v1_VE250_randls_21.json,752344,955362,26,Man
79,924077,DepthScenes,duration_manipulation_targetAtFixation,jsons/v1_VE250_randls_21.json,http://54.235.29.9/FacialAge/BNav_EC2/DepthDuration/v2_depth_duration_MTurk/v2_DepthDuration_HTML.html#465,465,1366,768,1366,768,8-29-2022,10-41-28,80,depth_duration_stimuli/002467_2014-06-28_20-38-07_260595134347_rgbf000026-resize_2/002467_2014-06-28_20-38-07_260595134347_rgbf000026-resize_2-target.png,250,4.742,2,3592,263,meters,jsons/v1_VE250_randls_21.json,752344,955362,26,Man
80,924077,DepthScenes,duration_manipulation_targetAtFixation,jsons/v1_VE250_randls_21.json,http://54.235.29.9/FacialAge/BNav_EC2/DepthDuration/v2_depth_duration_MTurk/v2_DepthDuration_HTML.html#465,465,1366,768,1366,768,8-29-2022,10-41-28,81,depth_duration_stimuli/002725_2014-06-22_11-47-51_094959634447_rgbf000070-resize_1/002725_2014-06-22_11-47-51_094959634447_rgbf000070-resize_1-target.png,250,2.195,2,3998,251,meters,jsons/v1_VE250_randls_21.json,752344,955362,26,Man
81,924077,DepthScenes,duration_manipulation_targetAtFixation,jsons/v1_VE250_randls_21.json,http://54.235.29.9/FacialAge/BNav_EC2/DepthDuration/v2_depth_duration_MTurk/v2_DepthDuration_HTML.html#465,465,1366,768,1366,768,8-29-2022,10-41-28,82,depth_duration_stimuli/002344_2014-06-28_20-06-29_260595134347_rgbf000030-resize_1/002344_2014-06-28_20-06-29_260595134347_rgbf000030-resize_1-target.png,250,1.5795,1,2450,249,meters,jsons/v1_VE250_randls_21.json,752344,955362,26,Man
82,924077,DepthScenes,duration_manipulation_targetAtFixation,jsons/v1_VE250_randls_21.json,http://54.235.29.9/FacialAge/BNav_EC2/DepthDuration/v2_depth_duration_MTurk/v2_DepthDuration_HTML.html#465,465,1366,768,1366,768,8-29-2022,10-41-28,83,depth_duration_stimuli/003534_2014-05-22_15-06-10_094959634447_rgbf000102-resize_4/003534_2014-05-22_15-06-10_094959634447_rgbf000102-resize_4-target.png,250,1.426,1,4566,237,meters,jsons/v1_VE250_randls_21.json,752344,955362,26,Man
83,924077,DepthScenes,duration_manipulation_targetAtFixation,jsons/v1_VE250_randls_21.json,http://54.235.29.9/FacialAge/BNav_EC2/DepthDuration/v2_depth_duration_MTurk/v2_DepthDuration_HTML.html#465,465,1366,768,1366,768,8-29-2022,10-41-28,84,depth_duration_stimuli/002637_2014-06-24_14-51-13_094959634447_rgbf000066-resize_4/002637_2014-06-24_14-51-13_094959634447_rgbf000066-resize_4-target.png,250,1.9955,2,3763,255,meters,jsons/v1_VE250_randls_21.json,752344,955362,26,Man
84,924077,DepthScenes,duration_manipulation_targetAtFixation,jsons/v1_VE250_randls_21.json,http://54.235.29.9/FacialAge/BNav_EC2/DepthDuration/v2_depth_duration_MTurk/v2_DepthDuration_HTML.html#465,465,1366,768,1366,768,8-29-2022,10-41-28,85,depth_duration_stimuli/000878_2014-06-08_22-52-45_260595134347_rgbf000045-resize_2/000878_2014-06-08_22-52-45_260595134347_rgbf000045-resize_2-target.png,250,2.092,3,4009,249,meters,jsons/v1_VE250_randls_21.json,752344,955362,26,Man
85,924077,DepthScenes,duration_manipulation_targetAtFixation,jsons/v1_VE250_randls_21.json,http://54.235.29.9/FacialAge/BNav_EC2/DepthDuration/v2_depth_duration_MTurk/v2_DepthDuration_HTML.html#465,465,1366,768,1366,768,8-29-2022,10-41-28,86,depth_duration_stimuli/002953_2014-06-08_17-32-18_094959634447_rgbf000059-resize_5/002953_2014-06-08_17-32-18_094959634447_rgbf000059-resize_5-target.png,250,1.551,2,3521,232,meters,jsons/v1_VE250_randls_21.json,752344,955362,26,Man
86,924077,DepthScenes,duration_manipulation_targetAtFixation,jsons/v1_VE250_randls_21.json,http://54.235.29.9/FacialAge/BNav_EC2/DepthDuration/v2_depth_duration_MTurk/v2_DepthDuration_HTML.html#465,465,1366,768,1366,768,8-29-2022,10-41-28,87,depth_duration_stimuli/001133_2014-06-17_14-49-16_260595134347_rgbf000100-resize_0/001133_2014-06-17_14-49-16_260595134347_rgbf000100-resize_0-target.png,250,4.2115,1,3782,235,meters,jsons/v1_VE250_randls_21.json,752344,955362,26,Man
87,924077,DepthScenes,duration_manipulation_targetAtFixation,jsons/v1_VE250_randls_21.json,http://54.235.29.9/FacialAge/BNav_EC2/DepthDuration/v2_depth_duration_MTurk/v2_DepthDuration_HTML.html#465,465,1366,768,1366,768,8-29-2022,10-41-28,88,depth_duration_stimuli/001132_2014-06-17_14-48-54_260595134347_rgbf000100-resize_2/001132_2014-06-17_14-48-54_260595134347_rgbf000100-resize_2-target.png,250,3.753,2,3118,241,meters,jsons/v1_VE250_randls_21.json,752344,955362,26,Man
88,924077,DepthScenes,duration_manipulation_targetAtFixation,jsons/v1_VE250_randls_21.json,http://54.235.29.9/FacialAge/BNav_EC2/DepthDuration/v2_depth_duration_MTurk/v2_DepthDuration_HTML.html#465,465,1366,768,1366,768,8-29-2022,10-41-28,89,depth_duration_stimuli/002788_2014-06-22_19-36-03_094959634447_rgbf000088-resize_2/002788_2014-06-22_19-36-03_094959634447_rgbf000088-resize_2-target.png,250,1.6465,1,6064,234,meters,jsons/v1_VE250_randls_21.json,752344,955362,26,Man
89,924077,DepthScenes,duration_manipulation_targetAtFixation,jsons/v1_VE250_randls_21.json,http://54.235.29.9/FacialAge/BNav_EC2/DepthDuration/v2_depth_duration_MTurk/v2_DepthDuration_HTML.html#465,465,1366,768,1366,768,8-29-2022,10-41-28,90,depth_duration_stimuli/000749_2014-06-08_21-55-06_260595134347_rgbf000070-resize_2/000749_2014-06-08_21-55-06_260595134347_rgbf000070-resize_2-target.png,250,2.331,1,3569,240,meters,jsons/v1_VE250_randls_21.json,752344,955362,26,Man
90,924077,DepthScenes,duration_manipulation_targetAtFixation,jsons/v1_VE250_randls_21.json,http://54.235.29.9/FacialAge/BNav_EC2/DepthDuration/v2_depth_duration_MTurk/v2_DepthDuration_HTML.html#465,465,1366,768,1366,768,8-29-2022,10-41-28,91,depth_duration_stimuli/002988_2014-06-15_12-24-20_094959634447_rgbf000150-resize_1/002988_2014-06-15_12-24-20_094959634447_rgbf000150-resize_1-target.png,250,4.7669999999999995,3,3851,257,meters,jsons/v1_VE250_randls_21.json,752344,955362,26,Man
91,924077,DepthScenes,duration_manipulation_targetAtFixation,jsons/v1_VE250_randls_21.json,http://54.235.29.9/FacialAge/BNav_EC2/DepthDuration/v2_depth_duration_MTurk/v2_DepthDuration_HTML.html#465,465,1366,768,1366,768,8-29-2022,10-41-28,92,depth_duration_stimuli/001052_2014-06-08_18-24-54_260595134347_rgbf000130-resize_1/001052_2014-06-08_18-24-54_260595134347_rgbf000130-resize_1-target.png,250,4.1045,3,2888,234,meters,jsons/v1_VE250_randls_21.json,752344,955362,26,Man
92,924077,DepthScenes,duration_manipulation_targetAtFixation,jsons/v1_VE250_randls_21.json,http://54.235.29.9/FacialAge/BNav_EC2/DepthDuration/v2_depth_duration_MTurk/v2_DepthDuration_HTML.html#465,465,1366,768,1366,768,8-29-2022,10-41-28,93,depth_duration_stimuli/000368_2014-06-09_15-53-01_260595134347_rgbf000155-resize_2/000368_2014-06-09_15-53-01_260595134347_rgbf000155-resize_2-target.png,250,2.4859999999999998,1,2838,243,meters,jsons/v1_VE250_randls_21.json,752344,955362,26,Man
93,924077,DepthScenes,duration_manipulation_targetAtFixation,jsons/v1_VE250_randls_21.json,http://54.235.29.9/FacialAge/BNav_EC2/DepthDuration/v2_depth_duration_MTurk/v2_DepthDuration_HTML.html#465,465,1366,768,1366,768,8-29-2022,10-41-28,94,depth_duration_stimuli/002678_2014-06-13_16-15-32_094959634447_rgbf000151-resize_6/002678_2014-06-13_16-15-32_094959634447_rgbf000151-resize_6-target.png,250,2.1830000000000003,3,4406,248,meters,jsons/v1_VE250_randls_21.json,752344,955362,26,Man
94,924077,DepthScenes,duration_manipulation_targetAtFixation,jsons/v1_VE250_randls_21.json,http://54.235.29.9/FacialAge/BNav_EC2/DepthDuration/v2_depth_duration_MTurk/v2_DepthDuration_HTML.html#465,465,1366,768,1366,768,8-29-2022,10-41-28,95,depth_duration_stimuli/001066_2014-06-08_22-03-20_260595134347_rgbf000066-resize_4/001066_2014-06-08_22-03-20_260595134347_rgbf000066-resize_4-target.png,250,4.2330000000000005,3,3773,237,meters,jsons/v1_VE250_randls_21.json,752344,955362,26,Man
95,924077,DepthScenes,duration_manipulation_targetAtFixation,jsons/v1_VE250_randls_21.json,http://54.235.29.9/FacialAge/BNav_EC2/DepthDuration/v2_depth_duration_MTurk/v2_DepthDuration_HTML.html#465,465,1366,768,1366,768,8-29-2022,10-41-28,96,depth_duration_stimuli/000742_2014-06-08_18-48-09_260595134347_rgbf000164-resize_4/000742_2014-06-08_18-48-09_260595134347_rgbf000164-resize_4-target.png,250,4.632,3,4128,233,meters,jsons/v1_VE250_randls_21.json,752344,955362,26,Man
96,924077,DepthScenes,duration_manipulation_targetAtFixation,jsons/v1_VE250_randls_21.json,http://54.235.29.9/FacialAge/BNav_EC2/DepthDuration/v2_depth_duration_MTurk/v2_DepthDuration_HTML.html#465,465,1366,768,1366,768,8-29-2022,10-41-28,97,depth_duration_stimuli/001808_2014-06-26_20-50-58_260595134347_rgbf000029-resize_1/001808_2014-06-26_20-50-58_260595134347_rgbf000029-resize_1-target.png,250,4.249,4,3567,233,meters,jsons/v1_VE250_randls_21.json,752344,955362,26,Man
97,924077,DepthScenes,duration_manipulation_targetAtFixation,jsons/v1_VE250_randls_21.json,http://54.235.29.9/FacialAge/BNav_EC2/DepthDuration/v2_depth_duration_MTurk/v2_DepthDuration_HTML.html#465,465,1366,768,1366,768,8-29-2022,10-41-28,98,depth_duration_stimuli/001815_2014-06-26_20-52-55_260595134347_rgbf000020-resize_0/001815_2014-06-26_20-52-55_260595134347_rgbf000020-resize_0-target.png,250,3.3865,4,2965,250,meters,jsons/v1_VE250_randls_21.json,752344,955362,26,Man
98,924077,DepthScenes,duration_manipulation_targetAtFixation,jsons/v1_VE250_randls_21.json,http://54.235.29.9/FacialAge/BNav_EC2/DepthDuration/v2_depth_duration_MTurk/v2_DepthDuration_HTML.html#465,465,1366,768,1366,768,8-29-2022,10-41-28,99,depth_duration_stimuli/001540_2014-06-20_17-01-05_260595134347_rgbf000086-resize_2/001540_2014-06-20_17-01-05_260595134347_rgbf000086-resize-original.jpg,250,1.459,0,3424,249,meters,jsons/v1_VE250_randls_21.json,752344,955362,26,Man
99,924077,DepthScenes,duration_manipulation_targetAtFixation,jsons/v1_VE250_randls_21.json,http://54.235.29.9/FacialAge/BNav_EC2/DepthDuration/v2_depth_duration_MTurk/v2_DepthDuration_HTML.html#465,465,1366,768,1366,768,8-29-2022,10-41-28,100,depth_duration_stimuli/002763_2014-06-22_19-13-10_094959634447_rgbf000075-resize_4/002763_2014-06-22_19-13-10_094959634447_rgbf000075-resize_4-target.png,250,1.68375,2,3579,242,meters,jsons/v1_VE250_randls_21.json,752344,955362,26,Man
100,924077,DepthScenes,duration_manipulation_targetAtFixation,jsons/v1_VE250_randls_21.json,http://54.235.29.9/FacialAge/BNav_EC2/DepthDuration/v2_depth_duration_MTurk/v2_DepthDuration_HTML.html#465,465,1366,768,1366,768,8-29-2022,10-41-28,101,depth_duration_stimuli/002209_2014-06-28_18-36-10_260595134347_rgbf000051-resize_1/002209_2014-06-28_18-36-10_260595134347_rgbf000051-resize_1-target.png,250,2.057,2,4513,235,meters,jsons/v1_VE250_randls_21.json,752344,955362,26,Man
101,924077,DepthScenes,duration_manipulation_targetAtFixation,jsons/v1_VE250_randls_21.json,http://54.235.29.9/FacialAge/BNav_EC2/DepthDuration/v2_depth_duration_MTurk/v2_DepthDuration_HTML.html#465,465,1366,768,1366,768,8-29-2022,10-41-28,102,depth_duration_stimuli/000682_2014-06-08_23-14-58_260595134347_rgbf000041-resize_5/000682_2014-06-08_23-14-58_260595134347_rgbf000041-resize_5-target.png,250,2.7239999999999998,1,3600,242,meters,jsons/v1_VE250_randls_21.json,752344,955362,26,Man
102,924077,DepthScenes,duration_manipulation_targetAtFixation,jsons/v1_VE250_randls_21.json,http://54.235.29.9/FacialAge/BNav_EC2/DepthDuration/v2_depth_duration_MTurk/v2_DepthDuration_HTML.html#465,465,1366,768,1366,768,8-29-2022,10-41-28,103,depth_duration_stimuli/001650_2014-06-20_12-09-00_260595134347_rgbf000087-resize_3/001650_2014-06-20_12-09-00_260595134347_rgbf000087-resize_3-target.png,250,1.9505,1,6384,266,meters,jsons/v1_VE250_randls_21.json,752344,955362,26,Man
103,924077,DepthScenes,duration_manipulation_targetAtFixation,jsons/v1_VE250_randls_21.json,http://54.235.29.9/FacialAge/BNav_EC2/DepthDuration/v2_depth_duration_MTurk/v2_DepthDuration_HTML.html#465,465,1366,768,1366,768,8-29-2022,10-41-28,104,depth_duration_stimuli/001164_2014-06-17_15-35-46_260595134347_rgbf000085-resize_3/001164_2014-06-17_15-35-46_260595134347_rgbf000085-resize_3-target.png,250,2.354,1,4862,225,meters,jsons/v1_VE250_randls_21.json,752344,955362,26,Man
104,924077,DepthScenes,duration_manipulation_targetAtFixation,jsons/v1_VE250_randls_21.json,http://54.235.29.9/FacialAge/BNav_EC2/DepthDuration/v2_depth_duration_MTurk/v2_DepthDuration_HTML.html#465,465,1366,768,1366,768,8-29-2022,10-41-28,105,depth_duration_stimuli/001136_2014-06-17_15-19-41_260595134347_rgbf000076-resize_3/001136_2014-06-17_15-19-41_260595134347_rgbf000076-resize_3-target.png,250,1.8655,0,3590,248,meters,jsons/v1_VE250_randls_21.json,752344,955362,26,Man
105,924077,DepthScenes,duration_manipulation_targetAtFixation,jsons/v1_VE250_randls_21.json,http://54.235.29.9/FacialAge/BNav_EC2/DepthDuration/v2_depth_duration_MTurk/v2_DepthDuration_HTML.html#465,465,1366,768,1366,768,8-29-2022,10-41-28,106,depth_duration_stimuli/002039_2014-06-24_20-22-38_260595134347_rgbf000084-resize_1/002039_2014-06-24_20-22-38_260595134347_rgbf000084-resize_1-target.png,250,4.408,1,5113,235,meters,jsons/v1_VE250_randls_21.json,752344,955362,26,Man
106,924077,DepthScenes,duration_manipulation_targetAtFixation,jsons/v1_VE250_randls_21.json,http://54.235.29.9/FacialAge/BNav_EC2/DepthDuration/v2_depth_duration_MTurk/v2_DepthDuration_HTML.html#465,465,1366,768,1366,768,8-29-2022,10-41-28,107,depth_duration_stimuli/002103_2014-06-25_20-00-40_260595134347_rgbf000049-resize_0/002103_2014-06-25_20-00-40_260595134347_rgbf000049-resize_0-target.png,250,4.105,2,2905,248,meters,jsons/v1_VE250_randls_21.json,752344,955362,26,Man
107,924077,DepthScenes,duration_manipulation_targetAtFixation,jsons/v1_VE250_randls_21.json,http://54.235.29.9/FacialAge/BNav_EC2/DepthDuration/v2_depth_duration_MTurk/v2_DepthDuration_HTML.html#465,465,1366,768,1366,768,8-29-2022,10-41-28,108,depth_duration_stimuli/001158_2014-06-17_15-32-16_260595134347_rgbf000138-resize_2/001158_2014-06-17_15-32-16_260595134347_rgbf000138-resize_2-target.png,250,4.5315,2,2640,248,meters,jsons/v1_VE250_randls_21.json,752344,955362,26,Man
108,924077,DepthScenes,duration_manipulation_targetAtFixation,jsons/v1_VE250_randls_21.json,http://54.235.29.9/FacialAge/BNav_EC2/DepthDuration/v2_depth_duration_MTurk/v2_DepthDuration_HTML.html#465,465,1366,768,1366,768,8-29-2022,10-41-28,109,depth_duration_stimuli/000556_2014-06-09_22-42-56_260595134347_rgbf000214-resize_1/000556_2014-06-09_22-42-56_260595134347_rgbf000214-resize_1-target.png,250,4.8415,2,2867,250,meters,jsons/v1_VE250_randls_21.json,752344,955362,26,Man
109,924077,DepthScenes,duration_manipulation_targetAtFixation,jsons/v1_VE250_randls_21.json,http://54.235.29.9/FacialAge/BNav_EC2/DepthDuration/v2_depth_duration_MTurk/v2_DepthDuration_HTML.html#465,465,1366,768,1366,768,8-29-2022,10-41-28,110,depth_duration_stimuli/002549_2014-06-24_13-41-39_094959634447_rgbf000022-resize_3/002549_2014-06-24_13-41-39_094959634447_rgbf000022-resize_3-target.png,250,1.476,2,3467,243,meters,jsons/v1_VE250_randls_21.json,752344,955362,26,Man
110,924077,DepthScenes,duration_manipulation_targetAtFixation,jsons/v1_VE250_randls_21.json,http://54.235.29.9/FacialAge/BNav_EC2/DepthDuration/v2_depth_duration_MTurk/v2_DepthDuration_HTML.html#465,465,1366,768,1366,768,8-29-2022,10-41-28,111,depth_duration_stimuli/002750_2014-06-22_19-08-03_094959634447_rgbf000094-resize_4/002750_2014-06-22_19-08-03_094959634447_rgbf000094-resize_4-target.png,250,2.354,3,3502,248,meters,jsons/v1_VE250_randls_21.json,752344,955362,26,Man
111,924077,DepthScenes,duration_manipulation_targetAtFixation,jsons/v1_VE250_randls_21.json,http://54.235.29.9/FacialAge/BNav_EC2/DepthDuration/v2_depth_duration_MTurk/v2_DepthDuration_HTML.html#465,465,1366,768,1366,768,8-29-2022,10-41-28,112,depth_duration_stimuli/001570_2014-06-20_17-21-09_260595134347_rgbf000135-resize_4/001570_2014-06-20_17-21-09_260595134347_rgbf000135-resize_4-target.png,250,4.467,3,3467,278,meters,jsons/v1_VE250_randls_21.json,752344,955362,26,Man
112,924077,DepthScenes,duration_manipulation_targetAtFixation,jsons/v1_VE250_randls_21.json,http://54.235.29.9/FacialAge/BNav_EC2/DepthDuration/v2_depth_duration_MTurk/v2_DepthDuration_HTML.html#465,465,1366,768,1366,768,8-29-2022,10-41-28,113,depth_duration_stimuli/001392_2014-06-19_16-07-59_260595134347_rgbf000046-resize_1/001392_2014-06-19_16-07-59_260595134347_rgbf000046-resize_1-target.png,250,4.135,3,3183,245,meters,jsons/v1_VE250_randls_21.json,752344,955362,26,Man
113,924077,DepthScenes,duration_manipulation_targetAtFixation,jsons/v1_VE250_randls_21.json,http://54.235.29.9/FacialAge/BNav_EC2/DepthDuration/v2_depth_duration_MTurk/v2_DepthDuration_HTML.html#465,465,1366,768,1366,768,8-29-2022,10-41-28,114,depth_duration_stimuli/001810_2014-06-26_20-51-35_260595134347_rgbf000040-resize_3/001810_2014-06-26_20-51-35_260595134347_rgbf000040-resize_3-target.png,250,2.2525,2,3140,252,meters,jsons/v1_VE250_randls_21.json,752344,955362,26,Man
114,924077,DepthScenes,duration_manipulation_targetAtFixation,jsons/v1_VE250_randls_21.json,http://54.235.29.9/FacialAge/BNav_EC2/DepthDuration/v2_depth_duration_MTurk/v2_DepthDuration_HTML.html#465,465,1366,768,1366,768,8-29-2022,10-41-28,115,depth_duration_stimuli/003010_2014-06-15_12-54-35_094959634447_rgbf000112-resize_0/003010_2014-06-15_12-54-35_094959634447_rgbf000112-resize_0-target.png,250,3.1185,4,2792,265,meters,jsons/v1_VE250_randls_21.json,752344,955362,26,Man
115,924077,DepthScenes,duration_manipulation_targetAtFixation,jsons/v1_VE250_randls_21.json,http://54.235.29.9/FacialAge/BNav_EC2/DepthDuration/v2_depth_duration_MTurk/v2_DepthDuration_HTML.html#465,465,1366,768,1366,768,8-29-2022,10-41-28,116,depth_duration_stimuli/001170_2014-06-17_15-43-44_260595134347_rgbf000096-resize_6/001170_2014-06-17_15-43-44_260595134347_rgbf000096-resize-original.jpg,250,1.1909999999999998,2,4641,233,meters,jsons/v1_VE250_randls_21.json,752344,955362,26,Man
116,924077,DepthScenes,duration_manipulation_targetAtFixation,jsons/v1_VE250_randls_21.json,http://54.235.29.9/FacialAge/BNav_EC2/DepthDuration/v2_depth_duration_MTurk/v2_DepthDuration_HTML.html#465,465,1366,768,1366,768,8-29-2022,10-41-28,117,depth_duration_stimuli/003621_2014-05-23_18-06-08_094959634447_rgbf000101-resize_1/003621_2014-05-23_18-06-08_094959634447_rgbf000101-resize_1-target.png,250,3.9835,4,3657,249,meters,jsons/v1_VE250_randls_21.json,752344,955362,26,Man
117,924077,DepthScenes,duration_manipulation_targetAtFixation,jsons/v1_VE250_randls_21.json,http://54.235.29.9/FacialAge/BNav_EC2/DepthDuration/v2_depth_duration_MTurk/v2_DepthDuration_HTML.html#465,465,1366,768,1366,768,8-29-2022,10-41-28,118,depth_duration_stimuli/001584_2014-06-20_11-07-43_260595134347_rgbf000002-resize_1/001584_2014-06-20_11-07-43_260595134347_rgbf000002-resize_1-target.png,250,3.53,3,2889,257,meters,jsons/v1_VE250_randls_21.json,752344,955362,26,Man
118,924077,DepthScenes,duration_manipulation_targetAtFixation,jsons/v1_VE250_randls_21.json,http://54.235.29.9/FacialAge/BNav_EC2/DepthDuration/v2_depth_duration_MTurk/v2_DepthDuration_HTML.html#465,465,1366,768,1366,768,8-29-2022,10-41-28,119,depth_duration_stimuli/002663_2014-06-13_15-50-26_094959634447_rgbf000075-resize_1/002663_2014-06-13_15-50-26_094959634447_rgbf000075-resize_1-target.png,250,4.7495,3,3288,245,meters,jsons/v1_VE250_randls_21.json,752344,955362,26,Man
119,924077,DepthScenes,duration_manipulation_targetAtFixation,jsons/v1_VE250_randls_21.json,http://54.235.29.9/FacialAge/BNav_EC2/DepthDuration/v2_depth_duration_MTurk/v2_DepthDuration_HTML.html#465,465,1366,768,1366,768,8-29-2022,10-41-28,120,depth_duration_stimuli/000409_2014-06-04_19-23-33_260595134347_rgbf000067-resize_0/000409_2014-06-04_19-23-33_260595134347_rgbf000067-resize_0-target.png,250,3.7335,2,2677,264,meters,jsons/v1_VE250_randls_21.json,752344,955362,26,Man
120,924077,DepthScenes,duration_manipulation_targetAtFixation,jsons/v1_VE250_randls_21.json,http://54.235.29.9/FacialAge/BNav_EC2/DepthDuration/v2_depth_duration_MTurk/v2_DepthDuration_HTML.html#465,465,1366,768,1366,768,8-29-2022,10-41-28,121,depth_duration_stimuli/000917_2014-06-09_22-45-29_260595134347_rgbf000149-resize_3/000917_2014-06-09_22-45-29_260595134347_rgbf000149-resize_3-target.png,250,4.1865,3,3149,220,meters,jsons/v1_VE250_randls_21.json,752344,955362,26,Man
121,924077,DepthScenes,duration_manipulation_targetAtFixation,jsons/v1_VE250_randls_21.json,http://54.235.29.9/FacialAge/BNav_EC2/DepthDuration/v2_depth_duration_MTurk/v2_DepthDuration_HTML.html#465,465,1366,768,1366,768,8-29-2022,10-41-28,122,depth_duration_stimuli/002323_2014-06-28_20-01-54_260595134347_rgbf000051-resize_4/002323_2014-06-28_20-01-54_260595134347_rgbf000051-resize_4-target.png,250,3.7310000000000003,3,2981,254,meters,jsons/v1_VE250_randls_21.json,752344,955362,26,Man
122,924077,DepthScenes,duration_manipulation_targetAtFixation,jsons/v1_VE250_randls_21.json,http://54.235.29.9/FacialAge/BNav_EC2/DepthDuration/v2_depth_duration_MTurk/v2_DepthDuration_HTML.html#465,465,1366,768,1366,768,8-29-2022,10-41-28,123,depth_duration_stimuli/001167_2014-06-17_15-38-07_260595134347_rgbf000108-resize_0/001167_2014-06-17_15-38-07_260595134347_rgbf000108-resize_0-target.png,250,1.8505,2,3322,251,meters,jsons/v1_VE250_randls_21.json,752344,955362,26,Man
123,924077,DepthScenes,duration_manipulation_targetAtFixation,jsons/v1_VE250_randls_21.json,http://54.235.29.9/FacialAge/BNav_EC2/DepthDuration/v2_depth_duration_MTurk/v2_DepthDuration_HTML.html#465,465,1366,768,1366,768,8-29-2022,10-41-28,124,depth_duration_stimuli/003587_2014-05-23_16-48-02_094959634447_rgbf002384-resize_2/003587_2014-05-23_16-48-02_094959634447_rgbf002384-resize_2-target.png,250,1.357,2,2706,234,meters,jsons/v1_VE250_randls_21.json,752344,955362,26,Man
124,924077,DepthScenes,duration_manipulation_targetAtFixation,jsons/v1_VE250_randls_21.json,http://54.235.29.9/FacialAge/BNav_EC2/DepthDuration/v2_depth_duration_MTurk/v2_DepthDuration_HTML.html#465,465,1366,768,1366,768,8-29-2022,10-41-28,125,depth_duration_stimuli/002748_2014-06-22_19-07-22_094959634447_rgbf000078-resize_1/002748_2014-06-22_19-07-22_094959634447_rgbf000078-resize_1-target.png,250,4.6705,3,2578,234,meters,jsons/v1_VE250_randls_21.json,752344,955362,26,Man
125,924077,DepthScenes,duration_manipulation_targetAtFixation,jsons/v1_VE250_randls_21.json,http://54.235.29.9/FacialAge/BNav_EC2/DepthDuration/v2_depth_duration_MTurk/v2_DepthDuration_HTML.html#465,465,1366,768,1366,768,8-29-2022,10-41-28,126,depth_duration_stimuli/002995_2014-06-15_12-31-26_094959634447_rgbf000150-resize_1/002995_2014-06-15_12-31-26_094959634447_rgbf000150-resize_1-target.png,250,3.8360000000000003,2,2340,248,meters,jsons/v1_VE250_randls_21.json,752344,955362,26,Man
126,924077,DepthScenes,duration_manipulation_targetAtFixation,jsons/v1_VE250_randls_21.json,http://54.235.29.9/FacialAge/BNav_EC2/DepthDuration/v2_depth_duration_MTurk/v2_DepthDuration_HTML.html#465,465,1366,768,1366,768,8-29-2022,10-41-28,127,depth_duration_stimuli/002989_2014-06-15_12-25-03_094959634447_rgbf000150-resize_3/002989_2014-06-15_12-25-03_094959634447_rgbf000150-resize_3-target.png,250,4.1975,3,3175,265,meters,jsons/v1_VE250_randls_21.json,752344,955362,26,Man
127,924077,DepthScenes,duration_manipulation_targetAtFixation,jsons/v1_VE250_randls_21.json,http://54.235.29.9/FacialAge/BNav_EC2/DepthDuration/v2_depth_duration_MTurk/v2_DepthDuration_HTML.html#465,465,1366,768,1366,768,8-29-2022,10-41-28,128,depth_duration_stimuli/000866_2014-06-09_20-45-42_260595134347_rgbf000139-resize_1/000866_2014-06-09_20-45-42_260595134347_rgbf000139-resize_1-target.png,250,3.2155,4,3050,263,meters,jsons/v1_VE250_randls_21.json,752344,955362,26,Man
128,924077,DepthScenes,duration_manipulation_targetAtFixation,jsons/v1_VE250_randls_21.json,http://54.235.29.9/FacialAge/BNav_EC2/DepthDuration/v2_depth_duration_MTurk/v2_DepthDuration_HTML.html#465,465,1366,768,1366,768,8-29-2022,10-41-28,129,depth_duration_stimuli/001029_2014-06-08_13-17-57_260595134347_rgbf000065-resize_1/001029_2014-06-08_13-17-57_260595134347_rgbf000065-resize_1-target.png,250,3.0835,4,3515,254,meters,jsons/v1_VE250_randls_21.json,752344,955362,26,Man
129,924077,DepthScenes,duration_manipulation_targetAtFixation,jsons/v1_VE250_randls_21.json,http://54.235.29.9/FacialAge/BNav_EC2/DepthDuration/v2_depth_duration_MTurk/v2_DepthDuration_HTML.html#465,465,1366,768,1366,768,8-29-2022,10-41-28,130,depth_duration_stimuli/000677_2014-06-08_23-10-32_260595134347_rgbf000158-resize_6/000677_2014-06-08_23-10-32_260595134347_rgbf000158-resize_6-target.png,250,3.556,3,3306,250,meters,jsons/v1_VE250_randls_21.json,752344,955362,26,Man
130,924077,DepthScenes,duration_manipulation_targetAtFixation,jsons/v1_VE250_randls_21.json,http://54.235.29.9/FacialAge/BNav_EC2/DepthDuration/v2_depth_duration_MTurk/v2_DepthDuration_HTML.html#465,465,1366,768,1366,768,8-29-2022,10-41-28,131,depth_duration_stimuli/000906_2014-06-08_13-35-43_260595134347_rgbf000155-resize_1/000906_2014-06-08_13-35-43_260595134347_rgbf000155-resize_1-target.png,250,2.8489999999999998,3,3393,250,meters,jsons/v1_VE250_randls_21.json,752344,955362,26,Man
131,924077,DepthScenes,duration_manipulation_targetAtFixation,jsons/v1_VE250_randls_21.json,http://54.235.29.9/FacialAge/BNav_EC2/DepthDuration/v2_depth_duration_MTurk/v2_DepthDuration_HTML.html#465,465,1366,768,1366,768,8-29-2022,10-41-28,132,depth_duration_stimuli/002805_2014-06-22_19-54-03_094959634447_rgbf000079-resize_1/002805_2014-06-22_19-54-03_094959634447_rgbf000079-resize_1-target.png,250,3.1439999999999997,2,2668,249,meters,jsons/v1_VE250_randls_21.json,752344,955362,26,Man
132,924077,DepthScenes,duration_manipulation_targetAtFixation,jsons/v1_VE250_randls_21.json,http://54.235.29.9/FacialAge/BNav_EC2/DepthDuration/v2_depth_duration_MTurk/v2_DepthDuration_HTML.html#465,465,1366,768,1366,768,8-29-2022,10-41-28,133,depth_duration_stimuli/001417_2014-06-19_16-25-36_260595134347_rgbf000115-resize_5/001417_2014-06-19_16-25-36_260595134347_rgbf000115-resize_5-target.png,250,4.6255,2,3090,249,meters,jsons/v1_VE250_randls_21.json,752344,955362,26,Man
133,924077,DepthScenes,duration_manipulation_targetAtFixation,jsons/v1_VE250_randls_21.json,http://54.235.29.9/FacialAge/BNav_EC2/DepthDuration/v2_depth_duration_MTurk/v2_DepthDuration_HTML.html#465,465,1366,768,1366,768,8-29-2022,10-41-28,134,depth_duration_stimuli/003081_2014-06-15_15-19-16_094959634447_rgbf000150-resize_1/003081_2014-06-15_15-19-16_094959634447_rgbf000150-resize_1-target.png,250,3.9125,2,2425,249,meters,jsons/v1_VE250_randls_21.json,752344,955362,26,Man
134,924077,DepthScenes,duration_manipulation_targetAtFixation,jsons/v1_VE250_randls_21.json,http://54.235.29.9/FacialAge/BNav_EC2/DepthDuration/v2_depth_duration_MTurk/v2_DepthDuration_HTML.html#465,465,1366,768,1366,768,8-29-2022,10-41-28,135,depth_duration_stimuli/002072_2014-06-24_21-48-06_260595134347_rgbf000115-resize_0/002072_2014-06-24_21-48-06_260595134347_rgbf000115-resize-original.jpg,250,4.702,0,3623,263,meters,jsons/v1_VE250_randls_21.json,752344,955362,26,Man
135,924077,DepthScenes,duration_manipulation_targetAtFixation,jsons/v1_VE250_randls_21.json,http://54.235.29.9/FacialAge/BNav_EC2/DepthDuration/v2_depth_duration_MTurk/v2_DepthDuration_HTML.html#465,465,1366,768,1366,768,8-29-2022,10-41-28,136,depth_duration_stimuli/000486_2014-06-09_20-47-20_260595134347_rgbf000143-resize_2/000486_2014-06-09_20-47-20_260595134347_rgbf000143-resize_2-target.png,250,4.8325,2,2864,250,meters,jsons/v1_VE250_randls_21.json,752344,955362,26,Man
136,924077,DepthScenes,duration_manipulation_targetAtFixation,jsons/v1_VE250_randls_21.json,http://54.235.29.9/FacialAge/BNav_EC2/DepthDuration/v2_depth_duration_MTurk/v2_DepthDuration_HTML.html#465,465,1366,768,1366,768,8-29-2022,10-41-28,137,depth_duration_stimuli/003083_2014-06-15_15-21-03_094959634447_rgbf000063-resize_1/003083_2014-06-15_15-21-03_094959634447_rgbf000063-resize_1-target.png,250,4.1405,4,2812,268,meters,jsons/v1_VE250_randls_21.json,752344,955362,26,Man
137,924077,DepthScenes,duration_manipulation_targetAtFixation,jsons/v1_VE250_randls_21.json,http://54.235.29.9/FacialAge/BNav_EC2/DepthDuration/v2_depth_duration_MTurk/v2_DepthDuration_HTML.html#465,465,1366,768,1366,768,8-29-2022,10-41-28,138,depth_duration_stimuli/002043_2014-06-24_20-29-38_260595134347_rgbf000039-resize_4/002043_2014-06-24_20-29-38_260595134347_rgbf000039-resize_4-target.png,250,2.8435,3,3250,241,meters,jsons/v1_VE250_randls_21.json,752344,955362,26,Man
138,924077,DepthScenes,duration_manipulation_targetAtFixation,jsons/v1_VE250_randls_21.json,http://54.235.29.9/FacialAge/BNav_EC2/DepthDuration/v2_depth_duration_MTurk/v2_DepthDuration_HTML.html#465,465,1366,768,1366,768,8-29-2022,10-41-28,139,depth_duration_stimuli/003048_2014-06-15_13-49-43_094959634447_rgbf000150-resize_1/003048_2014-06-15_13-49-43_094959634447_rgbf000150-resize_1-target.png,250,4.0035,4,2656,250,meters,jsons/v1_VE250_randls_21.json,752344,955362,26,Man
139,924077,DepthScenes,duration_manipulation_targetAtFixation,jsons/v1_VE250_randls_21.json,http://54.235.29.9/FacialAge/BNav_EC2/DepthDuration/v2_depth_duration_MTurk/v2_DepthDuration_HTML.html#465,465,1366,768,1366,768,8-29-2022,10-41-28,140,depth_duration_stimuli/002213_2014-06-28_18-37-58_260595134347_rgbf000055-resize_1/002213_2014-06-28_18-37-58_260595134347_rgbf000055-resize_1-target.png,250,3.62,4,2965,237,meters,jsons/v1_VE250_randls_21.json,752344,955362,26,Man
140,924077,DepthScenes,duration_manipulation_targetAtFixation,jsons/v1_VE250_randls_21.json,http://54.235.29.9/FacialAge/BNav_EC2/DepthDuration/v2_depth_duration_MTurk/v2_DepthDuration_HTML.html#465,465,1366,768,1366,768,8-29-2022,10-41-28,141,depth_duration_stimuli/000691_2014-06-08_13-08-50_260595134347_rgbf000132-resize_3/000691_2014-06-08_13-08-50_260595134347_rgbf000132-resize_3-target.png,250,4.1530000000000005,2,4201,381,meters,jsons/v1_VE250_randls_21.json,752344,955362,26,Man
141,924077,DepthScenes,duration_manipulation_targetAtFixation,jsons/v1_VE250_randls_21.json,http://54.235.29.9/FacialAge/BNav_EC2/DepthDuration/v2_depth_duration_MTurk/v2_DepthDuration_HTML.html#465,465,1366,768,1366,768,8-29-2022,10-41-28,142,depth_duration_stimuli/001806_2014-06-26_20-50-20_260595134347_rgbf000091-resize_1/001806_2014-06-26_20-50-20_260595134347_rgbf000091-resize_1-target.png,250,2.7305,2,3249,250,meters,jsons/v1_VE250_randls_21.json,752344,955362,26,Man
142,924077,DepthScenes,duration_manipulation_targetAtFixation,jsons/v1_VE250_randls_21.json,http://54.235.29.9/FacialAge/BNav_EC2/DepthDuration/v2_depth_duration_MTurk/v2_DepthDuration_HTML.html#465,465,1366,768,1366,768,8-29-2022,10-41-28,143,depth_duration_stimuli/001617_2014-06-20_11-35-32_260595134347_rgbf000066-resize_1/001617_2014-06-20_11-35-32_260595134347_rgbf000066-resize_1-target.png,250,3.7910000000000004,3,2471,262,meters,jsons/v1_VE250_randls_21.json,752344,955362,26,Man
143,924077,DepthScenes,duration_manipulation_targetAtFixation,jsons/v1_VE250_randls_21.json,http://54.235.29.9/FacialAge/BNav_EC2/DepthDuration/v2_depth_duration_MTurk/v2_DepthDuration_HTML.html#465,465,1366,768,1366,768,8-29-2022,10-41-28,144,depth_duration_stimuli/000506_2014-06-08_23-21-00_260595134347_rgbf000070-resize_7/000506_2014-06-08_23-21-00_260595134347_rgbf000070-resize_7-target.png,250,4.0585,3,2824,248,meters,jsons/v1_VE250_randls_21.json,752344,955362,26,Man
144,924077,DepthScenes,duration_manipulation_targetAtFixation,jsons/v1_VE250_randls_21.json,http://54.235.29.9/FacialAge/BNav_EC2/DepthDuration/v2_depth_duration_MTurk/v2_DepthDuration_HTML.html#465,465,1366,768,1366,768,8-29-2022,10-41-28,145,depth_duration_stimuli/003079_2014-06-15_15-18-20_094959634447_rgbf000152-resize_8/003079_2014-06-15_15-18-20_094959634447_rgbf000152-resize_8-target.png,250,2.8775,5,2618,250,meters,jsons/v1_VE250_randls_21.json,752344,955362,26,Man
145,924077,DepthScenes,duration_manipulation_targetAtFixation,jsons/v1_VE250_randls_21.json,http://54.235.29.9/FacialAge/BNav_EC2/DepthDuration/v2_depth_duration_MTurk/v2_DepthDuration_HTML.html#465,465,1366,768,1366,768,8-29-2022,10-41-28,146,depth_duration_stimuli/001498_2014-06-19_17-45-14_260595134347_rgbf000129-resize_4/001498_2014-06-19_17-45-14_260595134347_rgbf000129-resize-original.jpg,250,1.4075,0,3176,270,meters,jsons/v1_VE250_randls_21.json,752344,955362,26,Man
146,924077,DepthScenes,duration_manipulation_targetAtFixation,jsons/v1_VE250_randls_21.json,http://54.235.29.9/FacialAge/BNav_EC2/DepthDuration/v2_depth_duration_MTurk/v2_DepthDuration_HTML.html#465,465,1366,768,1366,768,8-29-2022,10-41-28,147,depth_duration_stimuli/002784_2014-06-22_19-26-30_094959634447_rgbf000083-resize_3/002784_2014-06-22_19-26-30_094959634447_rgbf000083-resize_3-target.png,250,1.8046666666667,1,3035,235,meters,jsons/v1_VE250_randls_21.json,752344,955362,26,Man
147,924077,DepthScenes,duration_manipulation_targetAtFixation,jsons/v1_VE250_randls_21.json,http://54.235.29.9/FacialAge/BNav_EC2/DepthDuration/v2_depth_duration_MTurk/v2_DepthDuration_HTML.html#465,465,1366,768,1366,768,8-29-2022,10-41-28,148,depth_duration_stimuli/001100_2014-06-15_17-46-26_260595134347_rgbf000225-resize_2/001100_2014-06-15_17-46-26_260595134347_rgbf000225-resize_2-target.png,250,2.24,2,2199,281,meters,jsons/v1_VE250_randls_21.json,752344,955362,26,Man
148,924077,DepthScenes,duration_manipulation_targetAtFixation,jsons/v1_VE250_randls_21.json,http://54.235.29.9/FacialAge/BNav_EC2/DepthDuration/v2_depth_duration_MTurk/v2_DepthDuration_HTML.html#465,465,1366,768,1366,768,8-29-2022,10-41-28,149,depth_duration_stimuli/000692_2014-06-08_13-09-42_260595134347_rgbf000199-resize_2/000692_2014-06-08_13-09-42_260595134347_rgbf000199-resize_2-target.png,250,3.661,3,2891,248,meters,jsons/v1_VE250_randls_21.json,752344,955362,26,Man
149,924077,DepthScenes,duration_manipulation_targetAtFixation,jsons/v1_VE250_randls_21.json,http://54.235.29.9/FacialAge/BNav_EC2/DepthDuration/v2_depth_duration_MTurk/v2_DepthDuration_HTML.html#465,465,1366,768,1366,768,8-29-2022,10-41-28,150,depth_duration_stimuli/001094_2014-06-15_17-36-00_260595134347_rgbf000205-resize_0/001094_2014-06-15_17-36-00_260595134347_rgbf000205-resize_0-target.png,250,4.2175,3,2789,263,meters,jsons/v1_VE250_randls_21.json,752344,955362,26,Man
150,924077,DepthScenes,duration_manipulation_targetAtFixation,jsons/v1_VE250_randls_21.json,http://54.235.29.9/FacialAge/BNav_EC2/DepthDuration/v2_depth_duration_MTurk/v2_DepthDuration_HTML.html#465,465,1366,768,1366,768,8-29-2022,10-41-28,151,depth_duration_stimuli/001199_2014-06-17_16-03-48_260595134347_rgbf000077-resize_0/001199_2014-06-17_16-03-48_260595134347_rgbf000077-resize_0-target.png,250,3.4375,3,3415,250,meters,jsons/v1_VE250_randls_21.json,752344,955362,26,Man
151,924077,DepthScenes,duration_manipulation_targetAtFixation,jsons/v1_VE250_randls_21.json,http://54.235.29.9/FacialAge/BNav_EC2/DepthDuration/v2_depth_duration_MTurk/v2_DepthDuration_HTML.html#465,465,1366,768,1366,768,8-29-2022,10-41-28,152,depth_duration_stimuli/000502_2014-06-08_23-02-32_260595134347_rgbf000063-resize_4/000502_2014-06-08_23-02-32_260595134347_rgbf000063-resize_4-target.png,250,2.431,2,2769,263,meters,jsons/v1_VE250_randls_21.json,752344,955362,26,Man
152,924077,DepthScenes,duration_manipulation_targetAtFixation,jsons/v1_VE250_randls_21.json,http://54.235.29.9/FacialAge/BNav_EC2/DepthDuration/v2_depth_duration_MTurk/v2_DepthDuration_HTML.html#465,465,1366,768,1366,768,8-29-2022,10-41-28,153,depth_duration_stimuli/002630_2014-06-24_14-47-50_094959634447_rgbf000055-resize_1/002630_2014-06-24_14-47-50_094959634447_rgbf000055-resize_1-target.png,250,3.0095,2,3663,248,meters,jsons/v1_VE250_randls_21.json,752344,955362,26,Man
153,924077,DepthScenes,duration_manipulation_targetAtFixation,jsons/v1_VE250_randls_21.json,http://54.235.29.9/FacialAge/BNav_EC2/DepthDuration/v2_depth_duration_MTurk/v2_DepthDuration_HTML.html#465,465,1366,768,1366,768,8-29-2022,10-41-28,154,depth_duration_stimuli/002758_2014-06-22_19-11-20_094959634447_rgbf000128-resize_1/002758_2014-06-22_19-11-20_094959634447_rgbf000128-resize_1-target.png,250,2.555,1,4570,245,meters,jsons/v1_VE250_randls_21.json,752344,955362,26,Man
154,924077,DepthScenes,duration_manipulation_targetAtFixation,jsons/v1_VE250_randls_21.json,http://54.235.29.9/FacialAge/BNav_EC2/DepthDuration/v2_depth_duration_MTurk/v2_DepthDuration_HTML.html#465,465,1366,768,1366,768,8-29-2022,10-41-28,155,depth_duration_stimuli/000810_2014-06-08_17-20-01_260595134347_rgbf000105-resize_0/000810_2014-06-08_17-20-01_260595134347_rgbf000105-resize_0-target.png,250,1.4865,1,2957,249,meters,jsons/v1_VE250_randls_21.json,752344,955362,26,Man
155,924077,DepthScenes,duration_manipulation_targetAtFixation,jsons/v1_VE250_randls_21.json,http://54.235.29.9/FacialAge/BNav_EC2/DepthDuration/v2_depth_duration_MTurk/v2_DepthDuration_HTML.html#465,465,1366,768,1366,768,8-29-2022,10-41-28,156,depth_duration_stimuli/001214_2014-06-17_16-13-55_260595134347_rgbf000111-resize_0/001214_2014-06-17_16-13-55_260595134347_rgbf000111-resize_0-target.png,250,2.6505,2,2889,250,meters,jsons/v1_VE250_randls_21.json,752344,955362,26,Man
156,924077,DepthScenes,duration_manipulation_targetAtFixation,jsons/v1_VE250_randls_21.json,http://54.235.29.9/FacialAge/BNav_EC2/DepthDuration/v2_depth_duration_MTurk/v2_DepthDuration_HTML.html#465,465,1366,768,1366,768,8-29-2022,10-41-28,157,depth_duration_stimuli/000929_2014-06-09_16-33-19_260595134347_rgbf000139-resize_0/000929_2014-06-09_16-33-19_260595134347_rgbf000139-resize_0-target.png,250,2.8680000000000003,2,2992,240,meters,jsons/v1_VE250_randls_21.json,752344,955362,26,Man
157,924077,DepthScenes,duration_manipulation_targetAtFixation,jsons/v1_VE250_randls_21.json,http://54.235.29.9/FacialAge/BNav_EC2/DepthDuration/v2_depth_duration_MTurk/v2_DepthDuration_HTML.html#465,465,1366,768,1366,768,8-29-2022,10-41-28,158,depth_duration_stimuli/000457_2014-06-08_16-52-43_260595134347_rgbf000199-resize_1/000457_2014-06-08_16-52-43_260595134347_rgbf000199-resize_1-target.png,250,3.6489999999999996,2,2564,249,meters,jsons/v1_VE250_randls_21.json,752344,955362,26,Man
158,924077,DepthScenes,duration_manipulation_targetAtFixation,jsons/v1_VE250_randls_21.json,http://54.235.29.9/FacialAge/BNav_EC2/DepthDuration/v2_depth_duration_MTurk/v2_DepthDuration_HTML.html#465,465,1366,768,1366,768,8-29-2022,10-41-28,159,depth_duration_stimuli/002279_2014-06-28_18-55-32_260595134347_rgbf000040-resize_5/002279_2014-06-28_18-55-32_260595134347_rgbf000040-resize_5-target.png,250,1.5043333333333,2,3552,264,meters,jsons/v1_VE250_randls_21.json,752344,955362,26,Man
159,924077,DepthScenes,duration_manipulation_targetAtFixation,jsons/v1_VE250_randls_21.json,http://54.235.29.9/FacialAge/BNav_EC2/DepthDuration/v2_depth_duration_MTurk/v2_DepthDuration_HTML.html#465,465,1366,768,1366,768,8-29-2022,10-41-28,160,depth_duration_stimuli/000635_2014-06-08_16-38-42_260595134347_rgbf000106-resize_1/000635_2014-06-08_16-38-42_260595134347_rgbf000106-resize_1-target.png,250,2.074,2,4090,248,meters,jsons/v1_VE250_randls_21.json,752344,955362,26,Man
160,924077,DepthScenes,duration_manipulation_targetAtFixation,jsons/v1_VE250_randls_21.json,http://54.235.29.9/FacialAge/BNav_EC2/DepthDuration/v2_depth_duration_MTurk/v2_DepthDuration_HTML.html#465,465,1366,768,1366,768,8-29-2022,10-41-28,161,depth_duration_stimuli/000414_2014-06-04_19-49-13_260595134347_rgbf000044-resize_0/000414_2014-06-04_19-49-13_260595134347_rgbf000044-resize_0-target.png,250,4.329,4,2841,249,meters,jsons/v1_VE250_randls_21.json,752344,955362,26,Man
161,924077,DepthScenes,duration_manipulation_targetAtFixation,jsons/v1_VE250_randls_21.json,http://54.235.29.9/FacialAge/BNav_EC2/DepthDuration/v2_depth_duration_MTurk/v2_DepthDuration_HTML.html#465,465,1366,768,1366,768,8-29-2022,10-41-28,162,depth_duration_stimuli/003129_2014-05-12_10-48-10_094959634447_rgbf000100-resize_0/003129_2014-05-12_10-48-10_094959634447_rgbf000100-resize_0-target.png,250,4.9305,3,3924,249,meters,jsons/v1_VE250_randls_21.json,752344,955362,26,Man
162,924077,DepthScenes,duration_manipulation_targetAtFixation,jsons/v1_VE250_randls_21.json,http://54.235.29.9/FacialAge/BNav_EC2/DepthDuration/v2_depth_duration_MTurk/v2_DepthDuration_HTML.html#465,465,1366,768,1366,768,8-29-2022,10-41-28,163,depth_duration_stimuli/000522_2014-06-08_13-35-06_260595134347_rgbf000244-resize_1/000522_2014-06-08_13-35-06_260595134347_rgbf000244-resize_1-target.png,250,2.3715,2,2462,261,meters,jsons/v1_VE250_randls_21.json,752344,955362,26,Man
163,924077,DepthScenes,duration_manipulation_targetAtFixation,jsons/v1_VE250_randls_21.json,http://54.235.29.9/FacialAge/BNav_EC2/DepthDuration/v2_depth_duration_MTurk/v2_DepthDuration_HTML.html#465,465,1366,768,1366,768,8-29-2022,10-41-28,164,depth_duration_stimuli/002949_2014-06-26_15-57-42_094959634447_rgbf000079-resize_1/002949_2014-06-26_15-57-42_094959634447_rgbf000079-resize_1-target.png,250,1.8915,2,2728,249,meters,jsons/v1_VE250_randls_21.json,752344,955362,26,Man
